frame_id,imu_idx,quat_w,quat_x,quat_y,quat_z,accel_x,accel_y,accel_z,free_accel_x,free_accel_y,free_accel_z,delta_v_x,delta_v_y,delta_v_z,delta_q_w,delta_q_x,delta_q_y,delta_q_z,rate_x,rate_y,rate_z,quat_w,quat_x,quat_y,quat_z,mag_x,mag_y,mag_z,temperature,status_byte,packet_counter,time_fine
1,1,0.999361,-0.00533685,0.0353316,-0.000192901,-0.674495,-0.0774344,9.77315,-0.0350537,-0.535891,0.941406,-0.0067459,-0.000783742,0.0977313,1,4.81345e-05,-4.8928e-06,-8.21319e-07,0.0096269,-0.000978559,-0.000164264,0.999361,-0.00533685,0.0353316,-0.000192901,0.188005,0.582628,-0.92376,29.5,1,33844,3431518
1,2,0.999361,-0.00531336,0.0353468,-0.000155275,-0.675645,-0.0811946,9.79518,-0.0366269,-0.536813,0.965157,-0.00675654,-0.000818531,0.0979517,1,3.30527e-05,-5.41894e-07,8.14707e-06,0.00661054,-0.000108379,0.00162941,0.999361,-0.00531336,0.0353468,-0.000155275,0.187035,0.581679,-0.924786,29.5,1,33845,3431618
1,3,0.999362,-0.00521677,0.0353204,-0.00014851,-0.681917,-0.0904982,9.79007,-0.0417597,-0.544971,0.956151,-0.00682219,-0.00091136,0.0979004,1,3.23244e-05,-1.54209e-05,3.56862e-06,0.00646487,-0.00308418,0.000713723,0.999362,-0.00521677,0.0353204,-0.00014851,0.18668,0.577736,-0.922347,29.5,1,33847,3431818
1,4,0.999364,-0.00512818,0.0352753,-0.00012625,-0.686039,-0.0843027,9.78574,-0.0502326,-0.54237,0.949167,-0.00686544,-0.000851183,0.0978569,1,4.05703e-05,-2.59636e-05,1.57132e-05,0.00811405,-0.00519271,0.00314263,0.999364,-0.00512818,0.0352753,-0.00012625,0.187557,0.580681,-0.923801,29.5,1,33849,3432018
2,1,0.999365,-0.00504726,0.0352839,-0.000105773,-0.687926,-0.0967035,9.79512,-0.049193,-0.561645,0.960752,-0.00687793,-0.000975411,0.0979512,1,4.22988e-05,6.70538e-06,6.47668e-06,0.00845976,0.00134108,0.00129534,0.999365,-0.00504726,0.0352839,-0.000105773,0.187046,0.578779,-0.926366,29.5,1,33851,3432218
2,2,0.999366,-0.00495266,0.0352542,-6.51402e-05,-0.682665,-0.0865851,9.78874,-0.041949,-0.548678,0.952906,-0.00683014,-0.0008745,0.0978871,1,4.27421e-05,-1.80044e-05,2.05823e-05,0.00854842,-0.00360088,0.00411645,0.999366,-0.00495266,0.0352542,-6.51402e-05,0.186125,0.577794,-0.925373,29.5,1,33853,3432418
2,3,0.999367,-0.00490536,0.0352417,-5.38453e-05,-0.687212,-0.0838788,9.78675,-0.0535903,-0.545708,0.946846,-0.00687452,-0.000848063,0.0978673,1,4.64859e-05,-1.2387e-05,1.2776e-05,0.00929718,-0.0024774,0.00255519,0.999367,-0.00490536,0.0352417,-5.38453e-05,0.187144,0.577262,-0.92337,29.5,1,33854,3432518
2,4,0.999368,-0.00481487,0.0352096,-3.02789e-05,-0.68231,-0.0890217,9.79008,-0.0513227,-0.554834,0.957182,-0.00682635,-0.000899617,0.0979005,1,4.70076e-05,-1.67414e-05,1.43758e-05,0.00940152,-0.00334828,0.00287516,0.999368,-0.00481487,0.0352096,-3.02789e-05,0.187515,0.578784,-0.926873,29.5,1,33856,3432718
3,1,0.999369,-0.00473357,0.0352109,-7.42512e-06,-0.679039,-0.0875146,9.78938,-0.0422982,-0.559446,0.956225,-0.00679139,-0.00088435,0.0978937,1,4.60018e-05,-5.22461e-06,1.45287e-05,0.00920036,-0.00104492,0.00290574,0.999369,-0.00473357,0.0352109,-7.42512e-06,0.18756,0.578269,-0.92537,29.5,1,33858,3432918
3,2,0.99937,-0.00465637,0.0351967,3.19252e-05,-0.684259,-0.0781776,9.79085,-0.0511353,-0.551363,0.959223,-0.0068427,-0.00078935,0.0979084,1,3.69958e-05,-7.4538e-07,2.41399e-05,0.00739916,-0.000149076,0.00482799,0.99937,-0.00465637,0.0351967,3.19252e-05,0.185253,0.576772,-0.922362,29.5,1,33860,3433118
3,3,0.999371,-0.00456828,0.0351701,4.34369e-05,-0.68208,-0.0840403,9.78299,-0.0458134,-0.554161,0.945563,-0.00682436,-0.000850477,0.0978296,1,5.03978e-05,-1.83335e-05,1.56502e-05,0.0100796,-0.0036667,0.00313004,0.999371,-0.00456828,0.0351701,4.34369e-05,0.187531,0.579254,-0.925853,29.5,1,33862,3433318
3,4,0.999372,-0.00447331,0.035148,7.30648e-05,-0.685347,-0.0931022,9.78972,-0.0496671,-0.564614,0.955532,-0.00685577,-0.000940241,0.097897,1,4.64414e-05,-1.1798e-05,9.18636e-06,0.00928827,-0.0023596,0.00183727,0.999372,-0.00447331,0.035148,7.30648e-05,0.185656,0.577789,-0.924866,29.5,1,33864,3433518
4,1,0.999373,-0.00443304,0.0351315,8.04252e-05,-0.680984,-0.0940168,9.78696,-0.0487573,-0.57124,0.954004,-0.00681304,-0.000948103,0.0978693,1,3.99314e-05,-1.6434e-05,8.75857e-06,0.00798627,-0.0032868,0.00175171,0.999373,-0.00443304,0.0351315,8.04252e-05,0.184698,0.578275,-0.924346,29.5,1,33865,3433618
4,2,0.999374,-0.00434176,0.0351086,9.31313e-05,-0.686677,-0.0934224,9.7877,-0.0513062,-0.571139,0.950776,-0.00686985,-0.000943471,0.0978767,1,4.68828e-05,-1.58063e-05,5.07733e-06,0.00937657,-0.00316126,0.00101547,0.999374,-0.00434176,0.0351086,9.31313e-05,0.185098,0.581704,-0.925282,29.5,1,33867,3433818
4,3,0.999375,-0.00424166,0.0350917,0.000124271,-0.681066,-0.0903482,9.78632,-0.0459516,-0.57281,0.953427,-0.00681248,-0.000912449,0.097863,1,4.49139e-05,-9.41025e-06,1.29696e-05,0.00898278,-0.00188205,0.00259393,0.999375,-0.00424166,0.0350917,0.000124271,0.185619,0.579261,-0.925339,29.5,1,33869,3434018
4,4,0.999376,-0.00413826,0.0350738,0.000142968,-0.68597,-0.0938065,9.79719,-0.0485526,-0.574406,0.964674,-0.00686239,-0.000947981,0.0979716,1,5.0297e-05,-1.37761e-05,4.42186e-06,0.0100594,-0.00275521,0.000884373,0.999376,-0.00413826,0.0350738,0.000142968,0.186186,0.576303,-0.923892,29.5,1,33871,3434218
5,1,0.999377,-0.00405231,0.0350562,0.000165167,-0.68206,-0.089031,9.79312,-0.0487556,-0.570536,0.955035,-0.00682238,-0.000898179,0.097931,1,3.90391e-05,-9.23114e-06,1.63263e-05,0.00780783,-0.00184623,0.00326525,0.999377,-0.00405231,0.0350562,0.000165167,0.187528,0.581666,-0.924284,29.5,1,33873,3434418
5,2,0.999378,-0.00401096,0.0350445,0.000164136,-0.684136,-0.0863108,9.78773,-0.0559649,-0.571177,0.950055,-0.00684356,-0.000871032,0.0978771,1,4.04827e-05,-1.12376e-05,-1.48325e-08,0.00809653,-0.00224751,-2.9665e-06,0.999378,-0.00401096,0.0350445,0.000164136,0.187006,0.581218,-0.926312,29.5,1,33874,3434518
5,3,0.999379,-0.00390888,0.0350099,0.000191221,-0.679716,-0.0799443,9.78267,-0.0447529,-0.570124,0.94682,-0.00679999,-0.000810733,0.0978264,1,5.62502e-05,-1.46175e-05,2.08931e-05,0.01125,-0.00292351,0.00417863,0.999379,-0.00390888,0.0350099,0.000191221,0.186153,0.576809,-0.92489,29.5,1,33876,3434718
5,4,0.999381,-0.00383094,0.0349789,0.000213206,-0.674129,-0.0878889,9.788,-0.0402555,-0.573698,0.95221,-0.00674459,-0.000886161,0.0978797,1,3.60572e-05,-1.69853e-05,1.5866e-05,0.00721144,-0.00339707,0.0031732,0.999381,-0.00383094,0.0349789,0.000213206,0.186684,0.576769,-0.922873,29.5,1,33878,3434918
6,1,0.999381,-0.00374252,0.0349668,0.000233271,-0.690756,-0.0934472,9.79519,-0.0595656,-0.583603,0.955197,-0.00690981,-0.000944435,0.0979516,1,5.03119e-05,-1.15371e-05,7.7038e-06,0.0100624,-0.00230743,0.00154076,0.999381,-0.00374252,0.0349668,0.000233271,0.188013,0.580695,-0.924813,29.5,1,33880,3435118
6,2,0.999383,-0.00366125,0.0349384,0.000263969,-0.689247,-0.0808196,9.79324,-0.0564596,-0.573491,0.955377,-0.0068947,-0.000818403,0.0979322,1,5.10401e-05,-1.15467e-05,1.52161e-05,0.010208,-0.00230934,0.00304323,0.999383,-0.00366125,0.0349384,0.000263969,0.186618,0.577781,-0.924871,29.5,1,33882,3435318
6,3,0.999383,-0.00358614,0.0349382,0.000279201,-0.682914,-0.0815937,9.78877,-0.0533168,-0.574651,0.95255,-0.00682929,-0.000822116,0.0978877,1,3.15402e-05,-7.4663e-07,3.27985e-07,0.00630804,-0.000149326,6.5597e-05,0.999383,-0.00358614,0.0349382,0.000279201,0.188115,0.578211,-0.922343,29.5,1,33884,3435518
6,4,0.999384,-0.00352716,0.0349269,0.000294218,-0.669833,-0.0892824,9.77811,-0.044165,-0.584402,0.936926,-0.00670037,-0.000904598,0.0977809,1,5.89788e-05,-1.06377e-05,1.78943e-05,0.0117958,-0.00212754,0.00357886,0.999384,-0.00352716,0.0349269,0.000294218,0.187605,0.5792,-0.922824,29.5,1,33885,3435618
7,1,0.999384,-0.00344805,0.0349166,0.000320031,-0.684518,-0.0804405,9.78643,-0.0590446,-0.577141,0.944405,-0.00684757,-0.000812925,0.097864,1,4.26676e-05,-1.23268e-05,1.23699e-05,0.00853353,-0.00246537,0.00247399,0.999384,-0.00344805,0.0349166,0.000320031,0.187009,0.580251,-0.926838,29.5,1,33887,3435818
7,2,0.999385,-0.00335921,0.0348952,0.000348185,-0.673873,-0.0945765,9.77708,-0.041814,-0.597838,0.93762,-0.00674113,-0.00095504,0.0977705,1,4.64395e-05,-1.23885e-05,1.44037e-05,0.0092879,-0.00247771,0.00288074,0.999385,-0.00335921,0.0348952,0.000348185,0.187613,0.577267,-0.923877,29.5,1,33889,3436018
7,3,0.999386,-0.00329609,0.034881,0.000366202,-0.688267,-0.0844293,9.79354,-0.0552081,-0.586836,0.950995,-0.00688279,-0.000849438,0.0979353,1,2.53338e-05,-6.87292e-07,1.33254e-05,0.00506677,-0.000137458,0.00266507,0.999386,-0.00329609,0.034881,0.000366202,0.18805,0.580668,-0.923298,29.5,1,33891,3436218
7,4,0.999387,-0.00321537,0.0348632,0.000390686,-0.6759,-0.0961886,9.78352,-0.0525086,-0.600845,0.940427,-0.0067602,-0.000969157,0.0978351,1,3.64483e-05,-6.23989e-06,1.03114e-05,0.00728966,-0.00124798,0.00206229,0.999387,-0.00321537,0.0348632,0.000390686,0.186528,0.57881,-0.927878,29.5,1,33893,3436418
8,1,0.999387,-0.00317814,0.0348512,0.000390943,-0.683767,-0.0833033,9.79047,-0.0589339,-0.584635,0.952213,-0.00683992,-0.000840561,0.0979045,1,3.83388e-05,-1.15037e-05,1.53664e-06,0.00766776,-0.00230075,0.000307329,0.999387,-0.00317814,0.0348512,0.000390943,0.186112,0.577803,-0.925878,29.5,1,33894,3436518
8,2,0.999388,-0.0030823,0.0348407,0.000426188,-0.671539,-0.100908,9.78277,-0.04711,-0.604047,0.943358,-0.00671673,-0.00101724,0.0978275,1,4.01846e-05,-7.07411e-06,2.26332e-05,0.00803693,-0.00141482,0.00452665,0.999388,-0.0030823,0.0348407,0.000426188,0.186672,0.578223,-0.922336,29.5,1,33896,3436718
8,3,0.999389,-0.00300184,0.0348199,0.000447658,-0.682356,-0.0917869,9.78632,-0.0534374,-0.599388,0.9442,-0.00682637,-0.000926025,0.0978629,1,4.02946e-05,-1.45472e-05,1.97199e-05,0.00805892,-0.00290944,0.00394397,0.999389,-0.00300184,0.0348199,0.000447658,0.185636,0.579731,-0.924318,29.5,1,33898,3436918
8,4,0.999389,-0.00291786,0.0348143,0.000460198,-0.687247,-0.096517,9.77986,-0.0588563,-0.613604,0.940042,-0.00687155,-0.000973242,0.0977985,1,4.10211e-05,4.70691e-06,3.51278e-06,0.00820421,0.000941382,0.000702555,0.999389,-0.00291786,0.0348143,0.000460198,0.185174,0.576347,-0.925906,29.5,1,33900,3437118
9,1,0.999391,-0.00282877,0.0347925,0.000478195,-0.683154,-0.0911082,9.78564,-0.0596668,-0.602868,0.947577,-0.00683202,-0.000919464,0.0978563,1,4.1509e-05,-2.62662e-06,1.88984e-05,0.00830181,-0.000525324,0.00377969,0.999391,-0.00282877,0.0347925,0.000478195,0.187581,0.579218,-0.923833,29.5,1,33902,3437318
9,2,0.999391,-0.00278323,0.0347794,0.000476723,-0.684738,-0.0820939,9.78913,-0.0601029,-0.597473,0.949051,-0.00684998,-0.000830479,0.0978911,1,4.84847e-05,-1.32937e-05,3.44942e-06,0.00969694,-0.00265874,0.000689883,0.999391,-0.00278323,0.0347794,0.000476723,0.187544,0.58069,-0.924306,29.5,1,33903,3437418
9,3,0.999392,-0.00269662,0.034757,0.000493172,-0.679775,-0.0766638,9.79253,-0.0500919,-0.590875,0.950859,-0.00679867,-0.000775685,0.0979252,1,4.53517e-05,-4.81309e-06,1.21668e-05,0.00907034,-0.000962617,0.00243335,0.999392,-0.00269662,0.034757,0.000493172,0.187547,0.576833,-0.926917,29.5,1,33905,3437618
9,4,0.999394,-0.00261618,0.0347165,0.000523016,-0.677389,-0.0879398,9.78054,-0.0524848,-0.606851,0.939402,-0.00677586,-0.000886772,0.0978052,1,3.664e-05,-1.02036e-05,1.52608e-05,0.00732801,-0.00204073,0.00305215,0.999394,-0.00261618,0.0347165,0.000523016,0.185167,0.57828,-0.924853,29.5,1,33907,3437818
10,1,0.999394,-0.00255702,0.0346946,0.000520966,-0.682708,-0.0802459,9.7949,-0.0562655,-0.599362,0.95477,-0.00682946,-0.000808927,0.0979488,1,3.29669e-05,-1.21874e-05,7.20737e-07,0.00659339,-0.00243748,0.000144147,0.999394,-0.00255702,0.0346946,0.000520966,0.187503,0.581684,-0.925293,29.5,1,33909,3438018
10,2,0.999396,-0.00248286,0.0346694,0.000525454,-0.685426,-0.0900248,9.7816,-0.0587233,-0.610299,0.940837,-0.00685788,-0.000908763,0.0978157,1,4.27739e-05,-1.86002e-05,1.06953e-05,0.00855478,-0.00372003,0.00213907,0.999396,-0.00248286,0.0346694,0.000525454,0.187037,0.577822,-0.927397,29.5,1,33911,3438218
10,3,0.999396,-0.00241236,0.0346532,0.000557491,-0.692805,-0.0926603,9.7969,-0.0666766,-0.61591,0.955275,-0.00693096,-0.000933198,0.0979687,1,3.28143e-05,-1.49624e-05,1.19005e-05,0.00656286,-0.00299248,0.0023801,0.999396,-0.00241236,0.0346532,0.000557491,0.18522,0.577278,-0.923361,29.5,1,33913,3438418
10,4,0.999397,-0.0023736,0.0346399,0.000576163,-0.680708,-0.087258,9.78601,-0.0540707,-0.616847,0.944578,-0.00680971,-0.000880457,0.0978598,1,3.92795e-05,-1.35579e-05,1.38489e-05,0.0078559,-0.00271159,0.00276978,0.999397,-0.0023736,0.0346399,0.000576163,0.187613,0.577267,-0.923877,29.5,1,33914,3438518
11,1,0.999397,-0.00230826,0.0346282,0.000582891,-0.68827,-0.093744,9.78192,-0.0710147,-0.618724,0.943071,-0.00688305,-0.00094641,0.0978191,1,4.52642e-05,-1.90329e-06,8.28508e-06,0.00905283,-0.000380658,0.00165702,0.999397,-0.00230826,0.0346282,0.000582891,0.188506,0.580682,-0.92431,29.5,1,33916,3438718
11,2,0.999398,-0.00223392,0.0346126,0.00059692,-0.681807,-0.0879337,9.78261,-0.056875,-0.618869,0.93987,-0.00681849,-0.000888548,0.097826,1,4.50705e-05,-2.39339e-06,2.87628e-05,0.00901411,-0.000478677,0.00575257,0.999398,-0.00223392,0.0346126,0.00059692,0.186141,0.578263,-0.924353,29.5,1,33918,3438918
11,3,0.999399,-0.00216198,0.0345812,0.000615083,-0.693835,-0.0911559,9.79726,-0.0721536,-0.620017,0.95769,-0.00694124,-0.000920325,0.0979723,1,4.33941e-05,-1.49252e-05,1.89786e-05,0.00867881,-0.00298503,0.00379572,0.999399,-0.00216198,0.0345812,0.000615083,0.187593,0.579209,-0.923329,29.5,1,33920,3439118
11,4,0.9994,-0.00208791,0.0345641,0.000628203,-0.682112,-0.0818808,9.78912,-0.0575555,-0.610197,0.947787,-0.00682292,-0.000826254,0.097891,1,3.69399e-05,-9.31896e-06,1.56742e-05,0.00738799,-0.00186379,0.00313484,0.9994,-0.00208791,0.0345641,0.000628203,0.188054,0.579702,-0.923825,29.5,1,33922,3439318
12,1,0.999401,-0.00204002,0.0345542,0.00063479,-0.686448,-0.0916091,9.7877,-0.0647088,-0.62212,0.947671,-0.00686647,-0.000927244,0.0978768,1,5.54547e-05,-1.03487e-05,2.167e-05,0.0110909,-0.00206974,0.004334,0.999401,-0.00204002,0.0345542,0.00063479,0.187531,0.579254,-0.925853,29.5,1,33923,3439418
12,2,0.999401,-0.0019734,0.0345393,0.000661299,-0.686109,-0.0985723,9.7856,-0.0661119,-0.634681,0.941053,-0.00686142,-0.000994076,0.0978559,1,4.1293e-05,-1.89418e-06,1.9716e-05,0.00825861,-0.000378836,0.0039432,0.999401,-0.0019734,0.0345393,0.000661299,0.185664,0.577301,-0.924877,29.5,1,33925,3439618
12,3,0.999402,-0.00188594,0.034525,0.000699203,-0.678641,-0.0878294,9.78836,-0.0552288,-0.623691,0.946238,-0.00678914,-0.000887807,0.0978834,1,4.73465e-05,-1.40964e-05,1.79859e-05,0.00946931,-0.00281929,0.00359718,0.999402,-0.00188594,0.034525,0.000699203,0.187568,0.579227,-0.924338,29.5,1,33927,3439818
12,4,0.999402,-0.00183196,0.0345175,0.000697182,-0.674098,-0.0794614,9.79206,-0.0497924,-0.613047,0.950207,-0.00674109,-0.000804203,0.0979205,1,4.75253e-05,-7.43373e-07,2.09289e-05,0.00950506,-0.000148675,0.00418578,0.999402,-0.00183196,0.0345175,0.000697182,0.187988,0.579268,-0.926865,29.5625,1,33929,3440018
13,1,0.999403,-0.0017637,0.0345011,0.000696116,-0.678455,-0.078859,9.78396,-0.0586028,-0.615147,0.939548,-0.0067852,-0.000797263,0.0978395,1,4.38001e-05,-3.35999e-06,7.52671e-06,0.00876003,-0.000671998,0.00150534,0.999403,-0.0017637,0.0345011,0.000696116,0.185713,0.577265,-0.922858,29.5625,1,33931,3440218
13,2,0.999403,-0.00167291,0.0344976,0.000745223,-0.659317,-0.0731146,9.77573,-0.0395289,-0.612764,0.932809,-0.0065921,-0.000740824,0.0977573,1,4.80991e-05,5.31192e-06,2.07965e-05,0.00961982,0.00106238,0.0041593,0.999403,-0.00167291,0.0344976,0.000745223,0.185587,0.581212,-0.925295,29.5625,1,33933,3440418
13,3,0.999404,-0.0016515,0.0344842,0.000743976,-0.679038,-0.080221,9.787,-0.0590608,-0.620777,0.944361,-0.00679284,-0.000809323,0.0978698,1,3.61725e-05,-1.25749e-05,2.42882e-06,0.0072345,-0.00251497,0.000485763,0.999404,-0.0016515,0.0344842,0.000743976,0.185094,0.581225,-0.925797,29.5625,1,33934,3440518
13,4,0.999404,-0.0015885,0.0344606,0.00077227,-0.698664,-0.0951021,9.79786,-0.0758769,-0.640771,0.954378,-0.00698795,-0.000961541,0.0979784,1,5.26346e-05,-6.8715e-06,1.4754e-05,0.0105269,-0.0013743,0.00295081,0.999404,-0.0015885,0.0344606,0.00077227,0.185195,0.577296,-0.92437,29.5625,1,33936,3440718
14,1,0.999405,-0.00151801,0.0344392,0.000822892,-0.684801,-0.0854213,9.79107,-0.0634528,-0.630244,0.944711,-0.0068503,-0.000861927,0.0979105,1,3.75565e-05,-1.19431e-05,2.62838e-05,0.0075113,-0.00238863,0.00525676,0.999405,-0.00151801,0.0344392,0.000822892,0.187153,0.578219,-0.922338,29.5625,1,33938,3440918
14,2,0.999406,-0.00146749,0.0344185,0.000822499,-0.678053,-0.0843424,9.7873,-0.0595961,-0.633,0.945173,-0.00678216,-0.000850491,0.0978728,1,3.51816e-05,-8.44711e-06,1.33235e-05,0.00703633,-0.00168942,0.0026647,0.999406,-0.00146749,0.0344185,0.000822499,0.187083,0.580197,-0.923809,29.5625,1,33940,3441118
14,3,0.999407,-0.00141816,0.0343865,0.000833315,-0.685169,-0.0861395,9.78903,-0.0681557,-0.635646,0.943558,-0.00685356,-0.000869238,0.0978901,1,3.92887e-05,-9.68959e-06,1.10139e-05,0.00785775,-0.00193792,0.00220277,0.999407,-0.00141816,0.0343865,0.000833315,0.184217,0.578279,-0.924344,29.5625,1,33942,3441318
14,4,0.999407,-0.00138379,0.0343883,0.000856684,-0.690934,-0.0942855,9.79205,-0.0698699,-0.640759,0.950957,-0.00690884,-0.000951694,0.0979204,1,4.40162e-05,2.41229e-06,1.58212e-05,0.00880324,0.000482459,0.00316423,0.999407,-0.00138379,0.0343883,0.000856684,0.184771,0.576776,-0.922359,29.5625,1,33943,3441418
15,1,0.999408,-0.00131069,0.034367,0.000889426,-0.680688,-0.105527,9.78408,-0.0638577,-0.654734,0.936799,-0.00680783,-0.00106362,0.0978406,1,4.1699e-05,-5.00871e-06,1.38172e-05,0.0083398,-0.00100174,0.00276344,0.999408,-0.00131069,0.034367,0.000889426,0.186607,0.58068,-0.923291,29.5625,1,33945,3441618
15,2,0.999409,-0.00124883,0.0343476,0.000886754,-0.674968,-0.0879839,9.77979,-0.0557143,-0.636727,0.936767,-0.0067522,-0.000889028,0.0977976,1,4.66966e-05,-1.29096e-05,4.1052e-06,0.00933932,-0.00258193,0.00082104,0.999409,-0.00124883,0.0343476,0.000886754,0.185627,0.578773,-0.925349,29.5625,1,33947,3441818
15,3,0.999409,-0.0012174,0.0343357,0.000912714,-0.678075,-0.0788467,9.78769,-0.0600568,-0.631276,0.94261,-0.00678152,-0.000796921,0.0978767,1,4.19766e-05,-4.05721e-06,1.74863e-05,0.00839533,-0.000811443,0.00349726,0.999409,-0.0012174,0.0343357,0.000912714,0.185672,0.576813,-0.924888,29.5625,1,33949,3442018
15,4,0.99941,-0.00118511,0.0343275,0.00094325,-0.695582,-0.0876769,9.79215,-0.078393,-0.640948,0.948855,-0.00695845,-0.000883005,0.0979212,1,3.08008e-05,-1.35451e-05,1.46142e-05,0.00616016,-0.00270903,0.00292283,0.99941,-0.00118511,0.0343275,0.00094325,0.186125,0.579239,-0.924331,29.5625,1,33951,3442218
16,1,0.99941,-0.00116891,0.0343116,0.000952054,-0.684068,-0.0858578,9.79242,-0.0673369,-0.636686,0.946264,-0.00684411,-0.000864983,0.0979239,1,3.16277e-05,-1.76448e-05,1.53911e-05,0.00632554,-0.00352895,0.00307823,0.99941,-0.00116891,0.0343116,0.000952054,0.186117,0.579727,-0.92432,29.5625,1,33952,3442318
16,2,0.999411,-0.00111581,0.0342846,0.000937163,-0.692274,-0.0965156,9.78695,-0.0736184,-0.649707,0.943778,-0.00692501,-0.000973107,0.0978693,1,4.03132e-05,-1.16602e-05,4.30656e-06,0.00806264,-0.00233205,0.000861311,0.999411,-0.00111581,0.0342846,0.000937163,0.187593,0.577764,-0.924371,29.5625,1,33954,3442518
16,3,0.999412,-0.00104902,0.034273,0.000932181,-0.686078,-0.0880548,9.78631,-0.066613,-0.638877,0.938942,-0.00686416,-0.000891058,0.0978628,1,5.23031e-05,-1.74511e-05,1.99059e-05,0.0104606,-0.00349023,0.00398119,0.999412,-0.00104902,0.034273,0.000932181,0.188103,0.579666,-0.921806,29.5625,1,33956,3442718
16,4,0.999411,-0.000987351,0.0342845,0.000909223,-0.681564,-0.0882915,9.78152,-0.0691113,-0.647442,0.936132,-0.00681622,-0.000891638,0.097815,1,4.3964e-05,-3.03973e-06,8.93163e-06,0.0087928,-0.000607946,0.00178633,0.999411,-0.000987351,0.0342845,0.000909223,0.187536,0.579733,-0.925337,29.5625,1,33958,3442918
17,1,0.999412,-0.000943813,0.0342725,0.000911265,-0.68374,-0.0881157,9.789,-0.0675161,-0.647258,0.943926,-0.00683979,-0.000888643,0.0978898,1,3.73107e-05,-1.23641e-05,1.32155e-05,0.00746214,-0.00247281,0.0026431,0.999412,-0.000943813,0.0342725,0.000911265,0.186647,0.578241,-0.923346,29.5625,1,33960,3443118
17,2,0.999412,-0.000904331,0.0342754,0.000947352,-0.681504,-0.0906018,9.78591,-0.0677004,-0.648521,0.942713,-0.00681517,-0.00091134,0.097859,1,2.57454e-05,-8.77415e-07,2.07388e-05,0.00514908,-0.000175483,0.00414775,0.999412,-0.000904331,0.0342754,0.000947352,0.187577,0.580184,-0.923307,29.5625,1,33962,3443318
17,3,0.999412,-0.000874241,0.034268,0.000949222,-0.68383,-0.0870206,9.78256,-0.0702044,-0.649733,0.937497,-0.00684028,-0.00087966,0.0978254,1,4.74099e-05,-1.02038e-05,1.30274e-05,0.00948197,-0.00204076,0.00260547,0.999412,-0.000874241,0.034268,0.000949222,0.187108,0.580179,-0.9228,29.5625,1,33963,3443418
17,4,0.999412,-0.000816778,0.0342525,0.000967472,-0.685871,-0.0856477,9.78429,-0.0696032,-0.642616,0.938426,-0.00686071,-0.00086646,0.0978427,1,4.98631e-05,-1.03671e-05,1.63708e-05,0.00997262,-0.00207343,0.00327417,0.999412,-0.000816778,0.0342525,0.000967472,0.187535,0.578287,-0.926379,29.5625,1,33965,3443618
18,1,0.999413,-0.000754977,0.0342362,0.000998894,-0.680344,-0.0927176,9.78487,-0.0643936,-0.656756,0.937165,-0.00680567,-0.000937765,0.0978485,1,5.28507e-05,-1.15577e-05,1.81515e-05,0.0105701,-0.00231154,0.0036303,0.999413,-0.000754977,0.0342362,0.000998894,0.18566,0.578267,-0.924351,29.5625,1,33967,3443818
18,2,0.999413,-0.000709637,0.0342272,0.00101886,-0.683455,-0.0964434,9.79163,-0.0654941,-0.663031,0.942837,-0.00683454,-0.000970637,0.0979163,1,3.10279e-05,-6.13605e-08,9.22943e-06,0.00620558,-1.22721e-05,0.00184589,0.999413,-0.000709637,0.0342272,0.00101886,0.187055,0.581182,-0.924292,29.5625,1,33969,3444018
18,3,0.999414,-0.000657657,0.0342203,0.00103038,-0.680433,-0.0867524,9.78797,-0.0698115,-0.653591,0.943419,-0.0068049,-0.000875811,0.0978796,1,4.13172e-05,-3.08274e-06,1.45583e-05,0.00826345,-0.000616549,0.00291166,0.999414,-0.000657657,0.0342203,0.00103038,0.186606,0.57779,-0.925376,29.5625,1,33971,3444218
18,4,0.999414,-0.000623531,0.0342096,0.00103898,-0.682102,-0.0868108,9.77747,-0.0681289,-0.653939,0.933636,-0.00682364,-0.000878545,0.0977744,1,5.25509e-05,-1.34554e-05,1.17719e-05,0.0105102,-0.00269108,0.00235437,0.999414,-0.000623531,0.0342096,0.00103898,0.186643,0.577763,-0.923861,29.5625,1,33972,3444318
19,1,0.999415,-0.000558878,0.0341906,0.00105989,-0.685437,-0.0900128,9.78222,-0.0710915,-0.658816,0.932614,-0.0068578,-0.000910941,0.0978218,1,5.45141e-05,-1.76391e-05,1.07475e-05,0.0109028,-0.00352783,0.00214949,0.999415,-0.000558878,0.0341906,0.00105989,0.186643,0.579208,-0.922819,29.5625,1,33974,3444518
19,2,0.999415,-0.000505216,0.0341833,0.00107814,-0.681963,-0.0936524,9.78589,-0.066233,-0.662803,0.937897,-0.00682307,-0.000944397,0.0978586,1,3.94937e-05,-1.76672e-05,1.0548e-05,0.00789874,-0.00353343,0.0021096,0.999415,-0.000505216,0.0341833,0.00107814,0.188938,0.580714,-0.926332,29.5625,1,33976,3444718
19,3,0.999415,-0.000471748,0.0341789,0.00106657,-0.685214,-0.0840048,9.79006,-0.0715383,-0.652824,0.941893,-0.00685283,-0.000849403,0.0979005,1,4.68213e-05,-3.60816e-06,1.37351e-05,0.00936426,-0.000721632,0.00274702,0.999415,-0.000471748,0.0341789,0.00106657,0.188041,0.578265,-0.925372,29.5625,1,33978,3444918
19,4,0.999415,-0.000430803,0.0341833,0.00110129,-0.682147,-0.0865266,9.79171,-0.0681444,-0.65467,0.946642,-0.0068221,-0.000872406,0.097917,1,3.51369e-05,-3.38637e-06,1.90083e-05,0.00702739,-0.000677273,0.00380165,0.999415,-0.000430803,0.0341833,0.00110129,0.1871,0.579222,-0.923831,29.5625,1,33980,3445118
20,1,0.999415,-0.000397489,0.0341697,0.00112375,-0.690888,-0.0904951,9.78428,-0.0786335,-0.659744,0.936912,-0.00691084,-0.000914496,0.0978426,1,4.79427e-05,-1.01066e-05,1.18052e-05,0.00958854,-0.00202131,0.00236105,0.999415,-0.000397489,0.0341697,0.00112375,0.188004,0.579738,-0.925844,29.5625,1,33982,3445318
20,2,0.999416,-0.000389222,0.0341643,0.00114054,-0.677297,-0.0882512,9.79099,-0.063584,-0.659987,0.943002,-0.00677461,-0.000888712,0.0979098,1,2.98321e-05,-8.61498e-06,2.64793e-05,0.00596643,-0.001723,0.00529585,0.999416,-0.000389222,0.0341643,0.00114054,0.187556,0.577791,-0.925885,29.5625,1,33983,3445418
20,3,0.999416,-0.000345436,0.0341601,0.00115325,-0.679815,-0.086096,9.79034,-0.0685433,-0.657376,0.943285,-0.00679889,-0.000867811,0.0979033,1,3.44645e-05,-3.83146e-06,7.54952e-06,0.0068929,-0.000766291,0.0015099,0.999416,-0.000345436,0.0341601,0.00115325,0.187597,0.578242,-0.923855,29.5625,1,33985,3445618
20,4,0.999416,-0.000307708,0.0341497,0.0011428,-0.695472,-0.0872827,9.78976,-0.0817911,-0.66178,0.945382,-0.00695551,-0.000879985,0.0978975,1,3.56137e-05,-4.15756e-06,1.32772e-05,0.00712273,-0.000831513,0.00265543,0.999416,-0.000307708,0.0341497,0.0011428,0.188013,0.580695,-0.924813,29.5625,1,33987,3445818
21,1,0.999416,-0.000270998,0.0341527,0.00115455,-0.677975,-0.0839777,9.79002,-0.0628835,-0.658838,0.941234,-0.00678176,-0.000848351,0.0979,1,4.27068e-05,-1.04047e-05,1.55716e-05,0.00854136,-0.00208095,0.00311431,0.999416,-0.000270998,0.0341527,0.00115455,0.186092,0.579745,-0.92533,29.5625,1,33989,3446018
21,2,0.999416,-0.000212305,0.0341413,0.00117845,-0.699204,-0.101973,9.79714,-0.0869798,-0.679503,0.953195,-0.00699478,-0.0010294,0.0979711,1,4.89708e-05,-1.40148e-05,5.33084e-06,0.00979415,-0.00280296,0.00106617,0.999416,-0.000212305,0.0341413,0.00117845,0.18714,0.578228,-0.922843,29.5625,1,33991,3446218
21,3,0.999416,-0.000184976,0.0341357,0.00117877,-0.677502,-0.0800394,9.7741,-0.0653187,-0.654378,0.925477,-0.00677676,-0.000809604,0.0977408,1,4.66238e-05,-8.98566e-06,7.08548e-06,0.00932476,-0.00179713,0.0014171,0.999416,-0.000184976,0.0341357,0.00117877,0.18712,0.578725,-0.923337,29.5625,1,33992,3446318
21,4,0.999417,-0.000140065,0.0341275,0.00118465,-0.689652,-0.0908805,9.78392,-0.0773434,-0.667209,0.938186,-0.00689727,-0.000917479,0.0978391,1,4.43217e-05,-3.80318e-06,1.04392e-07,0.00886433,-0.000760636,2.08784e-05,0.999417,-0.000140065,0.0341275,0.00118465,0.186097,0.580223,-0.924814,29.5625,1,33994,3446518
22,1,0.999417,-8.67283e-05,0.0341112,0.0011952,-0.688269,-0.0908131,9.79036,-0.079812,-0.671422,0.943225,-0.00688377,-0.000918967,0.0979035,1,5.43892e-05,-5.64179e-06,1.35306e-05,0.0108778,-0.00112836,0.00270611,0.999417,-8.67283e-05,0.0341112,0.0011952,0.185207,0.577287,-0.923865,29.5625,1,33996,3446718
22,2,0.999417,-4.15308e-05,0.034107,0.00121046,-0.695473,-0.0937112,9.7819,-0.0864536,-0.671882,0.93611,-0.00695442,-0.000943791,0.097819,1,3.31737e-05,1.45099e-06,1.35657e-05,0.00663474,0.000290198,0.00271314,0.999417,-4.15308e-05,0.034107,0.00121046,0.185644,0.579243,-0.924329,29.5625,1,33998,3446918
22,3,0.999417,-5.26335e-06,0.0341088,0.00122135,-0.682868,-0.0902425,9.76964,-0.0686799,-0.670469,0.918803,-0.0068298,-0.000912658,0.0976962,1,5.09043e-05,-5.9438e-06,2.09695e-05,0.0101809,-0.00118876,0.00419389,0.999417,-5.26335e-06,0.0341088,0.00122135,0.186105,0.579736,-0.924825,29.5625,1,34000,3447118
22,4,0.999418,4.20932e-05,0.0341021,0.00122814,-0.695675,-0.0956005,9.788,-0.0818792,-0.677013,0.942994,-0.0069584,-0.000966573,0.0978798,1,5.33461e-05,-8.52362e-06,8.94832e-06,0.0106692,-0.00170472,0.00178966,0.999418,4.20932e-05,0.0341021,0.00122814,0.185627,0.578773,-0.925349,29.5625,1,34002,3447318
23,1,0.999418,5.23197e-05,0.0340989,0.00122665,-0.687622,-0.0865448,9.78191,-0.0764533,-0.671157,0.933642,-0.00687761,-0.000872095,0.0978189,1,3.37381e-05,-7.1191e-06,3.44966e-06,0.00674762,-0.00142382,0.000689932,0.999418,5.23197e-05,0.0340989,0.00122665,0.186606,0.579235,-0.924334,29.5625,1,34003,3447418
23,2,0.999418,0.000103788,0.0340959,0.00123904,-0.684524,-0.0863764,9.7914,-0.0675903,-0.667958,0.942257,-0.0068452,-0.000873887,0.0979139,1,5.0366e-05,2.43823e-08,1.89728e-05,0.0100732,4.87645e-06,0.00379455,0.999418,0.000103788,0.0340959,0.00123904,0.187536,0.579733,-0.925337,29.5625,1,34005,3447618
23,3,0.999417,0.0001348,0.0341071,0.00122888,-0.681014,-0.0979768,9.79195,-0.0709934,-0.678682,0.9451,-0.00681035,-0.000989371,0.0979194,1,4.85852e-05,-1.13989e-06,6.46886e-06,0.00971705,-0.000227978,0.00129377,0.999417,0.0001348,0.0341071,0.00122888,0.18557,0.579297,-0.927358,29.5625,1,34007,3447818
23,4,0.999418,0.000165166,0.0340959,0.00125083,-0.684853,-0.0870513,9.78834,-0.0703846,-0.670659,0.942284,-0.00684937,-0.000879113,0.0978832,1,4.28893e-05,-4.44258e-06,1.48863e-05,0.00857785,-0.000888516,0.00297725,0.999418,0.000165166,0.0340959,0.00125083,0.187597,0.578242,-0.923855,29.5625,1,34009,3448018
24,1,0.999418,0.000205267,0.0341054,0.00126437,-0.684968,-0.0857028,9.78834,-0.0707019,-0.669386,0.939927,-0.00684922,-0.000864008,0.0978834,1,3.43918e-05,2.16831e-06,1.80622e-05,0.00687837,0.000433663,0.00361243,0.999418,0.000205267,0.0341054,0.00126437,0.18659,0.58021,-0.924312,29.5625,1,34011,3448218
24,2,0.999417,0.00021486,0.0341053,0.00126991,-0.684945,-0.080964,9.78228,-0.0693671,-0.66107,0.932512,-0.00685015,-0.000816484,0.0978227,1,3.41386e-05,-3.68049e-06,1.20382e-05,0.00682772,-0.000736098,0.00240764,0.999417,0.00021486,0.0341053,0.00126991,0.186092,0.579745,-0.92533,29.5625,1,34012,3448318
24,3,0.999418,0.000258343,0.034098,0.00129225,-0.678044,-0.0925053,9.79129,-0.0624366,-0.677402,0.944004,-0.00678126,-0.000934991,0.0979128,1,5.01778e-05,-4.28399e-06,8.23683e-06,0.0100356,-0.000856798,0.00164737,0.999418,0.000258343,0.034098,0.00129225,0.187099,0.577777,-0.924873,29.5625,1,34014,3448518
24,4,0.999418,0.000290064,0.034092,0.00130651,-0.688892,-0.0930554,9.78323,-0.0786902,-0.678239,0.936789,-0.00689094,-0.000937068,0.0978321,1,3.20673e-05,-1.04942e-05,1.74008e-05,0.00641346,-0.00209884,0.00348017,0.999418,0.000290064,0.034092,0.00130651,0.188053,0.578256,-0.924867,29.5625,1,34016,3448718
25,1,0.999418,0.000307772,0.0340869,0.00127564,-0.695029,-0.0923487,9.79209,-0.0796279,-0.684012,0.947376,-0.00695124,-0.000930511,0.0979208,1,3.6249e-05,-4.79443e-06,-5.42764e-06,0.00724979,-0.000958886,-0.00108553,0.999418,0.000307772,0.0340869,0.00127564,0.186084,0.580232,-0.925319,29.5625,1,34018,3448918
25,2,0.999419,0.000332386,0.0340577,0.00127262,-0.689499,-0.0932231,9.7795,-0.0792012,-0.682115,0.93086,-0.00689758,-0.000939622,0.0977947,1,3.80371e-05,-1.32452e-05,-3.53356e-06,0.00760742,-0.00264904,-0.000706712,0.999419,0.000332386,0.0340577,0.00127262,0.187654,0.576273,-0.922889,29.5625,1,34020,3449118
25,3,0.999419,0.000351449,0.0340633,0.00126792,-0.69682,-0.0872928,9.79282,-0.082997,-0.677913,0.94655,-0.00696802,-0.000880542,0.0979281,1,3.83891e-05,8.97728e-07,6.84716e-06,0.00767782,0.000179546,0.00136943,0.999419,0.000351449,0.0340633,0.00126792,0.186157,0.577288,-0.924375,29.5625,1,34021,3449218
25,4,0.999419,0.000389746,0.0340539,0.00128838,-0.678169,-0.0818141,9.78596,-0.0668051,-0.669125,0.939871,-0.00678262,-0.000827255,0.0978594,1,4.56012e-05,-4.90259e-06,1.39645e-05,0.00912024,-0.000980519,0.0027929,0.999419,0.000389746,0.0340539,0.00128838,0.187014,0.58073,-0.926322,29.5625,1,34023,3449418
26,1,0.999419,0.000432229,0.0340451,0.00129358,-0.671924,-0.0960971,9.78173,-0.0592853,-0.684904,0.933626,-0.00672058,-0.000969801,0.0978171,1,4.35486e-05,-7.05164e-06,2.31064e-05,0.00870972,-0.00141033,0.00462128,0.999419,0.000432229,0.0340451,0.00129358,0.186051,0.577848,-0.928402,29.5625,1,34025,3449618
26,2,0.99942,0.000465147,0.0340181,0.00132863,-0.681938,-0.0988117,9.7872,-0.0715605,-0.687723,0.940401,-0.00682401,-0.00099509,0.0978716,1,3.42838e-05,-2.38493e-05,1.92581e-05,0.00685676,-0.00476985,0.00385161,0.99942,0.000465147,0.0340181,0.00132863,0.186594,0.579244,-0.924838,29.5625,1,34027,3449818
26,3,0.999421,0.000471089,0.0340064,0.00132615,-0.678026,-0.0821242,9.7897,-0.0642655,-0.673663,0.940222,-0.00678225,-0.000825251,0.0978968,1,2.03773e-05,-1.0185e-05,1.42677e-06,0.00407546,-0.002037,0.000285354,0.999421,0.000471089,0.0340064,0.00132615,0.186105,0.579736,-0.924825,29.5625,1,34029,3450018
26,4,0.999421,0.000491927,0.0340126,0.00133713,-0.684574,-0.0894629,9.78594,-0.0742462,-0.681203,0.940764,-0.00684526,-0.000903638,0.0978593,1,4.50872e-05,2.32815e-06,1.35302e-05,0.00901744,0.00046563,0.00270604,0.999421,0.000491927,0.0340126,0.00133713,0.186121,0.57876,-0.924847,29.5625,1,34030,3450118
27,1,0.99942,0.000538109,0.0340111,0.00135775,-0.691601,-0.0971059,9.78999,-0.0799984,-0.691518,0.941036,-0.00691745,-0.000980237,0.0978997,1,4.52137e-05,-7.61259e-06,2.35087e-05,0.00904274,-0.00152252,0.00470174,0.99942,0.000538109,0.0340111,0.00135775,0.188066,0.578247,-0.924362,29.5625,1,34032,3450318
27,2,0.99942,0.000552849,0.0340246,0.00134948,-0.681256,-0.0823411,9.79344,-0.0678427,-0.678117,0.946427,-0.00681091,-0.000831017,0.0979344,1,3.80929e-05,8.34099e-06,1.05761e-05,0.00761859,0.0016682,0.00211522,0.99942,0.000552849,0.0340246,0.00134948,0.186663,0.577266,-0.923367,29.5625,1,34033,3450418
27,3,0.99942,0.000572289,0.0340165,0.00136566,-0.676317,-0.0819795,9.78697,-0.0620811,-0.675809,0.938664,-0.00676555,-0.000827857,0.0978695,1,4.00338e-05,-1.22992e-05,1.67041e-05,0.00800677,-0.00245984,0.00334081,0.99942,0.000572289,0.0340165,0.00136566,0.186729,0.576254,-0.92137,29.5625,1,34034,3450518
27,4,0.99942,0.000572289,0.0340165,0.00136566,-0.676317,-0.0819795,9.78697,-0.0620811,-0.675809,0.938664,-0.00676555,-0.000827857,0.0978695,1,4.00338e-05,-1.22992e-05,1.67041e-05,0.00800677,-0.00245984,0.00334081,0.99942,0.000572289,0.0340165,0.00136566,0.186729,0.576254,-0.92137,29.5625,1,34034,3450518
28,1,0.999421,0.000605122,0.0339954,0.00137901,-0.690319,-0.0933978,9.79342,-0.080041,-0.686112,0.945069,-0.0069077,-0.000942144,0.0979338,1,4.07063e-05,-2.31508e-05,1.39416e-05,0.00814127,-0.00463016,0.00278833,0.999421,0.000605122,0.0339954,0.00137901,0.186072,0.580242,-0.925824,29.5625,1,34036,3450718
28,2,0.999421,0.00061617,0.0339972,0.00138128,-0.681304,-0.100123,9.79465,-0.0716249,-0.698533,0.948137,-0.00681346,-0.00100916,0.0979464,1,4.01941e-05,-2.16821e-06,4.38077e-06,0.00803881,-0.000433642,0.000876154,0.999421,0.00061617,0.0339972,0.00138128,0.184164,0.579282,-0.925836,29.5625,1,34037,3450818
28,3,0.999421,0.00061617,0.0339972,0.00138128,-0.681304,-0.100123,9.79465,-0.0716249,-0.698533,0.948137,-0.00681346,-0.00100916,0.0979464,1,4.01941e-05,-2.16821e-06,4.38077e-06,0.00803881,-0.000433642,0.000876154,0.999421,0.00061617,0.0339972,0.00138128,0.184164,0.579282,-0.925836,29.5625,1,34037,3450818
28,4,0.999421,0.00061617,0.0339972,0.00138128,-0.681304,-0.100123,9.79465,-0.0716249,-0.698533,0.948137,-0.00681346,-0.00100916,0.0979464,1,4.01941e-05,-2.16821e-06,4.38077e-06,0.00803881,-0.000433642,0.000876154,0.999421,0.00061617,0.0339972,0.00138128,0.184164,0.579282,-0.925836,29.5625,1,34037,3450818
29,1,0.999421,0.000644674,0.0339838,0.00143747,-0.683169,-0.0826747,9.79108,-0.074379,-0.681879,0.947113,-0.00683315,-0.000833743,0.0979106,1,3.36263e-05,-7.72064e-06,3.00725e-05,0.00672525,-0.00154413,0.0060145,0.999421,0.000644674,0.0339838,0.00143747,0.186655,0.577754,-0.923357,29.5625,1,34039,3451018
29,2,0.999421,0.000670082,0.0339838,0.00143604,-0.685903,-0.0931244,9.78354,-0.0744838,-0.690102,0.93441,-0.00685985,-0.000940907,0.0978353,1,4.8548e-05,-4.32711e-06,1.19248e-05,0.00970959,-0.000865422,0.00238497,0.999421,0.000670082,0.0339838,0.00143604,0.186643,0.579208,-0.922819,29.5625,1,34040,3451118
29,3,0.999421,0.000688481,0.0339806,0.00143996,-0.681499,-0.0822745,9.78598,-0.0711365,-0.676897,0.937571,-0.00681646,-0.000831279,0.0978596,1,4.25447e-05,-7.67411e-06,1.51899e-05,0.00850893,-0.00153482,0.00303798,0.999421,0.000688481,0.0339806,0.00143996,0.18659,0.58021,-0.924312,29.5625,1,34041,3451218
29,4,0.999421,0.000688481,0.0339806,0.00143996,-0.681499,-0.0822745,9.78598,-0.0711365,-0.676897,0.937571,-0.00681646,-0.000831279,0.0978596,1,4.25447e-05,-7.67411e-06,1.51899e-05,0.00850893,-0.00153482,0.00303798,0.999421,0.000688481,0.0339806,0.00143996,0.18659,0.58021,-0.924312,29.5625,1,34041,3451218
30,1,0.999421,0.000727393,0.0339903,0.00144235,-0.685586,-0.0931022,9.78557,-0.0732491,-0.69007,0.93741,-0.00685643,-0.000941812,0.0978556,1,5.41619e-05,-3.00655e-06,1.38826e-05,0.0108324,-0.00060131,0.00277651,0.999421,0.000727393,0.0339903,0.00144235,0.186092,0.578299,-0.926372,29.5625,3,34043,3451418
30,2,0.999421,0.000727393,0.0339903,0.00144235,-0.685586,-0.0931022,9.78557,-0.0732491,-0.69007,0.93741,-0.00685643,-0.000941812,0.0978556,1,5.41619e-05,-3.00655e-06,1.38826e-05,0.0108324,-0.00060131,0.00277651,0.999421,0.000727393,0.0339903,0.00144235,0.186092,0.578299,-0.926372,29.5625,3,34043,3451418
30,3,0.999421,0.000763283,0.0339743,0.00145128,-0.68636,-0.0917183,9.78594,-0.0738422,-0.69091,0.937353,-0.00686759,-0.00092957,0.097859,1,6.24377e-05,-2.04948e-05,1.20977e-05,0.0124876,-0.00409895,0.00241953,0.999421,0.000763283,0.0339743,0.00145128,0.185701,0.577274,-0.923363,29.5625,3,34044,3451518
30,4,0.999421,0.000763283,0.0339743,0.00145128,-0.68636,-0.0917183,9.78594,-0.0738422,-0.69091,0.937353,-0.00686759,-0.00092957,0.097859,1,6.24377e-05,-2.04948e-05,1.20977e-05,0.0124876,-0.00409895,0.00241953,0.999421,0.000763283,0.0339743,0.00145128,0.185701,0.577274,-0.923363,29.5625,3,34044,3451518
31,1,0.999421,0.000800378,0.03398,0.00145986,-0.678002,-0.0932391,9.79367,-0.0680639,-0.693147,0.939538,-0.00677968,-0.000940161,0.0979366,1,3.8717e-05,1.56824e-06,1.37946e-05,0.0077434,0.000313647,0.00275891,0.999421,0.000800378,0.03398,0.00145986,0.18661,0.578268,-0.92486,29.5625,3,34046,3451718
31,2,0.999421,0.000814818,0.0339772,0.00146053,-0.671963,-0.0862757,9.78215,-0.0601558,-0.683399,0.931966,-0.00672105,-0.000870804,0.0978214,1,4.04585e-05,-7.34641e-06,9.79751e-06,0.0080917,-0.00146928,0.0019595,0.999421,0.000814818,0.0339772,0.00146053,0.187054,0.578291,-0.926377,29.5625,3,34047,3451818
31,3,0.999421,0.000814818,0.0339772,0.00146053,-0.671963,-0.0862757,9.78215,-0.0601558,-0.683399,0.931966,-0.00672105,-0.000870804,0.0978214,1,4.04585e-05,-7.34641e-06,9.79751e-06,0.0080917,-0.00146928,0.0019595,0.999421,0.000814818,0.0339772,0.00146053,0.187054,0.578291,-0.926377,29.5625,3,34047,3451818
31,4,0.999421,0.000814818,0.0339772,0.00146053,-0.671963,-0.0862757,9.78215,-0.0601558,-0.683399,0.931966,-0.00672105,-0.000870804,0.0978214,1,4.04585e-05,-7.34641e-06,9.79751e-06,0.0080917,-0.00146928,0.0019595,0.999421,0.000814818,0.0339772,0.00146053,0.187054,0.578291,-0.926377,29.5625,3,34047,3451818
32,1,0.999422,0.000848431,0.0339589,0.0014651,-0.686502,-0.0843271,9.78567,-0.0781121,-0.685231,0.935081,-0.00686832,-0.000852389,0.0978563,1,4.53685e-05,-1.70075e-05,1.73953e-05,0.00907371,-0.0034015,0.00347906,0.999422,0.000848431,0.0339589,0.0014651,0.185611,0.578303,-0.92637,29.5625,3,34049,3452018
32,2,0.999422,0.000864315,0.0339598,0.00147487,-0.689646,-0.085719,9.7799,-0.0807914,-0.682105,0.930751,-0.00689711,-0.000865662,0.0977989,1,4.26695e-05,-3.37887e-06,9.10058e-06,0.00853391,-0.000675774,0.00182012,0.999422,0.000864315,0.0339598,0.00147487,0.18661,0.576823,-0.925902,29.5625,3,34050,3452118
32,3,0.999422,0.000886281,0.0339607,0.00146351,-0.691199,-0.0945641,9.78866,-0.080213,-0.694919,0.940109,-0.00691269,-0.00095483,0.0978864,1,4.70411e-05,-3.55182e-06,-1.45869e-06,0.00940822,-0.000710363,-0.000291739,0.999422,0.000886281,0.0339607,0.00146351,0.187596,0.576797,-0.924897,29.5625,3,34051,3452218
32,4,0.999422,0.000886281,0.0339607,0.00146351,-0.691199,-0.0945641,9.78866,-0.080213,-0.694919,0.940109,-0.00691269,-0.00095483,0.0978864,1,4.70411e-05,-3.55182e-06,-1.45869e-06,0.00940822,-0.000710363,-0.000291739,0.999422,0.000886281,0.0339607,0.00146351,0.187596,0.576797,-0.924897,29.5625,3,34051,3452218
33,1,0.999422,0.000928264,0.0339416,0.00146076,-0.681196,-0.0932675,9.79336,-0.0738734,-0.695674,0.947426,-0.0068162,-0.000941999,0.0979332,1,4.62829e-05,-2.18491e-05,1.89859e-05,0.00925658,-0.00436981,0.00379718,0.999422,0.000928264,0.0339416,0.00146076,0.188046,0.580189,-0.923814,29.5625,3,34053,3452418
33,2,0.999423,0.000946807,0.033932,0.00144891,-0.684782,-0.0911652,9.78694,-0.0739297,-0.694537,0.933918,-0.00685052,-0.000920487,0.0978692,1,4.38075e-05,-1.3966e-05,1.89768e-05,0.0087615,-0.0027932,0.00379536,0.999423,0.000946807,0.033932,0.00144891,0.188473,0.579743,-0.926351,29.5625,3,34054,3452518
33,3,0.999423,0.000946807,0.033932,0.00144891,-0.684782,-0.0911652,9.78694,-0.0739297,-0.694537,0.933918,-0.00685052,-0.000920487,0.0978692,1,4.38075e-05,-1.3966e-05,1.89768e-05,0.0087615,-0.0027932,0.00379536,0.999423,0.000946807,0.033932,0.00144891,0.188473,0.579743,-0.926351,29.5625,3,34054,3452518
33,4,0.999423,0.000946807,0.033932,0.00144891,-0.684782,-0.0911652,9.78694,-0.0739297,-0.694537,0.933918,-0.00685052,-0.000920487,0.0978692,1,4.38075e-05,-1.3966e-05,1.89768e-05,0.0087615,-0.0027932,0.00379536,0.999423,0.000946807,0.033932,0.00144891,0.188473,0.579743,-0.926351,29.5625,3,34054,3452518
34,1,0.999423,0.000970858,0.0339326,0.0014339,-0.679364,-0.0983848,9.78312,-0.0706017,-0.704118,0.937651,-0.00679466,-0.000991035,0.097831,1,3.52804e-05,-5.41669e-06,2.09361e-05,0.00705607,-0.00108334,0.00418722,0.999423,0.000970858,0.0339326,0.0014339,0.187038,0.579267,-0.926355,29.5625,3,34056,3452718
34,2,0.999423,0.000998946,0.0339283,0.00141404,-0.68651,-0.092175,9.78729,-0.0771544,-0.695749,0.939675,-0.00686676,-0.000932404,0.0978727,1,5.50151e-05,-8.37064e-06,-8.36511e-06,0.011003,-0.00167413,-0.00167302,0.999423,0.000998946,0.0339283,0.00141404,0.186133,0.578751,-0.924342,29.5625,3,34057,3452818
34,3,0.999423,0.000998946,0.0339283,0.00141404,-0.68651,-0.092175,9.78729,-0.0771544,-0.695749,0.939675,-0.00686676,-0.000932404,0.0978727,1,5.50151e-05,-8.37064e-06,-8.36511e-06,0.011003,-0.00167413,-0.00167302,0.999423,0.000998946,0.0339283,0.00141404,0.186133,0.578751,-0.924342,29.5625,3,34057,3452818
34,4,0.999423,0.000998946,0.0339283,0.00141404,-0.68651,-0.092175,9.78729,-0.0771544,-0.695749,0.939675,-0.00686676,-0.000932404,0.0978727,1,5.50151e-05,-8.37064e-06,-8.36511e-06,0.011003,-0.00167413,-0.00167302,0.999423,0.000998946,0.0339283,0.00141404,0.186133,0.578751,-0.924342,29.5625,3,34057,3452818
35,1,0.999423,0.00102693,0.0339287,0.00145251,-0.688529,-0.0887781,9.79208,-0.0812321,-0.693883,0.9422,-0.00688637,-0.000897262,0.0979207,1,4.65662e-05,-5.76271e-06,2.62092e-05,0.00931325,-0.00115254,0.00524184,0.999423,0.00102693,0.0339287,0.00145251,0.186566,0.581674,-0.924279,29.5625,3,34059,3453018
35,2,0.999422,0.00104454,0.0339341,0.00145092,-0.680915,-0.0856617,9.78153,-0.0699615,-0.687449,0.928563,-0.00680883,-0.000865262,0.0978153,1,4.34295e-05,1.52783e-06,1.0917e-05,0.00868589,0.000305566,0.0021834,0.999422,0.00104454,0.0339341,0.00145092,0.18708,0.581164,-0.923283,29.5625,3,34060,3453118
35,3,0.999422,0.00107159,0.0339482,0.00144447,-0.681571,-0.0938071,9.78757,-0.073434,-0.702035,0.93362,-0.00681374,-0.000948298,0.0978757,1,5.16642e-05,9.97258e-06,8.33731e-06,0.0103328,0.00199452,0.00166746,0.999422,0.00107159,0.0339482,0.00144447,0.186631,0.579217,-0.923324,29.5625,3,34061,3453218
35,4,0.999422,0.00107159,0.0339482,0.00144447,-0.681571,-0.0938071,9.78757,-0.073434,-0.702035,0.93362,-0.00681374,-0.000948298,0.0978757,1,5.16642e-05,9.97258e-06,8.33731e-06,0.0103328,0.00199452,0.00166746,0.999422,0.00107159,0.0339482,0.00144447,0.186631,0.579217,-0.923324,29.5625,3,34061,3453218
36,1,0.999422,0.00111187,0.0339489,0.00144223,-0.681417,-0.0956377,9.78451,-0.0669833,-0.705399,0.928928,-0.00681542,-0.000963869,0.097845,1,3.79644e-05,-6.45234e-06,4.59705e-06,0.00759288,-0.00129047,0.000919409,0.999422,0.00111187,0.0339489,0.00144223,0.187169,0.577244,-0.92236,29.5625,3,34063,3453418
36,2,0.999422,0.00111187,0.0339489,0.00144223,-0.681417,-0.0956377,9.78451,-0.0669833,-0.705399,0.928928,-0.00681542,-0.000963869,0.097845,1,3.79644e-05,-6.45234e-06,4.59705e-06,0.00759288,-0.00129047,0.000919409,0.999422,0.00111187,0.0339489,0.00144223,0.187169,0.577244,-0.92236,29.5625,3,34063,3453418
36,3,0.999422,0.00111954,0.0339448,0.00145967,-0.676219,-0.0881423,9.78828,-0.0679739,-0.69085,0.939031,-0.00676378,-0.000887835,0.0978826,1,3.11492e-05,-8.35977e-06,2.32045e-05,0.00622984,-0.00167195,0.00464091,0.999422,0.00111954,0.0339448,0.00145967,0.187617,0.577745,-0.923361,29.5625,3,34064,3453518
36,4,0.999422,0.00111954,0.0339448,0.00145967,-0.676219,-0.0881423,9.78828,-0.0679739,-0.69085,0.939031,-0.00676378,-0.000887835,0.0978826,1,3.11492e-05,-8.35977e-06,2.32045e-05,0.00622984,-0.00167195,0.00464091,0.999422,0.00111954,0.0339448,0.00145967,0.187617,0.577745,-0.923361,29.5625,3,34064,3453518
37,1,0.999423,0.00117253,0.0339151,0.00147524,-0.681021,-0.088353,9.78525,-0.0712199,-0.697093,0.933309,-0.00681409,-0.000893597,0.0978521,1,5.00269e-05,-2.00588e-05,2.02956e-05,0.0100054,-0.00401176,0.00405911,0.999423,0.00117253,0.0339151,0.00147524,0.187055,0.579737,-0.925335,29.5625,3,34066,3453718
37,2,0.999423,0.00119737,0.0339067,0.00146468,-0.685507,-0.0900898,9.78865,-0.0720267,-0.698349,0.936491,-0.00685751,-0.000911047,0.0978863,1,5.2072e-05,-1.24448e-05,-3.31893e-06,0.0104144,-0.00248896,-0.000663787,0.999423,0.00119737,0.0339067,0.00146468,0.18705,0.579258,-0.92585,29.5625,3,34067,3453818
37,3,0.999423,0.00119737,0.0339067,0.00146468,-0.685507,-0.0900898,9.78865,-0.0720267,-0.698349,0.936491,-0.00685751,-0.000911047,0.0978863,1,5.2072e-05,-1.24448e-05,-3.31893e-06,0.0104144,-0.00248896,-0.000663787,0.999423,0.00119737,0.0339067,0.00146468,0.18705,0.579258,-0.92585,29.5625,3,34067,3453818
37,4,0.999423,0.00119737,0.0339067,0.00146468,-0.685507,-0.0900898,9.78865,-0.0720267,-0.698349,0.936491,-0.00685751,-0.000911047,0.0978863,1,5.2072e-05,-1.24448e-05,-3.31893e-06,0.0104144,-0.00248896,-0.000663787,0.999423,0.00119737,0.0339067,0.00146468,0.18705,0.579258,-0.92585,29.5625,3,34067,3453818
38,1,0.999423,0.00123372,0.033903,0.00148148,-0.678561,-0.0951982,9.78722,-0.0688199,-0.706965,0.93291,-0.0067883,-0.000961102,0.0978719,1,4.56125e-05,-1.38673e-05,1.4143e-05,0.0091225,-0.00277345,0.0028286,0.999423,0.00123372,0.033903,0.00148148,0.18469,0.578763,-0.924335,29.5625,3,34069,3454018
38,2,0.999423,0.00125088,0.0339045,0.00149529,-0.682082,-0.0940207,9.79436,-0.0745335,-0.706814,0.947036,-0.00682127,-0.000948663,0.0979435,1,4.26434e-05,-2.3227e-06,7.53822e-06,0.00852867,-0.000464541,0.00150764,0.999423,0.00125088,0.0339045,0.00149529,0.185648,0.578276,-0.924855,29.5625,3,34070,3454118
38,3,0.999423,0.00127472,0.0338986,0.00151064,-0.680637,-0.0987309,9.79466,-0.0721011,-0.711219,0.941409,-0.00680831,-0.000997161,0.0979463,1,4.89855e-05,-1.0083e-05,1.8826e-05,0.00979711,-0.0020166,0.0037652,0.999423,0.00127472,0.0338986,0.00151064,0.186614,0.578747,-0.924344,29.5625,3,34071,3454218
38,4,0.999423,0.00127472,0.0338986,0.00151064,-0.680637,-0.0987309,9.79466,-0.0721011,-0.711219,0.941409,-0.00680831,-0.000997161,0.0979463,1,4.89855e-05,-1.0083e-05,1.8826e-05,0.00979711,-0.0020166,0.0037652,0.999423,0.00127472,0.0338986,0.00151064,0.186614,0.578747,-0.924344,29.5625,3,34071,3454218
39,1,0.999423,0.00132141,0.0338948,0.00151652,-0.685532,-0.088657,9.7924,-0.0729139,-0.700531,0.940018,-0.00685585,-0.000893575,0.0979239,1,3.44552e-05,-2.83312e-06,1.8755e-05,0.00689104,-0.000566624,0.00375099,0.999423,0.00132141,0.0338948,0.00151652,0.18707,0.577316,-0.926399,29.5625,3,34073,3454418
39,2,0.999423,0.00132141,0.0338948,0.00151652,-0.685532,-0.088657,9.7924,-0.0729139,-0.700531,0.940018,-0.00685585,-0.000893575,0.0979239,1,3.44552e-05,-2.83312e-06,1.8755e-05,0.00689104,-0.000566624,0.00375099,0.999423,0.00132141,0.0338948,0.00151652,0.18707,0.577316,-0.926399,29.5625,3,34073,3454418
39,3,0.999423,0.00133372,0.0338986,0.00150955,-0.694043,-0.0957097,9.78493,-0.0831453,-0.706521,0.938352,-0.00694053,-0.000964699,0.0978492,1,3.86722e-05,-5.47464e-07,2.41962e-06,0.00773445,-0.000109493,0.000483923,0.999423,0.00133372,0.0338986,0.00150955,0.185178,0.576826,-0.925391,29.5625,3,34074,3454518
39,4,0.999423,0.00133372,0.0338986,0.00150955,-0.694043,-0.0957097,9.78493,-0.0831453,-0.706521,0.938352,-0.00694053,-0.000964699,0.0978492,1,3.86722e-05,-5.47464e-07,2.41962e-06,0.00773445,-0.000109493,0.000483923,0.999423,0.00133372,0.0338986,0.00150955,0.185178,0.576826,-0.925391,29.5625,3,34074,3454518
40,1,0.999424,0.00138968,0.0338802,0.00154295,-0.679001,-0.0903645,9.79065,-0.0739613,-0.70175,0.943133,-0.00679149,-0.000912894,0.0979063,1,4.66015e-05,-7.63311e-06,9.12149e-06,0.0093203,-0.00152662,0.0018243,0.999424,0.00138968,0.0338802,0.00154295,0.18807,0.578726,-0.923847,29.5625,3,34076,3454718
40,2,0.999424,0.00140351,0.0338772,0.00154287,-0.676722,-0.0941975,9.78415,-0.0703448,-0.709579,0.93338,-0.00676869,-0.000949753,0.0978413,1,3.83275e-05,-7.72998e-06,2.05099e-05,0.0076655,-0.001546,0.00410197,0.999424,0.00140351,0.0338772,0.00154287,0.188975,0.580687,-0.924817,29.5625,3,34077,3454818
40,3,0.999424,0.00140351,0.0338772,0.00154287,-0.676722,-0.0941975,9.78415,-0.0703448,-0.709579,0.93338,-0.00676869,-0.000949753,0.0978413,1,3.83275e-05,-7.72998e-06,2.05099e-05,0.0076655,-0.001546,0.00410197,0.999424,0.00140351,0.0338772,0.00154287,0.188975,0.580687,-0.924817,29.5625,3,34077,3454818
40,4,0.999424,0.00140351,0.0338772,0.00154287,-0.676722,-0.0941975,9.78415,-0.0703448,-0.709579,0.93338,-0.00676869,-0.000949753,0.0978413,1,3.83275e-05,-7.72998e-06,2.05099e-05,0.0076655,-0.001546,0.00410197,0.999424,0.00140351,0.0338772,0.00154287,0.188975,0.580687,-0.924817,29.5625,3,34077,3454818
41,1,0.999423,0.00143779,0.0339016,0.00149665,-0.681435,-0.0955311,9.78451,-0.0736844,-0.710937,0.936109,-0.00681358,-0.000965155,0.097845,1,5.02728e-05,3.95794e-06,4.72797e-07,0.0100546,0.000791588,9.45594e-05,0.999423,0.00143779,0.0339016,0.00149665,0.186125,0.577794,-0.925373,29.5625,3,34079,3455018
41,2,0.999423,0.00146401,0.0338974,0.00151851,-0.68035,-0.0935114,9.78995,-0.0714104,-0.710584,0.938942,-0.00680512,-0.000945232,0.0978993,1,5.06397e-05,-8.42298e-06,1.49161e-05,0.0101279,-0.0016846,0.00298322,0.999423,0.00146401,0.0338974,0.00151851,0.187666,0.576264,-0.922384,29.5625,3,34080,3455118
41,3,0.999422,0.0014999,0.0339135,0.00152361,-0.691109,-0.0904317,9.78868,-0.0811005,-0.706512,0.93886,-0.00690875,-0.000915868,0.0978868,1,5.78892e-05,1.18351e-05,1.57636e-05,0.0115778,0.00236701,0.00315271,0.999422,0.0014999,0.0339135,0.00152361,0.186162,0.579212,-0.922817,29.5625,3,34081,3455218
41,4,0.999422,0.0014999,0.0339135,0.00152361,-0.691109,-0.0904317,9.78868,-0.0811005,-0.706512,0.93886,-0.00690875,-0.000915868,0.0978868,1,5.78892e-05,1.18351e-05,1.57636e-05,0.0115778,0.00236701,0.00315271,0.999422,0.0014999,0.0339135,0.00152361,0.186162,0.579212,-0.922817,29.5625,3,34081,3455218
42,1,0.999423,0.00153538,0.0338975,0.00154445,-0.676906,-0.0936739,9.78993,-0.0679041,-0.704737,0.937099,-0.00677205,-0.000943244,0.097899,1,3.27042e-05,-1.53745e-05,7.48224e-06,0.00654084,-0.0030749,0.00149645,0.999423,0.00153538,0.0338975,0.00154445,0.188037,0.579232,-0.924845,29.5625,3,34083,3455418
42,2,0.999423,0.00153538,0.0338975,0.00154445,-0.676906,-0.0936739,9.78993,-0.0679041,-0.704737,0.937099,-0.00677205,-0.000943244,0.097899,1,3.27042e-05,-1.53745e-05,7.48224e-06,0.00654084,-0.0030749,0.00149645,0.999423,0.00153538,0.0338975,0.00154445,0.188037,0.579232,-0.924845,29.5625,3,34083,3455418
42,3,0.999423,0.00155545,0.0338973,0.00154888,-0.673363,-0.0845894,9.78488,-0.0672998,-0.699842,0.934072,-0.0067345,-0.000855053,0.0978487,1,4.52604e-05,-4.63612e-06,2.23742e-05,0.00905208,-0.000927224,0.00447484,0.999423,0.00155545,0.0338973,0.00154888,0.189492,0.577766,-0.92539,29.5625,3,34084,3455518
42,4,0.999423,0.00155545,0.0338973,0.00154888,-0.673363,-0.0845894,9.78488,-0.0672998,-0.699842,0.934072,-0.0067345,-0.000855053,0.0978487,1,4.52604e-05,-4.63612e-06,2.23742e-05,0.00905208,-0.000927224,0.00447484,0.999423,0.00155545,0.0338973,0.00154888,0.189492,0.577766,-0.92539,29.5625,3,34084,3455518
43,1,0.999423,0.00159894,0.0339011,0.00153881,-0.679737,-0.0877815,9.79033,-0.0761011,-0.704925,0.939368,-0.00679859,-0.000885765,0.0979031,1,4.01027e-05,-6.28647e-06,7.201e-06,0.00802055,-0.00125729,0.0014402,0.999423,0.00159894,0.0339011,0.00153881,0.187641,0.576282,-0.923394,29.5625,3,34086,3455718
43,2,0.999423,0.00162246,0.0338935,0.00155636,-0.682019,-0.0887784,9.79238,-0.076071,-0.707471,0.940198,-0.00682246,-0.00089722,0.0979235,1,4.67692e-05,-1.17849e-05,2.02842e-05,0.00935384,-0.00235698,0.00405684,0.999423,0.00162246,0.0338935,0.00155636,0.185762,0.575783,-0.921881,29.5625,3,34087,3455818
43,3,0.999423,0.00162246,0.0338935,0.00155636,-0.682019,-0.0887784,9.79238,-0.076071,-0.707471,0.940198,-0.00682246,-0.00089722,0.0979235,1,4.67692e-05,-1.17849e-05,2.02842e-05,0.00935384,-0.00235698,0.00405684,0.999423,0.00162246,0.0338935,0.00155636,0.185762,0.575783,-0.921881,29.5625,3,34087,3455818
43,4,0.999423,0.00162246,0.0338935,0.00155636,-0.682019,-0.0887784,9.79238,-0.076071,-0.707471,0.940198,-0.00682246,-0.00089722,0.0979235,1,4.67692e-05,-1.17849e-05,2.02842e-05,0.00935384,-0.00235698,0.00405684,0.999423,0.00162246,0.0338935,0.00155636,0.185762,0.575783,-0.921881,29.5625,3,34087,3455818
44,1,0.999422,0.00165358,0.0339029,0.00156268,-0.687248,-0.0899131,9.79545,-0.0831165,-0.709574,0.943934,-0.00687194,-0.000906305,0.0979545,1,3.6275e-05,2.7104e-06,4.89873e-06,0.007255,0.000542081,0.000979746,0.999422,0.00165358,0.0339029,0.00156268,0.18708,0.581164,-0.923283,29.5625,3,34089,3456018
44,2,0.999423,0.00166715,0.0338975,0.00156902,-0.690644,-0.0823063,9.78605,-0.0870216,-0.702016,0.93602,-0.00690831,-0.000831068,0.0978603,1,4.00301e-05,-9.61876e-06,1.2314e-05,0.00800601,-0.00192375,0.00246281,0.999423,0.00166715,0.0338975,0.00156902,0.187536,0.581178,-0.924295,29.5625,3,34090,3456118
44,3,0.999423,0.0016856,0.0338979,0.00157989,-0.682152,-0.0894901,9.79237,-0.0704083,-0.709106,0.938441,-0.00682223,-0.00090381,0.0979235,1,4.41241e-05,-3.82594e-06,1.96194e-05,0.00882483,-0.000765188,0.00392388,0.999423,0.0016856,0.0338979,0.00157989,0.186577,0.578774,-0.925859,29.5625,3,34091,3456218
44,4,0.999423,0.0016856,0.0338979,0.00157989,-0.682152,-0.0894901,9.79237,-0.0704083,-0.709106,0.938441,-0.00682223,-0.00090381,0.0979235,1,4.41241e-05,-3.82594e-06,1.96194e-05,0.00882483,-0.000765188,0.00392388,0.999423,0.0016856,0.0338979,0.00157989,0.186577,0.578774,-0.925859,29.5625,3,34091,3456218
45,1,0.999423,0.00171942,0.033874,0.00158719,-0.680148,-0.0858867,9.77949,-0.0736758,-0.706635,0.927269,-0.006803,-0.000868717,0.0977947,1,4.9578e-05,-7.86046e-06,1.12467e-05,0.0099156,-0.00157209,0.00224934,0.999423,0.00171942,0.033874,0.00158719,0.186627,0.578738,-0.92384,29.5625,3,34093,3456418
45,2,0.999423,0.00173857,0.0338741,0.00159539,-0.681408,-0.0969529,9.78517,-0.0736264,-0.717922,0.932407,-0.00681484,-0.000978286,0.0978516,1,4.36846e-05,-4.05857e-06,1.52104e-05,0.00873693,-0.000811715,0.00304207,0.999423,0.00173857,0.0338741,0.00159539,0.188037,0.579232,-0.924845,29.5625,3,34094,3456518
45,3,0.999423,0.00173857,0.0338741,0.00159539,-0.681408,-0.0969529,9.78517,-0.0736264,-0.717922,0.932407,-0.00681484,-0.000978286,0.0978516,1,4.36846e-05,-4.05857e-06,1.52104e-05,0.00873693,-0.000811715,0.00304207,0.999423,0.00173857,0.0338741,0.00159539,0.188037,0.579232,-0.924845,29.5625,3,34094,3456518
45,4,0.999423,0.00173857,0.0338741,0.00159539,-0.681408,-0.0969529,9.78517,-0.0736264,-0.717922,0.932407,-0.00681484,-0.000978286,0.0978516,1,4.36846e-05,-4.05857e-06,1.52104e-05,0.00873693,-0.000811715,0.00304207,0.999423,0.00173857,0.0338741,0.00159539,0.188037,0.579232,-0.924845,29.5625,3,34094,3456518
46,1,0.999424,0.0017612,0.0338664,0.00161373,-0.681853,-0.0840356,9.78325,-0.0734851,-0.704517,0.932256,-0.0068197,-0.000846585,0.0978324,1,3.04561e-05,-6.16921e-06,1.97217e-05,0.00609122,-0.00123384,0.00394434,0.999424,0.0017612,0.0338664,0.00161373,0.187568,0.579227,-0.924338,29.5625,3,34096,3456718
46,2,0.999423,0.00178982,0.0338671,0.00163121,-0.683816,-0.092122,9.78863,-0.0753364,-0.71317,0.93359,-0.00683874,-0.000931997,0.0978861,1,5.32288e-05,-3.23558e-06,2.60435e-05,0.0106458,-0.000647115,0.00520871,0.999423,0.00178982,0.0338671,0.00163121,0.186142,0.579709,-0.923311,29.5625,3,34097,3456818
46,3,0.999423,0.00178982,0.0338671,0.00163121,-0.683816,-0.092122,9.78863,-0.0753364,-0.71317,0.93359,-0.00683874,-0.000931997,0.0978861,1,5.32288e-05,-3.23558e-06,2.60435e-05,0.0106458,-0.000647115,0.00520871,0.999423,0.00178982,0.0338671,0.00163121,0.186142,0.579709,-0.923311,29.5625,3,34097,3456818
46,4,0.999423,0.00178982,0.0338671,0.00163121,-0.683816,-0.092122,9.78863,-0.0753364,-0.71317,0.93359,-0.00683874,-0.000931997,0.0978861,1,5.32288e-05,-3.23558e-06,2.60435e-05,0.0106458,-0.000647115,0.00520871,0.999423,0.00178982,0.0338671,0.00163121,0.186142,0.579709,-0.923311,29.5625,3,34097,3456818
47,1,0.999424,0.00182975,0.0338488,0.00165441,-0.679974,-0.0903974,9.78828,-0.0746752,-0.712534,0.938153,-0.00680245,-0.000913645,0.0978826,1,4.86783e-05,-1.39717e-05,1.04625e-05,0.00973567,-0.00279435,0.0020925,0.999424,0.00182975,0.0338488,0.00165441,0.186667,0.576299,-0.923894,29.5625,3,34099,3457018
47,2,0.999424,0.00186198,0.0338486,0.00166877,-0.689757,-0.0832169,9.78771,-0.0793522,-0.709108,0.936358,-0.0068984,-0.000843434,0.097877,1,5.61157e-05,-4.39228e-06,2.03127e-05,0.0112231,-0.000878457,0.00406255,0.999424,0.00186198,0.0338486,0.00166877,0.187152,0.576774,-0.923381,29.5625,3,34100,3457118
47,3,0.999424,0.00187387,0.0338365,0.00168726,-0.676888,-0.0833491,9.79036,-0.0665436,-0.702398,0.933358,-0.00677203,-0.000840824,0.0979033,1,3.56047e-05,-1.63149e-05,2.66505e-05,0.00712093,-0.00326297,0.0053301,0.999424,0.00187387,0.0338365,0.00168726,0.187087,0.579231,-0.924336,29.5625,3,34101,3457218
47,4,0.999424,0.00187387,0.0338365,0.00168726,-0.676888,-0.0833491,9.79036,-0.0665436,-0.702398,0.933358,-0.00677203,-0.000840824,0.0979033,1,3.56047e-05,-1.63149e-05,2.66505e-05,0.00712093,-0.00326297,0.0053301,0.999424,0.00187387,0.0338365,0.00168726,0.187087,0.579231,-0.924336,29.5625,3,34101,3457218
48,1,0.999424,0.00191055,0.0338415,0.00167882,-0.687624,-0.0915263,9.78628,-0.0784257,-0.714811,0.933506,-0.00687652,-0.000923726,0.0978627,1,4.28539e-05,-1.49745e-06,5.52098e-06,0.00857077,-0.00029949,0.0011042,0.999424,0.00191055,0.0338415,0.00167882,0.18608,0.579754,-0.925835,29.5625,3,34103,3457418
48,2,0.999424,0.00191055,0.0338415,0.00167882,-0.687624,-0.0915263,9.78628,-0.0784257,-0.714811,0.933506,-0.00687652,-0.000923726,0.0978627,1,4.28539e-05,-1.49745e-06,5.52098e-06,0.00857077,-0.00029949,0.0011042,0.999424,0.00191055,0.0338415,0.00167882,0.18608,0.579754,-0.925835,29.5625,3,34103,3457418
48,3,0.999424,0.00192081,0.0338422,0.00169498,-0.680471,-0.0908999,9.78658,-0.0786363,-0.716669,0.932681,-0.00680532,-0.000916289,0.0978657,1,3.60104e-05,-3.23936e-06,1.77604e-05,0.00720208,-0.000647872,0.00355209,0.999424,0.00192081,0.0338422,0.00169498,0.185705,0.577753,-0.922847,29.5625,3,34104,3457518
48,4,0.999424,0.00192081,0.0338422,0.00169498,-0.680471,-0.0908999,9.78658,-0.0786363,-0.716669,0.932681,-0.00680532,-0.000916289,0.0978657,1,3.60104e-05,-3.23936e-06,1.77604e-05,0.00720208,-0.000647872,0.00355209,0.999424,0.00192081,0.0338422,0.00169498,0.185705,0.577753,-0.922847,29.5625,3,34104,3457518
49,1,0.999424,0.00194863,0.0338399,0.00171241,-0.684945,-0.0851683,9.7836,-0.0739101,-0.711609,0.931454,-0.00685006,-0.000857221,0.0978359,1,2.75988e-05,-3.17222e-06,1.00267e-05,0.00551976,-0.000634444,0.00200534,0.999424,0.00194863,0.0338399,0.00171241,0.186635,0.579696,-0.922808,29.5625,3,34106,3457718
49,2,0.999424,0.00197205,0.0338459,0.00172243,-0.689471,-0.0869588,9.77886,-0.0810717,-0.713503,0.92547,-0.00689431,-0.000879263,0.0977885,1,4.81884e-05,1.84393e-06,1.81815e-05,0.00963768,0.000368787,0.0036363,0.999424,0.00197205,0.0338459,0.00172243,0.1871,0.580667,-0.922789,29.5625,3,34107,3457818
49,3,0.999424,0.00197205,0.0338459,0.00172243,-0.689471,-0.0869588,9.77886,-0.0810717,-0.713503,0.92547,-0.00689431,-0.000879263,0.0977885,1,4.81884e-05,1.84393e-06,1.81815e-05,0.00963768,0.000368787,0.0036363,0.999424,0.00197205,0.0338459,0.00172243,0.1871,0.580667,-0.922789,29.5625,3,34107,3457818
49,4,0.999424,0.00197205,0.0338459,0.00172243,-0.689471,-0.0869588,9.77886,-0.0810717,-0.713503,0.92547,-0.00689431,-0.000879263,0.0977885,1,4.81884e-05,1.84393e-06,1.81815e-05,0.00963768,0.000368787,0.0036363,0.999424,0.00197205,0.0338459,0.00172243,0.1871,0.580667,-0.922789,29.5625,3,34107,3457818
50,1,0.999424,0.00201371,0.0338378,0.00174693,-0.680355,-0.0942426,9.78757,-0.0764032,-0.72382,0.934313,-0.00680482,-0.000950634,0.0978755,1,4.09633e-05,-6.64584e-06,1.38897e-05,0.00819266,-0.00132917,0.00277794,0.999424,0.00201371,0.0338378,0.00174693,0.185595,0.579279,-0.926348,29.5625,3,34109,3458018
50,2,0.999424,0.0020399,0.0338376,0.00176907,-0.684788,-0.0898234,9.79679,-0.077115,-0.71874,0.942811,-0.00684868,-0.000908575,0.0979678,1,5.1042e-05,-4.28418e-06,2.48179e-05,0.0102084,-0.000856835,0.00496359,0.999424,0.0020399,0.0338376,0.00176907,0.185207,0.577287,-0.923865,29.5625,3,34110,3458118
50,3,0.999424,0.00204703,0.0338361,0.00177453,-0.688241,-0.0834988,9.78907,-0.0802984,-0.715849,0.937291,-0.00688347,-0.000841256,0.0978906,1,3.14676e-05,-5.46861e-06,7.79689e-06,0.00629352,-0.00109372,0.00155938,0.999424,0.00204703,0.0338361,0.00177453,0.18522,0.577278,-0.923361,29.5625,3,34111,3458218
50,4,0.999424,0.00204703,0.0338361,0.00177453,-0.688241,-0.0834988,9.78907,-0.0802984,-0.715849,0.937291,-0.00688347,-0.000841256,0.0978906,1,3.14676e-05,-5.46861e-06,7.79689e-06,0.00629352,-0.00109372,0.00155938,0.999424,0.00204703,0.0338361,0.00177453,0.18522,0.577278,-0.923361,29.5625,3,34111,3458218
51,1,0.999424,0.00206876,0.0338252,0.00180406,-0.685331,-0.104144,9.78481,-0.0803436,-0.737594,0.931075,-0.00685577,-0.0010508,0.0978478,1,4.61173e-05,-1.28503e-05,2.42906e-05,0.00922347,-0.00257006,0.00485813,0.999424,0.00206876,0.0338252,0.00180406,0.18663,0.577772,-0.924366,29.5625,3,34113,3458418
51,2,0.999424,0.00208769,0.0338125,0.00180052,-0.681983,-0.0891765,9.79,-0.0734788,-0.71954,0.93552,-0.00682315,-0.000900467,0.0978997,1,4.39827e-05,-1.69854e-05,6.61784e-06,0.00879653,-0.00339708,0.00132357,0.999424,0.00208769,0.0338125,0.00180052,0.187034,0.578788,-0.926871,29.5625,3,34114,3458518
51,3,0.999424,0.00208769,0.0338125,0.00180052,-0.681983,-0.0891765,9.79,-0.0734788,-0.71954,0.93552,-0.00682315,-0.000900467,0.0978997,1,4.39827e-05,-1.69854e-05,6.61784e-06,0.00879653,-0.00339708,0.00132357,0.999424,0.00208769,0.0338125,0.00180052,0.187034,0.578788,-0.926871,29.5625,3,34114,3458518
51,4,0.999424,0.00208769,0.0338125,0.00180052,-0.681983,-0.0891765,9.79,-0.0734788,-0.71954,0.93552,-0.00682315,-0.000900467,0.0978997,1,4.39827e-05,-1.69854e-05,6.61784e-06,0.00879653,-0.00339708,0.00132357,0.999424,0.00208769,0.0338125,0.00180052,0.187034,0.578788,-0.926871,29.5625,3,34114,3458518
52,1,0.999425,0.0021373,0.0338042,0.00181074,-0.685322,-0.100118,9.79569,-0.0761376,-0.731809,0.940023,-0.00685542,-0.00101096,0.0979567,1,4.88125e-05,-1.14199e-05,1.56388e-05,0.00976249,-0.00228398,0.00312776,0.999425,0.0021373,0.0338042,0.00181074,0.187136,0.576304,-0.924401,29.5625,3,34116,3458718
52,2,0.999425,0.00215714,0.033803,0.001814,-0.673645,-0.0804297,9.78561,-0.065764,-0.707671,0.93003,-0.00673749,-0.000813017,0.0978559,1,4.36642e-05,-5.41638e-06,1.28986e-05,0.00873285,-0.00108328,0.00257971,0.999425,0.00215714,0.033803,0.001814,0.187572,0.57826,-0.924865,29.5625,3,34117,3458818
52,3,0.999425,0.00215714,0.033803,0.001814,-0.673645,-0.0804297,9.78561,-0.065764,-0.707671,0.93003,-0.00673749,-0.000813017,0.0978559,1,4.36642e-05,-5.41638e-06,1.28986e-05,0.00873285,-0.00108328,0.00257971,0.999425,0.00215714,0.033803,0.001814,0.187572,0.57826,-0.924865,29.5625,3,34117,3458818
52,4,0.999425,0.00215714,0.033803,0.001814,-0.673645,-0.0804297,9.78561,-0.065764,-0.707671,0.93003,-0.00673749,-0.000813017,0.0978559,1,4.36642e-05,-5.41638e-06,1.28986e-05,0.00873285,-0.00108328,0.00257971,0.999425,0.00215714,0.033803,0.001814,0.187572,0.57826,-0.924865,29.5625,3,34117,3458818
53,1,0.999424,0.00219614,0.0338054,0.00181749,-0.684912,-0.0859844,9.78665,-0.0760351,-0.715548,0.933849,-0.00684944,-0.000869358,0.0978663,1,4.72963e-05,-1.78599e-06,1.87233e-05,0.00945926,-0.000357198,0.00374467,0.999424,0.00219614,0.0338054,0.00181749,0.186573,0.579741,-0.925332,29.5625,3,34119,3459018
53,2,0.999425,0.00222521,0.0337934,0.00182839,-0.683391,-0.0808542,9.78941,-0.079491,-0.714406,0.940204,-0.00683702,-0.000819385,0.0978938,1,5.4028e-05,-1.6069e-05,1.9334e-05,0.0108056,-0.00321381,0.0038668,0.999425,0.00222521,0.0337934,0.00182839,0.187572,0.57826,-0.924865,29.5625,3,34120,3459118
53,3,0.999425,0.00223257,0.0337762,0.00181962,-0.690441,-0.094829,9.79137,-0.0873499,-0.729972,0.935662,-0.00690856,-0.000954614,0.0979133,1,3.20021e-05,-2.12453e-05,4.18914e-06,0.00640043,-0.00424905,0.000837828,0.999425,0.00223257,0.0337762,0.00181962,0.18661,0.576823,-0.925902,29.5625,3,34121,3459218
53,4,0.999425,0.00223257,0.0337762,0.00181962,-0.690441,-0.094829,9.79137,-0.0873499,-0.729972,0.935662,-0.00690856,-0.000954614,0.0979133,1,3.20021e-05,-2.12453e-05,4.18914e-06,0.00640043,-0.00424905,0.000837828,0.999425,0.00223257,0.0337762,0.00181962,0.18661,0.576823,-0.925902,29.5625,3,34121,3459218
54,1,0.999425,0.00228783,0.033768,0.00185181,-0.689664,-0.086177,9.786,-0.0852857,-0.721981,0.931607,-0.00689721,-0.000874345,0.0978598,1,6.28065e-05,-3.12167e-06,2.04631e-05,0.0125613,-0.000624333,0.00409262,0.999425,0.00228783,0.033768,0.00185181,0.186647,0.576796,-0.924388,29.5625,3,34123,3459418
54,2,0.999426,0.00230498,0.0337571,0.00186677,-0.688466,-0.0861744,9.79584,-0.0830054,-0.721194,0.942371,-0.00688754,-0.000869978,0.0979581,1,4.06372e-05,-1.48845e-05,1.97925e-05,0.00812744,-0.00297691,0.0039585,0.999426,0.00230498,0.0337571,0.00186677,0.188098,0.577742,-0.923364,29.5625,3,34124,3459518
54,3,0.999426,0.00230498,0.0337571,0.00186677,-0.688466,-0.0861744,9.79584,-0.0830054,-0.721194,0.942371,-0.00688754,-0.000869978,0.0979581,1,4.06372e-05,-1.48845e-05,1.97925e-05,0.00812744,-0.00297691,0.0039585,0.999426,0.00230498,0.0337571,0.00186677,0.188098,0.577742,-0.923364,29.5625,3,34124,3459518
54,4,0.999426,0.00230498,0.0337571,0.00186677,-0.688466,-0.0861744,9.79584,-0.0830054,-0.721194,0.942371,-0.00688754,-0.000869978,0.0979581,1,4.06372e-05,-1.48845e-05,1.97925e-05,0.00812744,-0.00297691,0.0039585,0.999426,0.00230498,0.0337571,0.00186677,0.188098,0.577742,-0.923364,29.5625,3,34124,3459518
55,1,0.999426,0.00233185,0.0337621,0.00185152,-0.679816,-0.0935275,9.78349,-0.0757233,-0.728107,0.9294,-0.00679698,-0.00094139,0.097835,1,3.01619e-05,5.91581e-06,1.57224e-05,0.00603238,0.00118316,0.00314448,0.999426,0.00233185,0.0337621,0.00185152,0.187543,0.5778,-0.92639,29.5625,3,34126,3459718
55,2,0.999425,0.00234789,0.0337597,0.00185906,-0.686129,-0.0919083,9.79475,-0.0788635,-0.726751,0.940607,-0.00686251,-0.000927446,0.0979474,1,4.14159e-05,-6.41102e-06,1.82223e-05,0.00828319,-0.0012822,0.00364446,0.999425,0.00234789,0.0337597,0.00185906,0.18559,0.577355,-0.927906,29.5625,3,34127,3459818
55,3,0.999425,0.00234789,0.0337597,0.00185906,-0.686129,-0.0919083,9.79475,-0.0788635,-0.726751,0.940607,-0.00686251,-0.000927446,0.0979474,1,4.14159e-05,-6.41102e-06,1.82223e-05,0.00828319,-0.0012822,0.00364446,0.999425,0.00234789,0.0337597,0.00185906,0.18559,0.577355,-0.927906,29.5625,3,34127,3459818
55,4,0.999425,0.00234789,0.0337597,0.00185906,-0.686129,-0.0919083,9.79475,-0.0788635,-0.726751,0.940607,-0.00686251,-0.000927446,0.0979474,1,4.14159e-05,-6.41102e-06,1.82223e-05,0.00828319,-0.0012822,0.00364446,0.999425,0.00234789,0.0337597,0.00185906,0.18559,0.577355,-0.927906,29.5625,3,34127,3459818
56,1,0.999425,0.00237763,0.0337707,0.00193255,-0.669668,-0.0819222,9.79167,-0.065356,-0.715557,0.935188,-0.00669622,-0.000826757,0.0979166,1,3.73795e-05,2.22961e-06,1.6002e-05,0.00747591,0.000445921,0.00320041,0.999425,0.00237763,0.0337707,0.00193255,0.185191,0.578262,-0.923844,29.5625,3,34129,3460018
56,2,0.999425,0.00239272,0.0337638,0.0019599,-0.680098,-0.0884173,9.78151,-0.0748058,-0.724048,0.929755,-0.00680303,-0.000891952,0.0978149,1,3.87057e-05,-1.06395e-05,1.527e-05,0.00774115,-0.00212789,0.00305401,0.999425,0.00239272,0.0337638,0.0019599,0.1871,0.579222,-0.923831,29.5625,3,34130,3460118
56,3,0.999425,0.00241934,0.0337614,0.00196443,-0.69428,-0.101459,9.78895,-0.0881779,-0.740573,0.936516,-0.00694405,-0.00102468,0.0978894,1,5.06229e-05,-6.52139e-06,1.2655e-05,0.0101246,-0.00130428,0.00253101,0.999425,0.00241934,0.0337614,0.00196443,0.188009,0.580216,-0.925328,29.5625,3,34131,3460218
56,4,0.999425,0.00241934,0.0337614,0.00196443,-0.69428,-0.101459,9.78895,-0.0881779,-0.740573,0.936516,-0.00694405,-0.00102468,0.0978894,1,5.06229e-05,-6.52139e-06,1.2655e-05,0.0101246,-0.00130428,0.00253101,0.999425,0.00241934,0.0337614,0.00196443,0.188009,0.580216,-0.925328,29.5625,3,34131,3460218
57,1,0.999425,0.00246381,0.0337537,0.00195198,-0.682791,-0.0900905,9.78592,-0.0795756,-0.727384,0.930678,-0.00682852,-0.000910559,0.0978591,1,4.82984e-05,-3.25417e-06,1.47222e-05,0.00965969,-0.000650834,0.00294443,0.999425,0.00246381,0.0337537,0.00195198,0.187564,0.578748,-0.924854,29.5625,3,34133,3460418
57,2,0.999425,0.00247002,0.0337498,0.00194972,-0.689576,-0.0886711,9.78531,-0.0839403,-0.725654,0.932547,-0.00689731,-0.000892788,0.0978529,1,3.04971e-05,-8.00204e-06,7.88629e-06,0.00609942,-0.00160041,0.00157726,0.999425,0.00247002,0.0337498,0.00194972,0.188078,0.576793,-0.9249,29.5625,3,34134,3460518
57,3,0.999425,0.00247002,0.0337498,0.00194972,-0.689576,-0.0886711,9.78531,-0.0839403,-0.725654,0.932547,-0.00689731,-0.000892788,0.0978529,1,3.04971e-05,-8.00204e-06,7.88629e-06,0.00609942,-0.00160041,0.00157726,0.999425,0.00247002,0.0337498,0.00194972,0.188078,0.576793,-0.9249,29.5625,3,34134,3460518
57,4,0.999425,0.00247002,0.0337498,0.00194972,-0.689576,-0.0886711,9.78531,-0.0839403,-0.725654,0.932547,-0.00689731,-0.000892788,0.0978529,1,3.04971e-05,-8.00204e-06,7.88629e-06,0.00609942,-0.00160041,0.00157726,0.999425,0.00247002,0.0337498,0.00194972,0.188078,0.576793,-0.9249,29.5625,3,34134,3460518
58,1,0.999425,0.00250469,0.0337493,0.00194513,-0.67802,-0.0928978,9.78688,-0.0770983,-0.731808,0.933843,-0.00678195,-0.00093746,0.0978686,1,4.25241e-05,-9.07308e-06,1.16789e-05,0.00850482,-0.00181462,0.00233578,0.999425,0.00250469,0.0337493,0.00194513,0.186664,0.578711,-0.922325,29.5625,3,34136,3460718
58,2,0.999425,0.00251882,0.0337473,0.00195017,-0.679691,-0.0874426,9.79,-0.0726975,-0.725227,0.932348,-0.00679804,-0.000881919,0.0978998,1,3.77316e-05,-5.86544e-06,7.70006e-06,0.00754633,-0.00117309,0.00154001,0.999425,0.00251882,0.0337473,0.00195017,0.188049,0.579223,-0.92434,29.5625,3,34137,3460818
58,3,0.999425,0.00251882,0.0337473,0.00195017,-0.679691,-0.0874426,9.79,-0.0726975,-0.725227,0.932348,-0.00679804,-0.000881919,0.0978998,1,3.77316e-05,-5.86544e-06,7.70006e-06,0.00754633,-0.00117309,0.00154001,0.999425,0.00251882,0.0337473,0.00195017,0.188049,0.579223,-0.92434,29.5625,3,34137,3460818
58,4,0.999425,0.00251882,0.0337473,0.00195017,-0.679691,-0.0874426,9.79,-0.0726975,-0.725227,0.932348,-0.00679804,-0.000881919,0.0978998,1,3.77316e-05,-5.86544e-06,7.70006e-06,0.00754633,-0.00117309,0.00154001,0.999425,0.00251882,0.0337473,0.00195017,0.188049,0.579223,-0.92434,29.5625,3,34137,3460818
59,1,0.999426,0.00253796,0.0337388,0.0019445,-0.680701,-0.0710398,9.77927,-0.0768941,-0.709025,0.924627,-0.0068076,-0.000717342,0.0977927,1,3.504e-05,-3.05669e-06,6.67216e-06,0.00700801,-0.000611338,0.00133443,0.999426,0.00253796,0.0337388,0.0019445,0.186569,0.579262,-0.925848,29.5625,3,34139,3461018
59,2,0.999425,0.00255631,0.0337419,0.00195796,-0.674306,-0.0891509,9.79503,-0.0712925,-0.728708,0.941335,-0.0067432,-0.000900125,0.0979502,1,4.29824e-05,-8.62472e-07,1.45827e-05,0.00859648,-0.000172494,0.00291654,0.999425,0.00255631,0.0337419,0.00195796,0.187625,0.577258,-0.923372,29.5625,3,34140,3461118
59,3,0.999425,0.00260075,0.0337441,0.00195395,-0.684444,-0.0950311,9.78861,-0.081242,-0.739847,0.932852,-0.0068448,-0.00096364,0.0978859,1,6.76252e-05,-1.86825e-06,6.51529e-06,0.013525,-0.00037365,0.00130306,0.999425,0.00260075,0.0337441,0.00195395,0.185677,0.578737,-0.92333,29.5625,3,34141,3461218
59,4,0.999425,0.00260075,0.0337441,0.00195395,-0.684444,-0.0950311,9.78861,-0.081242,-0.739847,0.932852,-0.0068448,-0.00096364,0.0978859,1,6.76252e-05,-1.86825e-06,6.51529e-06,0.013525,-0.00037365,0.00130306,0.999425,0.00260075,0.0337441,0.00195395,0.185677,0.578737,-0.92333,29.5625,3,34141,3461218
60,1,0.999425,0.00263448,0.0337415,0.00198512,-0.678867,-0.0938971,9.79334,-0.0759447,-0.737185,0.940581,-0.00679134,-0.0009482,0.0979331,1,4.55881e-05,-1.38567e-05,2.20889e-05,0.00911762,-0.00277135,0.00441779,0.999425,0.00263448,0.0337415,0.00198512,0.188514,0.580194,-0.924321,29.5625,3,34143,3461418
60,2,0.999425,0.00264457,0.0337384,0.00198384,-0.676081,-0.0846911,9.77948,-0.0684234,-0.72803,0.925776,-0.00676218,-0.000853853,0.0977946,1,3.45502e-05,-7.11906e-06,1.36588e-05,0.00691004,-0.00142381,0.00273175,0.999425,0.00264457,0.0337384,0.00198384,0.187988,0.580713,-0.925822,29.5625,3,34144,3461518
60,3,0.999425,0.00264457,0.0337384,0.00198384,-0.676081,-0.0846911,9.77948,-0.0684234,-0.72803,0.925776,-0.00676218,-0.000853853,0.0977946,1,3.45502e-05,-7.11906e-06,1.36588e-05,0.00691004,-0.00142381,0.00273175,0.999425,0.00264457,0.0337384,0.00198384,0.187988,0.580713,-0.925822,29.5625,3,34144,3461518
60,4,0.999425,0.00264457,0.0337384,0.00198384,-0.676081,-0.0846911,9.77948,-0.0684234,-0.72803,0.925776,-0.00676218,-0.000853853,0.0977946,1,3.45502e-05,-7.11906e-06,1.36588e-05,0.00691004,-0.00142381,0.00273175,0.999425,0.00264457,0.0337384,0.00198384,0.187988,0.580713,-0.925822,29.5625,3,34144,3461518
61,1,0.999425,0.00269232,0.0337413,0.00200095,-0.689288,-0.0877292,9.78531,-0.0819663,-0.732289,0.930273,-0.0068941,-0.000887539,0.0978529,1,5.11426e-05,-6.37598e-06,1.73096e-05,0.0102285,-0.0012752,0.00346191,0.999425,0.00269232,0.0337413,0.00200095,0.186659,0.578232,-0.922841,29.5625,3,34146,3461718
61,2,0.999425,0.00271724,0.0337373,0.0020022,-0.687024,-0.0709339,9.78476,-0.0811758,-0.716322,0.933355,-0.00687177,-0.000718893,0.0978474,1,4.8304e-05,-7.87352e-06,7.41143e-06,0.00966079,-0.0015747,0.00148229,0.999425,0.00271724,0.0337373,0.0020022,0.186659,0.578232,-0.922841,29.5625,3,34147,3461818
61,3,0.999425,0.00271724,0.0337373,0.0020022,-0.687024,-0.0709339,9.78476,-0.0811758,-0.716322,0.933355,-0.00687177,-0.000718893,0.0978474,1,4.8304e-05,-7.87352e-06,7.41143e-06,0.00966079,-0.0015747,0.00148229,0.999425,0.00271724,0.0337373,0.0020022,0.186659,0.578232,-0.922841,29.5625,3,34147,3461818
61,4,0.999425,0.00271724,0.0337373,0.0020022,-0.687024,-0.0709339,9.78476,-0.0811758,-0.716322,0.933355,-0.00687177,-0.000718893,0.0978474,1,4.8304e-05,-7.87352e-06,7.41143e-06,0.00966079,-0.0015747,0.00148229,0.999425,0.00271724,0.0337373,0.0020022,0.186659,0.578232,-0.922841,29.5625,3,34147,3461818
62,1,0.999425,0.00275255,0.0337254,0.00200517,-0.686965,-0.0835681,9.77922,-0.0820533,-0.728666,0.922463,-0.00687065,-0.000845112,0.0977921,1,4.72032e-05,-5.2639e-06,1.44726e-05,0.00944064,-0.00105278,0.00289452,0.999425,0.00275255,0.0337254,0.00200517,0.186561,0.57975,-0.925837,29.5625,3,34149,3462018
62,2,0.999425,0.0027709,0.0337255,0.00201112,-0.681789,-0.0911415,9.78658,-0.0803634,-0.738454,0.932278,-0.00681862,-0.000919977,0.0978657,1,4.29582e-05,-3.83518e-06,1.131e-05,0.00859164,-0.000767036,0.002262,0.999425,0.0027709,0.0337255,0.00201112,0.187018,0.579764,-0.926849,29.5625,3,34150,3462118
62,3,0.999426,0.0027853,0.0337163,0.0020167,-0.67656,-0.0989842,9.78309,-0.0743602,-0.749077,0.926125,-0.00676816,-0.00099764,0.0978307,1,3.89312e-05,-1.3206e-05,1.32975e-05,0.00778624,-0.00264121,0.00265949,0.999426,0.0027853,0.0337163,0.0020167,0.187519,0.579263,-0.926357,29.5625,3,34151,3462218
62,4,0.999426,0.0027853,0.0337163,0.0020167,-0.67656,-0.0989842,9.78309,-0.0743602,-0.749077,0.926125,-0.00676816,-0.00099764,0.0978307,1,3.89312e-05,-1.3206e-05,1.32975e-05,0.00778624,-0.00264121,0.00265949,0.999426,0.0027853,0.0337163,0.0020167,0.187519,0.579263,-0.926357,29.5625,3,34151,3462218
63,1,0.999426,0.0028103,0.0337048,0.00204052,-0.679034,-0.0856377,9.78798,-0.0797782,-0.7337,0.933153,-0.0067918,-0.000864473,0.0978796,1,3.99073e-05,-7.60307e-06,2.09211e-05,0.00798145,-0.00152061,0.00418423,0.999426,0.0028103,0.0337048,0.00204052,0.185693,0.577762,-0.923352,29.5625,3,34153,3462418
63,2,0.999426,0.0028103,0.0337048,0.00204052,-0.679034,-0.0856377,9.78798,-0.0797782,-0.7337,0.933153,-0.0067918,-0.000864473,0.0978796,1,3.99073e-05,-7.60307e-06,2.09211e-05,0.00798145,-0.00152061,0.00418423,0.999426,0.0028103,0.0337048,0.00204052,0.185693,0.577762,-0.923352,29.5625,3,34153,3462418
63,3,0.999426,0.00283023,0.0337002,0.00205607,-0.685794,-0.0948941,9.78184,-0.0825025,-0.744224,0.925989,-0.00685956,-0.000957646,0.0978182,1,4.33624e-05,-8.43591e-06,1.61806e-05,0.00867249,-0.00168718,0.00323612,0.999426,0.00283023,0.0337002,0.00205607,0.185648,0.579722,-0.923813,29.5625,3,34154,3462518
63,4,0.999426,0.00283023,0.0337002,0.00205607,-0.685794,-0.0948941,9.78184,-0.0825025,-0.744224,0.925989,-0.00685956,-0.000957646,0.0978182,1,4.33624e-05,-8.43591e-06,1.61806e-05,0.00867249,-0.00168718,0.00323612,0.999426,0.00283023,0.0337002,0.00205607,0.185648,0.579722,-0.923813,29.5625,3,34154,3462518
64,1,0.999425,0.00287519,0.0337093,0.00208988,-0.674968,-0.0889667,9.78486,-0.0701513,-0.739535,0.927777,-0.00675151,-0.00089902,0.0978484,1,4.64414e-05,-9.56264e-06,1.95839e-05,0.00928827,-0.00191253,0.00391678,0.999425,0.00287519,0.0337093,0.00208988,0.187972,0.580243,-0.926843,29.5625,3,34156,3462718
64,2,0.999425,0.00289498,0.0337087,0.00209527,-0.687859,-0.0962992,9.78828,-0.0811575,-0.742625,0.936232,-0.00687945,-0.000971825,0.0978826,1,4.37665e-05,-4.57827e-06,1.93027e-05,0.00875331,-0.000915654,0.00386054,0.999425,0.00289498,0.0337087,0.00209527,0.187576,0.578739,-0.924349,29.5625,3,34157,3462818
64,3,0.999425,0.00289498,0.0337087,0.00209527,-0.687859,-0.0962992,9.78828,-0.0811575,-0.742625,0.936232,-0.00687945,-0.000971825,0.0978826,1,4.37665e-05,-4.57827e-06,1.93027e-05,0.00875331,-0.000915654,0.00386054,0.999425,0.00289498,0.0337087,0.00209527,0.187576,0.578739,-0.924349,29.5625,3,34157,3462818
64,4,0.999425,0.00289498,0.0337087,0.00209527,-0.687859,-0.0962992,9.78828,-0.0811575,-0.742625,0.936232,-0.00687945,-0.000971825,0.0978826,1,4.37665e-05,-4.57827e-06,1.93027e-05,0.00875331,-0.000915654,0.00386054,0.999425,0.00289498,0.0337087,0.00209527,0.187576,0.578739,-0.924349,29.5625,3,34157,3462818
65,1,0.999425,0.00295708,0.0337009,0.00209739,-0.676919,-0.0835584,9.79307,-0.0713215,-0.739145,0.936509,-0.00677354,-0.000846197,0.0979303,1,5.35735e-05,-2.22768e-05,8.85344e-06,0.0107147,-0.00445536,0.00177069,0.999425,0.00295708,0.0337009,0.00209739,0.186647,0.579687,-0.922303,29.5625,3,34159,3463018
65,2,0.999426,0.00297591,0.0336936,0.00210692,-0.686278,-0.0850315,9.78429,-0.0837088,-0.739789,0.931536,-0.00686491,-0.000858746,0.0978427,1,4.20472e-05,-1.10193e-05,1.47581e-05,0.00840945,-0.00220385,0.00295161,0.999426,0.00297591,0.0336936,0.00210692,0.187626,0.580148,-0.921288,29.5625,3,34160,3463118
65,3,0.999426,0.00300393,0.0336822,0.00210756,-0.680573,-0.0978798,9.78822,-0.0782122,-0.751986,0.93132,-0.0068087,-0.000989,0.0978819,1,5.13624e-05,-1.5285e-05,1.0794e-05,0.0102725,-0.00305701,0.00215881,0.999426,0.00300393,0.0336822,0.00210756,0.187051,0.580703,-0.924808,29.5625,3,34161,3463218
65,4,0.999426,0.00300393,0.0336822,0.00210756,-0.680573,-0.0978798,9.78822,-0.0782122,-0.751986,0.93132,-0.0068087,-0.000989,0.0978819,1,5.13624e-05,-1.5285e-05,1.0794e-05,0.0102725,-0.00305701,0.00215881,0.999426,0.00300393,0.0336822,0.00210756,0.187051,0.580703,-0.924808,29.5625,3,34161,3463218
66,1,0.999426,0.00304003,0.0336856,0.00211808,-0.666786,-0.0945207,9.78781,-0.0599408,-0.748181,0.928061,-0.00666877,-0.000952319,0.097878,1,3.58335e-05,-4.68093e-06,7.2327e-06,0.00716671,-0.000936187,0.00144654,0.999426,0.00304003,0.0336856,0.00211808,0.185595,0.579279,-0.926348,29.5625,3,34163,3463418
66,2,0.999426,0.00304003,0.0336856,0.00211808,-0.666786,-0.0945207,9.78781,-0.0599408,-0.748181,0.928061,-0.00666877,-0.000952319,0.097878,1,3.58335e-05,-4.68093e-06,7.2327e-06,0.00716671,-0.000936187,0.00144654,0.999426,0.00304003,0.0336856,0.00211808,0.185595,0.579279,-0.926348,29.5625,3,34163,3463418
66,3,0.999426,0.00306107,0.0336792,0.00212177,-0.690162,-0.0882406,9.79652,-0.0878092,-0.742099,0.941753,-0.0069036,-0.000891352,0.0979649,1,4.51263e-05,-1.01627e-05,7.57711e-06,0.00902526,-0.00203254,0.00151542,0.999426,0.00306107,0.0336792,0.00212177,0.186593,0.577799,-0.925881,29.5625,3,34164,3463518
66,4,0.999426,0.00306107,0.0336792,0.00212177,-0.690162,-0.0882406,9.79652,-0.0878092,-0.742099,0.941753,-0.0069036,-0.000891352,0.0979649,1,4.51263e-05,-1.01627e-05,7.57711e-06,0.00902526,-0.00203254,0.00151542,0.999426,0.00306107,0.0336792,0.00212177,0.186593,0.577799,-0.925881,29.5625,3,34164,3463518
67,1,0.999426,0.00307868,0.0336661,0.00211145,-0.684088,-0.0872534,9.7819,-0.0832536,-0.739611,0.925922,-0.00684365,-0.000878051,0.0978187,1,2.74758e-05,-1.42421e-05,1.03747e-05,0.00549516,-0.00284841,0.00207494,0.999426,0.00307868,0.0336661,0.00211145,0.187597,0.579688,-0.922813,29.5625,3,34166,3463718
67,2,0.999426,0.00309756,0.033672,0.00210472,-0.686319,-0.0871338,9.788,-0.0791452,-0.745554,0.932542,-0.00686277,-0.000879735,0.09788,1,4.25912e-05,2.08251e-06,4.32145e-06,0.00851825,0.000416503,0.000864289,0.999426,0.00309756,0.033672,0.00210472,0.187458,0.582199,-0.926797,29.5625,3,34167,3463818
67,3,0.999426,0.00309756,0.033672,0.00210472,-0.686319,-0.0871338,9.788,-0.0791452,-0.745554,0.932542,-0.00686277,-0.000879735,0.09788,1,4.25912e-05,2.08251e-06,4.32145e-06,0.00851825,0.000416503,0.000864289,0.999426,0.00309756,0.033672,0.00210472,0.187458,0.582199,-0.926797,29.5625,3,34167,3463818
67,4,0.999426,0.00310873,0.033664,0.00208955,-0.689194,-0.0871536,9.78769,-0.0839894,-0.743639,0.934203,-0.00689427,-0.000878541,0.0978767,1,3.6059e-05,-1.18649e-05,-3.91156e-06,0.0072118,-0.00237298,-0.000782312,0.999426,0.00310873,0.033664,0.00208955,0.187001,0.580739,-0.926827,29.5625,3,34168,3463918
68,1,0.999426,0.00313172,0.0336581,0.00210326,-0.676381,-0.0808162,9.78766,-0.0720932,-0.73892,0.926723,-0.00676569,-0.000817581,0.0978764,1,4.66909e-05,-9.73773e-06,2.06326e-05,0.00933819,-0.00194755,0.00412651,0.999426,0.00313172,0.0336581,0.00210326,0.184661,0.578302,-0.92586,29.5625,3,34169,3464018
68,2,0.999427,0.00314178,0.0336447,0.00211783,-0.676166,-0.0904837,9.7869,-0.0709828,-0.747075,0.934244,-0.00676499,-0.000911545,0.0978687,1,3.36189e-05,-1.70935e-05,9.43797e-06,0.00672379,-0.0034187,0.00188759,0.999427,0.00314178,0.0336447,0.00211783,0.184726,0.575845,-0.924905,29.5625,3,34170,3464118
68,3,0.999427,0.00315301,0.0336371,0.00212451,-0.683306,-0.100566,9.7872,-0.0836422,-0.760206,0.933881,-0.00683527,-0.00101253,0.0978718,1,3.45075e-05,-1.13583e-05,8.41157e-06,0.00690149,-0.00227166,0.00168231,0.999427,0.00315301,0.0336371,0.00212451,0.18617,0.577279,-0.92387,29.5625,3,34171,3464218
68,4,0.999427,0.00315301,0.0336371,0.00212451,-0.683306,-0.100566,9.7872,-0.0836422,-0.760206,0.933881,-0.00683527,-0.00101253,0.0978718,1,3.45075e-05,-1.13583e-05,8.41157e-06,0.00690149,-0.00227166,0.00168231,0.999427,0.00315301,0.0336371,0.00212451,0.18617,0.577279,-0.92387,29.5625,3,34171,3464218
69,1,0.999428,0.00317644,0.0336087,0.00212943,-0.681542,-0.0855839,9.79615,-0.0804269,-0.74352,0.939032,-0.00681983,-0.000861351,0.0979611,1,2.73733e-05,-2.26239e-05,1.08889e-05,0.00547466,-0.00452477,0.00217778,0.999428,0.00317644,0.0336087,0.00212943,0.186051,0.579293,-0.92736,29.5625,3,34173,3464418
69,2,0.999429,0.00319829,0.0335863,0.00214227,-0.6856,-0.099103,9.79266,-0.0796163,-0.754924,0.935019,-0.0068611,-0.00100028,0.0979262,1,4.58135e-05,-2.62447e-05,2.02062e-05,0.00916271,-0.00524893,0.00404123,0.999429,0.00319829,0.0335863,0.00214227,0.18851,0.57827,-0.925879,29.5625,3,34174,3464518
69,3,0.999429,0.00319829,0.0335863,0.00214227,-0.6856,-0.099103,9.79266,-0.0796163,-0.754924,0.935019,-0.0068611,-0.00100028,0.0979262,1,4.58135e-05,-2.62447e-05,2.02062e-05,0.00916271,-0.00524893,0.00404123,0.999429,0.00319829,0.0335863,0.00214227,0.18851,0.57827,-0.925879,29.5625,3,34174,3464518
69,4,0.999429,0.00319829,0.0335863,0.00214227,-0.6856,-0.099103,9.79266,-0.0796163,-0.754924,0.935019,-0.0068611,-0.00100028,0.0979262,1,4.58135e-05,-2.62447e-05,2.02062e-05,0.00916271,-0.00524893,0.00404123,0.999429,0.00319829,0.0335863,0.00214227,0.18851,0.57827,-0.925879,29.5625,3,34174,3464518
70,1,0.999428,0.00323872,0.0335818,0.00213754,-0.68156,-0.0808841,9.78362,-0.0798366,-0.742904,0.929645,-0.00681588,-0.00081722,0.0978361,1,4.13545e-05,-1.62983e-06,2.10385e-05,0.00827089,-0.000325966,0.0042077,0.999428,0.00323872,0.0335818,0.00213754,0.186634,0.576805,-0.924893,29.5625,3,34176,3464718
70,2,0.999428,0.00327049,0.0335855,0.00213629,-0.675498,-0.083416,9.78287,-0.073424,-0.737242,0.925273,-0.00675501,-0.000844985,0.0978286,1,5.5125e-05,-1.63893e-07,2.95253e-06,0.011025,-3.27786e-05,0.000590506,0.999428,0.00327049,0.0335855,0.00213629,0.187609,0.578233,-0.92335,29.5625,3,34177,3464818
70,3,0.999428,0.00327049,0.0335855,0.00213629,-0.675498,-0.083416,9.78287,-0.073424,-0.737242,0.925273,-0.00675501,-0.000844985,0.0978286,1,5.5125e-05,-1.63893e-07,2.95253e-06,0.011025,-3.27786e-05,0.000590506,0.999428,0.00327049,0.0335855,0.00213629,0.187609,0.578233,-0.92335,29.5625,3,34177,3464818
70,4,0.999428,0.00327049,0.0335855,0.00213629,-0.675498,-0.083416,9.78287,-0.073424,-0.737242,0.925273,-0.00675501,-0.000844985,0.0978286,1,5.5125e-05,-1.63893e-07,2.95253e-06,0.011025,-3.27786e-05,0.000590506,0.999428,0.00327049,0.0335855,0.00213629,0.187609,0.578233,-0.92335,29.5625,3,34177,3464818
71,1,0.999428,0.00331486,0.0335968,0.00212421,-0.68211,-0.0933299,9.78759,-0.0815906,-0.75074,0.930931,-0.00682136,-0.000940796,0.0978758,1,3.77577e-05,-1.4343e-06,7.7485e-06,0.00755154,-0.00028686,0.0015497,0.999428,0.00331486,0.0335968,0.00212421,0.18705,0.579258,-0.92585,29.5625,3,34179,3465018
71,2,0.999427,0.00332466,0.0336038,0.00212842,-0.681441,-0.0956839,9.78993,-0.0790525,-0.753736,0.935292,-0.00681375,-0.000963629,0.0978993,1,3.38108e-05,3.26904e-06,1.24405e-05,0.00676215,0.000653808,0.00248811,0.999427,0.00332466,0.0336038,0.00212842,0.186569,0.579262,-0.925848,29.5625,3,34180,3465118
71,3,0.999427,0.00333192,0.0336142,0.00213583,-0.698909,-0.0897826,9.79213,-0.0960377,-0.748143,0.937989,-0.00698779,-0.000904091,0.0979214,1,3.12067e-05,6.57342e-06,1.10139e-05,0.00624134,0.00131468,0.00220278,0.999427,0.00333192,0.0336142,0.00213583,0.185607,0.57927,-0.925843,29.5625,3,34181,3465218
71,4,0.999427,0.00333192,0.0336142,0.00213583,-0.698909,-0.0897826,9.79213,-0.0960377,-0.748143,0.937989,-0.00698779,-0.000904091,0.0979214,1,3.12067e-05,6.57342e-06,1.10139e-05,0.00624134,0.00131468,0.00220278,0.999427,0.00333192,0.0336142,0.00213583,0.185607,0.57927,-0.925843,29.5625,3,34181,3465218
72,1,0.999427,0.00336551,0.0336026,0.00218399,-0.686977,-0.0905486,9.78695,-0.0834092,-0.753012,0.928876,-0.00686938,-0.000914412,0.0978695,1,4.36696e-05,1.7454e-06,2.75188e-05,0.00873393,0.00034908,0.00550377,0.999427,0.00336551,0.0336026,0.00218399,0.185664,0.578746,-0.923835,29.5625,3,34183,3465418
72,2,0.999427,0.00338898,0.0336041,0.00218639,-0.689674,-0.0798485,9.78233,-0.0863101,-0.739356,0.927962,-0.00689717,-0.000807764,0.0978232,1,4.72069e-05,-2.23512e-06,3.13633e-06,0.00944138,-0.000447025,0.000627267,0.999427,0.00338898,0.0336041,0.00218639,0.185187,0.577784,-0.924359,29.5625,3,34184,3465518
72,3,0.999427,0.00338898,0.0336041,0.00218639,-0.689674,-0.0798485,9.78233,-0.0863101,-0.739356,0.927962,-0.00689717,-0.000807764,0.0978232,1,4.72069e-05,-2.23512e-06,3.13633e-06,0.00944138,-0.000447025,0.000627267,0.999427,0.00338898,0.0336041,0.00218639,0.185187,0.577784,-0.924359,29.5625,3,34184,3465518
72,4,0.999427,0.00338898,0.0336041,0.00218639,-0.689674,-0.0798485,9.78233,-0.0863101,-0.739356,0.927962,-0.00689717,-0.000807764,0.0978232,1,4.72069e-05,-2.23512e-06,3.13633e-06,0.00944138,-0.000447025,0.000627267,0.999427,0.00338898,0.0336041,0.00218639,0.185187,0.577784,-0.924359,29.5625,3,34184,3465518
73,1,0.999427,0.00342285,0.0335901,0.00219346,-0.687948,-0.085438,9.78837,-0.0835386,-0.751264,0.930109,-0.00688094,-0.00086236,0.0978835,1,4.00934e-05,-7.54911e-06,9.48667e-06,0.00801869,-0.00150982,0.00189733,0.999427,0.00342285,0.0335901,0.00219346,0.188453,0.580239,-0.926845,29.5625,3,34186,3465718
73,2,0.999428,0.00345108,0.0335836,0.00218002,-0.690164,-0.0963079,9.79135,-0.0859991,-0.761578,0.938704,-0.0069037,-0.000973389,0.0979133,1,5.2089e-05,-1.05905e-05,7.96664e-06,0.0104178,-0.0021181,0.00159333,0.999428,0.00345108,0.0335836,0.00218002,0.188045,0.578744,-0.924856,29.5625,3,34187,3465818
73,3,0.999428,0.00345108,0.0335836,0.00218002,-0.690164,-0.0963079,9.79135,-0.0859991,-0.761578,0.938704,-0.0069037,-0.000973389,0.0979133,1,5.2089e-05,-1.05905e-05,7.96664e-06,0.0104178,-0.0021181,0.00159333,0.999428,0.00345108,0.0335836,0.00218002,0.188045,0.578744,-0.924856,29.5625,3,34187,3465818
73,4,0.999428,0.00345108,0.0335836,0.00218002,-0.690164,-0.0963079,9.79135,-0.0859991,-0.761578,0.938704,-0.0069037,-0.000973389,0.0979133,1,5.2089e-05,-1.05905e-05,7.96664e-06,0.0104178,-0.0021181,0.00159333,0.999428,0.00345108,0.0335836,0.00218002,0.188045,0.578744,-0.924856,29.5625,3,34187,3465818
74,1,0.999428,0.00348842,0.0335802,0.00218892,-0.688941,-0.0854977,9.78736,-0.0845321,-0.748352,0.932066,-0.00689064,-0.000862226,0.0978735,1,3.58783e-05,-6.39061e-06,1.63838e-05,0.00717566,-0.00127812,0.00327675,0.999428,0.00348842,0.0335802,0.00218892,0.18712,0.578725,-0.923337,29.5625,3,34189,3466018
74,2,0.999428,0.00350157,0.0335708,0.0021986,-0.683023,-0.0926983,9.78862,-0.0829086,-0.75454,0.931664,-0.00683278,-0.000934273,0.097886,1,3.60217e-05,-1.31691e-05,1.74696e-05,0.00720435,-0.00263382,0.00349392,0.999428,0.00350157,0.0335708,0.0021986,0.186635,0.579696,-0.922808,29.5625,3,34190,3466118
74,3,0.999428,0.00353578,0.0335571,0.00220454,-0.68209,-0.079416,9.78975,-0.0835043,-0.744504,0.931277,-0.00682433,-0.000805577,0.0978971,1,5.74699e-05,-1.75987e-05,1.21352e-05,0.011494,-0.00351975,0.00242704,0.999428,0.00353578,0.0335571,0.00220454,0.185627,0.578773,-0.925349,29.5625,3,34191,3466218
74,4,0.999428,0.00353578,0.0335571,0.00220454,-0.68209,-0.079416,9.78975,-0.0835043,-0.744504,0.931277,-0.00682433,-0.000805577,0.0978971,1,5.74699e-05,-1.75987e-05,1.21352e-05,0.011494,-0.00351975,0.00242704,0.999428,0.00353578,0.0335571,0.00220454,0.185627,0.578773,-0.925349,29.5625,3,34191,3466218
75,1,0.999428,0.00358341,0.0335462,0.00222171,-0.682429,-0.0918638,9.78964,-0.0804367,-0.756348,0.927243,-0.00682549,-0.000928314,0.0978962,1,4.90528e-05,-6.18763e-06,5.22846e-06,0.00981055,-0.00123752,0.00104569,0.999428,0.00358341,0.0335462,0.00222171,0.187539,0.577321,-0.926906,29.5625,3,34193,3466418
75,2,0.999429,0.0036162,0.0335359,0.00222098,-0.687404,-0.0900159,9.788,-0.0857635,-0.754611,0.936761,-0.00687682,-0.000911294,0.0978797,1,5.61683e-05,-1.42804e-05,1.01362e-05,0.0112337,-0.00285608,0.00202724,0.999429,0.0036162,0.0335359,0.00222098,0.187107,0.577289,-0.924884,29.5625,3,34194,3466518
75,3,0.999429,0.0036162,0.0335359,0.00222098,-0.687404,-0.0900159,9.788,-0.0857635,-0.754611,0.936761,-0.00687682,-0.000911294,0.0978797,1,5.61683e-05,-1.42804e-05,1.01362e-05,0.0112337,-0.00285608,0.00202724,0.999429,0.0036162,0.0335359,0.00222098,0.187107,0.577289,-0.924884,29.5625,3,34194,3466518
75,4,0.999429,0.0036162,0.0335359,0.00222098,-0.687404,-0.0900159,9.788,-0.0857635,-0.754611,0.936761,-0.00687682,-0.000911294,0.0978797,1,5.61683e-05,-1.42804e-05,1.01362e-05,0.0112337,-0.00285608,0.00202724,0.999429,0.0036162,0.0335359,0.00222098,0.187107,0.577289,-0.924884,29.5625,3,34194,3466518
76,1,0.999429,0.00365113,0.0335267,0.00222646,-0.680463,-0.0798771,9.78701,-0.0811127,-0.745552,0.927456,-0.00680576,-0.000806824,0.09787,1,4.11998e-05,-5.73154e-06,-7.99202e-07,0.00823996,-0.00114631,-0.00015984,0.999429,0.00365113,0.0335267,0.00222646,0.1871,0.579222,-0.923831,29.5625,3,34196,3466718
76,2,0.999429,0.00366103,0.0335277,0.00222327,-0.685462,-0.0924293,9.79372,-0.0846505,-0.759359,0.940143,-0.00685517,-0.000930855,0.0979371,1,3.30824e-05,-2.89646e-06,5.9511e-06,0.00661649,-0.000579293,0.00119022,0.999429,0.00366103,0.0335277,0.00222327,0.188004,0.579738,-0.925844,29.5625,3,34197,3466818
76,3,0.999429,0.00366103,0.0335277,0.00222327,-0.685462,-0.0924293,9.79372,-0.0846505,-0.759359,0.940143,-0.00685517,-0.000930855,0.0979371,1,3.30824e-05,-2.89646e-06,5.9511e-06,0.00661649,-0.000579293,0.00119022,0.999429,0.00366103,0.0335277,0.00222327,0.188004,0.579738,-0.925844,29.5625,3,34197,3466818
76,4,0.999429,0.00366103,0.0335277,0.00222327,-0.685462,-0.0924293,9.79372,-0.0846505,-0.759359,0.940143,-0.00685517,-0.000930855,0.0979371,1,3.30824e-05,-2.89646e-06,5.9511e-06,0.00661649,-0.000579293,0.00119022,0.999429,0.00366103,0.0335277,0.00222327,0.188004,0.579738,-0.925844,29.5625,3,34197,3466818
77,1,0.999429,0.0036948,0.0335213,0.0022403,-0.684507,-0.0912753,9.79135,-0.086258,-0.758235,0.935898,-0.00684607,-0.000920777,0.0979134,1,3.91173e-05,-5.37188e-06,2.65708e-05,0.00782346,-0.00107438,0.00531416,0.999429,0.0036948,0.0335213,0.0022403,0.186634,0.576805,-0.924893,29.5625,3,34199,3467018
77,2,0.999429,0.00372083,0.0335165,0.00225313,-0.689486,-0.0943708,9.79849,-0.0852584,-0.76362,0.939272,-0.00689652,-0.000953474,0.0979847,1,4.89335e-05,-8.62248e-06,1.28114e-05,0.0097867,-0.0017245,0.00256228,0.999429,0.00372083,0.0335165,0.00225313,0.18716,0.576286,-0.923392,29.5625,3,34200,3467118
77,3,0.999428,0.00373774,0.0335336,0.00225863,-0.679307,-0.0890863,9.78318,-0.0792988,-0.75721,0.924379,-0.00679047,-0.000898761,0.0978319,1,3.95719e-05,1.32209e-05,1.14312e-05,0.00791438,0.00264418,0.00228624,0.999428,0.00373774,0.0335336,0.00225863,0.186655,0.579199,-0.922314,29.5625,3,34201,3467218
77,4,0.999428,0.00373774,0.0335336,0.00225863,-0.679307,-0.0890863,9.78318,-0.0792988,-0.75721,0.924379,-0.00679047,-0.000898761,0.0978319,1,3.95719e-05,1.32209e-05,1.14312e-05,0.00791438,0.00264418,0.00228624,0.999428,0.00373774,0.0335336,0.00225863,0.186655,0.579199,-0.922314,29.5625,3,34201,3467218
78,1,0.999428,0.00378794,0.0335292,0.00228318,-0.677357,-0.0970363,9.79193,-0.0751227,-0.763116,0.934662,-0.00677278,-0.000978689,0.0979193,1,4.13973e-05,3.87068e-06,1.61063e-05,0.00827945,0.000774136,0.00322126,0.999428,0.00378794,0.0335292,0.00228318,0.186093,0.58119,-0.924288,29.5625,3,34203,3467418
78,2,0.999428,0.00380721,0.0335214,0.00228943,-0.689597,-0.0867173,9.78634,-0.0867836,-0.759912,0.927394,-0.00689823,-0.00087575,0.0978632,1,4.31593e-05,-1.16248e-05,9.37859e-06,0.00863186,-0.00232496,0.00187572,0.999428,0.00380721,0.0335214,0.00228943,0.187042,0.579746,-0.925839,29.5625,3,34204,3467518
78,3,0.999428,0.00380721,0.0335214,0.00228943,-0.689597,-0.0867173,9.78634,-0.0867836,-0.759912,0.927394,-0.00689823,-0.00087575,0.0978632,1,4.31593e-05,-1.16248e-05,9.37859e-06,0.00863186,-0.00232496,0.00187572,0.999428,0.00380721,0.0335214,0.00228943,0.187042,0.579746,-0.925839,29.5625,3,34204,3467518
78,4,0.999428,0.00380721,0.0335214,0.00228943,-0.689597,-0.0867173,9.78634,-0.0867836,-0.759912,0.927394,-0.00689823,-0.00087575,0.0978632,1,4.31593e-05,-1.16248e-05,9.37859e-06,0.00863186,-0.00232496,0.00187572,0.999428,0.00380721,0.0335214,0.00228943,0.187042,0.579746,-0.925839,29.5625,3,34204,3467518
79,1,0.999428,0.00385263,0.0335076,0.0023059,-0.678611,-0.0953004,9.78721,-0.0808193,-0.767266,0.930199,-0.00678736,-0.000960951,0.097872,1,3.98588e-05,-6.5118e-06,1.0723e-05,0.00797176,-0.00130236,0.00214461,0.999428,0.00385263,0.0335076,0.0023059,0.185664,0.577301,-0.924877,29.5625,3,34206,3467718
79,2,0.999428,0.00386518,0.0335073,0.00231567,-0.692799,-0.0786185,9.78337,-0.086315,-0.747235,0.927627,-0.00692877,-0.000793329,0.0978336,1,3.55914e-05,-4.13315e-06,1.2951e-05,0.00711829,-0.00082663,0.0025902,0.999428,0.00386518,0.0335073,0.00231567,0.185207,0.577287,-0.923865,29.5625,3,34207,3467818
79,3,0.999428,0.00386518,0.0335073,0.00231567,-0.692799,-0.0786185,9.78337,-0.086315,-0.747235,0.927627,-0.00692877,-0.000793329,0.0978336,1,3.55914e-05,-4.13315e-06,1.2951e-05,0.00711829,-0.00082663,0.0025902,0.999428,0.00386518,0.0335073,0.00231567,0.185207,0.577287,-0.923865,29.5625,3,34207,3467818
79,4,0.999428,0.00386518,0.0335073,0.00231567,-0.692799,-0.0786185,9.78337,-0.086315,-0.747235,0.927627,-0.00692877,-0.000793329,0.0978336,1,3.55914e-05,-4.13315e-06,1.2951e-05,0.00711829,-0.00082663,0.0025902,0.999428,0.00386518,0.0335073,0.00231567,0.185207,0.577287,-0.923865,29.5625,3,34207,3467818
80,1,0.999428,0.00392059,0.0335145,0.00234163,-0.689322,-0.0917854,9.79171,-0.084926,-0.762582,0.933991,-0.00689293,-0.000929847,0.0979171,1,6.04204e-05,1.36917e-06,1.16083e-05,0.0120841,0.000273834,0.00232166,0.999428,0.00392059,0.0335145,0.00234163,0.187091,0.578264,-0.924862,29.5625,3,34209,3468018
80,2,0.999428,0.00393421,0.0335099,0.00233757,-0.682188,-0.0826682,9.78225,-0.0829478,-0.756337,0.926265,-0.00682354,-0.000833935,0.0978223,1,3.65693e-05,-8.52362e-06,7.20474e-06,0.00731386,-0.00170472,0.00144095,0.999428,0.00393421,0.0335099,0.00233757,0.187494,0.579281,-0.927367,29.5625,3,34210,3468118
80,3,0.999428,0.00395257,0.0335134,0.00233865,-0.677122,-0.0920746,9.78145,-0.0749186,-0.769581,0.922231,-0.00677125,-0.000929094,0.0978144,1,4.17139e-05,-3.11432e-07,1.38582e-05,0.00834278,-6.22864e-05,0.00277164,0.999428,0.00395257,0.0335134,0.00233865,0.186055,0.579772,-0.926844,29.5625,3,34211,3468218
80,4,0.999428,0.00395257,0.0335134,0.00233865,-0.677122,-0.0920746,9.78145,-0.0749186,-0.769581,0.922231,-0.00677125,-0.000929094,0.0978144,1,4.17139e-05,-3.11432e-07,1.38582e-05,0.00834278,-6.22864e-05,0.00277164,0.999428,0.00395257,0.0335134,0.00233865,0.186055,0.579772,-0.926844,29.5625,3,34211,3468218
81,1,0.999427,0.00399468,0.0335138,0.00236721,-0.685847,-0.0936939,9.78286,-0.0846376,-0.767696,0.92528,-0.00686012,-0.000944079,0.0978284,1,3.55504e-05,-8.56439e-06,1.34223e-05,0.00711009,-0.00171288,0.00268445,0.999427,0.00399468,0.0335138,0.00236721,0.186178,0.578236,-0.922839,29.5625,3,34213,3468418
81,2,0.999427,0.00399468,0.0335138,0.00236721,-0.685847,-0.0936939,9.78286,-0.0846376,-0.767696,0.92528,-0.00686012,-0.000944079,0.0978284,1,3.55504e-05,-8.56439e-06,1.34223e-05,0.00711009,-0.00171288,0.00268445,0.999427,0.00399468,0.0335138,0.00236721,0.186178,0.578236,-0.922839,29.5625,3,34213,3468418
81,3,0.999427,0.00402809,0.0335121,0.00236548,-0.683525,-0.0794205,9.78466,-0.0827572,-0.754098,0.928462,-0.00683633,-0.000805268,0.0978465,1,5.6196e-05,-5.56355e-06,4.80161e-06,0.0112392,-0.00111271,0.000960321,0.999427,0.00402809,0.0335121,0.00236548,0.187597,0.579688,-0.922813,29.5625,3,34214,3468518
81,4,0.999427,0.00402809,0.0335121,0.00236548,-0.683525,-0.0794205,9.78466,-0.0827572,-0.754098,0.928462,-0.00683633,-0.000805268,0.0978465,1,5.6196e-05,-5.56355e-06,4.80161e-06,0.0112392,-0.00111271,0.000960321,0.999427,0.00402809,0.0335121,0.00236548,0.187597,0.579688,-0.922813,29.5625,3,34214,3468518
82,1,0.999428,0.00406827,0.0334943,0.00235558,-0.681761,-0.0927752,9.78318,-0.0818357,-0.768715,0.92739,-0.00681893,-0.000937308,0.0978316,1,4.84455e-05,-6.82094e-06,5.62889e-06,0.00968911,-0.00136419,0.00112578,0.999428,0.00406827,0.0334943,0.00235558,0.186536,0.579768,-0.926847,29.5625,3,34216,3468718
82,2,0.999428,0.00408812,0.033494,0.00237258,-0.695095,-0.089663,9.79516,-0.0902591,-0.760759,0.938018,-0.0069517,-0.000905326,0.0979515,1,4.28648e-05,-4.03092e-06,2.15158e-05,0.00857297,-0.000806185,0.00430315,0.999428,0.00408812,0.033494,0.00237258,0.186092,0.578299,-0.926372,29.5625,3,34217,3468818
82,3,0.999428,0.00408812,0.033494,0.00237258,-0.695095,-0.089663,9.79516,-0.0902591,-0.760759,0.938018,-0.0069517,-0.000905326,0.0979515,1,4.28648e-05,-4.03092e-06,2.15158e-05,0.00857297,-0.000806185,0.00430315,0.999428,0.00408812,0.033494,0.00237258,0.186092,0.578299,-0.926372,29.5625,3,34217,3468818
82,4,0.999428,0.00409705,0.0334931,0.00239051,-0.684887,-0.0878205,9.78968,-0.0839966,-0.76976,0.931923,-0.00684974,-0.000884705,0.0978967,1,3.18567e-05,-4.66048e-06,1.9176e-05,0.00637135,-0.000932097,0.00383521,0.999428,0.00409705,0.0334931,0.00239051,0.18617,0.577279,-0.92387,29.5625,3,34218,3468918
83,1,0.999428,0.00411184,0.0334914,0.00239595,-0.679802,-0.0890761,9.78761,-0.0803296,-0.763734,0.930621,-0.00679907,-0.000898269,0.0978759,1,3.76683e-05,-5.4759e-06,9.84061e-06,0.00753366,-0.00109518,0.00196812,0.999428,0.00411184,0.0334914,0.00239595,0.186667,0.577745,-0.922852,29.5625,3,34219,3469018
83,2,0.999428,0.00414466,0.0334866,0.00240366,-0.688129,-0.0939802,9.79679,-0.0853064,-0.770591,0.936929,-0.00688294,-0.000950832,0.0979676,1,5.51882e-05,-8.59822e-06,1.57226e-05,0.0110376,-0.00171964,0.00314452,0.999428,0.00414466,0.0334866,0.00240366,0.188082,0.578717,-0.923342,29.5625,3,34220,3469118
83,3,0.999428,0.00415912,0.0334704,0.00240099,-0.677827,-0.0943029,9.78994,-0.0769163,-0.771382,0.934285,-0.00678216,-0.000950479,0.097899,1,3.72529e-05,-1.99826e-05,1.15316e-05,0.00745057,-0.00399651,0.00230631,0.999428,0.00415912,0.0334704,0.00240099,0.186108,0.578769,-0.925352,29.5625,3,34221,3469218
83,4,0.999428,0.00415912,0.0334704,0.00240099,-0.677827,-0.0943029,9.78994,-0.0769163,-0.771382,0.934285,-0.00678216,-0.000950479,0.097899,1,3.72529e-05,-1.99826e-05,1.15316e-05,0.00745057,-0.00399651,0.00230631,0.999428,0.00415912,0.0334704,0.00240099,0.186108,0.578769,-0.925352,29.5625,3,34221,3469218
84,1,0.999428,0.00421259,0.0334548,0.00241355,-0.68449,-0.0843038,9.78395,-0.0847494,-0.765464,0.925693,-0.00684702,-0.000852724,0.0978393,1,4.91534e-05,-1.08591e-05,4.95256e-06,0.00983068,-0.00217181,0.000990511,0.999428,0.00421259,0.0334548,0.00241355,0.185652,0.57731,-0.925382,29.5625,3,34223,3469418
84,2,0.999428,0.00423119,0.0334518,0.00242826,-0.673048,-0.0859401,9.78148,-0.0719687,-0.767016,0.925073,-0.00673176,-0.000867756,0.0978146,1,4.1576e-05,-6.68885e-06,1.6425e-05,0.0083152,-0.00133777,0.003285,0.999428,0.00423119,0.0334518,0.00242826,0.184759,0.576785,-0.922864,29.5625,3,34224,3469518
84,3,0.999428,0.00423119,0.0334518,0.00242826,-0.673048,-0.0859401,9.78148,-0.0719687,-0.767016,0.925073,-0.00673176,-0.000867756,0.0978146,1,4.1576e-05,-6.68885e-06,1.6425e-05,0.0083152,-0.00133777,0.003285,0.999428,0.00423119,0.0334518,0.00242826,0.184759,0.576785,-0.922864,29.5625,3,34224,3469518
84,4,0.999428,0.00423119,0.0334518,0.00242826,-0.673048,-0.0859401,9.78148,-0.0719687,-0.767016,0.925073,-0.00673176,-0.000867756,0.0978146,1,4.1576e-05,-6.68885e-06,1.6425e-05,0.0083152,-0.00133777,0.003285,0.999428,0.00423119,0.0334518,0.00242826,0.184759,0.576785,-0.922864,29.5625,3,34224,3469518
85,1,0.999428,0.0042859,0.0334593,0.00244281,-0.680149,-0.0900127,9.78658,-0.0753925,-0.770504,0.924108,-0.00680079,-0.000910599,0.0978658,1,5.28414e-05,3.48667e-06,9.44729e-06,0.0105683,0.000697333,0.00188946,0.999428,0.0042859,0.0334593,0.00244281,0.188511,0.581161,-0.923795,29.5625,3,34226,3469718
85,2,0.999428,0.00430654,0.0334526,0.00243265,-0.674253,-0.0904236,9.79197,-0.0721325,-0.773565,0.931788,-0.00674458,-0.000912942,0.0979195,1,4.39658e-05,-1.05707e-05,7.10061e-06,0.00879316,-0.00211414,0.00142012,0.999428,0.00430654,0.0334526,0.00243265,0.18752,0.580708,-0.925315,29.5625,3,34227,3469818
85,3,0.999428,0.00430654,0.0334526,0.00243265,-0.674253,-0.0904236,9.79197,-0.0721325,-0.773565,0.931788,-0.00674458,-0.000912942,0.0979195,1,4.39658e-05,-1.05707e-05,7.10061e-06,0.00879316,-0.00211414,0.00142012,0.999428,0.00430654,0.0334526,0.00243265,0.18752,0.580708,-0.925315,29.5625,3,34227,3469818
85,4,0.999428,0.00430654,0.0334526,0.00243265,-0.674253,-0.0904236,9.79197,-0.0721325,-0.773565,0.931788,-0.00674458,-0.000912942,0.0979195,1,4.39658e-05,-1.05707e-05,7.10061e-06,0.00879316,-0.00211414,0.00142012,0.999428,0.00430654,0.0334526,0.00243265,0.18752,0.580708,-0.925315,29.5625,3,34227,3469818
86,1,0.999428,0.00433888,0.0334359,0.00244768,-0.675028,-0.0872542,9.77775,-0.0731378,-0.773218,0.917548,-0.00675181,-0.00088081,0.0977773,1,4.12408e-05,-7.96669e-06,1.50427e-05,0.00824816,-0.00159334,0.00300853,0.999428,0.00433888,0.0334359,0.00244768,0.185656,0.579234,-0.923824,29.5625,3,34229,3470018
86,2,0.999428,0.004355,0.0334404,0.00246354,-0.676081,-0.0847073,9.79372,-0.0757194,-0.766243,0.933957,-0.00676059,-0.000854932,0.0979372,1,3.89013e-05,9.40642e-07,1.77083e-05,0.00778026,0.000188128,0.00354166,0.999428,0.004355,0.0334404,0.00246354,0.18522,0.577278,-0.923361,29.5625,3,34230,3470118
86,3,0.999428,0.00439176,0.0334437,0.00247089,-0.694094,-0.0842469,9.78503,-0.0926769,-0.766708,0.927213,-0.006941,-0.000854317,0.0978502,1,5.98133e-05,-4.00524e-07,1.02145e-05,0.0119627,-8.01048e-05,0.00204291,0.999428,0.00439176,0.0334437,0.00247089,0.185774,0.575774,-0.921376,29.5625,3,34231,3470218
86,4,0.999428,0.00439176,0.0334437,0.00247089,-0.694094,-0.0842469,9.78503,-0.0926769,-0.766708,0.927213,-0.006941,-0.000854317,0.0978502,1,5.98133e-05,-4.00524e-07,1.02145e-05,0.0119627,-8.01048e-05,0.00204291,0.999428,0.00439176,0.0334437,0.00247089,0.185774,0.575774,-0.921376,29.5625,3,34231,3470218
87,1,0.999428,0.00443877,0.0334374,0.00248819,-0.685872,-0.0912455,9.78933,-0.089483,-0.781837,0.932596,-0.00685854,-0.000921643,0.0978932,1,4.55305e-05,7.39244e-07,1.99805e-05,0.00910611,0.000147849,0.0039961,0.999428,0.00443877,0.0334374,0.00248819,0.186072,0.581687,-0.924782,29.5625,3,34233,3470418
87,2,0.999428,0.00447606,0.0334193,0.00249113,-0.674895,-0.0874196,9.77911,-0.0720452,-0.771496,0.918145,-0.00675321,-0.000886169,0.0977907,1,6.05116e-05,-2.18398e-05,1.02278e-05,0.0121023,-0.00436797,0.00204556,0.999428,0.00447606,0.0334193,0.00249113,0.186598,0.579723,-0.924323,29.5625,3,34234,3470518
87,3,0.999428,0.00447606,0.0334193,0.00249113,-0.674895,-0.0874196,9.77911,-0.0720452,-0.771496,0.918145,-0.00675321,-0.000886169,0.0977907,1,6.05116e-05,-2.18398e-05,1.02278e-05,0.0121023,-0.00436797,0.00204556,0.999428,0.00447606,0.0334193,0.00249113,0.186598,0.579723,-0.924323,29.5625,3,34234,3470518
87,4,0.999428,0.00447606,0.0334193,0.00249113,-0.674895,-0.0874196,9.77911,-0.0720452,-0.771496,0.918145,-0.00675321,-0.000886169,0.0977907,1,6.05116e-05,-2.18398e-05,1.02278e-05,0.0121023,-0.00436797,0.00204556,0.999428,0.00447606,0.0334193,0.00249113,0.186598,0.579723,-0.924323,29.5625,3,34234,3470518
88,1,0.999429,0.00451639,0.0334076,0.00248308,-0.685915,-0.0928248,9.78659,-0.0867644,-0.780193,0.925192,-0.006859,-0.000938178,0.0978658,1,5.09247e-05,8.03025e-07,-2.738e-06,0.0101849,0.000160605,-0.0005476,0.999429,0.00451639,0.0334076,0.00248308,0.187641,0.576282,-0.923394,29.5625,3,34236,3470718
88,2,0.999428,0.00454983,0.0334073,0.00249011,-0.687501,-0.0884826,9.79615,-0.0893766,-0.778261,0.936991,-0.00687575,-0.000895996,0.0979614,1,5.58757e-05,-3.92637e-06,1.6257e-05,0.0111751,-0.000785273,0.00325139,0.999428,0.00454983,0.0334073,0.00249011,0.187621,0.576779,-0.923888,29.5625,3,34237,3470818
88,3,0.999428,0.00454983,0.0334073,0.00249011,-0.687501,-0.0884826,9.79615,-0.0893766,-0.778261,0.936991,-0.00687575,-0.000895996,0.0979614,1,5.58757e-05,-3.92637e-06,1.6257e-05,0.0111751,-0.000785273,0.00325139,0.999428,0.00454983,0.0334073,0.00249011,0.187621,0.576779,-0.923888,29.5625,3,34237,3470818
88,4,0.999428,0.00454983,0.0334073,0.00249011,-0.687501,-0.0884826,9.79615,-0.0893766,-0.778261,0.936991,-0.00687575,-0.000895996,0.0979614,1,5.58757e-05,-3.92637e-06,1.6257e-05,0.0111751,-0.000785273,0.00325139,0.999428,0.00454983,0.0334073,0.00249011,0.187621,0.576779,-0.923888,29.5625,3,34237,3470818
89,1,0.999428,0.00460998,0.033396,0.00250535,-0.686838,-0.0876716,9.78869,-0.0874867,-0.77461,0.929618,-0.00687048,-0.00088652,0.0978866,1,4.91831e-05,-1.08015e-05,1.27852e-05,0.00983663,-0.0021603,0.00255705,0.999428,0.00460998,0.033396,0.00250535,0.187071,0.580206,-0.924314,29.5625,3,34239,3471018
89,2,0.999428,0.00463412,0.0333972,0.00250713,-0.685602,-0.0826079,9.78769,-0.0902245,-0.772738,0.929224,-0.00685649,-0.000835472,0.0978768,1,4.73671e-05,-2.49215e-06,8.8494e-06,0.00947341,-0.000498429,0.00176988,0.999428,0.00463412,0.0333972,0.00250713,0.186594,0.579244,-0.924838,29.5625,3,34240,3471118
89,3,0.999428,0.00466244,0.033397,0.00252383,-0.677626,-0.095949,9.79262,-0.0792385,-0.786725,0.931951,-0.00677696,-0.000969754,0.0979261,1,5.08856e-05,-3.83005e-06,2.19773e-05,0.0101771,-0.00076601,0.00439546,0.999428,0.00466244,0.033397,0.00252383,0.185122,0.58024,-0.925314,29.5625,3,34241,3471218
89,4,0.999428,0.00466244,0.033397,0.00252383,-0.677626,-0.095949,9.79262,-0.0792385,-0.786725,0.931951,-0.00677696,-0.000969754,0.0979261,1,5.08856e-05,-3.83005e-06,2.19773e-05,0.0101771,-0.00076601,0.00439546,0.999428,0.00466244,0.033397,0.00252383,0.185122,0.58024,-0.925314,29.5625,3,34241,3471218
90,1,0.999428,0.00471322,0.0333871,0.00254649,-0.680423,-0.0794449,9.77718,-0.0820041,-0.771139,0.914561,-0.00680711,-0.000803358,0.0977716,1,4.45712e-05,-1.4866e-05,1.42322e-05,0.00891424,-0.00297321,0.00284644,0.999428,0.00471322,0.0333871,0.00254649,0.185697,0.57824,-0.922836,29.5625,3,34243,3471418
90,2,0.999428,0.00471322,0.0333871,0.00254649,-0.680423,-0.0794449,9.77718,-0.0820041,-0.771139,0.914561,-0.00680711,-0.000803358,0.0977716,1,4.45712e-05,-1.4866e-05,1.42322e-05,0.00891424,-0.00297321,0.00284644,0.999428,0.00471322,0.0333871,0.00254649,0.185697,0.57824,-0.922836,29.5625,3,34243,3471418
90,3,0.999428,0.00474053,0.0333828,0.00255937,-0.687178,-0.0944654,9.78253,-0.0911635,-0.789463,0.923974,-0.00687329,-0.00095467,0.0978251,1,4.99935e-05,-7.91213e-06,1.706e-05,0.00999869,-0.00158243,0.00341199,0.999428,0.00474053,0.0333828,0.00255937,0.186647,0.579687,-0.922303,29.5625,3,34244,3471518
90,4,0.999428,0.00474053,0.0333828,0.00255937,-0.687178,-0.0944654,9.78253,-0.0911635,-0.789463,0.923974,-0.00687329,-0.00095467,0.0978251,1,4.99935e-05,-7.91213e-06,1.706e-05,0.00999869,-0.00158243,0.00341199,0.999428,0.00474053,0.0333828,0.00255937,0.186647,0.579687,-0.922303,29.5625,3,34244,3471518
91,1,0.999428,0.00478562,0.0333719,0.0025435,-0.677921,-0.0894051,9.79642,-0.081819,-0.782442,0.935215,-0.00678153,-0.000904646,0.0979639,1,5.42197e-05,-1.18279e-05,-2.10666e-06,0.0108439,-0.00236557,-0.000421332,0.999428,0.00478562,0.0333719,0.0025435,0.186593,0.577799,-0.925881,29.5625,3,34246,3471718
91,2,0.999428,0.00479173,0.0333663,0.00255232,-0.685227,-0.0900129,9.78933,-0.0846625,-0.784787,0.928806,-0.00685406,-0.000906005,0.0978931,1,2.91707e-05,-9.24817e-06,1.20441e-05,0.00583414,-0.00184963,0.00240881,0.999428,0.00479173,0.0333663,0.00255232,0.185648,0.578276,-0.924855,29.5625,3,34247,3471818
91,3,0.999428,0.00479173,0.0333663,0.00255232,-0.685227,-0.0900129,9.78933,-0.0846625,-0.784787,0.928806,-0.00685406,-0.000906005,0.0978931,1,2.91707e-05,-9.24817e-06,1.20441e-05,0.00583414,-0.00184963,0.00240881,0.999428,0.00479173,0.0333663,0.00255232,0.185648,0.578276,-0.924855,29.5625,3,34247,3471818
91,4,0.999428,0.00479173,0.0333663,0.00255232,-0.685227,-0.0900129,9.78933,-0.0846625,-0.784787,0.928806,-0.00685406,-0.000906005,0.0978931,1,2.91707e-05,-9.24817e-06,1.20441e-05,0.00583414,-0.00184963,0.00240881,0.999428,0.00479173,0.0333663,0.00255232,0.185648,0.578276,-0.924855,29.5625,3,34247,3471818
92,1,0.999428,0.00484052,0.0333596,0.00256105,-0.689149,-0.089117,9.79514,-0.0907844,-0.784167,0.934196,-0.0068934,-0.000902402,0.0979511,1,5.66244e-05,-9.85336e-06,1.00713e-05,0.0113249,-0.00197067,0.00201426,0.999428,0.00484052,0.0333596,0.00256105,0.185261,0.579175,-0.920288,29.5625,3,34249,3472018
92,2,0.999428,0.00484652,0.03336,0.00257311,-0.671662,-0.089471,9.78313,-0.0754718,-0.78674,0.922097,-0.00671721,-0.000900523,0.0978312,1,2.85655e-05,-3.15536e-06,1.66521e-05,0.00571309,-0.000631072,0.00333042,0.999428,0.00484652,0.03336,0.00257311,0.186142,0.579709,-0.923311,29.5625,3,34250,3472118
92,3,0.999429,0.00487359,0.0333518,0.00257876,-0.677765,-0.0787642,9.78429,-0.0803077,-0.772696,0.920494,-0.00677997,-0.000797617,0.0978427,1,5.00567e-05,-1.19304e-05,1.32658e-05,0.0100113,-0.00238609,0.00265316,0.999429,0.00487359,0.0333518,0.00257876,0.186125,0.579239,-0.924331,29.5625,3,34251,3472218
92,4,0.999429,0.00487359,0.0333518,0.00257876,-0.677765,-0.0787642,9.78429,-0.0803077,-0.772696,0.920494,-0.00677997,-0.000797617,0.0978427,1,5.00567e-05,-1.19304e-05,1.32658e-05,0.0100113,-0.00238609,0.00265316,0.999429,0.00487359,0.0333518,0.00257876,0.186125,0.579239,-0.924331,29.5625,3,34251,3472218
93,1,0.999429,0.0049317,0.0333313,0.00259055,-0.678193,-0.0934817,9.78927,-0.077316,-0.788438,0.926346,-0.00678466,-0.000944723,0.0978924,1,4.96768e-05,-1.4035e-05,1.32544e-05,0.00993536,-0.002807,0.00265087,0.999429,0.0049317,0.0333313,0.00259055,0.185697,0.57824,-0.922836,29.5625,3,34253,3472418
93,2,0.999429,0.0049317,0.0333313,0.00259055,-0.678193,-0.0934817,9.78927,-0.077316,-0.788438,0.926346,-0.00678466,-0.000944723,0.0978924,1,4.96768e-05,-1.4035e-05,1.32544e-05,0.00993536,-0.002807,0.00265087,0.999429,0.0049317,0.0333313,0.00259055,0.185697,0.57824,-0.922836,29.5625,3,34253,3472418
93,3,0.999429,0.00496255,0.0333153,0.00259475,-0.677535,-0.0865925,9.79034,-0.0794212,-0.781956,0.924959,-0.00677918,-0.000876568,0.097903,1,5.36611e-05,-1.96934e-05,1.00097e-05,0.0107322,-0.00393869,0.00200195,0.999429,0.00496255,0.0333153,0.00259475,0.185754,0.576271,-0.92187,29.5625,3,34254,3472518
93,4,0.999429,0.00496255,0.0333153,0.00259475,-0.677535,-0.0865925,9.79034,-0.0794212,-0.781956,0.924959,-0.00677918,-0.000876568,0.097903,1,5.36611e-05,-1.96934e-05,1.00097e-05,0.0107322,-0.00393869,0.00200195,0.999429,0.00496255,0.0333153,0.00259475,0.185754,0.576271,-0.92187,29.5625,3,34254,3472518
94,1,0.999429,0.00501625,0.0333031,0.00259639,-0.683488,-0.0842532,9.78903,-0.0878254,-0.785847,0.929327,-0.00683623,-0.000852662,0.0978902,1,5.10532e-05,-6.99053e-06,9.87199e-06,0.0102106,-0.00139811,0.0019744,0.999429,0.00501625,0.0333031,0.00259639,0.187071,0.580206,-0.924314,29.5625,3,34256,3472718
94,2,0.999429,0.00503649,0.0333032,0.00260064,-0.691897,-0.089955,9.79345,-0.0923229,-0.791322,0.929235,-0.00691964,-0.000908157,0.0979344,1,4.29973e-05,-3.51496e-06,1.33512e-05,0.00859946,-0.000702991,0.00267023,0.999429,0.00503649,0.0333032,0.00260064,0.186997,0.58026,-0.927343,29.5625,3,34257,3472818
94,3,0.999429,0.00503649,0.0333032,0.00260064,-0.691897,-0.089955,9.79345,-0.0923229,-0.791322,0.929235,-0.00691964,-0.000908157,0.0979344,1,4.29973e-05,-3.51496e-06,1.33512e-05,0.00859946,-0.000702991,0.00267023,0.999429,0.00503649,0.0333032,0.00260064,0.186997,0.58026,-0.927343,29.5625,3,34257,3472818
94,4,0.999429,0.00503649,0.0333032,0.00260064,-0.691897,-0.089955,9.79345,-0.0923229,-0.791322,0.929235,-0.00691964,-0.000908157,0.0979344,1,4.29973e-05,-3.51496e-06,1.33512e-05,0.00859946,-0.000702991,0.00267023,0.999429,0.00503649,0.0333032,0.00260064,0.186997,0.58026,-0.927343,29.5625,3,34257,3472818
95,1,0.99943,0.00507928,0.033283,0.00260906,-0.683551,-0.100879,9.795,-0.0873666,-0.801508,0.937326,-0.00683997,-0.00101699,0.0979496,1,4.10899e-05,-2.28509e-05,1.10139e-05,0.00821799,-0.00457018,0.00220278,0.99943,0.00507928,0.033283,0.00260906,0.187601,0.577276,-0.924382,29.5625,3,34259,3473018
95,2,0.999429,0.00510326,0.0332917,0.00260992,-0.688656,-0.086409,9.7904,-0.0909,-0.78968,0.93241,-0.00688557,-0.000873359,0.097904,1,4.67505e-05,4.99946e-06,8.34447e-06,0.00935011,0.000999892,0.0016689,0.999429,0.00510326,0.0332917,0.00260992,0.186683,0.575324,-0.923916,29.5625,3,34260,3473118
95,3,0.999429,0.00513408,0.0332838,0.00260936,-0.675893,-0.0940466,9.78449,-0.0850096,-0.799434,0.925328,-0.00676121,-0.00095102,0.0978446,1,5.36666e-05,-1.17008e-05,3.8649e-06,0.0107333,-0.00234017,0.000772979,0.999429,0.00513408,0.0332838,0.00260936,0.186651,0.577275,-0.923872,29.5625,3,34261,3473218
95,4,0.999429,0.00513408,0.0332838,0.00260936,-0.675893,-0.0940466,9.78449,-0.0850096,-0.799434,0.925328,-0.00676121,-0.00095102,0.0978446,1,5.36666e-05,-1.17008e-05,3.8649e-06,0.0107333,-0.00234017,0.000772979,0.999429,0.00513408,0.0332838,0.00260936,0.186651,0.577275,-0.923872,29.5625,3,34261,3473218
96,1,0.999429,0.00517028,0.0332832,0.00260962,-0.677134,-0.0805641,9.7802,-0.0798985,-0.785131,0.916471,-0.00677263,-0.0008125,0.0978018,1,3.43416e-05,-6.70175e-06,1.04922e-05,0.00686832,-0.00134035,0.00209845,0.999429,0.00517028,0.0332832,0.00260962,0.187079,0.579719,-0.924325,29.5625,3,34263,3473418
96,2,0.999429,0.00519564,0.0332818,0.0026157,-0.677701,-0.0812162,9.78869,-0.08276,-0.785009,0.924976,-0.00677796,-0.000821775,0.0978867,1,4.82109e-05,-4.94019e-06,1.28985e-05,0.00964218,-0.000988038,0.00257971,0.999429,0.00519564,0.0332818,0.0026157,0.186113,0.579248,-0.924836,29.5625,3,34264,3473518
96,3,0.999429,0.00519564,0.0332818,0.0026157,-0.677701,-0.0812162,9.78869,-0.08276,-0.785009,0.924976,-0.00677796,-0.000821775,0.0978867,1,4.82109e-05,-4.94019e-06,1.28985e-05,0.00964218,-0.000988038,0.00257971,0.999429,0.00519564,0.0332818,0.0026157,0.186113,0.579248,-0.924836,29.5625,3,34264,3473518
96,4,0.999429,0.00519564,0.0332818,0.0026157,-0.677701,-0.0812162,9.78869,-0.08276,-0.785009,0.924976,-0.00677796,-0.000821775,0.0978867,1,4.82109e-05,-4.94019e-06,1.28985e-05,0.00964218,-0.000988038,0.00257971,0.999429,0.00519564,0.0332818,0.0026157,0.186113,0.579248,-0.924836,29.5625,3,34264,3473518
97,1,0.999429,0.00524414,0.0332675,0.00265979,-0.68841,-0.100456,9.79606,-0.0907584,-0.805467,0.934397,-0.00688488,-0.00101562,0.0979604,1,5.51288e-05,-4.18349e-06,1.86952e-05,0.0110257,-0.000836698,0.00373905,0.999429,0.00524414,0.0332675,0.00265979,0.187629,0.574846,-0.924941,29.5625,3,34266,3473718
97,2,0.999429,0.00527105,0.0332677,0.00266597,-0.675047,-0.0937065,9.78074,-0.0823506,-0.798366,0.916908,-0.00675114,-0.000946911,0.0978073,1,4.91793e-05,-3.56121e-06,1.6764e-05,0.00983587,-0.000712242,0.0033528,0.999429,0.00527105,0.0332677,0.00266597,0.187136,0.577749,-0.923359,29.5625,3,34267,3473818
97,3,0.999429,0.00527105,0.0332677,0.00266597,-0.675047,-0.0937065,9.78074,-0.0823506,-0.798366,0.916908,-0.00675114,-0.000946911,0.0978073,1,4.91793e-05,-3.56121e-06,1.6764e-05,0.00983587,-0.000712242,0.0033528,0.999429,0.00527105,0.0332677,0.00266597,0.187136,0.577749,-0.923359,29.5625,3,34267,3473818
97,4,0.999429,0.00527105,0.0332677,0.00266597,-0.675047,-0.0937065,9.78074,-0.0823506,-0.798366,0.916908,-0.00675114,-0.000946911,0.0978073,1,4.91793e-05,-3.56121e-06,1.6764e-05,0.00983587,-0.000712242,0.0033528,0.999429,0.00527105,0.0332677,0.00266597,0.187136,0.577749,-0.923359,29.5625,3,34267,3473818
98,1,0.999429,0.00532309,0.0332512,0.00267746,-0.691191,-0.0949639,9.79069,-0.098107,-0.799255,0.929063,-0.00691396,-0.000960265,0.0979066,1,5.2914e-05,-1.06394e-05,1.91517e-05,0.0105828,-0.00212788,0.00383034,0.999429,0.00532309,0.0332512,0.00267746,0.187112,0.579213,-0.923326,29.5625,3,34269,3474018
98,2,0.999429,0.00534485,0.0332519,0.00268501,-0.682238,-0.0826116,9.78191,-0.0888437,-0.788161,0.913774,-0.00682294,-0.000835008,0.097819,1,4.44763e-05,-2.94321e-06,1.4009e-05,0.00889525,-0.000588642,0.00280179,0.999429,0.00534485,0.0332519,0.00268501,0.18568,0.577771,-0.923857,29.5625,3,34270,3474118
98,3,0.999429,0.00535779,0.0332464,0.00269109,-0.684553,-0.0914884,9.77981,-0.0924752,-0.796759,0.91636,-0.00684729,-0.00092196,0.0977979,1,3.57739e-05,-9.08973e-06,5.7391e-06,0.00715479,-0.00181795,0.00114782,0.999429,0.00535779,0.0332464,0.00269109,0.185228,0.57679,-0.923371,29.5625,3,34271,3474218
98,4,0.999429,0.00535779,0.0332464,0.00269109,-0.684553,-0.0914884,9.77981,-0.0924752,-0.796759,0.91636,-0.00684729,-0.00092196,0.0977979,1,3.57739e-05,-9.08973e-06,5.7391e-06,0.00715479,-0.00181795,0.00114782,0.999429,0.00535779,0.0332464,0.00269109,0.185228,0.57679,-0.923371,29.5625,3,34271,3474218
99,1,0.99943,0.00541351,0.033226,0.00270567,-0.682187,-0.0851479,9.77477,-0.0855343,-0.796914,0.91046,-0.0068241,-0.000861979,0.0977474,1,5.28358e-05,-1.15016e-05,1.24536e-05,0.0105672,-0.00230033,0.00249072,0.99943,0.00541351,0.033226,0.00270567,0.186696,0.578205,-0.921327,29.5625,3,34273,3474418
