frame_id,imu_idx,quat_w,quat_x,quat_y,quat_z,accel_x,accel_y,accel_z,free_accel_x,free_accel_y,free_accel_z,delta_v_x,delta_v_y,delta_v_z,delta_q_w,delta_q_x,delta_q_y,delta_q_z,rate_x,rate_y,rate_z,quat_w,quat_x,quat_y,quat_z,mag_x,mag_y,mag_z,temperature,status_byte,packet_counter,time_fine
1,1,0.999342,-0.00476539,0.0359441,-0.0001551,-0.676747,-0.0745283,9.79928,-0.0881764,-0.532363,0.93463,-0.00676765,-0.000753438,0.0979927,1,4.02835e-05,-1.04317e-06,1.92335e-05,0.0080567,-0.000208635,0.00384671,0.999342,-0.00476539,0.0359441,-0.0001551,0.247396,0.567792,-0.885474,35.6875,1,23789,15558486
1,2,0.999343,-0.00473336,0.0359415,-0.000149303,-0.687961,-0.0807076,9.7854,-0.102001,-0.539301,0.922147,-0.00688061,-0.000813699,0.0978539,1,3.36766e-05,-5.14459e-06,2.37288e-06,0.00673533,-0.00102892,0.000474575,0.999343,-0.00473336,0.0359415,-0.000149303,0.246915,0.566351,-0.886514,35.6875,1,23790,15558586
1,3,0.999344,-0.00462651,0.0359149,-0.00013606,-0.687111,-0.0805713,9.79083,-0.0967744,-0.540395,0.925463,-0.00687545,-0.000816179,0.0979079,1,5.34635e-05,-2.21692e-05,-2.60869e-07,0.0106927,-0.00443384,-5.21739e-05,0.999344,-0.00462651,0.0359149,-0.00013606,0.246548,0.563862,-0.883537,35.6875,1,23792,15558786
1,4,0.999345,-0.00453342,0.0358998,-0.000123881,-0.680619,-0.0819046,9.78432,-0.0924364,-0.542238,0.915016,-0.00680632,-0.000826793,0.0978431,1,3.91677e-05,-7.30143e-07,6.07243e-06,0.00783353,-0.000146029,0.00121449,0.999345,-0.00453342,0.0358998,-0.000123881,0.245443,0.567348,-0.88699,35.6875,1,23794,15558986
2,1,0.999346,-0.00446605,0.0358744,-9.41833e-05,-0.68496,-0.0689772,9.78107,-0.0978466,-0.529777,0.913182,-0.00685283,-0.000696756,0.0978105,1,3.48334e-05,-1.66016e-05,1.24313e-05,0.00696668,-0.00332032,0.00248626,0.999346,-0.00446605,0.0358744,-9.41833e-05,0.248448,0.563864,-0.884556,35.6875,1,23796,15559186
2,2,0.999347,-0.00438895,0.0358648,-7.13312e-05,-0.691787,-0.0741153,9.77768,-0.111026,-0.534775,0.913193,-0.00692059,-0.000749348,0.0977766,1,4.07229e-05,-1.40668e-05,1.67005e-05,0.00814459,-0.00281336,0.00334011,0.999347,-0.00438895,0.0358648,-7.13312e-05,0.24603,0.565339,-0.884007,35.6875,1,23798,15559386
2,3,0.999347,-0.00434793,0.0358578,-5.03255e-05,-0.677387,-0.0822504,9.78973,-0.0917505,-0.541536,0.919034,-0.00677513,-0.000830522,0.0978971,1,3.94098e-05,-6.64788e-06,2.22381e-05,0.00788197,-0.00132958,0.00444762,0.999347,-0.00434793,0.0358578,-5.03255e-05,0.246919,0.56683,-0.885998,35.6875,1,23799,15559486
2,4,0.999348,-0.00425225,0.0358585,-1.7003e-05,-0.683657,-0.0774152,9.78743,-0.0978349,-0.544248,0.921008,-0.00683585,-0.000784628,0.0978742,1,5.2454e-05,3.59301e-06,1.52252e-05,0.0104908,0.000718602,0.00304504,0.999348,-0.00425225,0.0358585,-1.7003e-05,0.245491,0.564421,-0.887055,35.6875,1,23801,15559686
3,1,0.999349,-0.00416236,0.0358261,1.61875e-05,-0.682812,-0.0720197,9.7885,-0.0971143,-0.539958,0.921821,-0.00683218,-0.000728211,0.0978846,1,3.96295e-05,-2.08953e-05,1.87756e-05,0.0079259,-0.00417905,0.00375512,0.999349,-0.00416236,0.0358261,1.61875e-05,0.244582,0.563427,-0.885558,35.6875,1,23803,15559886
3,2,0.999351,-0.00408118,0.0357993,5.3464e-05,-0.684151,-0.072542,9.78885,-0.0975868,-0.543985,0.922269,-0.00684534,-0.000732709,0.0978881,1,3.66792e-05,-1.96343e-05,7.89925e-06,0.00733583,-0.00392686,0.00157985,0.999351,-0.00408118,0.0357993,5.3464e-05,0.246491,0.565831,-0.884503,35.6875,1,23805,15560086
3,3,0.999352,-0.00399659,0.035774,8.25379e-05,-0.687241,-0.0782726,9.79186,-0.104546,-0.548518,0.921733,-0.00687584,-0.000791046,0.0979183,1,4.13655e-05,-1.76226e-05,1.59352e-05,0.0082731,-0.00352451,0.00318703,0.999352,-0.00399659,0.035774,8.25379e-05,0.246413,0.566852,-0.887005,35.6875,1,23807,15560286
3,4,0.999353,-0.0039222,0.0357475,0.000108867,-0.685983,-0.0710864,9.7814,-0.101575,-0.545391,0.915798,-0.00686215,-0.000716941,0.0978138,1,3.01209e-05,-1.19302e-05,1.34688e-05,0.00602417,-0.00238603,0.00269375,0.999353,-0.0039222,0.0357475,0.000108867,0.247008,0.56291,-0.885075,35.6875,1,23809,15560486
4,1,0.999354,-0.00388651,0.0357298,0.000117589,-0.676237,-0.0802923,9.79483,-0.0934092,-0.554935,0.930188,-0.00676573,-0.000809888,0.097948,1,3.48855e-05,-1.72388e-05,9.72296e-06,0.0069771,-0.00344775,0.00194459,0.999354,-0.00388651,0.0357298,0.000117589,0.246466,0.565849,-0.885513,35.6875,1,23810,15560586
4,2,0.999355,-0.00380642,0.0357112,0.000156736,-0.67472,-0.078936,9.78905,-0.092748,-0.556975,0.921803,-0.0067483,-0.000796019,0.0978904,1,3.22572e-05,-5.82862e-06,2.54604e-05,0.00645145,-0.00116572,0.00509209,0.999355,-0.00380642,0.0357112,0.000156736,0.245855,0.569322,-0.888463,35.6875,1,23812,15560786
4,3,0.999356,-0.00371062,0.035687,0.000194159,-0.686897,-0.069226,9.7855,-0.106431,-0.54898,0.91904,-0.00687225,-0.000703302,0.0978547,1,5.48234e-05,-1.69129e-05,2.27649e-05,0.0109647,-0.00338258,0.00455297,0.999356,-0.00371062,0.035687,0.000194159,0.244542,0.565865,-0.885503,35.6875,1,23814,15560986
4,4,0.999357,-0.0036168,0.0356721,0.000198629,-0.688529,-0.0696254,9.78176,-0.105296,-0.553587,0.911268,-0.00688622,-0.000704661,0.0978175,1,4.28837e-05,-4.74393e-06,1.28179e-06,0.00857674,-0.000948786,0.000256359,0.999357,-0.0036168,0.0356721,0.000198629,0.247021,0.564346,-0.883528,35.6875,1,23816,15561186
5,1,0.999358,-0.0035344,0.0356632,0.000213905,-0.67388,-0.0688208,9.78099,-0.0939737,-0.548937,0.904585,-0.00673869,-0.000695688,0.0978099,1,3.85586e-05,5.903e-07,-4.65853e-06,0.00771172,0.00011806,-0.000931706,0.999358,-0.0035344,0.0356632,0.000213905,0.248383,0.567766,-0.884469,35.6875,1,23818,15561386
5,2,0.999358,-0.00349046,0.0356531,0.000216853,-0.67537,-0.072336,9.79421,-0.0949243,-0.561103,0.920251,-0.00675547,-0.000731951,0.0979419,1,4.35785e-05,-9.0577e-06,4.10705e-06,0.0087157,-0.00181154,0.00082141,0.999358,-0.00349046,0.0356531,0.000216853,0.24689,0.566369,-0.887523,35.6875,1,23819,15561486
5,3,0.99936,-0.00340515,0.0356222,0.000249061,-0.694661,-0.0802765,9.79224,-0.114337,-0.566523,0.926093,-0.00694945,-0.000812481,0.0979221,1,4.79277e-05,-1.46925e-05,2.37245e-05,0.00958555,-0.0029385,0.0047449,0.99936,-0.00340515,0.0356222,0.000249061,0.246055,0.563875,-0.884039,35.6875,1,23821,15561686
5,4,0.999361,-0.00329161,0.0355989,0.000269096,-0.682696,-0.0717385,9.77865,-0.100991,-0.555147,0.902796,-0.00682781,-0.000729508,0.0977864,1,6.10817e-05,-4.44972e-06,1.29361e-05,0.0122163,-0.000889945,0.00258722,0.999361,-0.00329161,0.0355989,0.000269096,0.248457,0.566267,-0.882482,35.6875,1,23823,15561886
6,1,0.999361,-0.0032193,0.0355896,0.000296928,-0.696521,-0.0807065,9.78749,-0.117498,-0.576724,0.915886,-0.00696533,-0.000813719,0.0978748,1,3.26242e-05,-7.73161e-07,1.91871e-05,0.00652485,-0.000154632,0.00383742,0.999361,-0.0032193,0.0355896,0.000296928,0.246446,0.564901,-0.887049,35.6875,1,23825,15562086
6,2,0.999362,-0.00314285,0.0355817,0.000308859,-0.686703,-0.0772858,9.78745,-0.106622,-0.569757,0.921011,-0.00686726,-0.000778667,0.0978744,1,2.91746e-05,-1.23131e-06,7.07435e-06,0.00583492,-0.000246263,0.00141487,0.999362,-0.00314285,0.0355817,0.000308859,0.246585,0.56239,-0.883065,35.6875,1,23827,15562286
6,3,0.999363,-0.0030637,0.035556,0.000322058,-0.684253,-0.0823964,9.78604,-0.104813,-0.574605,0.911861,-0.00684361,-0.000830719,0.0978602,1,3.43826e-05,-5.53757e-06,1.88313e-06,0.00687651,-0.00110751,0.000376625,0.999363,-0.0030637,0.035556,0.000322058,0.247002,0.567733,-0.881938,35.6875,1,23829,15562486
6,4,0.999363,-0.0030294,0.0355595,0.000336833,-0.680283,-0.0815938,9.78262,-0.0990544,-0.581588,0.909472,-0.00680181,-0.000822859,0.0978262,1,3.42447e-05,5.08509e-06,1.62795e-05,0.00684895,0.00101702,0.00325589,0.999363,-0.0030294,0.0355595,0.000336833,0.246442,0.567313,-0.88548,35.6875,1,23830,15562586
7,1,0.999364,-0.00293,0.0355374,0.00036085,-0.693737,-0.0734609,9.78788,-0.111449,-0.570378,0.915006,-0.00694008,-0.000744078,0.0978786,1,4.74639e-05,-1.39234e-05,1.28262e-05,0.00949278,-0.00278468,0.00256524,0.999364,-0.00293,0.0355374,0.00036085,0.246438,0.565389,-0.887038,35.6875,1,23832,15562786
7,2,0.999365,-0.00284658,0.0355247,0.000400826,-0.684534,-0.0716245,9.77357,-0.104605,-0.574148,0.904119,-0.00684509,-0.000725371,0.0977357,1,4.57334e-05,1.2011e-06,1.35939e-05,0.00914669,0.00024022,0.00271877,0.999365,-0.00284658,0.0355247,0.000400826,0.247009,0.564355,-0.884033,35.6875,1,23834,15562986
7,3,0.999365,-0.0027612,0.0355125,0.000430795,-0.685555,-0.0827263,9.79215,-0.103073,-0.584549,0.921363,-0.00685652,-0.000834441,0.0979214,1,3.5176e-05,-5.14275e-06,2.11131e-05,0.00703521,-0.00102855,0.00422262,0.999365,-0.0027612,0.0355125,0.000430795,0.247865,0.567797,-0.885981,35.6875,1,23836,15563186
7,4,0.999366,-0.00266794,0.0354927,0.000454284,-0.687436,-0.0895164,9.79008,-0.110913,-0.595147,0.917637,-0.00687751,-0.000904464,0.0979005,1,4.66201e-05,-1.61959e-05,1.24889e-05,0.00932402,-0.00323917,0.00249779,0.999366,-0.00266794,0.0354927,0.000454284,0.247856,0.565395,-0.888054,35.6875,1,23838,15563386
8,1,0.999367,-0.00261888,0.0354777,0.000477371,-0.690937,-0.0826203,9.79083,-0.111515,-0.588167,0.921888,-0.00691188,-0.000836206,0.0979081,1,4.93358e-05,-1.29882e-05,2.479e-05,0.00986717,-0.00259764,0.004958,0.999367,-0.00261888,0.0354777,0.000477371,0.247449,0.563899,-0.886066,35.6875,1,23839,15563486
8,2,0.999368,-0.00252626,0.0354608,0.000504531,-0.687249,-0.0850276,9.78943,-0.109637,-0.595469,0.920931,-0.00687354,-0.000859972,0.0978941,1,4.81978e-05,-5.51876e-06,1.8863e-05,0.00963956,-0.00110375,0.0037726,0.999368,-0.00252626,0.0354608,0.000504531,0.248424,0.565328,-0.884523,35.6875,1,23841,15563686
8,3,0.999369,-0.00245487,0.0354275,0.000513785,-0.69783,-0.0664393,9.78458,-0.12335,-0.575386,0.911524,-0.00698253,-0.000670267,0.0978455,1,2.93664e-05,-2.17148e-05,9.14368e-06,0.00587328,-0.00434297,0.00182874,0.999369,-0.00245487,0.0354275,0.000513785,0.246001,0.564878,-0.885532,35.6875,1,23843,15563886
8,4,0.99937,-0.00237211,0.0353967,0.000539309,-0.680185,-0.0688845,9.78884,-0.10345,-0.580108,0.916793,-0.00680399,-0.000697947,0.0978882,1,4.53833e-05,-1.10364e-05,1.59647e-05,0.00907666,-0.00220728,0.00319293,0.99937,-0.00237211,0.0353967,0.000539309,0.245533,0.564873,-0.885025,35.6875,1,23845,15564086
9,1,0.999371,-0.00228986,0.0353959,0.000559163,-0.678696,-0.0677878,9.78272,-0.103781,-0.579124,0.908968,-0.00678601,-0.000686333,0.0978272,1,4.24013e-05,4.75335e-06,1.17346e-05,0.00848026,0.000950669,0.00234693,0.999371,-0.00228986,0.0353959,0.000559163,0.246993,0.566776,-0.882969,35.6875,1,23847,15564286
9,2,0.999372,-0.0022496,0.035369,0.000588215,-0.680724,-0.0763865,9.78268,-0.105315,-0.586736,0.912486,-0.00681225,-0.00077233,0.0978264,1,4.10752e-05,-2.587e-05,3.14285e-05,0.00821503,-0.00517401,0.00628571,0.999372,-0.0022496,0.035369,0.000588215,0.247421,0.567774,-0.884464,35.6875,1,23848,15564386
9,3,0.999372,-0.00214814,0.0353554,0.000605715,-0.683451,-0.0786882,9.78845,-0.108066,-0.598361,0.916055,-0.00683653,-0.000797571,0.0978843,1,5.37672e-05,-1.03916e-05,1.19299e-05,0.0107534,-0.00207832,0.00238599,0.999372,-0.00214814,0.0353554,0.000605715,0.245977,0.564896,-0.886542,35.6875,1,23850,15564586
9,4,0.999373,-0.00207697,0.0353334,0.000632641,-0.685688,-0.0776474,9.78405,-0.108632,-0.599681,0.90934,-0.00685717,-0.000781638,0.0978405,1,2.55015e-05,-1.60367e-06,1.26436e-05,0.00510029,-0.000320733,0.00252873,0.999373,-0.00207697,0.0353334,0.000632641,0.247466,0.565814,-0.884003,35.6875,1,23852,15564786
10,1,0.999374,-0.00200444,0.0353246,0.000671838,-0.685593,-0.0700238,9.79362,-0.111058,-0.588552,0.921569,-0.00685736,-0.000709214,0.097936,1,4.39399e-05,-7.45838e-06,2.69579e-05,0.00878797,-0.00149168,0.00539159,0.999374,-0.00200444,0.0353246,0.000671838,0.247376,0.568289,-0.885968,35.6875,1,23854,15564986
10,2,0.999375,-0.00192775,0.03529,0.000692644,-0.684066,-0.0727015,9.7875,-0.109157,-0.591295,0.91541,-0.00684459,-0.000734966,0.0978746,1,3.93189e-05,-2.02466e-05,1.8615e-05,0.00786377,-0.00404933,0.003723,0.999375,-0.00192775,0.03529,0.000692644,0.245039,0.564886,-0.885527,35.6875,1,23856,15565186
10,3,0.999376,-0.00183901,0.035276,0.000744124,-0.678549,-0.0777931,9.78875,-0.0973889,-0.604998,0.914901,-0.00678504,-0.00078715,0.0978874,1,4.57987e-05,2.14962e-06,1.85874e-05,0.00915973,0.000429924,0.00371749,0.999376,-0.00183901,0.035276,0.000744124,0.246055,0.563875,-0.884039,35.6875,1,23858,15565386
10,4,0.999376,-0.0018021,0.0352678,0.000768323,-0.688749,-0.0702559,9.78685,-0.113474,-0.592493,0.913517,-0.00688872,-0.000710415,0.0978684,1,3.86871e-05,-6.40365e-06,2.05991e-05,0.00773742,-0.00128073,0.00411982,0.999376,-0.0018021,0.0352678,0.000768323,0.246467,0.567295,-0.88447,35.6875,1,23859,15565486
11,1,0.999377,-0.00173088,0.0352475,0.000787574,-0.685321,-0.070135,9.79327,-0.112941,-0.596253,0.918528,-0.0068545,-0.000709092,0.0979326,1,3.89255e-05,-6.67209e-06,8.55893e-06,0.00778511,-0.00133442,0.00171179,0.999377,-0.00173088,0.0352475,0.000787574,0.246463,0.566816,-0.884986,35.6875,1,23861,15565686
11,2,0.999377,-0.00165267,0.0352418,0.000813815,-0.679227,-0.070279,9.79255,-0.104584,-0.59776,0.918968,-0.00679163,-0.000712744,0.0979255,1,4.94775e-05,3.14225e-06,1.93956e-05,0.0098955,0.000628451,0.00387912,0.999377,-0.00165267,0.0352418,0.000813815,0.245598,0.563861,-0.883028,35.6875,1,23863,15565886
11,3,0.999378,-0.00156216,0.0352304,0.000864403,-0.688937,-0.0843249,9.79487,-0.113326,-0.617815,0.920736,-0.00689011,-0.000853672,0.0979486,1,5.21168e-05,-3.8613e-06,1.55065e-05,0.0104234,-0.000772259,0.00310131,0.999378,-0.00156216,0.0352304,0.000864403,0.247009,0.5658,-0.882991,35.6875,1,23865,15566086
11,4,0.999379,-0.00148229,0.0352074,0.00090407,-0.68294,-0.0676309,9.78514,-0.1112,-0.596498,0.910197,-0.00683255,-0.000683564,0.0978512,1,3.53027e-05,-1.62515e-05,2.52874e-05,0.00706054,-0.00325031,0.00505747,0.999379,-0.00148229,0.0352074,0.00090407,0.247408,0.566338,-0.886011,35.6875,1,23867,15566286
12,1,0.999379,-0.00145163,0.0351977,0.000912038,-0.687209,-0.0838304,9.79147,-0.114733,-0.613548,0.919761,-0.00687343,-0.000846258,0.0979146,1,3.94956e-05,-6.94607e-06,1.59404e-05,0.00789911,-0.00138921,0.00318808,0.999379,-0.00145163,0.0351977,0.000912038,0.245977,0.564896,-0.886542,35.6875,1,23868,15566386
12,2,0.99938,-0.00139338,0.0351619,0.000928829,-0.685273,-0.084062,9.79078,-0.111315,-0.617703,0.911191,-0.00685404,-0.000849469,0.0979076,1,4.43551e-05,-6.81549e-06,1.19101e-05,0.00887102,-0.0013631,0.00238201,0.99938,-0.00139338,0.0351619,0.000928829,0.246556,0.563375,-0.883548,35.6875,1,23870,15566586
12,3,0.999382,-0.00134112,0.0351261,0.000945146,-0.677995,-0.0692425,9.79121,-0.104921,-0.602959,0.913601,-0.00678469,-0.000701828,0.0979117,1,4.77621e-05,-2.42401e-05,3.74009e-06,0.00955243,-0.00484802,0.000748018,0.999382,-0.00134112,0.0351261,0.000945146,0.24643,0.567322,-0.885985,35.6875,1,23872,15566786
12,4,0.999383,-0.00127979,0.035099,0.000955029,-0.690022,-0.0774697,9.78883,-0.12322,-0.611989,0.91193,-0.0069014,-0.000783996,0.0978882,1,4.54989e-05,-6.23249e-06,2.83624e-05,0.00909977,-0.0012465,0.00567249,0.999383,-0.00127979,0.035099,0.000955029,0.245916,0.566386,-0.888023,35.6875,1,23874,15566986
13,1,0.999384,-0.00122272,0.0350693,0.000978435,-0.684845,-0.0755343,9.79086,-0.114132,-0.611048,0.916012,-0.00685184,-0.000761879,0.0979083,1,3.21716e-05,-1.74529e-05,1.71923e-05,0.00643432,-0.00349058,0.00343847,0.999384,-0.00122272,0.0350693,0.000978435,0.246084,0.564336,-0.882514,35.6875,1,23876,15567186
13,2,0.999384,-0.00116098,0.0350548,0.00100466,-0.683674,-0.0639991,9.79128,-0.114457,-0.601667,0.917363,-0.00683883,-0.000645499,0.0979126,1,2.81447e-05,-1.0671e-05,-2.71818e-07,0.00562893,-0.00213419,-5.43636e-05,0.999384,-0.00116098,0.0350548,0.00100466,0.246932,0.568266,-0.884451,35.6875,1,23878,15567386
13,3,0.999385,-0.0011201,0.0350426,0.0010011,-0.683837,-0.0814958,9.78232,-0.117488,-0.619918,0.904739,-0.00684067,-0.000825495,0.0978229,1,5.32567e-05,-1.18468e-05,8.5698e-06,0.0106513,-0.00236935,0.00171396,0.999385,-0.0011201,0.0350426,0.0010011,0.248383,0.566321,-0.885511,35.6875,1,23879,15567486
13,4,0.999385,-0.00106852,0.0350253,0.00100174,-0.682472,-0.0776802,9.78777,-0.11384,-0.623421,0.910836,-0.00682676,-0.000781669,0.0978775,1,2.42573e-05,-1.04978e-05,8.67788e-06,0.00485146,-0.00209956,0.00173558,0.999385,-0.00106852,0.0350253,0.00100174,0.24603,0.563893,-0.885049,35.6875,1,23881,15567686
14,1,0.999386,-0.000999733,0.0350142,0.00102783,-0.689608,-0.0748412,9.797,-0.1208,-0.620955,0.921341,-0.00689762,-0.000758185,0.0979698,1,4.97904e-05,-7.86572e-06,1.2404e-06,0.00995808,-0.00157315,0.00024808,0.999386,-0.000999733,0.0350142,0.00102783,0.245517,0.567294,-0.883961,35.6875,1,23883,15567886
14,2,0.999387,-0.000950982,0.0349875,0.00104537,-0.688625,-0.0742959,9.79767,-0.118183,-0.617752,0.921649,-0.00688747,-0.000750167,0.0979766,1,3.61241e-05,-6.29975e-06,9.38954e-06,0.00722482,-0.00125995,0.00187791,0.999387,-0.000950982,0.0349875,0.00104537,0.246898,0.565881,-0.887534,35.6875,1,23885,15568086
14,3,0.999388,-0.000899209,0.0349452,0.00105083,-0.683222,-0.0788117,9.78573,-0.11886,-0.626597,0.911543,-0.00683511,-0.000796337,0.097857,1,4.14903e-05,-1.48268e-05,7.26839e-06,0.00829807,-0.00296537,0.00145368,0.999388,-0.000899209,0.0349452,0.00105083,0.246047,0.565808,-0.882986,35.6875,1,23887,15568286
14,4,0.999389,-0.000842973,0.0349343,0.00106149,-0.685674,-0.0664223,9.78585,-0.12079,-0.614033,0.907568,-0.00685888,-0.00067618,0.0978583,1,6.05248e-05,-1.09747e-05,8.06889e-06,0.012105,-0.00219495,0.00161378,0.999389,-0.000842973,0.0349343,0.00106149,0.245557,0.564855,-0.884015,35.6875,1,23888,15568386
15,1,0.999389,-0.000774296,0.0349173,0.00108455,-0.698627,-0.0711471,9.78826,-0.130636,-0.61898,0.914054,-0.00698715,-0.000720244,0.0978825,1,4.32935e-05,-4.67483e-06,2.12714e-05,0.0086587,-0.000934967,0.00425429,0.999389,-0.000774296,0.0349173,0.00108455,0.249329,0.567289,-0.885494,35.6875,1,23890,15568586
15,2,0.999389,-0.000774296,0.0349173,0.00108455,-0.698627,-0.0711471,9.78826,-0.130636,-0.61898,0.914054,-0.00698715,-0.000720244,0.0978825,1,4.32935e-05,-4.67483e-06,2.12714e-05,0.0086587,-0.000934967,0.00425429,0.999389,-0.000774296,0.0349173,0.00108455,0.249329,0.567289,-0.885494,35.6875,1,23890,15568586
15,3,0.999389,-0.000774296,0.0349173,0.00108455,-0.698627,-0.0711471,9.78826,-0.130636,-0.61898,0.914054,-0.00698715,-0.000720244,0.0978825,1,4.32935e-05,-4.67483e-06,2.12714e-05,0.0086587,-0.000934967,0.00425429,0.999389,-0.000774296,0.0349173,0.00108455,0.249329,0.567289,-0.885494,35.6875,1,23890,15568586
15,4,0.99939,-0.000743893,0.0349024,0.00105838,-0.686902,-0.0713048,9.78616,-0.117578,-0.62343,0.910314,-0.00687178,-0.00072239,0.0978613,1,4.73112e-05,-1.41359e-05,6.02725e-06,0.00946223,-0.00282718,0.00120545,0.99939,-0.000743893,0.0349024,0.00105838,0.247873,0.565865,-0.887034,35.6875,1,23891,15568686
16,1,0.99939,-0.000743893,0.0349024,0.00105838,-0.686902,-0.0713048,9.78616,-0.117578,-0.62343,0.910314,-0.00687178,-0.00072239,0.0978613,1,4.73112e-05,-1.41359e-05,6.02725e-06,0.00946223,-0.00282718,0.00120545,0.99939,-0.000743893,0.0349024,0.00105838,0.247873,0.565865,-0.887034,35.6875,1,23891,15568686
16,2,0.99939,-0.000743893,0.0349024,0.00105838,-0.686902,-0.0713048,9.78616,-0.117578,-0.62343,0.910314,-0.00687178,-0.00072239,0.0978613,1,4.73112e-05,-1.41359e-05,6.02725e-06,0.00946223,-0.00282718,0.00120545,0.99939,-0.000743893,0.0349024,0.00105838,0.247873,0.565865,-0.887034,35.6875,1,23891,15568686
16,3,0.99939,-0.000714036,0.0348916,0.00105483,-0.690396,-0.0713536,9.78991,-0.124257,-0.621992,0.914222,-0.00690537,-0.000723296,0.0978989,1,4.85908e-05,-7.37017e-06,1.77827e-05,0.00971817,-0.00147403,0.00355653,0.99939,-0.000714036,0.0348916,0.00105483,0.247416,0.564405,-0.887064,35.6875,1,23892,15568786
16,4,0.99939,-0.000714036,0.0348916,0.00105483,-0.690396,-0.0713536,9.78991,-0.124257,-0.621992,0.914222,-0.00690537,-0.000723296,0.0978989,1,4.85908e-05,-7.37017e-06,1.77827e-05,0.00971817,-0.00147403,0.00355653,0.99939,-0.000714036,0.0348916,0.00105483,0.247416,0.564405,-0.887064,35.6875,1,23892,15568786
17,1,0.99939,-0.000714036,0.0348916,0.00105483,-0.690396,-0.0713536,9.78991,-0.124257,-0.621992,0.914222,-0.00690537,-0.000723296,0.0978989,1,4.85908e-05,-7.37017e-06,1.77827e-05,0.00971817,-0.00147403,0.00355653,0.99939,-0.000714036,0.0348916,0.00105483,0.247416,0.564405,-0.887064,35.6875,1,23892,15568786
17,2,0.999391,-0.000687817,0.0348826,0.00106186,-0.690816,-0.0772851,9.78036,-0.129606,-0.630268,0.903535,-0.00690933,-0.000781154,0.0978034,1,4.14848e-05,-6.11932e-06,1.36384e-05,0.00829695,-0.00122386,0.00272768,0.999391,-0.000687817,0.0348826,0.00106186,0.247482,0.564839,-0.884025,35.6875,1,23893,15568886
17,3,0.999391,-0.000687817,0.0348826,0.00106186,-0.690816,-0.0772851,9.78036,-0.129606,-0.630268,0.903535,-0.00690933,-0.000781154,0.0978034,1,4.14848e-05,-6.11932e-06,1.36384e-05,0.00829695,-0.00122386,0.00272768,0.999391,-0.000687817,0.0348826,0.00106186,0.247482,0.564839,-0.884025,35.6875,1,23893,15568886
17,4,0.999391,-0.000687817,0.0348826,0.00106186,-0.690816,-0.0772851,9.78036,-0.129606,-0.630268,0.903535,-0.00690933,-0.000781154,0.0978034,1,4.14848e-05,-6.11932e-06,1.36384e-05,0.00829695,-0.00122386,0.00272768,0.999391,-0.000687817,0.0348826,0.00106186,0.247482,0.564839,-0.884025,35.6875,1,23893,15568886
18,1,0.999391,-0.00064101,0.0348749,0.00107891,-0.678749,-0.0770257,9.78741,-0.111592,-0.631432,0.909427,-0.00678898,-0.000781033,0.0978739,1,5.36238e-05,-7.75798e-06,2.05502e-05,0.0107248,-0.0015516,0.00411004,0.999391,-0.00064101,0.0348749,0.00107891,0.247018,0.566758,-0.88196,35.6875,1,23894,15568986
18,2,0.999391,-0.00064101,0.0348749,0.00107891,-0.678749,-0.0770257,9.78741,-0.111592,-0.631432,0.909427,-0.00678898,-0.000781033,0.0978739,1,5.36238e-05,-7.75798e-06,2.05502e-05,0.0107248,-0.0015516,0.00411004,0.999391,-0.00064101,0.0348749,0.00107891,0.247018,0.566758,-0.88196,35.6875,1,23894,15568986
18,3,0.999391,-0.00064101,0.0348749,0.00107891,-0.678749,-0.0770257,9.78741,-0.111592,-0.631432,0.909427,-0.00678898,-0.000781033,0.0978739,1,5.36238e-05,-7.75798e-06,2.05502e-05,0.0107248,-0.0015516,0.00411004,0.999391,-0.00064101,0.0348749,0.00107891,0.247018,0.566758,-0.88196,35.6875,1,23894,15568986
18,4,0.999391,-0.000609619,0.0348562,0.00109976,-0.688162,-0.0813601,9.78744,-0.124215,-0.634019,0.915112,-0.00688536,-0.000821134,0.0978741,1,3.65322e-05,-1.93212e-05,2.78055e-05,0.00730643,-0.00386423,0.00556109,0.999391,-0.000609619,0.0348562,0.00109976,0.247931,0.566786,-0.883983,35.6875,1,23895,15569086
19,1,0.999391,-0.000609619,0.0348562,0.00109976,-0.688162,-0.0813601,9.78744,-0.124215,-0.634019,0.915112,-0.00688536,-0.000821134,0.0978741,1,3.65322e-05,-1.93212e-05,2.78055e-05,0.00730643,-0.00386423,0.00556109,0.999391,-0.000609619,0.0348562,0.00109976,0.247931,0.566786,-0.883983,35.6875,1,23895,15569086
19,2,0.999391,-0.000609619,0.0348562,0.00109976,-0.688162,-0.0813601,9.78744,-0.124215,-0.634019,0.915112,-0.00688536,-0.000821134,0.0978741,1,3.65322e-05,-1.93212e-05,2.78055e-05,0.00730643,-0.00386423,0.00556109,0.999391,-0.000609619,0.0348562,0.00109976,0.247931,0.566786,-0.883983,35.6875,1,23895,15569086
19,3,0.999392,-0.000583243,0.0348361,0.00110928,-0.677687,-0.0798886,9.78399,-0.113791,-0.637605,0.906803,-0.00678048,-0.00080701,0.0978396,1,3.96426e-05,-1.86546e-05,2.70623e-05,0.00792853,-0.00373092,0.00541246,0.999392,-0.000583243,0.0348361,0.00110928,0.246874,0.567345,-0.887502,35.6875,1,23896,15569186
19,4,0.999392,-0.000583243,0.0348361,0.00110928,-0.677687,-0.0798886,9.78399,-0.113791,-0.637605,0.906803,-0.00678048,-0.00080701,0.0978396,1,3.96426e-05,-1.86546e-05,2.70623e-05,0.00792853,-0.00373092,0.00541246,0.999392,-0.000583243,0.0348361,0.00110928,0.246874,0.567345,-0.887502,35.6875,1,23896,15569186
20,1,0.999392,-0.000583243,0.0348361,0.00110928,-0.677687,-0.0798886,9.78399,-0.113791,-0.637605,0.906803,-0.00678048,-0.00080701,0.0978396,1,3.96426e-05,-1.86546e-05,2.70623e-05,0.00792853,-0.00373092,0.00541246,0.999392,-0.000583243,0.0348361,0.00110928,0.246874,0.567345,-0.887502,35.6875,1,23896,15569186
20,2,0.999393,-0.000578808,0.0348206,0.00109699,-0.68745,-0.0683978,9.7794,-0.124063,-0.622939,0.905764,-0.00687647,-0.00068947,0.0977938,1,2.76081e-05,-1.01366e-05,6.67952e-06,0.00552161,-0.00202733,0.0013359,0.999393,-0.000578808,0.0348206,0.00109699,0.246405,0.56734,-0.886994,35.6875,1,23897,15569286
20,3,0.999393,-0.000578808,0.0348206,0.00109699,-0.68745,-0.0683978,9.7794,-0.124063,-0.622939,0.905764,-0.00687647,-0.00068947,0.0977938,1,2.76081e-05,-1.01366e-05,6.67952e-06,0.00552161,-0.00202733,0.0013359,0.999393,-0.000578808,0.0348206,0.00109699,0.246405,0.56734,-0.886994,35.6875,1,23897,15569286
20,4,0.999393,-0.000578808,0.0348206,0.00109699,-0.68745,-0.0683978,9.7794,-0.124063,-0.622939,0.905764,-0.00687647,-0.00068947,0.0977938,1,2.76081e-05,-1.01366e-05,6.67952e-06,0.00552161,-0.00202733,0.0013359,0.999393,-0.000578808,0.0348206,0.00109699,0.246405,0.56734,-0.886994,35.6875,1,23897,15569286
21,1,0.999394,-0.00057022,0.0347975,0.00109656,-0.685923,-0.0687886,9.79194,-0.122272,-0.625159,0.916229,-0.00686265,-0.000693678,0.0979191,1,2.86735e-05,-1.75368e-05,1.28561e-05,0.00573471,-0.00350735,0.00257122,0.999394,-0.00057022,0.0347975,0.00109656,0.24453,0.565874,-0.886008,35.6875,1,23898,15569386
21,2,0.999394,-0.00057022,0.0347975,0.00109656,-0.685923,-0.0687886,9.79194,-0.122272,-0.625159,0.916229,-0.00686265,-0.000693678,0.0979191,1,2.86735e-05,-1.75368e-05,1.28561e-05,0.00573471,-0.00350735,0.00257122,0.999394,-0.00057022,0.0347975,0.00109656,0.24453,0.565874,-0.886008,35.6875,1,23898,15569386
21,3,0.999394,-0.00057022,0.0347975,0.00109656,-0.685923,-0.0687886,9.79194,-0.122272,-0.625159,0.916229,-0.00686265,-0.000693678,0.0979191,1,2.86735e-05,-1.75368e-05,1.28561e-05,0.00573471,-0.00350735,0.00257122,0.999394,-0.00057022,0.0347975,0.00109656,0.24453,0.565874,-0.886008,35.6875,1,23898,15569386
21,4,0.999394,-0.000538888,0.0347851,0.00111801,-0.683901,-0.0747877,9.79017,-0.122412,-0.635244,0.911802,-0.00684068,-0.000756519,0.0979015,1,4.39622e-05,-8.54379e-06,2.48101e-06,0.00879243,-0.00170876,0.000496202,0.999394,-0.000538888,0.0347851,0.00111801,0.24506,0.565834,-0.883991,35.6875,1,23899,15569486
22,1,0.999394,-0.000538888,0.0347851,0.00111801,-0.683901,-0.0747877,9.79017,-0.122412,-0.635244,0.911802,-0.00684068,-0.000756519,0.0979015,1,4.39622e-05,-8.54379e-06,2.48101e-06,0.00879243,-0.00170876,0.000496202,0.999394,-0.000538888,0.0347851,0.00111801,0.24506,0.565834,-0.883991,35.6875,1,23899,15569486
22,2,0.999394,-0.000538888,0.0347851,0.00111801,-0.683901,-0.0747877,9.79017,-0.122412,-0.635244,0.911802,-0.00684068,-0.000756519,0.0979015,1,4.39622e-05,-8.54379e-06,2.48101e-06,0.00879243,-0.00170876,0.000496202,0.999394,-0.000538888,0.0347851,0.00111801,0.24506,0.565834,-0.883991,35.6875,1,23899,15569486
22,3,0.999394,-0.000500304,0.0347724,0.00115801,-0.683981,-0.0770053,9.77523,-0.119021,-0.633742,0.897137,-0.00684196,-0.000779506,0.0977521,1,4.6527e-05,-1.12371e-05,2.61144e-05,0.0093054,-0.00224742,0.00522288,0.999394,-0.000500304,0.0347724,0.00115801,0.246993,0.566776,-0.882969,35.6875,1,23900,15569586
22,4,0.999394,-0.000500304,0.0347724,0.00115801,-0.683981,-0.0770053,9.77523,-0.119021,-0.633742,0.897137,-0.00684196,-0.000779506,0.0977521,1,4.6527e-05,-1.12371e-05,2.61144e-05,0.0093054,-0.00224742,0.00522288,0.999394,-0.000500304,0.0347724,0.00115801,0.246993,0.566776,-0.882969,35.6875,1,23900,15569586
23,1,0.999394,-0.000500304,0.0347724,0.00115801,-0.683981,-0.0770053,9.77523,-0.119021,-0.633742,0.897137,-0.00684196,-0.000779506,0.0977521,1,4.6527e-05,-1.12371e-05,2.61144e-05,0.0093054,-0.00224742,0.00522288,0.999394,-0.000500304,0.0347724,0.00115801,0.246993,0.566776,-0.882969,35.6875,1,23900,15569586
23,2,0.999395,-0.000478089,0.0347651,0.00114927,-0.683648,-0.0754392,9.7749,-0.121878,-0.628831,0.89929,-0.00683798,-0.000760754,0.0977489,1,3.26987e-05,-7.64431e-06,-2.22966e-06,0.00653974,-0.00152886,-0.000445932,0.999395,-0.000478089,0.0347651,0.00114927,0.247935,0.567265,-0.883468,35.6875,1,23901,15569686
23,3,0.999395,-0.000478089,0.0347651,0.00114927,-0.683648,-0.0754392,9.7749,-0.121878,-0.628831,0.89929,-0.00683798,-0.000760754,0.0977489,1,3.26987e-05,-7.64431e-06,-2.22966e-06,0.00653974,-0.00152886,-0.000445932,0.999395,-0.000478089,0.0347651,0.00114927,0.247935,0.567265,-0.883468,35.6875,1,23901,15569686
23,4,0.999395,-0.000478089,0.0347651,0.00114927,-0.683648,-0.0754392,9.7749,-0.121878,-0.628831,0.89929,-0.00683798,-0.000760754,0.0977489,1,3.26987e-05,-7.64431e-06,-2.22966e-06,0.00653974,-0.00152886,-0.000445932,0.999395,-0.000478089,0.0347651,0.00114927,0.247935,0.567265,-0.883468,35.6875,1,23901,15569686
24,1,0.999395,-0.000442684,0.0347609,0.00114183,-0.684611,-0.0795263,9.78505,-0.119596,-0.638792,0.904163,-0.00684688,-0.000804959,0.0978503,1,4.89802e-05,-4.01756e-06,8.05587e-06,0.00979603,-0.000803513,0.00161117,0.999395,-0.000442684,0.0347609,0.00114183,0.247865,0.567797,-0.885981,35.6875,1,23902,15569786
24,2,0.999395,-0.000442684,0.0347609,0.00114183,-0.684611,-0.0795263,9.78505,-0.119596,-0.638792,0.904163,-0.00684688,-0.000804959,0.0978503,1,4.89802e-05,-4.01756e-06,8.05587e-06,0.00979603,-0.000803513,0.00161117,0.999395,-0.000442684,0.0347609,0.00114183,0.247865,0.567797,-0.885981,35.6875,1,23902,15569786
24,3,0.999395,-0.000442684,0.0347609,0.00114183,-0.684611,-0.0795263,9.78505,-0.119596,-0.638792,0.904163,-0.00684688,-0.000804959,0.0978503,1,4.89802e-05,-4.01756e-06,8.05587e-06,0.00979603,-0.000803513,0.00161117,0.999395,-0.000442684,0.0347609,0.00114183,0.247865,0.567797,-0.885981,35.6875,1,23902,15569786
24,4,0.999395,-0.000430678,0.0347557,0.00114425,-0.685737,-0.0667041,9.79025,-0.126905,-0.624723,0.917483,-0.00685786,-0.000673386,0.0979024,1,3.08435e-05,-2.65617e-06,2.22829e-05,0.0061687,-0.000531234,0.00445657,0.999395,-0.000430678,0.0347557,0.00114425,0.246417,0.565886,-0.887532,35.6875,1,23903,15569886
25,1,0.999395,-0.000430678,0.0347557,0.00114425,-0.685737,-0.0667041,9.79025,-0.126905,-0.624723,0.917483,-0.00685786,-0.000673386,0.0979024,1,3.08435e-05,-2.65617e-06,2.22829e-05,0.0061687,-0.000531234,0.00445657,0.999395,-0.000430678,0.0347557,0.00114425,0.246417,0.565886,-0.887532,35.6875,1,23903,15569886
25,2,0.999395,-0.000430678,0.0347557,0.00114425,-0.685737,-0.0667041,9.79025,-0.126905,-0.624723,0.917483,-0.00685786,-0.000673386,0.0979024,1,3.08435e-05,-2.65617e-06,2.22829e-05,0.0061687,-0.000531234,0.00445657,0.999395,-0.000430678,0.0347557,0.00114425,0.246417,0.565886,-0.887532,35.6875,1,23903,15569886
25,3,0.999395,-0.000403937,0.0347546,0.00115024,-0.687743,-0.0768388,9.79017,-0.126307,-0.636883,0.914935,-0.00687691,-0.000777521,0.0979017,1,4.60446e-05,2.59837e-06,8.53842e-06,0.00920892,0.000519674,0.00170769,0.999395,-0.000403937,0.0347546,0.00115024,0.246487,0.565353,-0.885019,35.6875,1,23904,15569986
25,4,0.999395,-0.000403937,0.0347546,0.00115024,-0.687743,-0.0768388,9.79017,-0.126307,-0.636883,0.914935,-0.00687691,-0.000777521,0.0979017,1,4.60446e-05,2.59837e-06,8.53842e-06,0.00920892,0.000519674,0.00170769,0.999395,-0.000403937,0.0347546,0.00115024,0.246487,0.565353,-0.885019,35.6875,1,23904,15569986
26,1,0.999395,-0.000403937,0.0347546,0.00115024,-0.687743,-0.0768388,9.79017,-0.126307,-0.636883,0.914935,-0.00687691,-0.000777521,0.0979017,1,4.60446e-05,2.59837e-06,8.53842e-06,0.00920892,0.000519674,0.00170769,0.999395,-0.000403937,0.0347546,0.00115024,0.246487,0.565353,-0.885019,35.6875,1,23904,15569986
26,2,0.999395,-0.000376302,0.034749,0.00115948,-0.677446,-0.0764083,9.79249,-0.115358,-0.634514,0.913005,-0.0067752,-0.000772121,0.0979248,1,4.05964e-05,-3.82572e-06,6.45409e-06,0.00811927,-0.000765145,0.00129082,0.999395,-0.000376302,0.034749,0.00115948,0.247017,0.565313,-0.883002,35.6875,1,23905,15570086
26,3,0.999395,-0.000376302,0.034749,0.00115948,-0.677446,-0.0764083,9.79249,-0.115358,-0.634514,0.913005,-0.0067752,-0.000772121,0.0979248,1,4.05964e-05,-3.82572e-06,6.45409e-06,0.00811927,-0.000765145,0.00129082,0.999395,-0.000376302,0.034749,0.00115948,0.247017,0.565313,-0.883002,35.6875,1,23905,15570086
26,4,0.999395,-0.000376302,0.034749,0.00115948,-0.677446,-0.0764083,9.79249,-0.115358,-0.634514,0.913005,-0.0067752,-0.000772121,0.0979248,1,4.05964e-05,-3.82572e-06,6.45409e-06,0.00811927,-0.000765145,0.00129082,0.999395,-0.000376302,0.034749,0.00115948,0.247017,0.565313,-0.883002,35.6875,1,23905,15570086
27,1,0.999396,-0.000355203,0.0347325,0.001174,-0.681139,-0.0748504,9.78609,-0.120971,-0.635203,0.90913,-0.00681449,-0.000754764,0.0978606,1,3.10056e-05,-1.59889e-05,1.40984e-05,0.00620112,-0.00319778,0.00281967,0.999396,-0.000355203,0.0347325,0.001174,0.245566,0.565812,-0.882984,35.6875,1,23906,15570186
27,2,0.999396,-0.000355203,0.0347325,0.001174,-0.681139,-0.0748504,9.78609,-0.120971,-0.635203,0.90913,-0.00681449,-0.000754764,0.0978606,1,3.10056e-05,-1.59889e-05,1.40984e-05,0.00620112,-0.00319778,0.00281967,0.999396,-0.000355203,0.0347325,0.001174,0.245566,0.565812,-0.882984,35.6875,1,23906,15570186
27,3,0.999396,-0.000355203,0.0347325,0.001174,-0.681139,-0.0748504,9.78609,-0.120971,-0.635203,0.90913,-0.00681449,-0.000754764,0.0978606,1,3.10056e-05,-1.59889e-05,1.40984e-05,0.00620112,-0.00319778,0.00281967,0.999396,-0.000355203,0.0347325,0.001174,0.245566,0.565812,-0.882984,35.6875,1,23906,15570186
27,4,0.999396,-0.000323867,0.0347166,0.00119817,-0.686537,-0.0726769,9.78547,-0.12164,-0.63384,0.907431,-0.00686811,-0.000735548,0.0978545,1,4.34891e-05,-1.41414e-05,1.94718e-05,0.00869783,-0.00282829,0.00389436,0.999396,-0.000323867,0.0347166,0.00119817,0.246524,0.565326,-0.883504,35.6875,1,23907,15570286
28,1,0.999396,-0.000323867,0.0347166,0.00119817,-0.686537,-0.0726769,9.78547,-0.12164,-0.63384,0.907431,-0.00686811,-0.000735548,0.0978545,1,4.34891e-05,-1.41414e-05,1.94718e-05,0.00869783,-0.00282829,0.00389436,0.999396,-0.000323867,0.0347166,0.00119817,0.246524,0.565326,-0.883504,35.6875,1,23907,15570286
28,2,0.999396,-0.000323867,0.0347166,0.00119817,-0.686537,-0.0726769,9.78547,-0.12164,-0.63384,0.907431,-0.00686811,-0.000735548,0.0978545,1,4.34891e-05,-1.41414e-05,1.94718e-05,0.00869783,-0.00282829,0.00389436,0.999396,-0.000323867,0.0347166,0.00119817,0.246524,0.565326,-0.883504,35.6875,1,23907,15570286
28,3,0.999397,-0.00029124,0.034693,0.00120604,-0.687027,-0.0892322,9.78974,-0.123593,-0.65396,0.912772,-0.00687459,-0.000901602,0.0978971,1,4.66332e-05,-2.21806e-05,1.09054e-05,0.00932663,-0.00443612,0.00218107,0.999397,-0.00029124,0.034693,0.00120604,0.24886,0.565838,-0.886029,35.6875,1,23908,15570386
28,4,0.999397,-0.00029124,0.034693,0.00120604,-0.687027,-0.0892322,9.78974,-0.123593,-0.65396,0.912772,-0.00687459,-0.000901602,0.0978971,1,4.66332e-05,-2.21806e-05,1.09054e-05,0.00932663,-0.00443612,0.00218107,0.999397,-0.00029124,0.034693,0.00120604,0.24886,0.565838,-0.886029,35.6875,1,23908,15570386
29,1,0.999397,-0.00029124,0.034693,0.00120604,-0.687027,-0.0892322,9.78974,-0.123593,-0.65396,0.912772,-0.00687459,-0.000901602,0.0978971,1,4.66332e-05,-2.21806e-05,1.09054e-05,0.00932663,-0.00443612,0.00218107,0.999397,-0.00029124,0.034693,0.00120604,0.24886,0.565838,-0.886029,35.6875,1,23908,15570386
29,2,0.999398,-0.000256933,0.0346804,0.00120066,-0.688588,-0.0821817,9.7854,-0.125275,-0.643531,0.906957,-0.00688814,-0.000832495,0.0978537,1,5.35604e-05,-1.17011e-05,1.42286e-05,0.0107121,-0.00234022,0.00284573,0.999398,-0.000256933,0.0346804,0.00120066,0.249805,0.565361,-0.887054,35.6875,1,23909,15570486
29,3,0.999398,-0.000256933,0.0346804,0.00120066,-0.688588,-0.0821817,9.7854,-0.125275,-0.643531,0.906957,-0.00688814,-0.000832495,0.0978537,1,5.35604e-05,-1.17011e-05,1.42286e-05,0.0107121,-0.00234022,0.00284573,0.999398,-0.000256933,0.0346804,0.00120066,0.249805,0.565361,-0.887054,35.6875,1,23909,15570486
29,4,0.999398,-0.000256933,0.0346804,0.00120066,-0.688588,-0.0821817,9.7854,-0.125275,-0.643531,0.906957,-0.00688814,-0.000832495,0.0978537,1,5.35604e-05,-1.17011e-05,1.42286e-05,0.0107121,-0.00234022,0.00284573,0.999398,-0.000256933,0.0346804,0.00120066,0.249805,0.565361,-0.887054,35.6875,1,23909,15570486
30,1,0.999398,-0.000231236,0.0346712,0.00118751,-0.695855,-0.0768428,9.78751,-0.135075,-0.637076,0.912715,-0.00696015,-0.000777764,0.0978749,1,4.68566e-05,-8.25003e-06,1.17368e-05,0.00937131,-0.00165001,0.00234736,0.999398,-0.000231236,0.0346712,0.00118751,0.24552,0.564882,-0.88553,35.6875,1,23910,15570586
30,2,0.999398,-0.000231236,0.0346712,0.00118751,-0.695855,-0.0768428,9.78751,-0.135075,-0.637076,0.912715,-0.00696015,-0.000777764,0.0978749,1,4.68566e-05,-8.25003e-06,1.17368e-05,0.00937131,-0.00165001,0.00234736,0.999398,-0.000231236,0.0346712,0.00118751,0.24552,0.564882,-0.88553,35.6875,1,23910,15570586
30,3,0.999398,-0.000231236,0.0346712,0.00118751,-0.695855,-0.0768428,9.78751,-0.135075,-0.637076,0.912715,-0.00696015,-0.000777764,0.0978749,1,4.68566e-05,-8.25003e-06,1.17368e-05,0.00937131,-0.00165001,0.00234736,0.999398,-0.000231236,0.0346712,0.00118751,0.24552,0.564882,-0.88553,35.6875,1,23910,15570586
30,4,0.999399,-0.000211744,0.0346577,0.00121392,-0.679078,-0.0707438,9.79832,-0.117538,-0.63606,0.924345,-0.00679287,-0.000714508,0.097983,1,3.51183e-05,-1.0781e-05,1.38655e-05,0.00702366,-0.0021562,0.0027731,0.999399,-0.000211744,0.0346577,0.00121392,0.245586,0.56387,-0.883532,35.6875,1,23911,15570686
31,1,0.999399,-0.000211744,0.0346577,0.00121392,-0.679078,-0.0707438,9.79832,-0.117538,-0.63606,0.924345,-0.00679287,-0.000714508,0.097983,1,3.51183e-05,-1.0781e-05,1.38655e-05,0.00702366,-0.0021562,0.0027731,0.999399,-0.000211744,0.0346577,0.00121392,0.245586,0.56387,-0.883532,35.6875,1,23911,15570686
31,2,0.999399,-0.000211744,0.0346577,0.00121392,-0.679078,-0.0707438,9.79832,-0.117538,-0.63606,0.924345,-0.00679287,-0.000714508,0.097983,1,3.51183e-05,-1.0781e-05,1.38655e-05,0.00702366,-0.0021562,0.0027731,0.999399,-0.000211744,0.0346577,0.00121392,0.245586,0.56387,-0.883532,35.6875,1,23911,15570686
31,3,0.999399,-0.000162705,0.0346577,0.00123224,-0.677732,-0.0739908,9.79998,-0.112554,-0.639418,0.920818,-0.00677703,-0.00075197,0.0979997,1,6.0983e-05,1.41567e-06,8.06665e-06,0.0121966,0.000283134,0.00161333,0.999399,-0.000162705,0.0346577,0.00123224,0.247457,0.564857,-0.885034,35.6875,1,23912,15570786
31,4,0.999399,-0.000162705,0.0346577,0.00123224,-0.677732,-0.0739908,9.79998,-0.112554,-0.639418,0.920818,-0.00677703,-0.00075197,0.0979997,1,6.0983e-05,1.41567e-06,8.06665e-06,0.0121966,0.000283134,0.00161333,0.999399,-0.000162705,0.0346577,0.00123224,0.247457,0.564857,-0.885034,35.6875,1,23912,15570786
32,1,0.999399,-0.000162705,0.0346577,0.00123224,-0.677732,-0.0739908,9.79998,-0.112554,-0.639418,0.920818,-0.00677703,-0.00075197,0.0979997,1,6.0983e-05,1.41567e-06,8.06665e-06,0.0121966,0.000283134,0.00161333,0.999399,-0.000162705,0.0346577,0.00123224,0.247457,0.564857,-0.885034,35.6875,1,23912,15570786
32,2,0.999399,-0.000146153,0.0346538,0.00123704,-0.686955,-0.0933367,9.78359,-0.122832,-0.658515,0.903417,-0.0068701,-0.000940149,0.0978358,1,3.37027e-05,-2.92986e-06,1.3618e-05,0.00674053,-0.000585973,0.00272359,0.999399,-0.000146153,0.0346538,0.00123704,0.24745,0.56679,-0.883981,35.6875,1,23913,15570886
32,3,0.999399,-0.000146153,0.0346538,0.00123704,-0.686955,-0.0933367,9.78359,-0.122832,-0.658515,0.903417,-0.0068701,-0.000940149,0.0978358,1,3.37027e-05,-2.92986e-06,1.3618e-05,0.00674053,-0.000585973,0.00272359,0.999399,-0.000146153,0.0346538,0.00123704,0.24745,0.56679,-0.883981,35.6875,1,23913,15570886
32,4,0.999399,-0.000146153,0.0346538,0.00123704,-0.686955,-0.0933367,9.78359,-0.122832,-0.658515,0.903417,-0.0068701,-0.000940149,0.0978358,1,3.37027e-05,-2.92986e-06,1.3618e-05,0.00674053,-0.000585973,0.00272359,0.999399,-0.000146153,0.0346538,0.00123704,0.24745,0.56679,-0.883981,35.6875,1,23913,15570886
33,1,0.999399,-0.000129649,0.034632,0.00123479,-0.685901,-0.0676595,9.7872,-0.126339,-0.632356,0.908723,-0.00686312,-0.000683341,0.0978717,1,3.40641e-05,-2.10217e-05,5.70165e-06,0.00681282,-0.00420433,0.00114033,0.999399,-0.000129649,0.034632,0.00123479,0.247409,0.567783,-0.884969,35.6875,1,23914,15570986
33,2,0.999399,-0.000129649,0.034632,0.00123479,-0.685901,-0.0676595,9.7872,-0.126339,-0.632356,0.908723,-0.00686312,-0.000683341,0.0978717,1,3.40641e-05,-2.10217e-05,5.70165e-06,0.00681282,-0.00420433,0.00114033,0.999399,-0.000129649,0.034632,0.00123479,0.247409,0.567783,-0.884969,35.6875,1,23914,15570986
33,3,0.999399,-0.000129649,0.034632,0.00123479,-0.685901,-0.0676595,9.7872,-0.126339,-0.632356,0.908723,-0.00686312,-0.000683341,0.0978717,1,3.40641e-05,-2.10217e-05,5.70165e-06,0.00681282,-0.00420433,0.00114033,0.999399,-0.000129649,0.034632,0.00123479,0.247409,0.567783,-0.884969,35.6875,1,23914,15570986
33,4,0.9994,-0.00012185,0.034616,0.00124477,-0.683868,-0.0776046,9.77896,-0.126154,-0.644403,0.903323,-0.00684153,-0.000781897,0.0977894,1,2.84278e-05,-1.47485e-05,2.13141e-05,0.00568555,-0.0029497,0.00426282,0.9994,-0.00012185,0.034616,0.00124477,0.247873,0.565865,-0.887034,35.6875,1,23915,15571086
34,1,0.9994,-0.00012185,0.034616,0.00124477,-0.683868,-0.0776046,9.77896,-0.126154,-0.644403,0.903323,-0.00684153,-0.000781897,0.0977894,1,2.84278e-05,-1.47485e-05,2.13141e-05,0.00568555,-0.0029497,0.00426282,0.9994,-0.00012185,0.034616,0.00124477,0.247873,0.565865,-0.887034,35.6875,1,23915,15571086
34,2,0.9994,-0.00012185,0.034616,0.00124477,-0.683868,-0.0776046,9.77896,-0.126154,-0.644403,0.903323,-0.00684153,-0.000781897,0.0977894,1,2.84278e-05,-1.47485e-05,2.13141e-05,0.00568555,-0.0029497,0.00426282,0.9994,-0.00012185,0.034616,0.00124477,0.247873,0.565865,-0.887034,35.6875,1,23915,15571086
34,3,0.9994,-0.000114315,0.0346019,0.00125318,-0.6958,-0.0723703,9.79367,-0.134037,-0.635669,0.918619,-0.00696041,-0.000729803,0.0979364,1,2.95265e-05,-1.24762e-05,2.27225e-05,0.0059053,-0.00249524,0.0045445,0.9994,-0.000114315,0.0346019,0.00125318,0.248863,0.563427,-0.887598,35.6875,1,23916,15571186
34,4,0.9994,-0.000114315,0.0346019,0.00125318,-0.6958,-0.0723703,9.79367,-0.134037,-0.635669,0.918619,-0.00696041,-0.000729803,0.0979364,1,2.95265e-05,-1.24762e-05,2.27225e-05,0.0059053,-0.00249524,0.0045445,0.9994,-0.000114315,0.0346019,0.00125318,0.248863,0.563427,-0.887598,35.6875,1,23916,15571186
35,1,0.9994,-0.000114315,0.0346019,0.00125318,-0.6958,-0.0723703,9.79367,-0.134037,-0.635669,0.918619,-0.00696041,-0.000729803,0.0979364,1,2.95265e-05,-1.24762e-05,2.27225e-05,0.0059053,-0.00249524,0.0045445,0.9994,-0.000114315,0.0346019,0.00125318,0.248863,0.563427,-0.887598,35.6875,1,23916,15571186
35,2,0.999401,-7.90428e-05,0.0345748,0.00126293,-0.685041,-0.0737782,9.79732,-0.128335,-0.63868,0.922183,-0.00685556,-0.000748896,0.0979728,1,5.49835e-05,-2.64739e-05,2.48288e-05,0.0109967,-0.00529479,0.00496577,0.999401,-7.90428e-05,0.0345748,0.00126293,0.248387,0.565355,-0.886038,35.6875,1,23917,15571286
35,3,0.999401,-7.90428e-05,0.0345748,0.00126293,-0.685041,-0.0737782,9.79732,-0.128335,-0.63868,0.922183,-0.00685556,-0.000748896,0.0979728,1,5.49835e-05,-2.64739e-05,2.48288e-05,0.0109967,-0.00529479,0.00496577,0.999401,-7.90428e-05,0.0345748,0.00126293,0.248387,0.565355,-0.886038,35.6875,1,23917,15571286
35,4,0.999401,-7.90428e-05,0.0345748,0.00126293,-0.685041,-0.0737782,9.79732,-0.128335,-0.63868,0.922183,-0.00685556,-0.000748896,0.0979728,1,5.49835e-05,-2.64739e-05,2.48288e-05,0.0109967,-0.00529479,0.00496577,0.999401,-7.90428e-05,0.0345748,0.00126293,0.248387,0.565355,-0.886038,35.6875,1,23917,15571286
36,1,0.999402,-5.20704e-05,0.0345601,0.00125373,-0.687214,-0.07715,9.78883,-0.130599,-0.645408,0.915025,-0.00687489,-0.000780658,0.097888,1,4.6432e-05,-1.40594e-05,4.97313e-06,0.0092864,-0.00281188,0.000994625,0.999402,-5.20704e-05,0.0345601,0.00125373,0.246956,0.566803,-0.884484,35.6875,1,23918,15571386
36,2,0.999402,-5.20704e-05,0.0345601,0.00125373,-0.687214,-0.07715,9.78883,-0.130599,-0.645408,0.915025,-0.00687489,-0.000780658,0.097888,1,4.6432e-05,-1.40594e-05,4.97313e-06,0.0092864,-0.00281188,0.000994625,0.999402,-5.20704e-05,0.0345601,0.00125373,0.246956,0.566803,-0.884484,35.6875,1,23918,15571386
36,3,0.999402,-5.20704e-05,0.0345601,0.00125373,-0.687214,-0.07715,9.78883,-0.130599,-0.645408,0.915025,-0.00687489,-0.000780658,0.097888,1,4.6432e-05,-1.40594e-05,4.97313e-06,0.0092864,-0.00281188,0.000994625,0.999402,-5.20704e-05,0.0345601,0.00125373,0.246956,0.566803,-0.884484,35.6875,1,23918,15571386
36,4,0.999402,-2.39511e-05,0.0345555,0.00125644,-0.685011,-0.0750347,9.78916,-0.126627,-0.642975,0.909991,-0.00685075,-0.000759306,0.0978914,1,4.52828e-05,-3.29478e-06,6.85285e-06,0.00905655,-0.000658955,0.00137057,0.999402,-2.39511e-05,0.0345555,0.00125644,0.247926,0.566307,-0.884499,35.6875,1,23919,15571486
37,1,0.999402,-2.39511e-05,0.0345555,0.00125644,-0.685011,-0.0750347,9.78916,-0.126627,-0.642975,0.909991,-0.00685075,-0.000759306,0.0978914,1,4.52828e-05,-3.29478e-06,6.85285e-06,0.00905655,-0.000658955,0.00137057,0.999402,-2.39511e-05,0.0345555,0.00125644,0.247926,0.566307,-0.884499,35.6875,1,23919,15571486
37,2,0.999402,-2.39511e-05,0.0345555,0.00125644,-0.685011,-0.0750347,9.78916,-0.126627,-0.642975,0.909991,-0.00685075,-0.000759306,0.0978914,1,4.52828e-05,-3.29478e-06,6.85285e-06,0.00905655,-0.000658955,0.00137057,0.999402,-2.39511e-05,0.0345555,0.00125644,0.247926,0.566307,-0.884499,35.6875,1,23919,15571486
37,3,0.999402,-5.56282e-06,0.0345482,0.001244,-0.683588,-0.0674394,9.7899,-0.125277,-0.63272,0.911219,-0.00683728,-0.000681473,0.0978989,1,3.62806e-05,-7.13392e-06,-1.83683e-06,0.00725612,-0.00142678,-0.000367366,0.999402,-5.56282e-06,0.0345482,0.001244,0.247413,0.566817,-0.885496,35.6875,1,23920,15571586
37,4,0.999402,-5.56282e-06,0.0345482,0.001244,-0.683588,-0.0674394,9.7899,-0.125277,-0.63272,0.911219,-0.00683728,-0.000681473,0.0978989,1,3.62806e-05,-7.13392e-06,-1.83683e-06,0.00725612,-0.00142678,-0.000367366,0.999402,-5.56282e-06,0.0345482,0.001244,0.247413,0.566817,-0.885496,35.6875,1,23920,15571586
38,1,0.999402,-5.56282e-06,0.0345482,0.001244,-0.683588,-0.0674394,9.7899,-0.125277,-0.63272,0.911219,-0.00683728,-0.000681473,0.0978989,1,3.62806e-05,-7.13392e-06,-1.83683e-06,0.00725612,-0.00142678,-0.000367366,0.999402,-5.56282e-06,0.0345482,0.001244,0.247413,0.566817,-0.885496,35.6875,1,23920,15571586
38,2,0.999402,1.47506e-05,0.034545,0.00123575,-0.691377,-0.0837568,9.7898,-0.135815,-0.655226,0.91469,-0.00691416,-0.000845653,0.0978979,1,4.12092e-05,-2.00237e-06,1.23122e-06,0.00824184,-0.000400473,0.000246243,0.999402,1.47506e-05,0.034545,0.00123575,0.248876,0.564863,-0.886051,35.6875,1,23921,15571686
38,3,0.999402,1.47506e-05,0.034545,0.00123575,-0.691377,-0.0837568,9.7898,-0.135815,-0.655226,0.91469,-0.00691416,-0.000845653,0.0978979,1,4.12092e-05,-2.00237e-06,1.23122e-06,0.00824184,-0.000400473,0.000246243,0.999402,1.47506e-05,0.034545,0.00123575,0.248876,0.564863,-0.886051,35.6875,1,23921,15571686
38,4,0.999402,1.47506e-05,0.034545,0.00123575,-0.691377,-0.0837568,9.7898,-0.135815,-0.655226,0.91469,-0.00691416,-0.000845653,0.0978979,1,4.12092e-05,-2.00237e-06,1.23122e-06,0.00824184,-0.000400473,0.000246243,0.999402,1.47506e-05,0.034545,0.00123575,0.248876,0.564863,-0.886051,35.6875,1,23921,15571686
39,1,0.999403,2.21795e-05,0.0345314,0.00123333,-0.678061,-0.076204,9.78673,-0.120372,-0.64315,0.909116,-0.00678323,-0.00076748,0.0978671,1,2.69766e-05,-1.34857e-05,1.18352e-05,0.00539533,-0.00269714,0.00236705,0.999403,2.21795e-05,0.0345314,0.00123333,0.247914,0.566316,-0.885004,35.6875,1,23922,15571786
39,2,0.999403,2.21795e-05,0.0345314,0.00123333,-0.678061,-0.076204,9.78673,-0.120372,-0.64315,0.909116,-0.00678323,-0.00076748,0.0978671,1,2.69766e-05,-1.34857e-05,1.18352e-05,0.00539533,-0.00269714,0.00236705,0.999403,2.21795e-05,0.0345314,0.00123333,0.247914,0.566316,-0.885004,35.6875,1,23922,15571786
39,3,0.999403,2.21795e-05,0.0345314,0.00123333,-0.678061,-0.076204,9.78673,-0.120372,-0.64315,0.909116,-0.00678323,-0.00076748,0.0978671,1,2.69766e-05,-1.34857e-05,1.18352e-05,0.00539533,-0.00269714,0.00236705,0.999403,2.21795e-05,0.0345314,0.00123333,0.247914,0.566316,-0.885004,35.6875,1,23922,15571786
39,4,0.999403,4.89014e-05,0.034533,0.0012313,-0.691972,-0.0645064,9.78013,-0.140118,-0.6378,0.904562,-0.00691936,-0.000654097,0.0978013,1,4.55789e-05,1.78613e-06,8.45453e-06,0.00911579,0.000357225,0.00169091,0.999403,4.89014e-05,0.034533,0.0012313,0.246055,0.565321,-0.882997,35.6875,1,23923,15571886
40,1,0.999403,4.89014e-05,0.034533,0.0012313,-0.691972,-0.0645064,9.78013,-0.140118,-0.6378,0.904562,-0.00691936,-0.000654097,0.0978013,1,4.55789e-05,1.78613e-06,8.45453e-06,0.00911579,0.000357225,0.00169091,0.999403,4.89014e-05,0.034533,0.0012313,0.246055,0.565321,-0.882997,35.6875,1,23923,15571886
40,2,0.999403,4.89014e-05,0.034533,0.0012313,-0.691972,-0.0645064,9.78013,-0.140118,-0.6378,0.904562,-0.00691936,-0.000654097,0.0978013,1,4.55789e-05,1.78613e-06,8.45453e-06,0.00911579,0.000357225,0.00169091,0.999403,4.89014e-05,0.034533,0.0012313,0.246055,0.565321,-0.882997,35.6875,1,23923,15571886
40,3,0.999403,8.3068e-05,0.0345293,0.00126638,-0.68098,-0.0722428,9.78474,-0.123237,-0.641617,0.906549,-0.00681038,-0.000731835,0.0978473,1,4.66164e-05,-3.10838e-06,2.0927e-05,0.00932327,-0.000621676,0.00418539,0.999403,8.3068e-05,0.0345293,0.00126638,0.247478,0.56436,-0.88454,35.6875,1,23924,15571986
40,4,0.999403,8.3068e-05,0.0345293,0.00126638,-0.68098,-0.0722428,9.78474,-0.123237,-0.641617,0.906549,-0.00681038,-0.000731835,0.0978473,1,4.66164e-05,-3.10838e-06,2.0927e-05,0.00932327,-0.000621676,0.00418539,0.999403,8.3068e-05,0.0345293,0.00126638,0.247478,0.56436,-0.88454,35.6875,1,23924,15571986
41,1,0.999403,8.3068e-05,0.0345293,0.00126638,-0.68098,-0.0722428,9.78474,-0.123237,-0.641617,0.906549,-0.00681038,-0.000731835,0.0978473,1,4.66164e-05,-3.10838e-06,2.0927e-05,0.00932327,-0.000621676,0.00418539,0.999403,8.3068e-05,0.0345293,0.00126638,0.247478,0.56436,-0.88454,35.6875,1,23924,15571986
41,2,0.999403,0.000105786,0.0345252,0.00127409,-0.685019,-0.0795799,9.7864,-0.126688,-0.648774,0.903281,-0.0068509,-0.000803785,0.0978639,1,4.00896e-05,-3.74777e-06,1.02262e-05,0.00801793,-0.000749554,0.00204524,0.999403,0.000105786,0.0345252,0.00127409,0.246927,0.566342,-0.886009,35.6875,1,23925,15572086
41,3,0.999403,0.000105786,0.0345252,0.00127409,-0.685019,-0.0795799,9.7864,-0.126688,-0.648774,0.903281,-0.0068509,-0.000803785,0.0978639,1,4.00896e-05,-3.74777e-06,1.02262e-05,0.00801793,-0.000749554,0.00204524,0.999403,0.000105786,0.0345252,0.00127409,0.246927,0.566342,-0.886009,35.6875,1,23925,15572086
41,4,0.999403,0.000105786,0.0345252,0.00127409,-0.685019,-0.0795799,9.7864,-0.126688,-0.648774,0.903281,-0.0068509,-0.000803785,0.0978639,1,4.00896e-05,-3.74777e-06,1.02262e-05,0.00801793,-0.000749554,0.00204524,0.999403,0.000105786,0.0345252,0.00127409,0.246927,0.566342,-0.886009,35.6875,1,23925,15572086
42,1,0.999404,0.000135695,0.034508,0.00127586,-0.688875,-0.0828115,9.78777,-0.130804,-0.651836,0.909608,-0.00689195,-0.000838553,0.0978774,1,5.27371e-05,-1.63763e-05,8.30756e-06,0.0105474,-0.00327526,0.00166151,0.999404,0.000135695,0.034508,0.00127586,0.245423,0.567845,-0.887484,35.6875,1,23926,15572186
42,2,0.999404,0.000135695,0.034508,0.00127586,-0.688875,-0.0828115,9.78777,-0.130804,-0.651836,0.909608,-0.00689195,-0.000838553,0.0978774,1,5.27371e-05,-1.63763e-05,8.30756e-06,0.0105474,-0.00327526,0.00166151,0.999404,0.000135695,0.034508,0.00127586,0.245423,0.567845,-0.887484,35.6875,1,23926,15572186
42,3,0.999404,0.000135695,0.034508,0.00127586,-0.688875,-0.0828115,9.78777,-0.130804,-0.651836,0.909608,-0.00689195,-0.000838553,0.0978774,1,5.27371e-05,-1.63763e-05,8.30756e-06,0.0105474,-0.00327526,0.00166151,0.999404,0.000135695,0.034508,0.00127586,0.245423,0.567845,-0.887484,35.6875,1,23926,15572186
42,4,0.999403,0.000158917,0.0345155,0.00129052,-0.674631,-0.0718728,9.78673,-0.114573,-0.640382,0.907109,-0.00674447,-0.00072868,0.0978674,1,4.98183e-05,9.31665e-06,1.49534e-05,0.00996366,0.00186333,0.00299068,0.999403,0.000158917,0.0345155,0.00129052,0.245443,0.565903,-0.888032,35.6875,1,23927,15572286
43,1,0.999403,0.000158917,0.0345155,0.00129052,-0.674631,-0.0718728,9.78673,-0.114573,-0.640382,0.907109,-0.00674447,-0.00072868,0.0978674,1,4.98183e-05,9.31665e-06,1.49534e-05,0.00996366,0.00186333,0.00299068,0.999403,0.000158917,0.0345155,0.00129052,0.245443,0.565903,-0.888032,35.6875,1,23927,15572286
43,2,0.999403,0.000158917,0.0345155,0.00129052,-0.674631,-0.0718728,9.78673,-0.114573,-0.640382,0.907109,-0.00674447,-0.00072868,0.0978674,1,4.98183e-05,9.31665e-06,1.49534e-05,0.00996366,0.00186333,0.00299068,0.999403,0.000158917,0.0345155,0.00129052,0.245443,0.565903,-0.888032,35.6875,1,23927,15572286
43,3,0.999403,0.000170994,0.0345099,0.00131162,-0.694499,-0.0772987,9.777,-0.140353,-0.649114,0.90016,-0.00694564,-0.000780344,0.0977699,1,3.63515e-05,-3.4929e-06,1.78495e-05,0.00727029,-0.000698581,0.0035699,0.999403,0.000170994,0.0345099,0.00131162,0.245944,0.565402,-0.88754,35.6875,1,23928,15572386
43,4,0.999403,0.000170994,0.0345099,0.00131162,-0.694499,-0.0772987,9.777,-0.140353,-0.649114,0.90016,-0.00694564,-0.000780344,0.0977699,1,3.63515e-05,-3.4929e-06,1.78495e-05,0.00727029,-0.000698581,0.0035699,0.999403,0.000170994,0.0345099,0.00131162,0.245944,0.565402,-0.88754,35.6875,1,23928,15572386
44,1,0.999403,0.000170994,0.0345099,0.00131162,-0.694499,-0.0772987,9.777,-0.140353,-0.649114,0.90016,-0.00694564,-0.000780344,0.0977699,1,3.63515e-05,-3.4929e-06,1.78495e-05,0.00727029,-0.000698581,0.0035699,0.999403,0.000170994,0.0345099,0.00131162,0.245944,0.565402,-0.88754,35.6875,1,23928,15572386
44,2,0.999404,0.000193252,0.0344991,0.00133046,-0.686547,-0.0846906,9.78875,-0.133819,-0.656453,0.910398,-0.00686749,-0.000855846,0.0978872,1,4.41707e-05,-1.05e-05,2.13124e-05,0.00883414,-0.00209999,0.00426248,0.999404,0.000193252,0.0344991,0.00133046,0.248427,0.564361,-0.88505,35.6875,1,23929,15572486
44,3,0.999404,0.000193252,0.0344991,0.00133046,-0.686547,-0.0846906,9.78875,-0.133819,-0.656453,0.910398,-0.00686749,-0.000855846,0.0978872,1,4.41707e-05,-1.05e-05,2.13124e-05,0.00883414,-0.00209999,0.00426248,0.999404,0.000193252,0.0344991,0.00133046,0.248427,0.564361,-0.88505,35.6875,1,23929,15572486
44,4,0.999404,0.000193252,0.0344991,0.00133046,-0.686547,-0.0846906,9.78875,-0.133819,-0.656453,0.910398,-0.00686749,-0.000855846,0.0978872,1,4.41707e-05,-1.05e-05,2.13124e-05,0.00883414,-0.00209999,0.00426248,0.999404,0.000193252,0.0344991,0.00133046,0.248427,0.564361,-0.88505,35.6875,1,23929,15572486
45,1,0.999404,0.000219459,0.034493,0.00131637,-0.678891,-0.0740422,9.78099,-0.121254,-0.643767,0.905308,-0.0067903,-0.000748723,0.0978097,1,4.2215e-05,-7.11139e-06,3.15159e-06,0.008443,-0.00142228,0.000630319,0.999404,0.000219459,0.034493,0.00131637,0.248473,0.563846,-0.883546,35.6875,1,23930,15572586
45,2,0.999404,0.000219459,0.034493,0.00131637,-0.678891,-0.0740422,9.78099,-0.121254,-0.643767,0.905308,-0.0067903,-0.000748723,0.0978097,1,4.2215e-05,-7.11139e-06,3.15159e-06,0.008443,-0.00142228,0.000630319,0.999404,0.000219459,0.034493,0.00131637,0.248473,0.563846,-0.883546,35.6875,1,23930,15572586
45,3,0.999404,0.000219459,0.034493,0.00131637,-0.678891,-0.0740422,9.78099,-0.121254,-0.643767,0.905308,-0.0067903,-0.000748723,0.0978097,1,4.2215e-05,-7.11139e-06,3.15159e-06,0.008443,-0.00142228,0.000630319,0.999404,0.000219459,0.034493,0.00131637,0.248473,0.563846,-0.883546,35.6875,1,23930,15572586
45,4,0.999404,0.000245539,0.0344814,0.00131648,-0.69137,-0.0683743,9.78825,-0.135902,-0.642372,0.909587,-0.00691626,-0.000691585,0.0978823,1,3.9244e-05,-1.31636e-05,1.15576e-05,0.00784881,-0.00263272,0.00231152,0.999404,0.000245539,0.0344814,0.00131648,0.248876,0.566308,-0.885009,35.6875,1,23931,15572686
46,1,0.999404,0.000245539,0.0344814,0.00131648,-0.69137,-0.0683743,9.78825,-0.135902,-0.642372,0.909587,-0.00691626,-0.000691585,0.0978823,1,3.9244e-05,-1.31636e-05,1.15576e-05,0.00784881,-0.00263272,0.00231152,0.999404,0.000245539,0.0344814,0.00131648,0.248876,0.566308,-0.885009,35.6875,1,23931,15572686
46,2,0.999404,0.000245539,0.0344814,0.00131648,-0.69137,-0.0683743,9.78825,-0.135902,-0.642372,0.909587,-0.00691626,-0.000691585,0.0978823,1,3.9244e-05,-1.31636e-05,1.15576e-05,0.00784881,-0.00263272,0.00231152,0.999404,0.000245539,0.0344814,0.00131648,0.248876,0.566308,-0.885009,35.6875,1,23931,15572686
46,3,0.999405,0.000270234,0.0344673,0.0013117,-0.67504,-0.0759529,9.784,-0.123369,-0.648329,0.90303,-0.00675342,-0.000768687,0.0978397,1,4.55808e-05,-1.55829e-05,1.77343e-05,0.00911615,-0.00311659,0.00354686,0.999405,0.000270234,0.0344673,0.0013117,0.246385,0.567837,-0.887488,35.6875,1,23932,15572786
46,4,0.999405,0.000270234,0.0344673,0.0013117,-0.67504,-0.0759529,9.784,-0.123369,-0.648329,0.90303,-0.00675342,-0.000768687,0.0978397,1,4.55808e-05,-1.55829e-05,1.77343e-05,0.00911615,-0.00311659,0.00354686,0.999405,0.000270234,0.0344673,0.0013117,0.246385,0.567837,-0.887488,35.6875,1,23932,15572786
47,1,0.999405,0.000270234,0.0344673,0.0013117,-0.67504,-0.0759529,9.784,-0.123369,-0.648329,0.90303,-0.00675342,-0.000768687,0.0978397,1,4.55808e-05,-1.55829e-05,1.77343e-05,0.00911615,-0.00311659,0.00354686,0.999405,0.000270234,0.0344673,0.0013117,0.246385,0.567837,-0.887488,35.6875,1,23932,15572786
47,2,0.999405,0.000286547,0.0344671,0.0013154,-0.68913,-0.0795429,9.78372,-0.134692,-0.657599,0.905054,-0.00689096,-0.000804104,0.0978371,1,4.34275e-05,1.60567e-06,1.2884e-05,0.00868551,0.000321134,0.0025768,0.999405,0.000286547,0.0344671,0.0013154,0.245463,0.566851,-0.886496,35.6875,1,23933,15572886
47,3,0.999405,0.000286547,0.0344671,0.0013154,-0.68913,-0.0795429,9.78372,-0.134692,-0.657599,0.905054,-0.00689096,-0.000804104,0.0978371,1,4.34275e-05,1.60567e-06,1.2884e-05,0.00868551,0.000321134,0.0025768,0.999405,0.000286547,0.0344671,0.0013154,0.245463,0.566851,-0.886496,35.6875,1,23933,15572886
47,4,0.999405,0.000286547,0.0344671,0.0013154,-0.68913,-0.0795429,9.78372,-0.134692,-0.657599,0.905054,-0.00689096,-0.000804104,0.0978371,1,4.34275e-05,1.60567e-06,1.2884e-05,0.00868551,0.000321134,0.0025768,0.999405,0.000286547,0.0344671,0.0013154,0.245463,0.566851,-0.886496,35.6875,1,23933,15572886
48,1,0.999404,0.000308603,0.03448,0.00132788,-0.687163,-0.0730785,9.78681,-0.130443,-0.648611,0.90722,-0.00686886,-0.000739649,0.0978682,1,4.47688e-05,1.41094e-05,7.38892e-06,0.00895376,0.00282187,0.00147778,0.999404,0.000308603,0.03448,0.00132788,0.247453,0.565823,-0.884508,35.6875,1,23934,15572986
48,2,0.999404,0.000308603,0.03448,0.00132788,-0.687163,-0.0730785,9.78681,-0.130443,-0.648611,0.90722,-0.00686886,-0.000739649,0.0978682,1,4.47688e-05,1.41094e-05,7.38892e-06,0.00895376,0.00282187,0.00147778,0.999404,0.000308603,0.03448,0.00132788,0.247453,0.565823,-0.884508,35.6875,1,23934,15572986
48,3,0.999404,0.000308603,0.03448,0.00132788,-0.687163,-0.0730785,9.78681,-0.130443,-0.648611,0.90722,-0.00686886,-0.000739649,0.0978682,1,4.47688e-05,1.41094e-05,7.38892e-06,0.00895376,0.00282187,0.00147778,0.999404,0.000308603,0.03448,0.00132788,0.247453,0.565823,-0.884508,35.6875,1,23934,15572986
48,4,0.999405,0.000327483,0.0344717,0.00132613,-0.692659,-0.0767579,9.79463,-0.132447,-0.651567,0.916708,-0.00692839,-0.000774878,0.0979461,1,3.68692e-05,-9.25917e-06,5.53002e-06,0.00737384,-0.00185183,0.001106,0.999405,0.000327483,0.0344717,0.00132613,0.247494,0.563385,-0.884562,35.6875,1,23935,15573086
49,1,0.999405,0.000327483,0.0344717,0.00132613,-0.692659,-0.0767579,9.79463,-0.132447,-0.651567,0.916708,-0.00692839,-0.000774878,0.0979461,1,3.68692e-05,-9.25917e-06,5.53002e-06,0.00737384,-0.00185183,0.001106,0.999405,0.000327483,0.0344717,0.00132613,0.247494,0.563385,-0.884562,35.6875,1,23935,15573086
49,2,0.999405,0.000327483,0.0344717,0.00132613,-0.692659,-0.0767579,9.79463,-0.132447,-0.651567,0.916708,-0.00692839,-0.000774878,0.0979461,1,3.68692e-05,-9.25917e-06,5.53002e-06,0.00737384,-0.00185183,0.001106,0.999405,0.000327483,0.0344717,0.00132613,0.247494,0.563385,-0.884562,35.6875,1,23935,15573086
49,3,0.999405,0.000366591,0.0344633,0.00133936,-0.693072,-0.076344,9.78581,-0.141186,-0.654658,0.905244,-0.00693258,-0.000774322,0.0978579,1,5.45011e-05,-9.58844e-06,1.55475e-05,0.0109002,-0.00191769,0.0031095,0.999405,0.000366591,0.0344633,0.00133936,0.246536,0.563871,-0.884042,35.6875,1,23936,15573186
49,4,0.999405,0.000366591,0.0344633,0.00133936,-0.693072,-0.076344,9.78581,-0.141186,-0.654658,0.905244,-0.00693258,-0.000774322,0.0978579,1,5.45011e-05,-9.58844e-06,1.55475e-05,0.0109002,-0.00191769,0.0031095,0.999405,0.000366591,0.0344633,0.00133936,0.246536,0.563871,-0.884042,35.6875,1,23936,15573186
50,1,0.999405,0.000366591,0.0344633,0.00133936,-0.693072,-0.076344,9.78581,-0.141186,-0.654658,0.905244,-0.00693258,-0.000774322,0.0978579,1,5.45011e-05,-9.58844e-06,1.55475e-05,0.0109002,-0.00191769,0.0031095,0.999405,0.000366591,0.0344633,0.00133936,0.246536,0.563871,-0.884042,35.6875,1,23936,15573186
50,2,0.999406,0.000402814,0.0344451,0.00136639,-0.695429,-0.0705557,9.78385,-0.14259,-0.646122,0.910008,-0.00695787,-0.000716101,0.0978382,1,5.22379e-05,-1.84679e-05,2.31882e-05,0.0104476,-0.00369357,0.00463764,0.999406,0.000402814,0.0344451,0.00136639,0.247478,0.565805,-0.883498,35.6875,1,23937,15573286
50,3,0.999406,0.000402814,0.0344451,0.00136639,-0.695429,-0.0705557,9.78385,-0.14259,-0.646122,0.910008,-0.00695787,-0.000716101,0.0978382,1,5.22379e-05,-1.84679e-05,2.31882e-05,0.0104476,-0.00369357,0.00463764,0.999406,0.000402814,0.0344451,0.00136639,0.247478,0.565805,-0.883498,35.6875,1,23937,15573286
50,4,0.999406,0.000402814,0.0344451,0.00136639,-0.695429,-0.0705557,9.78385,-0.14259,-0.646122,0.910008,-0.00695787,-0.000716101,0.0978382,1,5.22379e-05,-1.84679e-05,2.31882e-05,0.0104476,-0.00369357,0.00463764,0.999406,0.000402814,0.0344451,0.00136639,0.247478,0.565805,-0.883498,35.6875,1,23937,15573286
51,1,0.999406,0.000447778,0.0344316,0.00136507,-0.67806,-0.0720734,9.78813,-0.124852,-0.646903,0.909675,-0.00678349,-0.000733463,0.097881,1,6.44532e-05,-1.48467e-05,8.26812e-06,0.0128907,-0.00296934,0.00165362,0.999406,0.000447778,0.0344316,0.00136507,0.247388,0.566835,-0.886505,35.6875,1,23938,15573386
51,2,0.999406,0.000447778,0.0344316,0.00136507,-0.67806,-0.0720734,9.78813,-0.124852,-0.646903,0.909675,-0.00678349,-0.000733463,0.097881,1,6.44532e-05,-1.48467e-05,8.26812e-06,0.0128907,-0.00296934,0.00165362,0.999406,0.000447778,0.0344316,0.00136507,0.247388,0.566835,-0.886505,35.6875,1,23938,15573386
51,3,0.999406,0.000447778,0.0344316,0.00136507,-0.67806,-0.0720734,9.78813,-0.124852,-0.646903,0.909675,-0.00678349,-0.000733463,0.097881,1,6.44532e-05,-1.48467e-05,8.26812e-06,0.0128907,-0.00296934,0.00165362,0.999406,0.000447778,0.0344316,0.00136507,0.247388,0.566835,-0.886505,35.6875,1,23938,15573386
51,4,0.999407,0.00046329,0.0344198,0.00135646,-0.680912,-0.0723611,9.7783,-0.127363,-0.65151,0.899607,-0.00681155,-0.00073182,0.0977828,1,4.16469e-05,-1.24648e-05,4.67142e-06,0.00832938,-0.00249297,0.000934285,0.999407,0.00046329,0.0344198,0.00135646,0.24636,0.566409,-0.88954,35.6875,1,23939,15573486
52,1,0.999407,0.00046329,0.0344198,0.00135646,-0.680912,-0.0723611,9.7783,-0.127363,-0.65151,0.899607,-0.00681155,-0.00073182,0.0977828,1,4.16469e-05,-1.24648e-05,4.67142e-06,0.00832938,-0.00249297,0.000934285,0.999407,0.00046329,0.0344198,0.00135646,0.24636,0.566409,-0.88954,35.6875,1,23939,15573486
52,2,0.999407,0.00046329,0.0344198,0.00135646,-0.680912,-0.0723611,9.7783,-0.127363,-0.65151,0.899607,-0.00681155,-0.00073182,0.0977828,1,4.16469e-05,-1.24648e-05,4.67142e-06,0.00832938,-0.00249297,0.000934285,0.999407,0.00046329,0.0344198,0.00135646,0.24636,0.566409,-0.88954,35.6875,1,23939,15573486
52,3,0.999407,0.000486691,0.0344101,0.00135915,-0.689211,-0.0853243,9.78911,-0.137873,-0.664884,0.905821,-0.00689392,-0.000863798,0.0978909,1,5.31786e-05,-9.34114e-06,1.04008e-05,0.0106357,-0.00186823,0.00208017,0.999407,0.000486691,0.0344101,0.00135915,0.245919,0.56542,-0.88855,35.6875,1,23940,15573586
52,4,0.999407,0.000486691,0.0344101,0.00135915,-0.689211,-0.0853243,9.78911,-0.137873,-0.664884,0.905821,-0.00689392,-0.000863798,0.0978909,1,5.31786e-05,-9.34114e-06,1.04008e-05,0.0106357,-0.00186823,0.00208017,0.999407,0.000486691,0.0344101,0.00135915,0.245919,0.56542,-0.88855,35.6875,1,23940,15573586
53,1,0.999407,0.000486691,0.0344101,0.00135915,-0.689211,-0.0853243,9.78911,-0.137873,-0.664884,0.905821,-0.00689392,-0.000863798,0.0978909,1,5.31786e-05,-9.34114e-06,1.04008e-05,0.0106357,-0.00186823,0.00208017,0.999407,0.000486691,0.0344101,0.00135915,0.245919,0.56542,-0.88855,35.6875,1,23940,15573586
53,2,0.999407,0.000500514,0.0344032,0.00139121,-0.691376,-0.0765635,9.78851,-0.135303,-0.655249,0.91105,-0.00691503,-0.000773626,0.097885,1,3.85084e-05,-6.7038e-06,3.27248e-05,0.00770167,-0.00134076,0.00654495,0.999407,0.000500514,0.0344032,0.00139121,0.2451,0.563396,-0.884046,35.6875,1,23941,15573686
53,3,0.999407,0.000500514,0.0344032,0.00139121,-0.691376,-0.0765635,9.78851,-0.135303,-0.655249,0.91105,-0.00691503,-0.000773626,0.097885,1,3.85084e-05,-6.7038e-06,3.27248e-05,0.00770167,-0.00134076,0.00654495,0.999407,0.000500514,0.0344032,0.00139121,0.2451,0.563396,-0.884046,35.6875,1,23941,15573686
53,4,0.999407,0.000500514,0.0344032,0.00139121,-0.691376,-0.0765635,9.78851,-0.135303,-0.655249,0.91105,-0.00691503,-0.000773626,0.097885,1,3.85084e-05,-6.7038e-06,3.27248e-05,0.00770167,-0.00134076,0.00654495,0.999407,0.000500514,0.0344032,0.00139121,0.2451,0.563396,-0.884046,35.6875,1,23941,15573686
54,1,0.999407,0.000524009,0.0343905,0.00143677,-0.681191,-0.0797468,9.77587,-0.129091,-0.655373,0.900447,-0.00681438,-0.000804975,0.0977585,1,3.64017e-05,-1.28539e-05,2.85917e-05,0.00728034,-0.00257079,0.00571833,0.999407,0.000524009,0.0343905,0.00143677,0.244147,0.564361,-0.88301,35.6875,1,23942,15573786
54,2,0.999407,0.000524009,0.0343905,0.00143677,-0.681191,-0.0797468,9.77587,-0.129091,-0.655373,0.900447,-0.00681438,-0.000804975,0.0977585,1,3.64017e-05,-1.28539e-05,2.85917e-05,0.00728034,-0.00257079,0.00571833,0.999407,0.000524009,0.0343905,0.00143677,0.244147,0.564361,-0.88301,35.6875,1,23942,15573786
54,3,0.999407,0.000524009,0.0343905,0.00143677,-0.681191,-0.0797468,9.77587,-0.129091,-0.655373,0.900447,-0.00681438,-0.000804975,0.0977585,1,3.64017e-05,-1.28539e-05,2.85917e-05,0.00728034,-0.00257079,0.00571833,0.999407,0.000524009,0.0343905,0.00143677,0.244147,0.564361,-0.88301,35.6875,1,23942,15573786
54,4,0.999408,0.000559152,0.0343739,0.00146266,-0.671286,-0.0680328,9.78744,-0.113361,-0.650107,0.904271,-0.00671599,-0.000690358,0.0978741,1,5.05019e-05,-1.6082e-05,1.07548e-05,0.0101004,-0.0032164,0.00215096,0.999408,0.000559152,0.0343739,0.00146266,0.246524,0.566771,-0.882462,35.6875,1,23943,15573886
55,1,0.999408,0.000559152,0.0343739,0.00146266,-0.671286,-0.0680328,9.78744,-0.113361,-0.650107,0.904271,-0.00671599,-0.000690358,0.0978741,1,5.05019e-05,-1.6082e-05,1.07548e-05,0.0101004,-0.0032164,0.00215096,0.999408,0.000559152,0.0343739,0.00146266,0.246524,0.566771,-0.882462,35.6875,1,23943,15573886
55,2,0.999408,0.000559152,0.0343739,0.00146266,-0.671286,-0.0680328,9.78744,-0.113361,-0.650107,0.904271,-0.00671599,-0.000690358,0.0978741,1,5.05019e-05,-1.6082e-05,1.07548e-05,0.0101004,-0.0032164,0.00215096,0.999408,0.000559152,0.0343739,0.00146266,0.246524,0.566771,-0.882462,35.6875,1,23943,15573886
55,3,0.999408,0.000579558,0.0343649,0.00146345,-0.681813,-0.0788605,9.78063,-0.126819,-0.660388,0.898324,-0.00682025,-0.000796382,0.0978061,1,3.95626e-05,-1.0852e-05,2.81229e-06,0.00791251,-0.00217039,0.000562459,0.999408,0.000579558,0.0343649,0.00146345,0.246911,0.568763,-0.884945,35.6875,1,23944,15573986
55,4,0.999408,0.000579558,0.0343649,0.00146345,-0.681813,-0.0788605,9.78063,-0.126819,-0.660388,0.898324,-0.00682025,-0.000796382,0.0978061,1,3.95626e-05,-1.0852e-05,2.81229e-06,0.00791251,-0.00217039,0.000562459,0.999408,0.000579558,0.0343649,0.00146345,0.246911,0.568763,-0.884945,35.6875,1,23944,15573986
56,1,0.999408,0.000579558,0.0343649,0.00146345,-0.681813,-0.0788605,9.78063,-0.126819,-0.660388,0.898324,-0.00682025,-0.000796382,0.0978061,1,3.95626e-05,-1.0852e-05,2.81229e-06,0.00791251,-0.00217039,0.000562459,0.999408,0.000579558,0.0343649,0.00146345,0.246911,0.568763,-0.884945,35.6875,1,23944,15573986
56,2,0.999408,0.000583072,0.0343583,0.00146754,-0.684018,-0.070473,9.7841,-0.129518,-0.650639,0.904323,-0.00684189,-0.000710605,0.0978409,1,2.92677e-05,-8.77491e-06,1.07941e-05,0.00585355,-0.00175498,0.00215882,0.999408,0.000583072,0.0343583,0.00146754,0.246883,0.568302,-0.88647,35.6875,1,23945,15574086
56,3,0.999408,0.000583072,0.0343583,0.00146754,-0.684018,-0.070473,9.7841,-0.129518,-0.650639,0.904323,-0.00684189,-0.000710605,0.0978409,1,2.92677e-05,-8.77491e-06,1.07941e-05,0.00585355,-0.00175498,0.00215882,0.999408,0.000583072,0.0343583,0.00146754,0.246883,0.568302,-0.88647,35.6875,1,23945,15574086
56,4,0.999408,0.000583072,0.0343583,0.00146754,-0.684018,-0.070473,9.7841,-0.129518,-0.650639,0.904323,-0.00684189,-0.000710605,0.0978409,1,2.92677e-05,-8.77491e-06,1.07941e-05,0.00585355,-0.00175498,0.00215882,0.999408,0.000583072,0.0343583,0.00146754,0.246883,0.568302,-0.88647,35.6875,1,23945,15574086
57,1,0.999409,0.000607367,0.034349,0.00147552,-0.682758,-0.0815424,9.7874,-0.131943,-0.669255,0.90971,-0.00682969,-0.000825455,0.0978738,1,5.0001e-05,-1.093e-05,1.78382e-05,0.0100002,-0.00218601,0.00356765,0.999409,0.000607367,0.034349,0.00147552,0.246458,0.566337,-0.885502,35.6875,1,23946,15574186
57,2,0.999409,0.000607367,0.034349,0.00147552,-0.682758,-0.0815424,9.7874,-0.131943,-0.669255,0.90971,-0.00682969,-0.000825455,0.0978738,1,5.0001e-05,-1.093e-05,1.78382e-05,0.0100002,-0.00218601,0.00356765,0.999409,0.000607367,0.034349,0.00147552,0.246458,0.566337,-0.885502,35.6875,1,23946,15574186
57,3,0.999409,0.000607367,0.034349,0.00147552,-0.682758,-0.0815424,9.7874,-0.131943,-0.669255,0.90971,-0.00682969,-0.000825455,0.0978738,1,5.0001e-05,-1.093e-05,1.78382e-05,0.0100002,-0.00218601,0.00356765,0.999409,0.000607367,0.034349,0.00147552,0.246458,0.566337,-0.885502,35.6875,1,23946,15574186
57,4,0.999409,0.000631385,0.0343426,0.00149616,-0.686352,-0.0757017,9.78238,-0.130464,-0.663082,0.900889,-0.00686488,-0.000766302,0.0978236,1,4.55565e-05,-7.12085e-06,2.70457e-05,0.00911131,-0.00142417,0.00540913,0.999409,0.000631385,0.0343426,0.00149616,0.246544,0.563384,-0.884053,35.6875,1,23947,15574286
58,1,0.999409,0.000631385,0.0343426,0.00149616,-0.686352,-0.0757017,9.78238,-0.130464,-0.663082,0.900889,-0.00686488,-0.000766302,0.0978236,1,4.55565e-05,-7.12085e-06,2.70457e-05,0.00911131,-0.00142417,0.00540913,0.999409,0.000631385,0.0343426,0.00149616,0.246544,0.563384,-0.884053,35.6875,1,23947,15574286
58,2,0.999409,0.000631385,0.0343426,0.00149616,-0.686352,-0.0757017,9.78238,-0.130464,-0.663082,0.900889,-0.00686488,-0.000766302,0.0978236,1,4.55565e-05,-7.12085e-06,2.70457e-05,0.00911131,-0.00142417,0.00540913,0.999409,0.000631385,0.0343426,0.00149616,0.246544,0.563384,-0.884053,35.6875,1,23947,15574286
58,3,0.999409,0.000655956,0.0343236,0.00149696,-0.689281,-0.0740826,9.78513,-0.12977,-0.658355,0.907848,-0.00689668,-0.000749395,0.097851,1,4.34928e-05,-1.98129e-05,4.2134e-06,0.00869856,-0.00396258,0.000842681,0.999409,0.000655956,0.0343236,0.00149696,0.246075,0.563379,-0.883546,35.6875,1,23948,15574386
58,4,0.999409,0.000655956,0.0343236,0.00149696,-0.689281,-0.0740826,9.78513,-0.12977,-0.658355,0.907848,-0.00689668,-0.000749395,0.097851,1,4.34928e-05,-1.98129e-05,4.2134e-06,0.00869856,-0.00396258,0.000842681,0.999409,0.000655956,0.0343236,0.00149696,0.246075,0.563379,-0.883546,35.6875,1,23948,15574386
59,1,0.999409,0.000655956,0.0343236,0.00149696,-0.689281,-0.0740826,9.78513,-0.12977,-0.658355,0.907848,-0.00689668,-0.000749395,0.097851,1,4.34928e-05,-1.98129e-05,4.2134e-06,0.00869856,-0.00396258,0.000842681,0.999409,0.000655956,0.0343236,0.00149696,0.246075,0.563379,-0.883546,35.6875,1,23948,15574386
59,2,0.99941,0.000684729,0.0343157,0.00151104,-0.686191,-0.082716,9.79453,-0.133753,-0.66967,0.913289,-0.00686358,-0.000836816,0.0979451,1,4.80879e-05,-8.67815e-06,1.722e-05,0.00961759,-0.00173563,0.00344401,0.99941,0.000684729,0.0343157,0.00151104,0.246454,0.565858,-0.886018,35.6875,1,23949,15574486
59,3,0.99941,0.000684729,0.0343157,0.00151104,-0.686191,-0.082716,9.79453,-0.133753,-0.66967,0.913289,-0.00686358,-0.000836816,0.0979451,1,4.80879e-05,-8.67815e-06,1.722e-05,0.00961759,-0.00173563,0.00344401,0.99941,0.000684729,0.0343157,0.00151104,0.246454,0.565858,-0.886018,35.6875,1,23949,15574486
59,4,0.99941,0.000684729,0.0343157,0.00151104,-0.686191,-0.082716,9.79453,-0.133753,-0.66967,0.913289,-0.00686358,-0.000836816,0.0979451,1,4.80879e-05,-8.67815e-06,1.722e-05,0.00961759,-0.00173563,0.00344401,0.99941,0.000684729,0.0343157,0.00151104,0.246454,0.565858,-0.886018,35.6875,1,23949,15574486
60,1,0.999409,0.000708815,0.0343216,0.00151076,-0.679843,-0.0859432,9.79004,-0.12501,-0.668396,0.910575,-0.00679755,-0.000869149,0.0979004,1,4.90639e-05,4.41651e-06,8.05395e-06,0.00981279,0.000883302,0.00161079,0.999409,0.000708815,0.0343216,0.00151076,0.247327,0.568325,-0.887987,35.6875,1,23950,15574586
60,2,0.999409,0.000708815,0.0343216,0.00151076,-0.679843,-0.0859432,9.79004,-0.12501,-0.668396,0.910575,-0.00679755,-0.000869149,0.0979004,1,4.90639e-05,4.41651e-06,8.05395e-06,0.00981279,0.000883302,0.00161079,0.999409,0.000708815,0.0343216,0.00151076,0.247327,0.568325,-0.887987,35.6875,1,23950,15574586
60,3,0.999409,0.000708815,0.0343216,0.00151076,-0.679843,-0.0859432,9.79004,-0.12501,-0.668396,0.910575,-0.00679755,-0.000869149,0.0979004,1,4.90639e-05,4.41651e-06,8.05395e-06,0.00981279,0.000883302,0.00161079,0.999409,0.000708815,0.0343216,0.00151076,0.247327,0.568325,-0.887987,35.6875,1,23950,15574586
60,4,0.99941,0.000723308,0.0343146,0.00151769,-0.682918,-0.0720144,9.79392,-0.128228,-0.655845,0.915083,-0.00683082,-0.000728716,0.097939,1,4.21646e-05,-8.58116e-06,2.29536e-05,0.00843291,-0.00171623,0.00459073,0.99941,0.000723308,0.0343146,0.00151769,0.248358,0.566339,-0.886521,35.6875,1,23951,15574686
61,1,0.99941,0.000723308,0.0343146,0.00151769,-0.682918,-0.0720144,9.79392,-0.128228,-0.655845,0.915083,-0.00683082,-0.000728716,0.097939,1,4.21646e-05,-8.58116e-06,2.29536e-05,0.00843291,-0.00171623,0.00459073,0.99941,0.000723308,0.0343146,0.00151769,0.248358,0.566339,-0.886521,35.6875,1,23951,15574686
61,2,0.99941,0.000723308,0.0343146,0.00151769,-0.682918,-0.0720144,9.79392,-0.128228,-0.655845,0.915083,-0.00683082,-0.000728716,0.097939,1,4.21646e-05,-8.58116e-06,2.29536e-05,0.00843291,-0.00171623,0.00459073,0.99941,0.000723308,0.0343146,0.00151769,0.248358,0.566339,-0.886521,35.6875,1,23951,15574686
61,3,0.99941,0.000750615,0.0343062,0.00151678,-0.693389,-0.0781398,9.7919,-0.143981,-0.665544,0.912926,-0.00693586,-0.000791669,0.0979188,1,5.11742e-05,-1.01923e-05,1.79338e-05,0.0102348,-0.00203846,0.00358675,0.99941,0.000750615,0.0343062,0.00151678,0.246959,0.564391,-0.886052,35.6875,1,23952,15574786
61,4,0.99941,0.000750615,0.0343062,0.00151678,-0.693389,-0.0781398,9.7919,-0.143981,-0.665544,0.912926,-0.00693586,-0.000791669,0.0979188,1,5.11742e-05,-1.01923e-05,1.79338e-05,0.0102348,-0.00203846,0.00358675,0.99941,0.000750615,0.0343062,0.00151678,0.246959,0.564391,-0.886052,35.6875,1,23952,15574786
62,1,0.99941,0.000750615,0.0343062,0.00151678,-0.693389,-0.0781398,9.7919,-0.143981,-0.665544,0.912926,-0.00693586,-0.000791669,0.0979188,1,5.11742e-05,-1.01923e-05,1.79338e-05,0.0102348,-0.00203846,0.00358675,0.99941,0.000750615,0.0343062,0.00151678,0.246959,0.564391,-0.886052,35.6875,1,23952,15574786
62,2,0.99941,0.000775886,0.0343067,0.00153467,-0.681628,-0.0682011,9.78852,-0.132156,-0.656963,0.908332,-0.00681639,-0.000691447,0.0978851,1,4.68325e-05,-6.74321e-07,1.96433e-05,0.00936651,-0.000134864,0.00392866,0.99941,0.000775886,0.0343067,0.00153467,0.246988,0.563407,-0.885569,35.6875,1,23953,15574886
62,3,0.99941,0.000775886,0.0343067,0.00153467,-0.681628,-0.0682011,9.78852,-0.132156,-0.656963,0.908332,-0.00681639,-0.000691447,0.0978851,1,4.68325e-05,-6.74321e-07,1.96433e-05,0.00936651,-0.000134864,0.00392866,0.99941,0.000775886,0.0343067,0.00153467,0.246988,0.563407,-0.885569,35.6875,1,23953,15574886
62,4,0.99941,0.000775886,0.0343067,0.00153467,-0.681628,-0.0682011,9.78852,-0.132156,-0.656963,0.908332,-0.00681639,-0.000691447,0.0978851,1,4.68325e-05,-6.74321e-07,1.96433e-05,0.00936651,-0.000134864,0.00392866,0.99941,0.000775886,0.0343067,0.00153467,0.246988,0.563407,-0.885569,35.6875,1,23953,15574886
63,1,0.99941,0.00079304,0.0342936,0.00155266,-0.683408,-0.0751793,9.79085,-0.133762,-0.663499,0.912287,-0.00683691,-0.000759474,0.0979083,1,3.78714e-05,-1.45884e-05,1.93991e-05,0.00757428,-0.00291768,0.00387983,0.99941,0.00079304,0.0342936,0.00155266,0.246512,0.565335,-0.884009,35.6875,1,23954,15574986
63,2,0.99941,0.00079304,0.0342936,0.00155266,-0.683408,-0.0751793,9.79085,-0.133762,-0.663499,0.912287,-0.00683691,-0.000759474,0.0979083,1,3.78714e-05,-1.45884e-05,1.93991e-05,0.00757428,-0.00291768,0.00387983,0.99941,0.00079304,0.0342936,0.00155266,0.246512,0.565335,-0.884009,35.6875,1,23954,15574986
63,3,0.99941,0.00079304,0.0342936,0.00155266,-0.683408,-0.0751793,9.79085,-0.133762,-0.663499,0.912287,-0.00683691,-0.000759474,0.0979083,1,3.78714e-05,-1.45884e-05,1.93991e-05,0.00757428,-0.00291768,0.00387983,0.99941,0.00079304,0.0342936,0.00155266,0.246512,0.565335,-0.884009,35.6875,1,23954,15574986
63,4,0.999411,0.00081333,0.0342838,0.00156976,-0.6883,-0.0806618,9.79219,-0.134005,-0.669019,0.910947,-0.00688514,-0.00081488,0.0979216,1,4.08738e-05,-1.10809e-05,1.86845e-05,0.00817475,-0.00221618,0.0037369,0.999411,0.00081333,0.0342838,0.00156976,0.246936,0.568745,-0.883935,35.6875,1,23955,15575086
64,1,0.999411,0.00081333,0.0342838,0.00156976,-0.6883,-0.0806618,9.79219,-0.134005,-0.669019,0.910947,-0.00688514,-0.00081488,0.0979216,1,4.08738e-05,-1.10809e-05,1.86845e-05,0.00817475,-0.00221618,0.0037369,0.999411,0.00081333,0.0342838,0.00156976,0.246936,0.568745,-0.883935,35.6875,1,23955,15575086
64,2,0.999411,0.00081333,0.0342838,0.00156976,-0.6883,-0.0806618,9.79219,-0.134005,-0.669019,0.910947,-0.00688514,-0.00081488,0.0979216,1,4.08738e-05,-1.10809e-05,1.86845e-05,0.00817475,-0.00221618,0.0037369,0.999411,0.00081333,0.0342838,0.00156976,0.246936,0.568745,-0.883935,35.6875,1,23955,15575086
64,3,0.999411,0.000831443,0.0342724,0.00158001,-0.692614,-0.078587,9.7919,-0.146703,-0.662841,0.911726,-0.00692866,-0.000794327,0.0979188,1,4.19058e-05,-1.30125e-05,1.80117e-05,0.00838116,-0.00260251,0.00360233,0.999411,0.000831443,0.0342724,0.00158001,0.246879,0.569269,-0.885944,35.6875,1,23956,15575186
64,4,0.999411,0.000831443,0.0342724,0.00158001,-0.692614,-0.078587,9.7919,-0.146703,-0.662841,0.911726,-0.00692866,-0.000794327,0.0979188,1,4.19058e-05,-1.30125e-05,1.80117e-05,0.00838116,-0.00260251,0.00360233,0.999411,0.000831443,0.0342724,0.00158001,0.246879,0.569269,-0.885944,35.6875,1,23956,15575186
65,1,0.999411,0.000831443,0.0342724,0.00158001,-0.692614,-0.078587,9.7919,-0.146703,-0.662841,0.911726,-0.00692866,-0.000794327,0.0979188,1,4.19058e-05,-1.30125e-05,1.80117e-05,0.00838116,-0.00260251,0.00360233,0.999411,0.000831443,0.0342724,0.00158001,0.246879,0.569269,-0.885944,35.6875,1,23956,15575186
65,2,0.999411,0.000857274,0.0342748,0.0015856,-0.682981,-0.0766911,9.78607,-0.130427,-0.665588,0.909743,-0.00682965,-0.000777317,0.0978607,1,5.20088e-05,6.61542e-07,1.66092e-05,0.0104018,0.000132308,0.00332183,0.999411,0.000857274,0.0342748,0.0015856,0.246458,0.566337,-0.885502,35.6875,1,23957,15575286
65,3,0.999411,0.000857274,0.0342748,0.0015856,-0.682981,-0.0766911,9.78607,-0.130427,-0.665588,0.909743,-0.00682965,-0.000777317,0.0978607,1,5.20088e-05,6.61542e-07,1.66092e-05,0.0104018,0.000132308,0.00332183,0.999411,0.000857274,0.0342748,0.0015856,0.246458,0.566337,-0.885502,35.6875,1,23957,15575286
65,4,0.999411,0.000857274,0.0342748,0.0015856,-0.682981,-0.0766911,9.78607,-0.130427,-0.665588,0.909743,-0.00682965,-0.000777317,0.0978607,1,5.20088e-05,6.61542e-07,1.66092e-05,0.0104018,0.000132308,0.00332183,0.999411,0.000857274,0.0342748,0.0015856,0.246458,0.566337,-0.885502,35.6875,1,23957,15575286
66,1,0.999411,0.000872778,0.0342825,0.00159537,-0.677228,-0.0767971,9.78875,-0.123147,-0.663127,0.907385,-0.00677097,-0.000775705,0.0978875,1,3.86294e-05,6.58308e-06,1.26771e-05,0.00772587,0.00131662,0.00253542,0.999411,0.000872778,0.0342825,0.00159537,0.245516,0.564403,-0.886046,35.6875,1,23958,15575386
66,2,0.999411,0.000872778,0.0342825,0.00159537,-0.677228,-0.0767971,9.78875,-0.123147,-0.663127,0.907385,-0.00677097,-0.000775705,0.0978875,1,3.86294e-05,6.58308e-06,1.26771e-05,0.00772587,0.00131662,0.00253542,0.999411,0.000872778,0.0342825,0.00159537,0.245516,0.564403,-0.886046,35.6875,1,23958,15575386
66,3,0.999411,0.000872778,0.0342825,0.00159537,-0.677228,-0.0767971,9.78875,-0.123147,-0.663127,0.907385,-0.00677097,-0.000775705,0.0978875,1,3.86294e-05,6.58308e-06,1.26771e-05,0.00772587,0.00131662,0.00253542,0.999411,0.000872778,0.0342825,0.00159537,0.245516,0.564403,-0.886046,35.6875,1,23958,15575386
66,4,0.999411,0.000891489,0.0342652,0.00161062,-0.680427,-0.0695657,9.78071,-0.124603,-0.657566,0.89972,-0.00680791,-0.000703891,0.0978068,1,4.11124e-05,-1.86749e-05,1.40421e-05,0.00822249,-0.00373497,0.00280842,0.999411,0.000891489,0.0342652,0.00161062,0.246058,0.562909,-0.884566,35.6875,1,23959,15575486
67,1,0.999411,0.000891489,0.0342652,0.00161062,-0.680427,-0.0695657,9.78071,-0.124603,-0.657566,0.89972,-0.00680791,-0.000703891,0.0978068,1,4.11124e-05,-1.86749e-05,1.40421e-05,0.00822249,-0.00373497,0.00280842,0.999411,0.000891489,0.0342652,0.00161062,0.246058,0.562909,-0.884566,35.6875,1,23959,15575486
67,2,0.999411,0.000891489,0.0342652,0.00161062,-0.680427,-0.0695657,9.78071,-0.124603,-0.657566,0.89972,-0.00680791,-0.000703891,0.0978068,1,4.11124e-05,-1.86749e-05,1.40421e-05,0.00822249,-0.00373497,0.00280842,0.999411,0.000891489,0.0342652,0.00161062,0.246058,0.562909,-0.884566,35.6875,1,23959,15575486
67,3,0.999411,0.000914911,0.0342688,0.00162766,-0.677967,-0.0705404,9.7888,-0.126554,-0.654453,0.907718,-0.00677916,-0.000714223,0.097888,1,4.361e-05,2.44941e-06,2.07351e-05,0.00872201,0.000489883,0.00414702,0.999411,0.000914911,0.0342688,0.00162766,0.246544,0.563384,-0.884053,35.6875,1,23960,15575586
67,4,0.999411,0.000914911,0.0342688,0.00162766,-0.677967,-0.0705404,9.7888,-0.126554,-0.654453,0.907718,-0.00677916,-0.000714223,0.097888,1,4.361e-05,2.44941e-06,2.07351e-05,0.00872201,0.000489883,0.00414702,0.999411,0.000914911,0.0342688,0.00162766,0.246544,0.563384,-0.884053,35.6875,1,23960,15575586
68,1,0.999411,0.000914911,0.0342688,0.00162766,-0.677967,-0.0705404,9.7888,-0.126554,-0.654453,0.907718,-0.00677916,-0.000714223,0.097888,1,4.361e-05,2.44941e-06,2.07351e-05,0.00872201,0.000489883,0.00414702,0.999411,0.000914911,0.0342688,0.00162766,0.246544,0.563384,-0.884053,35.6875,1,23960,15575586
68,2,0.999411,0.000938294,0.0342565,0.00162885,-0.682128,-0.0812344,9.79349,-0.130042,-0.668584,0.913038,-0.00682399,-0.000821237,0.0979347,1,4.48953e-05,-1.39232e-05,7.26837e-06,0.00897907,-0.00278463,0.00145367,0.999411,0.000938294,0.0342565,0.00162885,0.245517,0.565848,-0.885003,35.6875,1,23961,15575686
68,3,0.999411,0.000938294,0.0342565,0.00162885,-0.682128,-0.0812344,9.79349,-0.130042,-0.668584,0.913038,-0.00682399,-0.000821237,0.0979347,1,4.48953e-05,-1.39232e-05,7.26837e-06,0.00897907,-0.00278463,0.00145367,0.999411,0.000938294,0.0342565,0.00162885,0.245517,0.565848,-0.885003,35.6875,1,23961,15575686
68,4,0.999411,0.000938294,0.0342565,0.00162885,-0.682128,-0.0812344,9.79349,-0.130042,-0.668584,0.913038,-0.00682399,-0.000821237,0.0979347,1,4.48953e-05,-1.39232e-05,7.26837e-06,0.00897907,-0.00278463,0.00145367,0.999411,0.000938294,0.0342565,0.00162885,0.245517,0.565848,-0.885003,35.6875,1,23961,15575686
69,1,0.999412,0.000962347,0.0342448,0.0016386,-0.666952,-0.0680602,9.7874,-0.110807,-0.657172,0.904752,-0.00667211,-0.000690264,0.0978738,1,4.84735e-05,-1.33551e-05,1.29902e-05,0.00969469,-0.00267102,0.00259804,0.999412,0.000962347,0.0342448,0.0016386,0.247413,0.566817,-0.885496,35.6875,1,23962,15575786
69,2,0.999412,0.000962347,0.0342448,0.0016386,-0.666952,-0.0680602,9.7874,-0.110807,-0.657172,0.904752,-0.00667211,-0.000690264,0.0978738,1,4.84735e-05,-1.33551e-05,1.29902e-05,0.00969469,-0.00267102,0.00259804,0.999412,0.000962347,0.0342448,0.0016386,0.247413,0.566817,-0.885496,35.6875,1,23962,15575786
69,3,0.999412,0.000962347,0.0342448,0.0016386,-0.666952,-0.0680602,9.7874,-0.110807,-0.657172,0.904752,-0.00667211,-0.000690264,0.0978738,1,4.84735e-05,-1.33551e-05,1.29902e-05,0.00969469,-0.00267102,0.00259804,0.999412,0.000962347,0.0342448,0.0016386,0.247413,0.566817,-0.885496,35.6875,1,23962,15575786
69,4,0.999412,0.00097951,0.0342366,0.00163485,-0.697802,-0.0780026,9.78956,-0.148342,-0.664979,0.90766,-0.00697994,-0.000788513,0.0978954,1,4.25614e-05,-9.89283e-06,1.10007e-05,0.00851227,-0.00197857,0.00220015,0.999412,0.00097951,0.0342366,0.00163485,0.248844,0.566814,-0.886007,35.6875,1,23963,15575886
70,1,0.999412,0.00097951,0.0342366,0.00163485,-0.697802,-0.0780026,9.78956,-0.148342,-0.664979,0.90766,-0.00697994,-0.000788513,0.0978954,1,4.25614e-05,-9.89283e-06,1.10007e-05,0.00851227,-0.00197857,0.00220015,0.999412,0.00097951,0.0342366,0.00163485,0.248844,0.566814,-0.886007,35.6875,1,23963,15575886
70,2,0.999412,0.00097951,0.0342366,0.00163485,-0.697802,-0.0780026,9.78956,-0.148342,-0.664979,0.90766,-0.00697994,-0.000788513,0.0978954,1,4.25614e-05,-9.89283e-06,1.10007e-05,0.00851227,-0.00197857,0.00220015,0.999412,0.00097951,0.0342366,0.00163485,0.248844,0.566814,-0.886007,35.6875,1,23963,15575886
70,3,0.999412,0.000994064,0.0342291,0.00162185,-0.684999,-0.0706853,9.79055,-0.131307,-0.662721,0.910194,-0.0068519,-0.000714976,0.0979053,1,4.07528e-05,-9.82504e-06,1.04199e-05,0.00815057,-0.00196501,0.00208398,0.999412,0.000994064,0.0342291,0.00162185,0.247894,0.566813,-0.885498,35.6875,1,23964,15575986
70,4,0.999412,0.000994064,0.0342291,0.00162185,-0.684999,-0.0706853,9.79055,-0.131307,-0.662721,0.910194,-0.0068519,-0.000714976,0.0979053,1,4.07528e-05,-9.82504e-06,1.04199e-05,0.00815057,-0.00196501,0.00208398,0.999412,0.000994064,0.0342291,0.00162185,0.247894,0.566813,-0.885498,35.6875,1,23964,15575986
71,1,0.999412,0.000994064,0.0342291,0.00162185,-0.684999,-0.0706853,9.79055,-0.131307,-0.662721,0.910194,-0.0068519,-0.000714976,0.0979053,1,4.07528e-05,-9.82504e-06,1.04199e-05,0.00815057,-0.00196501,0.00208398,0.999412,0.000994064,0.0342291,0.00162185,0.247894,0.566813,-0.885498,35.6875,1,23964,15575986
71,2,0.999412,0.00101022,0.034219,0.00163279,-0.683911,-0.071693,9.7902,-0.130797,-0.663333,0.909227,-0.00684138,-0.000725193,0.0979018,1,4.04231e-05,-1.17662e-05,2.54699e-05,0.00808462,-0.00235324,0.00509399,0.999412,0.00101022,0.034219,0.00163279,0.247453,0.565823,-0.884508,35.6875,1,23965,15576086
71,3,0.999412,0.00101022,0.034219,0.00163279,-0.683911,-0.071693,9.7902,-0.130797,-0.663333,0.909227,-0.00684138,-0.000725193,0.0979018,1,4.04231e-05,-1.17662e-05,2.54699e-05,0.00808462,-0.00235324,0.00509399,0.999412,0.00101022,0.034219,0.00163279,0.247453,0.565823,-0.884508,35.6875,1,23965,15576086
71,4,0.999412,0.00101022,0.034219,0.00163279,-0.683911,-0.071693,9.7902,-0.130797,-0.663333,0.909227,-0.00684138,-0.000725193,0.0979018,1,4.04231e-05,-1.17662e-05,2.54699e-05,0.00808462,-0.00235324,0.00509399,0.999412,0.00101022,0.034219,0.00163279,0.247453,0.565823,-0.884508,35.6875,1,23965,15576086
72,1,0.999412,0.0010243,0.0342203,0.00163373,-0.688418,-0.0768898,9.78577,-0.138068,-0.665521,0.906549,-0.00688424,-0.000776262,0.0978577,1,3.71225e-05,-3.57626e-07,7.14139e-06,0.0074245,-7.15252e-05,0.00142828,0.999412,0.0010243,0.0342203,0.00163373,0.246915,0.566351,-0.886514,35.6875,1,23966,15576186
72,2,0.999412,0.0010243,0.0342203,0.00163373,-0.688418,-0.0768898,9.78577,-0.138068,-0.665521,0.906549,-0.00688424,-0.000776262,0.0978577,1,3.71225e-05,-3.57626e-07,7.14139e-06,0.0074245,-7.15252e-05,0.00142828,0.999412,0.0010243,0.0342203,0.00163373,0.246915,0.566351,-0.886514,35.6875,1,23966,15576186
72,3,0.999412,0.0010243,0.0342203,0.00163373,-0.688418,-0.0768898,9.78577,-0.138068,-0.665521,0.906549,-0.00688424,-0.000776262,0.0978577,1,3.71225e-05,-3.57626e-07,7.14139e-06,0.0074245,-7.15252e-05,0.00142828,0.999412,0.0010243,0.0342203,0.00163373,0.246915,0.566351,-0.886514,35.6875,1,23966,15576186
72,4,0.999413,0.00102855,0.034214,0.00163773,-0.688241,-0.084825,9.79215,-0.134518,-0.674098,0.913108,-0.00688395,-0.000854198,0.0979213,1,2.97166e-05,-7.95347e-06,9.33191e-06,0.00594333,-0.00159069,0.00186638,0.999413,0.00102855,0.034214,0.00163773,0.246487,0.565353,-0.885019,35.6875,1,23967,15576286
73,1,0.999413,0.00102855,0.034214,0.00163773,-0.688241,-0.084825,9.79215,-0.134518,-0.674098,0.913108,-0.00688395,-0.000854198,0.0979213,1,2.97166e-05,-7.95347e-06,9.33191e-06,0.00594333,-0.00159069,0.00186638,0.999413,0.00102855,0.034214,0.00163773,0.246487,0.565353,-0.885019,35.6875,1,23967,15576286
73,2,0.999413,0.00102855,0.034214,0.00163773,-0.688241,-0.084825,9.79215,-0.134518,-0.674098,0.913108,-0.00688395,-0.000854198,0.0979213,1,2.97166e-05,-7.95347e-06,9.33191e-06,0.00594333,-0.00159069,0.00186638,0.999413,0.00102855,0.034214,0.00163773,0.246487,0.565353,-0.885019,35.6875,1,23967,15576286
73,3,0.999413,0.00104608,0.0341986,0.00165462,-0.675663,-0.0787755,9.78229,-0.123405,-0.669772,0.902896,-0.00675994,-0.000795824,0.0978226,1,4.00431e-05,-1.7073e-05,1.74157e-05,0.00800863,-0.00341461,0.00348314,0.999413,0.00104608,0.0341986,0.00165462,0.245977,0.566341,-0.885499,35.6875,1,23968,15576386
73,4,0.999413,0.00104608,0.0341986,0.00165462,-0.675663,-0.0787755,9.78229,-0.123405,-0.669772,0.902896,-0.00675994,-0.000795824,0.0978226,1,4.00431e-05,-1.7073e-05,1.74157e-05,0.00800863,-0.00341461,0.00348314,0.999413,0.00104608,0.0341986,0.00165462,0.245977,0.566341,-0.885499,35.6875,1,23968,15576386
74,1,0.999413,0.00104608,0.0341986,0.00165462,-0.675663,-0.0787755,9.78229,-0.123405,-0.669772,0.902896,-0.00675994,-0.000795824,0.0978226,1,4.00431e-05,-1.7073e-05,1.74157e-05,0.00800863,-0.00341461,0.00348314,0.999413,0.00104608,0.0341986,0.00165462,0.245977,0.566341,-0.885499,35.6875,1,23968,15576386
74,2,0.999413,0.00106424,0.0341872,0.00166749,-0.685001,-0.0695404,9.78344,-0.135163,-0.663683,0.901535,-0.00685252,-0.000703855,0.0978341,1,4.22281e-05,-1.29115e-05,1.37578e-05,0.00844562,-0.0025823,0.00275155,0.999413,0.00106424,0.0341872,0.00166749,0.245908,0.566874,-0.888013,35.6875,1,23969,15576486
74,3,0.999413,0.00106424,0.0341872,0.00166749,-0.685001,-0.0695404,9.78344,-0.135163,-0.663683,0.901535,-0.00685252,-0.000703855,0.0978341,1,4.22281e-05,-1.29115e-05,1.37578e-05,0.00844562,-0.0025823,0.00275155,0.999413,0.00106424,0.0341872,0.00166749,0.245908,0.566874,-0.888013,35.6875,1,23969,15576486
74,4,0.999413,0.00106424,0.0341872,0.00166749,-0.685001,-0.0695404,9.78344,-0.135163,-0.663683,0.901535,-0.00685252,-0.000703855,0.0978341,1,4.22281e-05,-1.29115e-05,1.37578e-05,0.00844562,-0.0025823,0.00275155,0.999413,0.00106424,0.0341872,0.00166749,0.245908,0.566874,-0.888013,35.6875,1,23969,15576486
75,1,0.999414,0.00107526,0.0341738,0.00168527,-0.687647,-0.0724195,9.78717,-0.138211,-0.670487,0.904794,-0.00687934,-0.000731943,0.0978714,1,3.80444e-05,-1.48379e-05,2.18657e-05,0.00760888,-0.00296759,0.00437314,0.999414,0.00107526,0.0341738,0.00168527,0.246413,0.566852,-0.887005,35.6875,1,23970,15576586
75,2,0.999414,0.00107526,0.0341738,0.00168527,-0.687647,-0.0724195,9.78717,-0.138211,-0.670487,0.904794,-0.00687934,-0.000731943,0.0978714,1,3.80444e-05,-1.48379e-05,2.18657e-05,0.00760888,-0.00296759,0.00437314,0.999414,0.00107526,0.0341738,0.00168527,0.246413,0.566852,-0.887005,35.6875,1,23970,15576586
75,3,0.999414,0.00107526,0.0341738,0.00168527,-0.687647,-0.0724195,9.78717,-0.138211,-0.670487,0.904794,-0.00687934,-0.000731943,0.0978714,1,3.80444e-05,-1.48379e-05,2.18657e-05,0.00760888,-0.00296759,0.00437314,0.999414,0.00107526,0.0341738,0.00168527,0.246413,0.566852,-0.887005,35.6875,1,23970,15576586
75,4,0.999414,0.00110892,0.0341667,0.00168114,-0.69371,-0.0784806,9.79292,-0.145205,-0.670704,0.917481,-0.00693888,-0.000796484,0.0979289,1,5.93439e-05,-9.10645e-06,3.98985e-06,0.0118688,-0.00182129,0.00079797,0.999414,0.00110892,0.0341667,0.00168114,0.245554,0.565821,-0.883489,35.6875,1,23971,15576686
76,1,0.999414,0.00110892,0.0341667,0.00168114,-0.69371,-0.0784806,9.79292,-0.145205,-0.670704,0.917481,-0.00693888,-0.000796484,0.0979289,1,5.93439e-05,-9.10645e-06,3.98985e-06,0.0118688,-0.00182129,0.00079797,0.999414,0.00110892,0.0341667,0.00168114,0.245554,0.565821,-0.883489,35.6875,1,23971,15576686
76,2,0.999414,0.00110892,0.0341667,0.00168114,-0.69371,-0.0784806,9.79292,-0.145205,-0.670704,0.917481,-0.00693888,-0.000796484,0.0979289,1,5.93439e-05,-9.10645e-06,3.98985e-06,0.0118688,-0.00182129,0.00079797,0.999414,0.00110892,0.0341667,0.00168114,0.245554,0.565821,-0.883489,35.6875,1,23971,15576686
76,3,0.999415,0.00112562,0.0341535,0.00168851,-0.686956,-0.070444,9.79226,-0.137914,-0.668696,0.913629,-0.00687251,-0.000711964,0.0979224,1,3.80129e-05,-1.50873e-05,5.81531e-06,0.00760257,-0.00301747,0.00116306,0.999415,0.00112562,0.0341535,0.00168851,0.244587,0.565351,-0.884,35.6875,1,23972,15576786
76,4,0.999415,0.00112562,0.0341535,0.00168851,-0.686956,-0.070444,9.79226,-0.137914,-0.668696,0.913629,-0.00687251,-0.000711964,0.0979224,1,3.80129e-05,-1.50873e-05,5.81531e-06,0.00760257,-0.00301747,0.00116306,0.999415,0.00112562,0.0341535,0.00168851,0.244587,0.565351,-0.884,35.6875,1,23972,15576786
77,1,0.999415,0.00112562,0.0341535,0.00168851,-0.686956,-0.070444,9.79226,-0.137914,-0.668696,0.913629,-0.00687251,-0.000711964,0.0979224,1,3.80129e-05,-1.50873e-05,5.81531e-06,0.00760257,-0.00301747,0.00116306,0.999415,0.00112562,0.0341535,0.00168851,0.244587,0.565351,-0.884,35.6875,1,23972,15576786
77,2,0.999415,0.00114386,0.0341333,0.00170328,-0.694892,-0.0837573,9.79018,-0.146891,-0.679492,0.910829,-0.00695311,-0.000845696,0.0979014,1,4.06987e-05,-2.14876e-05,1.10901e-05,0.00813975,-0.00429753,0.00221802,0.999415,0.00114386,0.0341333,0.00170328,0.246944,0.566812,-0.884988,35.6875,1,23973,15576886
77,3,0.999415,0.00114386,0.0341333,0.00170328,-0.694892,-0.0837573,9.79018,-0.146891,-0.679492,0.910829,-0.00695311,-0.000845696,0.0979014,1,4.06987e-05,-2.14876e-05,1.10901e-05,0.00813975,-0.00429753,0.00221802,0.999415,0.00114386,0.0341333,0.00170328,0.246944,0.566812,-0.884988,35.6875,1,23973,15576886
77,4,0.999415,0.00114386,0.0341333,0.00170328,-0.694892,-0.0837573,9.79018,-0.146891,-0.679492,0.910829,-0.00695311,-0.000845696,0.0979014,1,4.06987e-05,-2.14876e-05,1.10901e-05,0.00813975,-0.00429753,0.00221802,0.999415,0.00114386,0.0341333,0.00170328,0.246944,0.566812,-0.884988,35.6875,1,23973,15576886
78,1,0.999415,0.00115461,0.0341395,0.00170537,-0.686197,-0.0645687,9.7862,-0.133796,-0.659727,0.909651,-0.00686127,-0.000652789,0.097862,1,3.5258e-05,3.48151e-06,1.462e-05,0.00705159,0.000696303,0.002924,0.999415,0.00115461,0.0341395,0.00170537,0.246377,0.568324,-0.887477,35.6875,1,23974,15576986
78,2,0.999415,0.00115461,0.0341395,0.00170537,-0.686197,-0.0645687,9.7862,-0.133796,-0.659727,0.909651,-0.00686127,-0.000652789,0.097862,1,3.5258e-05,3.48151e-06,1.462e-05,0.00705159,0.000696303,0.002924,0.999415,0.00115461,0.0341395,0.00170537,0.246377,0.568324,-0.887477,35.6875,1,23974,15576986
78,3,0.999415,0.00115461,0.0341395,0.00170537,-0.686197,-0.0645687,9.7862,-0.133796,-0.659727,0.909651,-0.00686127,-0.000652789,0.097862,1,3.5258e-05,3.48151e-06,1.462e-05,0.00705159,0.000696303,0.002924,0.999415,0.00115461,0.0341395,0.00170537,0.246377,0.568324,-0.887477,35.6875,1,23974,15576986
78,4,0.999416,0.00116392,0.0341217,0.00171582,-0.683172,-0.0758115,9.78338,-0.138041,-0.674478,0.904141,-0.00683567,-0.000765515,0.0978335,1,3.63607e-05,-2.03512e-05,2.0925e-05,0.00727214,-0.00407023,0.004185,0.999416,0.00116392,0.0341217,0.00171582,0.24446,0.566407,-0.888521,35.6875,1,23975,15577086
79,1,0.999416,0.00116392,0.0341217,0.00171582,-0.683172,-0.0758115,9.78338,-0.138041,-0.674478,0.904141,-0.00683567,-0.000765515,0.0978335,1,3.63607e-05,-2.03512e-05,2.0925e-05,0.00727214,-0.00407023,0.004185,0.999416,0.00116392,0.0341217,0.00171582,0.24446,0.566407,-0.888521,35.6875,1,23975,15577086
79,2,0.999416,0.00116392,0.0341217,0.00171582,-0.683172,-0.0758115,9.78338,-0.138041,-0.674478,0.904141,-0.00683567,-0.000765515,0.0978335,1,3.63607e-05,-2.03512e-05,2.0925e-05,0.00727214,-0.00407023,0.004185,0.999416,0.00116392,0.0341217,0.00171582,0.24446,0.566407,-0.888521,35.6875,1,23975,15577086
79,3,0.999416,0.00118456,0.0341153,0.00173477,-0.686703,-0.0753669,9.78476,-0.137028,-0.670423,0.903811,-0.00686864,-0.000763026,0.0978474,1,4.65492e-05,-8.3691e-06,1.80289e-05,0.00930983,-0.00167382,0.00360577,0.999416,0.00118456,0.0341153,0.00173477,0.24499,0.564922,-0.887547,35.6875,1,23976,15577186
79,4,0.999416,0.00118456,0.0341153,0.00173477,-0.686703,-0.0753669,9.78476,-0.137028,-0.670423,0.903811,-0.00686864,-0.000763026,0.0978474,1,4.65492e-05,-8.3691e-06,1.80289e-05,0.00930983,-0.00167382,0.00360577,0.999416,0.00118456,0.0341153,0.00173477,0.24499,0.564922,-0.887547,35.6875,1,23976,15577186
80,1,0.999416,0.00118456,0.0341153,0.00173477,-0.686703,-0.0753669,9.78476,-0.137028,-0.670423,0.903811,-0.00686864,-0.000763026,0.0978474,1,4.65492e-05,-8.3691e-06,1.80289e-05,0.00930983,-0.00167382,0.00360577,0.999416,0.00118456,0.0341153,0.00173477,0.24499,0.564922,-0.887547,35.6875,1,23976,15577186
80,2,0.999416,0.00120914,0.034108,0.0017445,-0.686545,-0.0818657,9.78979,-0.139065,-0.677509,0.910532,-0.00686731,-0.000828348,0.0978977,1,4.85926e-05,-9.62845e-06,1.29361e-05,0.00971852,-0.00192569,0.00258722,0.999416,0.00120914,0.034108,0.0017445,0.246042,0.563884,-0.884544,35.6875,1,23977,15577286
80,3,0.999416,0.00120914,0.034108,0.0017445,-0.686545,-0.0818657,9.78979,-0.139065,-0.677509,0.910532,-0.00686731,-0.000828348,0.0978977,1,4.85926e-05,-9.62845e-06,1.29361e-05,0.00971852,-0.00192569,0.00258722,0.999416,0.00120914,0.034108,0.0017445,0.246042,0.563884,-0.884544,35.6875,1,23977,15577286
80,4,0.999416,0.00120914,0.034108,0.0017445,-0.686545,-0.0818657,9.78979,-0.139065,-0.677509,0.910532,-0.00686731,-0.000828348,0.0978977,1,4.85926e-05,-9.62845e-06,1.29361e-05,0.00971852,-0.00192569,0.00258722,0.999416,0.00120914,0.034108,0.0017445,0.246042,0.563884,-0.884544,35.6875,1,23977,15577286
81,1,0.999416,0.00122547,0.0341017,0.00175424,-0.685174,-0.0719067,9.7997,-0.129708,-0.667095,0.918161,-0.0068534,-0.00072656,0.0979969,1,3.70052e-05,-8.59248e-06,1.7572e-05,0.00740105,-0.0017185,0.0035144,0.999416,0.00122547,0.0341017,0.00175424,0.247025,0.564825,-0.883013,35.6875,1,23978,15577386
81,2,0.999416,0.00122547,0.0341017,0.00175424,-0.685174,-0.0719067,9.7997,-0.129708,-0.667095,0.918161,-0.0068534,-0.00072656,0.0979969,1,3.70052e-05,-8.59248e-06,1.7572e-05,0.00740105,-0.0017185,0.0035144,0.999416,0.00122547,0.0341017,0.00175424,0.247025,0.564825,-0.883013,35.6875,1,23978,15577386
81,3,0.999416,0.00122547,0.0341017,0.00175424,-0.685174,-0.0719067,9.7997,-0.129708,-0.667095,0.918161,-0.0068534,-0.00072656,0.0979969,1,3.70052e-05,-8.59248e-06,1.7572e-05,0.00740105,-0.0017185,0.0035144,0.999416,0.00122547,0.0341017,0.00175424,0.247025,0.564825,-0.883013,35.6875,1,23978,15577386
81,4,0.999416,0.00126216,0.0340883,0.00176156,-0.681192,-0.0710819,9.77866,-0.135961,-0.671129,0.900641,-0.00681504,-0.000722325,0.0977863,1,5.74124e-05,-1.60799e-05,2.03977e-05,0.0114825,-0.00321597,0.00407955,0.999416,0.00126216,0.0340883,0.00176156,0.247449,0.565345,-0.885023,35.6875,1,23979,15577486
82,1,0.999416,0.00126216,0.0340883,0.00176156,-0.681192,-0.0710819,9.77866,-0.135961,-0.671129,0.900641,-0.00681504,-0.000722325,0.0977863,1,5.74124e-05,-1.60799e-05,2.03977e-05,0.0114825,-0.00321597,0.00407955,0.999416,0.00126216,0.0340883,0.00176156,0.247449,0.565345,-0.885023,35.6875,1,23979,15577486
82,2,0.999416,0.00126216,0.0340883,0.00176156,-0.681192,-0.0710819,9.77866,-0.135961,-0.671129,0.900641,-0.00681504,-0.000722325,0.0977863,1,5.74124e-05,-1.60799e-05,2.03977e-05,0.0114825,-0.00321597,0.00407955,0.999416,0.00126216,0.0340883,0.00176156,0.247449,0.565345,-0.885023,35.6875,1,23979,15577486
82,3,0.999416,0.0012874,0.0340901,0.00175453,-0.684991,-0.076453,9.7905,-0.135306,-0.673373,0.909963,-0.00685008,-0.000774342,0.0979049,1,4.95054e-05,-9.40618e-07,8.66512e-06,0.00990107,-0.000188124,0.00173302,0.999416,0.0012874,0.0340901,0.00175453,0.245459,0.566372,-0.887012,35.6875,1,23980,15577586
82,4,0.999416,0.0012874,0.0340901,0.00175453,-0.684991,-0.076453,9.7905,-0.135306,-0.673373,0.909963,-0.00685008,-0.000774342,0.0979049,1,4.95054e-05,-9.40618e-07,8.66512e-06,0.00990107,-0.000188124,0.00173302,0.999416,0.0012874,0.0340901,0.00175453,0.245459,0.566372,-0.887012,35.6875,1,23980,15577586
83,1,0.999416,0.0012874,0.0340901,0.00175453,-0.684991,-0.076453,9.7905,-0.135306,-0.673373,0.909963,-0.00685008,-0.000774342,0.0979049,1,4.95054e-05,-9.40618e-07,8.66512e-06,0.00990107,-0.000188124,0.00173302,0.999416,0.0012874,0.0340901,0.00175453,0.245459,0.566372,-0.887012,35.6875,1,23980,15577586
83,2,0.999416,0.00131364,0.0340947,0.00176725,-0.680188,-0.08463,9.78904,-0.130714,-0.684623,0.905073,-0.00680137,-0.00085679,0.0978903,1,5.23906e-05,2.45264e-06,1.71214e-05,0.0104781,0.000490528,0.00342428,0.999416,0.00131364,0.0340947,0.00176725,0.246927,0.566342,-0.886009,35.6875,1,23981,15577686
83,3,0.999416,0.00131364,0.0340947,0.00176725,-0.680188,-0.08463,9.78904,-0.130714,-0.684623,0.905073,-0.00680137,-0.00085679,0.0978903,1,5.23906e-05,2.45264e-06,1.71214e-05,0.0104781,0.000490528,0.00342428,0.999416,0.00131364,0.0340947,0.00176725,0.246927,0.566342,-0.886009,35.6875,1,23981,15577686
83,4,0.999416,0.00131364,0.0340947,0.00176725,-0.680188,-0.08463,9.78904,-0.130714,-0.684623,0.905073,-0.00680137,-0.00085679,0.0978903,1,5.23906e-05,2.45264e-06,1.71214e-05,0.0104781,0.000490528,0.00342428,0.999416,0.00131364,0.0340947,0.00176725,0.246927,0.566342,-0.886009,35.6875,1,23981,15577686
84,1,0.999416,0.00131967,0.034087,0.00175918,-0.686207,-0.0725877,9.80343,-0.135379,-0.669791,0.925109,-0.00686411,-0.000732096,0.0980341,1,3.13241e-05,-1.04421e-05,5.62342e-06,0.00626481,-0.00208841,0.00112468,0.999416,0.00131967,0.034087,0.00175918,0.247424,0.565363,-0.886033,35.6875,1,23982,15577786
84,2,0.999416,0.00131967,0.034087,0.00175918,-0.686207,-0.0725877,9.80343,-0.135379,-0.669791,0.925109,-0.00686411,-0.000732096,0.0980341,1,3.13241e-05,-1.04421e-05,5.62342e-06,0.00626481,-0.00208841,0.00112468,0.999416,0.00131967,0.034087,0.00175918,0.247424,0.565363,-0.886033,35.6875,1,23982,15577786
84,3,0.999416,0.00131967,0.034087,0.00175918,-0.686207,-0.0725877,9.80343,-0.135379,-0.669791,0.925109,-0.00686411,-0.000732096,0.0980341,1,3.13241e-05,-1.04421e-05,5.62342e-06,0.00626481,-0.00208841,0.00112468,0.999416,0.00131967,0.034087,0.00175918,0.247424,0.565363,-0.886033,35.6875,1,23982,15577786
84,4,0.999417,0.00133039,0.0340573,0.00176227,-0.684281,-0.0739573,9.79258,-0.135515,-0.670909,0.912853,-0.00684918,-0.000746592,0.0979253,1,3.46862e-05,-3.26487e-05,1.65025e-05,0.00693723,-0.00652975,0.0033005,0.999417,0.00133039,0.0340573,0.00176227,0.245092,0.563883,-0.884035,35.6875,1,23983,15577886
85,1,0.999417,0.00133039,0.0340573,0.00176227,-0.684281,-0.0739573,9.79258,-0.135515,-0.670909,0.912853,-0.00684918,-0.000746592,0.0979253,1,3.46862e-05,-3.26487e-05,1.65025e-05,0.00693723,-0.00652975,0.0033005,0.999417,0.00133039,0.0340573,0.00176227,0.245092,0.563883,-0.884035,35.6875,1,23983,15577886
85,2,0.999417,0.00133039,0.0340573,0.00176227,-0.684281,-0.0739573,9.79258,-0.135515,-0.670909,0.912853,-0.00684918,-0.000746592,0.0979253,1,3.46862e-05,-3.26487e-05,1.65025e-05,0.00693723,-0.00652975,0.0033005,0.999417,0.00133039,0.0340573,0.00176227,0.245092,0.563883,-0.884035,35.6875,1,23983,15577886
85,3,0.999418,0.00134958,0.0340383,0.00179005,-0.682418,-0.0772021,9.7871,-0.13378,-0.677272,0.909105,-0.00682832,-0.000780207,0.0978706,1,4.04903e-05,-2.12788e-05,1.91069e-05,0.00809805,-0.00425575,0.00382139,0.999418,0.00134958,0.0340383,0.00179005,0.24559,0.564349,-0.883017,35.6875,1,23984,15577986
85,4,0.999418,0.00134958,0.0340383,0.00179005,-0.682418,-0.0772021,9.7871,-0.13378,-0.677272,0.909105,-0.00682832,-0.000780207,0.0978706,1,4.04903e-05,-2.12788e-05,1.91069e-05,0.00809805,-0.00425575,0.00382139,0.999418,0.00134958,0.0340383,0.00179005,0.24559,0.564349,-0.883017,35.6875,1,23984,15577986
86,1,0.999418,0.00134958,0.0340383,0.00179005,-0.682418,-0.0772021,9.7871,-0.13378,-0.677272,0.909105,-0.00682832,-0.000780207,0.0978706,1,4.04903e-05,-2.12788e-05,1.91069e-05,0.00809805,-0.00425575,0.00382139,0.999418,0.00134958,0.0340383,0.00179005,0.24559,0.564349,-0.883017,35.6875,1,23984,15577986
86,2,0.999418,0.0013701,0.0340326,0.00179601,-0.684822,-0.0786129,9.79456,-0.135364,-0.676358,0.911559,-0.0068498,-0.000794561,0.0979454,1,4.25838e-05,-8.0953e-06,6.58982e-06,0.00851675,-0.00161906,0.00131796,0.999418,0.0013701,0.0340326,0.00179601,0.248892,0.565333,-0.88503,35.6875,1,23985,15578086
86,3,0.999418,0.0013701,0.0340326,0.00179601,-0.684822,-0.0786129,9.79456,-0.135364,-0.676358,0.911559,-0.0068498,-0.000794561,0.0979454,1,4.25838e-05,-8.0953e-06,6.58982e-06,0.00851675,-0.00161906,0.00131796,0.999418,0.0013701,0.0340326,0.00179601,0.248892,0.565333,-0.88503,35.6875,1,23985,15578086
86,4,0.999418,0.0013701,0.0340326,0.00179601,-0.684822,-0.0786129,9.79456,-0.135364,-0.676358,0.911559,-0.0068498,-0.000794561,0.0979454,1,4.25838e-05,-8.0953e-06,6.58982e-06,0.00851675,-0.00161906,0.00131796,0.999418,0.0013701,0.0340326,0.00179601,0.248892,0.565333,-0.88503,35.6875,1,23985,15578086
87,1,0.999418,0.00138732,0.0340271,0.00176851,-0.682775,-0.0805345,9.79724,-0.134695,-0.682836,0.916719,-0.00682954,-0.000813711,0.0979722,1,4.27328e-05,-9.11975e-06,-5.45709e-07,0.00854655,-0.00182395,-0.000109142,0.999418,0.00138732,0.0340271,0.00176851,0.249296,0.566349,-0.887535,35.6875,1,23986,15578186
87,2,0.999418,0.00138732,0.0340271,0.00176851,-0.682775,-0.0805345,9.79724,-0.134695,-0.682836,0.916719,-0.00682954,-0.000813711,0.0979722,1,4.27328e-05,-9.11975e-06,-5.45709e-07,0.00854655,-0.00182395,-0.000109142,0.999418,0.00138732,0.0340271,0.00176851,0.249296,0.566349,-0.887535,35.6875,1,23986,15578186
87,3,0.999418,0.00138732,0.0340271,0.00176851,-0.682775,-0.0805345,9.79724,-0.134695,-0.682836,0.916719,-0.00682954,-0.000813711,0.0979722,1,4.27328e-05,-9.11975e-06,-5.45709e-07,0.00854655,-0.00182395,-0.000109142,0.999418,0.00138732,0.0340271,0.00176851,0.249296,0.566349,-0.887535,35.6875,1,23986,15578186
87,4,0.999418,0.00140263,0.0340373,0.00175451,-0.687475,-0.0764998,9.78745,-0.140283,-0.673906,0.90752,-0.0068734,-0.000773699,0.0978746,1,4.3422e-05,6.77254e-06,1.4633e-05,0.00868439,0.00135451,0.0029266,0.999418,0.00140263,0.0340373,0.00175451,0.247852,0.566361,-0.887528,35.6875,1,23987,15578286
88,1,0.999418,0.00140263,0.0340373,0.00175451,-0.687475,-0.0764998,9.78745,-0.140283,-0.673906,0.90752,-0.0068734,-0.000773699,0.0978746,1,4.3422e-05,6.77254e-06,1.4633e-05,0.00868439,0.00135451,0.0029266,0.999418,0.00140263,0.0340373,0.00175451,0.247852,0.566361,-0.887528,35.6875,1,23987,15578286
88,2,0.999418,0.00140263,0.0340373,0.00175451,-0.687475,-0.0764998,9.78745,-0.140283,-0.673906,0.90752,-0.0068734,-0.000773699,0.0978746,1,4.3422e-05,6.77254e-06,1.4633e-05,0.00868439,0.00135451,0.0029266,0.999418,0.00140263,0.0340373,0.00175451,0.247852,0.566361,-0.887528,35.6875,1,23987,15578286
88,3,0.999418,0.00142587,0.0340325,0.0017353,-0.674366,-0.080046,9.78396,-0.13018,-0.681615,0.905106,-0.0067451,-0.000810361,0.0978394,1,5.08818e-05,-7.34648e-06,-4.08118e-06,0.0101764,-0.0014693,-0.000816235,0.999418,0.00142587,0.0340325,0.0017353,0.246466,0.564404,-0.886555,35.6875,3,23988,15578386
88,4,0.999418,0.00142587,0.0340325,0.0017353,-0.674366,-0.080046,9.78396,-0.13018,-0.681615,0.905106,-0.0067451,-0.000810361,0.0978394,1,5.08818e-05,-7.34648e-06,-4.08118e-06,0.0101764,-0.0014693,-0.000816235,0.999418,0.00142587,0.0340325,0.0017353,0.246466,0.564404,-0.886555,35.6875,3,23988,15578386
89,1,0.999418,0.00142587,0.0340325,0.0017353,-0.674366,-0.080046,9.78396,-0.13018,-0.681615,0.905106,-0.0067451,-0.000810361,0.0978394,1,5.08818e-05,-7.34648e-06,-4.08118e-06,0.0101764,-0.0014693,-0.000816235,0.999418,0.00142587,0.0340325,0.0017353,0.246466,0.564404,-0.886555,35.6875,3,23988,15578386
89,2,0.999418,0.00145963,0.0340316,0.00176157,-0.690644,-0.0815282,9.79254,-0.141238,-0.682934,0.911808,-0.00690708,-0.000826877,0.0979252,1,5.76527e-05,-3.4513e-06,2.19697e-05,0.0115305,-0.00069026,0.00439394,0.999418,0.00145963,0.0340316,0.00176157,0.246499,0.563898,-0.885556,35.6875,3,23989,15578486
89,3,0.999418,0.00145963,0.0340316,0.00176157,-0.690644,-0.0815282,9.79254,-0.141238,-0.682934,0.911808,-0.00690708,-0.000826877,0.0979252,1,5.76527e-05,-3.4513e-06,2.19697e-05,0.0115305,-0.00069026,0.00439394,0.999418,0.00145963,0.0340316,0.00176157,0.246499,0.563898,-0.885556,35.6875,3,23989,15578486
89,4,0.999418,0.00145963,0.0340316,0.00176157,-0.690644,-0.0815282,9.79254,-0.141238,-0.682934,0.911808,-0.00690708,-0.000826877,0.0979252,1,5.76527e-05,-3.4513e-06,2.19697e-05,0.0115305,-0.00069026,0.00439394,0.999418,0.00145963,0.0340316,0.00176157,0.246499,0.563898,-0.885556,35.6875,3,23989,15578486
90,1,0.999418,0.00147543,0.0340282,0.00177722,-0.682494,-0.0782197,9.78844,-0.138991,-0.68112,0.907228,-0.00682608,-0.000789979,0.0978843,1,3.88101e-05,-5.9682e-06,1.3489e-05,0.00776202,-0.00119364,0.00269781,0.999418,0.00147543,0.0340282,0.00177722,0.247429,0.565841,-0.885517,35.6875,3,23990,15578586
90,2,0.999418,0.00147543,0.0340282,0.00177722,-0.682494,-0.0782197,9.78844,-0.138991,-0.68112,0.907228,-0.00682608,-0.000789979,0.0978843,1,3.88101e-05,-5.9682e-06,1.3489e-05,0.00776202,-0.00119364,0.00269781,0.999418,0.00147543,0.0340282,0.00177722,0.247429,0.565841,-0.885517,35.6875,3,23990,15578586
90,3,0.999418,0.00147543,0.0340282,0.00177722,-0.682494,-0.0782197,9.78844,-0.138991,-0.68112,0.907228,-0.00682608,-0.000789979,0.0978843,1,3.88101e-05,-5.9682e-06,1.3489e-05,0.00776202,-0.00119364,0.00269781,0.999418,0.00147543,0.0340282,0.00177722,0.247429,0.565841,-0.885517,35.6875,3,23990,15578586
90,4,0.999418,0.00147902,0.0340206,0.0017876,-0.685499,-0.0838575,9.79045,-0.138409,-0.68728,0.907094,-0.006857,-0.000844309,0.0979043,1,2.79099e-05,-1.04476e-05,1.96248e-05,0.00558198,-0.00208952,0.00392496,0.999418,0.00147902,0.0340206,0.0017876,0.246466,0.565849,-0.885513,35.6875,3,23991,15578686
91,1,0.999418,0.00147902,0.0340206,0.0017876,-0.685499,-0.0838575,9.79045,-0.138409,-0.68728,0.907094,-0.006857,-0.000844309,0.0979043,1,2.79099e-05,-1.04476e-05,1.96248e-05,0.00558198,-0.00208952,0.00392496,0.999418,0.00147902,0.0340206,0.0017876,0.246466,0.565849,-0.885513,35.6875,3,23991,15578686
91,2,0.999418,0.00147902,0.0340206,0.0017876,-0.685499,-0.0838575,9.79045,-0.138409,-0.68728,0.907094,-0.006857,-0.000844309,0.0979043,1,2.79099e-05,-1.04476e-05,1.96248e-05,0.00558198,-0.00208952,0.00392496,0.999418,0.00147902,0.0340206,0.0017876,0.246466,0.565849,-0.885513,35.6875,3,23991,15578686
91,3,0.999419,0.00149092,0.0340077,0.00180226,-0.68651,-0.0799352,9.7871,-0.141842,-0.68017,0.900983,-0.00686809,-0.000806753,0.0978708,1,3.66606e-05,-1.53967e-05,1.638e-05,0.00733212,-0.00307934,0.00327601,0.999419,0.00149092,0.0340077,0.00180226,0.245488,0.565388,-0.886529,35.6875,3,23992,15578786
91,4,0.999419,0.00149092,0.0340077,0.00180226,-0.68651,-0.0799352,9.7871,-0.141842,-0.68017,0.900983,-0.00686809,-0.000806753,0.0978708,1,3.66606e-05,-1.53967e-05,1.638e-05,0.00733212,-0.00307934,0.00327601,0.999419,0.00149092,0.0340077,0.00180226,0.245488,0.565388,-0.886529,35.6875,3,23992,15578786
92,1,0.999419,0.00149092,0.0340077,0.00180226,-0.68651,-0.0799352,9.7871,-0.141842,-0.68017,0.900983,-0.00686809,-0.000806753,0.0978708,1,3.66606e-05,-1.53967e-05,1.638e-05,0.00733212,-0.00307934,0.00327601,0.999419,0.00149092,0.0340077,0.00180226,0.245488,0.565388,-0.886529,35.6875,3,23992,15578786
92,2,0.999419,0.00151093,0.0340083,0.00180886,-0.678837,-0.0763905,9.78808,-0.131713,-0.678804,0.907887,-0.00678875,-0.000772913,0.0978807,1,4.58974e-05,-1.98011e-06,1.70234e-06,0.00917948,-0.000396022,0.000340467,0.999419,0.00151093,0.0340083,0.00180886,0.24742,0.564884,-0.886549,35.6875,3,23993,15578886
92,3,0.999419,0.00151093,0.0340083,0.00180886,-0.678837,-0.0763905,9.78808,-0.131713,-0.678804,0.907887,-0.00678875,-0.000772913,0.0978807,1,4.58974e-05,-1.98011e-06,1.70234e-06,0.00917948,-0.000396022,0.000340467,0.999419,0.00151093,0.0340083,0.00180886,0.24742,0.564884,-0.886549,35.6875,3,23993,15578886
92,4,0.999419,0.00151093,0.0340083,0.00180886,-0.678837,-0.0763905,9.78808,-0.131713,-0.678804,0.907887,-0.00678875,-0.000772913,0.0978807,1,4.58974e-05,-1.98011e-06,1.70234e-06,0.00917948,-0.000396022,0.000340467,0.999419,0.00151093,0.0340083,0.00180886,0.24742,0.564884,-0.886549,35.6875,3,23993,15578886
93,1,0.999419,0.0015174,0.0340022,0.00179443,-0.685958,-0.0735677,9.78782,-0.135181,-0.678317,0.907137,-0.00686127,-0.000741896,0.097878,1,3.19201e-05,-8.62405e-06,-2.15143e-06,0.00638403,-0.00172481,-0.000430287,0.999419,0.0015174,0.0340022,0.00179443,0.245969,0.565384,-0.886531,35.6875,3,23994,15578986
93,2,0.999419,0.0015174,0.0340022,0.00179443,-0.685958,-0.0735677,9.78782,-0.135181,-0.678317,0.907137,-0.00686127,-0.000741896,0.097878,1,3.19201e-05,-8.62405e-06,-2.15143e-06,0.00638403,-0.00172481,-0.000430287,0.999419,0.0015174,0.0340022,0.00179443,0.245969,0.565384,-0.886531,35.6875,3,23994,15578986
93,3,0.999419,0.0015174,0.0340022,0.00179443,-0.685958,-0.0735677,9.78782,-0.135181,-0.678317,0.907137,-0.00686127,-0.000741896,0.097878,1,3.19201e-05,-8.62405e-06,-2.15143e-06,0.00638403,-0.00172481,-0.000430287,0.999419,0.0015174,0.0340022,0.00179443,0.245969,0.565384,-0.886531,35.6875,3,23994,15578986
93,4,0.999419,0.00152935,0.0339966,0.00179768,-0.685256,-0.0795496,9.78234,-0.13961,-0.686109,0.901332,-0.00685416,-0.000802863,0.0978232,1,3.74373e-05,-8.19554e-06,3.077e-06,0.00748747,-0.00163911,0.0006154,0.999419,0.00152935,0.0339966,0.00179768,0.245052,0.564877,-0.885023,35.6875,3,23995,15579086
94,1,0.999419,0.00152935,0.0339966,0.00179768,-0.685256,-0.0795496,9.78234,-0.13961,-0.686109,0.901332,-0.00685416,-0.000802863,0.0978232,1,3.74373e-05,-8.19554e-06,3.077e-06,0.00748747,-0.00163911,0.0006154,0.999419,0.00152935,0.0339966,0.00179768,0.245052,0.564877,-0.885023,35.6875,3,23995,15579086
94,2,0.999419,0.00152935,0.0339966,0.00179768,-0.685256,-0.0795496,9.78234,-0.13961,-0.686109,0.901332,-0.00685416,-0.000802863,0.0978232,1,3.74373e-05,-8.19554e-06,3.077e-06,0.00748747,-0.00163911,0.0006154,0.999419,0.00152935,0.0339966,0.00179768,0.245052,0.564877,-0.885023,35.6875,3,23995,15579086
94,3,0.999419,0.00154019,0.0339995,0.00181982,-0.684126,-0.0671946,9.77769,-0.138217,-0.674281,0.895735,-0.00684112,-0.00067886,0.0977768,1,3.43844e-05,6.44714e-07,1.38729e-05,0.00687688,0.000128943,0.00277459,0.999419,0.00154019,0.0339995,0.00181982,0.245508,0.566336,-0.884992,35.6875,3,23996,15579186
94,4,0.999419,0.00154019,0.0339995,0.00181982,-0.684126,-0.0671946,9.77769,-0.138217,-0.674281,0.895735,-0.00684112,-0.00067886,0.0977768,1,3.43844e-05,6.44714e-07,1.38729e-05,0.00687688,0.000128943,0.00277459,0.999419,0.00154019,0.0339995,0.00181982,0.245508,0.566336,-0.884992,35.6875,3,23996,15579186
95,1,0.999419,0.00154019,0.0339995,0.00181982,-0.684126,-0.0671946,9.77769,-0.138217,-0.674281,0.895735,-0.00684112,-0.00067886,0.0977768,1,3.43844e-05,6.44714e-07,1.38729e-05,0.00687688,0.000128943,0.00277459,0.999419,0.00154019,0.0339995,0.00181982,0.245508,0.566336,-0.884992,35.6875,3,23996,15579186
95,2,0.999419,0.00157267,0.0339996,0.00183601,-0.683026,-0.0691083,9.78478,-0.138073,-0.673588,0.904712,-0.00683075,-0.000702491,0.0978477,1,5.72577e-05,-2.60788e-06,1.48379e-05,0.0114515,-0.000521576,0.00296758,0.999419,0.00157267,0.0339996,0.00183601,0.247914,0.566316,-0.885004,35.6875,3,23997,15579286
95,3,0.999419,0.00157267,0.0339996,0.00183601,-0.683026,-0.0691083,9.78478,-0.138073,-0.673588,0.904712,-0.00683075,-0.000702491,0.0978477,1,5.72577e-05,-2.60788e-06,1.48379e-05,0.0114515,-0.000521576,0.00296758,0.999419,0.00157267,0.0339996,0.00183601,0.247914,0.566316,-0.885004,35.6875,3,23997,15579286
95,4,0.999419,0.00157267,0.0339996,0.00183601,-0.683026,-0.0691083,9.78478,-0.138073,-0.673588,0.904712,-0.00683075,-0.000702491,0.0978477,1,5.72577e-05,-2.60788e-06,1.48379e-05,0.0114515,-0.000521576,0.00296758,0.999419,0.00157267,0.0339996,0.00183601,0.247914,0.566316,-0.885004,35.6875,3,23997,15579286
96,1,0.999419,0.00159026,0.0339965,0.00183304,-0.687981,-0.0748467,9.7902,-0.139641,-0.678473,0.908972,-0.00688114,-0.000756949,0.0979018,1,4.22876e-05,-6.91596e-06,1.46906e-05,0.00845753,-0.00138319,0.00293813,0.999419,0.00159026,0.0339965,0.00183304,0.247861,0.567319,-0.886497,35.6875,3,23998,15579386
96,2,0.999419,0.00159026,0.0339965,0.00183304,-0.687981,-0.0748467,9.7902,-0.139641,-0.678473,0.908972,-0.00688114,-0.000756949,0.0979018,1,4.22876e-05,-6.91596e-06,1.46906e-05,0.00845753,-0.00138319,0.00293813,0.999419,0.00159026,0.0339965,0.00183304,0.247861,0.567319,-0.886497,35.6875,3,23998,15579386
96,3,0.999419,0.00159026,0.0339965,0.00183304,-0.687981,-0.0748467,9.7902,-0.139641,-0.678473,0.908972,-0.00688114,-0.000756949,0.0979018,1,4.22876e-05,-6.91596e-06,1.46906e-05,0.00845753,-0.00138319,0.00293813,0.999419,0.00159026,0.0339965,0.00183304,0.247861,0.567319,-0.886497,35.6875,3,23998,15579386
96,4,0.999419,0.00161204,0.033997,0.00182086,-0.695155,-0.0766206,9.79226,-0.146994,-0.682584,0.912601,-0.00695218,-0.0007759,0.0979225,1,4.90229e-05,-3.2653e-06,6.68309e-06,0.00980459,-0.00065306,0.00133662,0.999419,0.00161204,0.033997,0.00182086,0.247339,0.568316,-0.887482,35.6875,3,23999,15579486
97,1,0.999419,0.00161204,0.033997,0.00182086,-0.695155,-0.0766206,9.79226,-0.146994,-0.682584,0.912601,-0.00695218,-0.0007759,0.0979225,1,4.90229e-05,-3.2653e-06,6.68309e-06,0.00980459,-0.00065306,0.00133662,0.999419,0.00161204,0.033997,0.00182086,0.247339,0.568316,-0.887482,35.6875,3,23999,15579486
97,2,0.999419,0.00161204,0.033997,0.00182086,-0.695155,-0.0766206,9.79226,-0.146994,-0.682584,0.912601,-0.00695218,-0.0007759,0.0979225,1,4.90229e-05,-3.2653e-06,6.68309e-06,0.00980459,-0.00065306,0.00133662,0.999419,0.00161204,0.033997,0.00182086,0.247339,0.568316,-0.887482,35.6875,3,23999,15579486
97,3,0.999419,0.00161912,0.0340073,0.00181836,-0.678771,-0.0614897,9.78041,-0.133547,-0.6686,0.897825,-0.00678635,-0.000621912,0.0978041,1,3.50383e-05,6.8861e-06,1.18632e-05,0.00700765,0.00137722,0.00237264,0.999419,0.00161912,0.0340073,0.00181836,0.245932,0.566856,-0.887003,35.6875,3,24000,15579586
97,4,0.999419,0.00161912,0.0340073,0.00181836,-0.678771,-0.0614897,9.78041,-0.133547,-0.6686,0.897825,-0.00678635,-0.000621912,0.0978041,1,3.50383e-05,6.8861e-06,1.18632e-05,0.00700765,0.00137722,0.00237264,0.999419,0.00161912,0.0340073,0.00181836,0.245932,0.566856,-0.887003,35.6875,3,24000,15579586
98,1,0.999419,0.00161912,0.0340073,0.00181836,-0.678771,-0.0614897,9.78041,-0.133547,-0.6686,0.897825,-0.00678635,-0.000621912,0.0978041,1,3.50383e-05,6.8861e-06,1.18632e-05,0.00700765,0.00137722,0.00237264,0.999419,0.00161912,0.0340073,0.00181836,0.245932,0.566856,-0.887003,35.6875,3,24000,15579586
98,2,0.999419,0.00166243,0.0340053,0.00183085,-0.676746,-0.0829544,9.787,-0.123431,-0.689831,0.905629,-0.00676836,-0.000843208,0.0978698,1,6.89514e-05,-4.71235e-06,1.23475e-05,0.0137903,-0.000942471,0.0024695,0.999419,0.00166243,0.0340053,0.00183085,0.245035,0.564407,-0.886043,35.6875,3,24001,15579686
98,3,0.999419,0.00166243,0.0340053,0.00183085,-0.676746,-0.0829544,9.787,-0.123431,-0.689831,0.905629,-0.00676836,-0.000843208,0.0978698,1,6.89514e-05,-4.71235e-06,1.23475e-05,0.0137903,-0.000942471,0.0024695,0.999419,0.00166243,0.0340053,0.00183085,0.245035,0.564407,-0.886043,35.6875,3,24001,15579686
98,4,0.999419,0.00166243,0.0340053,0.00183085,-0.676746,-0.0829544,9.787,-0.123431,-0.689831,0.905629,-0.00676836,-0.000843208,0.0978698,1,6.89514e-05,-4.71235e-06,1.23475e-05,0.0137903,-0.000942471,0.0024695,0.999419,0.00166243,0.0340053,0.00183085,0.245035,0.564407,-0.886043,35.6875,3,24001,15579686
