source,frame_id,imu_idx,quat_w,quat_x,quat_y,quat_z,accel_x,accel_y,accel_z,free_accel_x,free_accel_y,free_accel_z,delta_v_x,delta_v_y,delta_v_z,delta_q_w,delta_q_x,delta_q_y,delta_q_z,rate_x,rate_y,rate_z,quat_w,quat_x,quat_y,quat_z,mag_x,mag_y,mag_z,temperature,status_byte,packet_counter,time_fine
right,4,1,0.99929,-0.0033471,0.037529,-6.70954e-05,-0.726999,-0.0733916,9.77706,0.390238,-0.0962172,0.863101,-0.00727161,-0.000740495,0.0977705,1,3.27733e-05,-8.35406e-06,1.17736e-05,0.00655465,-0.00167081,0.00235473,0.99929,-0.0033471,0.037529,-6.70954e-05,-0.244722,0.0958352,-0.91844,36.125,1,51891,44581839
right,8,1,0.99929,-0.0033471,0.037529,-6.70954e-05,-0.556839,-0.0527832,7.33891,0.390238,-0.0962172,0.863101,-0.0055678,-0.00053341,0.0733891,1,3.75062e-05,3.98983e-06,6.53952e-06,0.00750125,0.000797966,0.0013079,0.99929,-0.0033471,0.037529,-6.70954e-05,-0.249431,0.0962818,-0.913863,36.125,1,55350,44929186
right,8,2,0.99929,-0.0033471,0.037529,-6.70954e-05,-0.556839,-0.0527832,7.33891,0.390238,-0.0962172,0.863101,-0.0055678,-0.00053341,0.0733891,1,3.75062e-05,3.98983e-06,6.53952e-06,0.00750125,0.000797966,0.0013079,0.99929,-0.0033471,0.037529,-6.70954e-05,-0.249431,0.0962818,-0.913863,36.125,1,55350,44929186
right,8,3,0.99929,-0.0033471,0.037529,-6.70954e-05,-0.556839,-0.0527832,7.33891,0.390238,-0.0962172,0.863101,-0.0055678,-0.00053341,0.0733891,1,3.75062e-05,3.98983e-06,6.53952e-06,0.00750125,0.000797966,0.0013079,0.99929,-0.0033471,0.037529,-6.70954e-05,-0.249431,0.0962818,-0.913863,36.125,1,55350,44929186
right,8,4,0.999277,-0.00356764,0.0378428,-0.000129735,-0.723269,-0.078621,9.78004,0.402923,-0.0924688,0.861426,-0.0072344,-0.000796729,0.0978002,1,5.30817e-05,-8.80813e-06,9.41035e-06,0.0106163,-0.00176163,0.00188207,0.999277,-0.00356764,0.0378428,-0.000129735,-0.247053,0.0986917,-0.913315,36.125,1,55351,44929286
right,8,5,0.999277,-0.00356764,0.0378428,-0.000129735,-0.723269,-0.078621,9.78004,0.402923,-0.0924688,0.861426,-0.0072344,-0.000796729,0.0978002,1,5.30817e-05,-8.80813e-06,9.41035e-06,0.0106163,-0.00176163,0.00188207,0.999277,-0.00356764,0.0378428,-0.000129735,-0.247053,0.0986917,-0.913315,36.125,1,55351,44929286
right,8,6,0.999277,-0.00356764,0.0378428,-0.000129735,-0.723269,-0.078621,9.78004,0.402923,-0.0924688,0.861426,-0.0072344,-0.000796729,0.0978002,1,5.30817e-05,-8.80813e-06,9.41035e-06,0.0106163,-0.00176163,0.00188207,0.999277,-0.00356764,0.0378428,-0.000129735,-0.247053,0.0986917,-0.913315,36.125,1,55351,44929286
right,8,7,0.999277,-0.00353389,0.0378528,-0.000106373,-0.739935,-0.0769013,9.78492,0.387993,-0.0941592,0.866486,-0.00739937,-0.000777805,0.0978491,1,4.43179e-05,-1.95289e-07,8.02983e-06,0.00886358,-3.90578e-05,0.00160597,0.999277,-0.00353389,0.0378528,-0.000106373,-0.246515,0.0967186,-0.912352,36.125,1,55352,44929386
right,8,8,0.999277,-0.00353389,0.0378528,-0.000106373,-0.739935,-0.0769013,9.78492,0.387993,-0.0941592,0.866486,-0.00739937,-0.000777805,0.0978491,1,4.43179e-05,-1.95289e-07,8.02983e-06,0.00886358,-3.90578e-05,0.00160597,0.999277,-0.00353389,0.0378528,-0.000106373,-0.246515,0.0967186,-0.912352,36.125,1,55352,44929386
right,8,9,0.999277,-0.00353389,0.0378528,-0.000106373,-0.739935,-0.0769013,9.78492,0.387993,-0.0941592,0.866486,-0.00739937,-0.000777805,0.0978491,1,4.43179e-05,-1.95289e-07,8.02983e-06,0.00886358,-3.90578e-05,0.00160597,0.999277,-0.00353389,0.0378528,-0.000106373,-0.246515,0.0967186,-0.912352,36.125,1,55352,44929386
right,8,10,0.999277,-0.0034894,0.0378541,-8.94391e-05,-0.734554,-0.0722637,9.7778,0.389727,-0.0899266,0.859298,-0.00734525,-0.000731549,0.0977779,1,4.42062e-05,1.38062e-06,1.81829e-05,0.00884125,0.000276124,0.00363658,0.999277,-0.0034894,0.0378541,-8.94391e-05,-0.24647,0.0962037,-0.910848,36.125,1,55353,44929486
right,8,11,0.999277,-0.0034894,0.0378541,-8.94391e-05,-0.734554,-0.0722637,9.7778,0.389727,-0.0899266,0.859298,-0.00734525,-0.000731549,0.0977779,1,4.42062e-05,1.38062e-06,1.81829e-05,0.00884125,0.000276124,0.00363658,0.999277,-0.0034894,0.0378541,-8.94391e-05,-0.24647,0.0962037,-0.910848,36.125,1,55353,44929486
right,8,12,0.999277,-0.0034894,0.0378541,-8.94391e-05,-0.734554,-0.0722637,9.7778,0.389727,-0.0899266,0.859298,-0.00734525,-0.000731549,0.0977779,1,4.42062e-05,1.38062e-06,1.81829e-05,0.00884125,0.000276124,0.00363658,0.999277,-0.0034894,0.0378541,-8.94391e-05,-0.24647,0.0962037,-0.910848,36.125,1,55353,44929486
right,8,13,0.999278,-0.00344604,0.0378423,-8.17016e-05,-0.723519,-0.0771288,9.78888,0.404221,-0.0932484,0.866914,-0.00723749,-0.000779831,0.0978885,1,4.29414e-05,-1.18072e-05,9.41952e-06,0.00858829,-0.00236144,0.00188391,0.999278,-0.00344604,0.0378423,-8.17016e-05,-0.245442,0.0966294,-0.907813,36.125,1,55354,44929586
right,8,14,0.999278,-0.00344604,0.0378423,-8.17016e-05,-0.723519,-0.0771288,9.78888,0.404221,-0.0932484,0.866914,-0.00723749,-0.000779831,0.0978885,1,4.29414e-05,-1.18072e-05,9.41952e-06,0.00858829,-0.00236144,0.00188391,0.999278,-0.00344604,0.0378423,-8.17016e-05,-0.245442,0.0966294,-0.907813,36.125,1,55354,44929586
right,8,15,0.999278,-0.00344604,0.0378423,-8.17016e-05,-0.723519,-0.0771288,9.78888,0.404221,-0.0932484,0.866914,-0.00723749,-0.000779831,0.0978885,1,4.29414e-05,-1.18072e-05,9.41952e-06,0.00858829,-0.00236144,0.00188391,0.999278,-0.00344604,0.0378423,-8.17016e-05,-0.245442,0.0966294,-0.907813,36.125,1,55354,44929586
left,20,1,0.999279,-0.00340119,0.037829,-8.01937e-05,-0.735742,-0.0794796,9.78284,0.38412,-0.0997901,0.862416,-0.00736005,-0.000803599,0.0978281,1,4.47593e-05,-1.34579e-05,3.10329e-06,0.00895186,-0.00269158,0.000620658,0.999279,-0.00340119,0.037829,-8.01937e-05,-0.246901,0.097617,-0.907784,36.125,1,55355,44929686
left,20,2,0.999279,-0.00340119,0.037829,-8.01937e-05,-0.735742,-0.0794796,9.78284,0.38412,-0.0997901,0.862416,-0.00736005,-0.000803599,0.0978281,1,4.47593e-05,-1.34579e-05,3.10329e-06,0.00895186,-0.00269158,0.000620658,0.999279,-0.00340119,0.037829,-8.01937e-05,-0.246901,0.097617,-0.907784,36.125,1,55355,44929686
left,20,3,0.999279,-0.00340119,0.037829,-8.01937e-05,-0.735742,-0.0794796,9.78284,0.38412,-0.0997901,0.862416,-0.00736005,-0.000803599,0.0978281,1,4.47593e-05,-1.34579e-05,3.10329e-06,0.00895186,-0.00269158,0.000620658,0.999279,-0.00340119,0.037829,-8.01937e-05,-0.246901,0.097617,-0.907784,36.125,1,55355,44929686
left,20,4,0.999279,-0.00335088,0.0378227,-6.83046e-05,-0.729706,-0.0731725,9.77708,0.389306,-0.0934422,0.852848,-0.00729827,-0.000741833,0.0977707,1,5.07515e-05,-6.24874e-06,1.26322e-05,0.0101503,-0.00124975,0.00252643,0.999279,-0.00335088,0.0378227,-6.83046e-05,-0.248435,0.0986586,-0.910784,36.125,1,55356,44929786
right,9,1,0.999279,-0.00335088,0.0378227,-6.83046e-05,-0.729706,-0.0731725,9.77708,0.389306,-0.0934422,0.852848,-0.00729827,-0.000741833,0.0977707,1,5.07515e-05,-6.24874e-06,1.26322e-05,0.0101503,-0.00124975,0.00252643,0.999279,-0.00335088,0.0378227,-6.83046e-05,-0.248435,0.0986586,-0.910784,36.125,1,55356,44929786
right,9,2,0.999279,-0.00335088,0.0378227,-6.83046e-05,-0.729706,-0.0731725,9.77708,0.389306,-0.0934422,0.852848,-0.00729827,-0.000741833,0.0977707,1,5.07515e-05,-6.24874e-06,1.26322e-05,0.0101503,-0.00124975,0.00252643,0.999279,-0.00335088,0.0378227,-6.83046e-05,-0.248435,0.0986586,-0.910784,36.125,1,55356,44929786
right,9,3,0.999279,-0.00331365,0.0378208,-6.55947e-05,-0.730696,-0.0833616,9.78039,0.389268,-0.105848,0.854315,-0.00730743,-0.000840934,0.0978038,1,3.71151e-05,-2.4046e-06,4.01954e-06,0.00742301,-0.000480919,0.000803908,0.999279,-0.00331365,0.0378208,-6.55947e-05,-0.248986,0.0991954,-0.913295,36.125,1,55357,44929886
right,9,4,0.999279,-0.00331365,0.0378208,-6.55947e-05,-0.730696,-0.0833616,9.78039,0.389268,-0.105848,0.854315,-0.00730743,-0.000840934,0.0978038,1,3.71151e-05,-2.4046e-06,4.01954e-06,0.00742301,-0.000480919,0.000803908,0.999279,-0.00331365,0.0378208,-6.55947e-05,-0.248986,0.0991954,-0.913295,36.125,1,55357,44929886
right,9,5,0.999279,-0.00331365,0.0378208,-6.55947e-05,-0.730696,-0.0833616,9.78039,0.389268,-0.105848,0.854315,-0.00730743,-0.000840934,0.0978038,1,3.71151e-05,-2.4046e-06,4.01954e-06,0.00742301,-0.000480919,0.000803908,0.999279,-0.00331365,0.0378208,-6.55947e-05,-0.248986,0.0991954,-0.913295,36.125,1,55357,44929886
right,9,6,0.99928,-0.00327866,0.0378052,-4.45846e-05,-0.71783,-0.0621057,9.78389,0.406535,-0.0826614,0.864044,-0.00718146,-0.000628071,0.0978386,1,3.42243e-05,-1.62907e-05,2.20946e-05,0.00684486,-0.00325815,0.00441892,0.99928,-0.00327866,0.0378052,-4.45846e-05,-0.246976,0.0962258,-0.911855,36.125,1,55358,44929986
right,9,7,0.99928,-0.00327866,0.0378052,-4.45846e-05,-0.71783,-0.0621057,9.78389,0.406535,-0.0826614,0.864044,-0.00718146,-0.000628071,0.0978386,1,3.42243e-05,-1.62907e-05,2.20946e-05,0.00684486,-0.00325815,0.00441892,0.99928,-0.00327866,0.0378052,-4.45846e-05,-0.246976,0.0962258,-0.911855,36.125,1,55358,44929986
right,9,8,0.99928,-0.00327866,0.0378052,-4.45846e-05,-0.71783,-0.0621057,9.78389,0.406535,-0.0826614,0.864044,-0.00718146,-0.000628071,0.0978386,1,3.42243e-05,-1.62907e-05,2.20946e-05,0.00684486,-0.00325815,0.00441892,0.99928,-0.00327866,0.0378052,-4.45846e-05,-0.246976,0.0962258,-0.911855,36.125,1,55358,44929986
right,9,9,0.99928,-0.00323703,0.0378033,-3.33293e-05,-0.729843,-0.0695508,9.77982,0.393523,-0.0929658,0.862192,-0.00729876,-0.000703768,0.0977981,1,4.1278e-05,-1.76031e-06,1.2763e-05,0.00825561,-0.000352061,0.00255259,0.99928,-0.00323703,0.0378033,-3.33293e-05,-0.245422,0.0946874,-0.908361,36.125,1,55359,44930086
right,9,10,0.99928,-0.00323703,0.0378033,-3.33293e-05,-0.729843,-0.0695508,9.77982,0.393523,-0.0929658,0.862192,-0.00729876,-0.000703768,0.0977981,1,4.1278e-05,-1.76031e-06,1.2763e-05,0.00825561,-0.000352061,0.00255259,0.99928,-0.00323703,0.0378033,-3.33293e-05,-0.245422,0.0946874,-0.908361,36.125,1,55359,44930086
right,9,11,0.99928,-0.00323703,0.0378033,-3.33293e-05,-0.729843,-0.0695508,9.77982,0.393523,-0.0929658,0.862192,-0.00729876,-0.000703768,0.0977981,1,4.1278e-05,-1.76031e-06,1.2763e-05,0.00825561,-0.000352061,0.00255259,0.99928,-0.00323703,0.0378033,-3.33293e-05,-0.245422,0.0946874,-0.908361,36.125,1,55359,44930086
left,21,1,0.99928,-0.00320344,0.0378038,-2.51249e-05,-0.738647,-0.0724808,9.7863,0.384261,-0.0912366,0.868164,-0.00738645,-0.000731452,0.097863,1,3.32463e-05,5.02395e-08,9.28912e-06,0.00664926,1.00479e-05,0.00185782,0.99928,-0.00320344,0.0378038,-2.51249e-05,-0.245332,0.0936577,-0.905354,36.125,1,55360,44930186
left,21,2,0.99928,-0.00320344,0.0378038,-2.51249e-05,-0.738647,-0.0724808,9.7863,0.384261,-0.0912366,0.868164,-0.00738645,-0.000731452,0.097863,1,3.32463e-05,5.02395e-08,9.28912e-06,0.00664926,1.00479e-05,0.00185782,0.99928,-0.00320344,0.0378038,-2.51249e-05,-0.245332,0.0936577,-0.905354,36.125,1,55360,44930186
left,21,3,0.99928,-0.00320344,0.0378038,-2.51249e-05,-0.738647,-0.0724808,9.7863,0.384261,-0.0912366,0.868164,-0.00738645,-0.000731452,0.097863,1,3.32463e-05,5.02395e-08,9.28912e-06,0.00664926,1.00479e-05,0.00185782,0.99928,-0.00320344,0.0378038,-2.51249e-05,-0.245332,0.0936577,-0.905354,36.125,1,55360,44930186
left,21,4,0.999281,-0.00314917,0.037795,-1.30518e-05,-0.727967,-0.0779946,9.77737,0.394221,-0.100319,0.853948,-0.00728137,-0.000790683,0.0977735,1,5.38453e-05,-8.83294e-06,1.42341e-05,0.0107691,-0.00176659,0.00284682,0.999281,-0.00314917,0.037795,-1.30518e-05,-0.248321,0.0947204,-0.908852,36.125,1,55361,44930286
right,10,1,0.999281,-0.00314917,0.037795,-1.30518e-05,-0.727967,-0.0779946,9.77737,0.394221,-0.100319,0.853948,-0.00728137,-0.000790683,0.0977735,1,5.38453e-05,-8.83294e-06,1.42341e-05,0.0107691,-0.00176659,0.00284682,0.999281,-0.00314917,0.037795,-1.30518e-05,-0.248321,0.0947204,-0.908852,36.125,1,55361,44930286
right,10,2,0.999281,-0.00314917,0.037795,-1.30518e-05,-0.727967,-0.0779946,9.77737,0.394221,-0.100319,0.853948,-0.00728137,-0.000790683,0.0977735,1,5.38453e-05,-8.83294e-06,1.42341e-05,0.0107691,-0.00176659,0.00284682,0.999281,-0.00314917,0.037795,-1.30518e-05,-0.248321,0.0947204,-0.908852,36.125,1,55361,44930286
right,10,3,0.999281,-0.0031046,0.0377761,-1.23856e-05,-0.728563,-0.080851,9.78041,0.391193,-0.102593,0.854843,-0.00728934,-0.000817244,0.0978037,1,4.44706e-05,-1.89636e-05,2.40657e-06,0.00889413,-0.00379272,0.000481314,0.999281,-0.0031046,0.0377761,-1.23856e-05,-0.249414,0.0967516,-0.912843,36.125,1,55362,44930386
right,10,4,0.999281,-0.0031046,0.0377761,-1.23856e-05,-0.728563,-0.080851,9.78041,0.391193,-0.102593,0.854843,-0.00728934,-0.000817244,0.0978037,1,4.44706e-05,-1.89636e-05,2.40657e-06,0.00889413,-0.00379272,0.000481314,0.999281,-0.0031046,0.0377761,-1.23856e-05,-0.249414,0.0967516,-0.912843,36.125,1,55362,44930386
right,10,5,0.999281,-0.0031046,0.0377761,-1.23856e-05,-0.728563,-0.080851,9.78041,0.391193,-0.102593,0.854843,-0.00728934,-0.000817244,0.0978037,1,4.44706e-05,-1.89636e-05,2.40657e-06,0.00889413,-0.00379272,0.000481314,0.999281,-0.0031046,0.0377761,-1.23856e-05,-0.249414,0.0967516,-0.912843,36.125,1,55362,44930386
right,10,6,0.999282,-0.00306233,0.0377591,1.03387e-05,-0.734957,-0.0812866,9.78452,0.391275,-0.106333,0.862027,-0.00735282,-0.000821338,0.0978449,1,4.14625e-05,-1.68104e-05,2.4367e-05,0.00829251,-0.00336209,0.0048734,0.999282,-0.00306233,0.0377591,1.03387e-05,-0.247082,0.0967857,-0.915883,36.125,1,55363,44930486
right,10,7,0.999282,-0.00306233,0.0377591,1.03387e-05,-0.734957,-0.0812866,9.78452,0.391275,-0.106333,0.862027,-0.00735282,-0.000821338,0.0978449,1,4.14625e-05,-1.68104e-05,2.4367e-05,0.00829251,-0.00336209,0.0048734,0.999282,-0.00306233,0.0377591,1.03387e-05,-0.247082,0.0967857,-0.915883,36.125,1,55363,44930486
right,10,8,0.999282,-0.00306233,0.0377591,1.03387e-05,-0.734957,-0.0812866,9.78452,0.391275,-0.106333,0.862027,-0.00735282,-0.000821338,0.0978449,1,4.14625e-05,-1.68104e-05,2.4367e-05,0.00829251,-0.00336209,0.0048734,0.999282,-0.00306233,0.0377591,1.03387e-05,-0.247082,0.0967857,-0.915883,36.125,1,55363,44930486
right,10,9,0.999282,-0.00301194,0.0377596,2.40157e-05,-0.737752,-0.0911079,9.78682,0.38349,-0.122338,0.864599,-0.00737741,-0.000921075,0.0978681,1,4.98835e-05,3.81639e-07,1.57131e-05,0.00997671,7.63278e-05,0.00314263,0.999282,-0.00301194,0.0377596,2.40157e-05,-0.246516,0.093828,-0.914436,36.125,1,55364,44930586
right,10,10,0.999282,-0.00301194,0.0377596,2.40157e-05,-0.737752,-0.0911079,9.78682,0.38349,-0.122338,0.864599,-0.00737741,-0.000921075,0.0978681,1,4.98835e-05,3.81639e-07,1.57131e-05,0.00997671,7.63278e-05,0.00314263,0.999282,-0.00301194,0.0377596,2.40157e-05,-0.246516,0.093828,-0.914436,36.125,1,55364,44930586
right,10,11,0.999282,-0.00301194,0.0377596,2.40157e-05,-0.737752,-0.0911079,9.78682,0.38349,-0.122338,0.864599,-0.00737741,-0.000921075,0.0978681,1,4.98835e-05,3.81639e-07,1.57131e-05,0.00997671,7.63278e-05,0.00314263,0.999282,-0.00301194,0.0377596,2.40157e-05,-0.246516,0.093828,-0.914436,36.125,1,55364,44930586
left,22,1,0.999282,-0.00296861,0.0377594,3.70322e-05,-0.728011,-0.073065,9.78656,0.396217,-0.0996719,0.87167,-0.00728018,-0.000739281,0.0978656,1,4.3003e-05,-4.80615e-07,1.46532e-05,0.0086006,-9.61231e-05,0.00293064,0.999282,-0.00296861,0.0377594,3.70322e-05,-0.245891,0.0932371,-0.908897,36.125,1,55365,44930686
left,22,2,0.999282,-0.00296861,0.0377594,3.70322e-05,-0.728011,-0.073065,9.78656,0.396217,-0.0996719,0.87167,-0.00728018,-0.000739281,0.0978656,1,4.3003e-05,-4.80615e-07,1.46532e-05,0.0086006,-9.61231e-05,0.00293064,0.999282,-0.00296861,0.0377594,3.70322e-05,-0.245891,0.0932371,-0.908897,36.125,1,55365,44930686
left,22,3,0.999282,-0.00296861,0.0377594,3.70322e-05,-0.728011,-0.073065,9.78656,0.396217,-0.0996719,0.87167,-0.00728018,-0.000739281,0.0978656,1,4.3003e-05,-4.80615e-07,1.46532e-05,0.0086006,-9.61231e-05,0.00293064,0.999282,-0.00296861,0.0377594,3.70322e-05,-0.245891,0.0932371,-0.908897,36.125,1,55365,44930686
left,22,4,0.999283,-0.00291558,0.0377523,4.9776e-05,-0.727292,-0.0770284,9.78348,0.394013,-0.101546,0.862132,-0.00727429,-0.00078082,0.0978346,1,5.27483e-05,-7.1341e-06,1.47446e-05,0.0105497,-0.00142682,0.00294892,0.999283,-0.00291558,0.0377523,4.9776e-05,-0.245368,0.09513,-0.905827,36.125,1,55366,44930786
right,11,1,0.999283,-0.00291558,0.0377523,4.9776e-05,-0.727292,-0.0770284,9.78348,0.394013,-0.101546,0.862132,-0.00727429,-0.00078082,0.0978346,1,5.27483e-05,-7.1341e-06,1.47446e-05,0.0105497,-0.00142682,0.00294892,0.999283,-0.00291558,0.0377523,4.9776e-05,-0.245368,0.09513,-0.905827,36.125,1,55366,44930786
right,11,2,0.999283,-0.00291558,0.0377523,4.9776e-05,-0.727292,-0.0770284,9.78348,0.394013,-0.101546,0.862132,-0.00727429,-0.00078082,0.0978346,1,5.27483e-05,-7.1341e-06,1.47446e-05,0.0105497,-0.00142682,0.00294892,0.999283,-0.00291558,0.0377523,4.9776e-05,-0.245368,0.09513,-0.905827,36.125,1,55366,44930786
right,11,3,0.999284,-0.00287639,0.0377385,5.84701e-05,-0.730629,-0.0789065,9.78111,0.392662,-0.105116,0.858078,-0.00730894,-0.000796866,0.0978108,1,3.91306e-05,-1.36156e-05,1.00693e-05,0.00782612,-0.00272312,0.00201386,0.999284,-0.00287639,0.0377385,5.84701e-05,-0.246445,0.097631,-0.908796,36.125,1,55367,44930886
right,11,4,0.999284,-0.00287639,0.0377385,5.84701e-05,-0.730629,-0.0789065,9.78111,0.392662,-0.105116,0.858078,-0.00730894,-0.000796866,0.0978108,1,3.91306e-05,-1.36156e-05,1.00693e-05,0.00782612,-0.00272312,0.00201386,0.999284,-0.00287639,0.0377385,5.84701e-05,-0.246445,0.097631,-0.908796,36.125,1,55367,44930886
right,11,5,0.999284,-0.00287639,0.0377385,5.84701e-05,-0.730629,-0.0789065,9.78111,0.392662,-0.105116,0.858078,-0.00730894,-0.000796866,0.0978108,1,3.91306e-05,-1.36156e-05,1.00693e-05,0.00782612,-0.00272312,0.00201386,0.999284,-0.00287639,0.0377385,5.84701e-05,-0.246445,0.097631,-0.908796,36.125,1,55367,44930886
right,11,6,0.999284,-0.00283803,0.0377273,6.86041e-05,-0.734041,-0.0796322,9.78622,0.387776,-0.110636,0.860926,-0.00734251,-0.000803972,0.097862,1,3.81991e-05,-1.0796e-05,1.18148e-05,0.00763982,-0.0021592,0.00236295,0.999284,-0.00283803,0.0377273,6.86041e-05,-0.247489,0.0981809,-0.91181,36.125,1,55368,44930986
right,11,7,0.999284,-0.00283803,0.0377273,6.86041e-05,-0.734041,-0.0796322,9.78622,0.387776,-0.110636,0.860926,-0.00734251,-0.000803972,0.097862,1,3.81991e-05,-1.0796e-05,1.18148e-05,0.00763982,-0.0021592,0.00236295,0.999284,-0.00283803,0.0377273,6.86041e-05,-0.247489,0.0981809,-0.91181,36.125,1,55368,44930986
right,11,8,0.999284,-0.00283803,0.0377273,6.86041e-05,-0.734041,-0.0796322,9.78622,0.387776,-0.110636,0.860926,-0.00734251,-0.000803972,0.097862,1,3.81991e-05,-1.0796e-05,1.18148e-05,0.00763982,-0.0021592,0.00236295,0.999284,-0.00283803,0.0377273,6.86041e-05,-0.247489,0.0981809,-0.91181,36.125,1,55368,44930986
right,11,9,0.999284,-0.00279042,0.0377292,8.41458e-05,-0.740014,-0.0762944,9.77814,0.378528,-0.108989,0.854759,-0.00739973,-0.00077247,0.0977813,1,4.74043e-05,1.97259e-06,1.72835e-05,0.00948086,0.000394517,0.0034567,0.999284,-0.00279042,0.0377292,8.41458e-05,-0.247506,0.0962658,-0.913872,36.125,1,55369,44931086
right,11,10,0.999284,-0.00279042,0.0377292,8.41458e-05,-0.740014,-0.0762944,9.77814,0.378528,-0.108989,0.854759,-0.00739973,-0.00077247,0.0977813,1,4.74043e-05,1.97259e-06,1.72835e-05,0.00948086,0.000394517,0.0034567,0.999284,-0.00279042,0.0377292,8.41458e-05,-0.247506,0.0962658,-0.913872,36.125,1,55369,44931086
right,11,11,0.999284,-0.00279042,0.0377292,8.41458e-05,-0.740014,-0.0762944,9.77814,0.378528,-0.108989,0.854759,-0.00739973,-0.00077247,0.0977813,1,4.74043e-05,1.97259e-06,1.72835e-05,0.00948086,0.000394517,0.0034567,0.999284,-0.00279042,0.0377292,8.41458e-05,-0.247506,0.0962658,-0.913872,36.125,1,55369,44931086
left,23,1,0.999284,-0.00273057,0.037736,8.16843e-05,-0.732495,-0.0851157,9.78106,0.390331,-0.119666,0.86166,-0.00732355,-0.000862974,0.0978106,1,6.04149e-05,7.1747e-06,-7.26516e-08,0.012083,0.00143494,-1.45303e-05,0.999284,-0.00273057,0.037736,8.16843e-05,-0.245517,0.093793,-0.912926,36.125,1,55370,44931186
left,23,2,0.999284,-0.00273057,0.037736,8.16843e-05,-0.732495,-0.0851157,9.78106,0.390331,-0.119666,0.86166,-0.00732355,-0.000862974,0.0978106,1,6.04149e-05,7.1747e-06,-7.26516e-08,0.012083,0.00143494,-1.45303e-05,0.999284,-0.00273057,0.037736,8.16843e-05,-0.245517,0.093793,-0.912926,36.125,1,55370,44931186
left,23,3,0.999284,-0.00273057,0.037736,8.16843e-05,-0.732495,-0.0851157,9.78106,0.390331,-0.119666,0.86166,-0.00732355,-0.000862974,0.0978106,1,6.04149e-05,7.1747e-06,-7.26516e-08,0.012083,0.00143494,-1.45303e-05,0.999284,-0.00273057,0.037736,8.16843e-05,-0.245517,0.093793,-0.912926,36.125,1,55370,44931186
left,23,4,0.999284,-0.00268588,0.0377274,9.29393e-05,-0.729327,-0.0722333,9.78082,0.393566,-0.106832,0.860601,-0.00729491,-0.000731252,0.097808,1,4.46197e-05,-8.48059e-06,1.31202e-05,0.00892395,-0.00169612,0.00262403,0.999284,-0.00268588,0.0377274,9.29393e-05,-0.246409,0.0947134,-0.909366,36.125,1,55371,44931286
right,12,1,0.999284,-0.00268588,0.0377274,9.29393e-05,-0.729327,-0.0722333,9.78082,0.393566,-0.106832,0.860601,-0.00729491,-0.000731252,0.097808,1,4.46197e-05,-8.48059e-06,1.31202e-05,0.00892395,-0.00169612,0.00262403,0.999284,-0.00268588,0.0377274,9.29393e-05,-0.246409,0.0947134,-0.909366,36.125,1,55371,44931286
right,12,2,0.999284,-0.00268588,0.0377274,9.29393e-05,-0.729327,-0.0722333,9.78082,0.393566,-0.106832,0.860601,-0.00729491,-0.000731252,0.097808,1,4.46197e-05,-8.48059e-06,1.31202e-05,0.00892395,-0.00169612,0.00262403,0.999284,-0.00268588,0.0377274,9.29393e-05,-0.246409,0.0947134,-0.909366,36.125,1,55371,44931286
right,12,3,0.999285,-0.00264046,0.0377196,9.94777e-05,-0.725989,-0.0780314,9.78142,0.394439,-0.110138,0.86049,-0.00726134,-0.000789365,0.0978141,1,4.56236e-05,-7.48034e-06,8.61862e-06,0.00912472,-0.00149607,0.00172372,0.999285,-0.00264046,0.0377196,9.94777e-05,-0.24494,0.0961286,-0.907321,36.125,1,55372,44931386
right,12,4,0.999285,-0.00264046,0.0377196,9.94777e-05,-0.725989,-0.0780314,9.78142,0.394439,-0.110138,0.86049,-0.00726134,-0.000789365,0.0978141,1,4.56236e-05,-7.48034e-06,8.61862e-06,0.00912472,-0.00149607,0.00172372,0.999285,-0.00264046,0.0377196,9.94777e-05,-0.24494,0.0961286,-0.907321,36.125,1,55372,44931386
right,12,5,0.999285,-0.00264046,0.0377196,9.94777e-05,-0.725989,-0.0780314,9.78142,0.394439,-0.110138,0.86049,-0.00726134,-0.000789365,0.0978141,1,4.56236e-05,-7.48034e-06,8.61862e-06,0.00912472,-0.00149607,0.00172372,0.999285,-0.00264046,0.0377196,9.94777e-05,-0.24494,0.0961286,-0.907321,36.125,1,55372,44931386
right,12,6,0.999285,-0.00258201,0.0377203,0.000114647,-0.733182,-0.0707926,9.78255,0.386242,-0.108403,0.86367,-0.00733162,-0.000719603,0.0978254,1,5.83605e-05,9.06887e-07,1.76465e-05,0.0116721,0.000181377,0.0035293,0.999285,-0.00258201,0.0377203,0.000114647,-0.244557,0.0990873,-0.909278,36.125,1,55373,44931486
right,12,7,0.999285,-0.00258201,0.0377203,0.000114647,-0.733182,-0.0707926,9.78255,0.386242,-0.108403,0.86367,-0.00733162,-0.000719603,0.0978254,1,5.83605e-05,9.06887e-07,1.76465e-05,0.0116721,0.000181377,0.0035293,0.999285,-0.00258201,0.0377203,0.000114647,-0.244557,0.0990873,-0.909278,36.125,1,55373,44931486
right,12,8,0.999285,-0.00258201,0.0377203,0.000114647,-0.733182,-0.0707926,9.78255,0.386242,-0.108403,0.86367,-0.00733162,-0.000719603,0.0978254,1,5.83605e-05,9.06887e-07,1.76465e-05,0.0116721,0.000181377,0.0035293,0.999285,-0.00258201,0.0377203,0.000114647,-0.244557,0.0990873,-0.909278,36.125,1,55373,44931486
right,12,9,0.999286,-0.0025279,0.0377064,0.000133667,-0.719798,-0.0663529,9.78692,0.399383,-0.0983386,0.861746,-0.00720049,-0.000674433,0.0978689,1,5.41378e-05,-1.29845e-05,2.1314e-05,0.0108276,-0.00259691,0.00426281,0.999286,-0.0025279,0.0377064,0.000133667,-0.246062,0.0976991,-0.912837,36.125,1,55374,44931586
right,12,10,0.999286,-0.0025279,0.0377064,0.000133667,-0.719798,-0.0663529,9.78692,0.399383,-0.0983386,0.861746,-0.00720049,-0.000674433,0.0978689,1,5.41378e-05,-1.29845e-05,2.1314e-05,0.0108276,-0.00259691,0.00426281,0.999286,-0.0025279,0.0377064,0.000133667,-0.246062,0.0976991,-0.912837,36.125,1,55374,44931586
right,12,11,0.999286,-0.0025279,0.0377064,0.000133667,-0.719798,-0.0663529,9.78692,0.399383,-0.0983386,0.861746,-0.00720049,-0.000674433,0.0978689,1,5.41378e-05,-1.29845e-05,2.1314e-05,0.0108276,-0.00259691,0.00426281,0.999286,-0.0025279,0.0377064,0.000133667,-0.246062,0.0976991,-0.912837,36.125,1,55374,44931586
left,24,1,0.999287,-0.00247903,0.0376862,0.000149778,-0.737366,-0.0821896,9.78012,0.377524,-0.12657,0.857617,-0.00737755,-0.00083173,0.0978008,1,4.89037e-05,-2.00553e-05,1.81925e-05,0.00978073,-0.00401106,0.0036385,0.999287,-0.00247903,0.0376862,0.000149778,-0.247001,0.0947985,-0.913907,36.125,1,55375,44931686
left,24,2,0.999287,-0.00247903,0.0376862,0.000149778,-0.737366,-0.0821896,9.78012,0.377524,-0.12657,0.857617,-0.00737755,-0.00083173,0.0978008,1,4.89037e-05,-2.00553e-05,1.81925e-05,0.00978073,-0.00401106,0.0036385,0.999287,-0.00247903,0.0376862,0.000149778,-0.247001,0.0947985,-0.913907,36.125,1,55375,44931686
left,24,3,0.999287,-0.00247903,0.0376862,0.000149778,-0.737366,-0.0821896,9.78012,0.377524,-0.12657,0.857617,-0.00737755,-0.00083173,0.0978008,1,4.89037e-05,-2.00553e-05,1.81925e-05,0.00978073,-0.00401106,0.0036385,0.999287,-0.00247903,0.0376862,0.000149778,-0.247001,0.0947985,-0.913907,36.125,1,55375,44931686
left,24,4,0.999287,-0.00244444,0.0376879,0.000157459,-0.73389,-0.0748641,9.78625,0.384798,-0.115249,0.867873,-0.00733843,-0.000755645,0.0978625,1,3.50884e-05,2.32643e-06,9.29103e-06,0.00701768,0.000465285,0.00185821,0.999287,-0.00244444,0.0376879,0.000157459,-0.246486,0.095734,-0.911869,36.125,1,55376,44931786
right,10,1,0.999287,-0.00244444,0.0376879,0.000157459,-0.73389,-0.0748641,9.78625,0.384798,-0.115249,0.867873,-0.00733843,-0.000755645,0.0978625,1,3.50884e-05,2.32643e-06,9.29103e-06,0.00701768,0.000465285,0.00185821,0.999287,-0.00244444,0.0376879,0.000157459,-0.246486,0.095734,-0.911869,36.125,1,55376,44931786
right,10,2,0.999287,-0.00244444,0.0376879,0.000157459,-0.73389,-0.0748641,9.78625,0.384798,-0.115249,0.867873,-0.00733843,-0.000755645,0.0978625,1,3.50884e-05,2.32643e-06,9.29103e-06,0.00701768,0.000465285,0.00185821,0.999287,-0.00244444,0.0376879,0.000157459,-0.246486,0.095734,-0.911869,36.125,1,55376,44931786
right,10,3,0.999287,-0.00240867,0.0376726,0.000165583,-0.726211,-0.0710157,9.78624,0.395537,-0.109002,0.867905,-0.00726504,-0.000717408,0.0978621,1,3.63366e-05,-1.50762e-05,9.56453e-06,0.00726732,-0.00301524,0.00191291,0.999287,-0.00240867,0.0376726,0.000165583,-0.245492,0.0952202,-0.910875,36.125,1,55377,44931886
right,10,4,0.999287,-0.00240867,0.0376726,0.000165583,-0.726211,-0.0710157,9.78624,0.395537,-0.109002,0.867905,-0.00726504,-0.000717408,0.0978621,1,3.63366e-05,-1.50762e-05,9.56453e-06,0.00726732,-0.00301524,0.00191291,0.999287,-0.00240867,0.0376726,0.000165583,-0.245492,0.0952202,-0.910875,36.125,1,55377,44931886
right,10,5,0.999287,-0.00240867,0.0376726,0.000165583,-0.726211,-0.0710157,9.78624,0.395537,-0.109002,0.867905,-0.00726504,-0.000717408,0.0978621,1,3.63366e-05,-1.50762e-05,9.56453e-06,0.00726732,-0.00301524,0.00191291,0.999287,-0.00240867,0.0376726,0.000165583,-0.245492,0.0952202,-0.910875,36.125,1,55377,44931886
right,10,6,0.999288,-0.00236382,0.0376535,0.000182536,-0.733619,-0.0890532,9.78207,0.381961,-0.129849,0.859348,-0.00733975,-0.000899644,0.0978203,1,4.51487e-05,-1.83802e-05,1.90291e-05,0.00902974,-0.00367604,0.00380581,0.999288,-0.00236382,0.0376535,0.000182536,-0.246376,0.0942076,-0.908368,36.125,1,55378,44931986
right,10,7,0.999288,-0.00236382,0.0376535,0.000182536,-0.733619,-0.0890532,9.78207,0.381961,-0.129849,0.859348,-0.00733975,-0.000899644,0.0978203,1,4.51487e-05,-1.83802e-05,1.90291e-05,0.00902974,-0.00367604,0.00380581,0.999288,-0.00236382,0.0376535,0.000182536,-0.246376,0.0942076,-0.908368,36.125,1,55378,44931986
right,10,8,0.999288,-0.00236382,0.0376535,0.000182536,-0.733619,-0.0890532,9.78207,0.381961,-0.129849,0.859348,-0.00733975,-0.000899644,0.0978203,1,4.51487e-05,-1.83802e-05,1.90291e-05,0.00902974,-0.00367604,0.00380581,0.999288,-0.00236382,0.0376535,0.000182536,-0.246376,0.0942076,-0.908368,36.125,1,55378,44931986
right,10,9,0.999289,-0.00231314,0.0376322,0.000183104,-0.728466,-0.0709822,9.79169,0.38804,-0.113614,0.868771,-0.00728877,-0.000720028,0.0979165,1,5.19154e-05,-2.10223e-05,2.68557e-06,0.0103831,-0.00420445,0.000537113,0.999289,-0.00231314,0.0376322,0.000183104,-0.247383,0.0961757,-0.908824,36.125,1,55379,44932086
right,10,10,0.999289,-0.00231314,0.0376322,0.000183104,-0.728466,-0.0709822,9.79169,0.38804,-0.113614,0.868771,-0.00728877,-0.000720028,0.0979165,1,5.19154e-05,-2.10223e-05,2.68557e-06,0.0103831,-0.00420445,0.000537113,0.999289,-0.00231314,0.0376322,0.000183104,-0.247383,0.0961757,-0.908824,36.125,1,55379,44932086
right,10,11,0.999289,-0.00231314,0.0376322,0.000183104,-0.728466,-0.0709822,9.79169,0.38804,-0.113614,0.868771,-0.00728877,-0.000720028,0.0979165,1,5.19154e-05,-2.10223e-05,2.68557e-06,0.0103831,-0.00420445,0.000537113,0.999289,-0.00231314,0.0376322,0.000183104,-0.247383,0.0961757,-0.908824,36.125,1,55379,44932086
left,25,1,0.999289,-0.00226149,0.0376308,0.000189,-0.723613,-0.0790758,9.78682,0.393877,-0.124357,0.862159,-0.00723627,-0.000801176,0.0978681,1,5.2616e-05,-7.93434e-07,8.23305e-06,0.0105232,-0.000158687,0.00164661,0.999289,-0.00226149,0.0376308,0.000189,-0.247453,0.0967085,-0.911337,36.125,1,55380,44932186
left,25,2,0.999289,-0.00226149,0.0376308,0.000189,-0.723613,-0.0790758,9.78682,0.393877,-0.124357,0.862159,-0.00723627,-0.000801176,0.0978681,1,5.2616e-05,-7.93434e-07,8.23305e-06,0.0105232,-0.000158687,0.00164661,0.999289,-0.00226149,0.0376308,0.000189,-0.247453,0.0967085,-0.911337,36.125,1,55380,44932186
left,25,3,0.999289,-0.00226149,0.0376308,0.000189,-0.723613,-0.0790758,9.78682,0.393877,-0.124357,0.862159,-0.00723627,-0.000801176,0.0978681,1,5.2616e-05,-7.93434e-07,8.23305e-06,0.0105232,-0.000158687,0.00164661,0.999289,-0.00226149,0.0376308,0.000189,-0.247453,0.0967085,-0.911337,36.125,1,55380,44932186
left,25,4,0.99929,-0.00222039,0.0376082,0.000202224,-0.736535,-0.0806891,9.7937,0.382781,-0.127053,0.869768,-0.00736972,-0.000815322,0.0979366,1,4.19227e-05,-2.24408e-05,1.49122e-05,0.00838454,-0.00448816,0.00298244,0.99929,-0.00222039,0.0376082,0.000202224,-0.24793,0.095746,-0.911862,36.125,1,55381,44932286
right,14,1,0.99929,-0.00222039,0.0376082,0.000202224,-0.736535,-0.0806891,9.7937,0.382781,-0.127053,0.869768,-0.00736972,-0.000815322,0.0979366,1,4.19227e-05,-2.24408e-05,1.49122e-05,0.00838454,-0.00448816,0.00298244,0.99929,-0.00222039,0.0376082,0.000202224,-0.24793,0.095746,-0.911862,36.125,1,55381,44932286
right,14,2,0.99929,-0.00222039,0.0376082,0.000202224,-0.736535,-0.0806891,9.7937,0.382781,-0.127053,0.869768,-0.00736972,-0.000815322,0.0979366,1,4.19227e-05,-2.24408e-05,1.49122e-05,0.00838454,-0.00448816,0.00298244,0.99929,-0.00222039,0.0376082,0.000202224,-0.24793,0.095746,-0.911862,36.125,1,55381,44932286
right,14,3,0.999291,-0.00217519,0.0375995,0.000212001,-0.729253,-0.0785246,9.79297,0.388207,-0.128707,0.875207,-0.00729414,-0.000794459,0.0979295,1,4.6162e-05,-8.29984e-06,1.18092e-05,0.00923239,-0.00165997,0.00236183,0.999291,-0.00217519,0.0375995,0.000212001,-0.248362,0.0942687,-0.910882,36.125,1,55382,44932386
right,14,4,0.999291,-0.00217519,0.0375995,0.000212001,-0.729253,-0.0785246,9.79297,0.388207,-0.128707,0.875207,-0.00729414,-0.000794459,0.0979295,1,4.6162e-05,-8.29984e-06,1.18092e-05,0.00923239,-0.00165997,0.00236183,0.999291,-0.00217519,0.0375995,0.000212001,-0.248362,0.0942687,-0.910882,36.125,1,55382,44932386
right,14,5,0.999291,-0.00217519,0.0375995,0.000212001,-0.729253,-0.0785246,9.79297,0.388207,-0.128707,0.875207,-0.00729414,-0.000794459,0.0979295,1,4.6162e-05,-8.29984e-06,1.18092e-05,0.00923239,-0.00165997,0.00236183,0.999291,-0.00217519,0.0375995,0.000212001,-0.248362,0.0942687,-0.910882,36.125,1,55382,44932386
right,14,6,0.999291,-0.00214395,0.0375815,0.000223685,-0.725843,-0.0740694,9.78181,0.393601,-0.120321,0.863227,-0.0072619,-0.000747195,0.0978177,1,3.22462e-05,-1.7805e-05,1.32656e-05,0.00644924,-0.003561,0.00265312,0.999291,-0.00214395,0.0375815,0.000223685,-0.244986,0.0951982,-0.909867,36.125,1,55383,44932486
right,14,7,0.999291,-0.00214395,0.0375815,0.000223685,-0.725843,-0.0740694,9.78181,0.393601,-0.120321,0.863227,-0.0072619,-0.000747195,0.0978177,1,3.22462e-05,-1.7805e-05,1.32656e-05,0.00644924,-0.003561,0.00265312,0.999291,-0.00214395,0.0375815,0.000223685,-0.244986,0.0951982,-0.909867,36.125,1,55383,44932486
right,14,8,0.999291,-0.00214395,0.0375815,0.000223685,-0.725843,-0.0740694,9.78181,0.393601,-0.120321,0.863227,-0.0072619,-0.000747195,0.0978177,1,3.22462e-05,-1.7805e-05,1.32656e-05,0.00644924,-0.003561,0.00265312,0.999291,-0.00214395,0.0375815,0.000223685,-0.244986,0.0951982,-0.909867,36.125,1,55383,44932486
right,14,9,0.999291,-0.00209207,0.0375786,0.000231516,-0.725707,-0.0714563,9.78385,0.391713,-0.117887,0.865649,-0.00725751,-0.000725125,0.0978384,1,5.32158e-05,-2.33935e-06,1.02577e-05,0.0106432,-0.000467869,0.00205154,0.999291,-0.00209207,0.0375786,0.000231516,-0.243473,0.0946533,-0.907361,36.125,1,55384,44932586
right,14,10,0.999291,-0.00209207,0.0375786,0.000231516,-0.725707,-0.0714563,9.78385,0.391713,-0.117887,0.865649,-0.00725751,-0.000725125,0.0978384,1,5.32158e-05,-2.33935e-06,1.02577e-05,0.0106432,-0.000467869,0.00205154,0.999291,-0.00209207,0.0375786,0.000231516,-0.243473,0.0946533,-0.907361,36.125,1,55384,44932586
right,14,11,0.999291,-0.00209207,0.0375786,0.000231516,-0.725707,-0.0714563,9.78385,0.391713,-0.117887,0.865649,-0.00725751,-0.000725125,0.0978384,1,5.32158e-05,-2.33935e-06,1.02577e-05,0.0106432,-0.000467869,0.00205154,0.999291,-0.00209207,0.0375786,0.000231516,-0.243473,0.0946533,-0.907361,36.125,1,55384,44932586
left,26,1,0.999292,-0.00203366,0.0375584,0.000235808,-0.728862,-0.076906,9.78418,0.385522,-0.123182,0.857879,-0.00729239,-0.000780893,0.0978414,1,5.9938e-05,-1.93643e-05,7.18784e-06,0.0119876,-0.00387286,0.00143757,0.999292,-0.00203366,0.0375584,0.000235808,-0.246861,0.0951781,-0.907839,36.125,1,55385,44932686
left,26,2,0.999292,-0.00203366,0.0375584,0.000235808,-0.728862,-0.076906,9.78418,0.385522,-0.123182,0.857879,-0.00729239,-0.000780893,0.0978414,1,5.9938e-05,-1.93643e-05,7.18784e-06,0.0119876,-0.00387286,0.00143757,0.999292,-0.00203366,0.0375584,0.000235808,-0.246861,0.0951781,-0.907839,36.125,1,55385,44932686
left,26,3,0.999292,-0.00203366,0.0375584,0.000235808,-0.728862,-0.076906,9.78418,0.385522,-0.123182,0.857879,-0.00729239,-0.000780893,0.0978414,1,5.9938e-05,-1.93643e-05,7.18784e-06,0.0119876,-0.00387286,0.00143757,0.999292,-0.00203366,0.0375584,0.000235808,-0.246861,0.0951781,-0.907839,36.125,1,55385,44932686
left,26,4,0.999293,-0.00197641,0.0375537,0.000239381,-0.732416,-0.0752881,9.78692,0.383521,-0.123894,0.863418,-0.00732497,-0.000764474,0.097869,1,5.87348e-05,-4.22101e-06,6.56202e-06,0.011747,-0.000844202,0.0013124,0.999293,-0.00197641,0.0375537,0.000239381,-0.247481,0.0962478,-0.912863,36.125,1,55386,44932786
right,15,1,0.999293,-0.00197641,0.0375537,0.000239381,-0.732416,-0.0752881,9.78692,0.383521,-0.123894,0.863418,-0.00732497,-0.000764474,0.097869,1,5.87348e-05,-4.22101e-06,6.56202e-06,0.011747,-0.000844202,0.0013124,0.999293,-0.00197641,0.0375537,0.000239381,-0.247481,0.0962478,-0.912863,36.125,1,55386,44932786
right,15,2,0.999293,-0.00197641,0.0375537,0.000239381,-0.732416,-0.0752881,9.78692,0.383521,-0.123894,0.863418,-0.00732497,-0.000764474,0.097869,1,5.87348e-05,-4.22101e-06,6.56202e-06,0.011747,-0.000844202,0.0013124,0.999293,-0.00197641,0.0375537,0.000239381,-0.247481,0.0962478,-0.912863,36.125,1,55386,44932786
right,15,3,0.999293,-0.00194247,0.0375463,0.000250016,-0.728721,-0.0686587,9.7822,0.387676,-0.117963,0.858586,-0.00728852,-0.000693719,0.0978219,1,3.55282e-05,-6.76142e-06,1.24274e-05,0.00710563,-0.00135229,0.00248548,0.999293,-0.00194247,0.0375463,0.000250016,-0.248452,0.0952983,-0.913889,36.125,1,55387,44932886
right,15,4,0.999293,-0.00194247,0.0375463,0.000250016,-0.728721,-0.0686587,9.7822,0.387676,-0.117963,0.858586,-0.00728852,-0.000693719,0.0978219,1,3.55282e-05,-6.76142e-06,1.24274e-05,0.00710563,-0.00135229,0.00248548,0.999293,-0.00194247,0.0375463,0.000250016,-0.248452,0.0952983,-0.913889,36.125,1,55387,44932886
right,15,5,0.999293,-0.00194247,0.0375463,0.000250016,-0.728721,-0.0686587,9.7822,0.387676,-0.117963,0.858586,-0.00728852,-0.000693719,0.0978219,1,3.55282e-05,-6.76142e-06,1.24274e-05,0.00710563,-0.00135229,0.00248548,0.999293,-0.00194247,0.0375463,0.000250016,-0.248452,0.0952983,-0.913889,36.125,1,55387,44932886
right,15,6,0.999294,-0.00189831,0.0375183,0.000260352,-0.734882,-0.0784562,9.78489,0.382543,-0.130466,0.867312,-0.00735413,-0.000793717,0.0978484,1,4.58341e-05,-2.72673e-05,1.25766e-05,0.00916681,-0.00545347,0.00251532,0.999294,-0.00189831,0.0375183,0.000260352,-0.247396,0.0947394,-0.910371,36.125,1,55388,44932986
right,15,7,0.999294,-0.00189831,0.0375183,0.000260352,-0.734882,-0.0784562,9.78489,0.382543,-0.130466,0.867312,-0.00735413,-0.000793717,0.0978484,1,4.58341e-05,-2.72673e-05,1.25766e-05,0.00916681,-0.00545347,0.00251532,0.999294,-0.00189831,0.0375183,0.000260352,-0.247396,0.0947394,-0.910371,36.125,1,55388,44932986
right,15,8,0.999294,-0.00189831,0.0375183,0.000260352,-0.734882,-0.0784562,9.78489,0.382543,-0.130466,0.867312,-0.00735413,-0.000793717,0.0978484,1,4.58341e-05,-2.72673e-05,1.25766e-05,0.00916681,-0.00545347,0.00251532,0.999294,-0.00189831,0.0375183,0.000260352,-0.247396,0.0947394,-0.910371,36.125,1,55388,44932986
right,15,9,0.999295,-0.00185799,0.0374959,0.00028282,-0.733164,-0.0864702,9.79125,0.383958,-0.141191,0.8713,-0.00733583,-0.000873237,0.0979121,1,4.1725e-05,-2.15957e-05,2.48309e-05,0.00834501,-0.00431914,0.00496618,0.999295,-0.00185799,0.0374959,0.00028282,-0.246356,0.0937108,-0.907874,36.125,1,55389,44933086
right,15,10,0.999295,-0.00185799,0.0374959,0.00028282,-0.733164,-0.0864702,9.79125,0.383958,-0.141191,0.8713,-0.00733583,-0.000873237,0.0979121,1,4.1725e-05,-2.15957e-05,2.48309e-05,0.00834501,-0.00431914,0.00496618,0.999295,-0.00185799,0.0374959,0.00028282,-0.246356,0.0937108,-0.907874,36.125,1,55389,44933086
right,15,11,0.999295,-0.00185799,0.0374959,0.00028282,-0.733164,-0.0864702,9.79125,0.383958,-0.141191,0.8713,-0.00733583,-0.000873237,0.0979121,1,4.1725e-05,-2.15957e-05,2.48309e-05,0.00834501,-0.00431914,0.00496618,0.999295,-0.00185799,0.0374959,0.00028282,-0.246356,0.0937108,-0.907874,36.125,1,55389,44933086
left,27,1,0.999295,-0.00179454,0.0374876,0.000299551,-0.727381,-0.0652365,9.78629,0.386272,-0.119782,0.864348,-0.00727526,-0.000665426,0.0978627,1,6.52484e-05,-7.56087e-06,1.99415e-05,0.0130497,-0.00151217,0.00398831,0.999295,-0.00179454,0.0374876,0.000299551,-0.245854,0.0946553,-0.90634,36.125,1,55390,44933186
left,27,2,0.999295,-0.00179454,0.0374876,0.000299551,-0.727381,-0.0652365,9.78629,0.386272,-0.119782,0.864348,-0.00727526,-0.000665426,0.0978627,1,6.52484e-05,-7.56087e-06,1.99415e-05,0.0130497,-0.00151217,0.00398831,0.999295,-0.00179454,0.0374876,0.000299551,-0.245854,0.0946553,-0.90634,36.125,1,55390,44933186
left,27,3,0.999295,-0.00179454,0.0374876,0.000299551,-0.727381,-0.0652365,9.78629,0.386272,-0.119782,0.864348,-0.00727526,-0.000665426,0.0978627,1,6.52484e-05,-7.56087e-06,1.99415e-05,0.0130497,-0.00151217,0.00398831,0.999295,-0.00179454,0.0374876,0.000299551,-0.245854,0.0946553,-0.90634,36.125,1,55390,44933186
left,27,4,0.999296,-0.00174355,0.0374873,0.000297355,-0.737287,-0.0668265,9.78024,0.380261,-0.119236,0.858742,-0.00737279,-0.000678776,0.0978024,1,5.3687e-05,3.91081e-07,6.23693e-07,0.0107374,7.82162e-05,0.000124739,0.999296,-0.00174355,0.0374873,0.000297355,-0.245976,0.097636,-0.909303,36.125,1,55391,44933286
right,16,1,0.999296,-0.00174355,0.0374873,0.000297355,-0.737287,-0.0668265,9.78024,0.380261,-0.119236,0.858742,-0.00737279,-0.000678776,0.0978024,1,5.3687e-05,3.91081e-07,6.23693e-07,0.0107374,7.82162e-05,0.000124739,0.999296,-0.00174355,0.0374873,0.000297355,-0.245976,0.097636,-0.909303,36.125,1,55391,44933286
right,16,2,0.999296,-0.00174355,0.0374873,0.000297355,-0.737287,-0.0668265,9.78024,0.380261,-0.119236,0.858742,-0.00737279,-0.000678776,0.0978024,1,5.3687e-05,3.91081e-07,6.23693e-07,0.0107374,7.82162e-05,0.000124739,0.999296,-0.00174355,0.0374873,0.000297355,-0.245976,0.097636,-0.909303,36.125,1,55391,44933286
right,16,3,0.999296,-0.00171021,0.0374748,0.000308918,-0.730089,-0.0699884,9.78322,0.382619,-0.124624,0.858189,-0.00730326,-0.000707074,0.0978319,1,3.57403e-05,-1.21892e-05,1.35249e-05,0.00714807,-0.00243784,0.00270497,0.999296,-0.00171021,0.0374748,0.000308918,-0.246498,0.0971883,-0.911331,36.125,1,55392,44933386
right,16,4,0.999296,-0.00171021,0.0374748,0.000308918,-0.730089,-0.0699884,9.78322,0.382619,-0.124624,0.858189,-0.00730326,-0.000707074,0.0978319,1,3.57403e-05,-1.21892e-05,1.35249e-05,0.00714807,-0.00243784,0.00270497,0.999296,-0.00171021,0.0374748,0.000308918,-0.246498,0.0971883,-0.911331,36.125,1,55392,44933386
right,16,5,0.999296,-0.00171021,0.0374748,0.000308918,-0.730089,-0.0699884,9.78322,0.382619,-0.124624,0.858189,-0.00730326,-0.000707074,0.0978319,1,3.57403e-05,-1.21892e-05,1.35249e-05,0.00714807,-0.00243784,0.00270497,0.999296,-0.00171021,0.0374748,0.000308918,-0.246498,0.0971883,-0.911331,36.125,1,55392,44933386
right,16,6,0.999297,-0.00166543,0.0374574,0.000317275,-0.736283,-0.0801682,9.78217,0.380061,-0.138505,0.859093,-0.00736614,-0.000811112,0.0978214,1,4.73839e-05,-1.70358e-05,1.08383e-05,0.00947678,-0.00340716,0.00216767,0.999297,-0.00166543,0.0374574,0.000317275,-0.247958,0.0967306,-0.912345,36.125,1,55393,44933486
right,16,7,0.999297,-0.00166543,0.0374574,0.000317275,-0.736283,-0.0801682,9.78217,0.380061,-0.138505,0.859093,-0.00736614,-0.000811112,0.0978214,1,4.73839e-05,-1.70358e-05,1.08383e-05,0.00947678,-0.00340716,0.00216767,0.999297,-0.00166543,0.0374574,0.000317275,-0.247958,0.0967306,-0.912345,36.125,1,55393,44933486
right,16,8,0.999297,-0.00166543,0.0374574,0.000317275,-0.736283,-0.0801682,9.78217,0.380061,-0.138505,0.859093,-0.00736614,-0.000811112,0.0978214,1,4.73839e-05,-1.70358e-05,1.08383e-05,0.00947678,-0.00340716,0.00216767,0.999297,-0.00166543,0.0374574,0.000317275,-0.247958,0.0967306,-0.912345,36.125,1,55393,44933486
right,16,9,0.999297,-0.0016147,0.0374445,0.000320925,-0.728703,-0.0701185,9.77982,0.387996,-0.131508,0.86094,-0.00728938,-0.000711762,0.0977979,1,5.36125e-05,-1.20308e-05,6.19513e-06,0.0107225,-0.00240616,0.00123903,0.999297,-0.0016147,0.0374445,0.000320925,-0.245977,0.0947454,-0.911388,36.125,1,55394,44933586
right,16,10,0.999297,-0.0016147,0.0374445,0.000320925,-0.728703,-0.0701185,9.77982,0.387996,-0.131508,0.86094,-0.00728938,-0.000711762,0.0977979,1,5.36125e-05,-1.20308e-05,6.19513e-06,0.0107225,-0.00240616,0.00123903,0.999297,-0.0016147,0.0374445,0.000320925,-0.245977,0.0947454,-0.911388,36.125,1,55394,44933586
right,16,11,0.999297,-0.0016147,0.0374445,0.000320925,-0.728703,-0.0701185,9.77982,0.387996,-0.131508,0.86094,-0.00728938,-0.000711762,0.0977979,1,5.36125e-05,-1.20308e-05,6.19513e-06,0.0107225,-0.00240616,0.00123903,0.999297,-0.0016147,0.0374445,0.000320925,-0.245977,0.0947454,-0.911388,36.125,1,55394,44933586
left,28,1,0.999298,-0.00156443,0.0374326,0.000319388,-0.730697,-0.0715408,9.78389,0.38591,-0.12843,0.862944,-0.00730927,-0.000725908,0.0978386,1,5.35474e-05,-1.17737e-05,1.51625e-06,0.0107095,-0.00235473,0.000303249,0.999298,-0.00156443,0.0374326,0.000319388,-0.244916,0.0946653,-0.907354,36.125,1,55395,44933686
left,28,2,0.999298,-0.00156443,0.0374326,0.000319388,-0.730697,-0.0715408,9.78389,0.38591,-0.12843,0.862944,-0.00730927,-0.000725908,0.0978386,1,5.35474e-05,-1.17737e-05,1.51625e-06,0.0107095,-0.00235473,0.000303249,0.999298,-0.00156443,0.0374326,0.000319388,-0.244916,0.0946653,-0.907354,36.125,1,55395,44933686
left,28,3,0.999298,-0.00156443,0.0374326,0.000319388,-0.730697,-0.0715408,9.78389,0.38591,-0.12843,0.862944,-0.00730927,-0.000725908,0.0978386,1,5.35474e-05,-1.17737e-05,1.51625e-06,0.0107095,-0.00235473,0.000303249,0.999298,-0.00156443,0.0374326,0.000319388,-0.244916,0.0946653,-0.907354,36.125,1,55395,44933686
left,28,4,0.999298,-0.0015238,0.0374253,0.000323499,-0.738261,-0.0717254,9.78393,0.374142,-0.132167,0.862947,-0.00738392,-0.000725927,0.0978392,1,4.38206e-05,-6.75571e-06,6.66281e-06,0.00876412,-0.00135114,0.00133256,0.999298,-0.0015238,0.0374253,0.000323499,-0.244834,0.0941235,-0.904336,36.125,1,55396,44933786
right,17,1,0.999298,-0.0015238,0.0374253,0.000323499,-0.738261,-0.0717254,9.78393,0.374142,-0.132167,0.862947,-0.00738392,-0.000725927,0.0978392,1,4.38206e-05,-6.75571e-06,6.66281e-06,0.00876412,-0.00135114,0.00133256,0.999298,-0.0015238,0.0374253,0.000323499,-0.244834,0.0941235,-0.904336,36.125,1,55396,44933786
right,17,2,0.999298,-0.0015238,0.0374253,0.000323499,-0.738261,-0.0717254,9.78393,0.374142,-0.132167,0.862947,-0.00738392,-0.000725927,0.0978392,1,4.38206e-05,-6.75571e-06,6.66281e-06,0.00876412,-0.00135114,0.00133256,0.999298,-0.0015238,0.0374253,0.000323499,-0.244834,0.0941235,-0.904336,36.125,1,55396,44933786
right,17,3,0.999298,-0.00147602,0.0374264,0.000337131,-0.734482,-0.0767046,9.78319,0.378206,-0.136299,0.858392,-0.00734447,-0.000777225,0.0978319,1,5.07627e-05,1.6688e-06,1.67692e-05,0.0101525,0.000333759,0.00335384,0.999298,-0.00147602,0.0374264,0.000337131,-0.246861,0.0951781,-0.907839,36.125,1,55397,44933886
right,17,4,0.999298,-0.00147602,0.0374264,0.000337131,-0.734482,-0.0767046,9.78319,0.378206,-0.136299,0.858392,-0.00734447,-0.000777225,0.0978319,1,5.07627e-05,1.6688e-06,1.67692e-05,0.0101525,0.000333759,0.00335384,0.999298,-0.00147602,0.0374264,0.000337131,-0.246861,0.0951781,-0.907839,36.125,1,55397,44933886
right,17,5,0.999298,-0.00147602,0.0374264,0.000337131,-0.734482,-0.0767046,9.78319,0.378206,-0.136299,0.858392,-0.00734447,-0.000777225,0.0978319,1,5.07627e-05,1.6688e-06,1.67692e-05,0.0101525,0.000333759,0.00335384,0.999298,-0.00147602,0.0374264,0.000337131,-0.246861,0.0951781,-0.907839,36.125,1,55397,44933886
right,17,6,0.999298,-0.00143473,0.0374259,0.000338822,-0.729076,-0.0770613,9.78314,0.383942,-0.139885,0.854377,-0.00729066,-0.00077948,0.0978314,1,4.49829e-05,4.69342e-07,4.50569e-06,0.00899657,9.38684e-05,0.000901138,0.999298,-0.00143473,0.0374259,0.000338822,-0.247946,0.0967215,-0.91184,36.125,1,55398,44933986
right,17,7,0.999298,-0.00143473,0.0374259,0.000338822,-0.729076,-0.0770613,9.78314,0.383942,-0.139885,0.854377,-0.00729066,-0.00077948,0.0978314,1,4.49829e-05,4.69342e-07,4.50569e-06,0.00899657,9.38684e-05,0.000901138,0.999298,-0.00143473,0.0374259,0.000338822,-0.247946,0.0967215,-0.91184,36.125,1,55398,44933986
right,17,8,0.999298,-0.00143473,0.0374259,0.000338822,-0.729076,-0.0770613,9.78314,0.383942,-0.139885,0.854377,-0.00729066,-0.00077948,0.0978314,1,4.49829e-05,4.69342e-07,4.50569e-06,0.00899657,9.38684e-05,0.000901138,0.999298,-0.00143473,0.0374259,0.000338822,-0.247946,0.0967215,-0.91184,36.125,1,55398,44933986
right,17,9,0.999299,-0.00139495,0.0374127,0.000342727,-0.735366,-0.0779345,9.78963,0.381404,-0.143664,0.867963,-0.00735602,-0.000788035,0.0978961,1,4.38653e-05,-1.20998e-05,6.87126e-06,0.00877306,-0.00241997,0.00137425,0.999299,-0.00139495,0.0374127,0.000342727,-0.24751,0.0972324,-0.913346,36.125,1,55399,44934086
right,17,10,0.999299,-0.00139495,0.0374127,0.000342727,-0.735366,-0.0779345,9.78963,0.381404,-0.143664,0.867963,-0.00735602,-0.000788035,0.0978961,1,4.38653e-05,-1.20998e-05,6.87126e-06,0.00877306,-0.00241997,0.00137425,0.999299,-0.00139495,0.0374127,0.000342727,-0.24751,0.0972324,-0.913346,36.125,1,55399,44934086
right,17,11,0.999299,-0.00139495,0.0374127,0.000342727,-0.735366,-0.0779345,9.78963,0.381404,-0.143664,0.867963,-0.00735602,-0.000788035,0.0978961,1,4.38653e-05,-1.20998e-05,6.87126e-06,0.00877306,-0.00241997,0.00137425,0.999299,-0.00139495,0.0374127,0.000342727,-0.24751,0.0972324,-0.913346,36.125,1,55399,44934086
left,29,1,0.999299,-0.0013562,0.0374065,0.000345656,-0.728681,-0.0730435,9.7859,0.384023,-0.138333,0.86562,-0.00728786,-0.000738938,0.0978588,1,4.30085e-05,-5.379e-06,5.86353e-06,0.0086017,-0.0010758,0.00117271,0.999299,-0.0013562,0.0374065,0.000345656,-0.246458,0.0947495,-0.911386,36.125,1,55400,44934186
left,29,2,0.999299,-0.0013562,0.0374065,0.000345656,-0.728681,-0.0730435,9.7859,0.384023,-0.138333,0.86562,-0.00728786,-0.000738938,0.0978588,1,4.30085e-05,-5.379e-06,5.86353e-06,0.0086017,-0.0010758,0.00117271,0.999299,-0.0013562,0.0374065,0.000345656,-0.246458,0.0947495,-0.911386,36.125,1,55400,44934186
left,29,3,0.999299,-0.0013562,0.0374065,0.000345656,-0.728681,-0.0730435,9.7859,0.384023,-0.138333,0.86562,-0.00728786,-0.000738938,0.0978588,1,4.30085e-05,-5.379e-06,5.86353e-06,0.0086017,-0.0010758,0.00117271,0.999299,-0.0013562,0.0374065,0.000345656,-0.246458,0.0947495,-0.911386,36.125,1,55400,44934186
left,29,4,0.999299,-0.00130141,0.0373992,0.000358935,-0.729006,-0.075283,9.78893,0.383699,-0.14691,0.869278,-0.00729137,-0.000764617,0.0978891,1,5.89526e-05,-6.86049e-06,1.68571e-05,0.0117905,-0.0013721,0.00337142,0.999299,-0.00130141,0.0373992,0.000358935,-0.246401,0.0942256,-0.909377,36.125,1,55401,44934286
right,18,1,0.999299,-0.00130141,0.0373992,0.000358935,-0.729006,-0.075283,9.78893,0.383699,-0.14691,0.869278,-0.00729137,-0.000764617,0.0978891,1,5.89526e-05,-6.86049e-06,1.68571e-05,0.0117905,-0.0013721,0.00337142,0.999299,-0.00130141,0.0373992,0.000358935,-0.246401,0.0942256,-0.909377,36.125,1,55401,44934286
right,18,2,0.999299,-0.00130141,0.0373992,0.000358935,-0.729006,-0.075283,9.78893,0.383699,-0.14691,0.869278,-0.00729137,-0.000764617,0.0978891,1,5.89526e-05,-6.86049e-06,1.68571e-05,0.0117905,-0.0013721,0.00337142,0.999299,-0.00130141,0.0373992,0.000358935,-0.246401,0.0942256,-0.909377,36.125,1,55401,44934286
right,18,3,0.9993,-0.00126891,0.037389,0.000362692,-0.728279,-0.0847,9.7824,0.381272,-0.149871,0.862071,-0.00728466,-0.000854306,0.0978238,1,3.68729e-05,-9.62809e-06,6.33502e-06,0.00737457,-0.00192562,0.001267,0.9993,-0.00126891,0.037389,0.000362692,-0.246359,0.0946773,-0.907347,36.125,1,55402,44934386
right,18,4,0.9993,-0.00126891,0.037389,0.000362692,-0.728279,-0.0847,9.7824,0.381272,-0.149871,0.862071,-0.00728466,-0.000854306,0.0978238,1,3.68729e-05,-9.62809e-06,6.33502e-06,0.00737457,-0.00192562,0.001267,0.9993,-0.00126891,0.037389,0.000362692,-0.246359,0.0946773,-0.907347,36.125,1,55402,44934386
right,18,5,0.9993,-0.00126891,0.037389,0.000362692,-0.728279,-0.0847,9.7824,0.381272,-0.149871,0.862071,-0.00728466,-0.000854306,0.0978238,1,3.68729e-05,-9.62809e-06,6.33502e-06,0.00737457,-0.00192562,0.001267,0.9993,-0.00126891,0.037389,0.000362692,-0.246359,0.0946773,-0.907347,36.125,1,55402,44934386
right,18,6,0.999301,-0.00123538,0.0373628,0.000370074,-0.72333,-0.0828504,9.77664,0.386735,-0.148561,0.855848,-0.00723828,-0.000836067,0.0977659,1,3.7903e-05,-2.55163e-05,1.04809e-05,0.0075806,-0.00510327,0.00209618,0.999301,-0.00123538,0.0373628,0.000370074,-0.247375,0.0956879,-0.908835,36.125,1,55403,44934486
right,18,7,0.999301,-0.00123538,0.0373628,0.000370074,-0.72333,-0.0828504,9.77664,0.386735,-0.148561,0.855848,-0.00723828,-0.000836067,0.0977659,1,3.7903e-05,-2.55163e-05,1.04809e-05,0.0075806,-0.00510327,0.00209618,0.999301,-0.00123538,0.0373628,0.000370074,-0.247375,0.0956879,-0.908835,36.125,1,55403,44934486
right,18,8,0.999301,-0.00123538,0.0373628,0.000370074,-0.72333,-0.0828504,9.77664,0.386735,-0.148561,0.855848,-0.00723828,-0.000836067,0.0977659,1,3.7903e-05,-2.55163e-05,1.04809e-05,0.0075806,-0.00510327,0.00209618,0.999301,-0.00123538,0.0373628,0.000370074,-0.247375,0.0956879,-0.908835,36.125,1,55403,44934486
right,18,9,0.999302,-0.00118379,0.03734,0.000374839,-0.72648,-0.0745647,9.78554,0.38621,-0.138244,0.863397,-0.0072691,-0.000756862,0.097855,1,5.66989e-05,-2.20649e-05,8.14722e-06,0.0113398,-0.00441299,0.00162944,0.999302,-0.00118379,0.03734,0.000374839,-0.247959,0.0952853,-0.913387,36.125,1,55404,44934586
right,18,10,0.999302,-0.00118379,0.03734,0.000374839,-0.72648,-0.0745647,9.78554,0.38621,-0.138244,0.863397,-0.0072691,-0.000756862,0.097855,1,5.66989e-05,-2.20649e-05,8.14722e-06,0.0113398,-0.00441299,0.00162944,0.999302,-0.00118379,0.03734,0.000374839,-0.247959,0.0952853,-0.913387,36.125,1,55404,44934586
right,18,11,0.999302,-0.00118379,0.03734,0.000374839,-0.72648,-0.0745647,9.78554,0.38621,-0.138244,0.863397,-0.0072691,-0.000756862,0.097855,1,5.66989e-05,-2.20649e-05,8.14722e-06,0.0113398,-0.00441299,0.00162944,0.999302,-0.00118379,0.03734,0.000374839,-0.247959,0.0952853,-0.913387,36.125,1,55404,44934586
left,30,1,0.999302,-0.00113736,0.0373362,0.00039456,-0.726108,-0.0680118,9.78388,0.391375,-0.135848,0.859021,-0.00726156,-0.000690666,0.0978387,1,5.22546e-05,-2.64303e-06,2.22327e-05,0.0104509,-0.000528607,0.00444655,0.999302,-0.00113736,0.0373362,0.00039456,-0.248983,0.0953384,-0.915906,36.125,1,55405,44934686
left,30,2,0.999302,-0.00113736,0.0373362,0.00039456,-0.726108,-0.0680118,9.78388,0.391375,-0.135848,0.859021,-0.00726156,-0.000690666,0.0978387,1,5.22546e-05,-2.64303e-06,2.22327e-05,0.0104509,-0.000528607,0.00444655,0.999302,-0.00113736,0.0373362,0.00039456,-0.248983,0.0953384,-0.915906,36.125,1,55405,44934686
left,30,3,0.999302,-0.00113736,0.0373362,0.00039456,-0.726108,-0.0680118,9.78388,0.391375,-0.135848,0.859021,-0.00726156,-0.000690666,0.0978387,1,5.22546e-05,-2.64303e-06,2.22327e-05,0.0104509,-0.000528607,0.00444655,0.999302,-0.00113736,0.0373362,0.00039456,-0.248983,0.0953384,-0.915906,36.125,1,55405,44934686
left,30,4,0.999303,-0.00108793,0.0373241,0.000413479,-0.73917,-0.0820939,9.77572,0.366938,-0.150362,0.856984,-0.00739376,-0.000832232,0.0977569,1,5.62109e-05,-1.06991e-05,2.05263e-05,0.0112422,-0.00213982,0.00410526,0.999303,-0.00108793,0.0373241,0.000413479,-0.246939,0.0947535,-0.911383,36.125,1,55406,44934786
right,19,1,0.999303,-0.00108793,0.0373241,0.000413479,-0.73917,-0.0820939,9.77572,0.366938,-0.150362,0.856984,-0.00739376,-0.000832232,0.0977569,1,5.62109e-05,-1.06991e-05,2.05263e-05,0.0112422,-0.00213982,0.00410526,0.999303,-0.00108793,0.0373241,0.000413479,-0.246939,0.0947535,-0.911383,36.125,1,55406,44934786
right,19,2,0.999303,-0.00108793,0.0373241,0.000413479,-0.73917,-0.0820939,9.77572,0.366938,-0.150362,0.856984,-0.00739376,-0.000832232,0.0977569,1,5.62109e-05,-1.06991e-05,2.05263e-05,0.0112422,-0.00213982,0.00410526,0.999303,-0.00108793,0.0373241,0.000413479,-0.246939,0.0947535,-0.911383,36.125,1,55406,44934786
right,19,3,0.999303,-0.00103521,0.0373145,0.000412366,-0.724948,-0.0737649,9.77807,0.387329,-0.145473,0.856158,-0.00725123,-0.000749118,0.0977805,1,5.83418e-05,-8.99671e-06,4.06976e-06,0.0116684,-0.00179934,0.000813952,0.999303,-0.00103521,0.0373145,0.000412366,-0.244953,0.0961376,-0.907826,36.125,1,55407,44934886
right,19,4,0.999303,-0.00103521,0.0373145,0.000412366,-0.724948,-0.0737649,9.77807,0.387329,-0.145473,0.856158,-0.00725123,-0.000749118,0.0977805,1,5.83418e-05,-8.99671e-06,4.06976e-06,0.0116684,-0.00179934,0.000813952,0.999303,-0.00103521,0.0373145,0.000412366,-0.244953,0.0961376,-0.907826,36.125,1,55407,44934886
right,19,5,0.999303,-0.00103521,0.0373145,0.000412366,-0.724948,-0.0737649,9.77807,0.387329,-0.145473,0.856158,-0.00725123,-0.000749118,0.0977805,1,5.83418e-05,-8.99671e-06,4.06976e-06,0.0116684,-0.00179934,0.000813952,0.999303,-0.00103521,0.0373145,0.000412366,-0.244953,0.0961376,-0.907826,36.125,1,55407,44934886
right,19,6,0.999303,-0.00099941,0.0373139,0.000417584,-0.726708,-0.0808659,9.78343,0.385624,-0.149474,0.863628,-0.00726709,-0.000816679,0.0978343,1,4.00245e-05,-1.73604e-07,1.30275e-05,0.0080049,-3.47208e-05,0.00260551,0.999303,-0.00099941,0.0373139,0.000417584,-0.244488,0.0971092,-0.907807,36.125,1,55408,44934986
right,19,7,0.999303,-0.00099941,0.0373139,0.000417584,-0.726708,-0.0808659,9.78343,0.385624,-0.149474,0.863628,-0.00726709,-0.000816679,0.0978343,1,4.00245e-05,-1.73604e-07,1.30275e-05,0.0080049,-3.47208e-05,0.00260551,0.999303,-0.00099941,0.0373139,0.000417584,-0.244488,0.0971092,-0.907807,36.125,1,55408,44934986
right,19,8,0.999303,-0.00099941,0.0373139,0.000417584,-0.726708,-0.0808659,9.78343,0.385624,-0.149474,0.863628,-0.00726709,-0.000816679,0.0978343,1,4.00245e-05,-1.73604e-07,1.30275e-05,0.0080049,-3.47208e-05,0.00260551,0.999303,-0.00099941,0.0373139,0.000417584,-0.244488,0.0971092,-0.907807,36.125,1,55408,44934986
right,19,9,0.999303,-0.000955054,0.0373062,0.000410022,-0.739472,-0.0768099,9.78865,0.371821,-0.150561,0.868472,-0.00739602,-0.000777894,0.0978863,1,5.00623e-05,-6.59904e-06,-3.9324e-07,0.0100125,-0.00131981,-7.86481e-05,0.999303,-0.000955054,0.0373062,0.000410022,-0.245038,0.0990913,-0.909275,36.125,1,55409,44935086
right,19,10,0.999303,-0.000955054,0.0373062,0.000410022,-0.739472,-0.0768099,9.78865,0.371821,-0.150561,0.868472,-0.00739602,-0.000777894,0.0978863,1,5.00623e-05,-6.59904e-06,-3.9324e-07,0.0100125,-0.00131981,-7.86481e-05,0.999303,-0.000955054,0.0373062,0.000410022,-0.245038,0.0990913,-0.909275,36.125,1,55409,44935086
right,19,11,0.999303,-0.000955054,0.0373062,0.000410022,-0.739472,-0.0768099,9.78865,0.371821,-0.150561,0.868472,-0.00739602,-0.000777894,0.0978863,1,5.00623e-05,-6.59904e-06,-3.9324e-07,0.0100125,-0.00131981,-7.86481e-05,0.999303,-0.000955054,0.0373062,0.000410022,-0.245038,0.0990913,-0.909275,36.125,1,55409,44935086
left,31,1,0.999304,-0.000908754,0.0372992,0.000418935,-0.723225,-0.083024,9.77662,0.387521,-0.158967,0.856064,-0.00723317,-0.000840701,0.097766,1,5.23552e-05,-4.87636e-06,1.54953e-05,0.010471,-0.000975273,0.00309906,0.999304,-0.000908754,0.0372992,0.000418935,-0.246523,0.0986516,-0.911299,36.125,1,55410,44935186
left,31,2,0.999304,-0.000908754,0.0372992,0.000418935,-0.723225,-0.083024,9.77662,0.387521,-0.158967,0.856064,-0.00723317,-0.000840701,0.097766,1,5.23552e-05,-4.87636e-06,1.54953e-05,0.010471,-0.000975273,0.00309906,0.999304,-0.000908754,0.0372992,0.000418935,-0.246523,0.0986516,-0.911299,36.125,1,55410,44935186
left,31,3,0.999304,-0.000908754,0.0372992,0.000418935,-0.723225,-0.083024,9.77662,0.387521,-0.158967,0.856064,-0.00723317,-0.000840701,0.097766,1,5.23552e-05,-4.87636e-06,1.54953e-05,0.010471,-0.000975273,0.00309906,0.999304,-0.000908754,0.0372992,0.000418935,-0.246523,0.0986516,-0.911299,36.125,1,55410,44935186
left,31,4,0.999304,-0.000874106,0.0372957,0.000424851,-0.733485,-0.0716997,9.79136,0.377497,-0.145114,0.866998,-0.00733515,-0.000725473,0.0979135,1,4.25558e-05,-1.59432e-06,9.738e-06,0.00851116,-0.000318863,0.0019476,0.999304,-0.000874106,0.0372957,0.000424851,-0.249476,0.0967967,-0.915367,36.125,1,55411,44935286
right,20,1,0.999304,-0.000874106,0.0372957,0.000424851,-0.733485,-0.0716997,9.79136,0.377497,-0.145114,0.866998,-0.00733515,-0.000725473,0.0979135,1,4.25558e-05,-1.59432e-06,9.738e-06,0.00851116,-0.000318863,0.0019476,0.999304,-0.000874106,0.0372957,0.000424851,-0.249476,0.0967967,-0.915367,36.125,1,55411,44935286
right,20,2,0.999304,-0.000874106,0.0372957,0.000424851,-0.733485,-0.0716997,9.79136,0.377497,-0.145114,0.866998,-0.00733515,-0.000725473,0.0979135,1,4.25558e-05,-1.59432e-06,9.738e-06,0.00851116,-0.000318863,0.0019476,0.999304,-0.000874106,0.0372957,0.000424851,-0.249476,0.0967967,-0.915367,36.125,1,55411,44935286
right,20,3,0.999305,-0.000840343,0.037277,0.000443921,-0.735702,-0.0768369,9.78253,0.373906,-0.155147,0.858659,-0.00736028,-0.000777145,0.097825,1,4.36176e-05,-1.67602e-05,1.6421e-05,0.00872351,-0.00335204,0.0032842,0.999305,-0.000840343,0.037277,0.000443921,-0.247922,0.0952582,-0.911873,36.125,1,55412,44935386
right,20,4,0.999305,-0.000840343,0.037277,0.000443921,-0.735702,-0.0768369,9.78253,0.373906,-0.155147,0.858659,-0.00736028,-0.000777145,0.097825,1,4.36176e-05,-1.67602e-05,1.6421e-05,0.00872351,-0.00335204,0.0032842,0.999305,-0.000840343,0.037277,0.000443921,-0.247922,0.0952582,-0.911873,36.125,1,55412,44935386
right,20,5,0.999305,-0.000840343,0.037277,0.000443921,-0.735702,-0.0768369,9.78253,0.373906,-0.155147,0.858659,-0.00736028,-0.000777145,0.097825,1,4.36176e-05,-1.67602e-05,1.6421e-05,0.00872351,-0.00335204,0.0032842,0.999305,-0.000840343,0.037277,0.000443921,-0.247922,0.0952582,-0.911873,36.125,1,55412,44935386
right,20,6,0.999305,-0.000805554,0.0372681,0.000438279,-0.737434,-0.0810347,9.78725,0.372598,-0.157271,0.868531,-0.00737601,-0.000818739,0.0978723,1,4.32096e-05,-8.49004e-06,-4.47972e-06,0.00864192,-0.00169801,-0.000895943,0.999305,-0.000805554,0.0372681,0.000438279,-0.244896,0.0941685,-0.90686,36.125,1,55413,44935486
right,20,7,0.999305,-0.000805554,0.0372681,0.000438279,-0.737434,-0.0810347,9.78725,0.372598,-0.157271,0.868531,-0.00737601,-0.000818739,0.0978723,1,4.32096e-05,-8.49004e-06,-4.47972e-06,0.00864192,-0.00169801,-0.000895943,0.999305,-0.000805554,0.0372681,0.000438279,-0.244896,0.0941685,-0.90686,36.125,1,55413,44935486
right,20,8,0.999305,-0.000805554,0.0372681,0.000438279,-0.737434,-0.0810347,9.78725,0.372598,-0.157271,0.868531,-0.00737601,-0.000818739,0.0978723,1,4.32096e-05,-8.49004e-06,-4.47972e-06,0.00864192,-0.00169801,-0.000895943,0.999305,-0.000805554,0.0372681,0.000438279,-0.244896,0.0941685,-0.90686,36.125,1,55413,44935486
right,20,9,0.999306,-0.000757164,0.0372506,0.000438028,-0.734343,-0.0767082,9.7815,0.374981,-0.157015,0.858898,-0.00734704,-0.000777237,0.0978147,1,5.10756e-05,-1.85483e-05,1.11479e-05,0.0102151,-0.00370965,0.00222957,0.999306,-0.000757164,0.0372506,0.000438028,-0.245849,0.095134,-0.905824,36.125,1,55414,44935586
right,20,10,0.999306,-0.000757164,0.0372506,0.000438028,-0.734343,-0.0767082,9.7815,0.374981,-0.157015,0.858898,-0.00734704,-0.000777237,0.0978147,1,5.10756e-05,-1.85483e-05,1.11479e-05,0.0102151,-0.00370965,0.00222957,0.999306,-0.000757164,0.0372506,0.000438028,-0.245849,0.095134,-0.905824,36.125,1,55414,44935586
right,20,11,0.999306,-0.000757164,0.0372506,0.000438028,-0.734343,-0.0767082,9.7815,0.374981,-0.157015,0.858898,-0.00734704,-0.000777237,0.0978147,1,5.10756e-05,-1.85483e-05,1.11479e-05,0.0102151,-0.00370965,0.00222957,0.999306,-0.000757164,0.0372506,0.000438028,-0.245849,0.095134,-0.905824,36.125,1,55414,44935586
left,32,1,0.999306,-0.000703246,0.0372547,0.000434704,-0.726387,-0.0717911,9.78724,0.38359,-0.156207,0.86428,-0.00726319,-0.000729285,0.0978724,1,5.77085e-05,3.46852e-06,5.38666e-06,0.0115417,0.000693704,0.00107733,0.999306,-0.000703246,0.0372547,0.000434704,-0.247852,0.0961707,-0.908317,36.125,1,55415,44935686
left,32,2,0.999306,-0.000703246,0.0372547,0.000434704,-0.726387,-0.0717911,9.78724,0.38359,-0.156207,0.86428,-0.00726319,-0.000729285,0.0978724,1,5.77085e-05,3.46852e-06,5.38666e-06,0.0115417,0.000693704,0.00107733,0.999306,-0.000703246,0.0372547,0.000434704,-0.247852,0.0961707,-0.908317,36.125,1,55415,44935686
left,32,3,0.999306,-0.000703246,0.0372547,0.000434704,-0.726387,-0.0717911,9.78724,0.38359,-0.156207,0.86428,-0.00726319,-0.000729285,0.0978724,1,5.77085e-05,3.46852e-06,5.38666e-06,0.0115417,0.000693704,0.00107733,0.999306,-0.000703246,0.0372547,0.000434704,-0.247852,0.0961707,-0.908317,36.125,1,55415,44935686
left,32,4,0.999306,-0.0006654,0.0372516,0.000430339,-0.730446,-0.079886,9.7855,0.383038,-0.157728,0.860792,-0.0073049,-0.000807621,0.0978549,1,4.4791e-05,-2.25388e-06,-3.48008e-07,0.0089582,-0.000450776,-6.96016e-05,0.999306,-0.0006654,0.0372516,0.000430339,-0.248411,0.09575,-0.911859,36.125,1,55416,44935786
right,21,1,0.999306,-0.0006654,0.0372516,0.000430339,-0.730446,-0.079886,9.7855,0.383038,-0.157728,0.860792,-0.0073049,-0.000807621,0.0978549,1,4.4791e-05,-2.25388e-06,-3.48008e-07,0.0089582,-0.000450776,-6.96016e-05,0.999306,-0.0006654,0.0372516,0.000430339,-0.248411,0.09575,-0.911859,36.125,1,55416,44935786
right,21,2,0.999306,-0.0006654,0.0372516,0.000430339,-0.730446,-0.079886,9.7855,0.383038,-0.157728,0.860792,-0.0073049,-0.000807621,0.0978549,1,4.4791e-05,-2.25388e-06,-3.48008e-07,0.0089582,-0.000450776,-6.96016e-05,0.999306,-0.0006654,0.0372516,0.000430339,-0.248411,0.09575,-0.911859,36.125,1,55416,44935786
right,21,3,0.999306,-0.000627692,0.0372338,0.000440221,-0.734332,-0.0746849,9.78796,0.377649,-0.160061,0.865761,-0.00734653,-0.000756434,0.0978793,1,4.82184e-05,-1.64637e-05,9.94288e-06,0.00964367,-0.00329274,0.00198858,0.999306,-0.000627692,0.0372338,0.000440221,-0.247008,0.0967316,-0.912854,36.125,1,55417,44935886
right,21,4,0.999306,-0.000627692,0.0372338,0.000440221,-0.734332,-0.0746849,9.78796,0.377649,-0.160061,0.865761,-0.00734653,-0.000756434,0.0978793,1,4.82184e-05,-1.64637e-05,9.94288e-06,0.00964367,-0.00329274,0.00198858,0.999306,-0.000627692,0.0372338,0.000440221,-0.247008,0.0967316,-0.912854,36.125,1,55417,44935886
right,21,5,0.999306,-0.000627692,0.0372338,0.000440221,-0.734332,-0.0746849,9.78796,0.377649,-0.160061,0.865761,-0.00734653,-0.000756434,0.0978793,1,4.82184e-05,-1.64637e-05,9.94288e-06,0.00964367,-0.00329274,0.00198858,0.999306,-0.000627692,0.0372338,0.000440221,-0.247008,0.0967316,-0.912854,36.125,1,55417,44935886
right,21,6,0.999306,-0.000600964,0.0372401,0.000445491,-0.73223,-0.0778386,9.78281,0.377063,-0.160557,0.864884,-0.00732068,-0.000786364,0.0978282,1,4.01996e-05,8.1882e-06,7.6946e-06,0.00803992,0.00163764,0.00153892,0.999306,-0.000600964,0.0372401,0.000445491,-0.245508,0.0947505,-0.911895,36.125,1,55418,44935986
right,21,7,0.999306,-0.000600964,0.0372401,0.000445491,-0.73223,-0.0778386,9.78281,0.377063,-0.160557,0.864884,-0.00732068,-0.000786364,0.0978282,1,4.01996e-05,8.1882e-06,7.6946e-06,0.00803992,0.00163764,0.00153892,0.999306,-0.000600964,0.0372401,0.000445491,-0.245508,0.0947505,-0.911895,36.125,1,55418,44935986
right,21,8,0.999306,-0.000600964,0.0372401,0.000445491,-0.73223,-0.0778386,9.78281,0.377063,-0.160557,0.864884,-0.00732068,-0.000786364,0.0978282,1,4.01996e-05,8.1882e-06,7.6946e-06,0.00803992,0.00163764,0.00153892,0.999306,-0.000600964,0.0372401,0.000445491,-0.245508,0.0947505,-0.911895,36.125,1,55418,44935986
right,21,9,0.999306,-0.00055049,0.0372325,0.000464933,-0.726205,-0.0843902,9.78578,0.382713,-0.166308,0.863125,-0.00726328,-0.000856448,0.0978576,1,6.21881e-05,-6.48946e-06,2.57623e-05,0.0124376,-0.00129789,0.00515245,0.999306,-0.00055049,0.0372325,0.000464933,-0.246433,0.0961767,-0.909334,36.125,1,55419,44936086
right,21,10,0.999306,-0.00055049,0.0372325,0.000464933,-0.726205,-0.0843902,9.78578,0.382713,-0.166308,0.863125,-0.00726328,-0.000856448,0.0978576,1,6.21881e-05,-6.48946e-06,2.57623e-05,0.0124376,-0.00129789,0.00515245,0.999306,-0.00055049,0.0372325,0.000464933,-0.246433,0.0961767,-0.909334,36.125,1,55419,44936086
right,21,11,0.999306,-0.00055049,0.0372325,0.000464933,-0.726205,-0.0843902,9.78578,0.382713,-0.166308,0.863125,-0.00726328,-0.000856448,0.0978576,1,6.21881e-05,-6.48946e-06,2.57623e-05,0.0124376,-0.00129789,0.00515245,0.999306,-0.00055049,0.0372325,0.000464933,-0.246433,0.0961767,-0.909334,36.125,1,55419,44936086
left,33,1,0.999307,-0.000502015,0.0372243,0.000474229,-0.73606,-0.0831711,9.78349,0.373618,-0.165599,0.865091,-0.00736205,-0.000842968,0.0978347,1,5.62277e-05,-7.52689e-06,1.7356e-05,0.0112455,-0.00150538,0.00347119,0.999307,-0.000502015,0.0372243,0.000474229,-0.246416,0.0980917,-0.907271,36.125,1,55420,44936186
left,33,2,0.999307,-0.000502015,0.0372243,0.000474229,-0.73606,-0.0831711,9.78349,0.373618,-0.165599,0.865091,-0.00736205,-0.000842968,0.0978347,1,5.62277e-05,-7.52689e-06,1.7356e-05,0.0112455,-0.00150538,0.00347119,0.999307,-0.000502015,0.0372243,0.000474229,-0.246416,0.0980917,-0.907271,36.125,1,55420,44936186
left,33,3,0.999307,-0.000502015,0.0372243,0.000474229,-0.73606,-0.0831711,9.78349,0.373618,-0.165599,0.865091,-0.00736205,-0.000842968,0.0978347,1,5.62277e-05,-7.52689e-06,1.7356e-05,0.0112455,-0.00150538,0.00347119,0.999307,-0.000502015,0.0372243,0.000474229,-0.246416,0.0980917,-0.907271,36.125,1,55420,44936186
left,33,4,0.999307,-0.000451909,0.0372204,0.0004684,-0.730721,-0.0768944,9.77808,0.37906,-0.161961,0.854246,-0.00730767,-0.00078001,0.0977806,1,5.6129e-05,-2.36895e-06,6.08866e-06,0.0112258,-0.000473789,0.00121773,0.999307,-0.000451909,0.0372204,0.0004684,-0.247452,0.0981538,-0.910295,36.125,1,55421,44936286
right,22,1,0.999307,-0.000451909,0.0372204,0.0004684,-0.730721,-0.0768944,9.77808,0.37906,-0.161961,0.854246,-0.00730767,-0.00078001,0.0977806,1,5.6129e-05,-2.36895e-06,6.08866e-06,0.0112258,-0.000473789,0.00121773,0.999307,-0.000451909,0.0372204,0.0004684,-0.247452,0.0981538,-0.910295,36.125,1,55421,44936286
right,22,2,0.999307,-0.000451909,0.0372204,0.0004684,-0.730721,-0.0768944,9.77808,0.37906,-0.161961,0.854246,-0.00730767,-0.00078001,0.0977806,1,5.6129e-05,-2.36895e-06,6.08866e-06,0.0112258,-0.000473789,0.00121773,0.999307,-0.000451909,0.0372204,0.0004684,-0.247452,0.0981538,-0.910295,36.125,1,55421,44936286
right,22,3,0.999307,-0.000428096,0.0372119,0.000467493,-0.737779,-0.0803489,9.78962,0.37174,-0.169013,0.868605,-0.00737891,-0.000810305,0.097896,1,3.44813e-05,-5.74432e-06,4.40142e-06,0.00689626,-0.00114886,0.000880285,0.999307,-0.000428096,0.0372119,0.000467493,-0.247543,0.0977382,-0.914345,36.125,1,55422,44936386
right,22,4,0.999307,-0.000428096,0.0372119,0.000467493,-0.737779,-0.0803489,9.78962,0.37174,-0.169013,0.868605,-0.00737891,-0.000810305,0.097896,1,3.44813e-05,-5.74432e-06,4.40142e-06,0.00689626,-0.00114886,0.000880285,0.999307,-0.000428096,0.0372119,0.000467493,-0.247543,0.0977382,-0.914345,36.125,1,55422,44936386
right,22,5,0.999307,-0.000428096,0.0372119,0.000467493,-0.737779,-0.0803489,9.78962,0.37174,-0.169013,0.868605,-0.00737891,-0.000810305,0.097896,1,3.44813e-05,-5.74432e-06,4.40142e-06,0.00689626,-0.00114886,0.000880285,0.999307,-0.000428096,0.0372119,0.000467493,-0.247543,0.0977382,-0.914345,36.125,1,55422,44936386
right,22,6,0.999308,-0.000394629,0.0372047,0.000493919,-0.729805,-0.0745639,9.78588,0.3793,-0.160391,0.8642,-0.0072987,-0.000756275,0.0978586,1,5.24556e-05,-3.54094e-06,2.53323e-05,0.0104911,-0.000708188,0.00506647,0.999308,-0.000394629,0.0372047,0.000493919,-0.247037,0.0977161,-0.913337,36.125,1,55423,44936486
right,22,7,0.999308,-0.000394629,0.0372047,0.000493919,-0.729805,-0.0745639,9.78588,0.3793,-0.160391,0.8642,-0.0072987,-0.000756275,0.0978586,1,5.24556e-05,-3.54094e-06,2.53323e-05,0.0104911,-0.000708188,0.00506647,0.999308,-0.000394629,0.0372047,0.000493919,-0.247037,0.0977161,-0.913337,36.125,1,55423,44936486
right,22,8,0.999308,-0.000394629,0.0372047,0.000493919,-0.729805,-0.0745639,9.78588,0.3793,-0.160391,0.8642,-0.0072987,-0.000756275,0.0978586,1,5.24556e-05,-3.54094e-06,2.53323e-05,0.0104911,-0.000708188,0.00506647,0.999308,-0.000394629,0.0372047,0.000493919,-0.247037,0.0977161,-0.913337,36.125,1,55423,44936486
right,22,9,0.999308,-0.000363247,0.0371908,0.000514291,-0.732625,-0.0764688,9.79268,0.375148,-0.162233,0.873178,-0.00732827,-0.000774719,0.0979266,1,4.94514e-05,-1.05166e-05,2.35623e-05,0.00989028,-0.00210331,0.00471247,0.999308,-0.000363247,0.0371908,0.000514291,-0.246001,0.0962088,-0.911355,36.125,1,55424,44936586
right,22,10,0.999308,-0.000363247,0.0371908,0.000514291,-0.732625,-0.0764688,9.79268,0.375148,-0.162233,0.873178,-0.00732827,-0.000774719,0.0979266,1,4.94514e-05,-1.05166e-05,2.35623e-05,0.00989028,-0.00210331,0.00471247,0.999308,-0.000363247,0.0371908,0.000514291,-0.246001,0.0962088,-0.911355,36.125,1,55424,44936586
right,22,11,0.999308,-0.000363247,0.0371908,0.000514291,-0.732625,-0.0764688,9.79268,0.375148,-0.162233,0.873178,-0.00732827,-0.000774719,0.0979266,1,4.94514e-05,-1.05166e-05,2.35623e-05,0.00989028,-0.00210331,0.00471247,0.999308,-0.000363247,0.0371908,0.000514291,-0.246001,0.0962088,-0.911355,36.125,1,55424,44936586
left,34,1,0.999308,-0.000329795,0.0371784,0.000521507,-0.723239,-0.0773617,9.7848,0.387893,-0.162688,0.863623,-0.00723469,-0.000782889,0.0978478,1,4.61022e-05,-1.18928e-05,1.73453e-05,0.00922044,-0.00237857,0.00346907,0.999308,-0.000329795,0.0371784,0.000521507,-0.245952,0.0947274,-0.910378,36.125,1,55425,44936686
left,34,2,0.999308,-0.000329795,0.0371784,0.000521507,-0.723239,-0.0773617,9.7848,0.387893,-0.162688,0.863623,-0.00723469,-0.000782889,0.0978478,1,4.61022e-05,-1.18928e-05,1.73453e-05,0.00922044,-0.00237857,0.00346907,0.999308,-0.000329795,0.0371784,0.000521507,-0.245952,0.0947274,-0.910378,36.125,1,55425,44936686
left,34,3,0.999308,-0.000329795,0.0371784,0.000521507,-0.723239,-0.0773617,9.7848,0.387893,-0.162688,0.863623,-0.00723469,-0.000782889,0.0978478,1,4.61022e-05,-1.18928e-05,1.73453e-05,0.00922044,-0.00237857,0.00346907,0.999308,-0.000329795,0.0371784,0.000521507,-0.245952,0.0947274,-0.910378,36.125,1,55425,44936686
left,34,4,0.999309,-0.000298208,0.0371736,0.000520914,-0.734436,-0.0799104,9.78316,0.374339,-0.167775,0.862915,-0.00734548,-0.000807443,0.0978314,1,4.19636e-05,-5.80378e-06,8.72831e-06,0.00839272,-0.00116076,0.00174566,0.999309,-0.000298208,0.0371736,0.000520914,-0.245401,0.0956358,-0.906825,36.125,1,55426,44936786
right,23,1,0.999309,-0.000298208,0.0371736,0.000520914,-0.734436,-0.0799104,9.78316,0.374339,-0.167775,0.862915,-0.00734548,-0.000807443,0.0978314,1,4.19636e-05,-5.80378e-06,8.72831e-06,0.00839272,-0.00116076,0.00174566,0.999309,-0.000298208,0.0371736,0.000520914,-0.245401,0.0956358,-0.906825,36.125,1,55426,44936786
right,23,2,0.999309,-0.000298208,0.0371736,0.000520914,-0.734436,-0.0799104,9.78316,0.374339,-0.167775,0.862915,-0.00734548,-0.000807443,0.0978314,1,4.19636e-05,-5.80378e-06,8.72831e-06,0.00839272,-0.00116076,0.00174566,0.999309,-0.000298208,0.0371736,0.000520914,-0.245401,0.0956358,-0.906825,36.125,1,55426,44936786
right,23,3,0.999309,-0.000239505,0.0371655,0.000504591,-0.727394,-0.0663042,9.77916,0.379725,-0.155362,0.857965,-0.00727589,-0.00067496,0.0977914,1,6.0618e-05,-1.003e-05,4.30268e-06,0.0121236,-0.002006,0.000860536,0.999309,-0.000239505,0.0371655,0.000504591,-0.246412,0.0971252,-0.907798,36.125,1,55427,44936886
right,23,4,0.999309,-0.000239505,0.0371655,0.000504591,-0.727394,-0.0663042,9.77916,0.379725,-0.155362,0.857965,-0.00727589,-0.00067496,0.0977914,1,6.0618e-05,-1.003e-05,4.30268e-06,0.0121236,-0.002006,0.000860536,0.999309,-0.000239505,0.0371655,0.000504591,-0.246412,0.0971252,-0.907798,36.125,1,55427,44936886
right,23,5,0.999309,-0.000239505,0.0371655,0.000504591,-0.727394,-0.0663042,9.77916,0.379725,-0.155362,0.857965,-0.00727589,-0.00067496,0.0977914,1,6.0618e-05,-1.003e-05,4.30268e-06,0.0121236,-0.002006,0.000860536,0.999309,-0.000239505,0.0371655,0.000504591,-0.246412,0.0971252,-0.907798,36.125,1,55427,44936886
right,23,6,0.999309,-0.000200672,0.0371608,0.000505679,-0.72739,-0.0691899,9.78456,0.376659,-0.161512,0.864176,-0.00727449,-0.000701013,0.0978455,1,4.55193e-05,-3.13491e-06,1.4143e-05,0.00910387,-0.000626982,0.00282859,0.999309,-0.000200672,0.0371608,0.000505679,-0.248423,0.095759,-0.912364,36.125,1,55428,44936986
right,23,7,0.999309,-0.000200672,0.0371608,0.000505679,-0.72739,-0.0691899,9.78456,0.376659,-0.161512,0.864176,-0.00727449,-0.000701013,0.0978455,1,4.55193e-05,-3.13491e-06,1.4143e-05,0.00910387,-0.000626982,0.00282859,0.999309,-0.000200672,0.0371608,0.000505679,-0.248423,0.095759,-0.912364,36.125,1,55428,44936986
right,23,8,0.999309,-0.000200672,0.0371608,0.000505679,-0.72739,-0.0691899,9.78456,0.376659,-0.161512,0.864176,-0.00727449,-0.000701013,0.0978455,1,4.55193e-05,-3.13491e-06,1.4143e-05,0.00910387,-0.000626982,0.00282859,0.999309,-0.000200672,0.0371608,0.000505679,-0.248423,0.095759,-0.912364,36.125,1,55428,44936986
right,23,9,0.999309,-0.000164902,0.0371633,0.000527397,-0.733831,-0.0733963,9.78932,0.37399,-0.166755,0.866716,-0.00733753,-0.000744281,0.0978931,1,5.14445e-05,3.86644e-06,1.67097e-05,0.0102889,0.000773288,0.00334194,0.999309,-0.000164902,0.0371633,0.000527397,-0.246956,0.0942837,-0.912404,36.125,1,55429,44937086
right,23,10,0.999309,-0.000164902,0.0371633,0.000527397,-0.733831,-0.0733963,9.78932,0.37399,-0.166755,0.866716,-0.00733753,-0.000744281,0.0978931,1,5.14445e-05,3.86644e-06,1.67097e-05,0.0102889,0.000773288,0.00334194,0.999309,-0.000164902,0.0371633,0.000527397,-0.246956,0.0942837,-0.912404,36.125,1,55429,44937086
right,23,11,0.999309,-0.000164902,0.0371633,0.000527397,-0.733831,-0.0733963,9.78932,0.37399,-0.166755,0.866716,-0.00733753,-0.000744281,0.0978931,1,5.14445e-05,3.86644e-06,1.67097e-05,0.0102889,0.000773288,0.00334194,0.999309,-0.000164902,0.0371633,0.000527397,-0.246956,0.0942837,-0.912404,36.125,1,55429,44937086
left,35,1,0.999309,-0.000142666,0.0371551,0.000540204,-0.715504,-0.072435,9.77699,0.396749,-0.161058,0.852223,-0.00715665,-0.000732368,0.0977697,1,4.014e-05,-8.35394e-06,1.18131e-05,0.00802799,-0.00167079,0.00236261,0.999309,-0.000142666,0.0371551,0.000540204,-0.244476,0.0942096,-0.909387,36.125,1,55430,44937186
left,35,2,0.999309,-0.000142666,0.0371551,0.000540204,-0.715504,-0.072435,9.77699,0.396749,-0.161058,0.852223,-0.00715665,-0.000732368,0.0977697,1,4.014e-05,-8.35394e-06,1.18131e-05,0.00802799,-0.00167079,0.00236261,0.999309,-0.000142666,0.0371551,0.000540204,-0.244476,0.0942096,-0.909387,36.125,1,55430,44937186
left,35,3,0.999309,-0.000142666,0.0371551,0.000540204,-0.715504,-0.072435,9.77699,0.396749,-0.161058,0.852223,-0.00715665,-0.000732368,0.0977697,1,4.014e-05,-8.35394e-06,1.18131e-05,0.00802799,-0.00167079,0.00236261,0.999309,-0.000142666,0.0371551,0.000540204,-0.244476,0.0942096,-0.909387,36.125,1,55430,44937186
left,35,4,0.99931,-0.000110185,0.0371447,0.000536287,-0.741846,-0.0800276,9.78932,0.367689,-0.173698,0.86822,-0.00742086,-0.000808933,0.0978929,1,4.30289e-05,-1.23847e-05,1.56408e-05,0.00860578,-0.00247694,0.00312815,0.99931,-0.000110185,0.0371447,0.000536287,-0.244435,0.0946613,-0.907356,36.125,1,55431,44937286
right,24,1,0.99931,-0.000110185,0.0371447,0.000536287,-0.741846,-0.0800276,9.78932,0.367689,-0.173698,0.86822,-0.00742086,-0.000808933,0.0978929,1,4.30289e-05,-1.23847e-05,1.56408e-05,0.00860578,-0.00247694,0.00312815,0.99931,-0.000110185,0.0371447,0.000536287,-0.244435,0.0946613,-0.907356,36.125,1,55431,44937286
right,24,2,0.99931,-0.000110185,0.0371447,0.000536287,-0.741846,-0.0800276,9.78932,0.367689,-0.173698,0.86822,-0.00742086,-0.000808933,0.0978929,1,4.30289e-05,-1.23847e-05,1.56408e-05,0.00860578,-0.00247694,0.00312815,0.99931,-0.000110185,0.0371447,0.000536287,-0.244435,0.0946613,-0.907356,36.125,1,55431,44937286
right,24,3,0.99931,-6.78398e-05,0.0371416,0.000527863,-0.728696,-0.0798246,9.78787,0.378309,-0.171869,0.8665,-0.00728772,-0.000808073,0.0978785,1,4.90639e-05,-4.00265e-06,1.52573e-05,0.00981278,-0.000800529,0.00305146,0.99931,-6.78398e-05,0.0371416,0.000527863,-0.245381,0.0936938,-0.907374,36.125,1,55432,44937386
right,24,4,0.99931,-6.78398e-05,0.0371416,0.000527863,-0.728696,-0.0798246,9.78787,0.378309,-0.171869,0.8665,-0.00728772,-0.000808073,0.0978785,1,4.90639e-05,-4.00265e-06,1.52573e-05,0.00981278,-0.000800529,0.00305146,0.99931,-6.78398e-05,0.0371416,0.000527863,-0.245381,0.0936938,-0.907374,36.125,1,55432,44937386
right,24,5,0.99931,-6.78398e-05,0.0371416,0.000527863,-0.728696,-0.0798246,9.78787,0.378309,-0.171869,0.8665,-0.00728772,-0.000808073,0.0978785,1,4.90639e-05,-4.00265e-06,1.52573e-05,0.00981278,-0.000800529,0.00305146,0.99931,-6.78398e-05,0.0371416,0.000527863,-0.245381,0.0936938,-0.907374,36.125,1,55432,44937386
right,24,6,0.99931,-3.47738e-05,0.0371272,0.000520084,-0.733059,-0.0716369,9.77746,0.371057,-0.168349,0.855284,-0.00733381,-0.000724542,0.0977743,1,4.13695e-05,-1.64823e-05,5.6959e-06,0.00827389,-0.00329647,0.00113918,0.99931,-3.47738e-05,0.0371272,0.000520084,-0.246441,0.0952192,-0.910365,36.125,1,55433,44937486
right,24,7,0.99931,-3.47738e-05,0.0371272,0.000520084,-0.733059,-0.0716369,9.77746,0.371057,-0.168349,0.855284,-0.00733381,-0.000724542,0.0977743,1,4.13695e-05,-1.64823e-05,5.6959e-06,0.00827389,-0.00329647,0.00113918,0.99931,-3.47738e-05,0.0371272,0.000520084,-0.246441,0.0952192,-0.910365,36.125,1,55433,44937486
right,24,8,0.99931,-3.47738e-05,0.0371272,0.000520084,-0.733059,-0.0716369,9.77746,0.371057,-0.168349,0.855284,-0.00733381,-0.000724542,0.0977743,1,4.13695e-05,-1.64823e-05,5.6959e-06,0.00827389,-0.00329647,0.00113918,0.99931,-3.47738e-05,0.0371272,0.000520084,-0.246441,0.0952192,-0.910365,36.125,1,55433,44937486
right,24,9,0.999311,-1.15112e-05,0.0371155,0.000528207,-0.729597,-0.0735002,9.7893,0.37527,-0.17285,0.865813,-0.00729803,-0.000742813,0.0978928,1,3.89852e-05,-1.06266e-05,1.22169e-05,0.00779704,-0.00212532,0.00244337,0.999311,-1.15112e-05,0.0371155,0.000528207,-0.247008,0.0967316,-0.912854,36.125,1,55434,44937586
right,24,10,0.999311,-1.15112e-05,0.0371155,0.000528207,-0.729597,-0.0735002,9.7893,0.37527,-0.17285,0.865813,-0.00729803,-0.000742813,0.0978928,1,3.89852e-05,-1.06266e-05,1.22169e-05,0.00779704,-0.00212532,0.00244337,0.999311,-1.15112e-05,0.0371155,0.000528207,-0.247008,0.0967316,-0.912854,36.125,1,55434,44937586
right,24,11,0.999311,-1.15112e-05,0.0371155,0.000528207,-0.729597,-0.0735002,9.7893,0.37527,-0.17285,0.865813,-0.00729803,-0.000742813,0.0978928,1,3.89852e-05,-1.06266e-05,1.22169e-05,0.00779704,-0.00212532,0.00244337,0.999311,-1.15112e-05,0.0371155,0.000528207,-0.247008,0.0967316,-0.912854,36.125,1,55434,44937586
left,36,1,0.999311,7.67693e-06,0.0371109,0.000541855,-0.733392,-0.0863809,9.78581,0.375022,-0.17923,0.862326,-0.00733403,-0.000872202,0.097858,1,4.19654e-05,-6.38753e-07,1.22096e-05,0.00839308,-0.000127751,0.00244193,0.999311,7.67693e-06,0.0371109,0.000541855,-0.247552,0.0953354,-0.916418,36.125,1,55435,44937686
left,36,2,0.999311,7.67693e-06,0.0371109,0.000541855,-0.733392,-0.0863809,9.78581,0.375022,-0.17923,0.862326,-0.00733403,-0.000872202,0.097858,1,4.19654e-05,-6.38753e-07,1.22096e-05,0.00839308,-0.000127751,0.00244193,0.999311,7.67693e-06,0.0371109,0.000541855,-0.247552,0.0953354,-0.916418,36.125,1,55435,44937686
left,36,3,0.999311,7.67693e-06,0.0371109,0.000541855,-0.733392,-0.0863809,9.78581,0.375022,-0.17923,0.862326,-0.00733403,-0.000872202,0.097858,1,4.19654e-05,-6.38753e-07,1.22096e-05,0.00839308,-0.000127751,0.00244193,0.999311,7.67693e-06,0.0371109,0.000541855,-0.247552,0.0953354,-0.916418,36.125,1,55435,44937686
left,36,4,0.999311,1.73779e-05,0.0371034,0.000576274,-0.734796,-0.078515,9.78351,0.368607,-0.171688,0.860333,-0.00734876,-0.000794002,0.097835,1,4.39249e-05,-4.20768e-06,1.75032e-05,0.00878498,-0.000841536,0.00350065,0.999311,1.73779e-05,0.0371034,0.000576274,-0.245036,0.093789,-0.912929,36.125,1,55436,44937786
right,25,1,0.999311,1.73779e-05,0.0371034,0.000576274,-0.734796,-0.078515,9.78351,0.368607,-0.171688,0.860333,-0.00734876,-0.000794002,0.097835,1,4.39249e-05,-4.20768e-06,1.75032e-05,0.00878498,-0.000841536,0.00350065,0.999311,1.73779e-05,0.0371034,0.000576274,-0.245036,0.093789,-0.912929,36.125,1,55436,44937786
right,25,2,0.999311,1.73779e-05,0.0371034,0.000576274,-0.734796,-0.078515,9.78351,0.368607,-0.171688,0.860333,-0.00734876,-0.000794002,0.097835,1,4.39249e-05,-4.20768e-06,1.75032e-05,0.00878498,-0.000841536,0.00350065,0.999311,1.73779e-05,0.0371034,0.000576274,-0.245036,0.093789,-0.912929,36.125,1,55436,44937786
right,25,3,0.999312,3.27017e-05,0.0370949,0.000562877,-0.72762,-0.0771393,9.78484,0.376863,-0.175872,0.865623,-0.00727801,-0.000779276,0.0978482,1,4.03691e-05,-9.24443e-06,-1.21257e-06,0.00807382,-0.00184889,-0.000242513,0.999312,3.27017e-05,0.0370949,0.000562877,-0.245874,0.0937068,-0.907876,36.125,1,55437,44937886
right,25,4,0.999312,3.27017e-05,0.0370949,0.000562877,-0.72762,-0.0771393,9.78484,0.376863,-0.175872,0.865623,-0.00727801,-0.000779276,0.0978482,1,4.03691e-05,-9.24443e-06,-1.21257e-06,0.00807382,-0.00184889,-0.000242513,0.999312,3.27017e-05,0.0370949,0.000562877,-0.245874,0.0937068,-0.907876,36.125,1,55437,44937886
right,25,5,0.999312,3.27017e-05,0.0370949,0.000562877,-0.72762,-0.0771393,9.78484,0.376863,-0.175872,0.865623,-0.00727801,-0.000779276,0.0978482,1,4.03691e-05,-9.24443e-06,-1.21257e-06,0.00807382,-0.00184889,-0.000242513,0.999312,3.27017e-05,0.0370949,0.000562877,-0.245874,0.0937068,-0.907876,36.125,1,55437,44937886
right,25,6,0.999311,7.37411e-05,0.0370994,0.000554883,-0.722562,-0.0817819,9.78476,0.385393,-0.178226,0.862952,-0.00722524,-0.000826256,0.0978475,1,4.21647e-05,1.79195e-06,1.288e-05,0.00843295,0.000358391,0.00257601,0.999311,7.37411e-05,0.0370994,0.000554883,-0.246812,0.0936968,-0.906862,36.125,1,55438,44937986
right,25,7,0.999311,7.37411e-05,0.0370994,0.000554883,-0.722562,-0.0817819,9.78476,0.385393,-0.178226,0.862952,-0.00722524,-0.000826256,0.0978475,1,4.21647e-05,1.79195e-06,1.288e-05,0.00843295,0.000358391,0.00257601,0.999311,7.37411e-05,0.0370994,0.000554883,-0.246812,0.0936968,-0.906862,36.125,1,55438,44937986
right,25,8,0.999311,7.37411e-05,0.0370994,0.000554883,-0.722562,-0.0817819,9.78476,0.385393,-0.178226,0.862952,-0.00722524,-0.000826256,0.0978475,1,4.21647e-05,1.79195e-06,1.288e-05,0.00843295,0.000358391,0.00257601,0.999311,7.37411e-05,0.0370994,0.000554883,-0.246812,0.0936968,-0.906862,36.125,1,55438,44937986
right,25,9,0.999312,0.000118911,0.0370841,0.00054676,-0.731999,-0.0740315,9.78761,0.372163,-0.173519,0.865062,-0.00732328,-0.000749166,0.0978758,1,4.47425e-05,-1.6872e-05,6.34433e-06,0.00894851,-0.0033744,0.00126887,0.999312,0.000118911,0.0370841,0.00054676,-0.247852,0.0961707,-0.908317,36.125,1,55439,44938086
right,25,10,0.999312,0.000118911,0.0370841,0.00054676,-0.731999,-0.0740315,9.78761,0.372163,-0.173519,0.865062,-0.00732328,-0.000749166,0.0978758,1,4.47425e-05,-1.6872e-05,6.34433e-06,0.00894851,-0.0033744,0.00126887,0.999312,0.000118911,0.0370841,0.00054676,-0.247852,0.0961707,-0.908317,36.125,1,55439,44938086
right,25,11,0.999312,0.000118911,0.0370841,0.00054676,-0.731999,-0.0740315,9.78761,0.372163,-0.173519,0.865062,-0.00732328,-0.000749166,0.0978758,1,4.47425e-05,-1.6872e-05,6.34433e-06,0.00894851,-0.0033744,0.00126887,0.999312,0.000118911,0.0370841,0.00054676,-0.247852,0.0961707,-0.908317,36.125,1,55439,44938086
left,37,1,0.999312,0.000159555,0.0370748,0.000534914,-0.739545,-0.0787946,9.78422,0.362941,-0.175051,0.863888,-0.00739668,-0.000797511,0.097842,1,4.93527e-05,-6.25477e-06,-6.27892e-06,0.00987053,-0.00125095,-0.00125578,0.999312,0.000159555,0.0370748,0.000534914,-0.248439,0.0967346,-0.912342,36.125,1,55440,44938186
left,37,2,0.999312,0.000159555,0.0370748,0.000534914,-0.739545,-0.0787946,9.78422,0.362941,-0.175051,0.863888,-0.00739668,-0.000797511,0.097842,1,4.93527e-05,-6.25477e-06,-6.27892e-06,0.00987053,-0.00125095,-0.00125578,0.999312,0.000159555,0.0370748,0.000534914,-0.248439,0.0967346,-0.912342,36.125,1,55440,44938186
left,37,3,0.999312,0.000159555,0.0370748,0.000534914,-0.739545,-0.0787946,9.78422,0.362941,-0.175051,0.863888,-0.00739668,-0.000797511,0.097842,1,4.93527e-05,-6.25477e-06,-6.27892e-06,0.00987053,-0.00125095,-0.00125578,0.999312,0.000159555,0.0370748,0.000534914,-0.248439,0.0967346,-0.912342,36.125,1,55440,44938186
left,37,4,0.999313,0.000179291,0.0370579,0.000550317,-0.720477,-0.0736501,9.78685,0.387168,-0.171771,0.86659,-0.00720715,-0.000744975,0.0978683,1,4.26322e-05,-1.21986e-05,8.92397e-06,0.00852643,-0.00243972,0.00178479,0.999313,0.000179291,0.0370579,0.000550317,-0.247515,0.0953083,-0.914904,36.125,1,55441,44938286
right,26,1,0.999313,0.000179291,0.0370579,0.000550317,-0.720477,-0.0736501,9.78685,0.387168,-0.171771,0.86659,-0.00720715,-0.000744975,0.0978683,1,4.26322e-05,-1.21986e-05,8.92397e-06,0.00852643,-0.00243972,0.00178479,0.999313,0.000179291,0.0370579,0.000550317,-0.247515,0.0953083,-0.914904,36.125,1,55441,44938286
right,26,2,0.999313,0.000179291,0.0370579,0.000550317,-0.720477,-0.0736501,9.78685,0.387168,-0.171771,0.86659,-0.00720715,-0.000744975,0.0978683,1,4.26322e-05,-1.21986e-05,8.92397e-06,0.00852643,-0.00243972,0.00178479,0.999313,0.000179291,0.0370579,0.000550317,-0.247515,0.0953083,-0.914904,36.125,1,55441,44938286
right,26,3,0.999314,0.000182231,0.0370407,0.000562757,-0.734989,-0.0849831,9.77736,0.367259,-0.186263,0.855737,-0.00735274,-0.000857108,0.0977734,1,3.7212e-05,-1.45526e-05,-3.7935e-09,0.0074424,-0.00291053,-7.58701e-07,0.999314,0.000182231,0.0370407,0.000562757,-0.245031,0.0942677,-0.912413,36.125,1,55442,44938386
right,26,4,0.999314,0.000182231,0.0370407,0.000562757,-0.734989,-0.0849831,9.77736,0.367259,-0.186263,0.855737,-0.00735274,-0.000857108,0.0977734,1,3.7212e-05,-1.45526e-05,-3.7935e-09,0.0074424,-0.00291053,-7.58701e-07,0.999314,0.000182231,0.0370407,0.000562757,-0.245031,0.0942677,-0.912413,36.125,1,55442,44938386
right,26,5,0.999314,0.000182231,0.0370407,0.000562757,-0.734989,-0.0849831,9.77736,0.367259,-0.186263,0.855737,-0.00735274,-0.000857108,0.0977734,1,3.7212e-05,-1.45526e-05,-3.7935e-09,0.0074424,-0.00291053,-7.58701e-07,0.999314,0.000182231,0.0370407,0.000562757,-0.245031,0.0942677,-0.912413,36.125,1,55442,44938386
right,26,6,0.999314,0.000199254,0.0370262,0.000541993,-0.732923,-0.0798963,9.78791,0.3726,-0.178427,0.865847,-0.00733227,-0.000807494,0.0978788,1,4.34312e-05,-1.55646e-05,1.94444e-06,0.00868623,-0.00311291,0.000388887,0.999314,0.000199254,0.0370262,0.000541993,-0.244949,0.0951711,-0.908353,36.125,1,55443,44938486
right,26,7,0.999314,0.000199254,0.0370262,0.000541993,-0.732923,-0.0798963,9.78791,0.3726,-0.178427,0.865847,-0.00733227,-0.000807494,0.0978788,1,4.34312e-05,-1.55646e-05,1.94444e-06,0.00868623,-0.00311291,0.000388887,0.999314,0.000199254,0.0370262,0.000541993,-0.244949,0.0951711,-0.908353,36.125,1,55443,44938486
right,26,8,0.999314,0.000199254,0.0370262,0.000541993,-0.732923,-0.0798963,9.78791,0.3726,-0.178427,0.865847,-0.00733227,-0.000807494,0.0978788,1,4.34312e-05,-1.55646e-05,1.94444e-06,0.00868623,-0.00311291,0.000388887,0.999314,0.000199254,0.0370262,0.000541993,-0.244949,0.0951711,-0.908353,36.125,1,55443,44938486
right,26,9,0.999315,0.000231978,0.0370118,0.000521288,-0.73734,-0.0765807,9.79746,0.367019,-0.177382,0.880307,-0.00737628,-0.000773837,0.0979743,1,3.96428e-05,-1.48524e-05,1.77641e-05,0.00792856,-0.00297048,0.00355283,0.999315,0.000231978,0.0370118,0.000521288,-0.245857,0.0956218,-0.905813,36.125,1,55444,44938586
right,26,10,0.999315,0.000231978,0.0370118,0.000521288,-0.73734,-0.0765807,9.79746,0.367019,-0.177382,0.880307,-0.00737628,-0.000773837,0.0979743,1,3.96428e-05,-1.48524e-05,1.77641e-05,0.00792856,-0.00297048,0.00355283,0.999315,0.000231978,0.0370118,0.000521288,-0.245857,0.0956218,-0.905813,36.125,1,55444,44938586
left,38,1,0.999315,0.000280943,0.0370071,0.000499793,-0.728983,-0.0852559,9.78443,0.376043,-0.186876,0.863338,-0.00729059,-0.000862007,0.0978442,1,4.73819e-05,-4.00296e-06,1.20776e-05,0.00947639,-0.000800591,0.00241551,0.999315,0.000280943,0.0370071,0.000499793,-0.246881,0.0971202,-0.90729,36.125,1,55445,44938686
left,38,2,0.999315,0.000280943,0.0370071,0.000499793,-0.728983,-0.0852559,9.78443,0.376043,-0.186876,0.863338,-0.00729059,-0.000862007,0.0978442,1,4.73819e-05,-4.00296e-06,1.20776e-05,0.00947639,-0.000800591,0.00241551,0.999315,0.000280943,0.0370071,0.000499793,-0.246881,0.0971202,-0.90729,36.125,1,55445,44938686
left,38,3,0.999315,0.000280943,0.0370071,0.000499793,-0.728983,-0.0852559,9.78443,0.376043,-0.186876,0.863338,-0.00729059,-0.000862007,0.0978442,1,4.73819e-05,-4.00296e-06,1.20776e-05,0.00947639,-0.000800591,0.00241551,0.999315,0.000280943,0.0370071,0.000499793,-0.246881,0.0971202,-0.90729,36.125,1,55445,44938686
left,38,4,0.999315,0.000315893,0.0369963,0.000491961,-0.728257,-0.0870238,9.7878,0.374197,-0.18674,0.866914,-0.00728367,-0.000878913,0.0978779,1,4.34089e-05,-5.72945e-06,1.21595e-05,0.00868178,-0.00114589,0.00243189,0.999315,0.000315893,0.0369963,0.000491961,-0.246979,0.0986376,-0.910287,36.125,1,55446,44938786
right,27,1,0.999315,0.000315893,0.0369963,0.000491961,-0.728257,-0.0870238,9.7878,0.374197,-0.18674,0.866914,-0.00728367,-0.000878913,0.0978779,1,4.34089e-05,-5.72945e-06,1.21595e-05,0.00868178,-0.00114589,0.00243189,0.999315,0.000315893,0.0369963,0.000491961,-0.246979,0.0986376,-0.910287,36.125,1,55446,44938786
right,27,2,0.999315,0.000315893,0.0369963,0.000491961,-0.728257,-0.0870238,9.7878,0.374197,-0.18674,0.866914,-0.00728367,-0.000878913,0.0978779,1,4.34089e-05,-5.72945e-06,1.21595e-05,0.00868178,-0.00114589,0.00243189,0.999315,0.000315893,0.0369963,0.000491961,-0.246979,0.0986376,-0.910287,36.125,1,55446,44938786
right,27,3,0.999316,0.000324947,0.0369743,0.000485628,-0.737195,-0.0754504,9.77169,0.362104,-0.177712,0.851039,-0.00737451,-0.000760505,0.0977167,1,2.99122e-05,-1.31819e-05,1.05072e-05,0.00598244,-0.00263639,0.00210144,0.999316,0.000324947,0.0369743,0.000485628,-0.248007,0.0982119,-0.913322,36.125,1,55447,44938886
right,27,4,0.999316,0.000324947,0.0369743,0.000485628,-0.737195,-0.0754504,9.77169,0.362104,-0.177712,0.851039,-0.00737451,-0.000760505,0.0977167,1,2.99122e-05,-1.31819e-05,1.05072e-05,0.00598244,-0.00263639,0.00210144,0.999316,0.000324947,0.0369743,0.000485628,-0.248007,0.0982119,-0.913322,36.125,1,55447,44938886
right,27,5,0.999316,0.000324947,0.0369743,0.000485628,-0.737195,-0.0754504,9.77169,0.362104,-0.177712,0.851039,-0.00737451,-0.000760505,0.0977167,1,2.99122e-05,-1.31819e-05,1.05072e-05,0.00598244,-0.00263639,0.00210144,0.999316,0.000324947,0.0369743,0.000485628,-0.248007,0.0982119,-0.913322,36.125,1,55447,44938886
right,27,6,0.999317,0.000352701,0.0369608,0.00048639,-0.731355,-0.0701175,9.78866,0.373396,-0.173779,0.865136,-0.00731441,-0.000712487,0.0978864,1,5.75855e-05,-4.45766e-06,2.62035e-06,0.0115171,-0.000891533,0.000524071,0.999317,0.000352701,0.0369608,0.00048639,-0.246474,0.095725,-0.911364,36.125,1,55448,44938986
right,27,7,0.999317,0.000352701,0.0369608,0.00048639,-0.731355,-0.0701175,9.78866,0.373396,-0.173779,0.865136,-0.00731441,-0.000712487,0.0978864,1,5.75855e-05,-4.45766e-06,2.62035e-06,0.0115171,-0.000891533,0.000524071,0.999317,0.000352701,0.0369608,0.00048639,-0.246474,0.095725,-0.911364,36.125,1,55448,44938986
right,27,8,0.999317,0.000352701,0.0369608,0.00048639,-0.731355,-0.0701175,9.78866,0.373396,-0.173779,0.865136,-0.00731441,-0.000712487,0.0978864,1,5.75855e-05,-4.45766e-06,2.62035e-06,0.0115171,-0.000891533,0.000524071,0.999317,0.000352701,0.0369608,0.00048639,-0.246474,0.095725,-0.911364,36.125,1,55448,44938986
right,27,9,0.999317,0.000378421,0.03695,0.000489172,-0.738253,-0.0760006,9.77746,0.364605,-0.180485,0.8576,-0.00738454,-0.000769794,0.0977743,1,4.92781e-05,-1.0386e-05,1.03063e-05,0.00985563,-0.00207721,0.00206126,0.999317,0.000378421,0.03695,0.000489172,-0.243489,0.0956289,-0.907339,36.125,1,55449,44939086
right,27,10,0.999317,0.000378421,0.03695,0.000489172,-0.738253,-0.0760006,9.77746,0.364605,-0.180485,0.8576,-0.00738454,-0.000769794,0.0977743,1,4.92781e-05,-1.0386e-05,1.03063e-05,0.00985563,-0.00207721,0.00206126,0.999317,0.000378421,0.03695,0.000489172,-0.243489,0.0956289,-0.907339,36.125,1,55449,44939086
right,27,11,0.999317,0.000378421,0.03695,0.000489172,-0.738253,-0.0760006,9.77746,0.364605,-0.180485,0.8576,-0.00738454,-0.000769794,0.0977743,1,4.92781e-05,-1.0386e-05,1.03063e-05,0.00985563,-0.00207721,0.00206126,0.999317,0.000378421,0.03695,0.000489172,-0.243489,0.0956289,-0.907339,36.125,1,55449,44939086
left,39,1,0.999317,0.000424203,0.0369512,0.000467703,-0.72805,-0.0772359,9.78619,0.373682,-0.187368,0.864759,-0.00728108,-0.000784059,0.0978617,1,5.82597e-05,-3.15372e-06,2.04074e-05,0.0116519,-0.000630745,0.00408149,0.999317,0.000424203,0.0369512,0.000467703,-0.245437,0.0971082,-0.907297,36.125,1,55450,44939186
left,39,2,0.999317,0.000424203,0.0369512,0.000467703,-0.72805,-0.0772359,9.78619,0.373682,-0.187368,0.864759,-0.00728108,-0.000784059,0.0978617,1,5.82597e-05,-3.15372e-06,2.04074e-05,0.0116519,-0.000630745,0.00408149,0.999317,0.000424203,0.0369512,0.000467703,-0.245437,0.0971082,-0.907297,36.125,1,55450,44939186
left,39,3,0.999317,0.000424203,0.0369512,0.000467703,-0.72805,-0.0772359,9.78619,0.373682,-0.187368,0.864759,-0.00728108,-0.000784059,0.0978617,1,5.82597e-05,-3.15372e-06,2.04074e-05,0.0116519,-0.000630745,0.00408149,0.999317,0.000424203,0.0369512,0.000467703,-0.245437,0.0971082,-0.907297,36.125,1,55450,44939186
left,39,4,0.999317,0.0004736,0.0369389,0.000454274,-0.722315,-0.0584239,9.78157,0.381101,-0.163306,0.855837,-0.00722529,-0.000596802,0.0978155,1,6.34343e-05,-1.10173e-05,1.05759e-05,0.0126869,-0.00220346,0.00211519,0.999317,0.0004736,0.0369389,0.000454274,-0.249364,0.0981608,-0.909781,36.125,1,55451,44939286
right,28,1,0.999317,0.0004736,0.0369389,0.000454274,-0.722315,-0.0584239,9.78157,0.381101,-0.163306,0.855837,-0.00722529,-0.000596802,0.0978155,1,6.34343e-05,-1.10173e-05,1.05759e-05,0.0126869,-0.00220346,0.00211519,0.999317,0.0004736,0.0369389,0.000454274,-0.249364,0.0981608,-0.909781,36.125,1,55451,44939286
right,28,2,0.999317,0.0004736,0.0369389,0.000454274,-0.722315,-0.0584239,9.78157,0.381101,-0.163306,0.855837,-0.00722529,-0.000596802,0.0978155,1,6.34343e-05,-1.10173e-05,1.05759e-05,0.0126869,-0.00220346,0.00211519,0.999317,0.0004736,0.0369389,0.000454274,-0.249364,0.0981608,-0.909781,36.125,1,55451,44939286
right,28,3,0.999318,0.000498158,0.0369187,0.000467458,-0.716677,-0.0816465,9.77828,0.386338,-0.190691,0.853964,-0.00716956,-0.000824903,0.0977825,1,4.20232e-05,-1.44184e-05,1.5298e-05,0.00840464,-0.00288368,0.00305959,0.999318,0.000498158,0.0369187,0.000467458,-0.24941,0.0972303,-0.912327,36.125,1,55452,44939386
right,28,4,0.999318,0.000498158,0.0369187,0.000467458,-0.716677,-0.0816465,9.77828,0.386338,-0.190691,0.853964,-0.00716956,-0.000824903,0.0977825,1,4.20232e-05,-1.44184e-05,1.5298e-05,0.00840464,-0.00288368,0.00305959,0.999318,0.000498158,0.0369187,0.000467458,-0.24941,0.0972303,-0.912327,36.125,1,55452,44939386
right,28,5,0.999318,0.000498158,0.0369187,0.000467458,-0.716677,-0.0816465,9.77828,0.386338,-0.190691,0.853964,-0.00716956,-0.000824903,0.0977825,1,4.20232e-05,-1.44184e-05,1.5298e-05,0.00840464,-0.00288368,0.00305959,0.999318,0.000498158,0.0369187,0.000467458,-0.24941,0.0972303,-0.912327,36.125,1,55452,44939386
right,28,6,0.999318,0.000514778,0.0369177,0.000480104,-0.728077,-0.080579,9.78514,0.37184,-0.191352,0.864125,-0.00728036,-0.000814058,0.0978514,1,4.1848e-05,2.06183e-06,5.42613e-06,0.00836961,0.000412366,0.00108523,0.999318,0.000514778,0.0369177,0.000480104,-0.24798,0.0943368,-0.914923,36.125,1,55453,44939486
right,28,7,0.999318,0.000514778,0.0369177,0.000480104,-0.728077,-0.080579,9.78514,0.37184,-0.191352,0.864125,-0.00728036,-0.000814058,0.0978514,1,4.1848e-05,2.06183e-06,5.42613e-06,0.00836961,0.000412366,0.00108523,0.999318,0.000514778,0.0369177,0.000480104,-0.24798,0.0943368,-0.914923,36.125,1,55453,44939486
right,28,8,0.999318,0.000514778,0.0369177,0.000480104,-0.728077,-0.080579,9.78514,0.37184,-0.191352,0.864125,-0.00728036,-0.000814058,0.0978514,1,4.1848e-05,2.06183e-06,5.42613e-06,0.00836961,0.000412366,0.00108523,0.999318,0.000514778,0.0369177,0.000480104,-0.24798,0.0943368,-0.914923,36.125,1,55453,44939486
right,28,9,0.999318,0.000536024,0.0369155,0.000497608,-0.733068,-0.0873254,9.7919,0.368221,-0.194293,0.872536,-0.00733118,-0.000883943,0.0979188,1,5.40352e-05,-2.64883e-06,7.23499e-06,0.010807,-0.000529766,0.001447,0.999318,0.000536024,0.0369155,0.000497608,-0.244534,0.0932882,-0.912437,36.125,1,55454,44939586
right,28,10,0.999318,0.000536024,0.0369155,0.000497608,-0.733068,-0.0873254,9.7919,0.368221,-0.194293,0.872536,-0.00733118,-0.000883943,0.0979188,1,5.40352e-05,-2.64883e-06,7.23499e-06,0.010807,-0.000529766,0.001447,0.999318,0.000536024,0.0369155,0.000497608,-0.244534,0.0932882,-0.912437,36.125,1,55454,44939586
right,28,11,0.999318,0.000536024,0.0369155,0.000497608,-0.733068,-0.0873254,9.7919,0.368221,-0.194293,0.872536,-0.00733118,-0.000883943,0.0979188,1,5.40352e-05,-2.64883e-06,7.23499e-06,0.010807,-0.000529766,0.001447,0.999318,0.000536024,0.0369155,0.000497608,-0.244534,0.0932882,-0.912437,36.125,1,55454,44939586
left,40,1,0.999318,0.000556426,0.0369067,0.000491732,-0.72987,-0.0830013,9.79701,0.371489,-0.192762,0.875708,-0.00730111,-0.000839323,0.0979699,1,4.61302e-05,-1.2463e-05,1.8567e-05,0.00922603,-0.0024926,0.00371341,0.999318,0.000556426,0.0369067,0.000491732,-0.243505,0.0951591,-0.90836,36.125,1,55455,44939686
left,40,2,0.999318,0.000556426,0.0369067,0.000491732,-0.72987,-0.0830013,9.79701,0.371489,-0.192762,0.875708,-0.00730111,-0.000839323,0.0979699,1,4.61302e-05,-1.2463e-05,1.8567e-05,0.00922603,-0.0024926,0.00371341,0.999318,0.000556426,0.0369067,0.000491732,-0.243505,0.0951591,-0.90836,36.125,1,55455,44939686
left,40,3,0.999318,0.000556426,0.0369067,0.000491732,-0.72987,-0.0830013,9.79701,0.371489,-0.192762,0.875708,-0.00730111,-0.000839323,0.0979699,1,4.61302e-05,-1.2463e-05,1.8567e-05,0.00922603,-0.0024926,0.00371341,0.999318,0.000556426,0.0369067,0.000491732,-0.243505,0.0951591,-0.90836,36.125,1,55455,44939686
left,40,4,0.999319,0.000592886,0.0368971,0.000447458,-0.726989,-0.0694338,9.78151,0.379352,-0.18047,0.859773,-0.00727214,-0.000704549,0.0978148,1,5.23459e-05,-1.15244e-05,-2.07127e-06,0.0104692,-0.00230489,-0.000414253,0.999319,0.000592886,0.0368971,0.000447458,-0.243933,0.0956058,-0.905823,36.125,1,55456,44939786
right,29,1,0.999319,0.000592886,0.0368971,0.000447458,-0.726989,-0.0694338,9.78151,0.379352,-0.18047,0.859773,-0.00727214,-0.000704549,0.0978148,1,5.23459e-05,-1.15244e-05,-2.07127e-06,0.0104692,-0.00230489,-0.000414253,0.999319,0.000592886,0.0368971,0.000447458,-0.243933,0.0956058,-0.905823,36.125,1,55456,44939786
right,29,2,0.999319,0.000592886,0.0368971,0.000447458,-0.726989,-0.0694338,9.78151,0.379352,-0.18047,0.859773,-0.00727214,-0.000704549,0.0978148,1,5.23459e-05,-1.15244e-05,-2.07127e-06,0.0104692,-0.00230489,-0.000414253,0.999319,0.000592886,0.0368971,0.000447458,-0.243933,0.0956058,-0.905823,36.125,1,55456,44939786
right,29,3,0.999319,0.000618523,0.0368922,0.000425128,-0.715104,-0.0793952,9.78541,0.387867,-0.189547,0.862091,-0.00715221,-0.000801466,0.0978539,1,3.75601e-05,-6.07435e-06,1.14406e-05,0.00751203,-0.00121487,0.00228813,0.999319,0.000618523,0.0368922,0.000425128,-0.246416,0.0966464,-0.908313,36.125,1,55457,44939886
right,29,4,0.999319,0.000618523,0.0368922,0.000425128,-0.715104,-0.0793952,9.78541,0.387867,-0.189547,0.862091,-0.00715221,-0.000801466,0.0978539,1,3.75601e-05,-6.07435e-06,1.14406e-05,0.00751203,-0.00121487,0.00228813,0.999319,0.000618523,0.0368922,0.000425128,-0.246416,0.0966464,-0.908313,36.125,1,55457,44939886
right,29,5,0.999319,0.000618523,0.0368922,0.000425128,-0.715104,-0.0793952,9.78541,0.387867,-0.189547,0.862091,-0.00715221,-0.000801466,0.0978539,1,3.75601e-05,-6.07435e-06,1.14406e-05,0.00751203,-0.00121487,0.00228813,0.999319,0.000618523,0.0368922,0.000425128,-0.246416,0.0966464,-0.908313,36.125,1,55457,44939886
right,29,6,0.999319,0.000650663,0.0368769,0.00042394,-0.72335,-0.062198,9.77882,0.374334,-0.171882,0.856375,-0.00723609,-0.000632154,0.097788,1,5.11724e-05,-1.33179e-05,1.14369e-05,0.0102345,-0.00266359,0.00228738,0.999319,0.000650663,0.0368769,0.00042394,-0.247983,0.0967486,-0.913354,36.125,1,55458,44939986
right,29,7,0.999319,0.000650663,0.0368769,0.00042394,-0.72335,-0.062198,9.77882,0.374334,-0.171882,0.856375,-0.00723609,-0.000632154,0.097788,1,5.11724e-05,-1.33179e-05,1.14369e-05,0.0102345,-0.00266359,0.00228738,0.999319,0.000650663,0.0368769,0.00042394,-0.247983,0.0967486,-0.913354,36.125,1,55458,44939986
right,29,8,0.999319,0.000650663,0.0368769,0.00042394,-0.72335,-0.062198,9.77882,0.374334,-0.171882,0.856375,-0.00723609,-0.000632154,0.097788,1,5.11724e-05,-1.33179e-05,1.14369e-05,0.0102345,-0.00266359,0.00228738,0.999319,0.000650663,0.0368769,0.00042394,-0.247983,0.0967486,-0.913354,36.125,1,55458,44939986
right,29,9,0.99932,0.000659482,0.0368617,0.000443505,-0.717919,-0.0853373,9.7925,0.380747,-0.197925,0.870943,-0.00718164,-0.000860979,0.0979248,1,3.77577e-05,-1.26215e-05,1.47465e-05,0.00755153,-0.00252429,0.00294929,0.99932,0.000659482,0.0368617,0.000443505,-0.247037,0.0962709,-0.914379,36.125,1,55459,44940086
right,29,10,0.99932,0.000659482,0.0368617,0.000443505,-0.717919,-0.0853373,9.7925,0.380747,-0.197925,0.870943,-0.00718164,-0.000860979,0.0979248,1,3.77577e-05,-1.26215e-05,1.47465e-05,0.00755153,-0.00252429,0.00294929,0.99932,0.000659482,0.0368617,0.000443505,-0.247037,0.0962709,-0.914379,36.125,1,55459,44940086
right,29,11,0.99932,0.000659482,0.0368617,0.000443505,-0.717919,-0.0853373,9.7925,0.380747,-0.197925,0.870943,-0.00718164,-0.000860979,0.0979248,1,3.77577e-05,-1.26215e-05,1.47465e-05,0.00755153,-0.00252429,0.00294929,0.99932,0.000659482,0.0368617,0.000443505,-0.247037,0.0962709,-0.914379,36.125,1,55459,44940086
left,41,1,0.99932,0.000677567,0.0368521,0.000448867,-0.730675,-0.0770014,9.7835,0.370512,-0.190941,0.862543,-0.00730834,-0.000780032,0.0978348,1,5.10253e-05,-8.19216e-06,2.30409e-06,0.0102051,-0.00163843,0.000460817,0.99932,0.000677567,0.0368521,0.000448867,-0.246927,0.0947444,-0.910878,36.125,1,55460,44940186
left,41,2,0.99932,0.000677567,0.0368521,0.000448867,-0.730675,-0.0770014,9.7835,0.370512,-0.190941,0.862543,-0.00730834,-0.000780032,0.0978348,1,5.10253e-05,-8.19216e-06,2.30409e-06,0.0102051,-0.00163843,0.000460817,0.99932,0.000677567,0.0368521,0.000448867,-0.246927,0.0947444,-0.910878,36.125,1,55460,44940186
left,41,3,0.999321,0.000716264,0.0368299,0.000453449,-0.722043,-0.0791483,9.77903,0.378844,-0.190267,0.858987,-0.007225,-0.000803469,0.0977898,1,6.04577e-05,-2.34749e-05,1.11778e-05,0.0120915,-0.00469499,0.00223556,0.999321,0.000716264,0.0368299,0.000453449,-0.245878,0.0946733,-0.907349,36.125,1,55461,44940286
right,30,1,0.999321,0.000716264,0.0368299,0.000453449,-0.722043,-0.0791483,9.77903,0.378844,-0.190267,0.858987,-0.007225,-0.000803469,0.0977898,1,6.04577e-05,-2.34749e-05,1.11778e-05,0.0120915,-0.00469499,0.00223556,0.999321,0.000716264,0.0368299,0.000453449,-0.245878,0.0946733,-0.907349,36.125,1,55461,44940286
right,30,2,0.999321,0.000716264,0.0368299,0.000453449,-0.722043,-0.0791483,9.77903,0.378844,-0.190267,0.858987,-0.007225,-0.000803469,0.0977898,1,6.04577e-05,-2.34749e-05,1.11778e-05,0.0120915,-0.00469499,0.00223556,0.999321,0.000716264,0.0368299,0.000453449,-0.245878,0.0946733,-0.907349,36.125,1,55461,44940286
right,30,3,0.999322,0.000767206,0.0368161,0.000441141,-0.718293,-0.0842354,9.78336,0.377512,-0.195062,0.863652,-0.00718593,-0.000855063,0.0978333,1,6.40136e-05,-1.54336e-05,1.27758e-05,0.0128027,-0.00308671,0.00255516,0.999322,0.000767206,0.0368161,0.000441141,-0.244463,0.0956459,-0.907839,36.125,1,55462,44940386
right,30,4,0.999322,0.000767206,0.0368161,0.000441141,-0.718293,-0.0842354,9.78336,0.377512,-0.195062,0.863652,-0.00718593,-0.000855063,0.0978333,1,6.40136e-05,-1.54336e-05,1.27758e-05,0.0128027,-0.00308671,0.00255516,0.999322,0.000767206,0.0368161,0.000441141,-0.244463,0.0956459,-0.907839,36.125,1,55462,44940386
right,30,5,0.999322,0.000767206,0.0368161,0.000441141,-0.718293,-0.0842354,9.78336,0.377512,-0.195062,0.863652,-0.00718593,-0.000855063,0.0978333,1,6.40136e-05,-1.54336e-05,1.27758e-05,0.0128027,-0.00308671,0.00255516,0.999322,0.000767206,0.0368161,0.000441141,-0.244463,0.0956459,-0.907839,36.125,1,55462,44940386
right,30,6,0.999322,0.000794847,0.0368057,0.000409147,-0.727008,-0.0770273,9.7794,0.374562,-0.193265,0.857455,-0.00727224,-0.000779527,0.0977938,1,4.76632e-05,-1.10084e-05,-4.67683e-06,0.00953264,-0.00220168,-0.000935366,0.999322,0.000794847,0.0368057,0.000409147,-0.247424,0.0971693,-0.909812,36.125,1,55463,44940486
right,30,7,0.999322,0.000794847,0.0368057,0.000409147,-0.727008,-0.0770273,9.7794,0.374562,-0.193265,0.857455,-0.00727224,-0.000779527,0.0977938,1,4.76632e-05,-1.10084e-05,-4.67683e-06,0.00953264,-0.00220168,-0.000935366,0.999322,0.000794847,0.0368057,0.000409147,-0.247424,0.0971693,-0.909812,36.125,1,55463,44940486
right,30,8,0.999322,0.000794847,0.0368057,0.000409147,-0.727008,-0.0770273,9.7794,0.374562,-0.193265,0.857455,-0.00727224,-0.000779527,0.0977938,1,4.76632e-05,-1.10084e-05,-4.67683e-06,0.00953264,-0.00220168,-0.000935366,0.999322,0.000794847,0.0368057,0.000409147,-0.247424,0.0971693,-0.909812,36.125,1,55463,44940486
right,30,9,0.999322,0.000805834,0.0367941,0.000424772,-0.736288,-0.061064,9.77622,0.363287,-0.172641,0.858726,-0.00736469,-0.00061757,0.097762,1,3.37567e-05,-9.35434e-06,2.23275e-05,0.00675134,-0.00187087,0.00446549,0.999322,0.000805834,0.0367941,0.000424772,-0.248427,0.0967255,-0.911838,36.125,1,55464,44940586
right,30,10,0.999322,0.000805834,0.0367941,0.000424772,-0.736288,-0.061064,9.77622,0.363287,-0.172641,0.858726,-0.00736469,-0.00061757,0.097762,1,3.37567e-05,-9.35434e-06,2.23275e-05,0.00675134,-0.00187087,0.00446549,0.999322,0.000805834,0.0367941,0.000424772,-0.248427,0.0967255,-0.911838,36.125,1,55464,44940586
right,30,11,0.999322,0.000805834,0.0367941,0.000424772,-0.736288,-0.061064,9.77622,0.363287,-0.172641,0.858726,-0.00736469,-0.00061757,0.097762,1,3.37567e-05,-9.35434e-06,2.23275e-05,0.00675134,-0.00187087,0.00446549,0.999322,0.000805834,0.0367941,0.000424772,-0.248427,0.0967255,-0.911838,36.125,1,55464,44940586
left,42,1,0.999323,0.000826401,0.03678,0.000434342,-0.721916,-0.0677419,9.78115,0.372081,-0.182315,0.859921,-0.00722163,-0.000686943,0.0978113,1,4.82742e-05,-1.26621e-05,5.5396e-06,0.00965484,-0.00253242,0.00110792,0.999323,0.000826401,0.03678,0.000434342,-0.245545,0.0947775,-0.913409,36.125,1,55465,44940686
left,42,2,0.999323,0.000826401,0.03678,0.000434342,-0.721916,-0.0677419,9.78115,0.372081,-0.182315,0.859921,-0.00722163,-0.000686943,0.0978113,1,4.82742e-05,-1.26621e-05,5.5396e-06,0.00965484,-0.00253242,0.00110792,0.999323,0.000826401,0.03678,0.000434342,-0.245545,0.0947775,-0.913409,36.125,1,55465,44940686
left,42,3,0.999323,0.000826401,0.03678,0.000434342,-0.721916,-0.0677419,9.78115,0.372081,-0.182315,0.859921,-0.00722163,-0.000686943,0.0978113,1,4.82742e-05,-1.26621e-05,5.5396e-06,0.00965484,-0.00253242,0.00110792,0.999323,0.000826401,0.03678,0.000434342,-0.245545,0.0947775,-0.913409,36.125,1,55465,44940686
left,42,4,0.999323,0.000847534,0.0367749,0.000443467,-0.733412,-0.0743424,9.7866,0.363208,-0.192584,0.863646,-0.00733544,-0.000754356,0.0978658,1,5.44954e-05,-6.85479e-06,1.81029e-05,0.0108991,-0.00137096,0.00362058,0.999323,0.000847534,0.0367749,0.000443467,-0.244497,0.0932611,-0.910923,36.125,1,55466,44940786
right,31,1,0.999323,0.000847534,0.0367749,0.000443467,-0.733412,-0.0743424,9.7866,0.363208,-0.192584,0.863646,-0.00733544,-0.000754356,0.0978658,1,5.44954e-05,-6.85479e-06,1.81029e-05,0.0108991,-0.00137096,0.00362058,0.999323,0.000847534,0.0367749,0.000443467,-0.244497,0.0932611,-0.910923,36.125,1,55466,44940786
right,31,2,0.999323,0.000847534,0.0367749,0.000443467,-0.733412,-0.0743424,9.7866,0.363208,-0.192584,0.863646,-0.00733544,-0.000754356,0.0978658,1,5.44954e-05,-6.85479e-06,1.81029e-05,0.0108991,-0.00137096,0.00362058,0.999323,0.000847534,0.0367749,0.000443467,-0.244497,0.0932611,-0.910923,36.125,1,55466,44940786
right,31,3,0.999323,0.000872912,0.0367836,0.000435016,-0.729722,-0.0794502,9.78449,0.368695,-0.193591,0.861096,-0.00729618,-0.000804688,0.0978448,1,5.09826e-05,5.21325e-06,1.43532e-05,0.0101965,0.00104265,0.00287065,0.999323,0.000872912,0.0367836,0.000435016,-0.245907,0.0942126,-0.908875,36.125,1,55467,44940886
right,31,4,0.999323,0.000872912,0.0367836,0.000435016,-0.729722,-0.0794502,9.78449,0.368695,-0.193591,0.861096,-0.00729618,-0.000804688,0.0978448,1,5.09826e-05,5.21325e-06,1.43532e-05,0.0101965,0.00104265,0.00287065,0.999323,0.000872912,0.0367836,0.000435016,-0.245907,0.0942126,-0.908875,36.125,1,55467,44940886
right,31,5,0.999323,0.000872912,0.0367836,0.000435016,-0.729722,-0.0794502,9.78449,0.368695,-0.193591,0.861096,-0.00729618,-0.000804688,0.0978448,1,5.09826e-05,5.21325e-06,1.43532e-05,0.0101965,0.00104265,0.00287065,0.999323,0.000872912,0.0367836,0.000435016,-0.245907,0.0942126,-0.908875,36.125,1,55467,44940886
right,31,6,0.999323,0.000904088,0.0367746,0.000406725,-0.735669,-0.0839162,9.78043,0.363139,-0.20317,0.861725,-0.00735879,-0.000848929,0.0978041,1,5.07178e-05,-1.06397e-05,-1.04778e-05,0.0101436,-0.00212794,-0.00209555,0.999323,0.000904088,0.0367746,0.000406725,-0.246384,0.0961406,-0.907315,36.125,1,55468,44940986
right,31,7,0.999323,0.000904088,0.0367746,0.000406725,-0.735669,-0.0839162,9.78043,0.363139,-0.20317,0.861725,-0.00735879,-0.000848929,0.0978041,1,5.07178e-05,-1.06397e-05,-1.04778e-05,0.0101436,-0.00212794,-0.00209555,0.999323,0.000904088,0.0367746,0.000406725,-0.246384,0.0961406,-0.907315,36.125,1,55468,44940986
right,31,8,0.999323,0.000904088,0.0367746,0.000406725,-0.735669,-0.0839162,9.78043,0.363139,-0.20317,0.861725,-0.00735879,-0.000848929,0.0978041,1,5.07178e-05,-1.06397e-05,-1.04778e-05,0.0101436,-0.00212794,-0.00209555,0.999323,0.000904088,0.0367746,0.000406725,-0.246384,0.0961406,-0.907315,36.125,1,55468,44940986
right,31,9,0.999324,0.000938285,0.0367547,0.000386991,-0.731529,-0.0841936,9.78786,0.369315,-0.198593,0.865124,-0.00731897,-0.000851858,0.0978782,1,5.06658e-05,-1.87996e-05,2.68346e-07,0.0101332,-0.00375993,5.36692e-05,0.999324,0.000938285,0.0367547,0.000386991,-0.247415,0.0981268,-0.908781,36.125,1,55469,44941086
right,31,10,0.999324,0.000938285,0.0367547,0.000386991,-0.731529,-0.0841936,9.78786,0.369315,-0.198593,0.865124,-0.00731897,-0.000851858,0.0978782,1,5.06658e-05,-1.87996e-05,2.68346e-07,0.0101332,-0.00375993,5.36692e-05,0.999324,0.000938285,0.0367547,0.000386991,-0.247415,0.0981268,-0.908781,36.125,1,55469,44941086
right,31,11,0.999324,0.000938285,0.0367547,0.000386991,-0.731529,-0.0841936,9.78786,0.369315,-0.198593,0.865124,-0.00731897,-0.000851858,0.0978782,1,5.06658e-05,-1.87996e-05,2.68346e-07,0.0101332,-0.00375993,5.36692e-05,0.999324,0.000938285,0.0367547,0.000386991,-0.247415,0.0981268,-0.908781,36.125,1,55469,44941086
left,43,1,0.999325,0.000978483,0.0367322,0.000391967,-0.733887,-0.0855156,9.78482,0.36736,-0.205066,0.864998,-0.00734251,-0.00086753,0.0978478,1,6.21154e-05,-1.87645e-05,1.48806e-05,0.0124231,-0.00375291,0.00297611,0.999325,0.000978483,0.0367322,0.000391967,-0.247465,0.0967176,-0.911842,36.125,1,55470,44941186
left,43,2,0.999325,0.000978483,0.0367322,0.000391967,-0.733887,-0.0855156,9.78482,0.36736,-0.205066,0.864998,-0.00734251,-0.00086753,0.0978478,1,6.21154e-05,-1.87645e-05,1.48806e-05,0.0124231,-0.00375291,0.00297611,0.999325,0.000978483,0.0367322,0.000391967,-0.247465,0.0967176,-0.911842,36.125,1,55470,44941186
left,43,3,0.999325,0.000978483,0.0367322,0.000391967,-0.733887,-0.0855156,9.78482,0.36736,-0.205066,0.864998,-0.00734251,-0.00086753,0.0978478,1,6.21154e-05,-1.87645e-05,1.48806e-05,0.0124231,-0.00375291,0.00297611,0.999325,0.000978483,0.0367322,0.000391967,-0.247465,0.0967176,-0.911842,36.125,1,55470,44941186
left,43,4,0.999325,0.00100155,0.0367222,0.000391305,-0.745536,-0.0812521,9.78967,0.352321,-0.203169,0.872426,-0.00745708,-0.000823191,0.0978965,1,5.45792e-05,-8.78817e-06,-1.14752e-06,0.0109158,-0.00175764,-0.000229503,0.999325,0.00100155,0.0367222,0.000391305,-0.247486,0.0957691,-0.913378,36.125,1,55471,44941286
right,32,1,0.999325,0.00100155,0.0367222,0.000391305,-0.745536,-0.0812521,9.78967,0.352321,-0.203169,0.872426,-0.00745708,-0.000823191,0.0978965,1,5.45792e-05,-8.78817e-06,-1.14752e-06,0.0109158,-0.00175764,-0.000229503,0.999325,0.00100155,0.0367222,0.000391305,-0.247486,0.0957691,-0.913378,36.125,1,55471,44941286
right,32,2,0.999325,0.00100155,0.0367222,0.000391305,-0.745536,-0.0812521,9.78967,0.352321,-0.203169,0.872426,-0.00745708,-0.000823191,0.0978965,1,5.45792e-05,-8.78817e-06,-1.14752e-06,0.0109158,-0.00175764,-0.000229503,0.999325,0.00100155,0.0367222,0.000391305,-0.247486,0.0957691,-0.913378,36.125,1,55471,44941286
right,32,3,0.999325,0.00101554,0.0367186,0.000415257,-0.73477,-0.0723376,9.7951,0.364986,-0.192444,0.873624,-0.0073485,-0.000733199,0.0979508,1,4.88367e-05,-4.21143e-06,1.73934e-05,0.00976734,-0.000842287,0.00347867,0.999325,0.00101554,0.0367186,0.000415257,-0.245948,0.0952062,-0.909863,36.125,1,55472,44941386
right,32,4,0.999325,0.00101554,0.0367186,0.000415257,-0.73477,-0.0723376,9.7951,0.364986,-0.192444,0.873624,-0.0073485,-0.000733199,0.0979508,1,4.88367e-05,-4.21143e-06,1.73934e-05,0.00976734,-0.000842287,0.00347867,0.999325,0.00101554,0.0367186,0.000415257,-0.245948,0.0952062,-0.909863,36.125,1,55472,44941386
right,32,5,0.999325,0.00101554,0.0367186,0.000415257,-0.73477,-0.0723376,9.7951,0.364986,-0.192444,0.873624,-0.0073485,-0.000733199,0.0979508,1,4.88367e-05,-4.21143e-06,1.73934e-05,0.00976734,-0.000842287,0.00347867,0.999325,0.00101554,0.0367186,0.000415257,-0.245948,0.0952062,-0.909863,36.125,1,55472,44941386
right,32,6,0.999325,0.00103511,0.0367182,0.000393595,-0.723592,-0.0746597,9.78551,0.372248,-0.194904,0.868294,-0.00723639,-0.000755094,0.097855,1,4.34425e-05,-2.37682e-06,-3.46552e-07,0.00868849,-0.000475363,-6.93104e-05,0.999325,0.00103511,0.0367182,0.000393595,-0.245397,0.0961146,-0.90631,36.125,1,55473,44941486
right,32,7,0.999325,0.00103511,0.0367182,0.000393595,-0.723592,-0.0746597,9.78551,0.372248,-0.194904,0.868294,-0.00723639,-0.000755094,0.097855,1,4.34425e-05,-2.37682e-06,-3.46552e-07,0.00868849,-0.000475363,-6.93104e-05,0.999325,0.00103511,0.0367182,0.000393595,-0.245397,0.0961146,-0.90631,36.125,1,55473,44941486
right,32,8,0.999325,0.00103511,0.0367182,0.000393595,-0.723592,-0.0746597,9.78551,0.372248,-0.194904,0.868294,-0.00723639,-0.000755094,0.097855,1,4.34425e-05,-2.37682e-06,-3.46552e-07,0.00868849,-0.000475363,-6.93104e-05,0.999325,0.00103511,0.0367182,0.000393595,-0.245397,0.0961146,-0.90631,36.125,1,55473,44941486
right,32,9,0.999325,0.00107987,0.0367151,0.000368121,-0.737606,-0.0762886,9.78015,0.354513,-0.197841,0.860522,-0.00737675,-0.000774589,0.0978014,1,5.89899e-05,-3.61895e-06,1.11612e-05,0.011798,-0.000723791,0.00223224,0.999325,0.00107987,0.0367151,0.000368121,-0.24684,0.0961266,-0.906303,36.125,1,55474,44941586
right,32,10,0.999325,0.00107987,0.0367151,0.000368121,-0.737606,-0.0762886,9.78015,0.354513,-0.197841,0.860522,-0.00737675,-0.000774589,0.0978014,1,5.89899e-05,-3.61895e-06,1.11612e-05,0.011798,-0.000723791,0.00223224,0.999325,0.00107987,0.0367151,0.000368121,-0.24684,0.0961266,-0.906303,36.125,1,55474,44941586
right,32,11,0.999325,0.00107987,0.0367151,0.000368121,-0.737606,-0.0762886,9.78015,0.354513,-0.197841,0.860522,-0.00737675,-0.000774589,0.0978014,1,5.89899e-05,-3.61895e-06,1.11612e-05,0.011798,-0.000723791,0.00223224,0.999325,0.00107987,0.0367151,0.000368121,-0.24684,0.0961266,-0.906303,36.125,1,55474,44941586
left,44,1,0.999325,0.00111737,0.0367189,0.000359692,-0.73637,-0.067717,9.77784,0.357038,-0.1963,0.859661,-0.00736307,-0.000687996,0.0977784,1,5.45512e-05,3.15008e-06,1.07233e-05,0.0109102,0.000630016,0.00214466,0.999325,0.00111737,0.0367189,0.000359692,-0.248357,0.0961927,-0.909325,36.125,1,55475,44941686
left,44,2,0.999325,0.00111737,0.0367189,0.000359692,-0.73637,-0.067717,9.77784,0.357038,-0.1963,0.859661,-0.00736307,-0.000687996,0.0977784,1,5.45512e-05,3.15008e-06,1.07233e-05,0.0109102,0.000630016,0.00214466,0.999325,0.00111737,0.0367189,0.000359692,-0.248357,0.0961927,-0.909325,36.125,1,55475,44941686
left,44,3,0.999325,0.00111737,0.0367189,0.000359692,-0.73637,-0.067717,9.77784,0.357038,-0.1963,0.859661,-0.00736307,-0.000687996,0.0977784,1,5.45512e-05,3.15008e-06,1.07233e-05,0.0109102,0.000630016,0.00214466,0.999325,0.00111737,0.0367189,0.000359692,-0.248357,0.0961927,-0.909325,36.125,1,55475,44941686
left,44,4,0.999325,0.00114318,0.0367062,0.000355546,-0.727577,-0.0749558,9.78689,0.368498,-0.196475,0.862529,-0.00727836,-0.000759745,0.0978686,1,5.23031e-05,-1.31801e-05,-3.47375e-06,0.0104606,-0.00263602,-0.000694751,0.999325,0.00114318,0.0367062,0.000355546,-0.247979,0.0972273,-0.912839,36.125,1,55476,44941786
right,33,1,0.999325,0.00114318,0.0367062,0.000355546,-0.727577,-0.0749558,9.78689,0.368498,-0.196475,0.862529,-0.00727836,-0.000759745,0.0978686,1,5.23031e-05,-1.31801e-05,-3.47375e-06,0.0104606,-0.00263602,-0.000694751,0.999325,0.00114318,0.0367062,0.000355546,-0.247979,0.0972273,-0.912839,36.125,1,55476,44941786
right,33,2,0.999325,0.00114318,0.0367062,0.000355546,-0.727577,-0.0749558,9.78689,0.368498,-0.196475,0.862529,-0.00727836,-0.000759745,0.0978686,1,5.23031e-05,-1.31801e-05,-3.47375e-06,0.0104606,-0.00263602,-0.000694751,0.999325,0.00114318,0.0367062,0.000355546,-0.247979,0.0972273,-0.912839,36.125,1,55476,44941786
right,33,3,0.999325,0.00115448,0.036709,0.000389972,-0.726822,-0.0722177,9.78351,0.369514,-0.191547,0.860155,-0.00726751,-0.000731715,0.097835,1,4.66405e-05,3.41037e-06,2.83553e-05,0.0093281,0.000682074,0.00567106,0.999325,0.00115448,0.036709,0.000389972,-0.247519,0.0962749,-0.914377,36.125,1,55477,44941886
