frame_id,imu_idx,accel_x,accel_y,accel_z,free_accel_x,free_accel_y,free_accel_z,delta_v_x,delta_v_y,delta_v_z,delta_q_w,delta_q_x,delta_q_y,delta_q_z,rate_x,rate_y,rate_z,quat_w,quat_x,quat_y,quat_z,mag_x,mag_y,mag_z,temperature,status_byte,packet_counter,time_fine
1,1,-0.718179,-0.0285919,9.78459,0.126969,-1.27397,1.01743,-0.0071838,-0.000294982,0.0978458,1,4.54727e-05,-1.03117e-05,1.14273e-05,0.00909455,-0.00206235,0.00228546,0,0,0,0,0.0536024,0.316431,-1.11946,29.3125,3,26182,2663863
1,2,-0.51309,-0.0632013,7.34294,0.126969,-1.27397,1.01743,-0.00513208,-0.000637662,0.0734293,1,3.86815e-05,-8.01161e-06,-3.11067e-06,0.00773629,-0.00160232,-0.000622134,0,0,0,0,0.0232581,0.508358,-1.00495,30.6875,1,42215,4268643
2,1,-0.51309,-0.0632013,7.34294,0.126969,-1.27397,1.01743,-0.00513208,-0.000637662,0.0734293,1,3.86815e-05,-8.01161e-06,-3.11067e-06,0.00773629,-0.00160232,-0.000622134,0,0,0,0,0.0232581,0.508358,-1.00495,30.6875,1,42215,4268643
2,2,-0.680926,-0.0870623,9.79451,0.120613,-0.49388,1.01288,-0.00680991,-0.000877601,0.097945,1,3.39486e-05,-3.53179e-06,2.40318e-05,0.00678972,-0.000706358,0.00480636,0,0,0,0,0.0241297,0.507934,-1.00901,30.6875,1,42216,4268743
3,1,-0.680926,-0.0870623,9.79451,0.120613,-0.49388,1.01288,-0.00680991,-0.000877601,0.097945,1,3.39486e-05,-3.53179e-06,2.40318e-05,0.00678972,-0.000706358,0.00480636,0,0,0,0,0.0241297,0.507934,-1.00901,30.6875,1,42216,4268743
3,2,-0.669166,-0.0792606,9.78872,0.130775,-0.486627,1.00931,-0.00669293,-0.000800935,0.0978871,1,4.1563e-05,-6.58782e-06,1.44227e-05,0.00831261,-0.00131756,0.00288453,0,0,0,0,0.0249971,0.507032,-1.01358,30.6875,1,42217,4268843
4,1,-0.669166,-0.0792606,9.78872,0.130775,-0.486627,1.00931,-0.00669293,-0.000800935,0.0978871,1,4.1563e-05,-6.58782e-06,1.44227e-05,0.00831261,-0.00131756,0.00288453,0,0,0,0,0.0249971,0.507032,-1.01358,30.6875,1,42217,4268843
4,2,-0.673285,-0.0820895,9.79314,0.129939,-0.488675,1.01499,-0.00673106,-0.000827601,0.0979315,1,3.24753e-05,8.95012e-06,2.56728e-05,0.00649505,0.00179003,0.00513455,0,0,0,0,0.0245886,0.502646,-1.01367,30.6875,1,42218,4268943
7,1,-0.673285,-0.0820895,9.79314,0.129939,-0.488675,1.01499,-0.00673106,-0.000827601,0.0979315,1,3.24753e-05,8.95012e-06,2.56728e-05,0.00649505,0.00179003,0.00513455,0,0,0,0,0.0245886,0.502646,-1.01367,30.6875,1,42218,4268943
7,2,-0.672454,-0.0814013,9.78568,0.126367,-0.488318,1.01131,-0.0067263,-0.000820902,0.0978566,1,3.38574e-05,-9.16237e-06,1.94999e-05,0.00677147,-0.00183247,0.00389998,0,0,0,0,0.0227296,0.50165,-1.01167,30.6875,1,42219,4269043
7,3,-0.672454,-0.0814013,9.78568,0.126367,-0.488318,1.01131,-0.0067263,-0.000820902,0.0978566,1,3.38574e-05,-9.16237e-06,1.94999e-05,0.00677147,-0.00183247,0.00389998,0,0,0,0,0.0227296,0.50165,-1.01167,30.6875,1,42219,4269043
7,4,-0.665373,-0.0792199,9.78972,0.136753,-0.486945,1.01295,-0.00665485,-0.000801185,0.097897,1,4.47091e-05,-5.85444e-06,1.74418e-05,0.00894181,-0.00117089,0.00348836,0,0,0,0,0.0233014,0.502062,-1.00762,30.6875,1,42220,4269143
8,1,-0.665373,-0.0792199,9.78972,0.136753,-0.486945,1.01295,-0.00665485,-0.000801185,0.097897,1,4.47091e-05,-5.85444e-06,1.74418e-05,0.00894181,-0.00117089,0.00348836,0,0,0,0,0.0233014,0.502062,-1.00762,30.6875,1,42220,4269143
8,2,-0.673705,-0.0899535,9.78799,0.131126,-0.494175,1.00855,-0.00673965,-0.000907602,0.0978797,1,3.96819e-05,-1.34836e-05,2.22343e-05,0.00793638,-0.00269672,0.00444686,0,0,0,0,0.022788,0.504017,-1.00757,30.6875,1,42221,4269243
8,3,-0.673705,-0.0899535,9.78799,0.131126,-0.494175,1.00855,-0.00673965,-0.000907602,0.0978797,1,3.96819e-05,-1.34836e-05,2.22343e-05,0.00793638,-0.00269672,0.00444686,0,0,0,0,0.022788,0.504017,-1.00757,30.6875,1,42221,4269243
8,4,-0.673741,-0.0802424,9.79316,0.126705,-0.48819,1.01318,-0.0067413,-0.000812217,0.0979313,1,4.8397e-05,-2.00383e-05,2.32983e-05,0.00967939,-0.00400766,0.00465966,0,0,0,0,0.0231709,0.505531,-1.01057,30.6875,1,42222,4269343
9,1,-0.673741,-0.0802424,9.79316,0.126705,-0.48819,1.01318,-0.0067413,-0.000812217,0.0979313,1,4.8397e-05,-2.00383e-05,2.32983e-05,0.00967939,-0.00400766,0.00465966,0,0,0,0,0.0231709,0.505531,-1.01057,30.6875,1,42222,4269343
9,2,-0.681882,-0.0850589,9.79555,0.118672,-0.49237,1.01706,-0.00682086,-0.000862571,0.0979553,1,5.9465e-05,-1.06244e-05,2.43149e-05,0.011893,-0.00212488,0.00486298,0,0,0,0,0.023623,0.505066,-1.0121,30.6875,1,42223,4269443
10,1,-0.681882,-0.0850589,9.79555,0.118672,-0.49237,1.01706,-0.00682086,-0.000862571,0.0979553,1,5.9465e-05,-1.06244e-05,2.43149e-05,0.011893,-0.00212488,0.00486298,0,0,0,0,0.023623,0.505066,-1.0121,30.6875,1,42223,4269443
10,2,-0.669444,-0.0839897,9.78835,0.127844,-0.493018,1.01135,-0.00669519,-0.000848619,0.0978834,1,4.26471e-05,-4.06607e-06,2.78428e-05,0.00852942,-0.000813213,0.00556857,0,0,0,0,0.0236306,0.503133,-1.01315,30.6875,1,42224,4269543
11,1,-0.669444,-0.0839897,9.78835,0.127844,-0.493018,1.01135,-0.00669519,-0.000848619,0.0978834,1,4.26471e-05,-4.06607e-06,2.78428e-05,0.00852942,-0.000813213,0.00556857,0,0,0,0,0.0236306,0.503133,-1.01315,30.6875,1,42224,4269543
11,2,-0.67184,-0.0782865,9.78366,0.128541,-0.486697,1.00324,-0.00672021,-0.000790695,0.0978365,1,3.89516e-05,-9.35055e-06,1.54748e-05,0.00779033,-0.00187011,0.00309497,0,0,0,0,0.0212905,0.502141,-1.01114,30.6875,1,42225,4269643
11,3,-0.67184,-0.0782865,9.78366,0.128541,-0.486697,1.00324,-0.00672021,-0.000790695,0.0978365,1,3.89516e-05,-9.35055e-06,1.54748e-05,0.00779033,-0.00187011,0.00309497,0,0,0,0,0.0212905,0.502141,-1.01114,30.6875,1,42225,4269643
11,4,-0.677603,-0.0750677,9.78815,0.124485,-0.492614,1.01533,-0.00677748,-0.000761535,0.0978813,1,5.41062e-05,-7.57349e-06,1.96023e-05,0.0108212,-0.0015147,0.00392045,0,0,0,0,0.0218376,0.502571,-1.00811,30.6875,1,42226,4269743
12,1,-0.677603,-0.0750677,9.78815,0.124485,-0.492614,1.01533,-0.00677748,-0.000761535,0.0978813,1,5.41062e-05,-7.57349e-06,1.96023e-05,0.0108212,-0.0015147,0.00392045,0,0,0,0,0.0218376,0.502571,-1.00811,30.6875,1,42226,4269743
12,2,-0.672087,-0.0822991,9.78703,0.132816,-0.495754,1.00988,-0.00672314,-0.000833115,0.0978701,1,4.99282e-05,-1.18205e-05,2.61253e-05,0.00998565,-0.00236411,0.00522506,0,0,0,0,0.0232321,0.50404,-1.00909,30.6875,1,42227,4269843
12,3,-0.672087,-0.0822991,9.78703,0.132816,-0.495754,1.00988,-0.00672314,-0.000833115,0.0978701,1,4.99282e-05,-1.18205e-05,2.61253e-05,0.00998565,-0.00236411,0.00522506,0,0,0,0,0.0232321,0.50404,-1.00909,30.6875,1,42227,4269843
12,4,-0.676269,-0.0790983,9.78945,0.121498,-0.490991,1.00658,-0.00676418,-0.000797109,0.0978944,1,3.04803e-05,-7.6946e-06,1.16696e-05,0.00609606,-0.00153892,0.00233391,0,0,0,0,0.0241573,0.504059,-1.01061,30.6875,1,42228,4269943
10,1,-0.676269,-0.0790983,9.78945,0.121498,-0.490991,1.00658,-0.00676418,-0.000797109,0.0978944,1,3.04803e-05,-7.6946e-06,1.16696e-05,0.00609606,-0.00153892,0.00233391,0,0,0,0,0.0241573,0.504059,-1.01061,30.6875,1,42228,4269943
10,2,-0.676919,-0.0859226,9.79347,0.12117,-0.502591,1.01861,-0.00676906,-0.000866606,0.0979346,1,3.66792e-05,5.45935e-07,1.45007e-05,0.00733584,0.000109187,0.00290014,0,0,0,0,0.0236757,0.502618,-1.01165,30.6875,1,42229,4270043
14,1,-0.676919,-0.0859226,9.79347,0.12117,-0.502591,1.01861,-0.00676906,-0.000866606,0.0979346,1,3.66792e-05,5.45935e-07,1.45007e-05,0.00733584,0.000109187,0.00290014,0,0,0,0,0.0236757,0.502618,-1.01165,30.6875,1,42229,4270043
14,2,-0.683008,-0.0746067,9.79192,0.114533,-0.488083,1.01563,-0.00683226,-0.000754557,0.097919,1,4.23715e-05,-1.1241e-05,1.40685e-05,0.0084743,-0.00224819,0.0028137,0,0,0,0,0.0227339,0.502129,-1.01115,30.6875,1,42230,4270143
15,1,-0.683008,-0.0746067,9.79192,0.114533,-0.488083,1.01563,-0.00683226,-0.000754557,0.097919,1,4.23715e-05,-1.1241e-05,1.40685e-05,0.0084743,-0.00224819,0.0028137,0,0,0,0,0.0227339,0.502129,-1.01115,30.6875,1,42230,4270143
15,2,-0.674039,-0.0882324,9.78734,0.122196,-0.507277,1.01443,-0.00674397,-0.000890032,0.097873,1,3.83201e-05,-1.84684e-05,1.53351e-05,0.00766402,-0.00369368,0.00306702,0,0,0,0,0.0212374,0.503144,-1.01264,30.6875,1,42231,4270243
15,3,-0.674039,-0.0882324,9.78734,0.122196,-0.507277,1.01443,-0.00674397,-0.000890032,0.097873,1,3.83201e-05,-1.84684e-05,1.53351e-05,0.00766402,-0.00369368,0.00306702,0,0,0,0,0.0212374,0.503144,-1.01264,30.6875,1,42231,4270243
15,4,-0.666167,-0.0711329,9.78742,0.131138,-0.486829,1.00987,-0.00666238,-0.000717674,0.0978741,1,3.08342e-05,-3.7923e-06,2.32105e-05,0.00616684,-0.000758461,0.00464209,0,0,0,0,0.020818,0.503103,-1.01011,30.6875,1,42232,4270343
16,1,-0.666167,-0.0711329,9.78742,0.131138,-0.486829,1.00987,-0.00666238,-0.000717674,0.0978741,1,3.08342e-05,-3.7923e-06,2.32105e-05,0.00616684,-0.000758461,0.00464209,0,0,0,0,0.020818,0.503103,-1.01011,30.6875,1,42232,4270343
16,2,-0.671124,-0.0848374,9.78564,0.133557,-0.501025,1.0055,-0.00671223,-0.000854872,0.0978563,1,3.24697e-05,-5.1798e-06,1.06245e-05,0.00649393,-0.00103596,0.00212489,0,0,0,0,0.0227633,0.504035,-1.00858,30.6875,1,42233,4270443
16,3,-0.671124,-0.0848374,9.78564,0.133557,-0.501025,1.0055,-0.00671223,-0.000854872,0.0978563,1,3.24697e-05,-5.1798e-06,1.06245e-05,0.00649393,-0.00103596,0.00212489,0,0,0,0,0.0227633,0.504035,-1.00858,30.6875,1,42233,4270443
16,4,-0.678796,-0.0859124,9.78026,0.121158,-0.504238,0.998957,-0.00679232,-0.000870616,0.0978022,1,5.85838e-05,-2.22961e-05,2.34492e-06,0.0117168,-0.00445922,0.000468983,0,0,0,0,0.0231913,0.505034,-1.01008,30.6875,1,42234,4270543
17,1,-0.678796,-0.0859124,9.78026,0.121158,-0.504238,0.998957,-0.00679232,-0.000870616,0.0978022,1,5.85838e-05,-2.22961e-05,2.34492e-06,0.0117168,-0.00445922,0.000468983,0,0,0,0,0.0231913,0.505034,-1.01008,30.6875,1,42234,4270543
17,2,-0.674584,-0.0783056,9.78843,0.124059,-0.504806,1.00922,-0.00674613,-0.000791936,0.0978842,1,4.41373e-05,-1.66726e-06,1.77136e-05,0.00882745,-0.000333453,0.00354273,0,0,0,0,0.0221673,0.505087,-1.0126,30.6875,1,42235,4270643
18,1,-0.674584,-0.0783056,9.78843,0.124059,-0.504806,1.00922,-0.00674613,-0.000791936,0.0978842,1,4.41373e-05,-1.66726e-06,1.77136e-05,0.00882745,-0.000333453,0.00354273,0,0,0,0,0.0221673,0.505087,-1.0126,30.6875,1,42235,4270643
18,2,-0.690461,-0.0824715,9.78953,0.108802,-0.508133,1.01093,-0.00690632,-0.000834441,0.0978951,1,4.86095e-05,-8.87357e-06,1.51264e-05,0.0097219,-0.00177471,0.00302528,0,0,0,0,0.0226603,0.503629,-1.01314,30.6875,1,42236,4270743
19,1,-0.690461,-0.0824715,9.78953,0.108802,-0.508133,1.01093,-0.00690632,-0.000834441,0.0978951,1,4.86095e-05,-8.87357e-06,1.51264e-05,0.0097219,-0.00177471,0.00302528,0,0,0,0,0.0226603,0.503629,-1.01314,30.6875,1,42236,4270743
19,2,-0.671809,-0.0823117,9.78092,0.127635,-0.509552,1.00174,-0.00672026,-0.000830716,0.097809,1,3.75975e-05,-1.12299e-05,1.81627e-05,0.0075195,-0.00224598,0.00363254,0,0,0,0,0.0226808,0.503132,-1.01264,30.6875,1,42237,4270843
20,1,-0.671809,-0.0823117,9.78092,0.127635,-0.509552,1.00174,-0.00672026,-0.000830716,0.097809,1,3.75975e-05,-1.12299e-05,1.81627e-05,0.0075195,-0.00224598,0.00363254,0,0,0,0,0.0226808,0.503132,-1.01264,30.6875,1,42237,4270843
20,2,-0.682283,-0.0821225,9.78914,0.11843,-0.507049,1.01525,-0.00682416,-0.000829881,0.0978912,1,4.22822e-05,-7.04069e-06,2.77439e-05,0.00845644,-0.00140814,0.00554878,0,0,0,0,0.024683,0.502095,-1.01015,30.6875,1,42238,4270943
20,3,-0.682283,-0.0821225,9.78914,0.11843,-0.507049,1.01525,-0.00682416,-0.000829881,0.0978912,1,4.22822e-05,-7.04069e-06,2.77439e-05,0.00845644,-0.00140814,0.00554878,0,0,0,0,0.024683,0.502095,-1.01015,30.6875,1,42238,4270943
20,4,-0.679928,-0.0893576,9.78838,0.117695,-0.513721,1.01169,-0.00680025,-0.0008996,0.0978836,1,2.97893e-05,-5.04214e-06,1.41468e-05,0.00595786,-0.00100843,0.00282936,0,0,0,0,0.0251523,0.503545,-1.00962,30.6875,1,42239,4271043
21,1,-0.679928,-0.0893576,9.78838,0.117695,-0.513721,1.01169,-0.00680025,-0.0008996,0.0978836,1,2.97893e-05,-5.04214e-06,1.41468e-05,0.00595786,-0.00100843,0.00282936,0,0,0,0,0.0251523,0.503545,-1.00962,30.6875,1,42239,4271043
21,2,-0.681043,-0.0823895,9.79081,0.116361,-0.510644,1.01109,-0.00680993,-0.000833453,0.0979081,1,4.768e-05,2.40641e-06,1.62664e-05,0.009536,0.000481282,0.00325329,0,0,0,0,0.0245853,0.505058,-1.0121,30.6875,1,42240,4271143
22,1,-0.681043,-0.0823895,9.79081,0.116361,-0.510644,1.01109,-0.00680993,-0.000833453,0.0979081,1,4.768e-05,2.40641e-06,1.62664e-05,0.009536,0.000481282,0.00325329,0,0,0,0,0.0245853,0.505058,-1.0121,30.6875,1,42240,4271143
22,2,-0.681389,-0.0772593,9.78747,0.114819,-0.505144,1.0153,-0.0068152,-0.000781976,0.0978745,1,4.75478e-05,-6.74624e-06,5.58799e-06,0.00950956,-0.00134925,0.0011176,0,0,0,0,0.0235898,0.504126,-1.01414,30.6875,1,42241,4271243
23,1,-0.681389,-0.0772593,9.78747,0.114819,-0.505144,1.0153,-0.0068152,-0.000781976,0.0978745,1,4.75478e-05,-6.74624e-06,5.58799e-06,0.00950956,-0.00134925,0.0011176,0,0,0,0,0.0235898,0.504126,-1.01414,30.6875,1,42241,4271243
23,2,-0.678567,-0.0788852,9.79694,0.119839,-0.510912,1.01748,-0.006787,-0.000799431,0.0979692,1,5.29401e-05,-6.91031e-06,1.52104e-05,0.010588,-0.00138206,0.00304208,0,0,0,0,0.0217261,0.501207,-1.01369,30.6875,1,42242,4271343
23,3,-0.678567,-0.0788852,9.79694,0.119839,-0.510912,1.01748,-0.006787,-0.000799431,0.0979692,1,5.29401e-05,-6.91031e-06,1.52104e-05,0.010588,-0.00138206,0.00304208,0,0,0,0,0.0217261,0.501207,-1.01369,30.6875,1,42242,4271343
23,4,-0.678241,-0.0856055,9.78568,0.123338,-0.514716,1.00949,-0.00678312,-0.000863922,0.0978567,1,3.88735e-05,-3.79976e-06,1.90286e-05,0.0077747,-0.000759953,0.00380571,0,0,0,0,0.020324,0.50167,-1.01166,30.6875,1,42243,4271443
24,1,-0.678241,-0.0856055,9.78568,0.123338,-0.514716,1.00949,-0.00678312,-0.000863922,0.0978567,1,3.88735e-05,-3.79976e-06,1.90286e-05,0.0077747,-0.000759953,0.00380571,0,0,0,0,0.020324,0.50167,-1.01166,30.6875,1,42243,4271443
24,2,-0.680253,-0.085489,9.7874,0.117941,-0.514018,1.01469,-0.00680399,-0.00086407,0.0978738,1,4.64544e-05,-7.48248e-06,6.40355e-06,0.00929087,-0.0014965,0.00128071,0,0,0,0,0.0218784,0.501577,-1.00712,30.6875,1,42244,4271543
25,1,-0.680253,-0.085489,9.7874,0.117941,-0.514018,1.01469,-0.00680399,-0.00086407,0.0978738,1,4.64544e-05,-7.48248e-06,6.40355e-06,0.00929087,-0.0014965,0.00128071,0,0,0,0,0.0218784,0.501577,-1.00712,30.6875,1,42244,4271543
25,2,-0.664147,-0.0766682,9.78057,0.134967,-0.505845,0.999757,-0.00664104,-0.000775953,0.0978057,1,4.61434e-05,2.04105e-06,1.83879e-05,0.00922867,0.00040821,0.00367758,0,0,0,0,0.0223676,0.501086,-1.00713,30.6875,1,42245,4271643
26,1,-0.664147,-0.0766682,9.78057,0.134967,-0.505845,0.999757,-0.00664104,-0.000775953,0.0978057,1,4.61434e-05,2.04105e-06,1.83879e-05,0.00922867,0.00040821,0.00367758,0,0,0,0,0.0223676,0.501086,-1.00713,30.6875,1,42245,4271643
26,2,-0.675914,-0.0809273,9.7874,0.123922,-0.510578,1.00464,-0.00676037,-0.000818214,0.0978739,1,4.41446e-05,-6.51928e-06,2.2173e-05,0.00882893,-0.00130386,0.0044346,0,0,0,0,0.0241692,0.502605,-1.01115,30.6875,1,42246,4271743
26,3,-0.675914,-0.0809273,9.7874,0.123922,-0.510578,1.00464,-0.00676037,-0.000818214,0.0978739,1,4.41446e-05,-6.51928e-06,2.2173e-05,0.00882893,-0.00130386,0.0044346,0,0,0,0,0.0241692,0.502605,-1.01115,30.6875,1,42246,4271743
26,4,-0.667703,-0.0828497,9.78394,0.127865,-0.516057,1.0024,-0.00667988,-0.000839091,0.0978391,1,5.25507e-05,-1.47782e-05,2.32367e-05,0.0105101,-0.00295564,0.00464733,0,0,0,0,0.0269657,0.503611,-1.01417,30.6875,1,42247,4271843
27,1,-0.667703,-0.0828497,9.78394,0.127865,-0.516057,1.0024,-0.00667988,-0.000839091,0.0978391,1,5.25507e-05,-1.47782e-05,2.32367e-05,0.0105101,-0.00295564,0.00464733,0,0,0,0,0.0269657,0.503611,-1.01417,30.6875,1,42247,4271843
27,2,-0.667157,-0.0873927,9.77812,0.128616,-0.522543,0.998251,-0.00667186,-0.000881794,0.0977811,1,3.87429e-05,-1.64455e-06,2.17428e-05,0.00774859,-0.00032891,0.00434856,0,0,0,0,0.0251471,0.500176,-1.01222,30.6875,1,42248,4271943
28,1,-0.667157,-0.0873927,9.77812,0.128616,-0.522543,0.998251,-0.00667186,-0.000881794,0.0977811,1,3.87429e-05,-1.64455e-06,2.17428e-05,0.00774859,-0.00032891,0.00434856,0,0,0,0,0.0251471,0.500176,-1.01222,30.6875,1,42248,4271943
28,2,-0.67686,-0.0862249,9.79143,0.115491,-0.523337,1.01795,-0.00676971,-0.000870875,0.0979142,1,4.22504e-05,-5.90285e-06,2.59522e-05,0.00845008,-0.00118057,0.00519043,0,0,0,0,0.0227743,0.49969,-1.01121,30.6875,1,42249,4272043
29,1,-0.67686,-0.0862249,9.79143,0.115491,-0.523337,1.01795,-0.00676971,-0.000870875,0.0979142,1,4.22504e-05,-5.90285e-06,2.59522e-05,0.00845008,-0.00118057,0.00519043,0,0,0,0,0.0227743,0.49969,-1.01121,30.6875,1,42249,4272043
29,2,-0.669558,-0.0807039,9.78329,0.126065,-0.514252,1.0033,-0.00669637,-0.000814142,0.0978327,1,3.48611e-05,-4.24693e-06,2.10817e-05,0.00697221,-0.000849386,0.00421633,0,0,0,0,0.0223102,0.501609,-1.00914,30.6875,1,42250,4272143
29,3,-0.669558,-0.0807039,9.78329,0.126065,-0.514252,1.0033,-0.00669637,-0.000814142,0.0978327,1,3.48611e-05,-4.24693e-06,2.10817e-05,0.00697221,-0.000849386,0.00421633,0,0,0,0,0.0223102,0.501609,-1.00914,30.6875,1,42250,4272143
29,4,-0.663727,-0.0740121,9.79111,0.130915,-0.507564,1.01227,-0.00663852,-0.000749736,0.0979109,1,4.73185e-05,-6.60111e-06,2.62448e-05,0.00946371,-0.00132022,0.00524897,0,0,0,0,0.0227714,0.503547,-1.00859,30.6875,1,42251,4272243
30,1,-0.663727,-0.0740121,9.79111,0.130915,-0.507564,1.01227,-0.00663852,-0.000749736,0.0979109,1,4.73185e-05,-6.60111e-06,2.62448e-05,0.00946371,-0.00132022,0.00524897,0,0,0,0,0.0227714,0.503547,-1.00859,30.6875,1,42251,4272243
30,2,-0.679916,-0.0789257,9.79763,0.11544,-0.52026,1.0187,-0.006801,-0.000799901,0.0979761,1,5.36088e-05,-9.46044e-06,1.02018e-05,0.0107218,-0.00189209,0.00204036,0,0,0,0,0.0246057,0.504561,-1.01161,30.6875,1,42252,4272343
30,3,-0.679916,-0.0789257,9.79763,0.11544,-0.52026,1.0187,-0.006801,-0.000799901,0.0979761,1,5.36088e-05,-9.46044e-06,1.02018e-05,0.0107218,-0.00189209,0.00204036,0,0,0,0,0.0246057,0.504561,-1.01161,30.6875,1,42252,4272343
30,4,-0.679286,-0.0818585,9.78538,0.115557,-0.518198,0.999588,-0.00679461,-0.000830338,0.0978536,1,5.81667e-05,-9.18271e-06,2.7189e-05,0.0116333,-0.00183654,0.0054378,0,0,0,0,0.0230926,0.505106,-1.01412,30.6875,1,42253,4272443
31,1,-0.679286,-0.0818585,9.78538,0.115557,-0.518198,0.999588,-0.00679461,-0.000830338,0.0978536,1,5.81667e-05,-9.18271e-06,2.7189e-05,0.0116333,-0.00183654,0.0054378,0,0,0,0,0.0230926,0.505106,-1.01412,30.6875,1,42253,4272443
31,2,-0.672139,-0.0853024,9.78429,0.125464,-0.529571,1.00242,-0.00672312,-0.000862809,0.0978426,1,4.91234e-05,-8.95419e-06,1.28375e-05,0.00982468,-0.00179084,0.00256749,0,0,0,0,0.02171,0.502182,-1.01367,30.6875,1,42254,4272543
32,1,-0.672139,-0.0853024,9.78429,0.125464,-0.529571,1.00242,-0.00672312,-0.000862809,0.0978426,1,4.91234e-05,-8.95419e-06,1.28375e-05,0.00982468,-0.00179084,0.00256749,0,0,0,0,0.02171,0.502182,-1.01367,30.6875,1,42254,4272543
32,2,-0.68122,-0.0772655,9.79392,0.116504,-0.521436,1.01866,-0.00681493,-0.000781064,0.097939,1,4.21275e-05,-1.39791e-05,1.15111e-05,0.00842549,-0.00279582,0.00230222,0,0,0,0,0.021775,0.499725,-1.01272,30.6875,1,42255,4272643
33,1,-0.68122,-0.0772655,9.79392,0.116504,-0.521436,1.01866,-0.00681493,-0.000781064,0.097939,1,4.21275e-05,-1.39791e-05,1.15111e-05,0.00842549,-0.00279582,0.00230222,0,0,0,0,0.021775,0.499725,-1.01272,30.6875,1,42255,4272643
33,2,-0.67359,-0.0743507,9.7871,0.121863,-0.518952,1.00861,-0.00673704,-0.000755087,0.0978708,1,5.8474e-05,-5.88776e-06,9.96699e-06,0.0116948,-0.00117755,0.0019934,0,0,0,0,0.0223017,0.500652,-1.01017,30.6875,1,42256,4272743
34,1,-0.67359,-0.0743507,9.7871,0.121863,-0.518952,1.00861,-0.00673704,-0.000755087,0.0978708,1,5.8474e-05,-5.88776e-06,9.96699e-06,0.0116948,-0.00117755,0.0019934,0,0,0,0,0.0223017,0.500652,-1.01017,30.6875,1,42256,4272743
34,2,-0.666734,-0.0858096,9.78831,0.131069,-0.530392,1.00711,-0.00666769,-0.000866177,0.097883,1,4.00208e-05,-1.93715e-06,1.84662e-05,0.00800416,-0.000387429,0.00369325,0,0,0,0,0.0237417,0.503052,-1.00861,30.6875,1,42257,4272843
35,1,-0.666734,-0.0858096,9.78831,0.131069,-0.530392,1.00711,-0.00666769,-0.000866177,0.097883,1,4.00208e-05,-1.93715e-06,1.84662e-05,0.00800416,-0.000387429,0.00369325,0,0,0,0,0.0237417,0.503052,-1.00861,30.6875,1,42257,4272843
35,2,-0.676039,-0.0738315,9.78746,0.11921,-0.51566,1.00856,-0.00675887,-0.000746466,0.0978746,1,4.07976e-05,7.69095e-06,1.21609e-05,0.00815952,0.00153819,0.00243218,0,0,0,0,0.0250949,0.504069,-1.01162,30.6875,1,42258,4272943
36,1,-0.676039,-0.0738315,9.78746,0.11921,-0.51566,1.00856,-0.00675887,-0.000746466,0.0978746,1,4.07976e-05,7.69095e-06,1.21609e-05,0.00815952,0.00153819,0.00243218,0,0,0,0,0.0250949,0.504069,-1.01162,30.6875,1,42258,4272943
36,2,-0.681969,-0.0805997,9.78609,0.113057,-0.527437,1.00483,-0.00682197,-0.000816378,0.0978607,1,5.2169e-05,-1.17422e-05,1.24871e-05,0.0104338,-0.00234845,0.00249741,0,0,0,0,0.0230717,0.504157,-1.01565,30.6875,1,42259,4273043
36,3,-0.681969,-0.0805997,9.78609,0.113057,-0.527437,1.00483,-0.00682197,-0.000816378,0.0978607,1,5.2169e-05,-1.17422e-05,1.24871e-05,0.0104338,-0.00234845,0.00249741,0,0,0,0,0.0230717,0.504157,-1.01565,30.6875,1,42259,4273043
36,4,-0.672217,-0.0780101,9.78638,0.117981,-0.52676,1.00536,-0.00672433,-0.000787583,0.0978636,1,3.58557e-05,-1.13158e-05,3.45075e-05,0.00717114,-0.00226317,0.00690151,0,0,0,0,0.0216815,0.503167,-1.01415,30.6875,1,42260,4273143
37,1,-0.672217,-0.0780101,9.78638,0.117981,-0.52676,1.00536,-0.00672433,-0.000787583,0.0978636,1,3.58557e-05,-1.13158e-05,3.45075e-05,0.00717114,-0.00226317,0.00690151,0,0,0,0,0.0216815,0.503167,-1.01415,30.6875,1,42260,4273143
37,2,-0.680239,-0.0792663,9.79118,0.118132,-0.52793,1.01407,-0.00680487,-0.000802978,0.0979116,1,5.13215e-05,-1.28223e-05,1.94329e-05,0.0102643,-0.00256445,0.00388659,0,0,0,0,0.0203321,0.501183,-1.01167,30.6875,1,42261,4273243
38,1,-0.680239,-0.0792663,9.79118,0.118132,-0.52793,1.01407,-0.00680487,-0.000802978,0.0979116,1,5.13215e-05,-1.28223e-05,1.94329e-05,0.0102643,-0.00256445,0.00388659,0,0,0,0,0.0203321,0.501183,-1.01167,30.6875,1,42261,4273243
38,2,-0.673407,-0.0804674,9.7918,0.125511,-0.5283,1.01789,-0.00673693,-0.00081207,0.0979178,1,3.69401e-05,-1.46738e-05,1.20084e-05,0.00738802,-0.00293476,0.00240168,0,0,0,0,0.0218248,0.501135,-1.00965,30.6875,1,42262,4273343
39,1,-0.673407,-0.0804674,9.7918,0.125511,-0.5283,1.01789,-0.00673693,-0.00081207,0.0979178,1,3.69401e-05,-1.46738e-05,1.20084e-05,0.00738802,-0.00293476,0.00240168,0,0,0,0,0.0218248,0.501135,-1.00965,30.6875,1,42262,4273343
39,2,-0.66765,-0.0795813,9.79686,0.128631,-0.52789,1.01472,-0.0066788,-0.000807264,0.0979683,1,5.69466e-05,-1.19212e-05,2.19456e-05,0.0113893,-0.00238424,0.00438912,0,0,0,0,0.0232525,0.503543,-1.0086,30.6875,1,42263,4273443
39,3,-0.66765,-0.0795813,9.79686,0.128631,-0.52789,1.01472,-0.0066788,-0.000807264,0.0979683,1,5.69466e-05,-1.19212e-05,2.19456e-05,0.0113893,-0.00238424,0.00438912,0,0,0,0,0.0232525,0.503543,-1.0086,30.6875,1,42263,4273443
39,4,-0.663857,-0.0826896,9.79681,0.132873,-0.529942,1.01605,-0.00664211,-0.000835261,0.0979677,1,4.13973e-05,-1.8222e-05,1.9083e-05,0.00827945,-0.0036444,0.00381661,0,0,0,0,0.0236681,0.504551,-1.0106,30.6875,1,42264,4273543
40,1,-0.663857,-0.0826896,9.79681,0.132873,-0.529942,1.01605,-0.00664211,-0.000835261,0.0979677,1,4.13973e-05,-1.8222e-05,1.9083e-05,0.00827945,-0.0036444,0.00381661,0,0,0,0,0.0236681,0.504551,-1.0106,30.6875,1,42264,4273543
40,2,-0.677158,-0.0888089,9.78701,0.117707,-0.542456,1.00578,-0.00677317,-0.000898058,0.0978699,1,4.99021e-05,-8.29829e-06,1.48116e-05,0.00998043,-0.00165966,0.00296232,0,0,0,0,0.023549,0.50512,-1.01513,30.6875,1,42265,4273643
41,1,-0.677158,-0.0888089,9.78701,0.117707,-0.542456,1.00578,-0.00677317,-0.000898058,0.0978699,1,4.99021e-05,-8.29829e-06,1.48116e-05,0.00998043,-0.00165966,0.00296232,0,0,0,0,0.023549,0.50512,-1.01513,30.6875,1,42265,4273643
41,2,-0.67613,-0.07551,9.79119,0.117883,-0.533221,1.01363,-0.00676474,-0.000764539,0.0979116,1,4.73858e-05,-1.76633e-05,1.18761e-05,0.00947715,-0.00353267,0.00237523,0,0,0,0,0.0221337,0.502702,-1.01568,30.6875,1,42266,4273743
42,1,-0.67613,-0.07551,9.79119,0.117883,-0.533221,1.01363,-0.00676474,-0.000764539,0.0979116,1,4.73858e-05,-1.76633e-05,1.18761e-05,0.00947715,-0.00353267,0.00237523,0,0,0,0,0.0221337,0.502702,-1.01568,30.6875,1,42266,4273743
42,2,-0.673232,-0.0720237,9.78,0.122152,-0.530047,1.00259,-0.00673382,-0.000727958,0.0977998,1,3.82644e-05,-7.8287e-06,1.75347e-05,0.00765289,-0.00156574,0.00350695,0,0,0,0,0.0208213,0.500691,-1.01168,30.6875,1,42267,4273843
43,1,-0.673232,-0.0720237,9.78,0.122152,-0.530047,1.00259,-0.00673382,-0.000727958,0.0977998,1,3.82644e-05,-7.8287e-06,1.75347e-05,0.00765289,-0.00156574,0.00350695,0,0,0,0,0.0208213,0.500691,-1.01168,30.6875,1,42267,4273843
43,2,-0.683793,-0.0783425,9.78442,0.111635,-0.534137,1.01114,-0.00683974,-0.000791084,0.097844,1,3.70945e-05,-9.49941e-06,2.92046e-05,0.00741889,-0.00189988,0.00584091,0,0,0,0,0.0228241,0.5011,-1.00814,30.6875,1,42268,4273943
44,1,-0.683793,-0.0783425,9.78442,0.111635,-0.534137,1.01114,-0.00683974,-0.000791084,0.097844,1,3.70945e-05,-9.49941e-06,2.92046e-05,0.00741889,-0.00189988,0.00584091,0,0,0,0,0.0228241,0.5011,-1.00814,30.6875,1,42268,4273943
44,2,-0.678839,-0.0778577,9.78983,0.114344,-0.531441,1.01106,-0.0067922,-0.000788764,0.097898,1,5.07402e-05,-1.96028e-05,1.85612e-05,0.010148,-0.00392055,0.00371225,0,0,0,0,0.0242109,0.504502,-1.00807,30.6875,1,42269,4274043
44,3,-0.678839,-0.0778577,9.78983,0.114344,-0.531441,1.01106,-0.0067922,-0.000788764,0.097898,1,5.07402e-05,-1.96028e-05,1.85612e-05,0.010148,-0.00392055,0.00371225,0,0,0,0,0.0242109,0.504502,-1.00807,30.6875,1,42269,4274043
44,4,-0.671201,-0.0758027,9.7908,0.116184,-0.535018,1.00873,-0.00671313,-0.000767047,0.0979079,1,4.47314e-05,-5.85599e-06,1.94871e-05,0.00894628,-0.0011712,0.00389742,0,0,0,0,0.0241374,0.506001,-1.01006,30.6875,1,42270,4274143
45,1,-0.671201,-0.0758027,9.7908,0.116184,-0.535018,1.00873,-0.00671313,-0.000767047,0.0979079,1,4.47314e-05,-5.85599e-06,1.94871e-05,0.00894628,-0.0011712,0.00389742,0,0,0,0,0.0241374,0.506001,-1.01006,30.6875,1,42270,4274143
45,2,-0.669588,-0.0707505,9.78168,0.121976,-0.528671,0.997778,-0.00669717,-0.000715772,0.0978167,1,4.20362e-05,-6.61053e-06,3.23166e-06,0.00840724,-0.00132211,0.000646333,0,0,0,0,0.0231172,0.505088,-1.01311,30.6875,1,42271,4274243
46,1,-0.669588,-0.0707505,9.78168,0.121976,-0.528671,0.997778,-0.00669717,-0.000715772,0.0978167,1,4.20362e-05,-6.61053e-06,3.23166e-06,0.00840724,-0.00132211,0.000646333,0,0,0,0,0.0231172,0.505088,-1.01311,30.6875,1,42271,4274243
46,2,-0.673609,-0.0737914,9.78609,0.11915,-0.533648,0.999996,-0.00673877,-0.000747446,0.0978606,1,4.74936e-05,-1.38152e-05,1.7552e-05,0.00949872,-0.00276305,0.0035104,0,0,0,0,0.0226969,0.502156,-1.01267,30.6875,1,42272,4274343
46,3,-0.673609,-0.0737914,9.78609,0.11915,-0.533648,0.999996,-0.00673877,-0.000747446,0.0978606,1,4.74936e-05,-1.38152e-05,1.7552e-05,0.00949872,-0.00276305,0.0035104,0,0,0,0,0.0226969,0.502156,-1.01267,30.6875,1,42272,4274343
46,4,-0.672599,-0.0823692,9.78974,0.1222,-0.546192,1.00546,-0.00672537,-0.000831366,0.0978973,1,3.77613e-05,2.95425e-06,2.08766e-05,0.00755227,0.000590849,0.00417532,0,0,0,0,0.0208583,0.500664,-1.01017,30.6875,1,42273,4274443
47,1,-0.672599,-0.0823692,9.78974,0.1222,-0.546192,1.00546,-0.00672537,-0.000831366,0.0978973,1,3.77613e-05,2.95425e-06,2.08766e-05,0.00755227,0.000590849,0.00417532,0,0,0,0,0.0208583,0.500664,-1.01017,30.6875,1,42273,4274443
47,2,-0.676538,-0.0925932,9.79001,0.113726,-0.552776,1.0111,-0.00676555,-0.0009373,0.0979,1,5.65648e-05,-1.11379e-06,2.16141e-05,0.011313,-0.000222758,0.00432283,0,0,0,0,0.0218661,0.501586,-1.00762,30.6875,1,42274,4274543
48,1,-0.676538,-0.0925932,9.79001,0.113726,-0.552776,1.0111,-0.00676555,-0.0009373,0.0979,1,5.65648e-05,-1.11379e-06,2.16141e-05,0.011313,-0.000222758,0.00432283,0,0,0,0,0.0218661,0.501586,-1.00762,30.6875,1,42274,4274543
48,2,-0.684889,-0.0833928,9.79186,0.111571,-0.547511,1.01132,-0.00685281,-0.00084408,0.0979183,1,5.14352e-05,-2.00306e-05,5.81524e-06,0.010287,-0.00400611,0.00116305,0,0,0,0,0.0246754,0.504028,-1.0091,30.6875,1,42275,4274643
48,3,-0.684889,-0.0833928,9.79186,0.111571,-0.547511,1.01132,-0.00685281,-0.00084408,0.0979183,1,5.14352e-05,-2.00306e-05,5.81524e-06,0.010287,-0.00400611,0.00116305,0,0,0,0,0.0246754,0.504028,-1.0091,30.6875,1,42275,4274643
48,4,-0.6826,-0.0824616,9.79355,0.110938,-0.54574,1.0143,-0.00682893,-0.000833166,0.0979352,1,4.2962e-05,-1.50239e-05,9.95228e-06,0.00859239,-0.00300477,0.00199046,0,0,0,0,0.0241046,0.506507,-1.01106,30.6875,1,42276,4274743
49,1,-0.6826,-0.0824616,9.79355,0.110938,-0.54574,1.0143,-0.00682893,-0.000833166,0.0979352,1,4.2962e-05,-1.50239e-05,9.95228e-06,0.00859239,-0.00300477,0.00199046,0,0,0,0,0.0241046,0.506507,-1.01106,30.6875,1,42276,4274743
49,2,-0.66641,-0.0759034,9.77619,0.126337,-0.539142,0.996078,-0.00666695,-0.000768085,0.0977616,1,4.48936e-05,-1.47368e-05,2.04762e-05,0.00897871,-0.00294736,0.00409525,0,0,0,0,0.0230603,0.507057,-1.01407,30.6875,1,42277,4274843
49,3,-0.66641,-0.0759034,9.77619,0.126337,-0.539142,0.996078,-0.00666695,-0.000768085,0.0977616,1,4.48936e-05,-1.47368e-05,2.04762e-05,0.00897871,-0.00294736,0.00409525,0,0,0,0,0.0230603,0.507057,-1.01407,30.6875,1,42277,4274843
49,4,-0.677016,-0.0796792,9.78741,0.114378,-0.543222,1.00807,-0.00677112,-0.000804511,0.097874,1,3.7968e-05,-5.11301e-06,2.12325e-05,0.00759361,-0.0010226,0.0042465,0,0,0,0,0.0240994,0.503138,-1.01366,30.6875,1,42278,4274943
50,1,-0.677016,-0.0796792,9.78741,0.114378,-0.543222,1.00807,-0.00677112,-0.000804511,0.097874,1,3.7968e-05,-5.11301e-06,2.12325e-05,0.00759361,-0.0010226,0.0042465,0,0,0,0,0.0240994,0.503138,-1.01366,30.6875,1,42278,4274943
50,2,-0.679788,-0.0856579,9.79181,0.108341,-0.552391,1.01231,-0.00680117,-0.00086887,0.0979178,1,6.10763e-05,-1.7054e-05,2.42626e-05,0.0122153,-0.00341079,0.00485252,0,0,0,0,0.0218125,0.501144,-1.01016,30.6875,1,42279,4275043
51,1,-0.679788,-0.0856579,9.79181,0.108341,-0.552391,1.01231,-0.00680117,-0.00086887,0.0979178,1,6.10763e-05,-1.7054e-05,2.42626e-05,0.0122153,-0.00341079,0.00485252,0,0,0,0,0.0218125,0.501144,-1.01016,30.6875,1,42279,4275043
51,2,-0.675742,-0.0786355,9.78131,0.115028,-0.545448,0.999824,-0.00675753,-0.000794503,0.097813,1,3.98605e-05,-7.56104e-07,2.59208e-05,0.0079721,-0.000151221,0.00518415,0,0,0,0,0.0228326,0.502057,-1.00711,30.6875,1,42280,4275143
52,1,-0.675742,-0.0786355,9.78131,0.115028,-0.545448,0.999824,-0.00675753,-0.000794503,0.097813,1,3.98605e-05,-7.56104e-07,2.59208e-05,0.0079721,-0.000151221,0.00518415,0,0,0,0,0.0228326,0.502057,-1.00711,30.6875,1,42280,4275143
52,2,-0.679891,-0.0832662,9.77995,0.109538,-0.554164,0.995847,-0.00680221,-0.000844215,0.0977992,1,5.75372e-05,-1.70713e-05,2.19902e-05,0.0115074,-0.00341426,0.00439804,0,0,0,0,0.0247124,0.504001,-1.00758,30.6875,1,42281,4275243
53,1,-0.679891,-0.0832662,9.77995,0.109538,-0.554164,0.995847,-0.00680221,-0.000844215,0.0977992,1,5.75372e-05,-1.70713e-05,2.19902e-05,0.0115074,-0.00341426,0.00439804,0,0,0,0,0.0247124,0.504001,-1.00758,30.6875,1,42281,4275243
53,2,-0.679876,-0.0781406,9.78441,0.11244,-0.550359,1.00414,-0.00680249,-0.000793044,0.0978437,1,5.78837e-05,-1.92446e-05,2.27856e-05,0.0115767,-0.00384892,0.00455712,0,0,0,0,0.0260533,0.505028,-1.0111,30.6875,1,42282,4275343
54,1,-0.679876,-0.0781406,9.78441,0.11244,-0.550359,1.00414,-0.00680249,-0.000793044,0.0978437,1,5.78837e-05,-1.92446e-05,2.27856e-05,0.0115767,-0.00384892,0.00455712,0,0,0,0,0.0260533,0.505028,-1.0111,30.6875,1,42282,4275343
54,2,-0.684955,-0.0859716,9.79082,0.106108,-0.558473,1.00766,-0.00685083,-0.000868071,0.097908,1,4.14477e-05,-6.67582e-06,1.74546e-05,0.00828954,-0.00133516,0.00349092,0,0,0,0,0.0245231,0.503658,-1.01567,30.6875,1,42283,4275443
55,1,-0.684955,-0.0859716,9.79082,0.106108,-0.558473,1.00766,-0.00685083,-0.000868071,0.097908,1,4.14477e-05,-6.67582e-06,1.74546e-05,0.00828954,-0.00133516,0.00349092,0,0,0,0,0.0245231,0.503658,-1.01567,30.6875,1,42283,4275443
55,2,-0.662591,-0.0863384,9.78285,0.130392,-0.557,1.00126,-0.00662678,-0.000871929,0.0978284,1,4.28353e-05,-4.56177e-06,1.24012e-05,0.00856707,-0.000912354,0.00248024,0,0,0,0,0.0226718,0.500729,-1.01472,30.6875,1,42284,4275543
55,3,-0.662591,-0.0863384,9.78285,0.130392,-0.557,1.00126,-0.00662678,-0.000871929,0.0978284,1,4.28353e-05,-4.56177e-06,1.24012e-05,0.00856707,-0.000912354,0.00248024,0,0,0,0,0.0226718,0.500729,-1.01472,30.6875,1,42284,4275543
55,4,-0.671854,-0.0813797,9.78499,0.117055,-0.556364,1.00208,-0.00671917,-0.000821434,0.0978498,1,3.72455e-05,-3.43463e-06,2.59018e-05,0.00744911,-0.000686926,0.00518037,0,0,0,0,0.0218167,0.501622,-1.00964,30.6875,1,42285,4275643
56,1,-0.671854,-0.0813797,9.78499,0.117055,-0.556364,1.00208,-0.00671917,-0.000821434,0.0978498,1,3.72455e-05,-3.43463e-06,2.59018e-05,0.00744911,-0.000686926,0.00518037,0,0,0,0,0.0218167,0.501622,-1.00964,30.6875,1,42285,4275643
56,2,-0.677581,-0.0731156,9.79054,0.1151,-0.543318,1.00854,-0.0067783,-0.000740768,0.0979051,1,4.7747e-05,-1.28561e-05,1.93473e-05,0.00954941,-0.00257122,0.00386946,0,0,0,0,0.0233056,0.502541,-1.0071,30.6875,1,42286,4275743
57,1,-0.677581,-0.0731156,9.79054,0.1151,-0.543318,1.00854,-0.0067783,-0.000740768,0.0979051,1,4.7747e-05,-1.28561e-05,1.93473e-05,0.00954941,-0.00257122,0.00386946,0,0,0,0,0.0233056,0.502541,-1.0071,30.6875,1,42286,4275743
57,2,-0.672169,-0.0752638,9.79285,0.121358,-0.549191,1.01352,-0.0067225,-0.0007606,0.0979284,1,3.96092e-05,-4.2599e-06,1.51823e-05,0.00792184,-0.00085198,0.00303646,0,0,0,0,0.0241862,0.50452,-1.00908,30.6875,1,42287,4275843
58,1,-0.672169,-0.0752638,9.79285,0.121358,-0.549191,1.01352,-0.0067225,-0.0007606,0.0979284,1,3.96092e-05,-4.2599e-06,1.51823e-05,0.00792184,-0.00085198,0.00303646,0,0,0,0,0.0241862,0.50452,-1.00908,30.6875,1,42287,4275843
58,2,-0.671822,-0.0845778,9.78124,0.117215,-0.561283,0.998344,-0.00671911,-0.000854588,0.0978123,1,4.39044e-05,-4.7257e-06,1.64712e-05,0.00878089,-0.000945141,0.00329425,0,0,0,0,0.0246057,0.504561,-1.01161,30.6875,1,42288,4275943
58,3,-0.671822,-0.0845778,9.78124,0.117215,-0.561283,0.998344,-0.00671911,-0.000854588,0.0978123,1,4.39044e-05,-4.7257e-06,1.64712e-05,0.00878089,-0.000945141,0.00329425,0,0,0,0,0.0246057,0.504561,-1.01161,30.6875,1,42288,4275943
58,4,-0.679399,-0.0762367,9.79051,0.109974,-0.549791,1.00966,-0.00679258,-0.000771716,0.0979052,1,4.59068e-05,7.01859e-06,2.65071e-05,0.00918137,0.00140372,0.00530142,0,0,0,0,0.0230964,0.504139,-1.01464,30.6875,1,42289,4276043
59,1,-0.679399,-0.0762367,9.79051,0.109974,-0.549791,1.00966,-0.00679258,-0.000771716,0.0979052,1,4.59068e-05,7.01859e-06,2.65071e-05,0.00918137,0.00140372,0.00530142,0,0,0,0,0.0230964,0.504139,-1.01464,30.6875,1,42289,4276043
59,2,-0.669906,-0.0792997,9.79553,0.117265,-0.554317,1.01616,-0.00670413,-0.000801838,0.0979549,1,4.48505e-05,-2.59487e-05,4.06804e-06,0.00897011,-0.00518974,0.000813608,0,0,0,0,0.0212208,0.502674,-1.01366,30.6875,1,42290,4276143
60,1,-0.669906,-0.0792997,9.79553,0.117265,-0.554317,1.01616,-0.00670413,-0.000801838,0.0979549,1,4.48505e-05,-2.59487e-05,4.06804e-06,0.00897011,-0.00518974,0.000813608,0,0,0,0,0.0212208,0.502674,-1.01366,30.6875,1,42290,4276143
60,2,-0.672387,-0.0777844,9.78298,0.116595,-0.555087,0.999255,-0.00672194,-0.00078894,0.0978299,1,5.56278e-05,9.71209e-06,1.57134e-05,0.0111256,0.00194242,0.00314267,0,0,0,0,0.0218006,0.502598,-1.00962,30.6875,1,42291,4276243
61,1,-0.672387,-0.0777844,9.78298,0.116595,-0.555087,0.999255,-0.00672194,-0.00078894,0.0978299,1,5.56278e-05,9.71209e-06,1.57134e-05,0.0111256,0.00194242,0.00314267,0,0,0,0,0.0218006,0.502598,-1.00962,30.6875,1,42291,4276243
61,2,-0.684044,-0.0771972,9.78885,0.101747,-0.552473,1.01002,-0.00684223,-0.000782358,0.0978883,1,5.22882e-05,-9.23271e-06,1.08704e-05,0.0104576,-0.00184654,0.00217407,0,0,0,0,0.0233056,0.502541,-1.0071,30.6875,1,42292,4276343
62,1,-0.684044,-0.0771972,9.78885,0.101747,-0.552473,1.01002,-0.00684223,-0.000782358,0.0978883,1,5.22882e-05,-9.23271e-06,1.08704e-05,0.0104576,-0.00184654,0.00217407,0,0,0,0,0.0233056,0.502541,-1.0071,30.6875,1,42292,4276343
62,2,-0.682723,-0.0793602,9.79255,0.103279,-0.558575,1.00959,-0.00682903,-0.00080288,0.0979253,1,4.70039e-05,-9.2403e-06,5.33118e-06,0.00940078,-0.00184806,0.00106624,0,0,0,0,0.0256666,0.504481,-1.00758,30.6875,1,42293,4276443
62,3,-0.682723,-0.0793602,9.79255,0.103279,-0.558575,1.00959,-0.00682903,-0.00080288,0.0979253,1,4.70039e-05,-9.2403e-06,5.33118e-06,0.00940078,-0.00184806,0.00106624,0,0,0,0,0.0256666,0.504481,-1.00758,30.6875,1,42293,4276443
62,4,-0.682719,-0.0857629,9.78266,0.104501,-0.565479,1.00163,-0.0068276,-0.000867178,0.0978264,1,4.80321e-05,-2.1702e-06,1.10994e-05,0.00960641,-0.00043404,0.00221987,0,0,0,0,0.0260618,0.505985,-1.01007,30.6875,1,42294,4276543
63,1,-0.682719,-0.0857629,9.78266,0.104501,-0.565479,1.00163,-0.0068276,-0.000867178,0.0978264,1,4.80321e-05,-2.1702e-06,1.10994e-05,0.00960641,-0.00043404,0.00221987,0,0,0,0,0.0260618,0.505985,-1.01007,30.6875,1,42294,4276543
63,2,-0.677251,-0.0809864,9.78436,0.10879,-0.569079,1.00358,-0.00677419,-0.000819174,0.0978434,1,4.60297e-05,-8.76767e-06,2.23218e-05,0.00920594,-0.00175354,0.00446436,0,0,0,0,0.0235903,0.505572,-1.0131,30.6875,1,42295,4276643
63,3,-0.677251,-0.0809864,9.78436,0.10879,-0.569079,1.00358,-0.00677419,-0.000819174,0.0978434,1,4.60297e-05,-8.76767e-06,2.23218e-05,0.00920594,-0.00175354,0.00446436,0,0,0,0,0.0235903,0.505572,-1.0131,30.6875,1,42295,4276643
63,4,-0.679578,-0.0872079,9.78771,0.110559,-0.573994,1.00524,-0.00679791,-0.000880271,0.0978769,1,4.06187e-05,-1.10398e-05,1.76747e-05,0.00812373,-0.00220797,0.00353495,0,0,0,0,0.0226722,0.502174,-1.01368,30.6875,1,42296,4276743
64,1,-0.679578,-0.0872079,9.78771,0.110559,-0.573994,1.00524,-0.00679791,-0.000880271,0.0978769,1,4.06187e-05,-1.10398e-05,1.76747e-05,0.00812373,-0.00220797,0.00353495,0,0,0,0,0.0226722,0.502174,-1.01368,30.6875,1,42296,4276743
64,2,-0.679964,-0.0895116,9.79143,0.103816,-0.575128,1.01284,-0.0068006,-0.000905964,0.0979141,1,5.41246e-05,-5.06481e-06,1.83287e-05,0.0108249,-0.00101296,0.00366574,0,0,0,0,0.0218163,0.500177,-1.01069,30.6875,1,42297,4276843
65,1,-0.679964,-0.0895116,9.79143,0.103816,-0.575128,1.01284,-0.0068006,-0.000905964,0.0979141,1,5.41246e-05,-5.06481e-06,1.83287e-05,0.0108249,-0.00101296,0.00366574,0,0,0,0,0.0218163,0.500177,-1.01069,30.6875,1,42297,4276843
65,2,-0.670797,-0.0822861,9.7877,0.112679,-0.563859,1.0083,-0.00670793,-0.000833486,0.0978769,1,5.3214e-05,2.22838e-08,1.55751e-05,0.0106428,4.45676e-06,0.00311501,0,0,0,0,0.0238152,0.501552,-1.00662,30.6875,1,42298,4276943
66,1,-0.670797,-0.0822861,9.7877,0.112679,-0.563859,1.0083,-0.00670793,-0.000833486,0.0978769,1,5.3214e-05,2.22838e-08,1.55751e-05,0.0106428,4.45676e-06,0.00311501,0,0,0,0,0.0238152,0.501552,-1.00662,30.6875,1,42298,4276943
66,2,-0.673114,-0.0778771,9.79216,0.117052,-0.561372,1.01032,-0.00673271,-0.000788645,0.0979215,1,4.89802e-05,-8.18436e-06,2.09247e-05,0.00979605,-0.00163687,0.00418494,0,0,0,0,0.0247205,0.503513,-1.00759,30.6875,1,42299,4277043
67,1,-0.673114,-0.0778771,9.79216,0.117052,-0.561372,1.01032,-0.00673271,-0.000788645,0.0979215,1,4.89802e-05,-8.18436e-06,2.09247e-05,0.00979605,-0.00163687,0.00418494,0,0,0,0,0.0247205,0.503513,-1.00759,30.6875,1,42299,4277043
67,2,-0.680284,-0.0835136,9.78707,0.107468,-0.571941,1.00503,-0.00680361,-0.000843659,0.0978706,1,4.26844e-05,-4.06082e-06,1.23193e-05,0.00853689,-0.000812165,0.00246387,0,0,0,0,0.024117,0.506498,-1.01056,30.6875,1,42300,4277143
68,1,-0.680284,-0.0835136,9.78707,0.107468,-0.571941,1.00503,-0.00680361,-0.000843659,0.0978706,1,4.26844e-05,-4.06082e-06,1.23193e-05,0.00853689,-0.000812165,0.00246387,0,0,0,0,0.024117,0.506498,-1.01056,30.6875,1,42300,4277143
68,2,-0.68042,-0.081011,9.78539,0.104292,-0.567165,1.0003,-0.00680541,-0.000817859,0.0978537,1,3.79363e-05,-6.40551e-06,2.38329e-05,0.00758726,-0.0012811,0.00476657,0,0,0,0,0.0235984,0.505084,-1.01311,30.6875,1,42301,4277243
69,1,-0.68042,-0.081011,9.78539,0.104292,-0.567165,1.0003,-0.00680541,-0.000817859,0.0978537,1,3.79363e-05,-6.40551e-06,2.38329e-05,0.00758726,-0.0012811,0.00476657,0,0,0,0,0.0235984,0.505084,-1.01311,30.6875,1,42301,4277243
69,2,-0.669273,-0.0864902,9.79173,0.119171,-0.572607,1.00755,-0.00669536,-0.000872061,0.097917,1,3.50886e-05,-1.3601e-05,2.15079e-05,0.00701771,-0.0027202,0.00430158,0,0,0,0,0.0236587,0.500703,-1.01371,30.6875,1,42302,4277343
69,3,-0.669273,-0.0864902,9.79173,0.119171,-0.572607,1.00755,-0.00669536,-0.000872061,0.097917,1,3.50886e-05,-1.3601e-05,2.15079e-05,0.00701771,-0.0027202,0.00430158,0,0,0,0,0.0236587,0.500703,-1.01371,30.6875,1,42302,4277343
69,4,-0.670924,-0.0765329,9.7857,0.117803,-0.567414,1.00215,-0.00670848,-0.000773345,0.097857,1,4.08515e-05,3.87629e-06,1.5086e-06,0.0081703,0.000775257,0.000301721,0,0,0,0,0.0218324,0.499202,-1.01071,30.6875,1,42303,4277443
70,1,-0.670924,-0.0765329,9.7857,0.117803,-0.567414,1.00215,-0.00670848,-0.000773345,0.097857,1,4.08515e-05,3.87629e-06,1.5086e-06,0.0081703,0.000775257,0.000301721,0,0,0,0,0.0218324,0.499202,-1.01071,30.6875,1,42303,4277443
70,2,-0.675668,-0.0742145,9.78678,0.110974,-0.560271,1.00404,-0.00675672,-0.000750139,0.0978677,1,3.95515e-05,-3.22351e-07,1.87232e-05,0.00791029,-6.44702e-05,0.00374464,0,0,0,0,0.0223633,0.500607,-1.00765,30.6875,1,42304,4277543
70,3,-0.675668,-0.0742145,9.78678,0.110974,-0.560271,1.00404,-0.00675672,-0.000750139,0.0978677,1,3.95515e-05,-3.22351e-07,1.87232e-05,0.00791029,-6.44702e-05,0.00374464,0,0,0,0,0.0223633,0.500607,-1.00765,30.6875,1,42304,4277543
70,4,-0.667393,-0.0803995,9.7921,0.119016,-0.573433,1.01037,-0.00667444,-0.000811843,0.0979209,1,3.89181e-05,-2.74572e-06,1.69127e-05,0.00778363,-0.000549144,0.00338253,0,0,0,0,0.0227718,0.504993,-1.00755,30.6875,1,42305,4277643
71,1,-0.667393,-0.0803995,9.7921,0.119016,-0.573433,1.01037,-0.00667444,-0.000811843,0.0979209,1,3.89181e-05,-2.74572e-06,1.69127e-05,0.00778363,-0.000549144,0.00338253,0,0,0,0,0.0227718,0.504993,-1.00755,30.6875,1,42305,4277643
71,2,-0.675175,-0.093603,9.7788,0.108093,-0.579955,0.994037,-0.00675278,-0.000943152,0.0977879,1,3.57926e-05,-5.38876e-06,9.06355e-06,0.00715852,-0.00107775,0.00181271,0,0,0,0,0.0231709,0.505531,-1.01057,30.6875,1,42306,4277743
71,3,-0.675175,-0.093603,9.7788,0.108093,-0.579955,0.994037,-0.00675278,-0.000943152,0.0977879,1,3.57926e-05,-5.38876e-06,9.06355e-06,0.00715852,-0.00107775,0.00181271,0,0,0,0,0.0231709,0.505531,-1.01057,30.6875,1,42306,4277743
71,4,-0.668299,-0.0833853,9.78598,0.121811,-0.572569,1.00115,-0.00668619,-0.000843493,0.0978595,1,4.83954e-05,-1.64545e-05,1.2621e-05,0.00967908,-0.00329091,0.0025242,0,0,0,0,0.0230717,0.504157,-1.01565,30.6875,1,42307,4277843
72,1,-0.668299,-0.0833853,9.78598,0.121811,-0.572569,1.00115,-0.00668619,-0.000843493,0.0978595,1,4.83954e-05,-1.64545e-05,1.2621e-05,0.00967908,-0.00329091,0.0025242,0,0,0,0,0.0230717,0.504157,-1.01565,30.6875,1,42307,4277843
72,2,-0.673876,-0.0821359,9.78093,0.113049,-0.576926,0.99778,-0.00674034,-0.000832923,0.0978091,1,5.74347e-05,-8.29212e-06,2.44267e-05,0.0114869,-0.00165842,0.00488533,0,0,0,0,0.0226637,0.501217,-1.01471,30.6875,1,42308,4277943
73,1,-0.673876,-0.0821359,9.78093,0.113049,-0.576926,0.99778,-0.00674034,-0.000832923,0.0978091,1,5.74347e-05,-8.29212e-06,2.44267e-05,0.0114869,-0.00165842,0.00488533,0,0,0,0,0.0226637,0.501217,-1.01471,30.6875,1,42308,4277943
73,2,-0.675484,-0.0806864,9.78571,0.106686,-0.569468,1.00271,-0.00675737,-0.000815094,0.0978568,1,4.00153e-05,-1.31988e-05,2.94967e-05,0.00800306,-0.00263976,0.00589934,0,0,0,0,0.0223097,0.500164,-1.01018,30.6875,1,42309,4278043
74,1,-0.675484,-0.0806864,9.78571,0.106686,-0.569468,1.00271,-0.00675737,-0.000815094,0.0978568,1,4.00153e-05,-1.31988e-05,2.94967e-05,0.00800306,-0.00263976,0.00589934,0,0,0,0,0.0223097,0.500164,-1.01018,30.6875,1,42309,4278043
74,2,-0.668274,-0.0912347,9.79066,0.116904,-0.584505,1.00893,-0.00668562,-0.000921854,0.0979063,1,4.7218e-05,-1.48677e-05,1.95039e-05,0.0094436,-0.00297353,0.00390078,0,0,0,0,0.0233299,0.501078,-1.00714,30.6875,1,42310,4278143
75,1,-0.668274,-0.0912347,9.79066,0.116904,-0.584505,1.00893,-0.00668562,-0.000921854,0.0979063,1,4.7218e-05,-1.48677e-05,1.95039e-05,0.0094436,-0.00297353,0.00390078,0,0,0,0,0.0233299,0.501078,-1.00714,30.6875,1,42310,4278143
75,2,-0.673836,-0.0822019,9.78704,0.110203,-0.574784,1.00638,-0.00673993,-0.000833715,0.0978702,1,5.86491e-05,-8.16419e-06,1.60857e-05,0.0117298,-0.00163284,0.00321715,0,0,0,0,0.0237459,0.50353,-1.00809,30.6875,1,42311,4278243
75,3,-0.673836,-0.0822019,9.78704,0.110203,-0.574784,1.00638,-0.00673993,-0.000833715,0.0978702,1,5.86491e-05,-8.16419e-06,1.60857e-05,0.0117298,-0.00163284,0.00321715,0,0,0,0,0.0237459,0.50353,-1.00809,30.6875,1,42311,4278243
75,4,-0.677852,-0.0898198,9.79412,0.107596,-0.586192,1.01179,-0.00677976,-0.000909465,0.097941,1,5.56521e-05,-6.61975e-06,2.69731e-05,0.0111304,-0.00132395,0.00539461,0,0,0,0,0.0246014,0.504082,-1.01213,30.6875,1,42312,4278343
76,1,-0.677852,-0.0898198,9.79412,0.107596,-0.586192,1.01179,-0.00677976,-0.000909465,0.097941,1,5.56521e-05,-6.61975e-06,2.69731e-05,0.0111304,-0.00132395,0.00539461,0,0,0,0,0.0246014,0.504082,-1.01213,30.6875,1,42312,4278343
76,2,-0.678515,-0.0879725,9.78737,0.103963,-0.583386,1.00687,-0.00678784,-0.000886686,0.0978734,1,3.46154e-05,-1.38879e-05,1.36588e-05,0.00692308,-0.00277757,0.00273176,0,0,0,0,0.0226233,0.503656,-1.01465,30.6875,1,42313,4278443
76,3,-0.678515,-0.0879725,9.78737,0.103963,-0.583386,1.00687,-0.00678784,-0.000886686,0.0978734,1,3.46154e-05,-1.38879e-05,1.36588e-05,0.00692308,-0.00277757,0.00273176,0,0,0,0,0.0226233,0.503656,-1.01465,30.6875,1,42313,4278443
76,4,-0.658362,-0.0840979,9.77843,0.126904,-0.58535,0.99175,-0.00658303,-0.000850607,0.0977843,1,4.81456e-05,2.87776e-06,1.61008e-05,0.00962913,0.000575553,0.00322015,0,0,0,0,0.0221992,0.501691,-1.01368,30.6875,1,42314,4278543
77,1,-0.658362,-0.0840979,9.77843,0.126904,-0.58535,0.99175,-0.00658303,-0.000850607,0.0977843,1,4.81456e-05,2.87776e-06,1.61008e-05,0.00962913,0.000575553,0.00322015,0,0,0,0,0.0221992,0.501691,-1.01368,30.6875,1,42314,4278543
77,2,-0.674551,-0.0714626,9.78883,0.110477,-0.568881,1.00868,-0.0067484,-0.000723565,0.097888,1,4.42676e-05,-1.48974e-05,2.01631e-05,0.00885353,-0.00297948,0.00403263,0,0,0,0,0.0217878,0.501162,-1.01117,30.6875,1,42315,4278643
77,3,-0.674551,-0.0714626,9.78883,0.110477,-0.568881,1.00868,-0.0067484,-0.000723565,0.097888,1,4.42676e-05,-1.48974e-05,2.01631e-05,0.00885353,-0.00297948,0.00403263,0,0,0,0,0.0217878,0.501162,-1.01117,30.6875,1,42315,4278643
77,4,-0.682266,-0.0877911,9.7823,0.101737,-0.586719,1.00012,-0.00682483,-0.000887841,0.0978228,1,4.88462e-05,-1.13508e-05,2.73695e-05,0.00976923,-0.00227016,0.00547391,0,0,0,0,0.0233303,0.502523,-1.00609,30.6875,1,42316,4278743
78,1,-0.682266,-0.0877911,9.7823,0.101737,-0.586719,1.00012,-0.00682483,-0.000887841,0.0978228,1,4.88462e-05,-1.13508e-05,2.73695e-05,0.00976923,-0.00227016,0.00547391,0,0,0,0,0.0233303,0.502523,-1.00609,30.6875,1,42316,4278743
78,2,-0.676339,-0.0895524,9.78359,0.106433,-0.588002,1.00102,-0.00676293,-0.000903092,0.0978359,1,3.7087e-05,2.1364e-06,2.30019e-05,0.00741741,0.00042728,0.00460039,0,0,0,0,0.0247376,0.505428,-1.00553,30.6875,1,42317,4278843
78,3,-0.676339,-0.0895524,9.78359,0.106433,-0.588002,1.00102,-0.00676293,-0.000903092,0.0978359,1,3.7087e-05,2.1364e-06,2.30019e-05,0.00741741,0.00042728,0.00460039,0,0,0,0,0.0247376,0.505428,-1.00553,30.6875,1,42317,4278843
78,4,-0.670153,-0.0794168,9.78161,0.115235,-0.576652,0.998646,-0.00670292,-0.000804531,0.0978159,1,5.10793e-05,-7.31076e-06,2.76193e-05,0.0102159,-0.00146215,0.00552386,0,0,0,0,0.0241658,0.505017,-1.00958,30.6875,1,42318,4278943
79,1,-0.670153,-0.0794168,9.78161,0.115235,-0.576652,0.998646,-0.00670292,-0.000804531,0.0978159,1,5.10793e-05,-7.31076e-06,2.76193e-05,0.0102159,-0.00146215,0.00552386,0,0,0,0,0.0241658,0.505017,-1.00958,30.6875,1,42318,4278943
79,2,-0.668257,-0.0901522,9.79135,0.113741,-0.594388,1.00968,-0.00668549,-0.000910106,0.0979132,1,4.33308e-05,-1.50071e-05,7.42836e-06,0.00866616,-0.00300141,0.00148567,0,0,0,0,0.0231538,0.503616,-1.01264,30.6875,1,42319,4279043
80,1,-0.668257,-0.0901522,9.79135,0.113741,-0.594388,1.00968,-0.00668549,-0.000910106,0.0979132,1,4.33308e-05,-1.50071e-05,7.42836e-06,0.00866616,-0.00300141,0.00148567,0,0,0,0,0.0231538,0.503616,-1.01264,30.6875,1,42319,4279043
80,2,-0.683943,-0.0856935,9.78539,0.103412,-0.585697,0.998042,-0.0068425,-0.000867595,0.0978536,1,5.27464e-05,-1.59013e-05,2.46224e-05,0.0105493,-0.00318026,0.00492447,0,0,0,0,0.0231903,0.502143,-1.01216,30.6875,1,42320,4279143
80,3,-0.683943,-0.0856935,9.78539,0.103412,-0.585697,0.998042,-0.0068425,-0.000867595,0.0978536,1,5.27464e-05,-1.59013e-05,2.46224e-05,0.0105493,-0.00318026,0.00492447,0,0,0,0,0.0231903,0.502143,-1.01216,30.6875,1,42320,4279143
80,4,-0.676193,-0.0784521,9.78743,0.10775,-0.580294,1.00406,-0.0067647,-0.000795713,0.097874,1,5.56541e-05,-1.43344e-05,2.20109e-05,0.0111308,-0.00286688,0.00440218,0,0,0,0,0.0218248,0.501135,-1.00965,30.6875,1,42321,4279243
81,1,-0.676193,-0.0784521,9.78743,0.10775,-0.580294,1.00406,-0.0067647,-0.000795713,0.097874,1,5.56541e-05,-1.43344e-05,2.20109e-05,0.0111308,-0.00286688,0.00440218,0,0,0,0,0.0218248,0.501135,-1.00965,30.6875,1,42321,4279243
81,2,-0.687558,-0.0850916,9.79288,0.0956435,-0.588846,1.0106,-0.00688019,-0.000862893,0.0979284,1,5.94761e-05,-2.37582e-05,2.39014e-05,0.0118952,-0.00475163,0.00478028,0,0,0,0,0.0218499,0.502562,-1.0076,30.6875,1,42322,4279343
82,1,-0.687558,-0.0850916,9.79288,0.0956435,-0.588846,1.0106,-0.00688019,-0.000862893,0.0979284,1,5.94761e-05,-2.37582e-05,2.39014e-05,0.0118952,-0.00475163,0.00478028,0,0,0,0,0.0218499,0.502562,-1.0076,30.6875,1,42322,4279343
82,2,-0.670855,-0.0751871,9.78572,0.115245,-0.580529,0.999097,-0.00671046,-0.000760264,0.097857,1,4.19002e-05,-9.8814e-06,1.43163e-05,0.00838004,-0.00197628,0.00286327,0,0,0,0,0.0232079,0.505504,-1.00906,30.6875,1,42323,4279443
83,1,-0.670855,-0.0751871,9.78572,0.115245,-0.580529,0.999097,-0.00671046,-0.000760264,0.097857,1,4.19002e-05,-9.8814e-06,1.43163e-05,0.00838004,-0.00197628,0.00286327,0,0,0,0,0.0232079,0.505504,-1.00906,30.6875,1,42323,4279443
83,2,-0.674697,-0.0724224,9.7783,0.10882,-0.575343,0.994163,-0.00674876,-0.00073162,0.0977828,1,3.61017e-05,-9.32809e-06,2.48795e-05,0.00722034,-0.00186562,0.0049759,0,0,0,0,0.0245853,0.505058,-1.0121,30.6875,1,42324,4279543
84,1,-0.674697,-0.0724224,9.7783,0.10882,-0.575343,0.994163,-0.00674876,-0.00073162,0.0977828,1,3.61017e-05,-9.32809e-06,2.48795e-05,0.00722034,-0.00186562,0.0049759,0,0,0,0,0.0245853,0.505058,-1.0121,30.6875,1,42324,4279543
84,2,-0.67807,-0.0811694,9.7847,0.104066,-0.586024,1.00379,-0.00677953,-0.000824127,0.0978469,1,6.20336e-05,5.78165e-06,2.16438e-05,0.0124067,0.00115633,0.00432876,0,0,0,0,0.0240624,0.503165,-1.01517,30.6875,1,42325,4279643
85,1,-0.67807,-0.0811694,9.7847,0.104066,-0.586024,1.00379,-0.00677953,-0.000824127,0.0978469,1,6.20336e-05,5.78165e-06,2.16438e-05,0.0124067,0.00115633,0.00432876,0,0,0,0,0.0240624,0.503165,-1.01517,30.6875,1,42325,4279643
85,2,-0.672797,-0.0825023,9.79076,0.10747,-0.589377,1.0027,-0.00672981,-0.00083313,0.0979074,1,4.07416e-05,-9.4716e-06,9.59442e-06,0.00814833,-0.00189432,0.00191888,0,0,0,0,0.0222234,0.500227,-1.01372,30.6875,1,42326,4279743
85,3,-0.672797,-0.0825023,9.79076,0.10747,-0.589377,1.0027,-0.00672981,-0.00083313,0.0979074,1,4.07416e-05,-9.4716e-06,9.59442e-06,0.00814833,-0.00189432,0.00191888,0,0,0,0,0.0222234,0.500227,-1.01372,30.6875,1,42326,4279743
85,4,-0.670799,-0.0793793,9.78772,0.108199,-0.583441,1.00443,-0.0067104,-0.000800776,0.097877,1,3.48743e-05,-1.24201e-05,1.16286e-05,0.00697486,-0.00248402,0.00232572,0,0,0,0,0.0208702,0.49921,-1.0107,30.6875,1,42327,4279843
86,1,-0.670799,-0.0793793,9.78772,0.108199,-0.583441,1.00443,-0.0067104,-0.000800776,0.097877,1,3.48743e-05,-1.24201e-05,1.16286e-05,0.00697486,-0.00248402,0.00232572,0,0,0,0,0.0208702,0.49921,-1.0107,30.6875,1,42327,4279843
86,2,-0.680654,-0.0907203,9.78294,0.0988205,-0.596762,0.997712,-0.00680683,-0.000913757,0.0978293,1,3.29185e-05,-1.56853e-06,8.285e-06,0.00658371,-0.000313705,0.001657,0,0,0,0,0.0223107,0.503055,-1.0081,30.6875,1,42328,4279943
86,3,-0.680654,-0.0907203,9.78294,0.0988205,-0.596762,0.997712,-0.00680683,-0.000913757,0.0978293,1,3.29185e-05,-1.56853e-06,8.285e-06,0.00658371,-0.000313705,0.001657,0,0,0,0,0.0223107,0.503055,-1.0081,30.6875,1,42328,4279943
86,4,-0.666009,-0.079154,9.78938,0.112046,-0.584877,1.00643,-0.00666315,-0.000803115,0.0978936,1,5.81572e-05,-1.571e-05,1.41508e-05,0.0116314,-0.00314199,0.00283015,0,0,0,0,0.0232079,0.505504,-1.00906,30.6875,1,42329,4280043
87,1,-0.666009,-0.079154,9.78938,0.112046,-0.584877,1.00643,-0.00666315,-0.000803115,0.0978936,1,5.81572e-05,-1.571e-05,1.41508e-05,0.0116314,-0.00314199,0.00283015,0,0,0,0,0.0232079,0.505504,-1.00906,30.6875,1,42329,4280043
87,2,-0.67517,-0.0826927,9.78976,0.104085,-0.591544,1.00619,-0.00675456,-0.000835846,0.0978973,1,4.4206e-05,-1.47671e-05,1.95207e-05,0.0088412,-0.00295341,0.00390415,0,0,0,0,0.0226523,0.504116,-1.01313,30.6875,1,42330,4280143
88,1,-0.67517,-0.0826927,9.78976,0.104085,-0.591544,1.00619,-0.00675456,-0.000835846,0.0978973,1,4.4206e-05,-1.47671e-05,1.95207e-05,0.0088412,-0.00295341,0.00390415,0,0,0,0,0.0226523,0.504116,-1.01313,30.6875,1,42330,4280143
88,2,-0.67344,-0.079248,9.79215,0.101917,-0.587833,1.01128,-0.00673674,-0.000802786,0.0979213,1,5.19306e-05,-1.20121e-05,1.01178e-05,0.0103861,-0.00240243,0.00202356,0,0,0,0,0.0235566,0.503187,-1.01618,30.6875,1,42331,4280243
88,3,-0.67344,-0.079248,9.79215,0.101917,-0.587833,1.01128,-0.00673674,-0.000802786,0.0979213,1,5.19306e-05,-1.20121e-05,1.01178e-05,0.0103861,-0.00240243,0.00202356,0,0,0,0,0.0235566,0.503187,-1.01618,30.6875,1,42331,4280243
88,4,-0.673117,-0.0798901,9.7874,0.0999471,-0.588062,1.00413,-0.00673337,-0.000809895,0.0978737,1,5.52983e-05,-1.13621e-05,1.25651e-05,0.0110597,-0.00227242,0.00251302,0,0,0,0,0.0226025,0.502707,-1.01619,30.6875,1,42332,4280343
89,1,-0.673117,-0.0798901,9.7874,0.0999471,-0.588062,1.00413,-0.00673337,-0.000809895,0.0978737,1,5.52983e-05,-1.13621e-05,1.25651e-05,0.0110597,-0.00227242,0.00251302,0,0,0,0,0.0226025,0.502707,-1.01619,30.6875,1,42332,4280343
89,2,-0.679379,-0.0889581,9.79076,0.0870596,-0.597933,1.01004,-0.0067972,-0.000898822,0.0979073,1,4.62495e-05,-1.75445e-05,1.36099e-05,0.00924991,-0.00350889,0.00272198,0,0,0,0,0.0207686,0.503139,-1.01213,30.6875,1,42333,4280443
89,3,-0.679379,-0.0889581,9.79076,0.0870596,-0.597933,1.01004,-0.0067972,-0.000898822,0.0979073,1,4.62495e-05,-1.75445e-05,1.36099e-05,0.00924991,-0.00350889,0.00272198,0,0,0,0,0.0207686,0.503139,-1.01213,30.6875,1,42333,4280443
89,4,-0.674985,-0.0777924,9.77996,0.0871304,-0.581966,0.993183,-0.00675058,-0.000787441,0.0977995,1,4.77098e-05,-3.82953e-06,1.36998e-05,0.00954195,-0.000765906,0.00273995,0,0,0,0,0.0218419,0.50305,-1.00759,30.6875,1,42334,4280543
90,1,-0.674985,-0.0777924,9.77996,0.0871304,-0.581966,0.993183,-0.00675058,-0.000787441,0.0977995,1,4.77098e-05,-3.82953e-06,1.36998e-05,0.00954195,-0.000765906,0.00273995,0,0,0,0,0.0218419,0.50305,-1.00759,30.6875,1,42334,4280543
90,2,-0.672562,-0.0757464,9.77487,0.088465,-0.587309,0.990166,-0.0067286,-0.000765783,0.0977485,1,4.14401e-05,-1.53332e-05,1.61697e-05,0.00828803,-0.00306665,0.00323393,0,0,0,0,0.0222418,0.506478,-1.00853,30.6875,1,42335,4280643
91,1,-0.672562,-0.0757464,9.77487,0.088465,-0.587309,0.990166,-0.0067286,-0.000765783,0.0977485,1,4.14401e-05,-1.53332e-05,1.61697e-05,0.00828803,-0.00306665,0.00323393,0,0,0,0,0.0222418,0.506478,-1.00853,30.6875,1,42335,4280643
91,2,-0.667986,-0.0841473,9.79513,0.0972122,-0.600473,1.01157,-0.00668077,-0.000848075,0.0979512,1,3.33451e-05,-4.70688e-06,5.23767e-06,0.00666902,-0.000941377,0.00104753,0,0,0,0,0.0231258,0.506045,-1.01208,30.6875,1,42336,4280743
92,1,-0.667986,-0.0841473,9.79513,0.0972122,-0.600473,1.01157,-0.00668077,-0.000848075,0.0979512,1,3.33451e-05,-4.70688e-06,5.23767e-06,0.00666902,-0.000941377,0.00104753,0,0,0,0,0.0231258,0.506045,-1.01208,30.6875,1,42336,4280743
92,2,-0.688164,-0.0793868,9.79665,0.0742281,-0.590328,1.01363,-0.00688227,-0.000805034,0.0979664,1,5.61028e-05,-3.36958e-06,1.26252e-05,0.0112206,-0.000673916,0.00252504,0,0,0,0,0.0235486,0.503675,-1.01617,30.6875,1,42337,4280843
92,3,-0.688164,-0.0793868,9.79665,0.0742281,-0.590328,1.01363,-0.00688227,-0.000805034,0.0979664,1,5.61028e-05,-3.36958e-06,1.26252e-05,0.0112206,-0.000673916,0.00252504,0,0,0,0,0.0235486,0.503675,-1.01617,30.6875,1,42337,4280843
92,4,-0.681773,-0.0779671,9.78746,0.0645852,-0.585079,1.00506,-0.00681834,-0.000788606,0.0978745,1,4.48078e-05,-3.196e-06,1.19974e-05,0.00896157,-0.0006392,0.00239947,0,0,0,0,0.0236425,0.501679,-1.01369,30.6875,1,42338,4280943
93,1,-0.681773,-0.0779671,9.78746,0.0645852,-0.585079,1.00506,-0.00681834,-0.000788606,0.0978745,1,4.48078e-05,-3.196e-06,1.19974e-05,0.00896157,-0.0006392,0.00239947,0,0,0,0,0.0236425,0.501679,-1.01369,30.6875,1,42338,4280943
93,2,-0.670685,-0.0747871,9.78133,0.0677268,-0.584226,1.00202,-0.00671142,-0.000756131,0.0978129,1,4.19673e-05,-2.34246e-05,3.76789e-06,0.00839346,-0.00468491,0.000753577,0,0,0,0,0.0227543,0.501632,-1.01066,30.6875,1,42339,4281043
94,1,-0.670685,-0.0747871,9.78133,0.0677268,-0.584226,1.00202,-0.00671142,-0.000756131,0.0978129,1,4.19673e-05,-2.34246e-05,3.76789e-06,0.00839346,-0.00468491,0.000753577,0,0,0,0,0.0227543,0.501632,-1.01066,30.6875,1,42339,4281043
94,2,-0.670337,-0.0927168,9.78727,0.0648987,-0.598833,1.00702,-0.00670558,-0.000934612,0.0978725,1,3.7482e-05,-1.13883e-05,7.95902e-06,0.0074964,-0.00227765,0.0015918,0,0,0,0,0.0227548,0.503078,-1.00962,30.6875,1,42340,4281143
94,3,-0.670337,-0.0927168,9.78727,0.0648987,-0.598833,1.00702,-0.00670558,-0.000934612,0.0978725,1,3.7482e-05,-1.13883e-05,7.95902e-06,0.0074964,-0.00227765,0.0015918,0,0,0,0,0.0227548,0.503078,-1.00962,30.6875,1,42340,4281143
94,4,-0.667697,-0.0837334,9.79106,0.0675341,-0.592867,1.00792,-0.00667907,-0.000845054,0.0979104,1,3.88156e-05,-1.08165e-05,8.93714e-06,0.00776312,-0.00216329,0.00178743,0,0,0,0,0.0237009,0.504045,-1.0096,30.6875,1,42341,4281243
94,5,-0.667697,-0.0837334,9.79106,0.0675341,-0.592867,1.00792,-0.00667907,-0.000845054,0.0979104,1,3.88156e-05,-1.08165e-05,8.93714e-06,0.00776312,-0.00216329,0.00178743,0,0,0,0,0.0237009,0.504045,-1.0096,30.6875,1,42341,4281243
94,6,-0.667126,-0.0805529,9.77954,0.0697766,-0.588546,0.993147,-0.00667248,-0.000814085,0.0977952,1,4.23044e-05,-6.4019e-06,2.11317e-05,0.00846088,-0.00128038,0.00422634,0,0,0,0,0.0250906,0.503591,-1.01214,30.6875,1,42342,4281343
95,1,-0.667126,-0.0805529,9.77954,0.0697766,-0.588546,0.993147,-0.00667248,-0.000814085,0.0977952,1,4.23044e-05,-6.4019e-06,2.11317e-05,0.00846088,-0.00128038,0.00422634,0,0,0,0,0.0250906,0.503591,-1.01214,30.6875,1,42342,4281343
95,2,-0.680579,-0.0820157,9.78472,0.0502625,-0.587446,0.996491,-0.00680829,-0.000830269,0.0978469,1,5.11353e-05,-1.28204e-05,7.74281e-06,0.0102271,-0.00256408,0.00154856,0,0,0,0,0.0255058,0.503153,-1.01518,30.6875,1,42343,4281443
96,1,-0.680579,-0.0820157,9.78472,0.0502625,-0.587446,0.996491,-0.00680829,-0.000830269,0.0978469,1,5.11353e-05,-1.28204e-05,7.74281e-06,0.0102271,-0.00256408,0.00154856,0,0,0,0,0.0255058,0.503153,-1.01518,30.6875,1,42343,4281443
96,2,-0.675143,-0.073766,9.79018,0.057341,-0.581701,1.00756,-0.00675408,-0.000747426,0.0979016,1,4.89466e-05,-1.36551e-05,1.34612e-05,0.00978932,-0.00273102,0.00269223,0,0,0,0,0.0231776,0.500707,-1.01371,30.6875,1,42344,4281543
96,3,-0.675143,-0.073766,9.79018,0.057341,-0.581701,1.00756,-0.00675408,-0.000747426,0.0979016,1,4.89466e-05,-1.36551e-05,1.34612e-05,0.00978932,-0.00273102,0.00269223,0,0,0,0,0.0231776,0.500707,-1.01371,30.6875,1,42344,4281543
96,4,-0.6793,-0.0826881,9.78198,0.0518477,-0.591089,1.00389,-0.00679514,-0.000836164,0.0978196,1,4.61247e-05,-1.11216e-05,1.90438e-05,0.00922494,-0.00222433,0.00380875,0,0,0,0,0.0214087,0.498682,-1.0087,30.6875,1,42345,4281643
96,5,-0.6793,-0.0826881,9.78198,0.0518477,-0.591089,1.00389,-0.00679514,-0.000836164,0.0978196,1,4.61247e-05,-1.11216e-05,1.90438e-05,0.00922494,-0.00222433,0.00380875,0,0,0,0,0.0214087,0.498682,-1.0087,30.6875,1,42345,4281643
96,6,-0.682397,-0.0823222,9.78777,0.0487855,-0.589897,1.00538,-0.00682484,-0.000835098,0.0978776,1,5.9966e-05,-4.52817e-06,9.99315e-06,0.0119932,-0.000905634,0.00199863,0,0,0,0,0.0224046,0.501059,-1.00562,30.6875,1,42346,4281743
96,7,-0.682397,-0.0823222,9.78777,0.0487855,-0.589897,1.00538,-0.00682484,-0.000835098,0.0978776,1,5.9966e-05,-4.52817e-06,9.99315e-06,0.0119932,-0.000905634,0.00199863,0,0,0,0,0.0224046,0.501059,-1.00562,30.6875,1,42346,4281743
96,8,-0.672857,-0.0778784,9.79554,0.0620261,-0.584638,1.01101,-0.00672949,-0.000790179,0.0979553,1,5.66952e-05,-4.85241e-06,2.13478e-05,0.011339,-0.000970482,0.00426956,0,0,0,0,0.0232202,0.505495,-1.00855,30.6875,1,42347,4281843
96,9,-0.672857,-0.0778784,9.79554,0.0620261,-0.584638,1.01101,-0.00672949,-0.000790179,0.0979553,1,5.66952e-05,-4.85241e-06,2.13478e-05,0.011339,-0.000970482,0.00426956,0,0,0,0,0.0232202,0.505495,-1.00855,30.6875,1,42347,4281843
96,10,-0.678569,-0.0820448,9.78979,0.0580145,-0.591416,1.00281,-0.00678699,-0.000830411,0.0978977,1,4.87325e-05,-6.89182e-06,3.09905e-05,0.0097465,-0.00137836,0.0061981,0,0,0,0,0.0236031,0.507008,-1.01155,30.6875,1,42348,4281943
97,1,-0.678569,-0.0820448,9.78979,0.0580145,-0.591416,1.00281,-0.00678699,-0.000830411,0.0978977,1,4.87325e-05,-6.89182e-06,3.09905e-05,0.0097465,-0.00137836,0.0061981,0,0,0,0,0.0236031,0.507008,-1.01155,30.6875,1,42348,4281943
97,2,-0.673184,-0.0745119,9.78575,0.0616642,-0.583396,0.996708,-0.00673315,-0.000753805,0.0978573,1,4.33234e-05,-6.77819e-06,1.53964e-05,0.00866468,-0.00135564,0.00307928,0,0,0,0,0.0221057,0.505132,-1.01512,30.6875,1,42349,4282043
97,3,-0.673184,-0.0745119,9.78575,0.0616642,-0.583396,0.996708,-0.00673315,-0.000753805,0.0978573,1,4.33234e-05,-6.77819e-06,1.53964e-05,0.00866468,-0.00135564,0.00307928,0,0,0,0,0.0221057,0.505132,-1.01512,30.6875,1,42349,4282043
97,4,-0.677873,-0.0780589,9.78914,0.05672,-0.59567,1.00845,-0.00678227,-0.000788006,0.0978911,1,3.60644e-05,-1.83249e-05,2.62168e-05,0.00721288,-0.00366498,0.00524335,0,0,0,0,0.0226594,0.500738,-1.01522,30.6875,1,42350,4282143
98,1,-0.677873,-0.0780589,9.78914,0.05672,-0.59567,1.00845,-0.00678227,-0.000788006,0.0978911,1,3.60644e-05,-1.83249e-05,2.62168e-05,0.00721288,-0.00366498,0.00524335,0,0,0,0,0.0226594,0.500738,-1.01522,30.6875,1,42350,4282143
98,2,-0.676176,-0.084495,9.78771,0.0550065,-0.59617,1.00883,-0.00676471,-0.000851966,0.0978769,1,3.47476e-05,-1.52158e-05,1.57824e-05,0.00694952,-0.00304316,0.00315649,0,0,0,0,0.0227747,0.501136,-1.01016,30.6875,1,42351,4282243
98,3,-0.676176,-0.084495,9.78771,0.0550065,-0.59617,1.00883,-0.00676471,-0.000851966,0.0978769,1,3.47476e-05,-1.52158e-05,1.57824e-05,0.00694952,-0.00304316,0.00315649,0,0,0,0,0.0227747,0.501136,-1.01016,30.6875,1,42351,4282243
98,4,-0.667121,-0.0770501,9.78059,0.0699379,-0.586411,0.996791,-0.00667398,-0.000781104,0.0978056,1,5.35043e-05,-1.42515e-05,1.02615e-05,0.0107009,-0.00285029,0.0020523,0,0,0,0,0.0228369,0.502536,-1.0066,30.6875,1,42352,4282343
99,1,-0.667121,-0.0770501,9.78059,0.0699379,-0.586411,0.996791,-0.00667398,-0.000781104,0.0978056,1,5.35043e-05,-1.42515e-05,1.02615e-05,0.0107009,-0.00285029,0.0020523,0,0,0,0,0.0228369,0.502536,-1.0066,30.6875,1,42352,4282343
99,2,-0.668342,-0.0832678,9.78191,0.0629456,-0.593797,0.993152,-0.00668598,-0.000841665,0.0978188,1,4.48451e-05,-1.32101e-05,1.60111e-05,0.00896901,-0.00264202,0.00320222,0,0,0,0,0.025177,0.503527,-1.00861,30.6875,1,42353,4282443
99,3,-0.668342,-0.0832678,9.78191,0.0629456,-0.593797,0.993152,-0.00668598,-0.000841665,0.0978188,1,4.48451e-05,-1.32101e-05,1.60111e-05,0.00896901,-0.00264202,0.00320222,0,0,0,0,0.025177,0.503527,-1.00861,30.6875,1,42353,4282443
99,4,-0.674533,-0.0790547,9.79114,0.0551025,-0.595818,0.999909,-0.00674666,-0.000797777,0.0979113,1,3.57125e-05,-6.90482e-06,1.7548e-05,0.0071425,-0.00138096,0.0035096,0,0,0,0,0.0255598,0.505041,-1.0116,30.6875,1,42354,4282543
100,1,-0.674533,-0.0790547,9.79114,0.0551025,-0.595818,0.999909,-0.00674666,-0.000797777,0.0979113,1,3.57125e-05,-6.90482e-06,1.7548e-05,0.0071425,-0.00138096,0.0035096,0,0,0,0,0.0255598,0.505041,-1.0116,30.6875,1,42354,4282543
100,2,-0.686021,-0.0878759,9.79148,0.0458789,-0.601838,1.01041,-0.00686251,-0.000888912,0.0979146,1,5.01535e-05,-1.19225e-05,2.41793e-05,0.0100307,-0.0023845,0.00483586,0,0,0,0,0.0235941,0.504605,-1.01363,30.6875,1,42355,4282643
100,3,-0.686021,-0.0878759,9.79148,0.0458789,-0.601838,1.01041,-0.00686251,-0.000888912,0.0979146,1,5.01535e-05,-1.19225e-05,2.41793e-05,0.0100307,-0.0023845,0.00483586,0,0,0,0,0.0235941,0.504605,-1.01363,30.6875,1,42355,4282643
100,4,-0.680045,-0.079519,9.79151,0.0534949,-0.598718,1.00738,-0.00679957,-0.000801364,0.0979151,1,2.97372e-05,4.29887e-06,2.58218e-05,0.00594745,0.000859774,0.00516435,0,0,0,0,0.0236672,0.501661,-1.01268,30.6875,1,42356,4282743
100,5,-0.680045,-0.079519,9.79151,0.0534949,-0.598718,1.00738,-0.00679957,-0.000801364,0.0979151,1,2.97372e-05,4.29887e-06,2.58218e-05,0.00594745,0.000859774,0.00516435,0,0,0,0,0.0236672,0.501661,-1.01268,30.6875,1,42356,4282743
100,6,-0.680346,-0.080988,9.79251,0.0565054,-0.600491,1.01046,-0.00680405,-0.000818884,0.097925,1,4.51207e-05,-3.11622e-06,1.22414e-05,0.00902414,-0.000623244,0.00244828,0,0,0,0,0.0227624,0.501145,-1.01067,30.6875,1,42357,4282843
101,1,-0.680346,-0.080988,9.79251,0.0565054,-0.600491,1.01046,-0.00680405,-0.000818884,0.097925,1,4.51207e-05,-3.11622e-06,1.22414e-05,0.00902414,-0.000623244,0.00244828,0,0,0,0,0.0227624,0.501145,-1.01067,30.6875,1,42357,4282843
101,2,-0.676865,-0.0854272,9.78839,0.0545189,-0.598783,1.00636,-0.00677022,-0.000863562,0.0978837,1,4.64321e-05,-8.19717e-06,1.47465e-05,0.00928642,-0.00163943,0.00294929,0,0,0,0,0.0237986,0.501083,-1.00764,30.6875,1,42358,4282943
101,3,-0.676865,-0.0854272,9.78839,0.0545189,-0.598783,1.00636,-0.00677022,-0.000863562,0.0978837,1,4.64321e-05,-8.19717e-06,1.47465e-05,0.00928642,-0.00163943,0.00294929,0,0,0,0,0.0237986,0.501083,-1.00764,30.6875,1,42358,4282943
101,4,-0.664782,-0.068523,9.79049,0.0731541,-0.579461,1.00268,-0.00664923,-0.000694646,0.0979047,1,4.63966e-05,-7.36656e-06,2.49447e-05,0.00927931,-0.00147331,0.00498895,0,0,0,0,0.0247124,0.504001,-1.00758,30.6875,1,42359,4283043
101,5,-0.664782,-0.068523,9.79049,0.0731541,-0.579461,1.00268,-0.00664923,-0.000694646,0.0979047,1,4.63966e-05,-7.36656e-06,2.49447e-05,0.00927931,-0.00147331,0.00498895,0,0,0,0,0.0247124,0.504001,-1.00758,30.6875,1,42359,4283043
101,6,-0.680329,-0.0868014,9.79348,0.0555487,-0.607217,1.00527,-0.00680239,-0.000877689,0.0979348,1,4.7695e-05,4.34778e-06,2.44768e-05,0.00953899,0.000869557,0.00489536,0,0,0,0,0.0241208,0.505532,-1.01108,30.6875,1,42360,4283143
102,1,-0.680329,-0.0868014,9.79348,0.0555487,-0.607217,1.00527,-0.00680239,-0.000877689,0.0979348,1,4.7695e-05,4.34778e-06,2.44768e-05,0.00953899,0.000869557,0.00489536,0,0,0,0,0.0241208,0.505532,-1.01108,30.6875,1,42360,4283143
102,2,-0.663384,-0.0827038,9.78526,0.0728817,-0.603043,0.998561,-0.00663452,-0.000838341,0.0978525,1,5.60917e-05,-3.67113e-06,2.45461e-05,0.0112183,-0.000734227,0.00490922,0,0,0,0,0.0221503,0.503172,-1.01466,30.6875,1,42361,4283243
102,3,-0.663384,-0.0827038,9.78526,0.0728817,-0.603043,0.998561,-0.00663452,-0.000838341,0.0978525,1,5.60917e-05,-3.67113e-06,2.45461e-05,0.0112183,-0.000734227,0.00490922,0,0,0,0,0.0221503,0.503172,-1.01466,30.6875,1,42361,4283243
102,4,-0.668355,-0.0846278,9.78698,0.0684851,-0.608306,1.00182,-0.00668509,-0.000856931,0.0978696,1,5.33052e-05,-8.00003e-06,1.63464e-05,0.010661,-0.00160001,0.00326927,0,0,0,0,0.0221864,0.500254,-1.01523,30.6875,1,42362,4283343
103,1,-0.668355,-0.0846278,9.78698,0.0684851,-0.608306,1.00182,-0.00668509,-0.000856931,0.0978696,1,5.33052e-05,-8.00003e-06,1.63464e-05,0.010661,-0.00160001,0.00326927,0,0,0,0,0.0221864,0.500254,-1.01523,30.6875,1,42362,4283343
103,2,-0.678616,-0.0829813,9.78537,0.0592856,-0.6051,1.00235,-0.00678852,-0.00083969,0.0978534,1,4.94868e-05,-1.22038e-05,1.4134e-05,0.00989736,-0.00244075,0.00282679,0,0,0,0,0.022807,0.499185,-1.01021,30.6875,1,42363,4283443
103,3,-0.678616,-0.0829813,9.78537,0.0592856,-0.6051,1.00235,-0.00678852,-0.00083969,0.0978534,1,4.94868e-05,-1.22038e-05,1.4134e-05,0.00989736,-0.00244075,0.00282679,0,0,0,0,0.022807,0.499185,-1.01021,30.6875,1,42363,4283443
103,4,-0.66768,-0.0861522,9.78798,0.0696669,-0.606199,1.00345,-0.00667778,-0.000869106,0.0978797,1,3.67091e-05,-5.27698e-06,2.98134e-05,0.00734182,-0.0010554,0.00596267,0,0,0,0,0.023346,0.500102,-1.00716,30.6875,1,42364,4283543
104,1,-0.66768,-0.0861522,9.78798,0.0696669,-0.606199,1.00345,-0.00667778,-0.000869106,0.0978797,1,3.67091e-05,-5.27698e-06,2.98134e-05,0.00734182,-0.0010554,0.00596267,0,0,0,0,0.023346,0.500102,-1.00716,30.6875,1,42364,4283543
104,2,-0.675928,-0.0784109,9.79014,0.0564855,-0.600504,1.00285,-0.00676052,-0.000791002,0.0979013,1,3.29408e-05,-6.60329e-06,3.27602e-05,0.00658816,-0.00132066,0.00655205,0,0,0,0,0.0231993,0.504546,-1.01009,30.6875,1,42365,4283643
104,3,-0.675928,-0.0784109,9.79014,0.0564855,-0.600504,1.00285,-0.00676052,-0.000791002,0.0979013,1,3.29408e-05,-6.60329e-06,3.27602e-05,0.00658816,-0.00132066,0.00655205,0,0,0,0,0.0231993,0.504546,-1.01009,30.6875,1,42365,4283643
104,4,-0.679455,-0.0708979,9.78785,0.0550443,-0.589223,1.00048,-0.00679412,-0.000716892,0.0978785,1,3.85065e-05,2.01336e-06,2.76435e-05,0.0077013,0.000402673,0.0055287,0,0,0,0,0.0250745,0.504566,-1.01212,30.6875,1,42366,4283743
105,1,-0.679455,-0.0708979,9.78785,0.0550443,-0.589223,1.00048,-0.00679412,-0.000716892,0.0978785,1,3.85065e-05,2.01336e-06,2.76435e-05,0.0077013,0.000402673,0.0055287,0,0,0,0,0.0250745,0.504566,-1.01212,30.6875,1,42366,4283743
105,2,-0.66968,-0.083804,9.79514,0.0667201,-0.607536,1.01,-0.00669834,-0.000851979,0.0979512,1,6.94506e-05,-8.09881e-06,2.48868e-05,0.0138901,-0.00161976,0.00497735,0,0,0,0,0.0245886,0.502646,-1.01367,30.6875,1,42367,4283843
105,3,-0.66968,-0.083804,9.79514,0.0667201,-0.607536,1.01,-0.00669834,-0.000851979,0.0979512,1,6.94506e-05,-8.09881e-06,2.48868e-05,0.0138901,-0.00161976,0.00497735,0,0,0,0,0.0245886,0.502646,-1.01367,30.6875,1,42367,4283843
105,4,-0.677255,-0.0762987,9.78609,0.0582718,-0.599649,1.00146,-0.0067765,-0.000770007,0.0978606,1,3.5448e-05,-2.02413e-05,6.0967e-06,0.0070896,-0.00404826,0.00121934,0,0,0,0,0.0227334,0.500684,-1.01219,30.6875,1,42368,4283943
105,5,-0.677255,-0.0762987,9.78609,0.0582718,-0.599649,1.00146,-0.0067765,-0.000770007,0.0978606,1,3.5448e-05,-2.02413e-05,6.0967e-06,0.0070896,-0.00404826,0.00121934,0,0,0,0,0.0227334,0.500684,-1.01219,30.6875,1,42368,4283943
105,6,-0.676929,-0.0789678,9.79489,0.0594429,-0.60109,1.01339,-0.00676913,-0.000800156,0.0979488,1,5.25024e-05,7.18921e-07,1.42957e-05,0.0105005,0.000143784,0.00285913,0,0,0,0,0.021311,0.501644,-1.01065,30.6875,1,42369,4284043
105,7,-0.676929,-0.0789678,9.79489,0.0594429,-0.60109,1.01339,-0.00676913,-0.000800156,0.0979488,1,5.25024e-05,7.18921e-07,1.42957e-05,0.0105005,0.000143784,0.00285913,0,0,0,0,0.021311,0.501644,-1.01065,30.6875,1,42369,4284043
105,8,-0.673667,-0.0942042,9.79236,0.0606138,-0.614301,1.00677,-0.0067395,-0.000947291,0.0979234,1,2.52481e-05,-1.46758e-05,2.25138e-05,0.00504962,-0.00293516,0.00450277,0,0,0,0,0.0228084,0.50352,-1.00708,30.6875,1,42370,4284143
106,1,-0.673667,-0.0942042,9.79236,0.0606138,-0.614301,1.00677,-0.0067395,-0.000947291,0.0979234,1,2.52481e-05,-1.46758e-05,2.25138e-05,0.00504962,-0.00293516,0.00450277,0,0,0,0,0.0228084,0.50352,-1.00708,30.6875,1,42370,4284143
106,2,-0.673567,-0.0816365,9.78195,0.0607563,-0.605087,0.999745,-0.00673698,-0.000825522,0.0978193,1,4.53293e-05,-6.87887e-06,2.14539e-05,0.00906587,-0.00137577,0.00429078,0,0,0,0,0.0237502,0.504009,-1.00758,30.6875,1,42371,4284243
107,1,-0.673567,-0.0816365,9.78195,0.0607563,-0.605087,0.999745,-0.00673698,-0.000825522,0.0978193,1,4.53293e-05,-6.87887e-06,2.14539e-05,0.00906587,-0.00137577,0.00429078,0,0,0,0,0.0237502,0.504009,-1.00758,30.6875,1,42371,4284243
107,2,-0.672585,-0.0728697,9.78948,0.0662898,-0.597685,1.00308,-0.00672728,-0.000736409,0.0978946,1,3.77427e-05,-7.48961e-06,2.39165e-05,0.00754854,-0.00149792,0.0047833,0,0,0,0,0.0246057,0.504561,-1.01161,30.6875,1,42372,4284343
107,3,-0.672585,-0.0728697,9.78948,0.0662898,-0.597685,1.00308,-0.00672728,-0.000736409,0.0978946,1,3.77427e-05,-7.48961e-06,2.39165e-05,0.00754854,-0.00149792,0.0047833,0,0,0,0,0.0246057,0.504561,-1.01161,30.6875,1,42372,4284343
107,4,-0.681657,-0.0808784,9.79151,0.0545915,-0.60672,1.00234,-0.00681822,-0.000820274,0.0979149,1,5.79748e-05,-8.50474e-06,1.00435e-05,0.011595,-0.00170095,0.0020087,0,0,0,0,0.0231291,0.503634,-1.01364,30.6875,1,42373,4284443
108,1,-0.681657,-0.0808784,9.79151,0.0545915,-0.60672,1.00234,-0.00681822,-0.000820274,0.0979149,1,5.79748e-05,-8.50474e-06,1.00435e-05,0.011595,-0.00170095,0.0020087,0,0,0,0,0.0231291,0.503634,-1.01364,30.6875,1,42373,4284443
108,2,-0.674139,-0.0819699,9.79315,0.0628177,-0.604997,1.00429,-0.00674391,-0.000830031,0.0979313,1,5.1096e-05,-1.30478e-05,2.40079e-05,0.0102192,-0.00260956,0.00480157,0,0,0,0,0.0217342,0.500719,-1.0137,30.6875,1,42374,4284543
108,3,-0.674139,-0.0819699,9.79315,0.0628177,-0.604997,1.00429,-0.00674391,-0.000830031,0.0979313,1,5.1096e-05,-1.30478e-05,2.40079e-05,0.0102192,-0.00260956,0.00480157,0,0,0,0,0.0217342,0.500719,-1.0137,30.6875,1,42374,4284543
108,4,-0.679304,-0.0662345,9.79638,0.0624074,-0.595351,1.00653,-0.00679461,-0.000675668,0.0979636,1,6.69939e-05,-8.14145e-06,1.45115e-05,0.0133988,-0.00162829,0.00290229,0,0,0,0,0.0213551,0.498239,-1.01123,30.6875,1,42375,4284643
109,1,-0.679304,-0.0662345,9.79638,0.0624074,-0.595351,1.00653,-0.00679461,-0.000675668,0.0979636,1,6.69939e-05,-8.14145e-06,1.45115e-05,0.0133988,-0.00162829,0.00290229,0,0,0,0,0.0213551,0.498239,-1.01123,30.6875,1,42375,4284643
109,2,-0.680302,-0.0740619,9.78546,0.0589605,-0.597053,0.998151,-0.00680693,-0.000751346,0.0978542,1,5.29121e-05,-2.01445e-05,2.72954e-05,0.0105824,-0.0040289,0.00545908,0,0,0,0,0.0214419,0.499621,-1.00666,30.6875,1,42376,4284743
109,3,-0.680302,-0.0740619,9.78546,0.0589605,-0.597053,0.998151,-0.00680693,-0.000751346,0.0978542,1,5.29121e-05,-2.01445e-05,2.72954e-05,0.0105824,-0.0040289,0.00545908,0,0,0,0,0.0214419,0.499621,-1.00666,30.6875,1,42376,4284743
109,4,-0.675189,-0.0818751,9.78298,0.0618543,-0.605013,0.999714,-0.00675374,-0.000829391,0.0978296,1,5.34971e-05,-9.60169e-06,1.27459e-05,0.0106994,-0.00192034,0.00254918,0,0,0,0,0.0232648,0.503534,-1.00809,30.6875,1,42377,4284843
109,5,-0.675189,-0.0818751,9.78298,0.0618543,-0.605013,0.999714,-0.00675374,-0.000829391,0.0978296,1,5.34971e-05,-9.60169e-06,1.27459e-05,0.0106994,-0.00192034,0.00254918,0,0,0,0,0.0232648,0.503534,-1.00809,30.6875,1,42377,4284843
109,6,-0.681747,-0.0870266,9.78806,0.0567789,-0.614768,1.00038,-0.0068165,-0.000876562,0.0978806,1,3.05567e-05,4.79459e-06,2.30409e-05,0.00611134,0.000958917,0.00460818,0,0,0,0,0.0231415,0.503625,-1.01314,30.6875,1,42378,4284943
110,1,-0.681747,-0.0870266,9.78806,0.0567789,-0.614768,1.00038,-0.0068165,-0.000876562,0.0978806,1,3.05567e-05,4.79459e-06,2.30409e-05,0.00611134,0.000958917,0.00460818,0,0,0,0,0.0231415,0.503625,-1.01314,30.6875,1,42378,4284943
110,2,-0.6721,-0.0861725,9.78496,0.068043,-0.614168,0.995541,-0.00672212,-0.000868733,0.0978494,1,3.42839e-05,-5.901e-06,2.22193e-05,0.00685679,-0.0011802,0.00444387,0,0,0,0,0.0226191,0.503177,-1.01517,30.6875,1,42379,4285043
111,1,-0.6721,-0.0861725,9.78496,0.068043,-0.614168,0.995541,-0.00672212,-0.000868733,0.0978494,1,3.42839e-05,-5.901e-06,2.22193e-05,0.00685679,-0.0011802,0.00444387,0,0,0,0,0.0226191,0.503177,-1.01517,30.6875,1,42379,4285043
111,2,-0.672943,-0.0771017,9.78605,0.0658594,-0.605427,0.999601,-0.0067304,-0.000781956,0.0978604,1,5.43724e-05,-5.11679e-06,2.20819e-05,0.0108745,-0.00102336,0.00441637,0,0,0,0,0.0231695,0.501195,-1.0137,30.6875,1,42380,4285143
112,1,-0.672943,-0.0771017,9.78605,0.0658594,-0.605427,0.999601,-0.0067304,-0.000781956,0.0978604,1,5.43724e-05,-5.11679e-06,2.20819e-05,0.0108745,-0.00102336,0.00441637,0,0,0,0,0.0231695,0.501195,-1.0137,30.6875,1,42380,4285143
112,2,-0.66046,-0.0907695,9.78994,0.0809202,-0.624433,1.00584,-0.00660468,-0.000918078,0.0978992,1,5.13981e-05,-6.35124e-07,2.41636e-05,0.0102796,-0.000127025,0.00483271,0,0,0,0,0.0217631,0.50118,-1.01218,30.6875,1,42381,4285243
112,3,-0.66046,-0.0907695,9.78994,0.0809202,-0.624433,1.00584,-0.00660468,-0.000918078,0.0978992,1,5.13981e-05,-6.35124e-07,2.41636e-05,0.0102796,-0.000127025,0.00483271,0,0,0,0,0.0217631,0.50118,-1.01218,30.6875,1,42381,4285243
112,4,-0.685339,-0.0828527,9.7939,0.054037,-0.611167,1.01196,-0.00685512,-0.000837467,0.0979388,1,4.44503e-05,-8.9514e-06,1.70245e-05,0.00889005,-0.00179028,0.00340491,0,0,0,0,0.0218461,0.503528,-1.00708,30.6875,1,42382,4285343
113,1,-0.685339,-0.0828527,9.7939,0.054037,-0.611167,1.01196,-0.00685512,-0.000837467,0.0979388,1,4.44503e-05,-8.9514e-06,1.70245e-05,0.00889005,-0.00179028,0.00340491,0,0,0,0,0.0218461,0.503528,-1.00708,30.6875,1,42382,4285343
113,2,-0.682955,-0.0902834,9.79042,0.0618008,-0.619305,1.00823,-0.0068305,-0.000912016,0.0979041,1,4.58043e-05,-4.99206e-06,1.5581e-05,0.00916086,-0.000998411,0.00311619,0,0,0,0,0.022332,0.505448,-1.00552,30.6875,1,42383,4285443
113,3,-0.682955,-0.0902834,9.79042,0.0618008,-0.619305,1.00823,-0.0068305,-0.000912016,0.0979041,1,4.58043e-05,-4.99206e-06,1.5581e-05,0.00916086,-0.000998411,0.00311619,0,0,0,0,0.022332,0.505448,-1.00552,30.6875,1,42383,4285443
113,4,-0.680596,-0.0773316,9.78374,0.0570116,-0.610764,0.99288,-0.00680991,-0.000780874,0.0978371,1,3.72492e-05,-2.03754e-05,1.97422e-05,0.00744984,-0.00407508,0.00394844,0,0,0,0,0.024117,0.506498,-1.01056,30.6875,1,42384,4285543
113,5,-0.680596,-0.0773316,9.78374,0.0570116,-0.610764,0.99288,-0.00680991,-0.000780874,0.0978371,1,3.72492e-05,-2.03754e-05,1.97422e-05,0.00744984,-0.00407508,0.00394844,0,0,0,0,0.024117,0.506498,-1.01056,30.6875,1,42384,4285543
113,6,-0.675873,-0.0780533,9.78404,0.0630964,-0.615386,0.994188,-0.00676138,-0.000791645,0.0978401,1,5.52239e-05,-1.37458e-05,2.25847e-05,0.0110448,-0.00274916,0.00451694,0,0,0,0,0.0250294,0.505081,-1.01362,30.6875,1,42385,4285643
114,1,-0.675873,-0.0780533,9.78404,0.0630964,-0.615386,0.994188,-0.00676138,-0.000791645,0.0978401,1,5.52239e-05,-1.37458e-05,2.25847e-05,0.0110448,-0.00274916,0.00451694,0,0,0,0,0.0250294,0.505081,-1.01362,30.6875,1,42385,4285643
114,2,-0.685096,-0.075471,9.78141,0.0494916,-0.611391,0.994985,-0.00685351,-0.000764896,0.0978138,1,5.01926e-05,-1.32306e-05,2.67959e-05,0.0100385,-0.00264613,0.00535919,0,0,0,0,0.023178,0.502152,-1.01267,30.6875,1,42386,4285743
114,3,-0.685096,-0.075471,9.78141,0.0494916,-0.611391,0.994985,-0.00685351,-0.000764896,0.0978138,1,5.01926e-05,-1.32306e-05,2.67959e-05,0.0100385,-0.00264613,0.00535919,0,0,0,0,0.023178,0.502152,-1.01267,30.6875,1,42386,4285743
114,4,-0.685062,-0.0888536,9.78739,0.0512618,-0.62274,1.00367,-0.00685099,-0.000899985,0.0978738,1,5.70361e-05,-2.10883e-06,2.07181e-05,0.0114072,-0.000421765,0.00414362,0,0,0,0,0.0218167,0.501622,-1.00964,30.6875,1,42387,4285843
115,1,-0.685062,-0.0888536,9.78739,0.0512618,-0.62274,1.00367,-0.00685099,-0.000899985,0.0978738,1,5.70361e-05,-2.10883e-06,2.07181e-05,0.0114072,-0.000421765,0.00414362,0,0,0,0,0.0218167,0.501622,-1.00964,30.6875,1,42387,4285843
115,2,-0.678086,-0.0865996,9.78501,0.0601604,-0.615327,0.999831,-0.00678557,-0.00087264,0.0978497,1,3.21308e-05,-2.43129e-05,2.6185e-05,0.00642617,-0.00486258,0.005237,0,0,0,0,0.0233056,0.502541,-1.0071,30.6875,1,42388,4285943
115,3,-0.678086,-0.0865996,9.78501,0.0601604,-0.615327,0.999831,-0.00678557,-0.00087264,0.0978497,1,3.21308e-05,-2.43129e-05,2.6185e-05,0.00642617,-0.00486258,0.005237,0,0,0,0,0.0233056,0.502541,-1.0071,30.6875,1,42388,4285943
115,4,-0.673433,-0.0862558,9.79141,0.0653281,-0.619169,1.00321,-0.00673602,-0.000870189,0.097914,1,3.75546e-05,-8.77329e-06,2.05543e-05,0.00751093,-0.00175466,0.00411085,0,0,0,0,0.0246265,0.50551,-1.01007,30.6875,1,42389,4286043
115,5,-0.673433,-0.0862558,9.79141,0.0653281,-0.619169,1.00321,-0.00673602,-0.000870189,0.097914,1,3.75546e-05,-8.77329e-06,2.05543e-05,0.00751093,-0.00175466,0.00411085,0,0,0,0,0.0246265,0.50551,-1.01007,30.6875,1,42389,4286043
115,6,-0.68161,-0.086543,9.78773,0.0566866,-0.618866,0.999088,-0.00681805,-0.000873629,0.0978771,1,4.09707e-05,-1.00862e-05,1.31093e-05,0.00819415,-0.00201723,0.00262187,0,0,0,0,0.0235656,0.50559,-1.01411,30.6875,1,42390,4286143
116,1,-0.68161,-0.086543,9.78773,0.0566866,-0.618866,0.999088,-0.00681805,-0.000873629,0.0978771,1,4.09707e-05,-1.00862e-05,1.31093e-05,0.00819415,-0.00201723,0.00262187,0,0,0,0,0.0235656,0.50559,-1.01411,30.6875,1,42390,4286143
116,2,-0.672058,-0.0788482,9.79113,0.0629736,-0.615353,1.00484,-0.00672308,-0.000798765,0.0979111,1,5.17853e-05,-1.28224e-05,1.06038e-05,0.0103571,-0.00256447,0.00212077,0,0,0,0,0.0216407,0.50416,-1.01514,30.6875,1,42391,4286243
116,3,-0.672058,-0.0788482,9.79113,0.0629736,-0.615353,1.00484,-0.00672308,-0.000798765,0.0979111,1,5.17853e-05,-1.28224e-05,1.06038e-05,0.0103571,-0.00256447,0.00212077,0,0,0,0,0.0216407,0.50416,-1.01514,30.6875,1,42391,4286243
116,4,-0.669479,-0.0784523,9.79179,0.0677573,-0.618138,1.0075,-0.00669613,-0.000794561,0.0979177,1,5.09657e-05,-6.91575e-06,4.25643e-06,0.0101931,-0.00138315,0.000851286,0,0,0,0,0.020817,0.500212,-1.0122,30.6875,1,42392,4286343
117,1,-0.669479,-0.0784523,9.79179,0.0677573,-0.618138,1.0075,-0.00669613,-0.000794561,0.0979177,1,5.09657e-05,-6.91575e-06,4.25643e-06,0.0101931,-0.00138315,0.000851286,0,0,0,0,0.020817,0.500212,-1.0122,30.6875,1,42392,4286343
117,2,-0.666268,-0.082797,9.78054,0.0700784,-0.621228,0.997307,-0.00666719,-0.000838384,0.097805,1,5.26178e-05,-2.31377e-05,9.14199e-06,0.0105236,-0.00462755,0.0018284,0,0,0,0,0.0213841,0.4987,-1.00971,30.6875,1,42393,4286443
117,3,-0.666268,-0.082797,9.78054,0.0700784,-0.621228,0.997307,-0.00666719,-0.000838384,0.097805,1,5.26178e-05,-2.31377e-05,9.14199e-06,0.0105236,-0.00462755,0.0018284,0,0,0,0,0.0213841,0.4987,-1.00971,30.6875,1,42393,4286443
117,4,-0.672565,-0.0748492,9.79049,0.063588,-0.609995,1.00482,-0.00672729,-0.000756606,0.0979047,1,3.99723e-05,-8.5215e-06,2.13666e-05,0.00799445,-0.0017043,0.00427332,0,0,0,0,0.0247367,0.502538,-1.00762,30.6875,1,42394,4286543
117,5,-0.672565,-0.0748492,9.79049,0.063588,-0.609995,1.00482,-0.00672729,-0.000756606,0.0979047,1,3.99723e-05,-8.5215e-06,2.13666e-05,0.00799445,-0.0017043,0.00427332,0,0,0,0,0.0247367,0.502538,-1.00762,30.6875,1,42394,4286543
117,6,-0.67565,-0.0827165,9.78127,0.0645012,-0.614093,0.998436,-0.00675584,-0.000834793,0.0978127,1,3.75454e-05,3.15904e-06,2.09714e-05,0.00750908,0.000631809,0.00419428,0,0,0,0,0.0246593,0.505004,-1.00908,30.6875,1,42395,4286643
118,1,-0.67565,-0.0827165,9.78127,0.0645012,-0.614093,0.998436,-0.00675584,-0.000834793,0.0978127,1,3.75454e-05,3.15904e-06,2.09714e-05,0.00750908,0.000631809,0.00419428,0,0,0,0,0.0246593,0.505004,-1.00908,30.6875,1,42395,4286643
118,2,-0.675188,-0.0739461,9.7878,0.0614406,-0.608336,1.00119,-0.00675505,-0.000750773,0.0978777,1,5.64436e-05,-1.6302e-05,1.94667e-05,0.0112887,-0.00326039,0.00389335,0,0,0,0,0.0226195,0.504622,-1.01413,30.6875,1,42396,4286743
118,3,-0.675188,-0.0739461,9.7878,0.0614406,-0.608336,1.00119,-0.00675505,-0.000750773,0.0978777,1,5.64436e-05,-1.6302e-05,1.94667e-05,0.0112887,-0.00326039,0.00389335,0,0,0,0,0.0226195,0.504622,-1.01413,30.6875,1,42396,4286743
118,4,-0.678005,-0.0810253,9.78334,0.0599827,-0.620822,0.994117,-0.00678102,-0.000817957,0.0978333,1,3.79849e-05,-5.13148e-06,2.00142e-05,0.00759698,-0.0010263,0.00400284,0,0,0,0,0.0231002,0.503173,-1.01517,30.6875,1,42397,4286843
118,5,-0.678005,-0.0810253,9.78334,0.0599827,-0.620822,0.994117,-0.00678102,-0.000817957,0.0978333,1,3.79849e-05,-5.13148e-06,2.00142e-05,0.00759698,-0.0010263,0.00400284,0,0,0,0,0.0231002,0.503173,-1.01517,30.6875,1,42397,4286843
118,6,-0.680025,-0.0818588,9.79454,0.0617474,-0.622021,1.00788,-0.00680001,-0.000826337,0.0979454,1,3.81097e-05,1.07288e-06,2.08729e-05,0.00762194,0.000214576,0.00417457,0,0,0,0,0.0236919,0.501642,-1.01167,30.6875,1,42398,4286943
119,1,-0.680025,-0.0818588,9.79454,0.0617474,-0.622021,1.00788,-0.00680001,-0.000826337,0.0979454,1,3.81097e-05,1.07288e-06,2.08729e-05,0.00762194,0.000214576,0.00417457,0,0,0,0,0.0236919,0.501642,-1.01167,30.6875,1,42398,4286943
119,2,-0.671299,-0.088128,9.79241,0.0739521,-0.62723,1.01005,-0.00671586,-0.000890245,0.0979238,1,4.49028e-05,-1.47485e-05,1.27424e-05,0.00898055,-0.00294969,0.00254848,0,0,0,0,0.0223429,0.501104,-1.00814,30.6875,1,42399,4287043
119,3,-0.671299,-0.088128,9.79241,0.0739521,-0.62723,1.01005,-0.00671586,-0.000890245,0.0979238,1,4.49028e-05,-1.47485e-05,1.27424e-05,0.00898055,-0.00294969,0.00254848,0,0,0,0,0.0223429,0.501104,-1.00814,30.6875,1,42399,4287043
119,4,-0.67976,-0.0778329,9.78372,0.0580444,-0.615913,0.999374,-0.00679877,-0.000789378,0.097837,1,5.46536e-05,-6.17283e-06,2.60903e-05,0.0109307,-0.00123457,0.00521806,0,0,0,0,0.0214262,0.502042,-1.00559,30.6875,1,42400,4287143
120,1,-0.67976,-0.0778329,9.78372,0.0580444,-0.615913,0.999374,-0.00679877,-0.000789378,0.097837,1,5.46536e-05,-6.17283e-06,2.60903e-05,0.0109307,-0.00123457,0.00521806,0,0,0,0,0.0214262,0.502042,-1.00559,30.6875,1,42400,4287143
120,2,-0.676214,-0.0798595,9.7864,0.0607894,-0.618054,0.997439,-0.00676424,-0.000808147,0.0978638,1,4.80432e-05,-1.08349e-05,1.09487e-05,0.00960864,-0.00216697,0.00218974,0,0,0,0,0.023261,0.504501,-1.00757,30.6875,1,42401,4287243
120,3,-0.676214,-0.0798595,9.7864,0.0607894,-0.618054,0.997439,-0.00676424,-0.000808147,0.0978638,1,4.80432e-05,-1.08349e-05,1.09487e-05,0.00960864,-0.00216697,0.00218974,0,0,0,0,0.023261,0.504501,-1.00757,30.6875,1,42401,4287243
120,4,-0.678422,-0.0869321,9.78603,0.0627703,-0.625487,0.995456,-0.00678908,-0.000875908,0.0978599,1,3.21605e-05,-2.50152e-05,2.15285e-05,0.0064321,-0.00500304,0.0043057,0,0,0,0,0.0255641,0.50552,-1.01109,30.6875,1,42402,4287343
120,5,-0.678422,-0.0869321,9.78603,0.0627703,-0.625487,0.995456,-0.00678908,-0.000875908,0.0978599,1,3.21605e-05,-2.50152e-05,2.15285e-05,0.0064321,-0.00500304,0.0043057,0,0,0,0,0.0255641,0.50552,-1.01109,30.6875,1,42402,4287343
120,6,-0.680353,-0.0796515,9.78507,0.0587664,-0.621595,0.995288,-0.00680582,-0.000805482,0.0978504,1,4.42265e-05,-1.18744e-05,2.28921e-05,0.00884531,-0.00237489,0.00457841,0,0,0,0,0.0240671,0.505089,-1.01362,30.6875,1,42403,4287443
120,7,-0.680353,-0.0796515,9.78507,0.0587664,-0.621595,0.995288,-0.00680582,-0.000805482,0.0978504,1,4.42265e-05,-1.18744e-05,2.28921e-05,0.00884531,-0.00237489,0.00457841,0,0,0,0,0.0240671,0.505089,-1.01362,30.6875,1,42403,4287443
120,8,-0.686744,-0.0842008,9.79219,0.048126,-0.625293,1.00623,-0.00686793,-0.000851372,0.0979218,1,4.60614e-05,-2.68966e-06,2.49817e-05,0.00921228,-0.000537932,0.00499634,0,0,0,0,0.0222158,0.50216,-1.01266,30.6875,1,42404,4287543
120,9,-0.686744,-0.0842008,9.79219,0.048126,-0.625293,1.00623,-0.00686793,-0.000851372,0.0979218,1,4.60614e-05,-2.68966e-06,2.49817e-05,0.00921228,-0.000537932,0.00499634,0,0,0,0,0.0222158,0.50216,-1.01266,30.6875,1,42404,4287543
120,10,-0.683563,-0.0838235,9.78947,0.0546031,-0.627316,1.00623,-0.00683989,-0.000847323,0.0978943,1,4.55659e-05,-2.18208e-05,1.21892e-05,0.00911318,-0.00436417,0.00243784,0,0,0,0,0.0228155,0.500142,-1.00918,30.6875,1,42405,4287643
121,1,-0.683563,-0.0838235,9.78947,0.0546031,-0.627316,1.00623,-0.00683989,-0.000847323,0.0978943,1,4.55659e-05,-2.18208e-05,1.21892e-05,0.00911318,-0.00436417,0.00243784,0,0,0,0,0.0228155,0.500142,-1.00918,30.6875,1,42405,4287643
121,2,-0.672279,-0.0791752,9.77925,0.0645792,-0.616916,0.993286,-0.00672374,-0.000799743,0.0977924,1,3.90112e-05,-5.08141e-06,2.68669e-05,0.00780223,-0.00101628,0.00537338,0,0,0,0,0.0238437,0.500568,-1.00614,30.6875,1,42406,4287743
121,3,-0.672279,-0.0791752,9.77925,0.0645792,-0.616916,0.993286,-0.00672374,-0.000799743,0.0977924,1,3.90112e-05,-5.08141e-06,2.68669e-05,0.00780223,-0.00101628,0.00537338,0,0,0,0,0.0238437,0.500568,-1.00614,30.6875,1,42406,4287743
121,4,-0.670579,-0.0789222,9.78602,0.0715227,-0.617343,0.997616,-0.00670535,-0.000796094,0.0978602,1,3.3794e-05,2.08804e-06,1.92654e-05,0.00675879,0.000417608,0.00385307,0,0,0,0,0.0232487,0.50451,-1.00807,30.6875,1,42407,4287843
121,5,-0.670579,-0.0789222,9.78602,0.0715227,-0.617343,0.997616,-0.00670535,-0.000796094,0.0978602,1,3.3794e-05,2.08804e-06,1.92654e-05,0.00675879,0.000417608,0.00385307,0,0,0,0,0.0232487,0.50451,-1.00807,30.6875,1,42407,4287843
121,6,-0.673131,-0.0836076,9.78227,0.0626732,-0.619873,0.991178,-0.00673396,-0.000845551,0.0978225,1,4.62234e-05,-1.38412e-05,3.2099e-05,0.00924467,-0.00276825,0.00641981,0,0,0,0,0.0236273,0.505545,-1.01158,30.6875,1,42408,4287943
122,1,-0.673131,-0.0836076,9.78227,0.0626732,-0.619873,0.991178,-0.00673396,-0.000845551,0.0978225,1,4.62234e-05,-1.38412e-05,3.2099e-05,0.00924467,-0.00276825,0.00641981,0,0,0,0,0.0236273,0.505545,-1.01158,30.6875,1,42408,4287943
122,2,-0.669112,-0.0766245,9.79282,0.0692345,-0.621202,1.00223,-0.0066935,-0.000774212,0.097928,1,3.85063e-05,-1.23682e-05,3.17154e-05,0.00770125,-0.00247365,0.00634309,0,0,0,0,0.0225863,0.503683,-1.01617,30.6875,1,42409,4288043
122,3,-0.669112,-0.0766245,9.79282,0.0692345,-0.621202,1.00223,-0.0066935,-0.000774212,0.097928,1,3.85063e-05,-1.23682e-05,3.17154e-05,0.00770125,-0.00247365,0.00634309,0,0,0,0,0.0225863,0.503683,-1.01617,30.6875,1,42409,4288043
122,4,-0.681704,-0.0818225,9.78539,0.0565535,-0.624849,0.999241,-0.00681889,-0.000824993,0.0978537,1,3.41087e-05,-9.53687e-06,6.76518e-06,0.00682174,-0.00190737,0.00135304,0,0,0,0,0.0226964,0.500711,-1.01371,30.6875,1,42410,4288143
122,5,-0.681704,-0.0818225,9.78539,0.0565535,-0.624849,0.999241,-0.00681889,-0.000824993,0.0978537,1,3.41087e-05,-9.53687e-06,6.76518e-06,0.00682174,-0.00190737,0.00135304,0,0,0,0,0.0226964,0.500711,-1.01371,30.6875,1,42410,4288143
122,6,-0.678186,-0.087657,9.78566,0.0619822,-0.62647,1.00334,-0.00678552,-0.0008828,0.0978563,1,3.0851e-05,-1.88555e-05,1.41395e-05,0.00617019,-0.0037711,0.0028279,0,0,0,0,0.0228198,0.500621,-1.00866,30.6875,1,42411,4288243
122,7,-0.678186,-0.087657,9.78566,0.0619822,-0.62647,1.00334,-0.00678552,-0.0008828,0.0978563,1,3.0851e-05,-1.88555e-05,1.41395e-05,0.00617019,-0.0037711,0.0028279,0,0,0,0,0.0228198,0.500621,-1.00866,30.6875,1,42411,4288243
122,8,-0.676636,-0.0853799,9.78668,0.0621752,-0.62486,1.00092,-0.00676655,-0.000862939,0.0978667,1,4.4886e-05,-1.17173e-06,2.61498e-05,0.00897719,-0.000234346,0.00522995,0,0,0,0,0.0237663,0.503034,-1.0076,30.6875,1,42412,4288343
123,1,-0.676636,-0.0853799,9.78668,0.0621752,-0.62486,1.00092,-0.00676655,-0.000862939,0.0978667,1,4.4886e-05,-1.17173e-06,2.61498e-05,0.00897719,-0.000234346,0.00522995,0,0,0,0,0.0237663,0.503034,-1.0076,30.6875,1,42412,4288343
123,2,-0.680491,-0.0718111,9.78479,0.0618691,-0.61124,0.996558,-0.00680534,-0.000726307,0.0978478,1,4.05274e-05,-2.36947e-06,1.9461e-05,0.00810548,-0.000473895,0.0038922,0,0,0,0,0.023689,0.5055,-1.00906,30.6875,1,42413,4288443
123,3,-0.680491,-0.0718111,9.78479,0.0618691,-0.61124,0.996558,-0.00680534,-0.000726307,0.0978478,1,4.05274e-05,-2.36947e-06,1.9461e-05,0.00810548,-0.000473895,0.0038922,0,0,0,0,0.023689,0.5055,-1.00906,30.6875,1,42413,4288443
123,4,-0.678158,-0.0923807,9.78495,0.0592149,-0.632775,0.996837,-0.00678308,-0.000930144,0.0978493,1,3.13204e-05,-7.82327e-06,1.52866e-05,0.00626408,-0.00156465,0.00305732,0,0,0,0,0.0245649,0.505555,-1.0126,30.6875,1,42414,4288543
124,1,-0.678158,-0.0923807,9.78495,0.0592149,-0.632775,0.996837,-0.00678308,-0.000930144,0.0978493,1,3.13204e-05,-7.82327e-06,1.52866e-05,0.00626408,-0.00156465,0.00305732,0,0,0,0,0.0245649,0.505555,-1.0126,30.6875,1,42414,4288543
124,2,-0.665386,-0.0710818,9.79386,0.0767241,-0.617139,1.0064,-0.00665454,-0.000719537,0.0979385,1,4.26696e-05,-3.69549e-06,2.71032e-05,0.00853392,-0.000739099,0.00542064,0,0,0,0,0.0245397,0.504127,-1.01465,30.6875,3,42415,4288643
124,3,-0.665386,-0.0710818,9.79386,0.0767241,-0.617139,1.0064,-0.00665454,-0.000719537,0.0979385,1,4.26696e-05,-3.69549e-06,2.71032e-05,0.00853392,-0.000739099,0.00542064,0,0,0,0,0.0245397,0.504127,-1.01465,30.6875,3,42415,4288643
124,4,-0.666965,-0.0831703,9.79106,0.0738416,-0.629094,1.00399,-0.00667236,-0.000839251,0.0979103,1,3.71337e-05,-1.40128e-05,2.07628e-05,0.00742674,-0.00280255,0.00415257,0,0,0,0,0.0226969,0.502156,-1.01267,30.6875,3,42416,4288743
125,1,-0.666965,-0.0831703,9.79106,0.0738416,-0.629094,1.00399,-0.00667236,-0.000839251,0.0979103,1,3.71337e-05,-1.40128e-05,2.07628e-05,0.00742674,-0.00280255,0.00415257,0,0,0,0,0.0226969,0.502156,-1.01267,30.6875,3,42416,4288743
125,2,-0.679935,-0.077374,9.79391,0.0622304,-0.617567,1.00987,-0.00680072,-0.000780771,0.0979389,1,3.44385e-05,-7.17307e-06,2.09826e-05,0.00688769,-0.00143461,0.00419652,0,0,0,0,0.0208137,0.502624,-1.01063,30.6875,3,42417,4288843
125,3,-0.679935,-0.077374,9.79391,0.0622304,-0.617567,1.00987,-0.00680072,-0.000780771,0.0979389,1,3.44385e-05,-7.17307e-06,2.09826e-05,0.00688769,-0.00143461,0.00419652,0,0,0,0,0.0208137,0.502624,-1.01063,30.6875,3,42417,4288843
125,4,-0.679488,-0.0766487,9.79426,0.0609237,-0.623306,1.00911,-0.00679813,-0.000775757,0.0979423,1,4.52904e-05,-1.68196e-05,2.92973e-05,0.00905808,-0.00336391,0.00585946,0,0,0,0,0.0223069,0.504021,-1.00757,30.6875,3,42418,4288943
125,5,-0.679488,-0.0766487,9.79426,0.0609237,-0.623306,1.00911,-0.00679813,-0.000775757,0.0979423,1,4.52904e-05,-1.68196e-05,2.92973e-05,0.00905808,-0.00336391,0.00585946,0,0,0,0,0.0223069,0.504021,-1.00757,30.6875,3,42418,4288943
125,6,-0.664943,-0.0852561,9.78288,0.0760862,-0.627085,0.991963,-0.00665206,-0.000861646,0.0978286,1,4.42751e-05,-1.36959e-05,3.17749e-05,0.00885502,-0.00273919,0.00635497,0,0,0,0,0.0247162,0.503035,-1.00811,30.6875,3,42419,4289043
126,1,-0.664943,-0.0852561,9.78288,0.0760862,-0.627085,0.991963,-0.00665206,-0.000861646,0.0978286,1,4.42751e-05,-1.36959e-05,3.17749e-05,0.00885502,-0.00273919,0.00635497,0,0,0,0,0.0247162,0.503035,-1.00811,30.6875,3,42419,4289043
126,2,-0.665603,-0.0798705,9.78905,0.0771263,-0.625093,1.00041,-0.00665725,-0.000808111,0.0978903,1,4.72443e-05,-6.32724e-06,1.17994e-05,0.00944885,-0.00126545,0.00235988,0,0,0,0,0.0236843,0.503576,-1.01062,30.6875,3,42420,4289143
126,3,-0.665603,-0.0798705,9.78905,0.0771263,-0.625093,1.00041,-0.00665725,-0.000808111,0.0978903,1,4.72443e-05,-6.32724e-06,1.17994e-05,0.00944885,-0.00126545,0.00235988,0,0,0,0,0.0236843,0.503576,-1.01062,30.6875,3,42420,4289143
126,4,-0.681639,-0.0848588,9.79555,0.0586394,-0.626474,1.0075,-0.00681634,-0.000857155,0.0979554,1,4.24479e-05,5.96274e-08,1.83935e-05,0.00848958,1.19255e-05,0.00367869,0,0,0,0,0.0231087,0.50413,-1.01414,30.6875,3,42421,4289243
126,5,-0.681639,-0.0848588,9.79555,0.0586394,-0.626474,1.0075,-0.00681634,-0.000857155,0.0979554,1,4.24479e-05,5.96274e-08,1.83935e-05,0.00848958,1.19255e-05,0.00367869,0,0,0,0,0.0231087,0.50413,-1.01414,30.6875,3,42421,4289243
126,6,-0.68122,-0.092576,9.7887,0.0568469,-0.639145,1.00376,-0.00681403,-0.000936538,0.0978867,1,5.37969e-05,-9.53277e-06,1.80602e-05,0.0107594,-0.00190655,0.00361205,0,0,0,0,0.022676,0.501208,-1.0142,30.6875,3,42422,4289343
127,1,-0.68122,-0.092576,9.7887,0.0568469,-0.639145,1.00376,-0.00681403,-0.000936538,0.0978867,1,5.37969e-05,-9.53277e-06,1.80602e-05,0.0107594,-0.00190655,0.00361205,0,0,0,0,0.022676,0.501208,-1.0142,30.6875,3,42422,4289343
127,2,-0.669497,-0.0727827,9.7837,0.0694305,-0.619438,0.998072,-0.0066975,-0.000735506,0.0978368,1,3.75564e-05,-1.31542e-05,2.46857e-05,0.00751128,-0.00263084,0.00493714,0,0,0,0,0.0208873,0.501125,-1.00864,30.6875,3,42423,4289443
127,3,-0.669497,-0.0727827,9.7837,0.0694305,-0.619438,0.998072,-0.0066975,-0.000735506,0.0978368,1,3.75564e-05,-1.31542e-05,2.46857e-05,0.00751128,-0.00263084,0.00493714,0,0,0,0,0.0208873,0.501125,-1.00864,30.6875,3,42423,4289443
127,4,-0.674509,-0.0810803,9.79553,0.0624166,-0.626345,1.01048,-0.0067469,-0.000819587,0.0979551,1,4.31983e-05,-9.46804e-06,2.37358e-05,0.00863967,-0.00189361,0.00474716,0,0,0,0,0.0233388,0.50348,-1.00506,30.6875,3,42424,4289543
128,1,-0.674509,-0.0810803,9.79553,0.0624166,-0.626345,1.01048,-0.0067469,-0.000819587,0.0979551,1,4.31983e-05,-9.46804e-06,2.37358e-05,0.00863967,-0.00189361,0.00474716,0,0,0,0,0.0233388,0.50348,-1.00506,30.6875,3,42424,4289543
128,2,-0.675744,-0.0888974,9.79447,0.0662121,-0.634421,1.00609,-0.00676002,-0.000897095,0.0979444,1,4.07956e-05,-1.3223e-05,9.57604e-06,0.00815912,-0.00264459,0.00191521,0,0,0,0,0.0232283,0.505007,-1.00856,30.6875,3,42425,4289643
128,3,-0.675744,-0.0888974,9.79447,0.0662121,-0.634421,1.00609,-0.00676002,-0.000897095,0.0979444,1,4.07956e-05,-1.3223e-05,9.57604e-06,0.00815912,-0.00264459,0.00191521,0,0,0,0,0.0232283,0.505007,-1.00856,30.6875,3,42425,4289643
128,4,-0.672161,-0.0842294,9.78565,0.0650252,-0.633054,0.995933,-0.00672309,-0.000848552,0.0978563,1,3.17246e-05,-7.6034e-06,3.66754e-06,0.00634491,-0.00152068,0.000733508,0,0,0,0,0.0236677,0.503106,-1.01164,30.6875,3,42426,4289743
129,1,-0.672161,-0.0842294,9.78565,0.0650252,-0.633054,0.995933,-0.00672309,-0.000848552,0.0978563,1,3.17246e-05,-7.6034e-06,3.66754e-06,0.00634491,-0.00152068,0.000733508,0,0,0,0,0.0236677,0.503106,-1.01164,30.6875,3,42426,4289743
129,2,-0.668852,-0.079267,9.78534,0.0713376,-0.62788,0.996144,-0.0066884,-0.000801166,0.0978533,1,4.26006e-05,4.91753e-07,1.18538e-05,0.00852012,9.83506e-05,0.00237076,0,0,0,0,0.023178,0.502152,-1.01267,30.6875,3,42427,4289843
130,1,-0.668852,-0.079267,9.78534,0.0713376,-0.62788,0.996144,-0.0066884,-0.000801166,0.0978533,1,4.26006e-05,4.91753e-07,1.18538e-05,0.00852012,9.83506e-05,0.00237076,0,0,0,0,0.023178,0.502152,-1.01267,30.6875,3,42427,4289843
130,2,-0.671511,-0.0795355,9.78501,0.0668103,-0.62479,0.994327,-0.00671788,-0.000803642,0.0978498,1,4.09836e-05,-1.43127e-05,1.98618e-05,0.00819671,-0.00286255,0.00397235,0,0,0,0,0.0208256,0.50117,-1.01116,30.6875,3,42428,4289943
130,3,-0.671511,-0.0795355,9.78501,0.0668103,-0.62479,0.994327,-0.00671788,-0.000803642,0.0978498,1,4.09836e-05,-1.43127e-05,1.98618e-05,0.00819671,-0.00286255,0.00397235,0,0,0,0,0.0208256,0.50117,-1.01116,30.6875,3,42428,4289943
130,4,-0.673059,-0.089162,9.78562,0.0669065,-0.638799,1.00096,-0.00673354,-0.000901245,0.0978559,1,4.7382e-05,-1.53408e-05,2.61273e-05,0.0094764,-0.00306815,0.00522547,0,0,0,0,0.0208835,0.502091,-1.00811,30.6875,3,42429,4290043
131,1,-0.673059,-0.089162,9.78562,0.0669065,-0.638799,1.00096,-0.00673354,-0.000901245,0.0978559,1,4.7382e-05,-1.53408e-05,2.61273e-05,0.0094764,-0.00306815,0.00522547,0,0,0,0,0.0208835,0.502091,-1.00811,30.6875,3,42429,4290043
131,2,-0.667958,-0.092033,9.78352,0.069995,-0.641139,0.991885,-0.00668261,-0.000931186,0.0978349,1,5.41452e-05,-1.56778e-05,1.95691e-05,0.010829,-0.00313556,0.00391383,0,0,0,0,0.0228492,0.502527,-1.00609,30.6875,3,42430,4290143
131,3,-0.667958,-0.092033,9.78352,0.069995,-0.641139,0.991885,-0.00668261,-0.000931186,0.0978349,1,5.41452e-05,-1.56778e-05,1.95691e-05,0.010829,-0.00313556,0.00391383,0,0,0,0,0.0228492,0.502527,-1.00609,30.6875,3,42430,4290143
131,4,-0.681567,-0.0786386,9.79594,0.0628068,-0.624831,1.00753,-0.00681838,-0.000798195,0.0979591,1,5.89584e-05,-1.40238e-05,1.89169e-05,0.0117917,-0.00280477,0.00378338,0,0,0,0,0.0232814,0.504004,-1.00707,30.6875,3,42431,4290243
132,1,-0.681567,-0.0786386,9.79594,0.0628068,-0.624831,1.00753,-0.00681838,-0.000798195,0.0979591,1,5.89584e-05,-1.40238e-05,1.89169e-05,0.0117917,-0.00280477,0.00378338,0,0,0,0,0.0232814,0.504004,-1.00707,30.6875,3,42431,4290243
132,2,-0.673923,-0.0850453,9.78464,0.0659078,-0.633824,0.994491,-0.00674012,-0.000859237,0.0978462,1,4.40161e-05,-4.66076e-06,1.2655e-05,0.00880322,-0.000932152,0.002531,0,0,0,0,0.0231543,0.505061,-1.01159,30.6875,3,42432,4290343
132,3,-0.673923,-0.0850453,9.78464,0.0659078,-0.633824,0.994491,-0.00674012,-0.000859237,0.0978462,1,4.40161e-05,-4.66076e-06,1.2655e-05,0.00880322,-0.000932152,0.002531,0,0,0,0,0.0231543,0.505061,-1.01159,30.6875,3,42432,4290343
132,4,-0.678332,-0.0789994,9.79286,0.062154,-0.627379,1.00575,-0.00678253,-0.000797951,0.0979286,1,3.96911e-05,3.93036e-06,1.35208e-05,0.00793823,0.000786072,0.00270416,0,0,0,0,0.0240667,0.503644,-1.01466,30.6875,3,42433,4290443
132,5,-0.678332,-0.0789994,9.79286,0.062154,-0.627379,1.00575,-0.00678253,-0.000797951,0.0979286,1,3.96911e-05,3.93036e-06,1.35208e-05,0.00793823,0.000786072,0.00270416,0,0,0,0,0.0240667,0.503644,-1.01466,30.6875,3,42433,4290443
132,6,-0.677113,-0.0828185,9.79486,0.0635302,-0.635663,1.00636,-0.00677393,-0.000837046,0.0979483,1,4.38076e-05,-1.44503e-05,2.05896e-05,0.00876153,-0.00289007,0.00411791,0,0,0,0,0.0236468,0.502157,-1.01318,30.6875,3,42434,4290543
133,1,-0.677113,-0.0828185,9.79486,0.0635302,-0.635663,1.00636,-0.00677393,-0.000837046,0.0979483,1,4.38076e-05,-1.44503e-05,2.05896e-05,0.00876153,-0.00289007,0.00411791,0,0,0,0,0.0236468,0.502157,-1.01318,30.6875,3,42434,4290543
133,2,-0.67928,-0.0796969,9.78574,0.0552272,-0.628572,0.999278,-0.00679561,-0.000803431,0.0978571,1,3.20357e-05,-1.45023e-05,1.41693e-05,0.00640713,-0.00290046,0.00283387,0,0,0,0,0.0208218,0.502136,-1.01064,30.6875,3,42435,4290643
134,1,-0.67928,-0.0796969,9.78574,0.0552272,-0.628572,0.999278,-0.00679561,-0.000803431,0.0978571,1,3.20357e-05,-1.45023e-05,1.41693e-05,0.00640713,-0.00290046,0.00283387,0,0,0,0,0.0208218,0.502136,-1.01064,30.6875,3,42435,4290643
134,2,-0.672791,-0.0746064,9.78676,0.0674473,-0.622323,0.998855,-0.00673013,-0.000751722,0.0978674,1,2.70384e-05,-1.15408e-05,2.72001e-05,0.00540768,-0.00230816,0.00544001,0,0,0,0,0.0228084,0.50352,-1.00708,30.6875,3,42436,4290743
135,1,-0.672791,-0.0746064,9.78676,0.0674473,-0.622323,0.998855,-0.00673013,-0.000751722,0.0978674,1,2.70384e-05,-1.15408e-05,2.72001e-05,0.00540768,-0.00230816,0.00544001,0,0,0,0,0.0228084,0.50352,-1.00708,30.6875,3,42436,4290743
135,2,-0.673845,-0.0806247,9.7901,0.065285,-0.630378,1.00702,-0.00674052,-0.000815596,0.0979008,1,4.61414e-05,-1.07456e-05,2.33819e-05,0.00922828,-0.00214912,0.00467639,0,0,0,0,0.0251613,0.505948,-1.00754,30.6875,3,42437,4290843
135,3,-0.673845,-0.0806247,9.7901,0.065285,-0.630378,1.00702,-0.00674052,-0.000815596,0.0979008,1,4.61414e-05,-1.07456e-05,2.33819e-05,0.00922828,-0.00214912,0.00467639,0,0,0,0,0.0251613,0.505948,-1.00754,30.6875,3,42437,4290843
135,4,-0.675663,-0.0831184,9.79316,0.0669662,-0.632259,1.00443,-0.00676064,-0.00084094,0.0979313,1,4.9161e-05,-2.05745e-05,9.41716e-06,0.00983219,-0.0041149,0.00188343,0,0,0,0,0.0250953,0.505515,-1.01058,30.6875,3,42438,4290943
136,1,-0.675663,-0.0831184,9.79316,0.0669662,-0.632259,1.00443,-0.00676064,-0.00084094,0.0979313,1,4.9161e-05,-2.05745e-05,9.41716e-06,0.00983219,-0.0041149,0.00188343,0,0,0,0,0.0250953,0.505515,-1.01058,30.6875,3,42438,4290943
136,2,-0.676898,-0.0832416,9.7935,0.060727,-0.634005,1.00645,-0.0067699,-0.00083885,0.0979348,1,3.14284e-05,-4.8598e-06,2.05282e-05,0.00628567,-0.00097196,0.00410565,0,0,0,0,0.0231291,0.503634,-1.01364,30.6875,3,42439,4291043
136,3,-0.676898,-0.0832416,9.7935,0.060727,-0.634005,1.00645,-0.0067699,-0.00083885,0.0979348,1,3.14284e-05,-4.8598e-06,2.05282e-05,0.00628567,-0.00097196,0.00410565,0,0,0,0,0.0231291,0.503634,-1.01364,30.6875,3,42439,4291043
136,4,-0.678241,-0.0876944,9.78193,0.058956,-0.642932,0.992424,-0.00678347,-0.000887961,0.0978191,1,5.53224e-05,-5.55838e-06,1.43365e-05,0.0110645,-0.00111168,0.0028673,0,0,0,0,0.0231699,0.50264,-1.01266,30.6875,3,42440,4291143
136,5,-0.678241,-0.0876944,9.78193,0.058956,-0.642932,0.992424,-0.00678347,-0.000887961,0.0978191,1,5.53224e-05,-5.55838e-06,1.43365e-05,0.0110645,-0.00111168,0.0028673,0,0,0,0,0.0231699,0.50264,-1.01266,30.6875,3,42440,4291143
136,6,-0.684693,-0.07259,9.79094,0.0529225,-0.627207,1.00615,-0.00685051,-0.000734567,0.097909,1,4.17661e-05,-1.85669e-05,3.56771e-05,0.00835321,-0.00371337,0.00713543,0,0,0,0,0.0227752,0.502581,-1.00912,30.6875,3,42441,4291243
137,1,-0.684693,-0.07259,9.79094,0.0529225,-0.627207,1.00615,-0.00685051,-0.000734567,0.097909,1,4.17661e-05,-1.85669e-05,3.56771e-05,0.00835321,-0.00371337,0.00713543,0,0,0,0,0.0227752,0.502581,-1.00912,30.6875,3,42441,4291243
137,2,-0.679125,-0.0785322,9.78913,0.0612378,-0.636681,1.00547,-0.0067908,-0.000795749,0.0978912,1,5.13921e-05,2.09596e-06,2.69006e-05,0.0102784,0.000419192,0.00538012,0,0,0,0,0.0223268,0.502079,-1.00812,30.6875,3,42442,4291343
137,3,-0.679125,-0.0785322,9.78913,0.0612378,-0.636681,1.00547,-0.0067908,-0.000795749,0.0978912,1,5.13921e-05,2.09596e-06,2.69006e-05,0.0102784,0.000419192,0.00538012,0,0,0,0,0.0223268,0.502079,-1.00812,30.6875,3,42442,4291343
137,4,-0.678934,-0.0882196,9.786,0.0582534,-0.642076,0.996152,-0.0067906,-0.000890472,0.0978598,1,4.11868e-05,-6.54918e-06,1.58288e-05,0.00823735,-0.00130984,0.00316577,0,0,0,0,0.0236923,0.503088,-1.01063,30.6875,3,42443,4291443
138,1,-0.678934,-0.0882196,9.786,0.0582534,-0.642076,0.996152,-0.0067906,-0.000890472,0.0978598,1,4.11868e-05,-6.54918e-06,1.58288e-05,0.00823735,-0.00130984,0.00316577,0,0,0,0,0.0236923,0.503088,-1.01063,30.6875,3,42443,4291443
138,2,-0.679965,-0.0807857,9.78777,0.0594564,-0.635066,0.997467,-0.00680061,-0.000814894,0.0978776,1,3.45372e-05,-5.08516e-06,2.02766e-05,0.00690744,-0.00101703,0.00405532,0,0,0,0,0.0250783,0.5036,-1.01264,30.6875,3,42444,4291543
138,3,-0.679965,-0.0807857,9.78777,0.0594564,-0.635066,0.997467,-0.00680061,-0.000814894,0.0978776,1,3.45372e-05,-5.08516e-06,2.02766e-05,0.00690744,-0.00101703,0.00405532,0,0,0,0,0.0250783,0.5036,-1.01264,30.6875,3,42444,4291543
138,4,-0.678249,-0.0827669,9.78876,0.0654791,-0.63618,0.999645,-0.00678314,-0.000835894,0.0978875,1,4.04698e-05,-3.51512e-06,2.22938e-05,0.00809395,-0.000703024,0.00445876,0,0,0,0,0.0235936,0.50316,-1.01467,30.6875,3,42445,4291643
139,1,-0.678249,-0.0827669,9.78876,0.0654791,-0.63618,0.999645,-0.00678314,-0.000835894,0.0978875,1,4.04698e-05,-3.51512e-06,2.22938e-05,0.00809395,-0.000703024,0.00445876,0,0,0,0,0.0235936,0.50316,-1.01467,30.6875,3,42445,4291643
139,2,-0.675871,-0.0812988,9.78198,0.0649618,-0.635051,0.991425,-0.00676267,-0.000822212,0.0978194,1,4.55899e-05,-2.04166e-05,2.25755e-05,0.00911798,-0.00408333,0.00451511,0,0,0,0,0.0226846,0.502165,-1.01317,30.6875,3,42446,4291743
139,3,-0.675871,-0.0812988,9.78198,0.0649618,-0.635051,0.991425,-0.00676267,-0.000822212,0.0978194,1,4.55899e-05,-2.04166e-05,2.25755e-05,0.00911798,-0.00408333,0.00451511,0,0,0,0,0.0226846,0.502165,-1.01317,30.6875,3,42446,4291743
139,4,-0.675706,-0.0960516,9.79202,0.0667926,-0.651968,1.00395,-0.00675805,-0.000970651,0.0979201,1,4.99582e-05,-5.31937e-06,2.59426e-05,0.00999165,-0.00106387,0.00518852,0,0,0,0,0.0218167,0.501622,-1.00964,30.6875,3,42447,4291843
140,1,-0.675706,-0.0960516,9.79202,0.0667926,-0.651968,1.00395,-0.00675805,-0.000970651,0.0979201,1,4.99582e-05,-5.31937e-06,2.59426e-05,0.00999165,-0.00106387,0.00518852,0,0,0,0,0.0218167,0.501622,-1.00964,30.6875,3,42447,4291843
140,2,-0.675679,-0.0773667,9.78946,0.0662372,-0.627828,1.00413,-0.00675619,-0.000779839,0.0978946,1,3.03258e-05,2.97069e-06,1.73077e-05,0.00606515,0.000594138,0.00346154,0,0,0,0,0.0228203,0.502066,-1.00762,30.6875,3,42448,4291943
140,3,-0.675679,-0.0773667,9.78946,0.0662372,-0.627828,1.00413,-0.00675619,-0.000779839,0.0978946,1,3.03258e-05,2.97069e-06,1.73077e-05,0.00606515,0.000594138,0.00346154,0,0,0,0,0.0228203,0.502066,-1.00762,30.6875,3,42448,4291943
140,4,-0.668698,-0.0778637,9.78908,0.0681511,-0.63649,1.00012,-0.00668855,-0.000786809,0.0978907,1,4.01271e-05,-8.19947e-06,2.36609e-05,0.00802542,-0.00163989,0.00473219,0,0,0,0,0.0237175,0.504515,-1.00858,30.6875,3,42449,4292043
140,5,-0.668698,-0.0778637,9.78908,0.0681511,-0.63649,1.00012,-0.00668855,-0.000786809,0.0978907,1,4.01271e-05,-8.19947e-06,2.36609e-05,0.00802542,-0.00163989,0.00473219,0,0,0,0,0.0237175,0.504515,-1.00858,30.6875,3,42449,4292043
140,6,-0.665091,-0.0772335,9.79346,0.0802281,-0.634746,1.00624,-0.00665163,-0.000781313,0.0979345,1,4.44985e-05,-3.80526e-06,1.97536e-05,0.0088997,-0.000761053,0.00395072,0,0,0,0,0.0245976,0.505049,-1.0116,30.6875,3,42450,4292143
141,1,-0.665091,-0.0772335,9.79346,0.0802281,-0.634746,1.00624,-0.00665163,-0.000781313,0.0979345,1,4.44985e-05,-3.80526e-06,1.97536e-05,0.0088997,-0.000761053,0.00395072,0,0,0,0,0.0245976,0.505049,-1.0116,30.6875,3,42450,4292143
141,2,-0.668049,-0.0863507,9.78391,0.0702186,-0.644627,0.996685,-0.00668219,-0.000872962,0.0978389,1,4.67468e-05,-8.88856e-06,2.29813e-05,0.00934936,-0.00177771,0.00459627,0,0,0,0,0.0230921,0.503661,-1.01516,30.6875,3,42451,4292243
141,3,-0.668049,-0.0863507,9.78391,0.0702186,-0.644627,0.996685,-0.00668219,-0.000872962,0.0978389,1,4.67468e-05,-8.88856e-06,2.29813e-05,0.00934936,-0.00177771,0.00459627,0,0,0,0,0.0230921,0.503661,-1.01516,30.6875,3,42451,4292243
141,4,-0.680397,-0.0831085,9.78843,0.0601405,-0.638623,0.998713,-0.00680297,-0.00084015,0.0978843,1,4.54225e-05,5.03487e-06,1.27143e-05,0.00908449,0.00100697,0.00254286,0,0,0,0,0.0236748,0.499727,-1.01373,30.6875,3,42452,4292343
142,1,-0.680397,-0.0831085,9.78843,0.0601405,-0.638623,0.998713,-0.00680297,-0.00084015,0.0978843,1,4.54225e-05,5.03487e-06,1.27143e-05,0.00908449,0.00100697,0.00254286,0,0,0,0,0.0236748,0.499727,-1.01373,30.6875,3,42452,4292343
142,2,-0.685678,-0.080665,9.79121,0.0592524,-0.63839,1.00373,-0.00686031,-0.000816973,0.0979117,1,5.16827e-05,-1.81739e-05,1.47431e-05,0.0103365,-0.00363479,0.00294862,0,0,0,0,0.0232677,0.499677,-1.0107,30.6875,3,42453,4292443
142,3,-0.685678,-0.080665,9.79121,0.0592524,-0.63839,1.00373,-0.00686031,-0.000816973,0.0979117,1,5.16827e-05,-1.81739e-05,1.47431e-05,0.0103365,-0.00363479,0.00294862,0,0,0,0,0.0232677,0.499677,-1.0107,30.6875,3,42453,4292443
142,4,-0.669424,-0.0903148,9.78185,0.073112,-0.647603,0.995691,-0.00669515,-0.000909801,0.0978183,1,3.22685e-05,-4.87846e-06,2.54269e-05,0.0064537,-0.000975693,0.00508538,0,0,0,0,0.0228122,0.502554,-1.00761,30.6875,3,42454,4292543
142,5,-0.669424,-0.0903148,9.78185,0.073112,-0.647603,0.995691,-0.00669515,-0.000909801,0.0978183,1,3.22685e-05,-4.87846e-06,2.54269e-05,0.0064537,-0.000975693,0.00508538,0,0,0,0,0.0228122,0.502554,-1.00761,30.6875,3,42454,4292543
142,6,-0.672155,-0.0849555,9.77785,0.0666632,-0.64194,0.989128,-0.00672311,-0.000859212,0.0977783,1,4.81569e-05,-8.12321e-06,1.78403e-05,0.00963137,-0.00162464,0.00356805,0,0,0,0,0.0236766,0.505509,-1.00957,30.6875,3,42455,4292643
143,1,-0.672155,-0.0849555,9.77785,0.0666632,-0.64194,0.989128,-0.00672311,-0.000859212,0.0977783,1,4.81569e-05,-8.12321e-06,1.78403e-05,0.00963137,-0.00162464,0.00356805,0,0,0,0,0.0236766,0.505509,-1.00957,30.6875,3,42455,4292643
143,2,-0.672707,-0.092789,9.78389,0.068512,-0.649153,0.993907,-0.0067293,-0.000937867,0.0978386,1,4.85592e-05,-1.17476e-05,3.53008e-05,0.00971184,-0.00234952,0.00706016,0,0,0,0,0.0240183,0.50657,-1.01459,30.6875,3,42456,4292743
143,3,-0.672707,-0.092789,9.78389,0.068512,-0.649153,0.993907,-0.0067293,-0.000937867,0.0978386,1,4.85592e-05,-1.17476e-05,3.53008e-05,0.00971184,-0.00234952,0.00706016,0,0,0,0,0.0240183,0.50657,-1.01459,30.6875,3,42456,4292743
143,4,-0.677589,-0.0792067,9.7898,0.0612881,-0.638018,1.00231,-0.00677732,-0.000798395,0.0978979,1,3.12273e-05,-7.43387e-06,1.57634e-05,0.00624546,-0.00148677,0.00315268,0,0,0,0,0.021616,0.504178,-1.01615,30.6875,3,42457,4292843
143,5,-0.677589,-0.0792067,9.7898,0.0612881,-0.638018,1.00231,-0.00677732,-0.000798395,0.0978979,1,3.12273e-05,-7.43387e-06,1.57634e-05,0.00624546,-0.00148677,0.00315268,0,0,0,0,0.021616,0.504178,-1.01615,30.6875,3,42457,4292843
143,6,-0.679961,-0.0845462,9.78503,0.0568237,-0.641098,0.996128,-0.00680211,-0.000850464,0.0978501,1,2.38994e-05,-1.29844e-05,2.38383e-05,0.00477988,-0.00259689,0.00476766,0,0,0,0,0.0212573,0.501202,-1.01319,30.6875,3,42458,4292943
143,7,-0.679961,-0.0845462,9.78503,0.0568237,-0.641098,0.996128,-0.00680211,-0.000850464,0.0978501,1,2.38994e-05,-1.29844e-05,2.38383e-05,0.00477988,-0.00259689,0.00476766,0,0,0,0,0.0212573,0.501202,-1.01319,30.6875,3,42458,4292943
143,8,-0.662387,-0.0958716,9.78377,0.0800059,-0.655775,0.999931,-0.00662327,-0.000967967,0.0978377,1,4.53925e-05,2.77742e-06,2.78934e-05,0.00907849,0.000555484,0.00557869,0,0,0,0,0.0223102,0.501609,-1.00914,30.6875,3,42459,4293043
144,1,-0.662387,-0.0958716,9.78377,0.0800059,-0.655775,0.999931,-0.00662327,-0.000967967,0.0978377,1,4.53925e-05,2.77742e-06,2.78934e-05,0.00907849,0.000555484,0.00557869,0,0,0,0,0.0223102,0.501609,-1.00914,30.6875,3,42459,4293043
144,2,-0.683847,-0.0785006,9.7773,0.0583865,-0.635909,0.988844,-0.00683998,-0.000795008,0.0977728,1,4.9997e-05,-7.86615e-06,1.64659e-05,0.00999941,-0.00157323,0.00329319,0,0,0,0,0.0223766,0.503488,-1.00506,30.6875,3,42460,4293143
144,3,-0.683847,-0.0785006,9.7773,0.0583865,-0.635909,0.988844,-0.00683998,-0.000795008,0.0977728,1,4.9997e-05,-7.86615e-06,1.64659e-05,0.00999941,-0.00157323,0.00329319,0,0,0,0,0.0223766,0.503488,-1.00506,30.6875,3,42460,4293143
144,4,-0.679255,-0.0881509,9.78533,0.0633173,-0.651437,0.99688,-0.00679422,-0.000891604,0.097853,1,5.07291e-05,-8.64655e-06,1.22861e-05,0.0101458,-0.00172931,0.00245722,0,0,0,0,0.022303,0.504988,-1.00705,30.6875,3,42461,4293243
144,5,-0.679255,-0.0881509,9.78533,0.0633173,-0.651437,0.99688,-0.00679422,-0.000891604,0.097853,1,5.07291e-05,-8.64655e-06,1.22861e-05,0.0101458,-0.00172931,0.00245722,0,0,0,0,0.022303,0.504988,-1.00705,30.6875,3,42461,4293243
144,6,-0.683874,-0.0833272,9.79118,0.0585155,-0.642766,1.00154,-0.00684182,-0.000844195,0.0979115,1,5.4259e-05,-1.59103e-05,2.17815e-05,0.0108518,-0.00318207,0.00435631,0,0,0,0,0.0245853,0.505058,-1.0121,30.6875,3,42462,4293343
144,7,-0.683874,-0.0833272,9.79118,0.0585155,-0.642766,1.00154,-0.00684182,-0.000844195,0.0979115,1,5.4259e-05,-1.59103e-05,2.17815e-05,0.0108518,-0.00318207,0.00435631,0,0,0,0,0.0245853,0.505058,-1.0121,30.6875,3,42462,4293343
144,8,-0.664674,-0.0719589,9.78876,0.0759842,-0.635164,0.995712,-0.00664791,-0.000729029,0.0978875,1,4.6462e-05,-6.16407e-06,2.5855e-05,0.00929239,-0.00123281,0.005171,0,0,0,0,0.0231045,0.503652,-1.01465,30.6875,3,42463,4293443
144,9,-0.664674,-0.0719589,9.78876,0.0759842,-0.635164,0.995712,-0.00664791,-0.000729029,0.0978875,1,4.6462e-05,-6.16407e-06,2.5855e-05,0.00929239,-0.00123281,0.005171,0,0,0,0,0.0231045,0.503652,-1.01465,30.6875,3,42463,4293443
144,10,-0.672249,-0.074938,9.78845,0.0728541,-0.637194,0.999442,-0.00672408,-0.000756271,0.0978843,1,3.33971e-05,-8.34459e-06,2.62094e-05,0.00667942,-0.00166892,0.00524189,0,0,0,0,0.0212735,0.500226,-1.01321,30.6875,3,42464,4293543
145,1,-0.672249,-0.074938,9.78845,0.0728541,-0.637194,0.999442,-0.00672408,-0.000756271,0.0978843,1,3.33971e-05,-8.34459e-06,2.62094e-05,0.00667942,-0.00166892,0.00524189,0,0,0,0,0.0212735,0.500226,-1.01321,30.6875,3,42464,4293543
145,2,-0.664624,-0.0796294,9.78429,0.0758552,-0.643314,0.995658,-0.00664929,-0.000802953,0.0978426,1,3.27379e-05,-1.57393e-05,1.90548e-05,0.00654758,-0.00314785,0.00381097,0,0,0,0,0.0222974,0.500173,-1.01069,30.6875,3,42465,4293643
145,3,-0.664624,-0.0796294,9.78429,0.0758552,-0.643314,0.995658,-0.00664929,-0.000802953,0.0978426,1,3.27379e-05,-1.57393e-05,1.90548e-05,0.00654758,-0.00314785,0.00381097,0,0,0,0,0.0222974,0.500173,-1.01069,30.6875,3,42465,4293643
145,4,-0.6819,-0.0858904,9.79521,0.0608527,-0.648825,1.00932,-0.0068207,-0.000867878,0.0979519,1,4.45153e-05,-8.87204e-06,1.85724e-05,0.00890307,-0.00177441,0.00371448,0,0,0,0,0.0232852,0.503038,-1.0076,30.6875,3,42466,4293743
146,1,-0.6819,-0.0858904,9.79521,0.0608527,-0.648825,1.00932,-0.0068207,-0.000867878,0.0979519,1,4.45153e-05,-8.87204e-06,1.85724e-05,0.00890307,-0.00177441,0.00371448,0,0,0,0,0.0232852,0.503038,-1.0076,30.6875,3,42466,4293743
146,2,-0.671612,-0.0833119,9.77818,0.071694,-0.647824,0.989821,-0.00671607,-0.000841062,0.0977818,1,3.85772e-05,-1.28658e-08,2.96925e-05,0.00771544,-2.57316e-06,0.0059385,0,0,0,0,0.0232159,0.505016,-1.00907,30.6875,3,42467,4293843
146,3,-0.671612,-0.0833119,9.77818,0.071694,-0.647824,0.989821,-0.00671607,-0.000841062,0.0977818,1,3.85772e-05,-1.28658e-08,2.96925e-05,0.00771544,-2.57316e-06,0.0059385,0,0,0,0,0.0232159,0.505016,-1.00907,30.6875,3,42467,4293843
146,4,-0.674073,-0.0803401,9.78808,0.0652651,-0.639263,0.996077,-0.0067441,-0.000812221,0.0978805,1,4.32041e-05,-1.74681e-05,2.68592e-05,0.00864082,-0.00349361,0.00537183,0,0,0,0,0.0240956,0.504104,-1.01313,30.6875,3,42468,4293943
147,1,-0.674073,-0.0803401,9.78808,0.0652651,-0.639263,0.996077,-0.0067441,-0.000812221,0.0978805,1,4.32041e-05,-1.74681e-05,2.68592e-05,0.00864082,-0.00349361,0.00537183,0,0,0,0,0.0240956,0.504104,-1.01313,30.6875,3,42468,4293943
147,2,-0.66571,-0.0850012,9.78356,0.0745027,-0.647864,0.993022,-0.00665939,-0.00085918,0.0978354,1,4.56943e-05,-1.18373e-05,1.70826e-05,0.00913886,-0.00236745,0.00341651,0,0,0,0,0.0240212,0.502713,-1.0172,30.6875,3,42469,4294043
148,1,-0.66571,-0.0850012,9.78356,0.0745027,-0.647864,0.993022,-0.00665939,-0.00085918,0.0978354,1,4.56943e-05,-1.18373e-05,1.70826e-05,0.00913886,-0.00236745,0.00341651,0,0,0,0,0.0240212,0.502713,-1.0172,30.6875,3,42469,4294043
148,2,-0.680835,-0.0728648,9.78004,0.0586242,-0.63804,0.994475,-0.00680806,-0.000736482,0.0978003,1,3.90839e-05,1.35237e-06,1.39362e-05,0.00781679,0.000270474,0.00278724,0,0,0,0,0.0231652,0.500716,-1.01422,30.6875,3,42470,4294143
148,3,-0.680835,-0.0728648,9.78004,0.0586242,-0.63804,0.994475,-0.00680806,-0.000736482,0.0978003,1,3.90839e-05,1.35237e-06,1.39362e-05,0.00781679,0.000270474,0.00278724,0,0,0,0,0.0231652,0.500716,-1.01422,30.6875,3,42470,4294143
148,4,-0.677554,-0.0809681,9.79996,0.0641139,-0.645372,1.01368,-0.00677682,-0.000815328,0.0979995,1,2.7269e-05,-6.74853e-06,2.23183e-05,0.0054538,-0.00134971,0.00446366,0,0,0,0,0.0213807,0.501112,-1.00814,30.6875,3,42471,4294243
148,5,-0.677554,-0.0809681,9.79996,0.0641139,-0.645372,1.01368,-0.00677682,-0.000815328,0.0979995,1,2.7269e-05,-6.74853e-06,2.23183e-05,0.0054538,-0.00134971,0.00446366,0,0,0,0,0.0213807,0.501112,-1.00814,30.6875,3,42471,4294243
148,6,-0.677299,-0.0798803,9.78844,0.0668001,-0.643472,0.999466,-0.00677285,-0.00080994,0.0978843,1,5.61048e-05,5.92122e-07,1.13414e-05,0.011221,0.000118424,0.00226828,0,0,0,0,0.0223396,0.503515,-1.00657,30.6875,3,42472,4294343
148,7,-0.677299,-0.0798803,9.78844,0.0668001,-0.643472,0.999466,-0.00677285,-0.00080994,0.0978843,1,5.61048e-05,5.92122e-07,1.13414e-05,0.011221,0.000118424,0.00226828,0,0,0,0,0.0223396,0.503515,-1.00657,30.6875,3,42472,4294343
148,8,-0.6755,-0.0828073,9.78501,0.0673748,-0.645013,0.99367,-0.00675803,-0.00083538,0.0978498,1,3.62639e-05,-1.56089e-05,1.55419e-05,0.00725277,-0.00312179,0.00310837,0,0,0,0,0.0251243,0.505975,-1.00906,30.6875,3,42473,4294443
149,1,-0.6755,-0.0828073,9.78501,0.0673748,-0.645013,0.99367,-0.00675803,-0.00083538,0.0978498,1,3.62639e-05,-1.56089e-05,1.55419e-05,0.00725277,-0.00312179,0.00310837,0,0,0,0,0.0251243,0.505975,-1.00906,30.6875,3,42473,4294443
149,2,-0.677558,-0.0843185,9.78772,0.065312,-0.649707,0.995337,-0.00677749,-0.000853487,0.097877,1,5.15617e-05,-9.937e-06,1.53688e-05,0.0103123,-0.0019874,0.00307376,0,0,0,0,0.0255024,0.505565,-1.01361,30.6875,3,42474,4294543
149,3,-0.677558,-0.0843185,9.78772,0.065312,-0.649707,0.995337,-0.00677749,-0.000853487,0.097877,1,5.15617e-05,-9.937e-06,1.53688e-05,0.0103123,-0.0019874,0.00307376,0,0,0,0,0.0255024,0.505565,-1.01361,30.6875,3,42474,4294543
149,4,-0.678859,-0.0876687,9.79449,0.0612302,-0.654374,1.00762,-0.00678947,-0.000884347,0.0979448,1,3.74653e-05,-4.68088e-06,2.36145e-05,0.00749307,-0.000936176,0.0047229,0,0,0,0,0.0225536,0.504188,-1.01717,30.6875,3,42475,4294643
149,5,-0.678859,-0.0876687,9.79449,0.0612302,-0.654374,1.00762,-0.00678947,-0.000884347,0.0979448,1,3.74653e-05,-4.68088e-06,2.36145e-05,0.00749307,-0.000936176,0.0047229,0,0,0,0,0.0225536,0.504188,-1.01717,30.6875,3,42475,4294643
149,6,-0.679644,-0.0855693,9.79315,0.0578984,-0.653265,1.00482,-0.00679668,-0.000863838,0.0979314,1,4.07137e-05,-1.30187e-06,1.26101e-05,0.00814274,-0.000260374,0.00252203,0,0,0,0,0.0216934,0.501713,-1.01469,30.6875,3,42476,4294743
