frame_id,imu_idx,accel_x,accel_y,accel_z,free_accel_x,free_accel_y,free_accel_z,delta_v_x,delta_v_y,delta_v_z,delta_q_w,delta_q_x,delta_q_y,delta_q_z,rate_x,rate_y,rate_z,quat_w,quat_x,quat_y,quat_z,mag_x,mag_y,mag_z,temperature,status_byte,packet_counter,time_fine
191,1,-0.68554,-0.0324275,9.78778,-0.144885,-1.78249,0.931869,-0.00686015,-0.000333879,0.0978775,1,4.79314e-05,-2.43335e-05,1.61418e-05,0.00958629,-0.00486669,0.00322837,0,0,0,0,0.0354856,0.307306,-1.11908,33.4375,3,6386,33603079
191,2,-0.506582,-0.0473178,7.3413,-0.144885,-1.78249,0.931869,-0.00507067,-0.000479509,0.0734126,1,4.20546e-05,-3.31515e-05,1.54508e-05,0.00841092,-0.00663031,0.00309017,0,0,0,0,0.0453732,0.521331,-0.976485,33.5,1,41922,37158186
1,1,-0.506582,-0.0473178,7.3413,-0.144885,-1.78249,0.931869,-0.00507067,-0.000479509,0.0734126,1,4.20546e-05,-3.31515e-05,1.54508e-05,0.00841092,-0.00663031,0.00309017,0,0,0,0,0.0453732,0.521331,-0.976485,33.5,1,41922,37158186
1,2,-0.689189,-0.0862269,9.79914,0.0768937,-0.531826,0.991128,-0.00689459,-0.000870025,0.0979912,1,3.70035e-05,-1.40648e-05,3.65617e-05,0.0074007,-0.00281296,0.00731233,0,0,0,0,0.046715,0.525248,-0.977919,33.5,1,41923,37158286
2,1,-0.689189,-0.0862269,9.79914,0.0768937,-0.531826,0.991128,-0.00689459,-0.000870025,0.0979912,1,3.70035e-05,-1.40648e-05,3.65617e-05,0.0074007,-0.00281296,0.00731233,0,0,0,0,0.046715,0.525248,-0.977919,33.5,1,41923,37158286
2,2,-0.679196,-0.0849918,9.78992,0.0881938,-0.531591,0.984893,-0.00679346,-0.000858438,0.097899,1,4.25334e-05,-7.78247e-06,1.40947e-05,0.00850668,-0.00155649,0.00281894,0,0,0,0,0.0489403,0.527287,-0.983945,33.5,1,41924,37158386
3,1,-0.679196,-0.0849918,9.78992,0.0881938,-0.531591,0.984893,-0.00679346,-0.000858438,0.097899,1,4.25334e-05,-7.78247e-06,1.40947e-05,0.00850668,-0.00155649,0.00281894,0,0,0,0,0.0489403,0.527287,-0.983945,33.5,1,41924,37158386
3,2,-0.688465,-0.0717203,9.78942,0.0712103,-0.522409,0.989044,-0.00688542,-0.000726517,0.0978941,1,4.68269e-05,-4.01035e-06,1.05871e-05,0.00936539,-0.000802069,0.00211742,0,0,0,0,0.0478623,0.525452,-0.990041,33.5,1,41925,37158486
7,1,-0.688465,-0.0717203,9.78942,0.0712103,-0.522409,0.989044,-0.00688542,-0.000726517,0.0978941,1,4.68269e-05,-4.01035e-06,1.05871e-05,0.00936539,-0.000802069,0.00211742,0,0,0,0,0.0478623,0.525452,-0.990041,33.5,1,41925,37158486
7,2,-0.683689,-0.0805941,9.79168,0.0831982,-0.529429,0.989673,-0.00683769,-0.000813652,0.0979167,1,3.86349e-05,-4.16306e-06,1.06043e-05,0.00772698,-0.000832613,0.00212086,0,0,0,0,0.0474215,0.523017,-0.990093,33.5,1,41926,37158586
8,1,-0.683689,-0.0805941,9.79168,0.0831982,-0.529429,0.989673,-0.00683769,-0.000813652,0.0979167,1,3.86349e-05,-4.16306e-06,1.06043e-05,0.00772698,-0.000832613,0.00212086,0,0,0,0,0.0474215,0.523017,-0.990093,33.5,1,41926,37158586
8,2,-0.680182,-0.0754921,9.79035,0.0851353,-0.527602,0.99767,-0.00680372,-0.000763197,0.0979033,1,4.19524e-05,-9.76592e-06,4.50548e-06,0.00839048,-0.00195319,0.000901095,0,0,0,0,0.0450895,0.521538,-0.988095,33.5,1,41927,37158686
9,1,-0.680182,-0.0754921,9.79035,0.0851353,-0.527602,0.99767,-0.00680372,-0.000763197,0.0979033,1,4.19524e-05,-9.76592e-06,4.50548e-06,0.00839048,-0.00195319,0.000901095,0,0,0,0,0.0450895,0.521538,-0.988095,33.5,1,41927,37158686
9,2,-0.67652,-0.0743346,9.79406,0.0856304,-0.52585,0.998932,-0.00676742,-0.000753028,0.0979404,1,4.87454e-05,-1.14443e-05,9.87417e-06,0.00974908,-0.00228886,0.00197483,0,0,0,0,0.044773,0.521904,-0.981015,33.5,1,41928,37158786
10,1,-0.67652,-0.0743346,9.79406,0.0856304,-0.52585,0.998932,-0.00676742,-0.000753028,0.0979404,1,4.87454e-05,-1.14443e-05,9.87417e-06,0.00974908,-0.00228886,0.00197483,0,0,0,0,0.044773,0.521904,-0.981015,33.5,1,41928,37158786
10,2,-0.680652,-0.0780597,9.79066,0.0830293,-0.531504,0.991033,-0.00680624,-0.000791014,0.0979066,1,5.21504e-05,1.33762e-06,1.51041e-05,0.0104301,0.000267524,0.00302082,0,0,0,0,0.046698,0.523333,-0.979982,33.5,1,41929,37158886
11,1,-0.680652,-0.0780597,9.79066,0.0830293,-0.531504,0.991033,-0.00680624,-0.000791014,0.0979066,1,5.21504e-05,1.33762e-06,1.51041e-05,0.0104301,0.000267524,0.00302082,0,0,0,0,0.046698,0.523333,-0.979982,33.5,1,41929,37158886
11,2,-0.677496,-0.0783853,9.7937,0.0862916,-0.532994,0.986244,-0.00677531,-0.000793569,0.0979369,1,4.8712e-05,-1.84953e-06,1.28819e-05,0.00974239,-0.000369907,0.00257637,0,0,0,0,0.047533,0.524382,-0.984508,33.5,1,41930,37158986
12,1,-0.677496,-0.0783853,9.7937,0.0862916,-0.532994,0.986244,-0.00677531,-0.000793569,0.0979369,1,4.8712e-05,-1.84953e-06,1.28819e-05,0.00974239,-0.000369907,0.00257637,0,0,0,0,0.047533,0.524382,-0.984508,33.5,1,41930,37158986
12,2,-0.677327,-0.0719037,9.78764,0.0896405,-0.527397,0.983499,-0.00677262,-0.000728577,0.0978764,1,4.75609e-05,3.22639e-06,1.69257e-05,0.00951217,0.000645277,0.00338514,0,0,0,0,0.0483638,0.524952,-0.98955,33.5,1,41931,37159086
10,1,-0.677327,-0.0719037,9.78764,0.0896405,-0.527397,0.983499,-0.00677262,-0.000728577,0.0978764,1,4.75609e-05,3.22639e-06,1.69257e-05,0.00951217,0.000645277,0.00338514,0,0,0,0,0.0483638,0.524952,-0.98955,33.5,1,41931,37159086
10,2,-0.675846,-0.0727677,9.79034,0.0874466,-0.533664,0.985513,-0.00675999,-0.000739932,0.0979032,1,6.09812e-05,-8.02792e-06,2.32719e-05,0.0121962,-0.00160558,0.00465437,0,0,0,0,0.0479103,0.52108,-0.991149,33.5,1,41932,37159186
14,1,-0.675846,-0.0727677,9.79034,0.0874466,-0.533664,0.985513,-0.00675999,-0.000739932,0.0979032,1,6.09812e-05,-8.02792e-06,2.32719e-05,0.0121962,-0.00160558,0.00465437,0,0,0,0,0.0479103,0.52108,-0.991149,33.5,1,41932,37159186
14,2,-0.676592,-0.0725103,9.78254,0.087364,-0.533071,0.986309,-0.00676685,-0.000734208,0.0978253,1,4.54895e-05,-4.86152e-06,1.51544e-05,0.00909791,-0.000972303,0.00303089,0,0,0,0,0.0446573,0.520061,-0.987116,33.5,1,41933,37159286
15,1,-0.676592,-0.0725103,9.78254,0.087364,-0.533071,0.986309,-0.00676685,-0.000734208,0.0978253,1,4.54895e-05,-4.86152e-06,1.51544e-05,0.00909791,-0.000972303,0.00303089,0,0,0,0,0.0446573,0.520061,-0.987116,33.5,1,41933,37159286
15,2,-0.675785,-0.0767336,9.78454,0.0870194,-0.53213,0.9871,-0.00676127,-0.000780479,0.0978451,1,6.53135e-05,-1.77098e-05,2.67051e-05,0.0130627,-0.00354197,0.00534102,0,0,0,0,0.0457718,0.520423,-0.980547,33.5,1,41934,37159386
16,1,-0.675785,-0.0767336,9.78454,0.0870194,-0.53213,0.9871,-0.00676127,-0.000780479,0.0978451,1,6.53135e-05,-1.77098e-05,2.67051e-05,0.0130627,-0.00354197,0.00534102,0,0,0,0,0.0457718,0.520423,-0.980547,33.5,1,41934,37159386
16,2,-0.667672,-0.078346,9.79024,0.102447,-0.540377,0.987566,-0.00667838,-0.000791736,0.0979022,1,4.07062e-05,-8.65175e-06,2.28232e-05,0.00814124,-0.00173035,0.00456463,0,0,0,0,0.0476683,0.522837,-0.979997,33.5,1,41935,37159486
17,1,-0.667672,-0.078346,9.79024,0.102447,-0.540377,0.987566,-0.00667838,-0.000791736,0.0979022,1,4.07062e-05,-8.65175e-06,2.28232e-05,0.00814124,-0.00173035,0.00456463,0,0,0,0,0.0476683,0.522837,-0.979997,33.5,1,41935,37159486
17,2,-0.680434,-0.0871919,9.79093,0.0832092,-0.546807,0.989156,-0.00680693,-0.000883817,0.0979091,1,5.88894e-05,-1.34688e-05,2.69264e-05,0.0117779,-0.00269376,0.00538528,0,0,0,0,0.0489237,0.526817,-0.984965,33.5,1,41936,37159586
18,1,-0.680434,-0.0871919,9.79093,0.0832092,-0.546807,0.989156,-0.00680693,-0.000883817,0.0979091,1,5.88894e-05,-1.34688e-05,2.69264e-05,0.0117779,-0.00269376,0.00538528,0,0,0,0,0.0489237,0.526817,-0.984965,33.5,1,41936,37159586
18,2,-0.672396,-0.0725262,9.78761,0.0927753,-0.53432,0.984076,-0.00672608,-0.00073455,0.0978759,1,4.69257e-05,-1.08778e-05,7.57891e-06,0.00938513,-0.00217556,0.00151578,0,0,0,0,0.0487923,0.527395,-0.990002,33.5,1,41937,37159686
19,1,-0.672396,-0.0725262,9.78761,0.0927753,-0.53432,0.984076,-0.00672608,-0.00073455,0.0978759,1,4.69257e-05,-1.08778e-05,7.57891e-06,0.00938513,-0.00217556,0.00151578,0,0,0,0,0.0487923,0.527395,-0.990002,33.5,1,41937,37159686
19,2,-0.679877,-0.074388,9.79511,0.0781472,-0.544255,0.996045,-0.00680186,-0.000752984,0.0979508,1,4.59459e-05,-1.58099e-05,7.56262e-06,0.00918917,-0.00316199,0.00151252,0,0,0,0,0.0474419,0.522521,-0.9896,33.5,1,41938,37159786
20,1,-0.679877,-0.074388,9.79511,0.0781472,-0.544255,0.996045,-0.00680186,-0.000752984,0.0979508,1,4.59459e-05,-1.58099e-05,7.56262e-06,0.00918917,-0.00316199,0.00151252,0,0,0,0,0.0474419,0.522521,-0.9896,33.5,1,41938,37159786
20,2,-0.678831,-0.0804659,9.78962,0.0800058,-0.547166,0.994307,-0.00679138,-0.000814718,0.0978959,1,5.0852e-05,-1.56983e-05,7.55319e-06,0.0101704,-0.00313967,0.00151064,0,0,0,0,0.0456641,0.518093,-0.986659,33.5,1,41939,37159886
21,1,-0.678831,-0.0804659,9.78962,0.0800058,-0.547166,0.994307,-0.00679138,-0.000814718,0.0978959,1,5.0852e-05,-1.56983e-05,7.55319e-06,0.0101704,-0.00313967,0.00151064,0,0,0,0,0.0456641,0.518093,-0.986659,33.5,1,41939,37159886
21,2,-0.683259,-0.0795214,9.78796,0.079274,-0.541905,0.992666,-0.00683476,-0.00080419,0.0978794,1,4.49531e-05,-1.11666e-05,1.28354e-05,0.00899062,-0.00223332,0.00256708,0,0,0,0,0.0453021,0.517528,-0.982125,33.5,1,41940,37159986
22,1,-0.683259,-0.0795214,9.78796,0.079274,-0.541905,0.992666,-0.00683476,-0.00080419,0.0978794,1,4.49531e-05,-1.11666e-05,1.28354e-05,0.00899062,-0.00223332,0.00256708,0,0,0,0,0.0453021,0.517528,-0.982125,33.5,1,41940,37159986
22,2,-0.678958,-0.0776093,9.78625,0.0847919,-0.541687,0.985502,-0.00678968,-0.000787725,0.0978624,1,5.81406e-05,-6.68693e-07,1.85873e-05,0.0116281,-0.000133739,0.00371745,0,0,0,0,0.0471625,0.522859,-0.981005,33.5,1,41941,37160086
23,1,-0.678958,-0.0776093,9.78625,0.0847919,-0.541687,0.985502,-0.00678968,-0.000787725,0.0978624,1,5.81406e-05,-6.68693e-07,1.85873e-05,0.0116281,-0.000133739,0.00371745,0,0,0,0,0.0471625,0.522859,-0.981005,33.5,1,41941,37160086
23,2,-0.685025,-0.0798402,9.78526,0.073345,-0.547673,0.98098,-0.00685061,-0.000806848,0.0978525,1,4.19785e-05,-1.97437e-06,1.68288e-05,0.0083957,-0.000394874,0.00336577,0,0,0,0,0.0489484,0.526799,-0.983956,33.5,1,41942,37160186
24,1,-0.685025,-0.0798402,9.78526,0.073345,-0.547673,0.98098,-0.00685061,-0.000806848,0.0978525,1,4.19785e-05,-1.97437e-06,1.68288e-05,0.0083957,-0.000394874,0.00336577,0,0,0,0,0.0489484,0.526799,-0.983956,33.5,1,41942,37160186
24,2,-0.668278,-0.0839644,9.79427,0.089444,-0.553655,0.987097,-0.00668496,-0.000847798,0.0979425,1,4.02256e-05,-1.13101e-05,2.05266e-05,0.00804511,-0.00226202,0.00410531,0,0,0,0,0.0483358,0.527381,-0.98899,33.5,1,41943,37160286
25,1,-0.668278,-0.0839644,9.79427,0.089444,-0.553655,0.987097,-0.00668496,-0.000847798,0.0979425,1,4.02256e-05,-1.13101e-05,2.05266e-05,0.00804511,-0.00226202,0.00410531,0,0,0,0,0.0483358,0.527381,-0.98899,33.5,1,41943,37160286
25,2,-0.673487,-0.0761895,9.79674,0.0897457,-0.548168,0.993615,-0.00673474,-0.000767799,0.0979674,1,2.90722e-05,5.30779e-07,1.54767e-05,0.00581443,0.000106156,0.00309534,0,0,0,0,0.0464512,0.523513,-0.990078,33.5,1,41944,37160386
26,1,-0.673487,-0.0761895,9.79674,0.0897457,-0.548168,0.993615,-0.00673474,-0.000767799,0.0979674,1,2.90722e-05,5.30779e-07,1.54767e-05,0.00581443,0.000106156,0.00309534,0,0,0,0,0.0464512,0.523513,-0.990078,33.5,1,41944,37160386
26,2,-0.679218,-0.0730332,9.78935,0.0791609,-0.548926,0.994721,-0.00679446,-0.000738243,0.0978933,1,3.89087e-05,-1.18056e-05,2.15937e-05,0.00778175,-0.00236112,0.00431873,0,0,0,0,0.0441311,0.52058,-0.988617,33.5,1,41945,37160486
27,1,-0.679218,-0.0730332,9.78935,0.0791609,-0.548926,0.994721,-0.00679446,-0.000738243,0.0978933,1,3.89087e-05,-1.18056e-05,2.15937e-05,0.00778175,-0.00236112,0.00431873,0,0,0,0,0.0441311,0.52058,-0.988617,33.5,1,41945,37160486
27,2,-0.670168,-0.0787189,9.79637,0.0946803,-0.553699,0.999225,-0.00670575,-0.000796004,0.0979633,1,4.44966e-05,-2.08338e-05,7.1917e-06,0.00889933,-0.00416677,0.00143834,0,0,0,0,0.0437857,0.520484,-0.983062,33.5,1,41946,37160586
28,1,-0.670168,-0.0787189,9.79637,0.0946803,-0.553699,0.999225,-0.00670575,-0.000796004,0.0979633,1,4.44966e-05,-2.08338e-05,7.1917e-06,0.00889933,-0.00416677,0.00143834,0,0,0,0,0.0437857,0.520484,-0.983062,33.5,1,41946,37160586
28,2,-0.683091,-0.0726538,9.78903,0.0775555,-0.544889,0.986468,-0.00682998,-0.000734724,0.0978903,1,4.0805e-05,4.64708e-06,1.44167e-05,0.00816101,0.000929416,0.00288335,0,0,0,0,0.0462083,0.522379,-0.981011,33.5,1,41947,37160686
29,1,-0.683091,-0.0726538,9.78903,0.0775555,-0.544889,0.986468,-0.00682998,-0.000734724,0.0978903,1,4.0805e-05,4.64708e-06,1.44167e-05,0.00816101,0.000929416,0.00288335,0,0,0,0,0.0462083,0.522379,-0.981011,33.5,1,41947,37160686
29,2,-0.682629,-0.0723577,9.78904,0.0769496,-0.549026,0.98582,-0.00682932,-0.000731766,0.0978901,1,3.98157e-05,-1.57115e-05,2.88432e-05,0.00796314,-0.00314231,0.00576865,0,0,0,0,0.0484995,0.524852,-0.983997,33.5,1,41948,37160786
30,1,-0.682629,-0.0723577,9.78904,0.0769496,-0.549026,0.98582,-0.00682932,-0.000731766,0.0978901,1,3.98157e-05,-1.57115e-05,2.88432e-05,0.00796314,-0.00314231,0.00576865,0,0,0,0,0.0484995,0.524852,-0.983997,33.5,1,41948,37160786
30,2,-0.680103,-0.0799074,9.78998,0.0828472,-0.553282,0.982513,-0.00680425,-0.000805718,0.0978995,1,3.33898e-05,-1.65422e-05,7.83791e-06,0.00667796,-0.00330843,0.00156758,0,0,0,0,0.0469001,0.52546,-0.990037,33.5,1,41949,37160886
31,1,-0.680103,-0.0799074,9.78998,0.0828472,-0.553282,0.982513,-0.00680425,-0.000805718,0.0978995,1,3.33898e-05,-1.65422e-05,7.83791e-06,0.00667796,-0.00330843,0.00156758,0,0,0,0,0.0469001,0.52546,-0.990037,33.5,1,41949,37160886
31,2,-0.680237,-0.0808694,9.78522,0.0796091,-0.557597,0.983278,-0.00680354,-0.000817089,0.097852,1,4.16358e-05,-6.11129e-06,1.81085e-05,0.00832715,-0.00122226,0.0036217,0,0,0,0,0.046455,0.522547,-0.990604,33.5,1,41950,37160986
32,1,-0.680237,-0.0808694,9.78522,0.0796091,-0.557597,0.983278,-0.00680354,-0.000817089,0.097852,1,4.16358e-05,-6.11129e-06,1.81085e-05,0.00832715,-0.00122226,0.0036217,0,0,0,0,0.046455,0.522547,-0.990604,33.5,1,41950,37160986
32,2,-0.667416,-0.074934,9.7845,0.0937261,-0.554193,0.988601,-0.006676,-0.000757133,0.0978448,1,3.86051e-05,-9.53118e-06,1.78444e-05,0.00772101,-0.00190624,0.00356887,0,0,0,0,0.0446739,0.520531,-0.986095,33.5,1,41951,37161086
33,1,-0.667416,-0.074934,9.7845,0.0937261,-0.554193,0.988601,-0.006676,-0.000757133,0.0978448,1,3.86051e-05,-9.53118e-06,1.78444e-05,0.00772101,-0.00190624,0.00356887,0,0,0,0,0.0446739,0.520531,-0.986095,33.5,1,41951,37161086
33,2,-0.68759,-0.079911,9.79342,0.0700483,-0.558664,0.995434,-0.00687832,-0.000807307,0.097934,1,4.08571e-05,-1.24762e-05,1.41448e-05,0.00817143,-0.00249524,0.00282895,0,0,0,0,0.0438108,0.521912,-0.98101,33.5,1,41952,37161186
34,1,-0.68759,-0.079911,9.79342,0.0700483,-0.558664,0.995434,-0.00687832,-0.000807307,0.097934,1,4.08571e-05,-1.24762e-05,1.41448e-05,0.00817143,-0.00249524,0.00282895,0,0,0,0,0.0438108,0.521912,-0.98101,33.5,1,41952,37161186
34,2,-0.684287,-0.0881966,9.78891,0.079722,-0.563166,0.984637,-0.00684378,-0.000888996,0.0978889,1,3.36821e-05,-4.93996e-06,3.18811e-05,0.00673642,-0.000987991,0.00637621,0,0,0,0,0.0476156,0.525285,-0.980448,33.5,1,41953,37161286
35,1,-0.684287,-0.0881966,9.78891,0.079722,-0.563166,0.984637,-0.00684378,-0.000888996,0.0978889,1,3.36821e-05,-4.93996e-06,3.18811e-05,0.00673642,-0.000987991,0.00637621,0,0,0,0,0.0476156,0.525285,-0.980448,33.5,1,41953,37161286
35,2,-0.674793,-0.0711823,9.79443,0.0939822,-0.546006,0.986797,-0.00675008,-0.000716984,0.0979441,1,2.57845e-05,-1.10291e-05,8.13788e-06,0.0051569,-0.00220581,0.00162758,0,0,0,0,0.0499391,0.525807,-0.983477,33.5,1,41954,37161386
36,1,-0.674793,-0.0711823,9.79443,0.0939822,-0.546006,0.986797,-0.00675008,-0.000716984,0.0979441,1,2.57845e-05,-1.10291e-05,8.13788e-06,0.0051569,-0.00220581,0.00162758,0,0,0,0,0.0499391,0.525807,-0.983477,33.5,1,41954,37161386
36,2,-0.678507,-0.0769771,9.79033,0.0802197,-0.560776,0.98586,-0.00678754,-0.000779981,0.097903,1,5.06229e-05,-1.2772e-05,2.19608e-05,0.0101246,-0.00255441,0.00439215,0,0,0,0,0.0483349,0.524491,-0.991075,33.5,1,41955,37161486
37,1,-0.678507,-0.0769771,9.79033,0.0802197,-0.560776,0.98586,-0.00678754,-0.000779981,0.097903,1,5.06229e-05,-1.2772e-05,2.19608e-05,0.0101246,-0.00255441,0.00439215,0,0,0,0,0.0483349,0.524491,-0.991075,33.5,1,41955,37161486
37,2,-0.671508,-0.0735566,9.78556,0.0865628,-0.556974,0.984302,-0.0067153,-0.000745219,0.0978555,1,4.83338e-05,-1.20137e-06,1.44336e-05,0.00966676,-0.000240274,0.00288672,0,0,0,0,0.0464176,0.521128,-0.993161,33.5,1,41956,37161586
38,1,-0.671508,-0.0735566,9.78556,0.0865628,-0.556974,0.984302,-0.0067153,-0.000745219,0.0978555,1,4.83338e-05,-1.20137e-06,1.44336e-05,0.00966676,-0.000240274,0.00288672,0,0,0,0,0.0464176,0.521128,-0.993161,33.5,1,41956,37161586
38,2,-0.67523,-0.0699144,9.78901,0.0843621,-0.554342,0.993033,-0.00675406,-0.000706548,0.0978899,1,3.6124e-05,-9.1698e-06,2.45573e-05,0.00722481,-0.00183396,0.00491145,0,0,0,0,0.0437401,0.519554,-0.985608,33.5,1,41957,37161686
39,1,-0.67523,-0.0699144,9.78901,0.0843621,-0.554342,0.993033,-0.00675406,-0.000706548,0.0978899,1,3.6124e-05,-9.1698e-06,2.45573e-05,0.00722481,-0.00183396,0.00491145,0,0,0,0,0.0437401,0.519554,-0.985608,33.5,1,41957,37161686
39,2,-0.68727,-0.0860902,9.79098,0.0752437,-0.567672,0.994264,-0.00687503,-0.000868457,0.0979096,1,3.79011e-05,-1.19898e-05,9.66164e-06,0.00758022,-0.00239795,0.00193233,0,0,0,0,0.0453154,0.520409,-0.979535,33.5,1,41958,37161786
40,1,-0.68727,-0.0860902,9.79098,0.0752437,-0.567672,0.994264,-0.00687503,-0.000868457,0.0979096,1,3.79011e-05,-1.19898e-05,9.66164e-06,0.00758022,-0.00239795,0.00193233,0,0,0,0,0.0453154,0.520409,-0.979535,33.5,1,41958,37161786
40,2,-0.668107,-0.0727385,9.79164,0.0881597,-0.558367,0.989886,-0.00668022,-0.000738329,0.0979164,1,5.49965e-05,4.27294e-06,1.2988e-05,0.0109993,0.000854588,0.00259759,0,0,0,0,0.0471753,0.524295,-0.979458,33.5,1,41959,37161886
41,1,-0.668107,-0.0727385,9.79164,0.0881597,-0.558367,0.989886,-0.00668022,-0.000738329,0.0979164,1,5.49965e-05,4.27294e-06,1.2988e-05,0.0109993,0.000854588,0.00259759,0,0,0,0,0.0471753,0.524295,-0.979458,33.5,1,41959,37161886
41,2,-0.679895,-0.0682281,9.79448,0.0789618,-0.551044,0.984332,-0.00680209,-0.000690982,0.0979445,1,4.35785e-05,-1.60913e-05,1.207e-05,0.00871569,-0.00321826,0.002414,0,0,0,0,0.0499187,0.526304,-0.983971,33.5,1,41960,37161986
42,1,-0.679895,-0.0682281,9.79448,0.0789618,-0.551044,0.984332,-0.00680209,-0.000690982,0.0979445,1,4.35785e-05,-1.60913e-05,1.207e-05,0.00871569,-0.00321826,0.002414,0,0,0,0,0.0499187,0.526304,-0.983971,33.5,1,41960,37161986
42,2,-0.685548,-0.0801245,9.78866,0.0734509,-0.568911,0.983992,-0.00685803,-0.000811587,0.0978863,1,5.13216e-05,-1.31668e-05,2.14703e-05,0.0102643,-0.00263336,0.00429407,0,0,0,0,0.0511974,0.52593,-0.991056,33.5,1,41961,37162086
43,1,-0.685548,-0.0801245,9.78866,0.0734509,-0.568911,0.983992,-0.00685803,-0.000811587,0.0978863,1,5.13216e-05,-1.31668e-05,2.14703e-05,0.0102643,-0.00263336,0.00429407,0,0,0,0,0.0511974,0.52593,-0.991056,33.5,1,41961,37162086
43,2,-0.67685,-0.0712754,9.78697,0.0780725,-0.562751,0.984065,-0.00677039,-0.000720589,0.0978695,1,3.84451e-05,-9.79757e-06,2.29215e-05,0.00768902,-0.00195952,0.00458431,0,0,0,0,0.0484161,0.521058,-0.990142,33.5,1,41962,37162186
44,1,-0.67685,-0.0712754,9.78697,0.0780725,-0.562751,0.984065,-0.00677039,-0.000720589,0.0978695,1,3.84451e-05,-9.79757e-06,2.29215e-05,0.00768902,-0.00195952,0.00458431,0,0,0,0,0.0484161,0.521058,-0.990142,33.5,1,41962,37162186
44,2,-0.680939,-0.0737096,9.78528,0.0758236,-0.564475,0.984697,-0.00681177,-0.000745104,0.0978526,1,4.05032e-05,-1.22059e-05,5.96602e-06,0.00810064,-0.00244119,0.0011932,0,0,0,0,0.0457135,0.518057,-0.98464,33.5,1,41963,37162286
45,1,-0.680939,-0.0737096,9.78528,0.0758236,-0.564475,0.984697,-0.00681177,-0.000745104,0.0978526,1,4.05032e-05,-1.22059e-05,5.96602e-06,0.00810064,-0.00244119,0.0011932,0,0,0,0,0.0457135,0.518057,-0.98464,33.5,1,41963,37162286
45,2,-0.686003,-0.0710799,9.79145,0.0749623,-0.557068,0.990088,-0.00686236,-0.000719422,0.0979143,1,4.31743e-05,-1.19749e-05,1.22524e-05,0.00863486,-0.00239498,0.00245048,0,0,0,0,0.0458045,0.519918,-0.979549,33.5,1,41964,37162386
46,1,-0.686003,-0.0710799,9.79145,0.0749623,-0.557068,0.990088,-0.00686236,-0.000719422,0.0979143,1,4.31743e-05,-1.19749e-05,1.22524e-05,0.00863486,-0.00239498,0.00245048,0,0,0,0,0.0458045,0.519918,-0.979549,33.5,1,41964,37162386
46,2,-0.664531,-0.078022,9.78819,0.0934301,-0.565623,0.981899,-0.00664813,-0.000788393,0.0978816,1,4.13862e-05,-1.44614e-05,5.36807e-06,0.00827723,-0.00289229,0.00107361,0,0,0,0,0.0467022,0.523812,-0.979466,33.5,1,41965,37162486
47,1,-0.664531,-0.078022,9.78819,0.0934301,-0.565623,0.981899,-0.00664813,-0.000788393,0.0978816,1,4.13862e-05,-1.44614e-05,5.36807e-06,0.00827723,-0.00289229,0.00107361,0,0,0,0,0.0467022,0.523812,-0.979466,33.5,1,41965,37162486
47,2,-0.673151,-0.0775171,9.78554,0.0826678,-0.5691,0.975048,-0.00673219,-0.000786433,0.0978552,1,5.64233e-05,-3.58355e-06,1.62683e-05,0.0112847,-0.000716711,0.00325366,0,0,0,0,0.0513539,0.526779,-0.983967,33.5,1,41966,37162586
48,1,-0.673151,-0.0775171,9.78554,0.0826678,-0.5691,0.975048,-0.00673219,-0.000786433,0.0978552,1,5.64233e-05,-3.58355e-06,1.62683e-05,0.0112847,-0.000716711,0.00325366,0,0,0,0,0.0513539,0.526779,-0.983967,33.5,1,41966,37162586
48,2,-0.673674,-0.0726155,9.80017,0.0845317,-0.56683,0.988869,-0.00673939,-0.000735894,0.0980015,1,4.84083e-05,-1.36607e-05,1.86097e-05,0.00968165,-0.00273215,0.00372193,0,0,0,0,0.0516994,0.526875,-0.989522,33.5,1,41967,37162686
49,1,-0.673674,-0.0726155,9.80017,0.0845317,-0.56683,0.988869,-0.00673939,-0.000735894,0.0980015,1,4.84083e-05,-1.36607e-05,1.86097e-05,0.00968165,-0.00273215,0.00372193,0,0,0,0,0.0516994,0.526875,-0.989522,33.5,1,41967,37162686
49,2,-0.677156,-0.0740795,9.78323,0.0760035,-0.57294,0.98469,-0.00677505,-0.00074717,0.097832,1,3.15383e-05,-1.79784e-05,1.50222e-05,0.00630765,-0.00359568,0.00300444,0,0,0,0,0.0488568,0.523493,-0.990089,33.5,1,41968,37162786
50,1,-0.677156,-0.0740795,9.78323,0.0760035,-0.57294,0.98469,-0.00677505,-0.00074717,0.097832,1,3.15383e-05,-1.79784e-05,1.50222e-05,0.00630765,-0.00359568,0.00300444,0,0,0,0,0.0488568,0.523493,-0.990089,33.5,1,41968,37162786
50,2,-0.673658,-0.0794536,9.79401,0.0725272,-0.577198,0.993521,-0.00673945,-0.000803318,0.0979398,1,4.31073e-05,-1.4862e-05,2.50786e-05,0.00862145,-0.00297239,0.00501572,0,0,0,0,0.0451593,0.521005,-0.985582,33.5,1,41969,37162886
51,1,-0.673658,-0.0794536,9.79401,0.0725272,-0.577198,0.993521,-0.00673945,-0.000803318,0.0979398,1,4.31073e-05,-1.4862e-05,2.50786e-05,0.00862145,-0.00297239,0.00501572,0,0,0,0,0.0451593,0.521005,-0.985582,33.5,1,41969,37162886
51,2,-0.680762,-0.071285,9.79549,0.0738886,-0.567021,0.997922,-0.00681019,-0.000723312,0.0979546,1,5.18079e-05,-1.326e-05,2.29323e-05,0.0103616,-0.00265201,0.00458646,0,0,0,0,0.0438597,0.52043,-0.980033,33.5,1,41970,37162986
52,1,-0.680762,-0.071285,9.79549,0.0738886,-0.567021,0.997922,-0.00681019,-0.000723312,0.0979546,1,5.18079e-05,-1.326e-05,2.29323e-05,0.0103616,-0.00265201,0.00458646,0,0,0,0,0.0438597,0.52043,-0.980033,33.5,1,41970,37162986
52,2,-0.677815,-0.0834387,9.78314,0.0824782,-0.580319,0.977864,-0.00678064,-0.000842809,0.0978312,1,4.16301e-05,-1.2908e-05,2.0437e-05,0.00832602,-0.0025816,0.0040874,0,0,0,0,0.0457276,0.523829,-0.979966,33.5,1,41971,37163086
53,1,-0.677815,-0.0834387,9.78314,0.0824782,-0.580319,0.977864,-0.00678064,-0.000842809,0.0978312,1,4.16301e-05,-1.2908e-05,2.0437e-05,0.00832602,-0.0025816,0.0040874,0,0,0,0,0.0457276,0.523829,-0.979966,33.5,1,41971,37163086
53,2,-0.676928,-0.0848185,9.78481,0.0780284,-0.580294,0.977041,-0.00676962,-0.000858255,0.097848,1,5.12246e-05,-1.78091e-06,3.31385e-06,0.0102449,-0.000356181,0.000662769,0,0,0,0,0.0484222,0.527318,-0.985457,33.5,1,41972,37163186
54,1,-0.676928,-0.0848185,9.78481,0.0780284,-0.580294,0.977041,-0.00676962,-0.000858255,0.097848,1,5.12246e-05,-1.78091e-06,3.31385e-06,0.0102449,-0.000356181,0.000662769,0,0,0,0,0.0484222,0.527318,-0.985457,33.5,1,41972,37163186
54,2,-0.67645,-0.0767573,9.79541,0.08024,-0.578574,0.986926,-0.00676609,-0.000777189,0.0979539,1,4.82853e-05,-8.21636e-06,1.16023e-05,0.00965706,-0.00164327,0.00232047,0,0,0,0,0.0482865,0.527417,-0.99101,33.5,1,41973,37163286
55,1,-0.67645,-0.0767573,9.79541,0.08024,-0.578574,0.986926,-0.00676609,-0.000777189,0.0979539,1,4.82853e-05,-8.21636e-06,1.16023e-05,0.00965706,-0.00164327,0.00232047,0,0,0,0,0.0482865,0.527417,-0.99101,33.5,1,41973,37163286
55,2,-0.687741,-0.0729993,9.79347,0.0665317,-0.575929,0.993863,-0.00687896,-0.000740247,0.0979346,1,5.1355e-05,-8.04643e-06,1.42195e-05,0.010271,-0.00160929,0.0028439,0,0,0,0,0.0459739,0.522551,-0.990602,33.5,1,41974,37163386
56,1,-0.687741,-0.0729993,9.79347,0.0665317,-0.575929,0.993863,-0.00687896,-0.000740247,0.0979346,1,5.1355e-05,-8.04643e-06,1.42195e-05,0.010271,-0.00160929,0.0028439,0,0,0,0,0.0459739,0.522551,-0.990602,33.5,1,41974,37163386
56,2,-0.673693,-0.0851828,9.78751,0.0831623,-0.587104,0.990647,-0.00673897,-0.000861689,0.0978749,1,4.90956e-05,-1.06022e-05,1.86171e-05,0.00981912,-0.00212044,0.00372343,0,0,0,0,0.0437444,0.520033,-0.985092,33.5,1,41975,37163486
57,1,-0.673693,-0.0851828,9.78751,0.0831623,-0.587104,0.990647,-0.00673897,-0.000861689,0.0978749,1,4.90956e-05,-1.06022e-05,1.86171e-05,0.00981912,-0.00212044,0.00372343,0,0,0,0,0.0437444,0.520033,-0.985092,33.5,1,41975,37163486
57,2,-0.670352,-0.0684615,9.78865,0.0914727,-0.573437,0.983972,-0.00670617,-0.000692784,0.0978863,1,4.05685e-05,-1.36476e-05,1.69051e-05,0.00811371,-0.00272951,0.00338102,0,0,0,0,0.0443081,0.520932,-0.981034,33.5,1,41976,37163586
58,1,-0.670352,-0.0684615,9.78865,0.0914727,-0.573437,0.983972,-0.00670617,-0.000692784,0.0978863,1,4.05685e-05,-1.36476e-05,1.69051e-05,0.00811371,-0.00272951,0.00338102,0,0,0,0,0.0443081,0.520932,-0.981034,33.5,1,41976,37163586
58,2,-0.681567,-0.0686423,9.79924,0.07403,-0.566977,0.98816,-0.00681869,-0.000694814,0.0979921,1,4.23472e-05,-1.54301e-05,6.66841e-06,0.00846945,-0.00308601,0.00133368,0,0,0,0,0.0476521,0.523813,-0.979976,33.5,1,41977,37163686
59,1,-0.681567,-0.0686423,9.79924,0.07403,-0.566977,0.98816,-0.00681869,-0.000694814,0.0979921,1,4.23472e-05,-1.54301e-05,6.66841e-06,0.00846945,-0.00308601,0.00133368,0,0,0,0,0.0476521,0.523813,-0.979976,33.5,1,41977,37163686
59,2,-0.674119,-0.0699904,9.79816,0.0802568,-0.569487,0.987923,-0.00674421,-0.000708165,0.0979813,1,4.19727e-05,-1.54137e-05,2.65257e-06,0.00839453,-0.00308274,0.000530515,0,0,0,0,0.0494784,0.525314,-0.982981,33.5,1,41978,37163786
60,1,-0.674119,-0.0699904,9.79816,0.0802568,-0.569487,0.987923,-0.00674421,-0.000708165,0.0979813,1,4.19727e-05,-1.54137e-05,2.65257e-06,0.00839453,-0.00308274,0.000530515,0,0,0,0,0.0494784,0.525314,-0.982981,33.5,1,41978,37163786
60,2,-0.669835,-0.0763631,9.78552,0.0855519,-0.581045,0.973604,-0.00669802,-0.000771923,0.0978551,1,4.11142e-05,1.56266e-06,1.83173e-05,0.00822283,0.000312532,0.00366346,0,0,0,0,0.0473854,0.525935,-0.989523,33.5,1,41979,37163886
61,1,-0.669835,-0.0763631,9.78552,0.0855519,-0.581045,0.973604,-0.00669802,-0.000771923,0.0978551,1,4.11142e-05,1.56266e-06,1.83173e-05,0.00822283,0.000312532,0.00366346,0,0,0,0,0.0473854,0.525935,-0.989523,33.5,1,41979,37163886
61,2,-0.682952,-0.0748204,9.79512,0.069186,-0.578492,0.988115,-0.00683116,-0.000755936,0.097951,1,3.78154e-05,-8.51617e-06,2.36687e-05,0.00756307,-0.00170323,0.00473374,0,0,0,0,0.0454767,0.52353,-0.990578,33.5,1,41980,37163986
62,1,-0.682952,-0.0748204,9.79512,0.069186,-0.578492,0.988115,-0.00683116,-0.000755936,0.097951,1,3.78154e-05,-8.51617e-06,2.36687e-05,0.00756307,-0.00170323,0.00473374,0,0,0,0,0.0454767,0.52353,-0.990578,33.5,1,41980,37163986
62,2,-0.677735,-0.0812186,9.79639,0.0786911,-0.586877,0.99281,-0.00677935,-0.000820527,0.0979637,1,4.17437e-05,-1.02932e-05,1.19525e-05,0.00834875,-0.00205864,0.0023905,0,0,0,0,0.0436746,0.520566,-0.987605,33.5,1,41981,37164086
63,1,-0.677735,-0.0812186,9.79639,0.0786911,-0.586877,0.99281,-0.00677935,-0.000820527,0.0979637,1,4.17437e-05,-1.02932e-05,1.19525e-05,0.00834875,-0.00205864,0.0023905,0,0,0,0,0.0436746,0.520566,-0.987605,33.5,1,41981,37164086
63,2,-0.67928,-0.0763488,9.78253,0.0769497,-0.584691,0.978652,-0.00679348,-0.000771877,0.0978252,1,4.20772e-05,-3.56867e-06,1.15818e-05,0.00841544,-0.000713733,0.00231636,0,0,0,0,0.0443038,0.520453,-0.98155,33.5,1,41982,37164186
64,1,-0.67928,-0.0763488,9.78253,0.0769497,-0.584691,0.978652,-0.00679348,-0.000771877,0.0978252,1,4.20772e-05,-3.56867e-06,1.15818e-05,0.00841544,-0.000713733,0.00231636,0,0,0,0,0.0443038,0.520453,-0.98155,33.5,1,41982,37164186
64,2,-0.683279,-0.0792093,9.78898,0.0746554,-0.582385,0.987321,-0.00683513,-0.000800797,0.0978896,1,4.22988e-05,-1.2219e-05,3.09143e-05,0.00845976,-0.0024438,0.00618285,0,0,0,0,0.0481456,0.5238,-0.979473,33.5,1,41983,37164286
65,1,-0.683279,-0.0792093,9.78898,0.0746554,-0.582385,0.987321,-0.00683513,-0.000800797,0.0978896,1,4.22988e-05,-1.2219e-05,3.09143e-05,0.00845976,-0.0024438,0.00618285,0,0,0,0,0.0481456,0.5238,-0.979473,33.5,1,41983,37164286
65,2,-0.670428,-0.0747012,9.79063,0.084083,-0.581024,0.980037,-0.00670544,-0.000754402,0.0979062,1,3.56305e-05,-6.12442e-06,3.07914e-05,0.0071261,-0.00122488,0.00615828,0,0,0,0,0.0499391,0.525807,-0.983477,33.5,1,41984,37164386
66,1,-0.670428,-0.0747012,9.79063,0.084083,-0.581024,0.980037,-0.00670544,-0.000754402,0.0979062,1,3.56305e-05,-6.12442e-06,3.07914e-05,0.0071261,-0.00122488,0.00615828,0,0,0,0,0.0499391,0.525807,-0.983477,33.5,1,41984,37164386
66,2,-0.67154,-0.0738768,9.79165,0.083371,-0.583767,0.986172,-0.00671483,-0.000749495,0.0979165,1,5.29102e-05,2.73244e-06,2.72171e-05,0.010582,0.000546489,0.00544342,0,0,0,0,0.046892,0.525948,-0.990026,33.5,1,41985,37164486
67,1,-0.67154,-0.0738768,9.79165,0.083371,-0.583767,0.986172,-0.00671483,-0.000749495,0.0979165,1,5.29102e-05,2.73244e-06,2.72171e-05,0.010582,0.000546489,0.00544342,0,0,0,0,0.046892,0.525948,-0.990026,33.5,1,41985,37164486
67,2,-0.675323,-0.0876109,9.79157,0.0755215,-0.599437,0.984274,-0.00675656,-0.000887055,0.0979154,1,5.44692e-05,-1.71942e-05,2.06885e-05,0.0108939,-0.00343885,0.0041377,0,0,0,0,0.045945,0.52209,-0.992127,33.5,1,41986,37164586
68,1,-0.675323,-0.0876109,9.79157,0.0755215,-0.599437,0.984274,-0.00675656,-0.000887055,0.0979154,1,5.44692e-05,-1.71942e-05,2.06885e-05,0.0108939,-0.00343885,0.0041377,0,0,0,0,0.045945,0.52209,-0.992127,33.5,1,41986,37164586
68,2,-0.672803,-0.0734309,9.7954,0.0852149,-0.585162,0.994676,-0.00672964,-0.000741797,0.0979538,1,3.76254e-05,-8.28708e-06,8.6931e-06,0.00752507,-0.00165742,0.00173862,0,0,0,0,0.0451303,0.520545,-0.987107,33.5,1,41987,37164686
69,1,-0.672803,-0.0734309,9.7954,0.0852149,-0.585162,0.994676,-0.00672964,-0.000741797,0.0979538,1,3.76254e-05,-8.28708e-06,8.6931e-06,0.00752507,-0.00165742,0.00173862,0,0,0,0,0.0451303,0.520545,-0.987107,33.5,1,41987,37164686
69,2,-0.674685,-0.0708737,9.79339,0.0799604,-0.584434,0.989984,-0.00674474,-0.00071799,0.097934,1,4.6499e-05,1.06842e-05,1.07513e-05,0.00929981,0.00213684,0.00215025,0,0,0,0,0.0462406,0.520428,-0.981054,33.5,1,41988,37164786
70,1,-0.674685,-0.0708737,9.79339,0.0799604,-0.584434,0.989984,-0.00674474,-0.00071799,0.097934,1,4.6499e-05,1.06842e-05,1.07513e-05,0.00929981,0.00213684,0.00215025,0,0,0,0,0.0462406,0.520428,-0.981054,33.5,1,41988,37164786
70,2,-0.677132,-0.0794095,9.78453,0.0767555,-0.589925,0.979035,-0.0067737,-0.000803186,0.0978451,1,4.54635e-05,-1.22953e-05,1.43665e-05,0.0090927,-0.00245905,0.0028733,0,0,0,0,0.0481617,0.522824,-0.979495,33.5,1,41989,37164886
71,1,-0.677132,-0.0794095,9.78453,0.0767555,-0.589925,0.979035,-0.0067737,-0.000803186,0.0978451,1,4.54635e-05,-1.22953e-05,1.43665e-05,0.0090927,-0.00245905,0.0028733,0,0,0,0,0.0481617,0.522824,-0.979495,33.5,1,41989,37164886
71,2,-0.674996,-0.0914213,9.78577,0.0802454,-0.607086,0.977654,-0.00675206,-0.000922214,0.0978574,1,3.94993e-05,-1.09135e-05,2.00531e-05,0.00789986,-0.0021827,0.00401062,0,0,0,0,0.0508643,0.525826,-0.984996,33.5,1,41990,37164986
72,1,-0.674996,-0.0914213,9.78577,0.0802454,-0.607086,0.977654,-0.00675206,-0.000922214,0.0978574,1,3.94993e-05,-1.09135e-05,2.00531e-05,0.00789986,-0.0021827,0.00401062,0,0,0,0,0.0508643,0.525826,-0.984996,33.5,1,41990,37164986
72,2,-0.672115,-0.0763525,9.78181,0.0789838,-0.591235,0.973706,-0.00672357,-0.000772231,0.0978178,1,4.35113e-05,-1.24689e-05,1.44522e-05,0.00870226,-0.00249378,0.00289044,0,0,0,0,0.0497868,0.525436,-0.99005,33.5,1,41991,37165086
73,1,-0.672115,-0.0763525,9.78181,0.0789838,-0.591235,0.973706,-0.00672357,-0.000772231,0.0978178,1,4.35113e-05,-1.24689e-05,1.44522e-05,0.00870226,-0.00249378,0.00289044,0,0,0,0,0.0497868,0.525436,-0.99005,33.5,1,41991,37165086
73,2,-0.678204,-0.0801611,9.78656,0.0733308,-0.598379,0.981149,-0.00678442,-0.000808869,0.0978654,1,3.58912e-05,-1.22916e-05,1.7185e-05,0.00717825,-0.00245831,0.003437,0,0,0,0,0.0459863,0.522542,-0.990097,33.5,1,41992,37165186
74,1,-0.678204,-0.0801611,9.78656,0.0733308,-0.598379,0.981149,-0.00678442,-0.000808869,0.0978654,1,3.58912e-05,-1.22916e-05,1.7185e-05,0.00717825,-0.00245831,0.003437,0,0,0,0,0.0459863,0.522542,-0.990097,33.5,1,41992,37165186
74,2,-0.666498,-0.0807714,9.79191,0.0850489,-0.596844,0.989101,-0.00666812,-0.000815836,0.0979188,1,3.95757e-05,-1.62812e-05,2.79266e-05,0.00791514,-0.00325624,0.00558533,0,0,0,0,0.0446573,0.520061,-0.987116,33.5,1,41993,37165286
75,1,-0.666498,-0.0807714,9.79191,0.0850489,-0.596844,0.989101,-0.00666812,-0.000815836,0.0979188,1,3.95757e-05,-1.62812e-05,2.79266e-05,0.00791514,-0.00325624,0.00558533,0,0,0,0,0.0446573,0.520061,-0.987116,33.5,1,41993,37165286
75,2,-0.670851,-0.0881824,9.78408,0.0811324,-0.603811,0.979005,-0.00671205,-0.00089257,0.0978405,1,5.27448e-05,-1.83824e-05,3.16478e-05,0.010549,-0.00367647,0.00632957,0,0,0,0,0.0457633,0.519466,-0.981579,33.5,1,41994,37165386
76,1,-0.670851,-0.0881824,9.78408,0.0811324,-0.603811,0.979005,-0.00671205,-0.00089257,0.0978405,1,5.27448e-05,-1.83824e-05,3.16478e-05,0.010549,-0.00367647,0.00632957,0,0,0,0,0.0457633,0.519466,-0.981579,33.5,1,41994,37165386
76,2,-0.676237,-0.0745353,9.78117,0.0805379,-0.591864,0.975791,-0.00676418,-0.000755187,0.0978115,1,4.97233e-05,-9.32063e-06,7.91074e-06,0.00994466,-0.00186413,0.00158215,0,0,0,0,0.0471876,0.524286,-0.978953,33.5,1,41995,37165486
77,1,-0.676237,-0.0745353,9.78117,0.0805379,-0.591864,0.975791,-0.00676418,-0.000755187,0.0978115,1,4.97233e-05,-9.32063e-06,7.91074e-06,0.00994466,-0.00186413,0.00158215,0,0,0,0,0.0471876,0.524286,-0.978953,33.5,1,41995,37165486
77,2,-0.674795,-0.0841998,9.79024,0.0757213,-0.599345,0.981702,-0.00675019,-0.000851123,0.0979021,1,4.56105e-05,-1.15628e-05,1.43819e-05,0.00912211,-0.00231257,0.00287638,0,0,0,0,0.0489564,0.526312,-0.983967,33.5,1,41996,37165586
78,1,-0.674795,-0.0841998,9.79024,0.0757213,-0.599345,0.981702,-0.00675019,-0.000851123,0.0979021,1,4.56105e-05,-1.15628e-05,1.43819e-05,0.00912211,-0.00231257,0.00287638,0,0,0,0,0.0489564,0.526312,-0.983967,33.5,1,41996,37165586
78,2,-0.674688,-0.0827291,9.7889,0.0789909,-0.600755,0.978988,-0.00675003,-0.000838132,0.0978887,1,5.31971e-05,-1.63579e-05,3.15738e-05,0.0106394,-0.00327157,0.00631476,0,0,0,0,0.0478538,0.524495,-0.991073,33.5,1,41997,37165686
79,1,-0.674688,-0.0827291,9.7889,0.0789909,-0.600755,0.978988,-0.00675003,-0.000838132,0.0978887,1,5.31971e-05,-1.63579e-05,3.15738e-05,0.0106394,-0.00327157,0.00631476,0,0,0,0,0.0478538,0.524495,-0.991073,33.5,1,41997,37165686
79,2,-0.674534,-0.0762819,9.78657,0.081424,-0.596954,0.97932,-0.00674716,-0.000773075,0.0978655,1,5.07178e-05,-9.46986e-06,2.44344e-05,0.0101436,-0.00189397,0.00488687,0,0,0,0,0.0459943,0.522054,-0.990108,33.5,1,41998,37165786
80,1,-0.674534,-0.0762819,9.78657,0.081424,-0.596954,0.97932,-0.00674716,-0.000773075,0.0978655,1,5.07178e-05,-9.46986e-06,2.44344e-05,0.0101436,-0.00189397,0.00488687,0,0,0,0,0.0459943,0.522054,-0.990108,33.5,1,41998,37165786
80,2,-0.678951,-0.0776429,9.79303,0.0748862,-0.59908,0.989522,-0.00679007,-0.00078683,0.0979301,1,5.26271e-05,-2.92111e-06,6.88273e-06,0.0105254,-0.000584222,0.00137655,0,0,0,0,0.0446492,0.520549,-0.987105,33.5,1,41999,37165886
81,1,-0.678951,-0.0776429,9.79303,0.0748862,-0.59908,0.989522,-0.00679007,-0.00078683,0.0979301,1,5.26271e-05,-2.92111e-06,6.88273e-06,0.0105254,-0.000584222,0.00137655,0,0,0,0,0.0446492,0.520549,-0.987105,33.5,1,41999,37165886
81,2,-0.683722,-0.0740076,9.78632,0.0662549,-0.596533,0.984527,-0.00683754,-0.000749084,0.0978631,1,4.47352e-05,-1.79749e-06,1.84475e-05,0.00894704,-0.000359497,0.00368951,0,0,0,0,0.0457101,0.520468,-0.983071,33.5,1,42000,37165986
82,1,-0.683722,-0.0740076,9.78632,0.0662549,-0.596533,0.984527,-0.00683754,-0.000749084,0.0978631,1,4.47352e-05,-1.79749e-06,1.84475e-05,0.00894704,-0.000359497,0.00368951,0,0,0,0,0.0457101,0.520468,-0.983071,33.5,1,42000,37165986
82,2,-0.673663,-0.0777308,9.78351,0.0759194,-0.597968,0.97944,-0.00674068,-0.000784889,0.0978348,1,3.69922e-05,-2.08896e-05,2.53765e-05,0.00739844,-0.00417792,0.00507531,0,0,0,0,0.0471667,0.523338,-0.980489,33.5,1,42001,37166086
83,1,-0.673663,-0.0777308,9.78351,0.0759194,-0.597968,0.97944,-0.00674068,-0.000784889,0.0978348,1,3.69922e-05,-2.08896e-05,2.53765e-05,0.00739844,-0.00417792,0.00507531,0,0,0,0,0.0471667,0.523338,-0.980489,33.5,1,42001,37166086
83,2,-0.676531,-0.0825533,9.78653,0.080085,-0.604675,0.978074,-0.00676505,-0.000835179,0.0978652,1,4.79092e-05,1.19921e-06,1.9865e-05,0.00958184,0.000239842,0.003973,0,0,0,0,0.0499272,0.527261,-0.98294,33.5,1,42002,37166186
84,1,-0.676531,-0.0825533,9.78653,0.080085,-0.604675,0.978074,-0.00676505,-0.000835179,0.0978652,1,4.79092e-05,1.19921e-06,1.9865e-05,0.00958184,0.000239842,0.003973,0,0,0,0,0.0499272,0.527261,-0.98294,33.5,1,42002,37166186
84,2,-0.677307,-0.0855855,9.78856,0.0712454,-0.607703,0.980291,-0.00677727,-0.000865119,0.0978852,1,4.57187e-05,-2.16177e-05,2.31395e-05,0.00914375,-0.00432355,0.0046279,0,0,0,0,0.0493061,0.526886,-0.989006,33.5,1,42003,37166286
85,1,-0.677307,-0.0855855,9.78856,0.0712454,-0.607703,0.980291,-0.00677727,-0.000865119,0.0978852,1,4.57187e-05,-2.16177e-05,2.31395e-05,0.00914375,-0.00432355,0.0046279,0,0,0,0,0.0493061,0.526886,-0.989006,33.5,1,42003,37166286
85,2,-0.678587,-0.0826594,9.78722,0.064336,-0.610278,0.981604,-0.00678746,-0.000833801,0.097872,1,3.49039e-05,-8.38958e-06,2.75991e-05,0.00698078,-0.00167792,0.00551982,0,0,0,0,0.0469238,0.522552,-0.991112,33.5,1,42004,37166386
86,1,-0.678587,-0.0826594,9.78722,0.064336,-0.610278,0.981604,-0.00678746,-0.000833801,0.097872,1,3.49039e-05,-8.38958e-06,2.75991e-05,0.00698078,-0.00167792,0.00551982,0,0,0,0,0.0469238,0.522552,-0.991112,33.5,1,42004,37166386
86,2,-0.672317,-0.0866029,9.79461,0.0815624,-0.614355,0.987451,-0.00672408,-0.0008773,0.0979459,1,5.75371e-05,-4.62698e-06,-2.04182e-10,0.0115074,-0.000925395,-4.08363e-08,0,0,0,0,0.0451389,0.521502,-0.986076,33.5,1,42005,37166486
87,1,-0.672317,-0.0866029,9.79461,0.0815624,-0.614355,0.987451,-0.00672408,-0.0008773,0.0979459,1,5.75371e-05,-4.62698e-06,-2.04182e-10,0.0115074,-0.000925395,-4.08363e-08,0,0,0,0,0.0451389,0.521502,-0.986076,33.5,1,42005,37166486
87,2,-0.685742,-0.0721225,9.79143,0.0691566,-0.598088,0.989506,-0.00685828,-0.000727448,0.0979142,1,3.15905e-05,-4.40141e-06,2.69898e-06,0.00631809,-0.000880282,0.000539795,0,0,0,0,0.0457514,0.52092,-0.981041,33.5,1,42006,37166586
88,1,-0.685742,-0.0721225,9.79143,0.0691566,-0.598088,0.989506,-0.00685828,-0.000727448,0.0979142,1,3.15905e-05,-4.40141e-06,2.69898e-06,0.00631809,-0.000880282,0.000539795,0,0,0,0,0.0457514,0.52092,-0.981041,33.5,1,42006,37166586
88,2,-0.681204,-0.0746441,9.79206,0.0691355,-0.598063,0.987135,-0.0068145,-0.000755978,0.0979204,1,4.83207e-05,-1.26419e-05,5.44078e-06,0.00966414,-0.00252838,0.00108816,0,0,0,0,0.0471999,0.524277,-0.978448,33.5,1,42007,37166686
89,1,-0.681204,-0.0746441,9.79206,0.0691355,-0.598063,0.987135,-0.0068145,-0.000755978,0.0979204,1,4.83207e-05,-1.26419e-05,5.44078e-06,0.00966414,-0.00252838,0.00108816,0,0,0,0,0.0471999,0.524277,-0.978448,33.5,1,42007,37166686
89,2,-0.668116,-0.0853347,9.79153,0.0854908,-0.610006,0.983433,-0.00667998,-0.000859295,0.0979153,1,3.01227e-05,5.99023e-06,3.66954e-06,0.00602454,0.00119805,0.000733907,0,0,0,0,0.0494665,0.526768,-0.982444,33.5,1,42008,37166786
90,1,-0.668116,-0.0853347,9.79153,0.0854908,-0.610006,0.983433,-0.00667998,-0.000859295,0.0979153,1,3.01227e-05,5.99023e-06,3.66954e-06,0.00602454,0.00119805,0.000733907,0,0,0,0,0.0494665,0.526768,-0.982444,33.5,1,42008,37166786
90,2,-0.674414,-0.0763457,9.78658,0.0745728,-0.603494,0.977321,-0.00674657,-0.000771298,0.0978655,1,3.91323e-05,-1.24965e-05,1.34818e-05,0.00782647,-0.00249929,0.00269636,0,0,0,0,0.0497787,0.525924,-0.99004,33.5,1,42009,37166886
91,1,-0.674414,-0.0763457,9.78658,0.0745728,-0.603494,0.977321,-0.00674657,-0.000771298,0.0978655,1,3.91323e-05,-1.24965e-05,1.34818e-05,0.00782647,-0.00249929,0.00269636,0,0,0,0,0.0497787,0.525924,-0.99004,33.5,1,42009,37166886
91,2,-0.675539,-0.0716078,9.79306,0.0742077,-0.599141,0.977386,-0.00675654,-0.000725691,0.0979305,1,4.76092e-05,-6.01457e-06,2.1359e-05,0.00952183,-0.00120291,0.0042718,0,0,0,0,0.04745,0.522033,-0.98961,33.5,1,42010,37166986
91,3,-0.675539,-0.0716078,9.79306,0.0742077,-0.599141,0.977386,-0.00675654,-0.000725691,0.0979305,1,4.76092e-05,-6.01457e-06,2.1359e-05,0.00952183,-0.00120291,0.0042718,0,0,0,0,0.04745,0.522033,-0.98961,33.5,1,42010,37166986
91,4,-0.678964,-0.0723262,9.78324,0.0672223,-0.602523,0.97801,-0.00679141,-0.000731017,0.0978322,1,3.91696e-05,-9.06177e-06,6.73529e-06,0.00783391,-0.00181235,0.00134706,0,0,0,0,0.0447185,0.51857,-0.985634,33.5,1,42011,37167086
91,5,-0.678964,-0.0723262,9.78324,0.0672223,-0.602523,0.97801,-0.00679141,-0.000731017,0.0978322,1,3.91696e-05,-9.06177e-06,6.73529e-06,0.00783391,-0.00181235,0.00134706,0,0,0,0,0.0447185,0.51857,-0.985634,33.5,1,42011,37167086
91,6,-0.682754,-0.0798063,9.78523,0.0662162,-0.61412,0.98297,-0.00682609,-0.00080667,0.0978524,1,4.17829e-05,7.1639e-06,3.15307e-05,0.00835658,0.00143278,0.00630614,0,0,0,0,0.0457837,0.518969,-0.981085,33.5,1,42012,37167186
92,1,-0.682754,-0.0798063,9.78523,0.0662162,-0.61412,0.98297,-0.00682609,-0.00080667,0.0978524,1,4.17829e-05,7.1639e-06,3.15307e-05,0.00835658,0.00143278,0.00630614,0,0,0,0,0.0457837,0.518969,-0.981085,33.5,1,42012,37167186
92,2,-0.669063,-0.0753374,9.78858,0.0780903,-0.601835,0.980469,-0.00669132,-0.000762912,0.0978856,1,4.76037e-05,-3.63002e-06,1.63819e-05,0.00952073,-0.000726003,0.00327637,0,0,0,0,0.0467222,0.52187,-0.980015,33.5,1,42013,37167286
92,3,-0.669063,-0.0753374,9.78858,0.0780903,-0.601835,0.980469,-0.00669132,-0.000762912,0.0978856,1,4.76037e-05,-3.63002e-06,1.63819e-05,0.00952073,-0.000726003,0.00327637,0,0,0,0,0.0467222,0.52187,-0.980015,33.5,1,42013,37167286
92,4,-0.675834,-0.0938863,9.7776,0.0739971,-0.620537,0.968717,-0.00675851,-0.000948643,0.0977759,1,4.86989e-05,-1.05401e-06,1.90344e-05,0.00973977,-0.000210802,0.00380687,0,0,0,0,0.04704,0.52584,-0.983968,33.5,1,42014,37167386
93,1,-0.675834,-0.0938863,9.7776,0.0739971,-0.620537,0.968717,-0.00675851,-0.000948643,0.0977759,1,4.86989e-05,-1.05401e-06,1.90344e-05,0.00973977,-0.000210802,0.00380687,0,0,0,0,0.04704,0.52584,-0.983968,33.5,1,42014,37167386
93,2,-0.68386,-0.0792383,9.79883,0.0658673,-0.610414,0.987441,-0.00684142,-0.000802328,0.097988,1,4.94309e-05,-1.45528e-05,1.88445e-05,0.00988617,-0.00291056,0.00376889,0,0,0,0,0.0468963,0.526427,-0.98951,33.5,1,42015,37167486
93,3,-0.68386,-0.0792383,9.79883,0.0658673,-0.610414,0.987441,-0.00684142,-0.000802328,0.097988,1,4.94309e-05,-1.45528e-05,1.88445e-05,0.00988617,-0.00291056,0.00376889,0,0,0,0,0.0468963,0.526427,-0.98951,33.5,1,42015,37167486
93,4,-0.675089,-0.0726625,9.79102,0.0759345,-0.602909,0.979353,-0.00675367,-0.000734327,0.0979099,1,3.82308e-05,-1.42902e-05,1.6015e-05,0.00764617,-0.00285803,0.00320299,0,0,0,0,0.0464631,0.522059,-0.990615,33.5,1,42016,37167586
94,1,-0.675089,-0.0726625,9.79102,0.0759345,-0.602909,0.979353,-0.00675367,-0.000734327,0.0979099,1,3.82308e-05,-1.42902e-05,1.6015e-05,0.00764617,-0.00285803,0.00320299,0,0,0,0,0.0464631,0.522059,-0.990615,33.5,1,42016,37167586
94,2,-0.687891,-0.0845911,9.78999,0.0646518,-0.619579,0.981099,-0.00688214,-0.000856363,0.0978996,1,5.18933e-05,-1.67153e-05,2.11987e-05,0.0103787,-0.00334307,0.00423974,0,0,0,0,0.0446654,0.519573,-0.987127,33.5,1,42017,37167686
94,3,-0.687891,-0.0845911,9.78999,0.0646518,-0.619579,0.981099,-0.00688214,-0.000856363,0.0978996,1,5.18933e-05,-1.67153e-05,2.11987e-05,0.0103787,-0.00334307,0.00423974,0,0,0,0,0.0446654,0.519573,-0.987127,33.5,1,42017,37167686
94,4,-0.667067,-0.0655059,9.78628,0.0806415,-0.596653,0.98097,-0.00667388,-0.000661367,0.0978625,1,3.03572e-05,-1.65814e-05,2.74684e-05,0.00607145,-0.00331628,0.00549369,0,0,0,0,0.0447887,0.519483,-0.982079,33.5,1,42018,37167786
95,1,-0.667067,-0.0655059,9.78628,0.0806415,-0.596653,0.98097,-0.00667388,-0.000661367,0.0978625,1,3.03572e-05,-1.65814e-05,2.74684e-05,0.00607145,-0.00331628,0.00549369,0,0,0,0,0.0447887,0.519483,-0.982079,33.5,1,42018,37167786
95,2,-0.669635,-0.0719224,9.78964,0.0833224,-0.604611,0.98043,-0.00669923,-0.000727811,0.0978961,1,4.35542e-05,-1.47727e-05,4.45519e-06,0.00871084,-0.00295455,0.000891038,0,0,0,0,0.0462415,0.523319,-0.97897,33.5,1,42019,37167886
95,3,-0.669635,-0.0719224,9.78964,0.0833224,-0.604611,0.98043,-0.00669923,-0.000727811,0.0978961,1,4.35542e-05,-1.47727e-05,4.45519e-06,0.00871084,-0.00295455,0.000891038,0,0,0,0,0.0462415,0.523319,-0.97897,33.5,1,42019,37167886
95,4,-0.676665,-0.0820781,9.79706,0.0744793,-0.614814,0.987358,-0.00676903,-0.000826782,0.0979704,1,3.02736e-05,-1.21929e-05,5.083e-06,0.00605471,-0.00243858,0.0010166,0,0,0,0,0.0480312,0.526293,-0.982448,33.5,1,42020,37167986
96,1,-0.676665,-0.0820781,9.79706,0.0744793,-0.614814,0.987358,-0.00676903,-0.000826782,0.0979704,1,3.02736e-05,-1.21929e-05,5.083e-06,0.00605471,-0.00243858,0.0010166,0,0,0,0,0.0480312,0.526293,-0.982448,33.5,1,42020,37167986
96,2,-0.672823,-0.0750057,9.78115,0.0787651,-0.608049,0.973733,-0.00672982,-0.000757681,0.0978113,1,3.7415e-05,-8.34295e-06,2.26869e-05,0.00748299,-0.00166859,0.00453739,0,0,0,0,0.0483558,0.525439,-0.989539,33.5,1,42021,37168086
97,1,-0.672823,-0.0750057,9.78115,0.0787651,-0.608049,0.973733,-0.00672982,-0.000757681,0.0978113,1,3.7415e-05,-8.34295e-06,2.26869e-05,0.00748299,-0.00166859,0.00453739,0,0,0,0,0.0483558,0.525439,-0.989539,33.5,1,42021,37168086
97,2,-0.688468,-0.0720195,9.78976,0.0620798,-0.605705,0.982458,-0.00688659,-0.000729103,0.0978974,1,4.43756e-05,-9.88865e-06,1.59426e-05,0.00887512,-0.00197773,0.00318852,0,0,0,0,0.0464878,0.522041,-0.989606,33.5,1,42022,37168186
97,3,-0.688468,-0.0720195,9.78976,0.0620798,-0.605705,0.982458,-0.00688659,-0.000729103,0.0978974,1,4.43756e-05,-9.88865e-06,1.59426e-05,0.00887512,-0.00197773,0.00318852,0,0,0,0,0.0464878,0.522041,-0.989606,33.5,1,42022,37168186
97,4,-0.679114,-0.083878,9.7879,0.0681575,-0.620011,0.983881,-0.00679442,-0.000847682,0.0978787,1,4.41465e-05,-1.6924e-05,1.90941e-05,0.0088293,-0.0033848,0.00381882,0,0,0,0,0.0437321,0.520042,-0.985597,33.5,1,42023,37168286
98,1,-0.679114,-0.083878,9.7879,0.0681575,-0.620011,0.983881,-0.00679442,-0.000847682,0.0978787,1,4.41465e-05,-1.6924e-05,1.90941e-05,0.0088293,-0.0033848,0.00381882,0,0,0,0,0.0437321,0.520042,-0.985597,33.5,1,42023,37168286
98,2,-0.678497,-0.0715836,9.78664,0.0709351,-0.608933,0.980307,-0.00678807,-0.000723915,0.0978662,1,4.0466e-05,-1.59386e-05,1.16619e-05,0.0080932,-0.00318771,0.00233239,0,0,0,0,0.0453068,0.519452,-0.980567,33.5,1,42024,37168386
98,3,-0.678497,-0.0715836,9.78664,0.0709351,-0.608933,0.980307,-0.00678807,-0.000723915,0.0978662,1,4.0466e-05,-1.59386e-05,1.16619e-05,0.0080932,-0.00318771,0.00233239,0,0,0,0,0.0453068,0.519452,-0.980567,33.5,1,42024,37168386
98,4,-0.664932,-0.0768667,9.79125,0.087209,-0.613271,0.984591,-0.00665048,-0.000779774,0.0979123,1,5.45364e-05,-6.17867e-06,3.21268e-05,0.0109073,-0.00123573,0.00642536,0,0,0,0,0.0472076,0.522344,-0.979501,33.5,1,42025,37168486
99,1,-0.664932,-0.0768667,9.79125,0.087209,-0.613271,0.984591,-0.00665048,-0.000779774,0.0979123,1,5.45364e-05,-6.17867e-06,3.21268e-05,0.0109073,-0.00123573,0.00642536,0,0,0,0,0.0472076,0.522344,-0.979501,33.5,1,42025,37168486
99,2,-0.679879,-0.0697398,9.79311,0.0689745,-0.606158,0.980813,-0.0068017,-0.00070449,0.0979308,1,3.49916e-05,-1.49665e-05,1.75703e-05,0.00699832,-0.0029933,0.00351406,0,0,0,0,0.048993,0.524839,-0.983494,33.5,1,42026,37168586
100,1,-0.679879,-0.0697398,9.79311,0.0689745,-0.606158,0.980813,-0.0068017,-0.00070449,0.0979308,1,3.49916e-05,-1.49665e-05,1.75703e-05,0.00699832,-0.0029933,0.00351406,0,0,0,0,0.048993,0.524839,-0.983494,33.5,1,42026,37168586
100,2,-0.673057,-0.0814252,9.78822,0.075981,-0.619315,0.979809,-0.00673246,-0.00082303,0.097882,1,4.43999e-05,-9.68191e-06,6.37776e-06,0.00887998,-0.00193638,0.00127555,0,0,0,0,0.0478908,0.524468,-0.989558,33.5,1,42027,37168686
100,3,-0.673057,-0.0814252,9.78822,0.075981,-0.619315,0.979809,-0.00673246,-0.00082303,0.097882,1,4.43999e-05,-9.68191e-06,6.37776e-06,0.00887998,-0.00193638,0.00127555,0,0,0,0,0.0478908,0.524468,-0.989558,33.5,1,42027,37168686
100,4,-0.681486,-0.0778127,9.78594,0.068304,-0.615874,0.975202,-0.00681858,-0.000784963,0.0978591,1,3.41592e-05,-1.90676e-05,1.10883e-05,0.00683184,-0.00381352,0.00221767,0,0,0,0,0.0450487,0.522532,-0.989083,33.5,1,42028,37168786
101,1,-0.681486,-0.0778127,9.78594,0.068304,-0.615874,0.975202,-0.00681858,-0.000784963,0.0978591,1,3.41592e-05,-1.90676e-05,1.10883e-05,0.00683184,-0.00381352,0.00221767,0,0,0,0,0.0450487,0.522532,-0.989083,33.5,1,42028,37168786
101,2,-0.682237,-0.083967,9.7947,0.0711311,-0.619164,0.984884,-0.00682219,-0.000847939,0.0979469,1,4.08963e-05,7.50849e-07,1.88964e-05,0.00817926,0.00015017,0.00377928,0,0,0,0,0.0427988,0.52051,-0.984067,33.5,1,42029,37168886
101,3,-0.682237,-0.083967,9.7947,0.0711311,-0.619164,0.984884,-0.00682219,-0.000847939,0.0979469,1,4.08963e-05,7.50849e-07,1.88964e-05,0.00817926,0.00015017,0.00377928,0,0,0,0,0.0427988,0.52051,-0.984067,33.5,1,42029,37168886
101,4,-0.681848,-0.0881126,9.79364,0.0700052,-0.626057,0.986676,-0.00681998,-0.000889288,0.0979362,1,4.11235e-05,-7.75949e-06,7.88093e-06,0.0082247,-0.0015519,0.00157619,0,0,0,0,0.0434151,0.518962,-0.979559,33.5,1,42030,37168986
102,1,-0.681848,-0.0881126,9.79364,0.0700052,-0.626057,0.986676,-0.00681998,-0.000889288,0.0979362,1,4.11235e-05,-7.75949e-06,7.88093e-06,0.0082247,-0.0015519,0.00157619,0,0,0,0,0.0434151,0.518962,-0.979559,33.5,1,42030,37168986
102,2,-0.683622,-0.0751186,9.79546,0.0639486,-0.613086,0.989563,-0.00683721,-0.000760242,0.0979545,1,4.44521e-05,-5.23606e-06,2.53878e-05,0.00889041,-0.00104721,0.00507755,0,0,0,0,0.0476887,0.52234,-0.979503,33.5,1,42031,37169086
102,3,-0.683622,-0.0751186,9.79546,0.0639486,-0.613086,0.989563,-0.00683721,-0.000760242,0.0979545,1,4.44521e-05,-5.23606e-06,2.53878e-05,0.00889041,-0.00104721,0.00507755,0,0,0,0,0.0476887,0.52234,-0.979503,33.5,1,42031,37169086
102,4,-0.675687,-0.0846104,9.78652,0.0755166,-0.620643,0.974185,-0.00676019,-0.000854339,0.0978649,1,4.07807e-05,-1.7116e-05,1.86934e-05,0.00815614,-0.0034232,0.00373868,0,0,0,0,0.0494494,0.524853,-0.984506,33.5,1,42032,37169186
103,1,-0.675687,-0.0846104,9.78652,0.0755166,-0.620643,0.974185,-0.00676019,-0.000854339,0.0978649,1,4.07807e-05,-1.7116e-05,1.86934e-05,0.00815614,-0.0034232,0.00373868,0,0,0,0,0.0494494,0.524853,-0.984506,33.5,1,42032,37169186
103,2,-0.6781,-0.0716818,9.79512,0.0742158,-0.61097,0.984168,-0.00678388,-0.000726987,0.0979509,1,5.07349e-05,-1.48545e-05,1.69535e-05,0.010147,-0.00297091,0.0033907,0,0,0,0,0.0473854,0.525935,-0.989523,33.5,1,42033,37169286
104,1,-0.6781,-0.0716818,9.79512,0.0742158,-0.61097,0.984168,-0.00678388,-0.000726987,0.0979509,1,5.07349e-05,-1.48545e-05,1.69535e-05,0.010147,-0.00297091,0.0033907,0,0,0,0,0.0473854,0.525935,-0.989523,33.5,1,42033,37169286
104,2,-0.674104,-0.075964,9.7842,0.0741614,-0.616696,0.972761,-0.00674415,-0.00076831,0.0978417,1,4.39604e-05,-1.59085e-05,5.02546e-06,0.00879208,-0.00318171,0.00100509,0,0,0,0,0.045489,0.523521,-0.990073,33.5,1,42034,37169386
104,3,-0.674104,-0.075964,9.7842,0.0741614,-0.616696,0.972761,-0.00674415,-0.00076831,0.0978417,1,4.39604e-05,-1.59085e-05,5.02546e-06,0.00879208,-0.00318171,0.00100509,0,0,0,0,0.045489,0.523521,-0.990073,33.5,1,42034,37169386
104,4,-0.67681,-0.077883,9.79065,0.0689108,-0.621322,0.986754,-0.00676929,-0.000786511,0.0979063,1,3.8229e-05,-6.20086e-06,1.44428e-05,0.0076458,-0.00124017,0.00288856,0,0,0,0,0.0446615,0.52054,-0.9866,33.5,1,42035,37169486
105,1,-0.67681,-0.077883,9.79065,0.0689108,-0.621322,0.986754,-0.00676929,-0.000786511,0.0979063,1,3.8229e-05,-6.20086e-06,1.44428e-05,0.0076458,-0.00124017,0.00288856,0,0,0,0,0.0446615,0.52054,-0.9866,33.5,1,42035,37169486
105,2,-0.680341,-0.0726082,9.79444,0.065671,-0.615445,0.986553,-0.00680379,-0.000735854,0.0979443,1,4.85013e-05,-2.11425e-06,1.99137e-05,0.00970027,-0.00042285,0.00398274,0,0,0,0,0.0457799,0.519936,-0.980558,33.5,1,42036,37169586
105,3,-0.680341,-0.0726082,9.79444,0.065671,-0.615445,0.986553,-0.00680379,-0.000735854,0.0979443,1,4.85013e-05,-2.11425e-06,1.99137e-05,0.00970027,-0.00042285,0.00398274,0,0,0,0,0.0457799,0.519936,-0.980558,33.5,1,42036,37169586
105,4,-0.677128,-0.0761849,9.7927,0.06825,-0.616395,0.985496,-0.006773,-0.000768,0.0979268,1,2.95901e-05,-8.98355e-06,2.63023e-05,0.00591801,-0.00179671,0.00526046,0,0,0,0,0.046706,0.522845,-0.979993,33.5,1,42037,37169686
106,1,-0.677128,-0.0761849,9.7927,0.06825,-0.616395,0.985496,-0.006773,-0.000768,0.0979268,1,2.95901e-05,-8.98355e-06,2.63023e-05,0.00591801,-0.00179671,0.00526046,0,0,0,0,0.046706,0.522845,-0.979993,33.5,1,42037,37169686
106,2,-0.678346,-0.0762555,9.78218,0.0738078,-0.617082,0.968491,-0.00678428,-0.00077249,0.0978217,1,4.91774e-05,-4.38121e-06,2.3166e-05,0.00983548,-0.000876242,0.0046332,0,0,0,0,0.0489441,0.526321,-0.984471,33.5,1,42038,37169786
106,3,-0.678346,-0.0762555,9.78218,0.0738078,-0.617082,0.968491,-0.00678428,-0.00077249,0.0978217,1,4.91774e-05,-4.38121e-06,2.3166e-05,0.00983548,-0.000876242,0.0046332,0,0,0,0,0.0489441,0.526321,-0.984471,33.5,1,42038,37169786
106,4,-0.673151,-0.0740703,9.78827,0.0712792,-0.618151,0.975553,-0.00673272,-0.000747897,0.0978826,1,3.5664e-05,-6.28859e-06,1.57524e-05,0.00713281,-0.00125772,0.00315047,0,0,0,0,0.0487961,0.526429,-0.990529,33.5,1,42039,37169886
107,1,-0.673151,-0.0740703,9.78827,0.0712792,-0.618151,0.975553,-0.00673272,-0.000747897,0.0978826,1,3.5664e-05,-6.28859e-06,1.57524e-05,0.00713281,-0.00125772,0.00315047,0,0,0,0,0.0487961,0.526429,-0.990529,33.5,1,42039,37169886
107,2,-0.677888,-0.0770173,9.78456,0.0682349,-0.620861,0.979224,-0.00678093,-0.000779336,0.0978453,1,4.56385e-05,-1.06356e-05,1.70768e-05,0.0091277,-0.00212711,0.00341536,0,0,0,0,0.0455094,0.523024,-0.989579,33.5,1,42040,37169986
108,1,-0.677888,-0.0770173,9.78456,0.0682349,-0.620861,0.979224,-0.00678093,-0.000779336,0.0978453,1,4.56385e-05,-1.06356e-05,1.70768e-05,0.0091277,-0.00212711,0.00341536,0,0,0,0,0.0455094,0.523024,-0.989579,33.5,1,42040,37169986
108,2,-0.670779,-0.0704708,9.78457,0.076675,-0.615027,0.977592,-0.00670865,-0.000713265,0.0978456,1,4.18315e-05,-4.57269e-06,2.76749e-05,0.0083663,-0.000914537,0.00553499,0,0,0,0,0.0432595,0.521003,-0.984563,33.5,1,42041,37170086
109,1,-0.670779,-0.0704708,9.78457,0.076675,-0.615027,0.977592,-0.00670865,-0.000713265,0.0978456,1,4.18315e-05,-4.57269e-06,2.76749e-05,0.0083663,-0.000914537,0.00553499,0,0,0,0,0.0432595,0.521003,-0.984563,33.5,1,42041,37170086
109,2,-0.681377,-0.0698719,9.78498,0.064294,-0.613665,0.98063,-0.00681513,-0.00070778,0.0978496,1,4.50629e-05,-7.09321e-06,1.77641e-05,0.00901258,-0.00141864,0.00355282,0,0,0,0,0.0467383,0.520894,-0.980036,33.5,1,42042,37170186
109,3,-0.681377,-0.0698719,9.78498,0.064294,-0.613665,0.98063,-0.00681513,-0.00070778,0.0978496,1,4.50629e-05,-7.09321e-06,1.77641e-05,0.00901258,-0.00141864,0.00355282,0,0,0,0,0.0467383,0.520894,-0.980036,33.5,1,42042,37170186
109,4,-0.68562,-0.0827116,9.80186,0.0603244,-0.627298,0.99572,-0.00685671,-0.000835871,0.0980184,1,4.34108e-05,-2.7344e-06,1.78759e-05,0.00868215,-0.00054688,0.00357518,0,0,0,0,0.0471629,0.524304,-0.979962,33.5,1,42043,37170286
110,1,-0.68562,-0.0827116,9.80186,0.0603244,-0.627298,0.99572,-0.00685671,-0.000835871,0.0980184,1,4.34108e-05,-2.7344e-06,1.78759e-05,0.00868215,-0.00054688,0.00357518,0,0,0,0,0.0471629,0.524304,-0.979962,33.5,1,42043,37170286
110,2,-0.671989,-0.0759348,9.79165,0.0745018,-0.61929,0.980161,-0.0067226,-0.000767729,0.0979162,1,4.13471e-05,-1.40013e-05,2.10722e-05,0.00826941,-0.00280026,0.00421443,0,0,0,0,0.0480146,0.525823,-0.983468,33.5,1,42044,37170386
111,1,-0.671989,-0.0759348,9.79165,0.0745018,-0.61929,0.980161,-0.0067226,-0.000767729,0.0979162,1,4.13471e-05,-1.40013e-05,2.10722e-05,0.00826941,-0.00280026,0.00421443,0,0,0,0,0.0480146,0.525823,-0.983468,33.5,1,42044,37170386
111,2,-0.675138,-0.0702271,9.78527,0.0678046,-0.611429,0.970202,-0.00675477,-0.000711513,0.0978524,1,4.60707e-05,-1.7427e-05,1.66985e-05,0.00921413,-0.0034854,0.0033397,0,0,0,0,0.0483558,0.525439,-0.989539,33.5,1,42045,37170486
111,3,-0.675138,-0.0702271,9.78527,0.0678046,-0.611429,0.970202,-0.00675477,-0.000711513,0.0978524,1,4.60707e-05,-1.7427e-05,1.66985e-05,0.00921413,-0.0034854,0.0033397,0,0,0,0,0.0483558,0.525439,-0.989539,33.5,1,42045,37170486
111,4,-0.67489,-0.0714018,9.78729,0.074109,-0.617267,0.97594,-0.00675028,-0.000724442,0.0978728,1,5.24763e-05,-7.17448e-06,1.1271e-05,0.0104953,-0.00143489,0.0022542,0,0,0,0,0.0459981,0.521087,-0.990635,33.5,1,42046,37170586
112,1,-0.67489,-0.0714018,9.78729,0.074109,-0.617267,0.97594,-0.00675028,-0.000724442,0.0978728,1,5.24763e-05,-7.17448e-06,1.1271e-05,0.0104953,-0.00143489,0.0022542,0,0,0,0,0.0459981,0.521087,-0.990635,33.5,1,42046,37170586
112,2,-0.671684,-0.0797221,9.79331,0.0749321,-0.631558,0.985867,-0.00671885,-0.000807245,0.0979329,1,4.99338e-05,-1.03767e-05,1.8144e-05,0.00998676,-0.00207535,0.0036288,0,0,0,0,0.0422598,0.519593,-0.987115,33.5,1,42047,37170686
112,3,-0.671684,-0.0797221,9.79331,0.0749321,-0.631558,0.985867,-0.00671885,-0.000807245,0.0979329,1,4.99338e-05,-1.03767e-05,1.8144e-05,0.00998676,-0.00207535,0.0036288,0,0,0,0,0.0422598,0.519593,-0.987115,33.5,1,42047,37170686
112,4,-0.674864,-0.0694196,9.78766,0.0743864,-0.620986,0.982235,-0.00675026,-0.000703351,0.0978764,1,4.58211e-05,-8.36125e-06,1.37388e-05,0.00916422,-0.00167225,0.00274777,0,0,0,0,0.0433501,0.521419,-0.980514,33.5,1,42048,37170786
113,1,-0.674864,-0.0694196,9.78766,0.0743864,-0.620986,0.982235,-0.00675026,-0.000703351,0.0978764,1,4.58211e-05,-8.36125e-06,1.37388e-05,0.00916422,-0.00167225,0.00274777,0,0,0,0,0.0433501,0.521419,-0.980514,33.5,1,42048,37170786
113,2,-0.671484,-0.0773997,9.78823,0.0766348,-0.620907,0.983869,-0.00671543,-0.00078136,0.0978822,1,3.71113e-05,-3.05462e-06,7.26444e-06,0.00742227,-0.000610923,0.00145289,0,0,0,0,0.0466903,0.525266,-0.978929,33.5,1,42049,37170886
114,1,-0.671484,-0.0773997,9.78823,0.0766348,-0.620907,0.983869,-0.00671543,-0.00078136,0.0978822,1,3.71113e-05,-3.05462e-06,7.26444e-06,0.00742227,-0.000610923,0.00145289,0,0,0,0,0.0466903,0.525266,-0.978929,33.5,1,42049,37170886
114,2,-0.682659,-0.0751997,9.79274,0.0636403,-0.623654,0.984568,-0.00682768,-0.00075849,0.0979273,1,3.1419e-05,-5.76689e-06,2.48441e-05,0.0062838,-0.00115338,0.00496881,0,0,0,0,0.0489279,0.527296,-0.98445,33.5,1,42050,37170986
115,1,-0.682659,-0.0751997,9.79274,0.0636403,-0.623654,0.984568,-0.00682768,-0.00075849,0.0979273,1,3.1419e-05,-5.76689e-06,2.48441e-05,0.0062838,-0.00115338,0.00496881,0,0,0,0,0.0489279,0.527296,-0.98445,33.5,1,42050,37170986
115,2,-0.674416,-0.0807372,9.78314,0.0682397,-0.63312,0.971596,-0.00674741,-0.000816924,0.0978311,1,4.80915e-05,-1.66692e-05,1.04812e-05,0.0096183,-0.00333383,0.00209623,0,0,0,0,0.0483353,0.525936,-0.990033,33.5,1,42051,37171086
115,3,-0.674416,-0.0807372,9.78314,0.0682397,-0.63312,0.971596,-0.00674741,-0.000816924,0.0978311,1,4.80915e-05,-1.66692e-05,1.04812e-05,0.0096183,-0.00333383,0.00209623,0,0,0,0,0.0483353,0.525936,-0.990033,33.5,1,42051,37171086
115,4,-0.677732,-0.080461,9.79131,0.0655371,-0.628724,0.98306,-0.00678195,-0.000814123,0.0979127,1,4.73184e-05,-2.38121e-05,1.82114e-05,0.00946369,-0.00476243,0.00364228,0,0,0,0,0.046019,0.522036,-0.989099,33.5,1,42052,37171186
115,5,-0.677732,-0.080461,9.79131,0.0655371,-0.628724,0.98306,-0.00678195,-0.000814123,0.0979127,1,4.73184e-05,-2.38121e-05,1.82114e-05,0.00946369,-0.00476243,0.00364228,0,0,0,0,0.046019,0.522036,-0.989099,33.5,1,42052,37171186
115,6,-0.674832,-0.0742727,9.78693,0.071752,-0.623641,0.983833,-0.00674982,-0.000752937,0.0978691,1,5.13158e-05,-7.75644e-06,1.22616e-05,0.0102632,-0.00155129,0.00245232,0,0,0,0,0.0442497,0.518565,-0.985127,33.5,1,42053,37171286
116,1,-0.674832,-0.0742727,9.78693,0.071752,-0.623641,0.983833,-0.00674982,-0.000752937,0.0978691,1,5.13158e-05,-7.75644e-06,1.22616e-05,0.0102632,-0.00155129,0.00245232,0,0,0,0,0.0442497,0.518565,-0.985127,33.5,1,42053,37171286
116,2,-0.688893,-0.0849007,9.78118,0.0597155,-0.630991,0.975544,-0.00689313,-0.000858518,0.0978114,1,4.70375e-05,-2.16475e-05,2.2482e-05,0.0094075,-0.00432951,0.00449639,0,0,0,0,0.044328,0.51899,-0.981583,33.5,1,42054,37171386
117,1,-0.688893,-0.0849007,9.78118,0.0597155,-0.630991,0.975544,-0.00689313,-0.000858518,0.0978114,1,4.70375e-05,-2.16475e-05,2.2482e-05,0.0094075,-0.00432951,0.00449639,0,0,0,0,0.044328,0.51899,-0.981583,33.5,1,42054,37171386
117,2,-0.674818,-0.0755946,9.78522,0.0695636,-0.625811,0.978075,-0.00675063,-0.000765672,0.097852,1,4.79314e-05,-1.27703e-05,2.56544e-05,0.00958628,-0.00255406,0.00513087,0,0,0,0,0.0466486,0.523369,-0.982001,33.5,1,42055,37171486
118,1,-0.674818,-0.0755946,9.78522,0.0695636,-0.625811,0.978075,-0.00675063,-0.000765672,0.097852,1,4.79314e-05,-1.27703e-05,2.56544e-05,0.00958628,-0.00255406,0.00513087,0,0,0,0,0.0466486,0.523369,-0.982001,33.5,1,42055,37171486
118,2,-0.67119,-0.0803642,9.79329,0.0809197,-0.627409,0.984147,-0.00671174,-0.000813238,0.0979328,1,4.8602e-05,7.52354e-07,5.70019e-06,0.00972039,0.000150471,0.00114004,0,0,0,0,0.0489564,0.526312,-0.983967,33.5,1,42056,37171586
118,3,-0.67119,-0.0803642,9.79329,0.0809197,-0.627409,0.984147,-0.00671174,-0.000813238,0.0979328,1,4.8602e-05,7.52354e-07,5.70019e-06,0.00972039,0.000150471,0.00114004,0,0,0,0,0.0489564,0.526312,-0.983967,33.5,1,42056,37171586
118,4,-0.681169,-0.0818755,9.78658,0.060224,-0.631214,0.976779,-0.00681504,-0.00082813,0.0978654,1,4.66295e-05,-1.72723e-05,1.81869e-05,0.00932589,-0.00345446,0.00363737,0,0,0,0,0.0474139,0.524951,-0.98904,33.5,1,42057,37171686
119,1,-0.681169,-0.0818755,9.78658,0.060224,-0.631214,0.976779,-0.00681504,-0.00082813,0.0978654,1,4.66295e-05,-1.72723e-05,1.81869e-05,0.00932589,-0.00345446,0.00363737,0,0,0,0,0.0474139,0.524951,-0.98904,33.5,1,42057,37171686
119,2,-0.679184,-0.073858,9.79171,0.0605351,-0.626695,0.978441,-0.00679492,-0.000750835,0.0979168,1,6.10277e-05,-1.58995e-05,2.23109e-05,0.0122055,-0.00317989,0.00446219,0,0,0,0,0.0455208,0.520125,-0.991159,33.5,1,42058,37171786
119,3,-0.679184,-0.073858,9.79171,0.0605351,-0.626695,0.978441,-0.00679492,-0.000750835,0.0979168,1,6.10277e-05,-1.58995e-05,2.23109e-05,0.0122055,-0.00317989,0.00446219,0,0,0,0,0.0455208,0.520125,-0.991159,33.5,1,42058,37171786
119,4,-0.671867,-0.0896021,9.78544,0.0706391,-0.640079,0.978358,-0.00672256,-0.00090513,0.097854,1,4.49849e-05,-2.00512e-05,2.26647e-05,0.00899697,-0.00401025,0.00453293,0,0,0,0,0.0451792,0.519063,-0.98613,33.5,1,42059,37171886
120,1,-0.671867,-0.0896021,9.78544,0.0706391,-0.640079,0.978358,-0.00672256,-0.00090513,0.097854,1,4.49849e-05,-2.00512e-05,2.26647e-05,0.00899697,-0.00401025,0.00453293,0,0,0,0,0.0451792,0.519063,-0.98613,33.5,1,42059,37171886
120,2,-0.674333,-0.0778405,9.78928,0.0708326,-0.624473,0.979119,-0.00674679,-0.000785906,0.0978925,1,3.67127e-05,-1.78574e-05,2.31823e-05,0.00734254,-0.00357148,0.00463646,0,0,0,0,0.0462529,0.520419,-0.98055,33.5,1,42060,37171986
120,3,-0.674333,-0.0778405,9.78928,0.0708326,-0.624473,0.979119,-0.00674679,-0.000785906,0.0978925,1,3.67127e-05,-1.78574e-05,2.31823e-05,0.00734254,-0.00357148,0.00463646,0,0,0,0,0.0462529,0.520419,-0.98055,33.5,1,42060,37171986
120,4,-0.67224,-0.0737692,9.8005,0.0778271,-0.616843,0.990985,-0.00672646,-0.000746373,0.0980047,1,4.3139e-05,-2.08429e-05,1.67655e-05,0.0086278,-0.00416857,0.0033531,0,0,0,0,0.0466529,0.523848,-0.981485,33.5,1,42061,37172086
121,1,-0.67224,-0.0737692,9.8005,0.0778271,-0.616843,0.990985,-0.00672646,-0.000746373,0.0980047,1,4.3139e-05,-2.08429e-05,1.67655e-05,0.0086278,-0.00416857,0.0033531,0,0,0,0,0.0466529,0.523848,-0.981485,33.5,1,42061,37172086
121,2,-0.671391,-0.079625,9.78721,0.0689088,-0.631684,0.977154,-0.0067158,-0.000807208,0.0978718,1,5.56222e-05,-9.70653e-06,5.27694e-06,0.0111244,-0.00194131,0.00105539,0,0,0,0,0.0489152,0.52586,-0.985997,33.5,1,42062,37172186
121,3,-0.671391,-0.079625,9.78721,0.0689088,-0.631684,0.977154,-0.0067158,-0.000807208,0.0978718,1,5.56222e-05,-9.70653e-06,5.27694e-06,0.0111244,-0.00194131,0.00105539,0,0,0,0,0.0489152,0.52586,-0.985997,33.5,1,42062,37172186
121,4,-0.686381,-0.0796893,9.7968,0.0560079,-0.637037,0.983465,-0.00686438,-0.000804502,0.0979679,1,3.7888e-05,-3.0026e-06,1.34783e-05,0.0075776,-0.000600521,0.00269565,0,0,0,0,0.0483472,0.524482,-0.99057,33.5,1,42063,37172286
122,1,-0.686381,-0.0796893,9.7968,0.0560079,-0.637037,0.983465,-0.00686438,-0.000804502,0.0979679,1,3.7888e-05,-3.0026e-06,1.34783e-05,0.0075776,-0.000600521,0.00269565,0,0,0,0,0.0483472,0.524482,-0.99057,33.5,1,42063,37172286
122,2,-0.673031,-0.0856793,9.79395,0.0699553,-0.636727,0.983041,-0.00673041,-0.000865111,0.0979394,1,4.10081e-05,-6.65389e-07,2.11725e-05,0.00820162,-0.000133078,0.0042345,0,0,0,0,0.0459616,0.52256,-0.991107,33.5,1,42064,37172386
122,3,-0.673031,-0.0856793,9.79395,0.0699553,-0.636727,0.983041,-0.00673041,-0.000865111,0.0979394,1,4.10081e-05,-6.65389e-07,2.11725e-05,0.00820162,-0.000133078,0.0042345,0,0,0,0,0.0459616,0.52256,-0.991107,33.5,1,42064,37172386
122,4,-0.67624,-0.0760616,9.79167,0.0682673,-0.628386,0.982657,-0.00676324,-0.000770329,0.0979166,1,4.88571e-05,-4.37187e-06,1.07383e-05,0.00977143,-0.000874374,0.00214766,0,0,0,0,0.0446658,0.521018,-0.986085,33.5,1,42065,37172486
123,1,-0.67624,-0.0760616,9.79167,0.0682673,-0.628386,0.982657,-0.00676324,-0.000770329,0.0979166,1,4.88571e-05,-4.37187e-06,1.07383e-05,0.00977143,-0.000874374,0.00214766,0,0,0,0,0.0446658,0.521018,-0.986085,33.5,1,42065,37172486
123,2,-0.672966,-0.0792778,9.79163,0.0721386,-0.632795,0.983942,-0.0067326,-0.000804444,0.097916,1,5.8651e-05,-1.50744e-05,1.34016e-05,0.0117302,-0.00301487,0.00268032,0,0,0,0,0.0453068,0.519452,-0.980567,33.5,1,42066,37172586
124,1,-0.672966,-0.0792778,9.79163,0.0721386,-0.632795,0.983942,-0.0067326,-0.000804444,0.097916,1,5.8651e-05,-1.50744e-05,1.34016e-05,0.0117302,-0.00301487,0.00268032,0,0,0,0,0.0453068,0.519452,-0.980567,33.5,1,42066,37172586
124,2,-0.683406,-0.0726114,9.787,0.0655837,-0.627392,0.980504,-0.00683607,-0.00073579,0.0978698,1,4.88739e-05,-1.03282e-05,8.00035e-06,0.00977478,-0.00206565,0.00160007,0,0,0,0,0.0462168,0.523337,-0.97998,33.5,1,42067,37172686
124,3,-0.683406,-0.0726114,9.787,0.0655837,-0.627392,0.980504,-0.00683607,-0.00073579,0.0978698,1,4.88739e-05,-1.03282e-05,8.00035e-06,0.00977478,-0.00206565,0.00160007,0,0,0,0,0.0462168,0.523337,-0.97998,33.5,1,42067,37172686
124,4,-0.682926,-0.0774769,9.79476,0.0643568,-0.630851,0.988794,-0.00683016,-0.000784663,0.0979474,1,4.947e-05,-4.70874e-06,1.49047e-05,0.00989401,-0.000941748,0.00298095,0,0,0,0,0.0474889,0.527787,-0.983927,33.5,1,42068,37172786
125,1,-0.682926,-0.0774769,9.79476,0.0643568,-0.630851,0.988794,-0.00683016,-0.000784663,0.0979474,1,4.947e-05,-4.70874e-06,1.49047e-05,0.00989401,-0.000941748,0.00298095,0,0,0,0,0.0474889,0.527787,-0.983927,33.5,1,42068,37172786
125,2,-0.687746,-0.0778719,9.78665,0.0501174,-0.634884,0.979635,-0.00687882,-0.000786516,0.0978663,1,3.92515e-05,-6.99984e-06,8.29993e-06,0.00785031,-0.00139997,0.00165999,0,0,0,0,0.0473731,0.525944,-0.990028,33.5,1,42069,37172886
125,3,-0.687746,-0.0778719,9.78665,0.0501174,-0.634884,0.979635,-0.00687882,-0.000786516,0.0978663,1,3.92515e-05,-6.99984e-06,8.29993e-06,0.00785031,-0.00139997,0.00165999,0,0,0,0,0.0473731,0.525944,-0.990028,33.5,1,42069,37172886
125,4,-0.675589,-0.0722866,9.78627,0.0666958,-0.627083,0.973412,-0.00675675,-0.000731265,0.0978626,1,4.24813e-05,-4.46499e-06,6.26035e-06,0.00849626,-0.000892999,0.00125207,0,0,0,0,0.0450155,0.521592,-0.991124,33.5,1,42070,37172986
125,5,-0.675589,-0.0722866,9.78627,0.0666958,-0.627083,0.973412,-0.00675675,-0.000731265,0.0978626,1,4.24813e-05,-4.46499e-06,6.26035e-06,0.00849626,-0.000892999,0.00125207,0,0,0,0,0.0450155,0.521592,-0.991124,33.5,1,42070,37172986
125,6,-0.676164,-0.0811007,9.78823,0.0651461,-0.638285,0.981487,-0.00676214,-0.00082077,0.0978822,1,4.93527e-05,-2.65605e-06,7.47656e-06,0.00987053,-0.000531209,0.00149531,0,0,0,0,0.0446696,0.520052,-0.986611,33.5,1,42071,37173086
126,1,-0.676164,-0.0811007,9.78823,0.0651461,-0.638285,0.981487,-0.00676214,-0.00082077,0.0978822,1,4.93527e-05,-2.65605e-06,7.47656e-06,0.00987053,-0.000531209,0.00149531,0,0,0,0,0.0446696,0.520052,-0.986611,33.5,1,42071,37173086
126,2,-0.683802,-0.0743299,9.7863,0.0645293,-0.631123,0.97723,-0.00683874,-0.000753661,0.0978629,1,5.24036e-05,-3.76656e-06,7.62597e-06,0.0104807,-0.000753313,0.00152519,0,0,0,0,0.0462449,0.520907,-0.980539,33.5,1,42072,37173186
126,3,-0.683802,-0.0743299,9.7863,0.0645293,-0.631123,0.97723,-0.00683874,-0.000753661,0.0978629,1,5.24036e-05,-3.76656e-06,7.62597e-06,0.0104807,-0.000753313,0.00152519,0,0,0,0,0.0462449,0.520907,-0.980539,33.5,1,42072,37173186
126,4,-0.67258,-0.0732925,9.78692,0.0709685,-0.625388,0.975567,-0.00672595,-0.000740621,0.0978691,1,3.85437e-05,-8.69853e-07,1.12692e-05,0.00770873,-0.000173971,0.00225383,0,0,0,0,0.0466775,0.52383,-0.980476,33.5,1,42073,37173286
127,1,-0.67258,-0.0732925,9.78692,0.0709685,-0.625388,0.975567,-0.00672595,-0.000740621,0.0978691,1,3.85437e-05,-8.69853e-07,1.12692e-05,0.00770873,-0.000173971,0.00225383,0,0,0,0,0.0466775,0.52383,-0.980476,33.5,1,42073,37173286
127,2,-0.679553,-0.0814444,9.7886,0.0616559,-0.636018,0.979509,-0.00679824,-0.000824809,0.0978857,1,5.1746e-05,-1.39978e-05,1.72895e-05,0.0103492,-0.00279955,0.00345789,0,0,0,0,0.0484791,0.525349,-0.984491,33.5,1,42074,37173386
127,3,-0.679553,-0.0814444,9.7886,0.0616559,-0.636018,0.979509,-0.00679824,-0.000824809,0.0978857,1,5.1746e-05,-1.39978e-05,1.72895e-05,0.0103492,-0.00279955,0.00345789,0,0,0,0,0.0484791,0.525349,-0.984491,33.5,1,42074,37173386
127,4,-0.679227,-0.0850357,9.79874,0.0669881,-0.644131,0.98821,-0.00679285,-0.00085891,0.0979872,1,4.23229e-05,-3.16098e-06,1.90309e-05,0.00846457,-0.000632195,0.00380619,0,0,0,0,0.0487918,0.52595,-0.991045,33.5,1,42075,37173486
128,1,-0.679227,-0.0850357,9.79874,0.0669881,-0.644131,0.98821,-0.00679285,-0.00085891,0.0979872,1,4.23229e-05,-3.16098e-06,1.90309e-05,0.00846457,-0.000632195,0.00380619,0,0,0,0,0.0487918,0.52595,-0.991045,33.5,1,42075,37173486
128,2,-0.670023,-0.0700422,9.78762,0.0729343,-0.633772,0.975297,-0.00670403,-0.000711786,0.0978758,1,5.69222e-05,-1.95395e-05,1.64975e-05,0.0113844,-0.00390791,0.00329951,0,0,0,0,0.0459654,0.521593,-0.991634,33.5,1,42076,37173586
128,3,-0.670023,-0.0700422,9.78762,0.0729343,-0.633772,0.975297,-0.00670403,-0.000711786,0.0978758,1,5.69222e-05,-1.95395e-05,1.64975e-05,0.0113844,-0.00390791,0.00329951,0,0,0,0,0.0459654,0.521593,-0.991634,33.5,1,42076,37173586
128,4,-0.678949,-0.078943,9.78895,0.0595364,-0.641462,0.982746,-0.0067905,-0.000795882,0.0978894,1,3.21827e-05,-5.28079e-06,1.1176e-05,0.00643654,-0.00105616,0.00223521,0,0,0,0,0.0432713,0.519549,-0.985101,33.5,1,42077,37173686
128,5,-0.678949,-0.078943,9.78895,0.0595364,-0.641462,0.982746,-0.0067905,-0.000795882,0.0978894,1,3.21827e-05,-5.28079e-06,1.1176e-05,0.00643654,-0.00105616,0.00223521,0,0,0,0,0.0432713,0.519549,-0.985101,33.5,1,42077,37173686
128,6,-0.679621,-0.0733095,9.78799,0.0633793,-0.635137,0.981566,-0.00679748,-0.000742041,0.0978798,1,4.45079e-05,-6.60844e-06,1.71158e-05,0.00890158,-0.00132169,0.00342317,0,0,0,0,0.0452869,0.521394,-0.980018,33.5,1,42078,37173786
129,1,-0.679621,-0.0733095,9.78799,0.0633793,-0.635137,0.981566,-0.00679748,-0.000742041,0.0978798,1,4.45079e-05,-6.60844e-06,1.71158e-05,0.00890158,-0.00132169,0.00342317,0,0,0,0,0.0452869,0.521394,-0.980018,33.5,1,42078,37173786
129,2,-0.671633,-0.0824261,9.78447,0.0741561,-0.638484,0.976249,-0.00671933,-0.00083312,0.0978444,1,4.35766e-05,-1.554e-05,2.46708e-05,0.00871532,-0.003108,0.00493415,0,0,0,0,0.0462173,0.524782,-0.978937,33.5,1,42079,37173886
130,1,-0.671633,-0.0824261,9.78447,0.0741561,-0.638484,0.976249,-0.00671933,-0.00083312,0.0978444,1,4.35766e-05,-1.554e-05,2.46708e-05,0.00871532,-0.003108,0.00493415,0,0,0,0,0.0462173,0.524782,-0.978937,33.5,1,42079,37173886
130,2,-0.68489,-0.0745303,9.79345,0.0561045,-0.633878,0.983901,-0.00685216,-0.000751592,0.0979342,1,3.09311e-05,-1.6803e-05,1.68382e-05,0.00618622,-0.0033606,0.00336765,0,0,0,0,0.047505,0.526811,-0.983949,33.5,1,42080,37173986
130,3,-0.68489,-0.0745303,9.79345,0.0561045,-0.633878,0.983901,-0.00685216,-0.000751592,0.0979342,1,3.09311e-05,-1.6803e-05,1.68382e-05,0.00618622,-0.0033606,0.00336765,0,0,0,0,0.047505,0.526811,-0.983949,33.5,1,42080,37173986
130,4,-0.672945,-0.0729202,9.78965,0.0693707,-0.634005,0.975938,-0.00673422,-0.000738466,0.0978961,1,4.65903e-05,-2.44344e-05,1.05162e-05,0.00931805,-0.00488688,0.00210325,0,0,0,0,0.0482737,0.525981,-0.992557,33.5,1,42081,37174086
131,1,-0.672945,-0.0729202,9.78965,0.0693707,-0.634005,0.975938,-0.00673422,-0.000738466,0.0978961,1,4.65903e-05,-2.44344e-05,1.05162e-05,0.00931805,-0.00488688,0.00210325,0,0,0,0,0.0482737,0.525981,-0.992557,33.5,1,42081,37174086
131,2,-0.677854,-0.0792433,9.79064,0.0676669,-0.643007,0.976947,-0.00678028,-0.000798766,0.0979062,1,3.07857e-05,-9.07107e-06,2.24543e-05,0.00615715,-0.00181422,0.00449086,0,0,0,0,0.0464384,0.522077,-0.991625,33.5,1,42082,37174186
132,1,-0.677854,-0.0792433,9.79064,0.0676669,-0.643007,0.976947,-0.00678028,-0.000798766,0.0979062,1,3.07857e-05,-9.07107e-06,2.24543e-05,0.00615715,-0.00181422,0.00449086,0,0,0,0,0.0464384,0.522077,-0.991625,33.5,1,42082,37174186
132,2,-0.674285,-0.07192,9.77982,0.0656103,-0.63198,0.972761,-0.00674317,-0.000726699,0.0977981,1,3.76702e-05,-1.68399e-06,9.71922e-06,0.00753403,-0.000336799,0.00194384,0,0,0,0,0.0442212,0.51955,-0.98561,33.5,1,42083,37174286
132,3,-0.674285,-0.07192,9.77982,0.0656103,-0.63198,0.972761,-0.00674317,-0.000726699,0.0977981,1,3.76702e-05,-1.68399e-06,9.71922e-06,0.00753403,-0.000336799,0.00194384,0,0,0,0,0.0442212,0.51955,-0.98561,33.5,1,42083,37174286
132,4,-0.676572,-0.0747417,9.7849,0.061906,-0.636087,0.978761,-0.00676795,-0.000753984,0.0978488,1,3.18493e-05,-1.15762e-05,2.46393e-05,0.00636985,-0.00231524,0.00492786,0,0,0,0,0.0452988,0.51994,-0.980556,33.5,1,42084,37174386
132,5,-0.676572,-0.0747417,9.7849,0.061906,-0.636087,0.978761,-0.00676795,-0.000753984,0.0978488,1,3.18493e-05,-1.15762e-05,2.46393e-05,0.00636985,-0.00231524,0.00492786,0,0,0,0,0.0452988,0.51994,-0.980556,33.5,1,42084,37174386
132,6,-0.664735,-0.068516,9.78386,0.075555,-0.628544,0.976916,-0.00664851,-0.000696763,0.0978384,1,5.81629e-05,-6.0367e-06,1.66596e-05,0.0116326,-0.00120734,0.00333192,0,0,0,0,0.0476151,0.52384,-0.98149,33.5,1,42085,37174486
133,1,-0.664735,-0.068516,9.78386,0.075555,-0.628544,0.976916,-0.00664851,-0.000696763,0.0978384,1,5.81629e-05,-6.0367e-06,1.66596e-05,0.0116326,-0.00120734,0.00333192,0,0,0,0,0.0476151,0.52384,-0.98149,33.5,1,42085,37174486
133,2,-0.680627,-0.0737767,9.79613,0.0604119,-0.635961,0.983501,-0.00680755,-0.000744924,0.0979612,1,3.60328e-05,-6.61991e-06,7.1695e-06,0.00720657,-0.00132398,0.0014339,0,0,0,0,0.0494129,0.526326,-0.984978,33.5,1,42086,37174586
133,3,-0.680627,-0.0737767,9.79613,0.0604119,-0.635961,0.983501,-0.00680755,-0.000744924,0.0979612,1,3.60328e-05,-6.61991e-06,7.1695e-06,0.00720657,-0.00132398,0.0014339,0,0,0,0,0.0494129,0.526326,-0.984978,33.5,1,42086,37174586
133,4,-0.679026,-0.0691271,9.77988,0.0645132,-0.62864,0.969313,-0.00679072,-0.00069987,0.0977987,1,4.32916e-05,-2.45113e-06,9.69305e-06,0.00865833,-0.000490225,0.00193861,0,0,0,0,0.0469285,0.524476,-0.989554,33.5,1,42087,37174686
134,1,-0.679026,-0.0691271,9.77988,0.0645132,-0.62864,0.969313,-0.00679072,-0.00069987,0.0977987,1,4.32916e-05,-2.45113e-06,9.69305e-06,0.00865833,-0.000490225,0.00193861,0,0,0,0,0.0469285,0.524476,-0.989554,33.5,1,42087,37174686
134,2,-0.686618,-0.0754624,9.79243,0.05401,-0.640158,0.983008,-0.00686927,-0.000763383,0.097924,1,4.34983e-05,-1.59126e-05,1.7453e-05,0.00869966,-0.00318253,0.0034906,0,0,0,0,0.0440822,0.522061,-0.989594,33.5,1,42088,37174786
135,1,-0.686618,-0.0754624,9.79243,0.05401,-0.640158,0.983008,-0.00686927,-0.000763383,0.097924,1,4.34983e-05,-1.59126e-05,1.7453e-05,0.00869966,-0.00318253,0.0034906,0,0,0,0,0.0440822,0.522061,-0.989594,33.5,1,42088,37174786
135,2,-0.6836,-0.0733458,9.79107,0.0609489,-0.637952,0.981158,-0.00683815,-0.000742612,0.0979105,1,4.47688e-05,-1.11871e-05,2.82841e-05,0.00895375,-0.00223743,0.00565683,0,0,0,0,0.0442089,0.519559,-0.986115,33.5,1,42089,37174886
136,1,-0.6836,-0.0733458,9.79107,0.0609489,-0.637952,0.981158,-0.00683815,-0.000742612,0.0979105,1,4.47688e-05,-1.11871e-05,2.82841e-05,0.00895375,-0.00223743,0.00565683,0,0,0,0,0.0442089,0.519559,-0.986115,33.5,1,42089,37174886
136,2,-0.674736,-0.0838601,9.79363,0.0688939,-0.646773,0.988272,-0.00674869,-0.000848933,0.0979361,1,5.16697e-05,-6.94978e-06,1.56984e-05,0.0103339,-0.00138996,0.00313968,0,0,0,0,0.0467336,0.51897,-0.981594,33.5,1,42090,37174986
136,3,-0.674736,-0.0838601,9.79363,0.0688939,-0.646773,0.988272,-0.00674869,-0.000848933,0.0979361,1,5.16697e-05,-6.94978e-06,1.56984e-05,0.0103339,-0.00138996,0.00313968,0,0,0,0,0.0467336,0.51897,-0.981594,33.5,1,42090,37174986
136,4,-0.672441,-0.0788603,9.79501,0.0735266,-0.637503,0.988548,-0.00672471,-0.000796136,0.0979501,1,3.72231e-05,-1.65036e-06,1.79038e-05,0.00744461,-0.000330073,0.00358076,0,0,0,0,0.048602,0.523814,-0.980485,33.5,1,42091,37175086
137,1,-0.672441,-0.0788603,9.79501,0.0735266,-0.637503,0.988548,-0.00672471,-0.000796136,0.0979501,1,3.72231e-05,-1.65036e-06,1.79038e-05,0.00744461,-0.000330073,0.00358076,0,0,0,0,0.048602,0.523814,-0.980485,33.5,1,42091,37175086
137,2,-0.677885,-0.0849769,9.78923,0.0645811,-0.644615,0.977254,-0.00677895,-0.000857486,0.0978922,1,3.80277e-05,-6.83702e-07,2.00421e-05,0.00760555,-0.00013674,0.00400842,0,0,0,0,0.0489441,0.526321,-0.984471,33.5,1,42092,37175186
137,3,-0.677885,-0.0849769,9.78923,0.0645811,-0.644615,0.977254,-0.00677895,-0.000857486,0.0978922,1,3.80277e-05,-6.83702e-07,2.00421e-05,0.00760555,-0.00013674,0.00400842,0,0,0,0,0.0489441,0.526321,-0.984471,33.5,1,42092,37175186
137,4,-0.678826,-0.0774857,9.79135,0.0607369,-0.640739,0.976953,-0.00679058,-0.000784019,0.0979132,1,4.58323e-05,-1.19936e-05,1.37257e-05,0.00916646,-0.00239871,0.00274514,0,0,0,0,0.0473812,0.525456,-0.990039,33.5,1,42093,37175286
138,1,-0.678826,-0.0774857,9.79135,0.0607369,-0.640739,0.976953,-0.00679058,-0.000784019,0.0979132,1,4.58323e-05,-1.19936e-05,1.37257e-05,0.00916646,-0.00239871,0.00274514,0,0,0,0,0.0473812,0.525456,-0.990039,33.5,1,42093,37175286
138,2,-0.68028,-0.0760096,9.79068,0.0618417,-0.637013,0.97738,-0.0068035,-0.000770043,0.0979067,1,4.90397e-05,-3.78315e-06,2.53022e-05,0.00980794,-0.000756629,0.00506043,0,0,0,0,0.0469276,0.521585,-0.991638,33.5,1,42094,37175386
138,3,-0.68028,-0.0760096,9.79068,0.0618417,-0.637013,0.97738,-0.0068035,-0.000770043,0.0979067,1,4.90397e-05,-3.78315e-06,2.53022e-05,0.00980794,-0.000756629,0.00506043,0,0,0,0,0.0469276,0.521585,-0.991638,33.5,1,42094,37175386
138,4,-0.670717,-0.0785919,9.78178,0.0746883,-0.640092,0.971721,-0.00670936,-0.00079739,0.0978176,1,5.73714e-05,-1.1375e-05,1.84196e-05,0.0114743,-0.00227499,0.00368391,0,0,0,0,0.0456888,0.518075,-0.98565,33.5,1,42095,37175486
138,5,-0.670717,-0.0785919,9.78178,0.0746883,-0.640092,0.971721,-0.00670936,-0.00079739,0.0978176,1,5.73714e-05,-1.1375e-05,1.84196e-05,0.0114743,-0.00227499,0.00368391,0,0,0,0,0.0456888,0.518075,-0.98565,33.5,1,42095,37175486
138,6,-0.67822,-0.0808495,9.7913,0.0651762,-0.646187,0.985611,-0.00678093,-0.000817772,0.0979131,1,4.59367e-05,6.31815e-06,2.0716e-05,0.00918734,0.00126363,0.00414319,0,0,0,0,0.0467706,0.518943,-0.98008,33.5,1,42096,37175586
138,7,-0.67822,-0.0808495,9.7913,0.0651762,-0.646187,0.985611,-0.00678093,-0.000817772,0.0979131,1,4.59367e-05,6.31815e-06,2.0716e-05,0.00918734,0.00126363,0.00414319,0,0,0,0,0.0467706,0.518943,-0.98008,33.5,1,42096,37175586
138,8,-0.67403,-0.074499,9.79539,0.0695649,-0.642041,0.985954,-0.0067375,-0.000751331,0.097954,1,3.17748e-05,1.41953e-05,8.63167e-06,0.00635496,0.00283906,0.00172633,0,0,0,0,0.0471667,0.523338,-0.980489,33.5,1,42097,37175686
139,1,-0.67403,-0.074499,9.79539,0.0695649,-0.642041,0.985954,-0.0067375,-0.000751331,0.097954,1,3.17748e-05,1.41953e-05,8.63167e-06,0.00635496,0.00283906,0.00172633,0,0,0,0,0.0471667,0.523338,-0.980489,33.5,1,42097,37175686
139,2,-0.673339,-0.0729041,9.79271,0.0674563,-0.63226,0.97935,-0.00673651,-0.000739041,0.0979268,1,5.03623e-05,-1.59904e-05,1.00675e-05,0.0100725,-0.00319808,0.0020135,0,0,0,0,0.0465262,0.52635,-0.984965,33.5,1,42098,37175786
139,3,-0.673339,-0.0729041,9.79271,0.0674563,-0.63226,0.97935,-0.00673651,-0.000739041,0.0979268,1,5.03623e-05,-1.59904e-05,1.00675e-05,0.0100725,-0.00319808,0.0020135,0,0,0,0,0.0465262,0.52635,-0.984965,33.5,1,42098,37175786
139,4,-0.683696,-0.0686321,9.79823,0.0638134,-0.629266,0.986451,-0.0068376,-0.000694138,0.0979822,1,3.83239e-05,-3.43654e-06,2.24691e-05,0.00766478,-0.000687308,0.00449383,0,0,0,0,0.0464147,0.524986,-0.99055,33.5,1,42099,37175886
140,1,-0.683696,-0.0686321,9.79823,0.0638134,-0.629266,0.986451,-0.0068376,-0.000694138,0.0979822,1,3.83239e-05,-3.43654e-06,2.24691e-05,0.00766478,-0.000687308,0.00449383,0,0,0,0,0.0464147,0.524986,-0.99055,33.5,1,42099,37175886
140,2,-0.678183,-0.070041,9.78666,0.0623719,-0.633846,0.97551,-0.0067854,-0.000712426,0.0978662,1,6.00741e-05,-1.83914e-05,1.90232e-05,0.0120148,-0.00367829,0.00380464,0,0,0,0,0.0455455,0.520107,-0.990149,33.5,1,42100,37175986
140,3,-0.678183,-0.070041,9.78666,0.0623719,-0.633846,0.97551,-0.0067854,-0.000712426,0.0978662,1,6.00741e-05,-1.83914e-05,1.90232e-05,0.0120148,-0.00367829,0.00380464,0,0,0,0,0.0455455,0.520107,-0.990149,33.5,1,42100,37175986
140,4,-0.69161,-0.0834195,9.79782,0.0526918,-0.647897,0.992165,-0.00691926,-0.000843782,0.0979779,1,4.7842e-05,-1.62629e-05,1.53276e-05,0.0095684,-0.00325259,0.00306553,0,0,0,0,0.0432709,0.518104,-0.986143,33.5,1,42101,37176086
140,5,-0.69161,-0.0834195,9.79782,0.0526918,-0.647897,0.992165,-0.00691926,-0.000843782,0.0979779,1,4.7842e-05,-1.62629e-05,1.53276e-05,0.0095684,-0.00325259,0.00306553,0,0,0,0,0.0432709,0.518104,-0.986143,33.5,1,42101,37176086
140,6,-0.672789,-0.07739,9.78825,0.0689995,-0.646246,0.980512,-0.00672999,-0.000782822,0.0978822,1,4.45824e-05,-1.08052e-05,1.44673e-05,0.00891647,-0.00216105,0.00289346,0,0,0,0,0.0443199,0.519478,-0.981572,33.5,1,42102,37176186
140,7,-0.672789,-0.07739,9.78825,0.0689995,-0.646246,0.980512,-0.00672999,-0.000782822,0.0978822,1,4.45824e-05,-1.08052e-05,1.44673e-05,0.00891647,-0.00216105,0.00289346,0,0,0,0,0.0443199,0.519478,-0.981572,33.5,1,42102,37176186
140,8,-0.672323,-0.0741725,9.78693,0.0701899,-0.637895,0.975982,-0.00672772,-0.000752546,0.0978689,1,5.42886e-05,-2.30932e-05,1.451e-05,0.0108577,-0.00461865,0.00290199,0,0,0,0,0.0485977,0.523335,-0.981001,33.5,1,42103,37176286
141,1,-0.672323,-0.0741725,9.78693,0.0701899,-0.637895,0.975982,-0.00672772,-0.000752546,0.0978689,1,5.42886e-05,-2.30932e-05,1.451e-05,0.0108577,-0.00461865,0.00290199,0,0,0,0,0.0485977,0.523335,-0.981001,33.5,1,42103,37176286
141,2,-0.684584,-0.0816382,9.79033,0.0614902,-0.6495,0.978948,-0.00684895,-0.000825242,0.097903,1,4.51617e-05,-1.5907e-05,1.26297e-06,0.00903234,-0.0031814,0.000252594,0,0,0,0,0.048973,0.526781,-0.982946,33.5,1,42104,37176386
141,3,-0.684584,-0.0816382,9.79033,0.0614902,-0.6495,0.978948,-0.00684895,-0.000825242,0.097903,1,4.51617e-05,-1.5907e-05,1.26297e-06,0.00903234,-0.0031814,0.000252594,0,0,0,0,0.048973,0.526781,-0.982946,33.5,1,42104,37176386
141,4,-0.666251,-0.0765399,9.78143,0.0719086,-0.642968,0.969788,-0.0066671,-0.0007741,0.097814,1,4.36305e-05,-2.35663e-05,1.24203e-05,0.00872609,-0.00471327,0.00248407,0,0,0,0,0.0468763,0.528369,-0.988962,33.5,1,42105,37176486
142,1,-0.666251,-0.0765399,9.78143,0.0719086,-0.642968,0.969788,-0.0066671,-0.0007741,0.097814,1,4.36305e-05,-2.35663e-05,1.24203e-05,0.00872609,-0.00471327,0.00248407,0,0,0,0,0.0468763,0.528369,-0.988962,33.5,1,42105,37176486
142,2,-0.679151,-0.0727275,9.80258,0.0645086,-0.643265,0.989559,-0.00679301,-0.000735632,0.0980256,1,4.16804e-05,-7.73581e-06,1.36755e-05,0.00833608,-0.00154716,0.0027351,0,0,0,0,0.0449628,0.52404,-0.991575,33.5,1,42106,37176586
143,1,-0.679151,-0.0727275,9.80258,0.0645086,-0.643265,0.989559,-0.00679301,-0.000735632,0.0980256,1,4.16804e-05,-7.73581e-06,1.36755e-05,0.00833608,-0.00154716,0.0027351,0,0,0,0,0.0449628,0.52404,-0.991575,33.5,1,42106,37176586
143,2,-0.676427,-0.0715494,9.78664,0.0658222,-0.643803,0.981012,-0.00676833,-0.000724142,0.097866,1,4.29843e-05,-2.08449e-05,1.73431e-05,0.00859685,-0.00416897,0.00346861,0,0,0,0,0.0437112,0.519093,-0.987133,33.5,1,42107,37176686
143,3,-0.676427,-0.0715494,9.78664,0.0658222,-0.643803,0.981012,-0.00676833,-0.000724142,0.097866,1,4.29843e-05,-2.08449e-05,1.73431e-05,0.00859685,-0.00416897,0.00346861,0,0,0,0,0.0437112,0.519093,-0.987133,33.5,1,42107,37176686
143,4,-0.672939,-0.0702232,9.78864,0.0679279,-0.641758,0.980818,-0.00672975,-0.000709857,0.0978863,1,3.68541e-05,-2.04139e-06,3.04079e-05,0.00737082,-0.000408279,0.00608158,0,0,0,0,0.0438678,0.519943,-0.980044,33.5,1,42108,37176786
144,1,-0.672939,-0.0702232,9.78864,0.0679279,-0.641758,0.980818,-0.00672975,-0.000709857,0.0978863,1,3.68541e-05,-2.04139e-06,3.04079e-05,0.00737082,-0.000408279,0.00608158,0,0,0,0,0.0438678,0.519943,-0.980044,33.5,1,42108,37176786
144,2,-0.674195,-0.0813158,9.7889,0.0701663,-0.653541,0.977702,-0.006742,-0.00082116,0.0978889,1,3.976e-05,-4.09808e-07,1.61082e-05,0.007952,-8.19615e-05,0.00322164,0,0,0,0,0.0466899,0.523821,-0.979971,33.5,1,42109,37176886
144,3,-0.674195,-0.0813158,9.7889,0.0701663,-0.653541,0.977702,-0.006742,-0.00082116,0.0978889,1,3.976e-05,-4.09808e-07,1.61082e-05,0.007952,-8.19615e-05,0.00322164,0,0,0,0,0.0466899,0.523821,-0.979971,33.5,1,42109,37176886
144,4,-0.661553,-0.0697644,9.79163,0.0833808,-0.638809,0.979693,-0.00661744,-0.000706497,0.0979161,1,4.39305e-05,-9.84782e-06,1.88815e-05,0.0087861,-0.00196957,0.00377631,0,0,0,0,0.0494005,0.526335,-0.985483,33.5,1,42110,37176986
144,5,-0.661553,-0.0697644,9.79163,0.0833808,-0.638809,0.979693,-0.00661744,-0.000706497,0.0979161,1,4.39305e-05,-9.84782e-06,1.88815e-05,0.0087861,-0.00196957,0.00377631,0,0,0,0,0.0494005,0.526335,-0.985483,33.5,1,42110,37176986
144,6,-0.674269,-0.076283,9.78249,0.069362,-0.648113,0.968347,-0.00674255,-0.000772372,0.0978249,1,4.69256e-05,5.53249e-07,2.6729e-05,0.00938512,0.00011065,0.0053458,0,0,0,0,0.0478172,0.525967,-0.991545,33.5,1,42111,37177086
144,7,-0.674269,-0.076283,9.78249,0.069362,-0.648113,0.968347,-0.00674255,-0.000772372,0.0978249,1,4.69256e-05,5.53249e-07,2.6729e-05,0.00938512,0.00011065,0.0053458,0,0,0,0,0.0478172,0.525967,-0.991545,33.5,1,42111,37177086
144,8,-0.681947,-0.0752143,9.79104,0.0606747,-0.648636,0.983269,-0.00682066,-0.000764052,0.0979102,1,5.91837e-05,-6.29202e-06,2.33743e-05,0.0118367,-0.0012584,0.00467485,0,0,0,0,0.0468911,0.523058,-0.99211,33.5,1,42112,37177186
145,1,-0.681947,-0.0752143,9.79104,0.0606747,-0.648636,0.983269,-0.00682066,-0.000764052,0.0979102,1,5.91837e-05,-6.29202e-06,2.33743e-05,0.0118367,-0.0012584,0.00467485,0,0,0,0,0.0468911,0.523058,-0.99211,33.5,1,42112,37177186
145,2,-0.686665,-0.0743827,9.78329,0.0573079,-0.647171,0.980308,-0.00686937,-0.000752969,0.0978326,1,4.53779e-05,-1.40367e-05,1.91869e-05,0.00907558,-0.00280734,0.00383738,0,0,0,0,0.0441681,0.520553,-0.987103,33.5,1,42113,37177286
145,3,-0.686665,-0.0743827,9.78329,0.0573079,-0.647171,0.980308,-0.00686937,-0.000752969,0.0978326,1,4.53779e-05,-1.40367e-05,1.91869e-05,0.00907558,-0.00280734,0.00383738,0,0,0,0,0.0441681,0.520553,-0.987103,33.5,1,42113,37177286
145,4,-0.664717,-0.0663751,9.78761,0.0771308,-0.636772,0.982214,-0.00664898,-0.000672808,0.0978759,1,4.64022e-05,-9.26118e-06,-1.98176e-06,0.00928044,-0.00185224,-0.000396352,0,0,0,0,0.0457675,0.519945,-0.981063,33.5,1,42114,37177386
145,5,-0.664717,-0.0663751,9.78761,0.0771308,-0.636772,0.982214,-0.00664898,-0.000672808,0.0978759,1,4.64022e-05,-9.26118e-06,-1.98176e-06,0.00928044,-0.00185224,-0.000396352,0,0,0,0,0.0457675,0.519945,-0.981063,33.5,1,42114,37177386
145,6,-0.675526,-0.0718423,9.78187,0.0676794,-0.64369,0.973903,-0.00675767,-0.000727075,0.0978185,1,4.35952e-05,-1.24034e-05,9.1344e-06,0.00871904,-0.00248068,0.00182688,0,0,0,0,0.0486348,0.523308,-0.979486,33.5,1,42115,37177486
146,1,-0.675526,-0.0718423,9.78187,0.0676794,-0.64369,0.973903,-0.00675767,-0.000727075,0.0978185,1,4.35952e-05,-1.24034e-05,9.1344e-06,0.00871904,-0.00248068,0.00182688,0,0,0,0,0.0486348,0.523308,-0.979486,33.5,1,42115,37177486
146,2,-0.68346,-0.0742487,9.78257,0.0581542,-0.642316,0.969439,-0.00683388,-0.000752577,0.0978257,1,5.04293e-05,3.5428e-06,1.63613e-05,0.0100859,0.000708559,0.00327226,0,0,0,0,0.0485,0.526298,-0.982955,33.5,1,42116,37177586
146,3,-0.68346,-0.0742487,9.78257,0.0581542,-0.642316,0.969439,-0.00683388,-0.000752577,0.0978257,1,5.04293e-05,3.5428e-06,1.63613e-05,0.0100859,0.000708559,0.00327226,0,0,0,0,0.0485,0.526298,-0.982955,33.5,1,42116,37177586
146,4,-0.668998,-0.0782789,9.78177,0.0734043,-0.652092,0.966099,-0.00669266,-0.000792564,0.0978175,1,4.87883e-05,-1.38618e-05,1.7207e-05,0.00975766,-0.00277235,0.00344141,0,0,0,0,0.0459383,0.526914,-0.98899,33.5,1,42117,37177686
146,5,-0.668998,-0.0782789,9.78177,0.0734043,-0.652092,0.966099,-0.00669266,-0.000792564,0.0978175,1,4.87883e-05,-1.38618e-05,1.7207e-05,0.00975766,-0.00277235,0.00344141,0,0,0,0,0.0459383,0.526914,-0.98899,33.5,1,42117,37177686
146,6,-0.684958,-0.0757298,9.78869,0.0583022,-0.650232,0.971966,-0.0068533,-0.000766927,0.0978865,1,4.84921e-05,-1.90679e-05,9.90579e-06,0.00969841,-0.00381358,0.00198116,0,0,0,0,0.0449789,0.523065,-0.991596,33.5,1,42118,37177786
146,7,-0.684958,-0.0757298,9.78869,0.0583022,-0.650232,0.971966,-0.0068533,-0.000766927,0.0978865,1,4.84921e-05,-1.90679e-05,9.90579e-06,0.00969841,-0.00381358,0.00198116,0,0,0,0,0.0449789,0.523065,-0.991596,33.5,1,42118,37177786
146,8,-0.673738,-0.0856421,9.78276,0.0651933,-0.662372,0.974579,-0.00673861,-0.000862885,0.0978274,1,3.20655e-05,-6.43176e-06,1.41355e-05,0.0064131,-0.00128635,0.00282709,0,0,0,0,0.0427247,0.520564,-0.987096,33.5,1,42119,37177886
146,9,-0.673738,-0.0856421,9.78276,0.0651933,-0.662372,0.974579,-0.00673861,-0.000862885,0.0978274,1,3.20655e-05,-6.43176e-06,1.41355e-05,0.0064131,-0.00128635,0.00282709,0,0,0,0,0.0427247,0.520564,-0.987096,33.5,1,42119,37177886
146,10,-0.671073,-0.0786922,9.78551,0.0719069,-0.654041,0.97335,-0.00671273,-0.000795413,0.0978549,1,4.23435e-05,-1.0332e-05,1.52049e-05,0.00846871,-0.00206639,0.00304098,0,0,0,0,0.0447972,0.52044,-0.981047,33.5,1,42120,37177986
147,1,-0.671073,-0.0786922,9.78551,0.0719069,-0.654041,0.97335,-0.00671273,-0.000795413,0.0978549,1,4.23435e-05,-1.0332e-05,1.52049e-05,0.00846871,-0.00206639,0.00304098,0,0,0,0,0.0447972,0.52044,-0.981047,33.5,1,42120,37177986
147,2,-0.686334,-0.0744045,9.79006,0.0517217,-0.650505,0.98232,-0.00686657,-0.000753911,0.0979003,1,4.94532e-05,-1.65664e-05,1.33534e-05,0.00989064,-0.00331328,0.00267067,0,0,0,0,0.0480962,0.523836,-0.981492,33.5,1,42121,37178086
148,1,-0.686334,-0.0744045,9.79006,0.0517217,-0.650505,0.98232,-0.00686657,-0.000753911,0.0979003,1,4.94532e-05,-1.65664e-05,1.33534e-05,0.00989064,-0.00331328,0.00267067,0,0,0,0,0.0480962,0.523836,-0.981492,33.5,1,42121,37178086
148,2,-0.676199,-0.0729587,9.78729,0.0621509,-0.647109,0.977755,-0.00676446,-0.000737551,0.0978727,1,3.98271e-05,-1.26807e-05,1.24184e-05,0.00796542,-0.00253614,0.00248368,0,0,0,0,0.0498736,0.526819,-0.985475,33.5,3,42122,37178186
149,1,-0.676199,-0.0729587,9.78729,0.0621509,-0.647109,0.977755,-0.00676446,-0.000737551,0.0978727,1,3.98271e-05,-1.26807e-05,1.24184e-05,0.00796542,-0.00253614,0.00248368,0,0,0,0,0.0498736,0.526819,-0.985475,33.5,3,42122,37178186
149,2,-0.679002,-0.0762613,9.7832,0.0598691,-0.649321,0.968918,-0.00679042,-0.000772987,0.0978319,1,5.15543e-05,-2.2128e-06,2.11299e-05,0.0103108,-0.000442561,0.00422598,0,0,0,0,0.0487956,0.524984,-0.991571,33.5,3,42123,37178286
149,3,-0.679002,-0.0762613,9.7832,0.0598691,-0.649321,0.968918,-0.00679042,-0.000772987,0.0978319,1,5.15543e-05,-2.2128e-06,2.11299e-05,0.0103108,-0.000442561,0.00422598,0,0,0,0,0.0487956,0.524984,-0.991571,33.5,3,42123,37178286
149,4,-0.667465,-0.0820932,9.7892,0.0723792,-0.657521,0.979092,-0.00667894,-0.000830011,0.0978916,1,4.59143e-05,-2.19865e-05,6.69245e-06,0.00918285,-0.0043973,0.00133849,0,0,0,0,0.0454634,0.520649,-0.993167,33.5,3,42124,37178386
149,5,-0.667465,-0.0820932,9.7892,0.0723792,-0.657521,0.979092,-0.00667894,-0.000830011,0.0978916,1,4.59143e-05,-2.19865e-05,6.69245e-06,0.00918285,-0.0043973,0.00133849,0,0,0,0,0.0454634,0.520649,-0.993167,33.5,3,42124,37178386
149,6,-0.667407,-0.0753452,9.78246,0.0710012,-0.652674,0.975766,-0.00667536,-0.000759894,0.0978245,1,3.17972e-05,-6.70003e-06,1.65813e-05,0.00635944,-0.00134001,0.00331626,0,0,0,0,0.0446815,0.518597,-0.987149,33.5,3,42125,37178486
150,1,-0.667407,-0.0753452,9.78246,0.0710012,-0.652674,0.975766,-0.00667536,-0.000759894,0.0978245,1,3.17972e-05,-6.70003e-06,1.65813e-05,0.00635944,-0.00134001,0.00331626,0,0,0,0,0.0446815,0.518597,-0.987149,33.5,3,42125,37178486
150,2,-0.676002,-0.0734683,9.78456,0.0635414,-0.64938,0.973831,-0.00676028,-0.000744972,0.0978455,1,5.17349e-05,-1.43591e-06,1.21391e-05,0.010347,-0.000287181,0.00242782,0,0,0,0,0.0462814,0.519435,-0.980067,33.5,3,42126,37178586
150,3,-0.676002,-0.0734683,9.78456,0.0635414,-0.64938,0.973831,-0.00676028,-0.000744972,0.0978455,1,5.17349e-05,-1.43591e-06,1.21391e-05,0.010347,-0.000287181,0.00242782,0,0,0,0,0.0462814,0.519435,-0.980067,33.5,3,42126,37178586
150,4,-0.685029,-0.0826375,9.79303,0.059209,-0.660102,0.988279,-0.00684957,-0.000835499,0.0979303,1,4.49848e-05,3.46657e-06,2.2836e-05,0.00899695,0.000693313,0.00456719,0,0,0,0,0.0461803,0.524809,-0.980452,33.5,3,42127,37178686
150,5,-0.685029,-0.0826375,9.79303,0.059209,-0.660102,0.988279,-0.00684957,-0.000835499,0.0979303,1,4.49848e-05,3.46657e-06,2.2836e-05,0.00899695,0.000693313,0.00456719,0,0,0,0,0.0461803,0.524809,-0.980452,33.5,3,42127,37178686
150,6,-0.68135,-0.0776763,9.78389,0.061261,-0.648751,0.97328,-0.0068141,-0.00078686,0.0978388,1,5.02877e-05,-3.26508e-06,1.88407e-05,0.0100575,-0.000653015,0.00376814,0,0,0,0,0.0469745,0.526851,-0.985966,33.5,3,42128,37178786
150,7,-0.68135,-0.0776763,9.78389,0.061261,-0.648751,0.97328,-0.0068141,-0.00078686,0.0978388,1,5.02877e-05,-3.26508e-06,1.88407e-05,0.0100575,-0.000653015,0.00376814,0,0,0,0,0.0469745,0.526851,-0.985966,33.5,3,42128,37178786
150,8,-0.683853,-0.086058,9.78588,0.0588876,-0.666941,0.972096,-0.00684192,-0.000868328,0.0978585,1,3.85605e-05,-1.74679e-05,1.46888e-05,0.0077121,-0.00349358,0.00293777,0,0,0,0,0.0477926,0.525985,-0.992554,33.5,3,42129,37178886
151,1,-0.683853,-0.086058,9.78588,0.0588876,-0.666941,0.972096,-0.00684192,-0.000868328,0.0978585,1,3.85605e-05,-1.74679e-05,1.46888e-05,0.0077121,-0.00349358,0.00293777,0,0,0,0,0.0477926,0.525985,-0.992554,33.5,3,42129,37178886
151,2,-0.676759,-0.0774803,9.78895,0.065405,-0.64993,0.977237,-0.00677065,-0.000781179,0.0978893,1,3.15905e-05,-1.57392e-05,1.41431e-05,0.0063181,-0.00314785,0.00282861,0,0,0,0,0.048371,0.521573,-0.991645,33.5,3,42130,37178986
151,3,-0.676759,-0.0774803,9.78895,0.065405,-0.64993,0.977237,-0.00677065,-0.000781179,0.0978893,1,3.15905e-05,-1.57392e-05,1.41431e-05,0.0063181,-0.00314785,0.00282861,0,0,0,0,0.048371,0.521573,-0.991645,33.5,3,42130,37178986
151,4,-0.668262,-0.0762537,9.79094,0.0714685,-0.654676,0.983529,-0.00668548,-0.000772682,0.0979092,1,5.02691e-05,-1.47671e-05,2.25864e-05,0.0100538,-0.00295342,0.00451729,0,0,0,0,0.0461491,0.517122,-0.987188,33.5,3,42131,37179086
152,1,-0.668262,-0.0762537,9.79094,0.0714685,-0.654676,0.983529,-0.00668548,-0.000772682,0.0979092,1,5.02691e-05,-1.47671e-05,2.25864e-05,0.0100538,-0.00295342,0.00451729,0,0,0,0,0.0461491,0.517122,-0.987188,33.5,3,42131,37179086
152,2,-0.680174,-0.0784543,9.78457,0.0572728,-0.656529,0.977039,-0.0068055,-0.000792286,0.0978453,1,3.8564e-05,-1.93216e-05,1.44282e-05,0.00771279,-0.00386432,0.00288563,0,0,0,0,0.0453434,0.51798,-0.980095,33.5,3,42132,37179186
152,3,-0.680174,-0.0784543,9.78457,0.0572728,-0.656529,0.977039,-0.0068055,-0.000792286,0.0978453,1,3.8564e-05,-1.93216e-05,1.44282e-05,0.00771279,-0.00386432,0.00288563,0,0,0,0,0.0453434,0.51798,-0.980095,33.5,3,42132,37179186
152,4,-0.683529,-0.0734233,9.78972,0.0593815,-0.648752,0.983098,-0.00683871,-0.000742143,0.0978969,1,3.91454e-05,-1.76395e-05,1.79482e-05,0.00782907,-0.0035279,0.00358964,0,0,0,0,0.0476645,0.523804,-0.979471,33.5,3,42133,37179286
152,5,-0.683529,-0.0734233,9.78972,0.0593815,-0.648752,0.983098,-0.00683871,-0.000742143,0.0978969,1,3.91454e-05,-1.76395e-05,1.79482e-05,0.00782907,-0.0035279,0.00358964,0,0,0,0,0.0476645,0.523804,-0.979471,33.5,3,42133,37179286
152,6,-0.684331,-0.0698011,9.79382,0.0529046,-0.643608,0.979376,-0.00684626,-0.000710229,0.0979379,1,6.14616e-05,-1.5121e-05,1.30798e-05,0.0122923,-0.0030242,0.00261596,0,0,0,0,0.0494171,0.526804,-0.984463,33.5,3,42134,37179386
153,1,-0.684331,-0.0698011,9.79382,0.0529046,-0.643608,0.979376,-0.00684626,-0.000710229,0.0979379,1,6.14616e-05,-1.5121e-05,1.30798e-05,0.0122923,-0.0030242,0.00261596,0,0,0,0,0.0494171,0.526804,-0.984463,33.5,3,42134,37179386
153,2,-0.679593,-0.0731429,9.7829,0.0576073,-0.653314,0.96975,-0.00679856,-0.000742845,0.0978287,1,5.79227e-05,-1.34928e-05,6.07601e-06,0.0115845,-0.00269855,0.0012152,0,0,0,0,0.0473769,0.524978,-0.990555,33.5,3,42135,37179486
153,3,-0.679593,-0.0731429,9.7829,0.0576073,-0.653314,0.96975,-0.00679856,-0.000742845,0.0978287,1,5.79227e-05,-1.34928e-05,6.07601e-06,0.0115845,-0.00269855,0.0012152,0,0,0,0,0.0473769,0.524978,-0.990555,33.5,3,42135,37179486
153,4,-0.673583,-0.0640766,9.78192,0.0619356,-0.644893,0.968591,-0.00673732,-0.00064834,0.0978191,1,3.69102e-05,-7.75796e-06,2.62055e-05,0.00738205,-0.00155159,0.00524109,0,0,0,0,0.0450032,0.521601,-0.991629,33.5,3,42136,37179586
154,1,-0.673583,-0.0640766,9.78192,0.0619356,-0.644893,0.968591,-0.00673732,-0.00064834,0.0978191,1,3.69102e-05,-7.75796e-06,2.62055e-05,0.00738205,-0.00155159,0.00524109,0,0,0,0,0.0450032,0.521601,-0.991629,33.5,3,42136,37179586
154,2,-0.686984,-0.0822722,9.79305,0.0550865,-0.664983,0.983828,-0.0068704,-0.000831829,0.0979304,1,4.56646e-05,-2.93383e-06,1.18313e-05,0.00913293,-0.000586766,0.00236626,0,0,0,0,0.0427694,0.518604,-0.986635,33.5,3,42137,37179686
154,3,-0.686984,-0.0822722,9.79305,0.0550865,-0.664983,0.983828,-0.0068704,-0.000831829,0.0979304,1,4.56646e-05,-2.93383e-06,1.18313e-05,0.00913293,-0.000586766,0.00236626,0,0,0,0,0.0427694,0.518604,-0.986635,33.5,3,42137,37179686
154,4,-0.675967,-0.0790462,9.79641,0.0632251,-0.657457,0.986409,-0.00676204,-0.000800786,0.0979638,1,5.22865e-05,-1.21646e-05,5.84277e-06,0.0104573,-0.00243291,0.00116855,0,0,0,0,0.0448091,0.518986,-0.981585,33.5,3,42138,37179786
154,5,-0.675967,-0.0790462,9.79641,0.0632251,-0.657457,0.986409,-0.00676204,-0.000800786,0.0979638,1,5.22865e-05,-1.21646e-05,5.84277e-06,0.0104573,-0.00243291,0.00116855,0,0,0,0,0.0448091,0.518986,-0.981585,33.5,3,42138,37179786
154,6,-0.677384,-0.0767993,9.78864,0.0610848,-0.659016,0.978006,-0.00677909,-0.000776289,0.0978859,1,4.22635e-05,-2.68537e-05,1.60004e-06,0.00845269,-0.00537073,0.000320008,0,0,0,0,0.0481209,0.523818,-0.980483,33.5,3,42139,37179886
154,7,-0.677384,-0.0767993,9.78864,0.0610848,-0.659016,0.978006,-0.00677909,-0.000776289,0.0978859,1,4.22635e-05,-2.68537e-05,1.60004e-06,0.00845269,-0.00537073,0.000320008,0,0,0,0,0.0481209,0.523818,-0.980483,33.5,3,42139,37179886
154,8,-0.67991,-0.0803402,9.78963,0.0593012,-0.656761,0.978648,-0.00680005,-0.000814379,0.0978961,1,5.45214e-05,-5.06832e-06,2.22438e-05,0.0109043,-0.00101366,0.00444875,0,0,0,0,0.0494171,0.526804,-0.984463,33.5,3,42140,37179986
154,9,-0.67991,-0.0803402,9.78963,0.0593012,-0.656761,0.978648,-0.00680005,-0.000814379,0.0978961,1,5.45214e-05,-5.06832e-06,2.22438e-05,0.0109043,-0.00101366,0.00444875,0,0,0,0,0.0494171,0.526804,-0.984463,33.5,3,42140,37179986
154,10,-0.67781,-0.0772449,9.79439,0.0635714,-0.657231,0.978131,-0.00678037,-0.00077956,0.0979437,1,3.57423e-05,-1.16024e-05,8.02056e-06,0.00714846,-0.00232047,0.00160411,0,0,0,0,0.0473484,0.525962,-0.991038,33.5,3,42141,37180086
155,1,-0.67781,-0.0772449,9.79439,0.0635714,-0.657231,0.978131,-0.00678037,-0.00077956,0.0979437,1,3.57423e-05,-1.16024e-05,8.02056e-06,0.00714846,-0.00232047,0.00160411,0,0,0,0,0.0473484,0.525962,-0.991038,33.5,3,42141,37180086
155,2,-0.675998,-0.0811015,9.79672,0.0593244,-0.665481,0.986667,-0.00676348,-0.000820893,0.0979669,1,4.89726e-05,-1.80358e-05,2.09457e-05,0.00979453,-0.00360716,0.00418914,0,0,0,0,0.0450193,0.520626,-0.991651,33.5,3,42142,37180186
155,3,-0.675998,-0.0811015,9.79672,0.0593244,-0.665481,0.986667,-0.00676348,-0.000820893,0.0979669,1,4.89726e-05,-1.80358e-05,2.09457e-05,0.00979453,-0.00360716,0.00418914,0,0,0,0,0.0450193,0.520626,-0.991651,33.5,3,42142,37180186
155,4,-0.674427,-0.071165,9.77849,0.0663246,-0.655063,0.968673,-0.00674758,-0.000720132,0.0977846,1,4.33866e-05,-1.69221e-05,-2.22054e-07,0.00867732,-0.00338441,-4.44107e-05,0,0,0,0,0.0427736,0.519083,-0.986119,33.5,3,42143,37180286
155,5,-0.674427,-0.071165,9.77849,0.0663246,-0.655063,0.968673,-0.00674758,-0.000720132,0.0977846,1,4.33866e-05,-1.69221e-05,-2.22054e-07,0.00867732,-0.00338441,-4.44107e-05,0,0,0,0,0.0427736,0.519083,-0.986119,33.5,3,42143,37180286
155,6,-0.682213,-0.0771836,9.78663,0.0549692,-0.658529,0.977541,-0.00682499,-0.000783185,0.097866,1,5.68461e-05,-1.4724e-05,1.62833e-05,0.0113692,-0.0029448,0.00325666,0,0,0,0,0.0443285,0.520435,-0.98054,33.5,3,42144,37180386
156,1,-0.682213,-0.0771836,9.78663,0.0549692,-0.658529,0.977541,-0.00682499,-0.000783185,0.097866,1,5.68461e-05,-1.4724e-05,1.62833e-05,0.0113692,-0.0029448,0.00325666,0,0,0,0,0.0443285,0.520435,-0.98054,33.5,3,42144,37180386
156,2,-0.670455,-0.0718323,9.78523,0.0710434,-0.652577,0.975314,-0.00670771,-0.000727531,0.097852,1,4.61265e-05,-1.62456e-05,1.34393e-05,0.00922531,-0.00324911,0.00268787,0,0,0,0,0.0462007,0.524312,-0.979958,33.5,3,42145,37180486
156,3,-0.670455,-0.0718323,9.78523,0.0710434,-0.652577,0.975314,-0.00670771,-0.000727531,0.097852,1,4.61265e-05,-1.62456e-05,1.34393e-05,0.00922531,-0.00324911,0.00268787,0,0,0,0,0.0462007,0.524312,-0.979958,33.5,3,42145,37180486
156,4,-0.687007,-0.0768382,9.79514,0.0518701,-0.655009,0.98237,-0.00687146,-0.00077732,0.0979512,1,4.47277e-05,-7.20086e-06,1.27796e-05,0.00894555,-0.00144017,0.00255591,0,0,0,0,0.0479534,0.527313,-0.98495,33.5,3,42146,37180586
156,5,-0.687007,-0.0768382,9.79514,0.0518701,-0.655009,0.98237,-0.00687146,-0.00077732,0.0979512,1,4.47277e-05,-7.20086e-06,1.27796e-05,0.00894555,-0.00144017,0.00255591,0,0,0,0,0.0479534,0.527313,-0.98495,33.5,3,42146,37180586
156,6,-0.682006,-0.0718669,9.78395,0.0546358,-0.657549,0.969781,-0.00682175,-0.000728646,0.0978393,1,4.85332e-05,-8.89219e-06,3.51629e-05,0.00970664,-0.00177844,0.00703259,0,0,0,0,0.048788,0.526917,-0.990518,33.5,3,42147,37180686
156,7,-0.682006,-0.0718669,9.78395,0.0546358,-0.657549,0.969781,-0.00682175,-0.000728646,0.0978393,1,4.85332e-05,-8.89219e-06,3.51629e-05,0.00970664,-0.00177844,0.00703259,0,0,0,0,0.048788,0.526917,-0.990518,33.5,3,42147,37180686
156,8,-0.678442,-0.0760472,9.79237,0.064577,-0.663167,0.98007,-0.00678839,-0.000769389,0.0979234,1,4.45375e-05,-2.03776e-05,1.43183e-05,0.0089075,-0.00407552,0.00286367,0,0,0,0,0.0454971,0.523033,-0.990084,33.5,3,42148,37180786
157,1,-0.678442,-0.0760472,9.79237,0.064577,-0.663167,0.98007,-0.00678839,-0.000769389,0.0979234,1,4.45375e-05,-2.03776e-05,1.43183e-05,0.0089075,-0.00407552,0.00286367,0,0,0,0,0.0454971,0.523033,-0.990084,33.5,3,42148,37180786
157,2,-0.686686,-0.0794945,9.78426,0.0468195,-0.665509,0.977822,-0.00686945,-0.000804468,0.0978423,1,4.768e-05,-1.33273e-05,1.4035e-05,0.00953599,-0.00266546,0.00280701,0,0,0,0,0.0432348,0.521021,-0.985573,33.5,3,42149,37180886
157,3,-0.686686,-0.0794945,9.78426,0.0468195,-0.665509,0.977822,-0.00686945,-0.000804468,0.0978423,1,4.768e-05,-1.33273e-05,1.4035e-05,0.00953599,-0.00266546,0.00280701,0,0,0,0,0.0432348,0.521021,-0.985573,33.5,3,42149,37180886
157,4,-0.680247,-0.0777576,9.78388,0.0580186,-0.659364,0.971589,-0.00680365,-0.000786117,0.0978387,1,4.34238e-05,-6.04109e-06,3.22026e-06,0.00868476,-0.00120822,0.000644052,0,0,0,0,0.0452579,0.520933,-0.981544,33.5,3,42150,37180986
158,1,-0.680247,-0.0777576,9.78388,0.0580186,-0.659364,0.971589,-0.00680365,-0.000786117,0.0978387,1,4.34238e-05,-6.04109e-06,3.22026e-06,0.00868476,-0.00120822,0.000644052,0,0,0,0,0.0452579,0.520933,-0.981544,33.5,3,42150,37180986
158,2,-0.672715,-0.0766283,9.79368,0.0633487,-0.663911,0.97898,-0.00672802,-0.000776071,0.0979367,1,4.82985e-05,-4.63613e-06,2.43911e-05,0.00965971,-0.000927225,0.00487822,0,0,0,0,0.0466159,0.523875,-0.983,33.5,3,42151,37181086
158,3,-0.672715,-0.0766283,9.79368,0.0633487,-0.663911,0.97898,-0.00672802,-0.000776071,0.0979367,1,4.82985e-05,-4.63613e-06,2.43911e-05,0.00965971,-0.000927225,0.00487822,0,0,0,0,0.0466159,0.523875,-0.983,33.5,3,42151,37181086
158,4,-0.672309,-0.0820779,9.78583,0.0678759,-0.670061,0.970002,-0.00672679,-0.000830439,0.097858,1,4.86076e-05,-1.89803e-05,1.08835e-05,0.00972152,-0.00379606,0.0021767,0,0,0,0,0.0493759,0.526353,-0.986493,33.5,3,42152,37181186
159,1,-0.672309,-0.0820779,9.78583,0.0678759,-0.670061,0.970002,-0.00672679,-0.000830439,0.097858,1,4.86076e-05,-1.89803e-05,1.08835e-05,0.00972152,-0.00379606,0.0021767,0,0,0,0,0.0493759,0.526353,-0.986493,33.5,3,42152,37181186
159,2,-0.688196,-0.0798217,9.78628,0.0518554,-0.664478,0.97653,-0.00688192,-0.000808384,0.0978628,1,5.03938e-05,-5.52205e-09,2.20614e-05,0.0100788,-1.10441e-06,0.00441228,0,0,0,0,0.0497417,0.525951,-0.991554,33.5,3,42153,37181286
159,3,-0.688196,-0.0798217,9.78628,0.0518554,-0.664478,0.97653,-0.00688192,-0.000808384,0.0978628,1,5.03938e-05,-5.52205e-09,2.20614e-05,0.0100788,-1.10441e-06,0.00441228,0,0,0,0,0.0497417,0.525951,-0.991554,33.5,3,42153,37181286
159,4,-0.668208,-0.0843872,9.79121,0.0705442,-0.669318,0.975471,-0.00668488,-0.000854255,0.0979118,1,5.19287e-05,-1.44484e-05,1.60505e-05,0.0103857,-0.00288969,0.00321011,0,0,0,0,0.0464465,0.521589,-0.991636,33.5,3,42154,37181386
159,5,-0.668208,-0.0843872,9.79121,0.0705442,-0.669318,0.975471,-0.00668488,-0.000854255,0.0979118,1,5.19287e-05,-1.44484e-05,1.60505e-05,0.0103857,-0.00288969,0.00321011,0,0,0,0,0.0464465,0.521589,-0.991636,33.5,3,42154,37181386
159,6,-0.674815,-0.0769223,9.7903,0.0597376,-0.66363,0.979847,-0.00674992,-0.000773665,0.0979028,1,2.22046e-05,-9.10258e-06,7.02406e-06,0.00444093,-0.00182052,0.00140481,0,0,0,0,0.0446568,0.518615,-0.988158,33.5,3,42155,37181486
159,7,-0.674815,-0.0769223,9.7903,0.0597376,-0.66363,0.979847,-0.00674992,-0.000773665,0.0979028,1,2.22046e-05,-9.10258e-06,7.02406e-06,0.00444093,-0.00182052,0.00140481,0,0,0,0,0.0446568,0.518615,-0.988158,33.5,3,42155,37181486
159,8,-0.683879,-0.0806352,9.79135,0.0466345,-0.669885,0.987886,-0.00684176,-0.000816009,0.0979132,1,4.87231e-05,-1.52382e-05,8.45265e-06,0.00974463,-0.00304763,0.00169053,0,0,0,0,0.047182,0.519472,-0.982595,33.5,3,42156,37181586
159,9,-0.683879,-0.0806352,9.79135,0.0466345,-0.669885,0.987886,-0.00684176,-0.000816009,0.0979132,1,4.87231e-05,-1.52382e-05,8.45265e-06,0.00974463,-0.00304763,0.00169053,0,0,0,0,0.047182,0.519472,-0.982595,33.5,3,42156,37181586
159,10,-0.673083,-0.0776595,9.78384,0.0677411,-0.663088,0.97598,-0.00673198,-0.000785233,0.0978382,1,4.29155e-05,-6.02179e-06,1.78495e-05,0.00858309,-0.00120436,0.00356989,0,0,0,0,0.0471544,0.523347,-0.980994,33.5,3,42157,37181686
160,1,-0.673083,-0.0776595,9.78384,0.0677411,-0.663088,0.97598,-0.00673198,-0.000785233,0.0978382,1,4.29155e-05,-6.02179e-06,1.78495e-05,0.00858309,-0.00120436,0.00356989,0,0,0,0,0.0471544,0.523347,-0.980994,33.5,3,42157,37181686
160,2,-0.677396,-0.08012,9.79131,0.058121,-0.66584,0.976666,-0.00677697,-0.000811091,0.0979128,1,4.79184e-05,-1.57005e-05,3.74763e-05,0.00958368,-0.00314009,0.00749526,0,0,0,0,0.0475173,0.526802,-0.983444,33.5,3,42158,37181786
160,3,-0.677396,-0.08012,9.79131,0.058121,-0.66584,0.976666,-0.00677697,-0.000811091,0.0979128,1,4.79184e-05,-1.57005e-05,3.74763e-05,0.00958368,-0.00314009,0.00749526,0,0,0,0,0.0475173,0.526802,-0.983444,33.5,3,42158,37181786
160,4,-0.666344,-0.0749417,9.79026,0.0691113,-0.660061,0.978024,-0.00666425,-0.00075831,0.0979025,1,4.44241e-05,-4.22442e-06,1.45826e-05,0.00888483,-0.000844884,0.00291653,0,0,0,0,0.0478134,0.526934,-0.991018,33.5,3,42159,37181886
160,5,-0.666344,-0.0749417,9.79026,0.0691113,-0.660061,0.978024,-0.00666425,-0.00075831,0.0979025,1,4.44241e-05,-4.22442e-06,1.45826e-05,0.00888483,-0.000844884,0.00291653,0,0,0,0,0.0478134,0.526934,-0.991018,33.5,3,42159,37181886
160,6,-0.674112,-0.0814254,9.7872,0.0599724,-0.668468,0.972908,-0.00674318,-0.000824547,0.0978718,1,5.05837e-05,-1.07907e-05,2.90052e-05,0.0101167,-0.00215814,0.00580105,0,0,0,0,0.0459327,0.522099,-0.992632,33.5,3,42160,37181986
161,1,-0.674112,-0.0814254,9.7872,0.0599724,-0.668468,0.972908,-0.00674318,-0.000824547,0.0978718,1,5.05837e-05,-1.07907e-05,2.90052e-05,0.0101167,-0.00215814,0.00580105,0,0,0,0,0.0459327,0.522099,-0.992632,33.5,3,42160,37181986
161,2,-0.674111,-0.0802486,9.78823,0.05647,-0.670416,0.977537,-0.00674227,-0.000808428,0.0978822,1,2.89622e-05,-6.05e-06,2.01873e-05,0.00579245,-0.00121,0.00403746,0,0,0,0,0.0442004,0.518601,-0.987146,33.5,3,42161,37182086
161,3,-0.674111,-0.0802486,9.78823,0.05647,-0.670416,0.977537,-0.00674227,-0.000808428,0.0978822,1,2.89622e-05,-6.05e-06,2.01873e-05,0.00579245,-0.00121,0.00403746,0,0,0,0,0.0442004,0.518601,-0.987146,33.5,3,42161,37182086
161,4,-0.684711,-0.0679632,9.78739,0.0520849,-0.657991,0.979923,-0.00684925,-0.000692747,0.0978737,1,6.59377e-05,-1.10247e-05,1.52178e-05,0.0131875,-0.00220494,0.00304357,0,0,0,0,0.043798,0.520475,-0.982557,33.5,3,42162,37182186
161,5,-0.684711,-0.0679632,9.78739,0.0520849,-0.657991,0.979923,-0.00684925,-0.000692747,0.0978737,1,6.59377e-05,-1.10247e-05,1.52178e-05,0.0131875,-0.00220494,0.00304357,0,0,0,0,0.043798,0.520475,-0.982557,33.5,3,42162,37182186
161,6,-0.675766,-0.0699278,9.78936,0.0571437,-0.656177,0.980575,-0.00676097,-0.000706449,0.0978933,1,3.54257e-05,-1.70617e-05,1.73914e-05,0.00708515,-0.00341234,0.00347829,0,0,0,0,0.0451687,0.524853,-0.982466,33.5,3,42163,37182286
162,1,-0.675766,-0.0699278,9.78936,0.0571437,-0.656177,0.980575,-0.00676097,-0.000706449,0.0978933,1,3.54257e-05,-1.70617e-05,1.73914e-05,0.00708515,-0.00341234,0.00347829,0,0,0,0,0.0451687,0.524853,-0.982466,33.5,3,42163,37182286
162,2,-0.675246,-0.0844103,9.77768,0.061394,-0.67257,0.96726,-0.00675215,-0.000854067,0.0977768,1,5.0176e-05,1.50502e-06,1.12671e-05,0.0100352,0.000301004,0.00225341,0,0,0,0,0.0484506,0.526334,-0.984974,33.5,3,42164,37182386
162,3,-0.675246,-0.0844103,9.77768,0.061394,-0.67257,0.96726,-0.00675215,-0.000854067,0.0977768,1,5.0176e-05,1.50502e-06,1.12671e-05,0.0100352,0.000301004,0.00225341,0,0,0,0,0.0484506,0.526334,-0.984974,33.5,3,42164,37182386
162,4,-0.680895,-0.0758332,9.80324,0.0529209,-0.667328,0.991872,-0.00680974,-0.000769036,0.0980322,1,5.38323e-05,-4.14084e-06,1.09729e-05,0.0107665,-0.000828167,0.00219458,0,0,0,0,0.0473812,0.525456,-0.990039,33.5,3,42165,37182486
162,5,-0.680895,-0.0758332,9.80324,0.0529209,-0.667328,0.991872,-0.00680974,-0.000769036,0.0980322,1,5.38323e-05,-4.14084e-06,1.09729e-05,0.0107665,-0.000828167,0.00219458,0,0,0,0,0.0473812,0.525456,-0.990039,33.5,3,42165,37182486
162,6,-0.68016,-0.0821091,9.80149,0.0563423,-0.674139,0.986067,-0.00680239,-0.000833011,0.0980147,1,5.96549e-05,-4.13112e-06,1.65943e-05,0.011931,-0.000826223,0.00331887,0,0,0,0,0.0464384,0.522077,-0.991625,33.5,3,42166,37182586
162,7,-0.68016,-0.0821091,9.80149,0.0563423,-0.674139,0.986067,-0.00680239,-0.000833011,0.0980147,1,5.96549e-05,-4.13112e-06,1.65943e-05,0.011931,-0.000826223,0.00331887,0,0,0,0,0.0464384,0.522077,-0.991625,33.5,3,42166,37182586
162,8,-0.66972,-0.0757223,9.79401,0.0691875,-0.671981,0.980937,-0.00669755,-0.000764354,0.09794,1,3.5232e-05,-1.94283e-06,1.71642e-05,0.00704639,-0.000388567,0.00343284,0,0,0,0,0.044682,0.520043,-0.986106,33.5,3,42167,37182686
163,1,-0.66972,-0.0757223,9.79401,0.0691875,-0.671981,0.980937,-0.00669755,-0.000764354,0.09794,1,3.5232e-05,-1.94283e-06,1.71642e-05,0.00704639,-0.000388567,0.00343284,0,0,0,0,0.044682,0.520043,-0.986106,33.5,3,42167,37182686
163,2,-0.674313,-0.0759068,9.77877,0.0626177,-0.669688,0.969883,-0.0067435,-0.000768122,0.0977876,1,4.47984e-05,-2.0619e-06,2.16497e-05,0.00895968,-0.000412381,0.00432994,0,0,0,0,0.0457718,0.520423,-0.980547,33.5,3,42168,37182786
163,3,-0.674313,-0.0759068,9.77877,0.0626177,-0.669688,0.969883,-0.0067435,-0.000768122,0.0977876,1,4.47984e-05,-2.0619e-06,2.16497e-05,0.00895968,-0.000412381,0.00432994,0,0,0,0,0.0457718,0.520423,-0.980547,33.5,3,42168,37182786
163,4,-0.677551,-0.081173,9.78485,0.0628203,-0.670693,0.972298,-0.00677731,-0.000821024,0.0978483,1,4.60184e-05,-9.33382e-06,2.12678e-05,0.00920369,-0.00186676,0.00425356,0,0,0,0,0.0471468,0.52528,-0.979941,33.5,3,42169,37182886
163,5,-0.677551,-0.081173,9.78485,0.0628203,-0.670693,0.972298,-0.00677731,-0.000821024,0.0978483,1,4.60184e-05,-9.33382e-06,2.12678e-05,0.00920369,-0.00186676,0.00425356,0,0,0,0,0.0471468,0.52528,-0.979941,33.5,3,42169,37182886
163,6,-0.676206,-0.0802648,9.7896,0.0661606,-0.672494,0.973916,-0.00676281,-0.000808841,0.0978959,1,2.99512e-05,-4.03254e-06,2.42871e-05,0.00599025,-0.000806509,0.00485743,0,0,0,0,0.0488909,0.527323,-0.985964,33.5,3,42170,37182986
163,7,-0.676206,-0.0802648,9.7896,0.0661606,-0.672494,0.973916,-0.00676281,-0.000808841,0.0978959,1,2.99512e-05,-4.03254e-06,2.42871e-05,0.00599025,-0.000806509,0.00485743,0,0,0,0,0.0488909,0.527323,-0.985964,33.5,3,42170,37182986
163,8,-0.68385,-0.0653732,9.79218,0.0480836,-0.65772,0.977424,-0.00684201,-0.000664818,0.0979214,1,5.55443e-05,-1.80414e-05,1.51931e-05,0.0111089,-0.00360828,0.00303861,0,0,0,0,0.0487795,0.525959,-0.991549,33.5,3,42171,37183086
164,1,-0.68385,-0.0653732,9.79218,0.0480836,-0.65772,0.977424,-0.00684201,-0.000664818,0.0979214,1,5.55443e-05,-1.80414e-05,1.51931e-05,0.0111089,-0.00360828,0.00303861,0,0,0,0,0.0487795,0.525959,-0.991549,33.5,3,42171,37183086
164,2,-0.672291,-0.0730591,9.78795,0.0628588,-0.670885,0.971949,-0.00672773,-0.000736918,0.0978792,1,3.13092e-05,-2.47565e-05,1.47278e-05,0.00626184,-0.00495129,0.00294557,0,0,0,0,0.0449994,0.522568,-0.991102,33.5,3,42172,37183186
164,3,-0.672291,-0.0730591,9.78795,0.0628588,-0.670885,0.971949,-0.00672773,-0.000736918,0.0978792,1,3.13092e-05,-2.47565e-05,1.47278e-05,0.00626184,-0.00495129,0.00294557,0,0,0,0,0.0449994,0.522568,-0.991102,33.5,3,42172,37183186
164,4,-0.675635,-0.0825652,9.79502,0.0639154,-0.681078,0.984456,-0.00675847,-0.000834443,0.09795,1,4.28001e-05,-1.10938e-05,3.00871e-05,0.00856002,-0.00221875,0.00601742,0,0,0,0,0.0437316,0.518596,-0.986639,33.5,3,42173,37183286
164,5,-0.675635,-0.0825652,9.79502,0.0639154,-0.681078,0.984456,-0.00675847,-0.000834443,0.09795,1,4.28001e-05,-1.10938e-05,3.00871e-05,0.00856002,-0.00221875,0.00601742,0,0,0,0,0.0437316,0.518596,-0.986639,33.5,3,42173,37183286
164,6,-0.680888,-0.0778441,9.78627,0.0555882,-0.67285,0.976268,-0.00681182,-0.000786755,0.0978624,1,4.06707e-05,-1.52033e-05,2.5982e-05,0.00813415,-0.00304065,0.0051964,0,0,0,0,0.0458131,0.520875,-0.978517,33.5,3,42174,37183386
164,7,-0.680888,-0.0778441,9.78627,0.0555882,-0.67285,0.976268,-0.00681182,-0.000786755,0.0978624,1,4.06707e-05,-1.52033e-05,2.5982e-05,0.00813415,-0.00304065,0.0051964,0,0,0,0,0.0458131,0.520875,-0.978517,33.5,3,42174,37183386
164,8,-0.678683,-0.0887877,9.79261,0.0537813,-0.682218,0.980797,-0.00678972,-0.000896325,0.0979258,1,4.15576e-05,-1.49475e-05,2.27167e-05,0.00831152,-0.00298951,0.00454334,0,0,0,0,0.0457238,0.524795,-0.97944,33.5,3,42175,37183486
165,1,-0.678683,-0.0887877,9.79261,0.0537813,-0.682218,0.980797,-0.00678972,-0.000896325,0.0979258,1,4.15576e-05,-1.49475e-05,2.27167e-05,0.00831152,-0.00298951,0.00454334,0,0,0,0,0.0457238,0.524795,-0.97944,33.5,3,42175,37183486
165,2,-0.671404,-0.068753,9.78764,0.0656629,-0.661811,0.968629,-0.00671725,-0.000698231,0.0978761,1,5.3309e-05,-1.65568e-05,1.97216e-05,0.0106618,-0.00331135,0.00394433,0,0,0,0,0.0474471,0.52589,-0.986999,33.5,3,42176,37183586
165,3,-0.671404,-0.068753,9.78764,0.0656629,-0.661811,0.968629,-0.00671725,-0.000698231,0.0978761,1,5.3309e-05,-1.65568e-05,1.97216e-05,0.0106618,-0.00331135,0.00394433,0,0,0,0,0.0474471,0.52589,-0.986999,33.5,3,42176,37183586
165,4,-0.674064,-0.0661909,9.79074,0.0629729,-0.664937,0.972012,-0.00674394,-0.000668863,0.0979071,1,3.4783e-05,-1.69633e-05,1.06002e-05,0.0069566,-0.00339266,0.00212003,0,0,0,0,0.047821,0.525001,-0.992071,33.5,3,42177,37183686
165,5,-0.674064,-0.0661909,9.79074,0.0629729,-0.664937,0.972012,-0.00674394,-0.000668863,0.0979071,1,3.4783e-05,-1.69633e-05,1.06002e-05,0.0069566,-0.00339266,0.00212003,0,0,0,0,0.047821,0.525001,-0.992071,33.5,3,42177,37183686
165,6,-0.673111,-0.0776213,9.78757,0.0585568,-0.676738,0.976247,-0.00673352,-0.000785958,0.0978754,1,4.83169e-05,-1.24669e-05,2.13126e-05,0.00966337,-0.00249339,0.00426253,0,0,0,0,0.0454923,0.521109,-0.991642,33.5,3,42178,37183786
165,7,-0.673111,-0.0776213,9.78757,0.0585568,-0.676738,0.976247,-0.00673352,-0.000785958,0.0978754,1,4.83169e-05,-1.24669e-05,2.13126e-05,0.00966337,-0.00249339,0.00426253,0,0,0,0,0.0454923,0.521109,-0.991642,33.5,3,42178,37183786
165,8,-0.678929,-0.0703427,9.78496,0.0564757,-0.665905,0.976191,-0.00679187,-0.000710183,0.0978494,1,3.30898e-05,-1.33741e-05,2.07032e-05,0.00661796,-0.00267482,0.00414064,0,0,0,0,0.0460926,0.520537,-0.987112,33.5,3,42179,37183886
165,9,-0.678929,-0.0703427,9.78496,0.0564757,-0.665905,0.976191,-0.00679187,-0.000710183,0.0978494,1,3.30898e-05,-1.33741e-05,2.07032e-05,0.00661796,-0.00267482,0.00414064,0,0,0,0,0.0460926,0.520537,-0.987112,33.5,3,42179,37183886
165,10,-0.673265,-0.0764877,9.78353,0.0612075,-0.670373,0.977419,-0.00673797,-0.00077032,0.0978349,1,2.72766e-05,-2.72599e-05,7.84899e-06,0.00545531,-0.00545197,0.0015698,0,0,0,0,0.0462079,0.520934,-0.982053,33.5,3,42180,37183986
166,1,-0.673265,-0.0764877,9.78353,0.0612075,-0.670373,0.977419,-0.00673797,-0.00077032,0.0978349,1,2.72766e-05,-2.72599e-05,7.84899e-06,0.00545531,-0.00545197,0.0015698,0,0,0,0,0.0462079,0.520934,-0.982053,33.5,3,42180,37183986
166,2,-0.676694,-0.0618797,9.78399,0.0572021,-0.660123,0.974003,-0.00676796,-0.000628809,0.0978398,1,5.04013e-05,-5.29361e-06,1.10474e-05,0.0100803,-0.00105872,0.00220948,0,0,0,0,0.047171,0.523817,-0.979973,33.5,3,42181,37184086
166,3,-0.676694,-0.0618797,9.78399,0.0572021,-0.660123,0.974003,-0.00676796,-0.000628809,0.0978398,1,5.04013e-05,-5.29361e-06,1.10474e-05,0.0100803,-0.00105872,0.00220948,0,0,0,0,0.047171,0.523817,-0.979973,33.5,3,42181,37184086
166,4,-0.677083,-0.0634155,9.78398,0.0579044,-0.653627,0.970259,-0.00677101,-0.000641953,0.0978397,1,3.90503e-05,-9.98185e-07,1.15261e-05,0.00781007,-0.000199637,0.00230523,0,0,0,0,0.0499144,0.525825,-0.984487,33.5,3,42182,37184186
167,1,-0.677083,-0.0634155,9.78398,0.0579044,-0.653627,0.970259,-0.00677101,-0.000641953,0.0978397,1,3.90503e-05,-9.98185e-07,1.15261e-05,0.00781007,-0.000199637,0.00230523,0,0,0,0,0.0499144,0.525825,-0.984487,33.5,3,42182,37184186
167,2,-0.685693,-0.0801308,9.78017,0.0447226,-0.67583,0.964367,-0.00685934,-0.000810344,0.0978015,1,4.52474e-05,-1.24498e-05,1.35527e-05,0.00904947,-0.00248997,0.00271054,0,0,0,0,0.0492686,0.525467,-0.991563,33.5,3,42183,37184286
