frame_id,imu_idx,accel_x,accel_y,accel_z,free_accel_x,free_accel_y,free_accel_z,delta_v_x,delta_v_y,delta_v_z,delta_q_w,delta_q_x,delta_q_y,delta_q_z,rate_x,rate_y,rate_z,quat_w,quat_x,quat_y,quat_z,mag_x,mag_y,mag_z,temperature,status_byte,packet_counter,time_fine
1,1,-0.706487,-0.0431856,9.7823,-0.318895,-1.89899,0.906979,-0.00706647,-0.000440102,0.0978228,1,4.07715e-05,-8.25706e-06,1.90716e-05,0.0081543,-0.00165141,0.00381431,0,0,0,0,0.0259571,0.318266,-1.12738,32.9375,3,28310,2882548
1,2,-0.518209,-0.0670497,7.34702,-0.318895,-1.89899,0.906979,-0.00518424,-0.00067369,0.07347,1,2.09827e-05,-1.47001e-05,1.06021e-05,0.00419653,-0.00294002,0.00212042,0,0,0,0,0.0278747,0.516786,-0.987111,33.0625,1,37464,3799436
1,3,-0.518209,-0.0670497,7.34702,-0.318895,-1.89899,0.906979,-0.00518424,-0.00067369,0.07347,1,2.09827e-05,-1.47001e-05,1.06021e-05,0.00419653,-0.00294002,0.00212042,0,0,0,0,0.0278747,0.516786,-0.987111,33.0625,1,37464,3799436
1,4,-0.665638,-0.0756712,9.78297,0.135381,-0.485683,0.983652,-0.00666079,-0.000764191,0.0978294,1,3.72995e-05,-2.26628e-05,1.35525e-05,0.0074599,-0.00453257,0.00271049,0,0,0,0,0.0273774,0.517766,-0.987087,33.0625,1,37465,3799536
1,5,-0.665638,-0.0756712,9.78297,0.135381,-0.485683,0.983652,-0.00666079,-0.000764191,0.0978294,1,3.72995e-05,-2.26628e-05,1.35525e-05,0.0074599,-0.00453257,0.00271049,0,0,0,0,0.0273774,0.517766,-0.987087,33.0625,1,37465,3799536
1,6,-0.681023,-0.0849899,9.78773,0.117866,-0.499662,0.98943,-0.00681203,-0.00085892,0.0978771,1,4.45525e-05,-9.3876e-06,2.19756e-05,0.00891051,-0.00187752,0.00439513,0,0,0,0,0.0264479,0.517268,-0.986084,33.0625,1,37466,3799636
2,1,-0.681023,-0.0849899,9.78773,0.117866,-0.499662,0.98943,-0.00681203,-0.00085892,0.0978771,1,4.45525e-05,-9.3876e-06,2.19756e-05,0.00891051,-0.00187752,0.00439513,0,0,0,0,0.0264479,0.517268,-0.986084,33.0625,1,37466,3799636
2,2,-0.673019,-0.0752187,9.7908,0.129191,-0.485113,0.991657,-0.00672899,-0.00076481,0.097908,1,6.2408e-05,5.8784e-06,2.99549e-05,0.0124816,0.00117568,0.00599097,0,0,0,0,0.0245885,0.514827,-0.985119,33.0625,1,37467,3799736
2,3,-0.673019,-0.0752187,9.7908,0.129191,-0.485113,0.991657,-0.00672899,-0.00076481,0.097908,1,6.2408e-05,5.8784e-06,2.99549e-05,0.0124816,0.00117568,0.00599097,0,0,0,0,0.0245885,0.514827,-0.985119,33.0625,1,37467,3799736
2,4,-0.675375,-0.0719923,9.79187,0.126439,-0.486269,0.991951,-0.00675519,-0.000727565,0.0979185,1,3.74595e-05,-7.51022e-06,2.26557e-05,0.0074919,-0.00150204,0.00453113,0,0,0,0,0.0251432,0.513324,-0.983135,33.0625,1,37468,3799836
3,1,-0.675375,-0.0719923,9.79187,0.126439,-0.486269,0.991951,-0.00675519,-0.000727565,0.0979185,1,3.74595e-05,-7.51022e-06,2.26557e-05,0.0074919,-0.00150204,0.00453113,0,0,0,0,0.0251432,0.513324,-0.983135,33.0625,1,37468,3799836
3,2,-0.678986,-0.0773338,9.78914,0.128021,-0.49172,0.988014,-0.00679234,-0.00077891,0.0978912,1,2.69525e-05,-1.28281e-05,2.17538e-05,0.0053905,-0.00256562,0.00435077,0,0,0,0,0.0269575,0.51628,-0.985603,33.0625,1,37469,3799936
3,3,-0.678986,-0.0773338,9.78914,0.128021,-0.49172,0.988014,-0.00679234,-0.00077891,0.0978912,1,2.69525e-05,-1.28281e-05,2.17538e-05,0.0053905,-0.00256562,0.00435077,0,0,0,0,0.0269575,0.51628,-0.985603,33.0625,1,37469,3799936
3,4,-0.680044,-0.0724936,9.79937,0.123361,-0.488286,0.999208,-0.00680213,-0.000732768,0.0979935,1,3.83425e-05,-8.80091e-06,2.33819e-05,0.0076685,-0.00176018,0.00467638,0,0,0,0,0.0268635,0.518276,-0.988084,33.0625,1,37470,3800036
4,1,-0.680044,-0.0724936,9.79937,0.123361,-0.488286,0.999208,-0.00680213,-0.000732768,0.0979935,1,3.83425e-05,-8.80091e-06,2.33819e-05,0.0076685,-0.00176018,0.00467638,0,0,0,0,0.0268635,0.518276,-0.988084,33.0625,1,37470,3800036
4,2,-0.667591,-0.0759605,9.78364,0.133647,-0.494756,0.980702,-0.00667717,-0.000767823,0.0978363,1,4.09557e-05,-6.56772e-06,1.5287e-05,0.00819114,-0.00131354,0.0030574,0,0,0,0,0.025461,0.517294,-0.987089,33.0625,1,37471,3800136
4,3,-0.667591,-0.0759605,9.78364,0.133647,-0.494756,0.980702,-0.00667717,-0.000767823,0.0978363,1,4.09557e-05,-6.56772e-06,1.5287e-05,0.00819114,-0.00131354,0.0030574,0,0,0,0,0.025461,0.517294,-0.987089,33.0625,1,37471,3800136
4,4,-0.676306,-0.0754578,9.78575,0.12662,-0.493408,0.984968,-0.00676564,-0.000761852,0.0978573,1,3.70127e-05,-1.32265e-05,2.25566e-06,0.00740254,-0.0026453,0.000451132,0,0,0,0,0.0260238,0.515303,-0.985116,33.0625,1,37472,3800236
7,1,-0.676306,-0.0754578,9.78575,0.12662,-0.493408,0.984968,-0.00676564,-0.000761852,0.0978573,1,3.70127e-05,-1.32265e-05,2.25566e-06,0.00740254,-0.0026453,0.000451132,0,0,0,0,0.0260238,0.515303,-0.985116,33.0625,1,37472,3800236
7,2,-0.668685,-0.0722673,9.79218,0.130972,-0.492911,0.990593,-0.00668979,-0.00073256,0.0979215,1,4.87121e-05,-1.5203e-05,2.59108e-05,0.00974243,-0.00304059,0.00518216,0,0,0,0,0.0270149,0.515756,-0.983595,33.0625,1,37473,3800336
7,3,-0.668685,-0.0722673,9.79218,0.130972,-0.492911,0.990593,-0.00668979,-0.00073256,0.0979215,1,4.87121e-05,-1.5203e-05,2.59108e-05,0.00974243,-0.00304059,0.00518216,0,0,0,0,0.0270149,0.515756,-0.983595,33.0625,1,37473,3800336
7,4,-0.666488,-0.0762896,9.79482,0.131503,-0.490558,0.991332,-0.00666571,-0.000772938,0.0979481,1,5.0608e-05,-4.30107e-06,9.55929e-06,0.0101216,-0.000860215,0.00191186,0,0,0,0,0.027496,0.515752,-0.983597,33.0625,1,37474,3800436
8,1,-0.666488,-0.0762896,9.79482,0.131503,-0.490558,0.991332,-0.00666571,-0.000772938,0.0979481,1,5.0608e-05,-4.30107e-06,9.55929e-06,0.0101216,-0.000860215,0.00191186,0,0,0,0,0.027496,0.515752,-0.983597,33.0625,1,37474,3800436
8,2,-0.666879,-0.0782142,9.78362,0.134012,-0.495307,0.980678,-0.00666995,-0.000792378,0.097836,1,5.04404e-05,-6.14452e-06,2.74612e-05,0.0100881,-0.0012289,0.00549224,0,0,0,0,0.0265295,0.515281,-0.984108,33.0625,1,37475,3800536
8,3,-0.666879,-0.0782142,9.78362,0.134012,-0.495307,0.980678,-0.00666995,-0.000792378,0.097836,1,5.04404e-05,-6.14452e-06,2.74612e-05,0.0100881,-0.0012289,0.00549224,0,0,0,0,0.0265295,0.515281,-0.984108,33.0625,1,37475,3800536
8,4,-0.669899,-0.0702186,9.79592,0.130806,-0.491335,0.995572,-0.00669982,-0.000711825,0.0979591,1,4.85722e-05,-4.28602e-06,9.14928e-06,0.00971444,-0.000857204,0.00182986,0,0,0,0,0.0284089,0.51578,-0.985621,33.0625,1,37476,3800636
9,1,-0.669899,-0.0702186,9.79592,0.130806,-0.491335,0.995572,-0.00669982,-0.000711825,0.0979591,1,4.85722e-05,-4.28602e-06,9.14928e-06,0.00971444,-0.000857204,0.00182986,0,0,0,0,0.0284089,0.51578,-0.985621,33.0625,1,37476,3800636
9,2,-0.677363,-0.0725881,9.78984,0.126864,-0.491524,0.988861,-0.00677532,-0.000736052,0.0978982,1,5.05355e-05,-8.78593e-06,2.04034e-05,0.0101071,-0.00175719,0.00408068,0,0,0,0,0.0283515,0.516304,-0.987629,33.0625,1,37477,3800736
9,3,-0.677363,-0.0725881,9.78984,0.126864,-0.491524,0.988861,-0.00677532,-0.000736052,0.0978982,1,5.05355e-05,-8.78593e-06,2.04034e-05,0.0101071,-0.00175719,0.00408068,0,0,0,0,0.0283515,0.516304,-0.987629,33.0625,1,37477,3800736
9,4,-0.670848,-0.0646479,9.78988,0.126789,-0.486241,0.987405,-0.00671341,-0.000657556,0.0978984,1,5.51845e-05,-2.53096e-05,2.02696e-05,0.0110369,-0.00506193,0.00405392,0,0,0,0,0.0264679,0.515326,-0.986632,33.0625,1,37478,3800836
10,1,-0.670848,-0.0646479,9.78988,0.126789,-0.486241,0.987405,-0.00671341,-0.000657556,0.0978984,1,5.51845e-05,-2.53096e-05,2.02696e-05,0.0110369,-0.00506193,0.00405392,0,0,0,0,0.0264679,0.515326,-0.986632,33.0625,1,37478,3800836
10,2,-0.660895,-0.0779786,9.78834,0.13941,-0.505266,0.987873,-0.00661173,-0.000787941,0.0978831,1,3.99669e-05,-1.4372e-05,2.5045e-05,0.00799338,-0.0028744,0.005009,0,0,0,0,0.0260033,0.5158,-0.985609,33.0625,1,37479,3800936
10,3,-0.660895,-0.0779786,9.78834,0.13941,-0.505266,0.987873,-0.00661173,-0.000787941,0.0978831,1,3.99669e-05,-1.4372e-05,2.5045e-05,0.00799338,-0.0028744,0.005009,0,0,0,0,0.0260033,0.5158,-0.985609,33.0625,1,37479,3800936
10,4,-0.671265,-0.0746717,9.79488,0.131986,-0.498402,0.992261,-0.00671271,-0.000755049,0.0979487,1,4.16394e-05,-4.17237e-07,1.30422e-05,0.00832789,-8.34475e-05,0.00260844,0,0,0,0,0.0269779,0.515783,-0.985109,33.0625,1,37480,3801036
11,1,-0.671265,-0.0746717,9.79488,0.131986,-0.498402,0.992261,-0.00671271,-0.000755049,0.0979487,1,4.16394e-05,-4.17237e-07,1.30422e-05,0.00832789,-8.34475e-05,0.00260844,0,0,0,0,0.0269779,0.515783,-0.985109,33.0625,1,37480,3801036
11,2,-0.674148,-0.0709491,9.7946,0.125453,-0.494764,0.993047,-0.00674553,-0.000717701,0.0979456,1,4.12856e-05,-2.07553e-05,9.05816e-06,0.00825712,-0.00415106,0.00181163,0,0,0,0,0.0254938,0.516788,-0.98609,33.0625,1,37481,3801136
11,3,-0.674148,-0.0709491,9.7946,0.125453,-0.494764,0.993047,-0.00674553,-0.000717701,0.0979456,1,4.12856e-05,-2.07553e-05,9.05816e-06,0.00825712,-0.00415106,0.00181163,0,0,0,0,0.0254938,0.516788,-0.98609,33.0625,1,37481,3801136
11,4,-0.665832,-0.0717951,9.78062,0.133533,-0.497856,0.978182,-0.00666122,-0.000725972,0.0978059,1,4.01902e-05,-1.49551e-05,1.19603e-05,0.00803805,-0.00299102,0.00239205,0,0,0,0,0.0264152,0.517774,-0.987083,33.0625,1,37482,3801236
12,1,-0.665832,-0.0717951,9.78062,0.133533,-0.497856,0.978182,-0.00666122,-0.000725972,0.0978059,1,4.01902e-05,-1.49551e-05,1.19603e-05,0.00803805,-0.00299102,0.00239205,0,0,0,0,0.0264152,0.517774,-0.987083,33.0625,1,37482,3801236
12,2,-0.666932,-0.0704923,9.78301,0.133618,-0.50008,0.981673,-0.00667062,-0.000712116,0.0978299,1,3.5787e-05,-6.75019e-06,1.43257e-05,0.00715739,-0.00135004,0.00286515,0,0,0,0,0.0268754,0.516821,-0.988621,33.0625,1,37483,3801336
12,3,-0.666932,-0.0704923,9.78301,0.133618,-0.50008,0.981673,-0.00667062,-0.000712116,0.0978299,1,3.5787e-05,-6.75019e-06,1.43257e-05,0.00715739,-0.00135004,0.00286515,0,0,0,0,0.0268754,0.516821,-0.988621,33.0625,1,37483,3801336
12,4,-0.6658,-0.0741538,9.79416,0.134645,-0.503356,0.996728,-0.00665855,-0.000747607,0.0979415,1,2.97968e-05,-2.94112e-06,1.74679e-05,0.00595935,-0.000588225,0.00349357,0,0,0,0,0.0254933,0.515343,-0.987132,33.0625,1,37484,3801436
10,1,-0.6658,-0.0741538,9.79416,0.134645,-0.503356,0.996728,-0.00665855,-0.000747607,0.0979415,1,2.97968e-05,-2.94112e-06,1.74679e-05,0.00595935,-0.000588225,0.00349357,0,0,0,0,0.0254933,0.515343,-0.987132,33.0625,1,37484,3801436
10,2,-0.679234,-0.084365,9.79044,0.120576,-0.518201,0.989028,-0.00679554,-0.000852195,0.0979041,1,4.25073e-05,-1.64903e-05,1.63689e-05,0.00850146,-0.00329806,0.00327377,0,0,0,0,0.0250411,0.515808,-0.985605,33.0625,1,37485,3801536
10,3,-0.679234,-0.084365,9.79044,0.120576,-0.518201,0.989028,-0.00679554,-0.000852195,0.0979041,1,4.25073e-05,-1.64903e-05,1.63689e-05,0.00850146,-0.00329806,0.00327377,0,0,0,0,0.0250411,0.515808,-0.985605,33.0625,1,37485,3801536
10,4,-0.667731,-0.0722768,9.79352,0.1305,-0.501539,0.992158,-0.0066802,-0.000730096,0.097935,1,3.70685e-05,-1.47876e-05,5.09812e-06,0.0074137,-0.00295752,0.00101962,0,0,0,0,0.0255592,0.515777,-0.984093,33.0625,1,37486,3801636
14,1,-0.667731,-0.0722768,9.79352,0.1305,-0.501539,0.992158,-0.0066802,-0.000730096,0.097935,1,3.70685e-05,-1.47876e-05,5.09812e-06,0.0074137,-0.00295752,0.00101962,0,0,0,0,0.0255592,0.515777,-0.984093,33.0625,1,37486,3801636
14,2,-0.671201,-0.0729641,9.78642,0.129236,-0.504947,0.983038,-0.00671377,-0.000738264,0.097864,1,4.29992e-05,-9.12161e-06,1.54355e-05,0.00859984,-0.00182432,0.0030871,0,0,0,0,0.0260161,0.517236,-0.984062,33.0625,1,37487,3801736
14,3,-0.671201,-0.0729641,9.78642,0.129236,-0.504947,0.983038,-0.00671377,-0.000738264,0.097864,1,4.29992e-05,-9.12161e-06,1.54355e-05,0.00859984,-0.00182432,0.0030871,0,0,0,0,0.0260161,0.517236,-0.984062,33.0625,1,37487,3801736
14,4,-0.673868,-0.0745292,9.79354,0.126183,-0.507575,0.989301,-0.00674058,-0.000752107,0.0979352,1,3.33247e-05,-9.86822e-06,2.13439e-05,0.00666494,-0.00197364,0.00426878,0,0,0,0,0.0269826,0.517707,-0.983551,33.0625,1,37488,3801836
15,1,-0.673868,-0.0745292,9.79354,0.126183,-0.507575,0.989301,-0.00674058,-0.000752107,0.0979352,1,3.33247e-05,-9.86822e-06,2.13439e-05,0.00666494,-0.00197364,0.00426878,0,0,0,0,0.0269826,0.517707,-0.983551,33.0625,1,37488,3801836
15,2,-0.677382,-0.0685551,9.77937,0.117639,-0.503538,0.978021,-0.00677699,-0.000693423,0.0977934,1,3.96147e-05,-1.62404e-05,9.09146e-06,0.00792295,-0.00324809,0.00181829,0,0,0,0,0.0269248,0.516785,-0.986602,33.0625,1,37489,3801936
15,3,-0.677382,-0.0685551,9.77937,0.117639,-0.503538,0.978021,-0.00677699,-0.000693423,0.0977934,1,3.96147e-05,-1.62404e-05,9.09146e-06,0.00792295,-0.00324809,0.00181829,0,0,0,0,0.0269248,0.516785,-0.986602,33.0625,1,37489,3801936
15,4,-0.663096,-0.0649186,9.7905,0.132273,-0.500737,0.989549,-0.00663382,-0.000659837,0.0979047,1,5.28805e-05,-1.47502e-05,2.23072e-05,0.0105761,-0.00295004,0.00446145,0,0,0,0,0.0269281,0.514374,-0.988171,33.0625,1,37490,3802036
16,1,-0.663096,-0.0649186,9.7905,0.132273,-0.500737,0.989549,-0.00663382,-0.000659837,0.0979047,1,5.28805e-05,-1.47502e-05,2.23072e-05,0.0105761,-0.00295004,0.00446145,0,0,0,0,0.0269281,0.514374,-0.988171,33.0625,1,37490,3802036
16,2,-0.670977,-0.0747013,9.78265,0.123697,-0.510286,0.980258,-0.00671026,-0.00075389,0.0978265,1,3.36617e-05,-2.68221e-06,2.17147e-05,0.00673235,-0.000536442,0.00434294,0,0,0,0,0.0264963,0.514341,-0.986149,33.0625,1,37491,3802136
16,3,-0.670977,-0.0747013,9.78265,0.123697,-0.510286,0.980258,-0.00671026,-0.00075389,0.0978265,1,3.36617e-05,-2.68221e-06,2.17147e-05,0.00673235,-0.000536442,0.00434294,0,0,0,0,0.0264963,0.514341,-0.986149,33.0625,1,37491,3802136
16,4,-0.673837,-0.0744564,9.79694,0.122501,-0.510107,0.995682,-0.00674174,-0.000752779,0.0979691,1,4.07417e-05,-1.7315e-05,1.7183e-05,0.00814834,-0.003463,0.00343661,0,0,0,0,0.0279933,0.514772,-0.983621,33.0625,1,37492,3802236
17,1,-0.673837,-0.0744564,9.79694,0.122501,-0.510107,0.995682,-0.00674174,-0.000752779,0.0979691,1,4.07417e-05,-1.7315e-05,1.7183e-05,0.00814834,-0.003463,0.00343661,0,0,0,0,0.0279933,0.514772,-0.983621,33.0625,1,37492,3802236
17,2,-0.667926,-0.0724214,9.78537,0.126042,-0.506466,0.981803,-0.00668027,-0.000735166,0.0978535,1,5.39663e-05,-5.40934e-06,2.9171e-05,0.0107933,-0.00108187,0.0058342,0,0,0,0,0.0289517,0.515731,-0.983099,33.0625,1,37493,3802336
17,3,-0.667926,-0.0724214,9.78537,0.126042,-0.506466,0.981803,-0.00668027,-0.000735166,0.0978535,1,5.39663e-05,-5.40934e-06,2.9171e-05,0.0107933,-0.00108187,0.0058342,0,0,0,0,0.0289517,0.515731,-0.983099,33.0625,1,37493,3802336
17,4,-0.669599,-0.0796952,9.79244,0.122978,-0.518988,0.988229,-0.0066957,-0.000807149,0.0979243,1,5.07663e-05,1.32818e-06,1.89974e-05,0.0101533,0.000265636,0.00379947,0,0,0,0,0.0284137,0.517704,-0.984063,33.0625,1,37494,3802436
18,1,-0.669599,-0.0796952,9.79244,0.122978,-0.518988,0.988229,-0.0066957,-0.000807149,0.0979243,1,5.07663e-05,1.32818e-06,1.89974e-05,0.0101533,0.000265636,0.00379947,0,0,0,0,0.0284137,0.517704,-0.984063,33.0625,1,37494,3802436
18,2,-0.671293,-0.0657265,9.78376,0.124621,-0.506293,0.977196,-0.00671524,-0.00066475,0.0978374,1,3.64426e-05,-1.19786e-05,2.63956e-05,0.00728853,-0.00239572,0.00527912,0,0,0,0,0.0264232,0.517286,-0.987094,33.0625,1,37495,3802536
18,3,-0.671293,-0.0657265,9.78376,0.124621,-0.506293,0.977196,-0.00671524,-0.00066475,0.0978374,1,3.64426e-05,-1.19786e-05,2.63956e-05,0.00728853,-0.00239572,0.00527912,0,0,0,0,0.0264232,0.517286,-0.987094,33.0625,1,37495,3802536
18,4,-0.672175,-0.0765385,9.79758,0.124241,-0.517999,0.992568,-0.00672426,-0.000773489,0.0979756,1,4.02312e-05,-1.29602e-05,1.63951e-05,0.00804625,-0.00259204,0.00327903,0,0,0,0,0.0274097,0.515815,-0.987131,33.0625,1,37496,3802636
19,1,-0.672175,-0.0765385,9.79758,0.124241,-0.517999,0.992568,-0.00672426,-0.000773489,0.0979756,1,4.02312e-05,-1.29602e-05,1.63951e-05,0.00804625,-0.00259204,0.00327903,0,0,0,0,0.0274097,0.515815,-0.987131,33.0625,1,37496,3802636
19,2,-0.666796,-0.0824316,9.7863,0.126727,-0.527885,0.984523,-0.00666891,-0.00083303,0.0978628,1,4.33754e-05,-5.01964e-06,1.67583e-05,0.00867508,-0.00100393,0.00335166,0,0,0,0,0.0269737,0.515304,-0.985625,33.0625,1,37497,3802736
19,3,-0.666796,-0.0824316,9.7863,0.126727,-0.527885,0.984523,-0.00666891,-0.00083303,0.0978628,1,4.33754e-05,-5.01964e-06,1.67583e-05,0.00867508,-0.00100393,0.00335166,0,0,0,0,0.0269737,0.515304,-0.985625,33.0625,1,37497,3802736
19,4,-0.672917,-0.0750162,9.78777,0.122723,-0.518708,0.982033,-0.00673095,-0.000760721,0.0978775,1,5.27725e-05,-9.23925e-06,1.69611e-05,0.0105545,-0.00184785,0.00339222,0,0,0,0,0.0270145,0.51431,-0.984637,33.0625,1,37498,3802836
20,1,-0.672917,-0.0750162,9.78777,0.122723,-0.518708,0.982033,-0.00673095,-0.000760721,0.0978775,1,5.27725e-05,-9.23925e-06,1.69611e-05,0.0105545,-0.00184785,0.00339222,0,0,0,0,0.0270145,0.51431,-0.984637,33.0625,1,37498,3802836
20,2,-0.665506,-0.0752589,9.79788,0.128655,-0.519486,0.992831,-0.00665485,-0.000762686,0.0979787,1,5.00287e-05,9.03433e-07,2.20148e-05,0.0100057,0.000180687,0.00440295,0,0,0,0,0.0274514,0.517712,-0.984058,33.0625,1,37499,3802936
20,3,-0.665506,-0.0752589,9.79788,0.128655,-0.519486,0.992831,-0.00665485,-0.000762686,0.0979787,1,5.00287e-05,9.03433e-07,2.20148e-05,0.0100057,0.000180687,0.00440295,0,0,0,0,0.0274514,0.517712,-0.984058,33.0625,1,37499,3802936
20,4,-0.659851,-0.0815798,9.79338,0.136581,-0.526902,0.987029,-0.00660221,-0.000822917,0.0979335,1,3.49525e-05,-1.90698e-05,2.06959e-05,0.00699049,-0.00381397,0.00413918,0,0,0,0,0.0283567,0.519673,-0.985029,33.0625,1,37500,3803036
21,1,-0.659851,-0.0815798,9.79338,0.136581,-0.526902,0.987029,-0.00660221,-0.000822917,0.0979335,1,3.49525e-05,-1.90698e-05,2.06959e-05,0.00699049,-0.00381397,0.00413918,0,0,0,0,0.0283567,0.519673,-0.985029,33.0625,1,37500,3803036
21,2,-0.678821,-0.0802166,9.79523,0.114265,-0.527167,0.99678,-0.00679192,-0.000810194,0.097952,1,3.92757e-05,-1.91294e-05,2.46242e-05,0.00785515,-0.00382587,0.00492484,0,0,0,0,0.0259217,0.517787,-0.987585,33.0625,1,37501,3803136
21,3,-0.678821,-0.0802166,9.79523,0.114265,-0.527167,0.99678,-0.00679192,-0.000810194,0.097952,1,3.92757e-05,-1.91294e-05,2.46242e-05,0.00785515,-0.00382587,0.00492484,0,0,0,0,0.0259217,0.517787,-0.987585,33.0625,1,37501,3803136
21,4,-0.660646,-0.0740158,9.78871,0.130023,-0.523136,0.984337,-0.00660956,-0.000752406,0.0978868,1,6.09383e-05,-1.60017e-05,2.40713e-05,0.0121877,-0.00320034,0.00481425,0,0,0,0,0.0240789,0.515816,-0.9856,33.0625,1,37502,3803236
22,1,-0.660646,-0.0740158,9.78871,0.130023,-0.523136,0.984337,-0.00660956,-0.000752406,0.0978868,1,6.09383e-05,-1.60017e-05,2.40713e-05,0.0121877,-0.00320034,0.00481425,0,0,0,0,0.0240789,0.515816,-0.9856,33.0625,1,37502,3803236
22,2,-0.674548,-0.0767127,9.78946,0.120556,-0.524917,0.989094,-0.00674784,-0.000776937,0.0978944,1,4.83674e-05,-1.22228e-05,2.52033e-05,0.00967347,-0.00244456,0.00504066,0,0,0,0,0.0251351,0.513812,-0.983124,33.0625,1,37503,3803336
22,3,-0.674548,-0.0767127,9.78946,0.120556,-0.524917,0.989094,-0.00674784,-0.000776937,0.0978944,1,4.83674e-05,-1.22228e-05,2.52033e-05,0.00967347,-0.00244456,0.00504066,0,0,0,0,0.0251351,0.513812,-0.983124,33.0625,1,37503,3803336
22,4,-0.663656,-0.074635,9.78567,0.132545,-0.528004,0.978095,-0.00664039,-0.000753675,0.0978564,1,3.61688e-05,-1.97013e-05,1.85631e-05,0.00723376,-0.00394026,0.00371263,0,0,0,0,0.0260935,0.51477,-0.982602,33.0625,1,37504,3803436
23,1,-0.663656,-0.074635,9.78567,0.132545,-0.528004,0.978095,-0.00664039,-0.000753675,0.0978564,1,3.61688e-05,-1.97013e-05,1.85631e-05,0.00723376,-0.00394026,0.00371263,0,0,0,0,0.0260935,0.51477,-0.982602,33.0625,1,37504,3803436
23,2,-0.671237,-0.0757139,9.79282,0.125973,-0.52463,0.987533,-0.00671323,-0.000765604,0.0979281,1,4.13824e-05,-4.58558e-06,2.68444e-05,0.00827648,-0.000917116,0.00536889,0,0,0,0,0.0269907,0.517219,-0.983562,33.0625,1,37505,3803536
23,3,-0.671237,-0.0757139,9.79282,0.125973,-0.52463,0.987533,-0.00671323,-0.000765604,0.0979281,1,4.13824e-05,-4.58558e-06,2.68444e-05,0.00827648,-0.000917116,0.00536889,0,0,0,0,0.0269907,0.517219,-0.983562,33.0625,1,37505,3803536
23,4,-0.666972,-0.0802973,9.79447,0.128597,-0.530302,0.988258,-0.00667247,-0.000813697,0.0979444,1,5.40428e-05,-1.41264e-05,1.02855e-05,0.0108086,-0.00282528,0.0020571,0,0,0,0,0.0279159,0.517238,-0.985081,33.0625,1,37506,3803636
24,1,-0.666972,-0.0802973,9.79447,0.128597,-0.530302,0.988258,-0.00667247,-0.000813697,0.0979444,1,5.40428e-05,-1.41264e-05,1.02855e-05,0.0108086,-0.00282528,0.0020571,0,0,0,0,0.0279159,0.517238,-0.985081,33.0625,1,37506,3803636
24,2,-0.663868,-0.0740317,9.79109,0.125249,-0.531859,0.987022,-0.00663878,-0.000748932,0.0979108,1,4.27309e-05,-6.67097e-07,1.85987e-05,0.00854617,-0.00013342,0.00371975,0,0,0,0,0.0254444,0.516824,-0.988109,33.0625,1,37507,3803736
24,3,-0.663868,-0.0740317,9.79109,0.125249,-0.531859,0.987022,-0.00663878,-0.000748932,0.0979108,1,4.27309e-05,-6.67097e-07,1.85987e-05,0.00854617,-0.00013342,0.00371975,0,0,0,0,0.0254444,0.516824,-0.988109,33.0625,1,37507,3803736
24,4,-0.670947,-0.0701649,9.78677,0.120796,-0.525358,0.981604,-0.00671132,-0.000711388,0.0978675,1,4.82331e-05,-9.61522e-06,2.21971e-05,0.00964662,-0.00192304,0.00443943,0,0,0,0,0.0274424,0.515309,-0.986132,33.0625,1,37508,3803836
25,1,-0.670947,-0.0701649,9.78677,0.120796,-0.525358,0.981604,-0.00671132,-0.000711388,0.0978675,1,4.82331e-05,-9.61522e-06,2.21971e-05,0.00964662,-0.00192304,0.00443943,0,0,0,0,0.0274424,0.515309,-0.986132,33.0625,1,37508,3803836
25,2,-0.672257,-0.0726178,9.7871,0.123873,-0.527593,0.985435,-0.00672375,-0.000734713,0.0978709,1,4.21219e-05,-6.18392e-06,2.15768e-05,0.00842439,-0.00123678,0.00431535,0,0,0,0,0.027488,0.51624,-0.983586,33.0625,1,37509,3803936
25,3,-0.672257,-0.0726178,9.7871,0.123873,-0.527593,0.985435,-0.00672375,-0.000734713,0.0978709,1,4.21219e-05,-6.18392e-06,2.15768e-05,0.00842439,-0.00123678,0.00431535,0,0,0,0,0.027488,0.51624,-0.983586,33.0625,1,37509,3803936
25,4,-0.679064,-0.0673448,9.78821,0.109134,-0.523267,0.985369,-0.00679392,-0.000686685,0.0978818,1,6.56712e-05,-1.69502e-05,2.80684e-05,0.0131342,-0.00339004,0.00561367,0,0,0,0,0.0250824,0.516259,-0.983575,33.0625,1,37510,3804036
26,1,-0.679064,-0.0673448,9.78821,0.109134,-0.523267,0.985369,-0.00679392,-0.000686685,0.0978818,1,6.56712e-05,-1.69502e-05,2.80684e-05,0.0131342,-0.00339004,0.00561367,0,0,0,0,0.0250824,0.516259,-0.983575,33.0625,1,37510,3804036
26,2,-0.661692,-0.0793173,9.78561,0.130914,-0.538963,0.9817,-0.00661874,-0.000803309,0.0978559,1,5.08559e-05,-9.39868e-06,1.38618e-05,0.0101712,-0.00187974,0.00277236,0,0,0,0,0.0249804,0.518743,-0.986044,33.0625,1,37511,3804136
26,3,-0.661692,-0.0793173,9.78561,0.130914,-0.538963,0.9817,-0.00661874,-0.000803309,0.0978559,1,5.08559e-05,-9.39868e-06,1.38618e-05,0.0101712,-0.00187974,0.00277236,0,0,0,0,0.0249804,0.518743,-0.986044,33.0625,1,37511,3804136
26,4,-0.679357,-0.0783058,9.79456,0.113054,-0.537145,0.98931,-0.00679418,-0.000791569,0.0979455,1,4.21927e-05,-3.25428e-06,1.81029e-05,0.00843853,-0.000650856,0.00362058,0,0,0,0,0.0268882,0.518258,-0.987074,33.0625,1,37512,3804236
27,1,-0.679357,-0.0783058,9.79456,0.113054,-0.537145,0.98931,-0.00679418,-0.000791569,0.0979455,1,4.21927e-05,-3.25428e-06,1.81029e-05,0.00843853,-0.000650856,0.00362058,0,0,0,0,0.0268882,0.518258,-0.987074,33.0625,1,37512,3804236
27,2,-0.674114,-0.0640265,9.7926,0.123927,-0.526609,0.989553,-0.00674163,-0.000650728,0.0979259,1,5.11928e-05,-2.68982e-06,3.24625e-05,0.0102386,-0.000537963,0.00649249,0,0,0,0,0.0283188,0.516809,-0.988628,33.0625,1,37513,3804336
27,3,-0.674114,-0.0640265,9.7926,0.123927,-0.526609,0.989553,-0.00674163,-0.000650728,0.0979259,1,5.11928e-05,-2.68982e-06,3.24625e-05,0.0102386,-0.000537963,0.00649249,0,0,0,0,0.0283188,0.516809,-0.988628,33.0625,1,37513,3804336
27,4,-0.671477,-0.0777871,9.78773,0.119959,-0.543657,0.985315,-0.00671773,-0.000784436,0.0978771,1,3.20357e-05,-1.52959e-05,2.18899e-05,0.00640714,-0.00305918,0.00437797,0,0,0,0,0.0259825,0.514851,-0.987146,33.0625,1,37514,3804436
28,1,-0.671477,-0.0777871,9.78773,0.119959,-0.543657,0.985315,-0.00671773,-0.000784436,0.0978771,1,3.20357e-05,-1.52959e-05,2.18899e-05,0.00640714,-0.00305918,0.00437797,0,0,0,0,0.0259825,0.514851,-0.987146,33.0625,1,37514,3804436
28,2,-0.678591,-0.0788461,9.78913,0.111519,-0.545109,0.990774,-0.00678882,-0.00079656,0.097891,1,4.07677e-05,-1.49385e-05,8.70038e-06,0.00815353,-0.00298771,0.00174008,0,0,0,0,0.024152,0.512871,-0.984656,33.0625,1,37515,3804536
28,3,-0.678591,-0.0788461,9.78913,0.111519,-0.545109,0.990774,-0.00678882,-0.00079656,0.097891,1,4.07677e-05,-1.49385e-05,8.70038e-06,0.00815353,-0.00298771,0.00174008,0,0,0,0,0.024152,0.512871,-0.984656,33.0625,1,37515,3804536
28,4,-0.669636,-0.074029,9.78503,0.120588,-0.537893,0.982223,-0.00669695,-0.000748419,0.0978502,1,4.03839e-05,-3.09421e-06,1.68775e-05,0.00807679,-0.000618842,0.0033755,0,0,0,0,0.02655,0.514784,-0.983614,33.0625,1,37516,3804636
29,1,-0.669636,-0.074029,9.78503,0.120588,-0.537893,0.982223,-0.00669695,-0.000748419,0.0978502,1,4.03839e-05,-3.09421e-06,1.68775e-05,0.00807679,-0.000618842,0.0033755,0,0,0,0,0.02655,0.514784,-0.983614,33.0625,1,37516,3804636
29,2,-0.673953,-0.0739723,9.7915,0.117261,-0.540599,0.986215,-0.00674172,-0.000749578,0.0979148,1,4.89931e-05,-1.1375e-05,1.93195e-05,0.00979863,-0.002275,0.00386391,0,0,0,0,0.0264887,0.516275,-0.985096,33.0625,1,37517,3804736
29,3,-0.673953,-0.0739723,9.7915,0.117261,-0.540599,0.986215,-0.00674172,-0.000749578,0.0979148,1,4.89931e-05,-1.1375e-05,1.93195e-05,0.00979863,-0.002275,0.00386391,0,0,0,0,0.0264887,0.516275,-0.985096,33.0625,1,37517,3804736
29,4,-0.660464,-0.0694717,9.78162,0.128753,-0.531214,0.978008,-0.00660639,-0.000701006,0.097816,1,3.11956e-05,-9.05037e-06,1.41451e-05,0.00623911,-0.00181007,0.00282901,0,0,0,0,0.0264313,0.516798,-0.987104,33.0625,1,37518,3804836
30,1,-0.660464,-0.0694717,9.78162,0.128753,-0.531214,0.978008,-0.00660639,-0.000701006,0.097816,1,3.11956e-05,-9.05037e-06,1.41451e-05,0.00623911,-0.00181007,0.00282901,0,0,0,0,0.0264313,0.516798,-0.987104,33.0625,1,37518,3804836
30,2,-0.675913,-0.0709861,9.79087,0.115272,-0.535762,0.981492,-0.00676119,-0.000718534,0.0979085,1,4.27199e-05,-1.0699e-05,2.27799e-05,0.00854398,-0.0021398,0.00455598,0,0,0,0,0.026382,0.516834,-0.989124,33.0625,1,37519,3804936
30,3,-0.675913,-0.0709861,9.79087,0.115272,-0.535762,0.981492,-0.00676119,-0.000718534,0.0979085,1,4.27199e-05,-1.0699e-05,2.27799e-05,0.00854398,-0.0021398,0.00455598,0,0,0,0,0.026382,0.516834,-0.989124,33.0625,1,37519,3804936
30,4,-0.657676,-0.0739283,9.78224,0.129967,-0.540008,0.971775,-0.00657888,-0.000746359,0.0978222,1,3.47998e-05,-1.09952e-05,2.02656e-05,0.00695995,-0.00219905,0.00405313,0,0,0,0,0.0254805,0.513907,-0.988679,33.0625,1,37520,3805036
31,1,-0.657676,-0.0739283,9.78224,0.129967,-0.540008,0.971775,-0.00657888,-0.000746359,0.0978222,1,3.47998e-05,-1.09952e-05,2.02656e-05,0.00695995,-0.00219905,0.00405313,0,0,0,0,0.0254805,0.513907,-0.988679,33.0625,1,37520,3805036
31,2,-0.66647,-0.0664061,9.79457,0.120268,-0.530023,0.991014,-0.00666576,-0.000673333,0.0979456,1,4.4998e-05,-5.6475e-06,3.42538e-05,0.0089996,-0.0011295,0.00685075,0,0,0,0,0.0250696,0.514823,-0.985122,33.0625,1,37521,3805136
31,3,-0.66647,-0.0664061,9.79457,0.120268,-0.530023,0.991014,-0.00666576,-0.000673333,0.0979456,1,4.4998e-05,-5.6475e-06,3.42538e-05,0.0089996,-0.0011295,0.00685075,0,0,0,0,0.0250696,0.514823,-0.985122,33.0625,1,37521,3805136
31,4,-0.667912,-0.0719559,9.78673,0.124431,-0.539283,0.979343,-0.00668067,-0.000726882,0.0978672,1,3.56994e-05,-8.09491e-06,2.51049e-05,0.00713987,-0.00161898,0.00502098,0,0,0,0,0.0265504,0.516229,-0.982572,33.0625,1,37522,3805236
32,1,-0.667912,-0.0719559,9.78673,0.124431,-0.539283,0.979343,-0.00668067,-0.000726882,0.0978672,1,3.56994e-05,-8.09491e-06,2.51049e-05,0.00713987,-0.00161898,0.00502098,0,0,0,0,0.0265504,0.516229,-0.982572,33.0625,1,37522,3805236
32,2,-0.665966,-0.0819292,9.788,0.122689,-0.553879,0.981536,-0.00666448,-0.000830897,0.0978796,1,5.82449e-05,-2.47802e-05,1.51941e-05,0.011649,-0.00495605,0.00303883,0,0,0,0,0.0264764,0.516284,-0.985601,33.0625,1,37523,3805336
32,3,-0.665966,-0.0819292,9.788,0.122689,-0.553879,0.981536,-0.00666448,-0.000830897,0.0978796,1,5.82449e-05,-2.47802e-05,1.51941e-05,0.011649,-0.00495605,0.00303883,0,0,0,0,0.0264764,0.516284,-0.985601,33.0625,1,37523,3805336
32,4,-0.670641,-0.069052,9.78746,0.119656,-0.539659,0.982735,-0.00670691,-0.000700649,0.0978744,1,4.96153e-05,-2.78081e-06,3.10726e-05,0.00992307,-0.000556162,0.00621452,0,0,0,0,0.0269082,0.516316,-0.987622,33.0625,1,37524,3805436
33,1,-0.670641,-0.069052,9.78746,0.119656,-0.539659,0.982735,-0.00670691,-0.000700649,0.0978744,1,4.96153e-05,-2.78081e-06,3.10726e-05,0.00992307,-0.000556162,0.00621452,0,0,0,0,0.0269082,0.516316,-0.987622,33.0625,1,37524,3805436
33,2,-0.676775,-0.0815627,9.79012,0.116564,-0.550828,0.985915,-0.00677167,-0.000824756,0.0979008,1,4.5702e-05,-2.01761e-05,1.33046e-05,0.00914039,-0.00403522,0.00266093,0,0,0,0,0.02785,0.516804,-0.988121,33.0625,1,37525,3805536
33,3,-0.676775,-0.0815627,9.79012,0.116564,-0.550828,0.985915,-0.00677167,-0.000824756,0.0979008,1,4.5702e-05,-2.01761e-05,1.33046e-05,0.00914039,-0.00403522,0.00266093,0,0,0,0,0.02785,0.516804,-0.988121,33.0625,1,37525,3805536
33,4,-0.672966,-0.0733875,9.79049,0.118366,-0.546995,0.986051,-0.00673135,-0.000741998,0.0979047,1,4.09447e-05,-8.7115e-06,7.83632e-06,0.00818893,-0.0017423,0.00156726,0,0,0,0,0.0284047,0.515301,-0.986137,33.0625,1,37526,3805636
34,1,-0.672966,-0.0733875,9.79049,0.118366,-0.546995,0.986051,-0.00673135,-0.000741998,0.0979047,1,4.09447e-05,-8.7115e-06,7.83632e-06,0.00818893,-0.0017423,0.00156726,0,0,0,0,0.0284047,0.515301,-0.986137,33.0625,1,37526,3805636
34,2,-0.665169,-0.07671,9.79176,0.121149,-0.549575,0.98596,-0.00665149,-0.000776566,0.0979176,1,4.75515e-05,9.3318e-07,1.15596e-05,0.00951029,0.000186636,0.00231192,0,0,0,0,0.0274671,0.515291,-0.985122,33.0625,1,37527,3805736
34,3,-0.665169,-0.07671,9.79176,0.121149,-0.549575,0.98596,-0.00665149,-0.000776566,0.0979176,1,4.75515e-05,9.3318e-07,1.15596e-05,0.00951029,0.000186636,0.00231192,0,0,0,0,0.0274671,0.515291,-0.985122,33.0625,1,37527,3805736
34,4,-0.664093,-0.0780711,9.78801,0.126681,-0.54916,0.980737,-0.00664291,-0.000788399,0.0978799,1,3.80426e-05,-1.02352e-05,1.81404e-05,0.00760852,-0.00204704,0.00362809,0,0,0,0,0.0274714,0.51577,-0.984607,33.0625,1,37528,3805836
35,1,-0.664093,-0.0780711,9.78801,0.126681,-0.54916,0.980737,-0.00664291,-0.000788399,0.0978799,1,3.80426e-05,-1.02352e-05,1.81404e-05,0.00760852,-0.00204704,0.00362809,0,0,0,0,0.0274714,0.51577,-0.984607,33.0625,1,37528,3805836
35,2,-0.669968,-0.0767042,9.78568,0.116584,-0.553468,0.980356,-0.00669982,-0.000775017,0.0978568,1,4.01232e-05,-8.01035e-07,9.11955e-06,0.00802465,-0.000160207,0.00182391,0,0,0,0,0.0269622,0.518204,-0.984045,33.0625,1,37529,3805936
35,3,-0.669968,-0.0767042,9.78568,0.116584,-0.553468,0.980356,-0.00669982,-0.000775017,0.0978568,1,4.01232e-05,-8.01035e-07,9.11955e-06,0.00802465,-0.000160207,0.00182391,0,0,0,0,0.0269622,0.518204,-0.984045,33.0625,1,37529,3805936
35,4,-0.680018,-0.0703299,9.79328,0.104729,-0.546587,0.989033,-0.0068029,-0.000712554,0.0979326,1,4.57689e-05,-1.4065e-05,2.13552e-05,0.00915377,-0.002813,0.00427105,0,0,0,0,0.0274106,0.518705,-0.985046,33.0625,1,37530,3806036
36,1,-0.680018,-0.0703299,9.79328,0.104729,-0.546587,0.989033,-0.0068029,-0.000712554,0.0979326,1,4.57689e-05,-1.4065e-05,2.13552e-05,0.00915377,-0.002813,0.00427105,0,0,0,0,0.0274106,0.518705,-0.985046,33.0625,1,37530,3806036
36,2,-0.671018,-0.0778197,9.79045,0.116975,-0.556743,0.986444,-0.00671438,-0.000787241,0.0979041,1,4.50557e-05,-2.15712e-05,1.65641e-05,0.00901114,-0.00431423,0.00331283,0,0,0,0,0.0269086,0.517761,-0.98658,33.0625,1,37531,3806136
36,3,-0.671018,-0.0778197,9.79045,0.116975,-0.556743,0.986444,-0.00671438,-0.000787241,0.0979041,1,4.50557e-05,-2.15712e-05,1.65641e-05,0.00901114,-0.00431423,0.00331283,0,0,0,0,0.0269086,0.517761,-0.98658,33.0625,1,37531,3806136
36,4,-0.66984,-0.0749683,9.78571,0.118842,-0.54949,0.978224,-0.00670085,-0.000758727,0.0978568,1,4.46663e-05,-1.27125e-05,2.25231e-05,0.00893325,-0.0025425,0.00450462,0,0,0,0,0.0269822,0.516262,-0.984594,33.0625,1,37532,3806236
37,1,-0.66984,-0.0749683,9.78571,0.118842,-0.54949,0.978224,-0.00670085,-0.000758727,0.0978568,1,4.46663e-05,-1.27125e-05,2.25231e-05,0.00893325,-0.0025425,0.00450462,0,0,0,0,0.0269822,0.516262,-0.984594,33.0625,1,37532,3806236
37,2,-0.665945,-0.0673592,9.78675,0.117276,-0.544553,0.980294,-0.00665843,-0.000683161,0.0978675,1,4.76783e-05,5.10338e-06,1.7721e-05,0.00953565,0.00102068,0.00354419,0,0,0,0,0.0260242,0.516748,-0.984073,33.0625,1,37533,3806336
37,3,-0.665945,-0.0673592,9.78675,0.117276,-0.544553,0.980294,-0.00665843,-0.000683161,0.0978675,1,4.76783e-05,5.10338e-06,1.7721e-05,0.00953565,0.00102068,0.00354419,0,0,0,0,0.0260242,0.516748,-0.984073,33.0625,1,37533,3806336
37,4,-0.671624,-0.0747275,9.79284,0.11654,-0.55458,0.9864,-0.00671682,-0.000753826,0.0979283,1,3.21529e-05,-3.09394e-06,1.88501e-05,0.00643058,-0.000618788,0.00377003,0,0,0,0,0.0260238,0.515303,-0.985116,33.0625,1,37534,3806436
38,1,-0.671624,-0.0747275,9.79284,0.11654,-0.55458,0.9864,-0.00671682,-0.000753826,0.0979283,1,3.21529e-05,-3.09394e-06,1.88501e-05,0.00643058,-0.000618788,0.00377003,0,0,0,0,0.0260238,0.515303,-0.985116,33.0625,1,37534,3806436
38,2,-0.664559,-0.0692943,9.78029,0.123693,-0.553902,0.974014,-0.00664555,-0.000702931,0.0978028,1,4.94328e-05,-3.65846e-09,2.39739e-05,0.00988657,-7.31691e-07,0.00479478,0,0,0,0,0.0265011,0.516266,-0.984591,33.0625,1,37535,3806536
38,3,-0.664559,-0.0692943,9.78029,0.123693,-0.553902,0.974014,-0.00664555,-0.000702931,0.0978028,1,4.94328e-05,-3.65846e-09,2.39739e-05,0.00988657,-7.31691e-07,0.00479478,0,0,0,0,0.0265011,0.516266,-0.984591,33.0625,1,37535,3806536
38,4,-0.682108,-0.0705188,9.7882,0.105491,-0.554424,0.979568,-0.00682314,-0.000715742,0.0978818,1,5.20386e-05,-1.07346e-05,2.68518e-05,0.0104077,-0.00214691,0.00537036,0,0,0,0,0.026921,0.517752,-0.986075,33.0625,1,37536,3806636
39,1,-0.682108,-0.0705188,9.7882,0.105491,-0.554424,0.979568,-0.00682314,-0.000715742,0.0978818,1,5.20386e-05,-1.07346e-05,2.68518e-05,0.0104077,-0.00214691,0.00537036,0,0,0,0,0.026921,0.517752,-0.986075,33.0625,1,37536,3806636
39,2,-0.680676,-0.0785718,9.79354,0.1039,-0.56804,0.991722,-0.00680869,-0.000793978,0.0979352,1,4.00637e-05,-1.01102e-05,3.03257e-05,0.00801274,-0.00202203,0.00606515,0,0,0,0,0.0259341,0.517778,-0.98708,33.0625,1,37537,3806736
39,3,-0.680676,-0.0785718,9.79354,0.1039,-0.56804,0.991722,-0.00680869,-0.000793978,0.0979352,1,4.00637e-05,-1.01102e-05,3.03257e-05,0.00801274,-0.00202203,0.00606515,0,0,0,0,0.0259341,0.517778,-0.98708,33.0625,1,37537,3806736
39,4,-0.677322,-0.0825013,9.78162,0.108946,-0.565776,0.97341,-0.0067745,-0.000834167,0.097816,1,4.48489e-05,-6.75559e-06,2.80364e-05,0.00896978,-0.00135112,0.00560728,0,0,0,0,0.0269779,0.515783,-0.985109,33.0625,1,37538,3806836
40,1,-0.677322,-0.0825013,9.78162,0.108946,-0.565776,0.97341,-0.0067745,-0.000834167,0.097816,1,4.48489e-05,-6.75559e-06,2.80364e-05,0.00896978,-0.00135112,0.00560728,0,0,0,0,0.0269779,0.515783,-0.985109,33.0625,1,37538,3806836
40,2,-0.666129,-0.0804349,9.79276,0.118024,-0.565937,0.987103,-0.00666183,-0.000814013,0.0979274,1,4.85908e-05,-2.85369e-06,1.11238e-05,0.00971816,-0.000570739,0.00222476,0,0,0,0,0.0284213,0.515771,-0.985116,33.0625,1,37539,3806936
40,3,-0.666129,-0.0804349,9.79276,0.118024,-0.565937,0.987103,-0.00666183,-0.000814013,0.0979274,1,4.85908e-05,-2.85369e-06,1.11238e-05,0.00971816,-0.000570739,0.00222476,0,0,0,0,0.0284213,0.515771,-0.985116,33.0625,1,37539,3806936
40,4,-0.671857,-0.0695603,9.79153,0.115762,-0.554936,0.986179,-0.00672132,-0.000705148,0.0979151,1,4.82406e-05,-1.40745e-05,7.28096e-06,0.00964811,-0.00281489,0.00145619,0,0,0,0,0.0284255,0.51625,-0.9846,33.0625,1,37540,3807036
41,1,-0.671857,-0.0695603,9.79153,0.115762,-0.554936,0.986179,-0.00672132,-0.000705148,0.0979151,1,4.82406e-05,-1.40745e-05,7.28096e-06,0.00964811,-0.00281489,0.00145619,0,0,0,0,0.0284255,0.51625,-0.9846,33.0625,1,37540,3807036
41,2,-0.674586,-0.0771416,9.79284,0.113273,-0.566045,0.986509,-0.00674866,-0.000779295,0.0979281,1,3.90706e-05,-1.44244e-05,1.67976e-05,0.00781413,-0.00288489,0.00335953,0,0,0,0,0.0269333,0.517743,-0.985571,33.0625,1,37541,3807136
41,3,-0.674586,-0.0771416,9.79284,0.113273,-0.566045,0.986509,-0.00674866,-0.000779295,0.0979281,1,3.90706e-05,-1.44244e-05,1.67976e-05,0.00781413,-0.00288489,0.00335953,0,0,0,0,0.0269333,0.517743,-0.985571,33.0625,1,37541,3807136
41,4,-0.662683,-0.0709458,9.79757,0.123567,-0.555981,0.989235,-0.00662892,-0.000717196,0.0979755,1,3.84878e-05,-1.07848e-05,1.47578e-05,0.00769756,-0.00215695,0.00295156,0,0,0,0,0.0264275,0.517765,-0.986578,33.0625,1,37542,3807236
42,1,-0.662683,-0.0709458,9.79757,0.123567,-0.555981,0.989235,-0.00662892,-0.000717196,0.0979755,1,3.84878e-05,-1.07848e-05,1.47578e-05,0.00769756,-0.00215695,0.00295156,0,0,0,0,0.0264275,0.517765,-0.986578,33.0625,1,37542,3807236
42,2,-0.67336,-0.0724188,9.79287,0.114123,-0.557152,0.985641,-0.0067346,-0.000731304,0.0979285,1,3.5053e-05,-5.24525e-06,1.85838e-05,0.0070106,-0.00104905,0.00371677,0,0,0,0,0.0264147,0.516329,-0.988125,33.0625,1,37543,3807336
42,3,-0.67336,-0.0724188,9.79287,0.114123,-0.557152,0.985641,-0.0067346,-0.000731304,0.0979285,1,3.5053e-05,-5.24525e-06,1.85838e-05,0.0070106,-0.00104905,0.00371677,0,0,0,0,0.0264147,0.516329,-0.988125,33.0625,1,37543,3807336
42,4,-0.677219,-0.0649803,9.7916,0.102613,-0.557112,0.987601,-0.00677206,-0.000656501,0.097916,1,3.44235e-05,6.77957e-07,-3.2073e-06,0.00688471,0.000135591,-0.000641459,0,0,0,0,0.0278865,0.515332,-0.987649,33.0625,1,37544,3807436
43,1,-0.677219,-0.0649803,9.7916,0.102613,-0.557112,0.987601,-0.00677206,-0.000656501,0.097916,1,3.44235e-05,6.77957e-07,-3.2073e-06,0.00688471,0.000135591,-0.000641459,0,0,0,0,0.0278865,0.515332,-0.987649,33.0625,1,37544,3807436
43,2,-0.66895,-0.0686775,9.78168,0.111686,-0.558244,0.976745,-0.00669194,-0.000696492,0.0978166,1,4.78475e-05,-1.26289e-05,2.66715e-05,0.0095695,-0.00252578,0.00533431,0,0,0,0,0.0269779,0.515783,-0.985109,33.0625,1,37545,3807536
43,3,-0.66895,-0.0686775,9.78168,0.111686,-0.558244,0.976745,-0.00669194,-0.000696492,0.0978166,1,4.78475e-05,-1.26289e-05,2.66715e-05,0.0095695,-0.00252578,0.00533431,0,0,0,0,0.0269779,0.515783,-0.985109,33.0625,1,37545,3807536
43,4,-0.674393,-0.07009,9.79255,0.111724,-0.564451,0.983524,-0.00674448,-0.000713021,0.0979254,1,5.98243e-05,-3.02118e-06,2.99832e-05,0.0119649,-0.000604235,0.00599665,0,0,0,0,0.026028,0.515782,-0.9846,33.0625,1,37546,3807636
44,1,-0.674393,-0.07009,9.79255,0.111724,-0.564451,0.983524,-0.00674448,-0.000713021,0.0979254,1,5.98243e-05,-3.02118e-06,2.99832e-05,0.0119649,-0.000604235,0.00599665,0,0,0,0,0.026028,0.515782,-0.9846,33.0625,1,37546,3807636
44,2,-0.667435,-0.0761826,9.78806,0.116683,-0.56865,0.980477,-0.00667577,-0.000774241,0.0978804,1,6.17376e-05,-7.43181e-06,2.47113e-05,0.0123475,-0.00148636,0.00494226,0,0,0,0,0.0269575,0.51628,-0.985603,33.0625,1,37547,3807736
44,3,-0.667435,-0.0761826,9.78806,0.116683,-0.56865,0.980477,-0.00667577,-0.000774241,0.0978804,1,6.17376e-05,-7.43181e-06,2.47113e-05,0.0123475,-0.00148636,0.00494226,0,0,0,0,0.0269575,0.51628,-0.985603,33.0625,1,37547,3807736
44,4,-0.663718,-0.0766419,9.78463,0.123547,-0.567805,0.97449,-0.00664053,-0.000774756,0.097846,1,4.1237e-05,-1.73245e-05,2.01168e-05,0.00824739,-0.00346491,0.00402336,0,0,0,0,0.0269618,0.516758,-0.985088,33.0625,1,37548,3807836
45,1,-0.663718,-0.0766419,9.78463,0.123547,-0.567805,0.97449,-0.00664053,-0.000774756,0.097846,1,4.1237e-05,-1.73245e-05,2.01168e-05,0.00824739,-0.00346491,0.00402336,0,0,0,0,0.0269618,0.516758,-0.985088,33.0625,1,37548,3807836
45,2,-0.670452,-0.0743744,9.79895,0.11155,-0.56722,0.993504,-0.006706,-0.000752448,0.0979893,1,4.36362e-05,-7.65362e-06,1.13453e-05,0.00872724,-0.00153072,0.00226905,0,0,0,0,0.0259625,0.516793,-0.986597,33.0625,1,37549,3807936
45,3,-0.670452,-0.0743744,9.79895,0.11155,-0.56722,0.993504,-0.006706,-0.000752448,0.0979893,1,4.36362e-05,-7.65362e-06,1.13453e-05,0.00872724,-0.00153072,0.00226905,0,0,0,0,0.0259625,0.516793,-0.986597,33.0625,1,37549,3807936
45,4,-0.674226,-0.0763299,9.79149,0.106648,-0.57153,0.986736,-0.00674481,-0.000773642,0.0979147,1,5.18988e-05,-1.31058e-05,1.33384e-05,0.0103798,-0.00262116,0.00266769,0,0,0,0,0.0269366,0.515331,-0.987139,33.0625,1,37550,3808036
46,1,-0.674226,-0.0763299,9.79149,0.106648,-0.57153,0.986736,-0.00674481,-0.000773642,0.0979147,1,5.18988e-05,-1.31058e-05,1.33384e-05,0.0103798,-0.00262116,0.00266769,0,0,0,0,0.0269366,0.515331,-0.987139,33.0625,1,37550,3808036
46,2,-0.666225,-0.0767457,9.79653,0.11583,-0.571865,0.986304,-0.00666547,-0.000775537,0.0979651,1,4.06262e-05,-1.64731e-05,9.01113e-06,0.00812525,-0.00329462,0.00180223,0,0,0,0,0.0259953,0.516288,-0.985599,33.0625,1,37551,3808136
46,3,-0.666225,-0.0767457,9.79653,0.11583,-0.571865,0.986304,-0.00666547,-0.000775537,0.0979651,1,4.06262e-05,-1.64731e-05,9.01113e-06,0.00812525,-0.00329462,0.00180223,0,0,0,0,0.0259953,0.516288,-0.985599,33.0625,1,37551,3808136
46,4,-0.671677,-0.0718634,9.79048,0.111625,-0.567505,0.982023,-0.00671802,-0.000729193,0.0979047,1,5.294e-05,-6.47267e-06,1.4285e-05,0.010588,-0.00129453,0.002857,0,0,0,0,0.0269784,0.517228,-0.984067,33.0625,1,37552,3808236
47,1,-0.671677,-0.0718634,9.79048,0.111625,-0.567505,0.982023,-0.00671802,-0.000729193,0.0979047,1,5.294e-05,-6.47267e-06,1.4285e-05,0.010588,-0.00129453,0.002857,0,0,0,0,0.0269784,0.517228,-0.984067,33.0625,1,37552,3808236
47,2,-0.665588,-0.0651028,9.78779,0.120208,-0.559735,0.980284,-0.00665613,-0.000659017,0.0978779,1,3.95514e-05,-1.41546e-06,1.8591e-05,0.00791029,-0.000283091,0.00371821,0,0,0,0,0.0274187,0.518218,-0.985057,33.0625,1,37553,3808336
47,3,-0.665588,-0.0651028,9.78779,0.120208,-0.559735,0.980284,-0.00665613,-0.000659017,0.0978779,1,3.95514e-05,-1.41546e-06,1.8591e-05,0.00791029,-0.000283091,0.00371821,0,0,0,0,0.0274187,0.518218,-0.985057,33.0625,1,37553,3808336
47,4,-0.665805,-0.0797787,9.79241,0.119256,-0.573859,0.985666,-0.00665765,-0.0008061,0.0979241,1,4.12335e-05,1.91825e-06,1.7885e-05,0.00824669,0.00038365,0.00357699,0,0,0,0,0.0269129,0.51824,-0.986064,33.0625,1,37554,3808436
48,1,-0.665805,-0.0797787,9.79241,0.119256,-0.573859,0.985666,-0.00665765,-0.0008061,0.0979241,1,4.12335e-05,1.91825e-06,1.7885e-05,0.00824669,0.00038365,0.00357699,0,0,0,0,0.0269129,0.51824,-0.986064,33.0625,1,37554,3808436
48,2,-0.672542,-0.0703144,9.7878,0.108546,-0.568997,0.981077,-0.00672786,-0.000717459,0.0978778,1,7.19131e-05,-1.25766e-05,1.76836e-05,0.0143826,-0.00251531,0.00353672,0,0,0,0,0.0264394,0.516311,-0.987115,33.0625,1,37555,3808536
48,3,-0.672542,-0.0703144,9.7878,0.108546,-0.568997,0.981077,-0.00672786,-0.000717459,0.0978778,1,7.19131e-05,-1.25766e-05,1.76836e-05,0.0143826,-0.00251531,0.00353672,0,0,0,0,0.0264394,0.516311,-0.987115,33.0625,1,37555,3808536
48,4,-0.673368,-0.0685542,9.78544,0.10997,-0.570952,0.978303,-0.00673588,-0.000693361,0.0978542,1,3.84784e-05,-1.13714e-05,2.14057e-05,0.00769569,-0.00227428,0.00428114,0,0,0,0,0.0264802,0.515317,-0.986127,33.0625,1,37556,3808636
49,1,-0.673368,-0.0685542,9.78544,0.10997,-0.570952,0.978303,-0.00673588,-0.000693361,0.0978542,1,3.84784e-05,-1.13714e-05,2.14057e-05,0.00769569,-0.00227428,0.00428114,0,0,0,0,0.0264802,0.515317,-0.986127,33.0625,1,37556,3808636
49,2,-0.66739,-0.0709938,9.79455,0.110884,-0.57489,0.986654,-0.00667659,-0.000719417,0.0979452,1,4.58156e-05,-1.39887e-05,3.77909e-05,0.00916313,-0.00279774,0.00755819,0,0,0,0,0.0270026,0.515765,-0.9841,33.0625,1,37557,3808736
49,3,-0.66739,-0.0709938,9.79455,0.110884,-0.57489,0.986654,-0.00667659,-0.000719417,0.0979452,1,4.58156e-05,-1.39887e-05,3.77909e-05,0.00916313,-0.00279774,0.00755819,0,0,0,0,0.0270026,0.515765,-0.9841,33.0625,1,37557,3808736
49,4,-0.673342,-0.0690521,9.78239,0.108057,-0.571261,0.976206,-0.0067351,-0.00070017,0.0978237,1,4.89559e-05,-8.63168e-06,5.28049e-06,0.00979118,-0.00172634,0.0010561,0,0,0,0,0.0275288,0.515246,-0.982598,33.0625,1,37558,3808836
50,1,-0.673342,-0.0690521,9.78239,0.108057,-0.571261,0.976206,-0.0067351,-0.00070017,0.0978237,1,4.89559e-05,-8.63168e-06,5.28049e-06,0.00979118,-0.00172634,0.0010561,0,0,0,0,0.0275288,0.515246,-0.982598,33.0625,1,37558,3808836
50,2,-0.676822,-0.0801599,9.79182,0.102127,-0.583792,0.985011,-0.00677179,-0.000811712,0.0979179,1,5.01648e-05,-1.84124e-05,2.13942e-05,0.010033,-0.00368247,0.00427885,0,0,0,0,0.0279572,0.51769,-0.983051,33.0625,1,37559,3808936
50,3,-0.676822,-0.0801599,9.79182,0.102127,-0.583792,0.985011,-0.00677179,-0.000811712,0.0979179,1,5.01648e-05,-1.84124e-05,2.13942e-05,0.010033,-0.00368247,0.00427885,0,0,0,0,0.0279572,0.51769,-0.983051,33.0625,1,37559,3808936
50,4,-0.673874,-0.0757089,9.79048,0.104278,-0.580885,0.980281,-0.00674069,-0.000766651,0.0979046,1,4.78961e-05,-1.00511e-05,1.36139e-05,0.00957922,-0.00201021,0.00272277,0,0,0,0,0.0279283,0.517229,-0.984576,33.0625,1,37560,3809036
51,1,-0.673874,-0.0757089,9.79048,0.104278,-0.580885,0.980281,-0.00674069,-0.000766651,0.0979046,1,4.78961e-05,-1.00511e-05,1.36139e-05,0.00957922,-0.00201021,0.00272277,0,0,0,0,0.0279283,0.517229,-0.984576,33.0625,1,37560,3809036
51,2,-0.676343,-0.0740718,9.79457,0.104179,-0.577944,0.984659,-0.00676631,-0.00075069,0.0979455,1,4.96897e-05,-1.48415e-05,1.75802e-05,0.00993793,-0.00296829,0.00351603,0,0,0,0,0.0250164,0.515826,-0.986614,33.0625,1,37561,3809136
51,3,-0.676343,-0.0740718,9.79457,0.104179,-0.577944,0.984659,-0.00676631,-0.00075069,0.0979455,1,4.96897e-05,-1.48415e-05,1.75802e-05,0.00993793,-0.00296829,0.00351603,0,0,0,0,0.0250164,0.515826,-0.986614,33.0625,1,37561,3809136
51,4,-0.667402,-0.0788927,9.79482,0.111525,-0.584071,0.985135,-0.00667534,-0.000795596,0.0979481,1,3.27956e-05,-6.87686e-06,1.83488e-05,0.00655913,-0.00137537,0.00366977,0,0,0,0,0.025991,0.515809,-0.986114,33.0625,1,37562,3809236
52,1,-0.667402,-0.0788927,9.79482,0.111525,-0.584071,0.985135,-0.00667534,-0.000795596,0.0979481,1,3.27956e-05,-6.87686e-06,1.83488e-05,0.00655913,-0.00137537,0.00366977,0,0,0,0,0.025991,0.515809,-0.986114,33.0625,1,37562,3809236
52,2,-0.681274,-0.0750721,9.79495,0.0987032,-0.577305,0.989006,-0.00681571,-0.000761415,0.0979492,1,5.36982e-05,-1.52685e-05,1.28296e-05,0.0107396,-0.00305371,0.00256592,0,0,0,0,0.0264968,0.515787,-0.985107,33.0625,1,37563,3809336
52,3,-0.681274,-0.0750721,9.79495,0.0987032,-0.577305,0.989006,-0.00681571,-0.000761415,0.0979492,1,5.36982e-05,-1.52685e-05,1.28296e-05,0.0107396,-0.00305371,0.00256592,0,0,0,0,0.0264968,0.515787,-0.985107,33.0625,1,37563,3809336
52,4,-0.671561,-0.073942,9.79454,0.106731,-0.577987,0.984227,-0.00671707,-0.000749397,0.0979452,1,5.01107e-05,-7.53269e-06,1.19061e-05,0.0100221,-0.00150654,0.00238123,0,0,0,0,0.0269945,0.516253,-0.984089,33.0625,1,37564,3809436
53,1,-0.671561,-0.073942,9.79454,0.106731,-0.577987,0.984227,-0.00671707,-0.000749397,0.0979452,1,5.01107e-05,-7.53269e-06,1.19061e-05,0.0100221,-0.00150654,0.00238123,0,0,0,0,0.0269945,0.516253,-0.984089,33.0625,1,37564,3809436
53,2,-0.664765,-0.0688243,9.79387,0.111805,-0.575114,0.98962,-0.0066507,-0.000697146,0.0979384,1,4.45823e-05,-1.56592e-05,1.28451e-05,0.00891647,-0.00313185,0.00256903,0,0,0,0,0.0270073,0.517689,-0.982542,33.0625,1,37565,3809536
53,3,-0.664765,-0.0688243,9.79387,0.111805,-0.575114,0.98962,-0.0066507,-0.000697146,0.0979384,1,4.45823e-05,-1.56592e-05,1.28451e-05,0.00891647,-0.00313185,0.00256903,0,0,0,0,0.0270073,0.517689,-0.982542,33.0625,1,37565,3809536
53,4,-0.668108,-0.0731536,9.78402,0.105417,-0.581324,0.974931,-0.00668473,-0.000741904,0.0978399,1,5.20908e-05,-1.87567e-05,1.30441e-05,0.0104182,-0.00375133,0.00260881,0,0,0,0,0.0264688,0.518217,-0.984548,33.0625,1,37566,3809636
54,1,-0.668108,-0.0731536,9.78402,0.105417,-0.581324,0.974931,-0.00668473,-0.000741904,0.0978399,1,5.20908e-05,-1.87567e-05,1.30441e-05,0.0104182,-0.00375133,0.00260881,0,0,0,0,0.0264688,0.518217,-0.984548,33.0625,1,37566,3809636
54,2,-0.671212,-0.0726332,9.79455,0.109281,-0.582368,0.982187,-0.00671366,-0.000737726,0.0979453,1,5.69131e-05,-8.00044e-06,1.82613e-05,0.0113826,-0.00160009,0.00365226,0,0,0,0,0.0259132,0.516829,-0.988616,33.0625,1,37567,3809736
54,3,-0.671212,-0.0726332,9.79455,0.109281,-0.582368,0.982187,-0.00671366,-0.000737726,0.0979453,1,5.69131e-05,-8.00044e-06,1.82613e-05,0.0113826,-0.00160009,0.00365226,0,0,0,0,0.0259132,0.516829,-0.988616,33.0625,1,37567,3809736
54,4,-0.670069,-0.0820263,9.78769,0.105993,-0.593334,0.979452,-0.00670427,-0.0008247,0.0978766,1,2.17482e-05,-1.83936e-05,1.33943e-05,0.00434965,-0.00367872,0.00267887,0,0,0,0,0.0250283,0.514372,-0.987152,33.0625,1,37568,3809836
55,1,-0.670069,-0.0820263,9.78769,0.105993,-0.593334,0.979452,-0.00670427,-0.0008247,0.0978766,1,2.17482e-05,-1.83936e-05,1.33943e-05,0.00434965,-0.00367872,0.00267887,0,0,0,0,0.0250283,0.514372,-0.987152,33.0625,1,37568,3809836
55,2,-0.673225,-0.0743514,9.78879,0.105701,-0.584964,0.978501,-0.00673449,-0.000751863,0.0978877,1,4.15035e-05,-1.16136e-05,1.65644e-05,0.0083007,-0.00232273,0.00331289,0,0,0,0,0.0245842,0.514349,-0.985635,33.0625,1,37569,3809936
55,3,-0.673225,-0.0743514,9.78879,0.105701,-0.584964,0.978501,-0.00673449,-0.000751863,0.0978877,1,4.15035e-05,-1.16136e-05,1.65644e-05,0.0083007,-0.00232273,0.00331289,0,0,0,0,0.0245842,0.514349,-0.985635,33.0625,1,37569,3809936
55,4,-0.668124,-0.0791263,9.79041,0.108882,-0.592342,0.985584,-0.00668209,-0.000800501,0.0979039,1,4.57206e-05,-4.49854e-06,2.1355e-05,0.00914411,-0.000899709,0.00427101,0,0,0,0,0.0265457,0.514305,-0.98413,33.0625,1,37570,3810036
56,1,-0.668124,-0.0791263,9.79041,0.108882,-0.592342,0.985584,-0.00668209,-0.000800501,0.0979039,1,4.57206e-05,-4.49854e-06,2.1355e-05,0.00914411,-0.000899709,0.00427101,0,0,0,0,0.0265457,0.514305,-0.98413,33.0625,1,37570,3810036
56,2,-0.670519,-0.0708905,9.7905,0.10718,-0.578918,0.984217,-0.00670809,-0.000717501,0.0979047,1,4.35654e-05,-1.4862e-05,4.843e-06,0.00871308,-0.00297239,0.0009686,0,0,0,0,0.0279729,0.515269,-0.984115,33.0625,1,37571,3810136
56,3,-0.670519,-0.0708905,9.7905,0.10718,-0.578918,0.984217,-0.00670809,-0.000717501,0.0979047,1,4.35654e-05,-1.4862e-05,4.843e-06,0.00871308,-0.00297239,0.0009686,0,0,0,0,0.0279729,0.515269,-0.984115,33.0625,1,37571,3810136
56,4,-0.667364,-0.0774275,9.78364,0.108383,-0.591364,0.974424,-0.00667791,-0.0007828,0.097836,1,4.2174e-05,-2.19813e-05,2.05e-05,0.00843479,-0.00439626,0.00410001,0,0,0,0,0.0284009,0.516268,-0.98561,33.0625,1,37572,3810236
57,1,-0.667364,-0.0774275,9.78364,0.108383,-0.591364,0.974424,-0.00667791,-0.0007828,0.097836,1,4.2174e-05,-2.19813e-05,2.05e-05,0.00843479,-0.00439626,0.00410001,0,0,0,0,0.0284009,0.516268,-0.98561,33.0625,1,37572,3810236
57,2,-0.672374,-0.0844299,9.79514,0.101074,-0.59667,0.986772,-0.00672751,-0.000850652,0.0979511,1,3.12068e-05,-1.9364e-05,1.77734e-05,0.00624136,-0.00387279,0.00355468,0,0,0,0,0.0259706,0.516306,-0.986608,33.0625,1,37573,3810336
57,3,-0.672374,-0.0844299,9.79514,0.101074,-0.59667,0.986772,-0.00672751,-0.000850652,0.0979511,1,3.12068e-05,-1.9364e-05,1.77734e-05,0.00624136,-0.00387279,0.00355468,0,0,0,0,0.0259706,0.516306,-0.986608,33.0625,1,37573,3810336
57,4,-0.668322,-0.077447,9.79348,0.106619,-0.593762,0.985333,-0.00668776,-0.000782464,0.0979345,1,3.91175e-05,-2.3389e-05,2.48348e-05,0.0078235,-0.0046778,0.00496695,0,0,0,0,0.0255422,0.513862,-0.986155,33.0625,1,37574,3810436
58,1,-0.668322,-0.077447,9.79348,0.106619,-0.593762,0.985333,-0.00668776,-0.000782464,0.0979345,1,3.91175e-05,-2.3389e-05,2.48348e-05,0.0078235,-0.0046778,0.00496695,0,0,0,0,0.0255422,0.513862,-0.986155,33.0625,1,37574,3810436
58,2,-0.671819,-0.0773263,9.78571,0.103034,-0.589395,0.972944,-0.00672036,-0.000781807,0.0978568,1,4.2448e-05,-1.11999e-05,1.7641e-05,0.0084896,-0.00223998,0.00352819,0,0,0,0,0.0260684,0.513343,-0.984654,33.0625,1,37575,3810536
58,3,-0.671819,-0.0773263,9.78571,0.103034,-0.589395,0.972944,-0.00672036,-0.000781807,0.0978568,1,4.2448e-05,-1.11999e-05,1.7641e-05,0.0084896,-0.00223998,0.00352819,0,0,0,0,0.0260684,0.513343,-0.984654,33.0625,1,37575,3810536
58,4,-0.670197,-0.0622028,9.78379,0.107717,-0.575311,0.970425,-0.00670523,-0.000633037,0.0978376,1,5.47861e-05,-1.68049e-05,2.14796e-05,0.0109572,-0.00336098,0.00429593,0,0,0,0,0.0270273,0.515747,-0.98309,33.0625,1,37576,3810636
59,1,-0.670197,-0.0622028,9.78379,0.107717,-0.575311,0.970425,-0.00670523,-0.000633037,0.0978376,1,5.47861e-05,-1.68049e-05,2.14796e-05,0.0109572,-0.00336098,0.00429593,0,0,0,0,0.0270273,0.515747,-0.98309,33.0625,1,37576,3810636
59,2,-0.670081,-0.0643756,9.78477,0.105825,-0.582625,0.977944,-0.00670108,-0.000652574,0.0978476,1,4.38466e-05,-1.50677e-06,1.77083e-05,0.00876933,-0.000301354,0.00354165,0,0,0,0,0.0269456,0.517734,-0.985066,33.0625,1,37577,3810736
59,3,-0.670081,-0.0643756,9.78477,0.105825,-0.582625,0.977944,-0.00670108,-0.000652574,0.0978476,1,4.38466e-05,-1.50677e-06,1.77083e-05,0.00876933,-0.000301354,0.00354165,0,0,0,0,0.0269456,0.517734,-0.985066,33.0625,1,37577,3810736
59,4,-0.677305,-0.0726856,9.79256,0.0911279,-0.58977,0.983284,-0.00677543,-0.000737328,0.0979254,1,5.16903e-05,-1.23158e-05,2.56914e-05,0.0103381,-0.00246316,0.00513828,0,0,0,0,0.0283639,0.516295,-0.987125,33.0625,1,37578,3810836
60,1,-0.677305,-0.0726856,9.79256,0.0911279,-0.58977,0.983284,-0.00677543,-0.000737328,0.0979254,1,5.16903e-05,-1.23158e-05,2.56914e-05,0.0103381,-0.00246316,0.00513828,0,0,0,0,0.0283639,0.516295,-0.987125,33.0625,1,37578,3810836
60,2,-0.676875,-0.0811915,9.78808,0.097371,-0.600238,0.979963,-0.00677187,-0.000821115,0.0978805,1,4.51599e-05,-1.61603e-05,2.6511e-05,0.00903197,-0.00323206,0.00530219,0,0,0,0,0.0293546,0.515302,-0.986646,33.0625,1,37579,3810936
60,3,-0.676875,-0.0811915,9.78808,0.097371,-0.600238,0.979963,-0.00677187,-0.000821115,0.0978805,1,4.51599e-05,-1.61603e-05,2.6511e-05,0.00903197,-0.00323206,0.00530219,0,0,0,0,0.0293546,0.515302,-0.986646,33.0625,1,37579,3810936
60,4,-0.669549,-0.0759074,9.78604,0.103427,-0.593427,0.975641,-0.0066964,-0.000767714,0.0978602,1,4.30122e-05,-4.81658e-06,1.65291e-05,0.00860245,-0.000963316,0.00330582,0,0,0,0,0.0274548,0.5153,-0.985627,33.0625,1,37580,3811036
61,1,-0.669549,-0.0759074,9.78604,0.103427,-0.593427,0.975641,-0.0066964,-0.000767714,0.0978602,1,4.30122e-05,-4.81658e-06,1.65291e-05,0.00860245,-0.000963316,0.00330582,0,0,0,0,0.0274548,0.5153,-0.985627,33.0625,1,37580,3811036
61,2,-0.664651,-0.0798649,9.79648,0.109434,-0.596826,0.985063,-0.00664908,-0.000805621,0.0979646,1,3.3902e-05,-1.33194e-05,2.48348e-05,0.00678041,-0.00266388,0.00496697,0,0,0,0,0.0269409,0.51581,-0.986624,33.0625,1,37581,3811136
61,3,-0.664651,-0.0798649,9.79648,0.109434,-0.596826,0.985063,-0.00664908,-0.000805621,0.0979646,1,3.3902e-05,-1.33194e-05,2.48348e-05,0.00678041,-0.00266388,0.00496697,0,0,0,0,0.0269409,0.51581,-0.986624,33.0625,1,37581,3811136
61,4,-0.667205,-0.0753364,9.78941,0.111214,-0.593191,0.983503,-0.00667326,-0.000760009,0.097894,1,3.21454e-05,-6.40546e-06,2.6271e-05,0.00642907,-0.00128109,0.0052542,0,0,0,0,0.0274548,0.5153,-0.985627,33.0625,1,37582,3811236
62,1,-0.667205,-0.0753364,9.78941,0.111214,-0.593191,0.983503,-0.00667326,-0.000760009,0.097894,1,3.21454e-05,-6.40546e-06,2.6271e-05,0.00642907,-0.00128109,0.0052542,0,0,0,0,0.0274548,0.5153,-0.985627,33.0625,1,37582,3811236
62,2,-0.662318,-0.0762885,9.79717,0.111192,-0.593588,0.990266,-0.00662449,-0.000772843,0.0979716,1,4.92651e-05,-6.83591e-06,2.29552e-05,0.00985302,-0.00136718,0.00459104,0,0,0,0,0.0269741,0.516749,-0.984583,33.0625,1,37583,3811336
62,3,-0.662318,-0.0762885,9.79717,0.111192,-0.593588,0.990266,-0.00662449,-0.000772843,0.0979716,1,4.92651e-05,-6.83591e-06,2.29552e-05,0.00985302,-0.00136718,0.00459104,0,0,0,0,0.0269741,0.516749,-0.984583,33.0625,1,37583,3811336
62,4,-0.668562,-0.0740346,9.79723,0.106168,-0.594308,0.985734,-0.00668553,-0.000748695,0.0979723,1,4.18778e-05,3.53749e-07,1.06935e-05,0.00837557,7.07498e-05,0.0021387,0,0,0,0,0.0260119,0.516757,-0.984578,33.0625,1,37584,3811436
63,1,-0.668562,-0.0740346,9.79723,0.106168,-0.594308,0.985734,-0.00668553,-0.000748695,0.0979723,1,4.18778e-05,3.53749e-07,1.06935e-05,0.00837557,7.07498e-05,0.0021387,0,0,0,0,0.0260119,0.516757,-0.984578,33.0625,1,37584,3811436
63,2,-0.67265,-0.0656052,9.797,0.101068,-0.584953,0.985836,-0.00672681,-0.000664398,0.0979699,1,4.13042e-05,-1.70244e-06,1.8753e-05,0.00826084,-0.000340488,0.00375061,0,0,0,0,0.026456,0.51678,-0.986095,33.0625,1,37585,3811536
63,3,-0.67265,-0.0656052,9.797,0.101068,-0.584953,0.985836,-0.00672681,-0.000664398,0.0979699,1,4.13042e-05,-1.70244e-06,1.8753e-05,0.00826084,-0.000340488,0.00375061,0,0,0,0,0.026456,0.51678,-0.986095,33.0625,1,37585,3811536
63,4,-0.664949,-0.0683724,9.7786,0.103491,-0.588935,0.969269,-0.00665072,-0.000692164,0.0977859,1,4.22783e-05,-6.41867e-06,1.29213e-05,0.00845565,-0.00128373,0.00258427,0,0,0,0,0.0264925,0.515308,-0.985623,33.0625,1,37586,3811636
64,1,-0.664949,-0.0683724,9.7786,0.103491,-0.588935,0.969269,-0.00665072,-0.000692164,0.0977859,1,4.22783e-05,-6.41867e-06,1.29213e-05,0.00845565,-0.00128373,0.00258427,0,0,0,0,0.0264925,0.515308,-0.985623,33.0625,1,37586,3811636
64,2,-0.669643,-0.0746675,9.78706,0.101626,-0.591536,0.976334,-0.0066962,-0.000755015,0.0978705,1,4.14159e-05,1.06156e-06,1.7386e-05,0.00828318,0.000212311,0.0034772,0,0,0,0,0.0255711,0.514322,-0.98463,33.0625,1,37587,3811736
64,3,-0.669643,-0.0746675,9.78706,0.101626,-0.591536,0.976334,-0.0066962,-0.000755015,0.0978705,1,4.14159e-05,1.06156e-06,1.7386e-05,0.00828318,0.000212311,0.0034772,0,0,0,0,0.0255711,0.514322,-0.98463,33.0625,1,37587,3811736
64,4,-0.667206,-0.0831987,9.79816,0.105699,-0.606309,0.985067,-0.00667053,-0.000842568,0.0979816,1,5.21744e-05,7.55879e-06,2.67292e-05,0.0104349,0.00151176,0.00534583,0,0,0,0,0.0255758,0.516246,-0.983072,33.0625,1,37588,3811836
65,1,-0.667206,-0.0831987,9.79816,0.105699,-0.606309,0.985067,-0.00667053,-0.000842568,0.0979816,1,5.21744e-05,7.55879e-06,2.67292e-05,0.0104349,0.00151176,0.00534583,0,0,0,0,0.0255758,0.516246,-0.983072,33.0625,1,37588,3811836
65,2,-0.673012,-0.0743657,9.78132,0.0978176,-0.600883,0.970901,-0.00673169,-0.000750514,0.097813,1,3.31848e-05,-8.24404e-06,2.70867e-05,0.00663696,-0.00164881,0.00541734,0,0,0,0,0.0250539,0.517244,-0.984058,33.0625,1,37589,3811936
65,3,-0.673012,-0.0743657,9.78132,0.0978176,-0.600883,0.970901,-0.00673169,-0.000750514,0.097813,1,3.31848e-05,-8.24404e-06,2.70867e-05,0.00663696,-0.00164881,0.00541734,0,0,0,0,0.0250539,0.517244,-0.984058,33.0625,1,37589,3811936
65,4,-0.671894,-0.07372,9.79591,0.103852,-0.598722,0.9869,-0.00671985,-0.000744737,0.097959,1,3.67947e-05,-4.82212e-06,2.43839e-05,0.00735895,-0.000964423,0.00487678,0,0,0,0,0.024996,0.516323,-0.987108,33.0625,1,37590,3812036
66,1,-0.671894,-0.07372,9.79591,0.103852,-0.598722,0.9869,-0.00671985,-0.000744737,0.097959,1,3.67947e-05,-4.82212e-06,2.43839e-05,0.00735895,-0.000964423,0.00487678,0,0,0,0,0.024996,0.516323,-0.987108,33.0625,1,37590,3812036
66,2,-0.668237,-0.0721152,9.78742,0.102537,-0.596465,0.973249,-0.00668364,-0.000731191,0.097874,1,4.9075e-05,-6.71464e-06,3.23617e-05,0.00981501,-0.00134293,0.00647235,0,0,0,0,0.0240253,0.515373,-0.988135,33.0625,1,37591,3812136
66,3,-0.668237,-0.0721152,9.78742,0.102537,-0.596465,0.973249,-0.00668364,-0.000731191,0.097874,1,4.9075e-05,-6.71464e-06,3.23617e-05,0.00981501,-0.00134293,0.00647235,0,0,0,0,0.0240253,0.515373,-0.988135,33.0625,1,37591,3812136
66,4,-0.666871,-0.0742231,9.79247,0.109165,-0.595278,0.984135,-0.00666863,-0.000752462,0.0979246,1,5.06881e-05,2.10183e-07,2.27596e-05,0.0101376,4.20366e-05,0.00455193,0,0,0,0,0.0260152,0.514345,-0.986147,33.0625,1,37592,3812236
67,1,-0.666871,-0.0742231,9.79247,0.109165,-0.595278,0.984135,-0.00666863,-0.000752462,0.0979246,1,5.06881e-05,2.10183e-07,2.27596e-05,0.0101376,4.20366e-05,0.00455193,0,0,0,0,0.0260152,0.514345,-0.986147,33.0625,1,37592,3812236
67,2,-0.66347,-0.074184,9.78431,0.109336,-0.599169,0.972956,-0.00663649,-0.000752533,0.0978429,1,5.33033e-05,-9.29839e-06,1.97405e-05,0.0106607,-0.00185968,0.00394809,0,0,0,0,0.025592,0.515271,-0.983094,33.0625,1,37593,3812336
67,3,-0.66347,-0.074184,9.78431,0.109336,-0.599169,0.972956,-0.00663649,-0.000752533,0.0978429,1,5.33033e-05,-9.29839e-06,1.97405e-05,0.0106607,-0.00185968,0.00394809,0,0,0,0,0.025592,0.515271,-0.983094,33.0625,1,37593,3812336
67,4,-0.67596,-0.0772059,9.78912,0.0997681,-0.601693,0.981107,-0.00676114,-0.000780156,0.097891,1,4.01698e-05,-7.9981e-06,1.71661e-05,0.00803397,-0.00159962,0.00343322,0,0,0,0,0.0260693,0.516233,-0.98257,33.0625,1,37594,3812436
68,1,-0.67596,-0.0772059,9.78912,0.0997681,-0.601693,0.981107,-0.00676114,-0.000780156,0.097891,1,4.01698e-05,-7.9981e-06,1.71661e-05,0.00803397,-0.00159962,0.00343322,0,0,0,0,0.0260693,0.516233,-0.98257,33.0625,1,37594,3812436
68,2,-0.668893,-0.0751379,9.78773,0.104582,-0.602708,0.974873,-0.00669022,-0.000763461,0.0978771,1,6.02546e-05,-6.74693e-06,2.14504e-05,0.0120509,-0.00134939,0.00429008,0,0,0,0,0.0274756,0.516249,-0.984091,33.0625,1,37595,3812536
68,3,-0.668893,-0.0751379,9.78773,0.104582,-0.602708,0.974873,-0.00669022,-0.000763461,0.0978771,1,6.02546e-05,-6.74693e-06,2.14504e-05,0.0120509,-0.00134939,0.00429008,0,0,0,0,0.0274756,0.516249,-0.984091,33.0625,1,37595,3812536
68,4,-0.665803,-0.0706905,9.77995,0.103841,-0.595464,0.967987,-0.0066614,-0.000715867,0.0977992,1,4.44073e-05,-1.73541e-05,2.07686e-05,0.00888147,-0.00347082,0.00415373,0,0,0,0,0.0274467,0.515788,-0.985616,33.0625,1,37596,3812636
69,1,-0.665803,-0.0706905,9.77995,0.103841,-0.595464,0.967987,-0.0066614,-0.000715867,0.0977992,1,4.44073e-05,-1.73541e-05,2.07686e-05,0.00888147,-0.00347082,0.00415373,0,0,0,0,0.0274467,0.515788,-0.985616,33.0625,1,37596,3812636
69,2,-0.668724,-0.0753706,9.79249,0.105708,-0.606411,0.981707,-0.00668916,-0.00076258,0.0979247,1,4.35545e-05,-1.00265e-05,2.57339e-05,0.0087109,-0.00200531,0.00514679,0,0,0,0,0.0273893,0.516312,-0.987625,33.0625,1,37597,3812736
69,3,-0.668724,-0.0753706,9.79249,0.105708,-0.606411,0.981707,-0.00668916,-0.00076258,0.0979247,1,4.35545e-05,-1.00265e-05,2.57339e-05,0.0087109,-0.00200531,0.00514679,0,0,0,0,0.0273893,0.516312,-0.987625,33.0625,1,37597,3812736
69,4,-0.67344,-0.077777,9.78674,0.0946947,-0.608704,0.973576,-0.00673992,-0.000787204,0.0978669,1,4.76017e-05,-2.82769e-05,8.66501e-06,0.00952034,-0.00565538,0.001733,0,0,0,0,0.027944,0.514808,-0.98564,33.0625,1,37598,3812836
70,1,-0.67344,-0.077777,9.78674,0.0946947,-0.608704,0.973576,-0.00673992,-0.000787204,0.0978669,1,4.76017e-05,-2.82769e-05,8.66501e-06,0.00952034,-0.00565538,0.001733,0,0,0,0,0.027944,0.514808,-0.98564,33.0625,1,37598,3812836
70,2,-0.666217,-0.0715376,9.78774,0.10072,-0.599149,0.977407,-0.00666358,-0.000725257,0.0978772,1,4.94066e-05,-7.28103e-06,1.57618e-05,0.00988132,-0.00145621,0.00315237,0,0,0,0,0.026949,0.515322,-0.986635,33.0625,1,37599,3812936
70,3,-0.666217,-0.0715376,9.78774,0.10072,-0.599149,0.977407,-0.00666358,-0.000725257,0.0978772,1,4.94066e-05,-7.28103e-06,1.57618e-05,0.00988132,-0.00145621,0.00315237,0,0,0,0,0.026949,0.515322,-0.986635,33.0625,1,37599,3812936
70,4,-0.665687,-0.0706045,9.79895,0.102121,-0.599642,0.986937,-0.00665958,-0.000715456,0.0979893,1,4.5862e-05,-1.40911e-05,3.18195e-05,0.0091724,-0.00281823,0.00636391,0,0,0,0,0.0255346,0.515795,-0.985102,33.0625,1,37600,3813036
71,1,-0.665687,-0.0706045,9.79895,0.102121,-0.599642,0.986937,-0.00665958,-0.000715456,0.0979893,1,4.5862e-05,-1.40911e-05,3.18195e-05,0.0091724,-0.00281823,0.00636391,0,0,0,0,0.0255346,0.515795,-0.985102,33.0625,1,37600,3813036
71,2,-0.67019,-0.0656728,9.78681,0.0978684,-0.594829,0.976815,-0.00670566,-0.000666812,0.0978678,1,5.05056e-05,-1.93062e-05,1.47671e-05,0.0101011,-0.00386125,0.00295342,0,0,0,0,0.0260532,0.517209,-0.982548,33.0625,1,37601,3813136
71,3,-0.67019,-0.0656728,9.78681,0.0978684,-0.594829,0.976815,-0.00670566,-0.000666812,0.0978678,1,5.05056e-05,-1.93062e-05,1.47671e-05,0.0101011,-0.00386125,0.00295342,0,0,0,0,0.0260532,0.517209,-0.982548,33.0625,1,37601,3813136
71,4,-0.670262,-0.0705665,9.78201,0.100353,-0.600417,0.968493,-0.0067051,-0.000713785,0.0978199,1,3.94879e-05,-1.29141e-05,2.94838e-05,0.00789759,-0.00258281,0.00589677,0,0,0,0,0.0284137,0.517704,-0.984063,33.0625,1,37602,3813236
72,1,-0.670262,-0.0705665,9.78201,0.100353,-0.600417,0.968493,-0.0067051,-0.000713785,0.0978199,1,3.94879e-05,-1.29141e-05,2.94838e-05,0.00789759,-0.00258281,0.00589677,0,0,0,0,0.0284137,0.517704,-0.984063,33.0625,1,37602,3813236
72,2,-0.673913,-0.0727641,9.79424,0.0929796,-0.609159,0.9825,-0.00673989,-0.000736629,0.0979422,1,4.51283e-05,-3.96956e-06,1.09652e-05,0.00902565,-0.000793912,0.00219303,0,0,0,0,0.0269124,0.516794,-0.987107,33.0625,1,37603,3813336
72,3,-0.673913,-0.0727641,9.79424,0.0929796,-0.609159,0.9825,-0.00673989,-0.000736629,0.0979422,1,4.51283e-05,-3.96956e-06,1.09652e-05,0.00902565,-0.000793912,0.00219303,0,0,0,0,0.0269124,0.516794,-0.987107,33.0625,1,37603,3813336
72,4,-0.674648,-0.0755068,9.79489,0.0943568,-0.60529,0.983953,-0.00674867,-0.000761997,0.0979487,1,3.33932e-05,-1.14013e-05,2.86944e-05,0.00667864,-0.00228027,0.00573888,0,0,0,0,0.0259787,0.515818,-0.986619,33.0625,1,37604,3813436
73,1,-0.674648,-0.0755068,9.79489,0.0943568,-0.60529,0.983953,-0.00674867,-0.000761997,0.0979487,1,3.33932e-05,-1.14013e-05,2.86944e-05,0.00667864,-0.00228027,0.00573888,0,0,0,0,0.0259787,0.515818,-0.986619,33.0625,1,37604,3813436
73,2,-0.673958,-0.0797825,9.77891,0.0942944,-0.613017,0.965569,-0.00674207,-0.000805372,0.0977888,1,3.71876e-05,-1.28693e-05,2.03421e-05,0.00743751,-0.00257386,0.00406841,0,0,0,0,0.027496,0.515752,-0.983597,33.0625,1,37605,3813536
73,3,-0.673958,-0.0797825,9.77891,0.0942944,-0.613017,0.965569,-0.00674207,-0.000805372,0.0977888,1,3.71876e-05,-1.28693e-05,2.03421e-05,0.00743751,-0.00257386,0.00406841,0,0,0,0,0.027496,0.515752,-0.983597,33.0625,1,37605,3813536
73,4,-0.674363,-0.0774132,9.77587,0.0964833,-0.607671,0.964059,-0.00674526,-0.000780968,0.0977585,1,3.363e-05,-8.44705e-06,1.93175e-05,0.00672601,-0.00168941,0.00386351,0,0,0,0,0.0274761,0.517694,-0.983049,33.0625,1,37606,3813636
74,1,-0.674363,-0.0774132,9.77587,0.0964833,-0.607671,0.964059,-0.00674526,-0.000780968,0.0977585,1,3.363e-05,-8.44705e-06,1.93175e-05,0.00672601,-0.00168941,0.00386351,0,0,0,0,0.0274761,0.517694,-0.983049,33.0625,1,37606,3813636
74,2,-0.669159,-0.0736356,9.7925,0.0980067,-0.608107,0.981651,-0.00669315,-0.000745392,0.0979248,1,4.33476e-05,-8.24005e-06,4.0872e-05,0.00866952,-0.00164801,0.00817439,0,0,0,0,0.0264854,0.518686,-0.983527,33.0625,1,37607,3813736
74,3,-0.669159,-0.0736356,9.7925,0.0980067,-0.608107,0.981651,-0.00669315,-0.000745392,0.0979248,1,4.33476e-05,-8.24005e-06,4.0872e-05,0.00866952,-0.00164801,0.00817439,0,0,0,0,0.0264854,0.518686,-0.983527,33.0625,1,37607,3813736
74,4,-0.670282,-0.0674495,9.79018,0.100405,-0.600704,0.978209,-0.00670485,-0.000682848,0.0979016,1,4.11849e-05,-1.05126e-05,2.15492e-05,0.00823698,-0.00210251,0.00430984,0,0,0,0,0.0284013,0.517713,-0.984568,33.0625,1,37608,3813836
75,1,-0.670282,-0.0674495,9.79018,0.100405,-0.600704,0.978209,-0.00670485,-0.000682848,0.0979016,1,4.11849e-05,-1.05126e-05,2.15492e-05,0.00823698,-0.00210251,0.00430984,0,0,0,0,0.0284013,0.517713,-0.984568,33.0625,1,37608,3813836
75,2,-0.669355,-0.0724916,9.78809,0.0946932,-0.608198,0.973375,-0.00669288,-0.000735516,0.0978809,1,5.28749e-05,3.32303e-06,1.85987e-05,0.010575,0.000664605,0.00371973,0,0,0,0,0.0288573,0.516282,-0.986622,33.0625,1,37609,3813936
75,3,-0.669355,-0.0724916,9.78809,0.0946932,-0.608198,0.973375,-0.00669288,-0.000735516,0.0978809,1,5.28749e-05,3.32303e-06,1.85987e-05,0.010575,0.000664605,0.00371973,0,0,0,0,0.0288573,0.516282,-0.986622,33.0625,1,37609,3813936
75,4,-0.672685,-0.0720285,9.78744,0.0911291,-0.605332,0.974286,-0.00672776,-0.000727705,0.0978743,1,3.6763e-05,-4.78004e-06,1.66298e-05,0.00735259,-0.000956008,0.00332596,0,0,0,0,0.0269694,0.514825,-0.986141,33.0625,1,37610,3814036
76,1,-0.672685,-0.0720285,9.78744,0.0911291,-0.605332,0.974286,-0.00672776,-0.000727705,0.0978743,1,3.6763e-05,-4.78004e-06,1.66298e-05,0.00735259,-0.000956008,0.00332596,0,0,0,0,0.0269694,0.514825,-0.986141,33.0625,1,37610,3814036
76,2,-0.668102,-0.0737797,9.78876,0.0994046,-0.610208,0.977849,-0.00668306,-0.000749374,0.0978874,1,5.86118e-05,-1.0487e-05,7.60674e-06,0.0117224,-0.00209739,0.00152135,0,0,0,0,0.0241278,0.514334,-0.984623,33.0625,1,37611,3814136
76,3,-0.668102,-0.0737797,9.78876,0.0994046,-0.610208,0.977849,-0.00668306,-0.000749374,0.0978874,1,5.86118e-05,-1.0487e-05,7.60674e-06,0.0117224,-0.00209739,0.00152135,0,0,0,0,0.0241278,0.514334,-0.984623,33.0625,1,37611,3814136
76,4,-0.671637,-0.0724927,9.77997,0.0955459,-0.605573,0.966537,-0.00671734,-0.000728387,0.0977996,1,1.65608e-05,-5.07946e-06,1.64415e-05,0.00331217,-0.00101589,0.0032883,0,0,0,0,0.0251393,0.51429,-0.982609,33.0625,1,37612,3814236
77,1,-0.671637,-0.0724927,9.77997,0.0955459,-0.605573,0.966537,-0.00671734,-0.000728387,0.0977996,1,1.65608e-05,-5.07946e-06,1.64415e-05,0.00331217,-0.00101589,0.0032883,0,0,0,0,0.0251393,0.51429,-0.982609,33.0625,1,37612,3814236
77,2,-0.667675,-0.0644007,9.78916,0.0996819,-0.599239,0.972712,-0.00667641,-0.000651904,0.0978916,1,3.99332e-05,1.66906e-06,5.86361e-06,0.00798665,0.000333813,0.00117272,0,0,0,0,0.0270235,0.516713,-0.982563,33.0625,1,37613,3814336
77,3,-0.667675,-0.0644007,9.78916,0.0996819,-0.599239,0.972712,-0.00667641,-0.000651904,0.0978916,1,3.99332e-05,1.66906e-06,5.86361e-06,0.00798665,0.000333813,0.00117272,0,0,0,0,0.0270235,0.516713,-0.982563,33.0625,1,37613,3814336
77,4,-0.660361,-0.0813555,9.7866,0.110156,-0.617076,0.971913,-0.00660511,-0.000822433,0.0978658,1,4.42043e-05,-7.8023e-06,1.70807e-05,0.00884085,-0.00156046,0.00341614,0,0,0,0,0.0274268,0.51773,-0.985068,33.0625,1,37614,3814436
78,1,-0.660361,-0.0813555,9.7866,0.110156,-0.617076,0.971913,-0.00660511,-0.000822433,0.0978658,1,4.42043e-05,-7.8023e-06,1.70807e-05,0.00884085,-0.00156046,0.00341614,0,0,0,0,0.0274268,0.51773,-0.985068,33.0625,1,37614,3814436
78,2,-0.668245,-0.0792116,9.78125,0.0968934,-0.616963,0.968804,-0.00668136,-0.000802857,0.0978124,1,5.2985e-05,5.3818e-06,2.81069e-05,0.010597,0.00107636,0.00562139,0,0,0,0,0.0259379,0.516811,-0.987607,33.0625,1,37615,3814536
78,3,-0.668245,-0.0792116,9.78125,0.0968934,-0.616963,0.968804,-0.00668136,-0.000802857,0.0978124,1,5.2985e-05,5.3818e-06,2.81069e-05,0.010597,0.00107636,0.00562139,0,0,0,0,0.0259379,0.516811,-0.987607,33.0625,1,37615,3814536
78,4,-0.658634,-0.072887,9.79345,0.106701,-0.607247,0.978789,-0.00658756,-0.000737503,0.0979344,1,4.24273e-05,-6.40392e-06,2.45254e-05,0.00848546,-0.00128078,0.00490508,0,0,0,0,0.0235892,0.514862,-0.986629,33.0625,1,37616,3814636
79,1,-0.658634,-0.072887,9.79345,0.106701,-0.607247,0.978789,-0.00658756,-0.000737503,0.0979344,1,4.24273e-05,-6.40392e-06,2.45254e-05,0.00848546,-0.00128078,0.00490508,0,0,0,0,0.0235892,0.514862,-0.986629,33.0625,1,37616,3814636
79,2,-0.66643,-0.0714941,9.7864,0.0978452,-0.609426,0.974234,-0.00666794,-0.000722425,0.0978637,1,3.60551e-05,-1.88348e-05,3.20694e-05,0.00721103,-0.00376696,0.00641388,0,0,0,0,0.0231204,0.514857,-0.986122,33.0625,1,37617,3814736
79,3,-0.66643,-0.0714941,9.7864,0.0978452,-0.609426,0.974234,-0.00666794,-0.000722425,0.0978637,1,3.60551e-05,-1.88348e-05,3.20694e-05,0.00721103,-0.00376696,0.00641388,0,0,0,0,0.0231204,0.514857,-0.986122,33.0625,1,37617,3814736
79,4,-0.667206,-0.079996,9.78496,0.104818,-0.621515,0.970731,-0.00667156,-0.000810149,0.0978495,1,5.05839e-05,2.39535e-06,2.17145e-05,0.0101168,0.00047907,0.0043429,0,0,0,0,0.0260608,0.515276,-0.983601,33.0625,1,37618,3814836
80,1,-0.667206,-0.079996,9.78496,0.104818,-0.621515,0.970731,-0.00667156,-0.000810149,0.0978495,1,5.05839e-05,2.39535e-06,2.17145e-05,0.0101168,0.00047907,0.0043429,0,0,0,0,0.0260608,0.515276,-0.983601,33.0625,1,37618,3814836
80,2,-0.671691,-0.0760848,9.79079,0.0965978,-0.615029,0.985224,-0.00671656,-0.000768774,0.0979078,1,3.87801e-05,1.57761e-06,2.47604e-05,0.00775603,0.000315522,0.00495207,0,0,0,0,0.0274638,0.517703,-0.983554,33.0625,1,37619,3814936
80,3,-0.671691,-0.0760848,9.79079,0.0965978,-0.615029,0.985224,-0.00671656,-0.000768774,0.0979078,1,3.87801e-05,1.57761e-06,2.47604e-05,0.00775603,0.000315522,0.00495207,0,0,0,0,0.0274638,0.517703,-0.983554,33.0625,1,37619,3814936
80,4,-0.677277,-0.0685631,9.78173,0.0913285,-0.610068,0.967325,-0.0067719,-0.000692927,0.0978173,1,3.58912e-05,4.32111e-06,2.02974e-05,0.00717825,0.000864221,0.00405948,0,0,0,0,0.026493,0.516753,-0.98458,33.0625,1,37620,3815036
81,1,-0.677277,-0.0685631,9.78173,0.0913285,-0.610068,0.967325,-0.0067719,-0.000692927,0.0978173,1,3.58912e-05,4.32111e-06,2.02974e-05,0.00717825,0.000864221,0.00405948,0,0,0,0,0.026493,0.516753,-0.98458,33.0625,1,37620,3815036
81,2,-0.67639,-0.0720911,9.78137,0.0923888,-0.612248,0.970111,-0.00676534,-0.000727323,0.0978136,1,3.18419e-05,-7.47678e-06,1.3519e-05,0.00636839,-0.00149536,0.00270379,0,0,0,0,0.0269205,0.516307,-0.987118,33.0625,1,37621,3815136
81,3,-0.67639,-0.0720911,9.78137,0.0923888,-0.612248,0.970111,-0.00676534,-0.000727323,0.0978136,1,3.18419e-05,-7.47678e-06,1.3519e-05,0.00636839,-0.00149536,0.00270379,0,0,0,0,0.0269205,0.516307,-0.987118,33.0625,1,37621,3815136
81,4,-0.678298,-0.0685268,9.79667,0.0910918,-0.606452,0.983081,-0.00678682,-0.000696801,0.0979664,1,5.75817e-05,-1.97591e-05,1.84236e-05,0.0115163,-0.00395181,0.00368472,0,0,0,0,0.0264598,0.515814,-0.986621,33.0625,1,37622,3815236
82,1,-0.678298,-0.0685268,9.79667,0.0910918,-0.606452,0.983081,-0.00678682,-0.000696801,0.0979664,1,5.75817e-05,-1.97591e-05,1.84236e-05,0.0115163,-0.00395181,0.00368472,0,0,0,0,0.0264598,0.515814,-0.986621,33.0625,1,37622,3815236
82,2,-0.671265,-0.0744714,9.78097,0.0929454,-0.61837,0.970801,-0.00671412,-0.000756541,0.0978095,1,5.88708e-05,-7.73364e-06,2.30948e-05,0.0117742,-0.00154673,0.00461895,0,0,0,0,0.0246089,0.51433,-0.984626,33.0625,1,37623,3815336
82,3,-0.671265,-0.0744714,9.78097,0.0929454,-0.61837,0.970801,-0.00671412,-0.000756541,0.0978095,1,5.88708e-05,-7.73364e-06,2.30948e-05,0.0117742,-0.00154673,0.00461895,0,0,0,0,0.0246089,0.51433,-0.984626,33.0625,1,37623,3815336
82,4,-0.662673,-0.0729065,9.79484,0.107848,-0.613465,0.977119,-0.00662795,-0.000737528,0.0979482,1,4.27477e-05,-6.31042e-06,6.69792e-06,0.00854955,-0.00126208,0.00133958,0,0,0,0,0.0270519,0.515729,-0.98208,33.0625,1,37624,3815436
83,1,-0.662673,-0.0729065,9.79484,0.107848,-0.613465,0.977119,-0.00662795,-0.000737528,0.0979482,1,4.27477e-05,-6.31042e-06,6.69792e-06,0.00854955,-0.00126208,0.00133958,0,0,0,0,0.0270519,0.515729,-0.98208,33.0625,1,37624,3815436
83,2,-0.670178,-0.0784787,9.79314,0.1009,-0.618877,0.980898,-0.00670341,-0.000793334,0.0979312,1,4.24962e-05,-8.46029e-06,1.66745e-05,0.00849924,-0.00169206,0.0033349,0,0,0,0,0.0279653,0.517202,-0.983062,33.0625,1,37625,3815536
83,3,-0.670178,-0.0784787,9.79314,0.1009,-0.618877,0.980898,-0.00670341,-0.000793334,0.0979312,1,4.24962e-05,-8.46029e-06,1.66745e-05,0.00849924,-0.00169206,0.0033349,0,0,0,0,0.0279653,0.517202,-0.983062,33.0625,1,37625,3815536
83,4,-0.671231,-0.0771569,9.78841,0.101385,-0.616682,0.975307,-0.00671333,-0.000779085,0.097884,1,3.61242e-05,-5.4298e-06,3.30619e-05,0.00722483,-0.00108596,0.00661238,0,0,0,0,0.0269741,0.516749,-0.984583,33.0625,1,37626,3815636
84,1,-0.671231,-0.0771569,9.78841,0.101385,-0.616682,0.975307,-0.00671333,-0.000779085,0.097884,1,3.61242e-05,-5.4298e-06,3.30619e-05,0.00722483,-0.00108596,0.00661238,0,0,0,0,0.0269741,0.516749,-0.984583,33.0625,1,37626,3815636
84,2,-0.670333,-0.0747108,9.78604,0.0967661,-0.618052,0.97201,-0.00670324,-0.000755471,0.0978604,1,4.1509e-05,3.42935e-07,1.77939e-05,0.00830181,6.8587e-05,0.00355878,0,0,0,0,0.0241036,0.515798,-0.984591,33.0625,1,37627,3815736
84,3,-0.670333,-0.0747108,9.78604,0.0967661,-0.618052,0.97201,-0.00670324,-0.000755471,0.0978604,1,4.1509e-05,3.42935e-07,1.77939e-05,0.00830181,6.8587e-05,0.00355878,0,0,0,0,0.0241036,0.515798,-0.984591,33.0625,1,37627,3815736
84,4,-0.671516,-0.0815397,9.79516,0.0988016,-0.625424,0.981757,-0.00671647,-0.000824388,0.0979514,1,4.48152e-05,-6.82062e-06,1.56985e-05,0.00896305,-0.00136412,0.0031397,0,0,0,0,0.0236305,0.515314,-0.984599,33.0625,1,37628,3815836
85,1,-0.671516,-0.0815397,9.79516,0.0988016,-0.625424,0.981757,-0.00671647,-0.000824388,0.0979514,1,4.48152e-05,-6.82062e-06,1.56985e-05,0.00896305,-0.00136412,0.0031397,0,0,0,0,0.0236305,0.515314,-0.984599,33.0625,1,37628,3815836
85,2,-0.671263,-0.0646543,9.78547,0.0963781,-0.608517,0.974248,-0.00671491,-0.000656612,0.0978544,1,4.97904e-05,-1.18449e-05,2.4149e-05,0.00995807,-0.00236898,0.00482981,0,0,0,0,0.0255388,0.516273,-0.984587,33.0625,1,37629,3815936
85,3,-0.671263,-0.0646543,9.78547,0.0963781,-0.608517,0.974248,-0.00671491,-0.000656612,0.0978544,1,4.97904e-05,-1.18449e-05,2.4149e-05,0.00995807,-0.00236898,0.00482981,0,0,0,0,0.0255388,0.516273,-0.984587,33.0625,1,37629,3815936
85,4,-0.665891,-0.0685099,9.79184,0.105551,-0.608633,0.977225,-0.00665986,-0.000695782,0.0979183,1,5.30593e-05,-5.01806e-06,2.18974e-05,0.0106119,-0.00100361,0.00437948,0,0,0,0,0.0260854,0.515258,-0.982592,33.0625,1,37630,3816036
86,1,-0.665891,-0.0685099,9.79184,0.105551,-0.608633,0.977225,-0.00665986,-0.000695782,0.0979183,1,5.30593e-05,-5.01806e-06,2.18974e-05,0.0106119,-0.00100361,0.00437948,0,0,0,0,0.0260854,0.515258,-0.982592,33.0625,1,37630,3816036
86,2,-0.672826,-0.0760192,9.79352,0.0964051,-0.623469,0.983426,-0.00673131,-0.000770352,0.0979349,1,5.0934e-05,-1.56518e-05,1.36551e-05,0.0101868,-0.00313035,0.00273103,0,0,0,0,0.026057,0.516243,-0.983075,33.0625,1,37631,3816136
86,3,-0.672826,-0.0760192,9.79352,0.0964051,-0.623469,0.983426,-0.00673131,-0.000770352,0.0979349,1,5.0934e-05,-1.56518e-05,1.36551e-05,0.0101868,-0.00313035,0.00273103,0,0,0,0,0.026057,0.516243,-0.983075,33.0625,1,37631,3816136
86,4,-0.666568,-0.0709324,9.78571,0.0961801,-0.616337,0.97138,-0.0066672,-0.000715764,0.097857,1,3.13333e-05,-7.91794e-06,2.30839e-05,0.00626667,-0.00158359,0.00461678,0,0,0,0,0.0260489,0.51673,-0.983064,33.0625,1,37632,3816236
87,1,-0.666568,-0.0709324,9.78571,0.0961801,-0.616337,0.97138,-0.0066672,-0.000715764,0.097857,1,3.13333e-05,-7.91794e-06,2.30839e-05,0.00626667,-0.00158359,0.00461678,0,0,0,0,0.0260489,0.51673,-0.983064,33.0625,1,37632,3816236
87,2,-0.668749,-0.0825736,9.79106,0.101519,-0.626811,0.978077,-0.00668842,-0.000834227,0.0979105,1,4.18388e-05,-4.93255e-06,2.22435e-05,0.00836777,-0.00098651,0.0044487,0,0,0,0,0.0259829,0.516297,-0.986103,33.0625,1,37633,3816336
87,3,-0.668749,-0.0825736,9.79106,0.101519,-0.626811,0.978077,-0.00668842,-0.000834227,0.0979105,1,4.18388e-05,-4.93255e-06,2.22435e-05,0.00836777,-0.00098651,0.0044487,0,0,0,0,0.0259829,0.516297,-0.986103,33.0625,1,37633,3816336
87,4,-0.676692,-0.0689025,9.78784,0.091264,-0.615612,0.974493,-0.00676945,-0.000695962,0.0978782,1,3.30005e-05,-1.32116e-05,3.52376e-05,0.00660009,-0.00264231,0.00704752,0,0,0,0,0.0274178,0.515327,-0.987142,33.0625,1,37634,3816436
88,1,-0.676692,-0.0689025,9.78784,0.091264,-0.615612,0.974493,-0.00676945,-0.000695962,0.0978782,1,3.30005e-05,-1.32116e-05,3.52376e-05,0.00660009,-0.00264231,0.00704752,0,0,0,0,0.0274178,0.515327,-0.987142,33.0625,1,37634,3816436
88,2,-0.670469,-0.0723866,9.79557,0.0956087,-0.614631,0.982028,-0.00670619,-0.000730976,0.0979556,1,3.50849e-05,-7.78749e-06,1.76745e-05,0.00701698,-0.0015575,0.00353489,0,0,0,0,0.0251066,0.514796,-0.983607,33.0625,1,37635,3816536
88,3,-0.670469,-0.0723866,9.79557,0.0956087,-0.614631,0.982028,-0.00670619,-0.000730976,0.0979556,1,3.50849e-05,-7.78749e-06,1.76745e-05,0.00701698,-0.0015575,0.00353489,0,0,0,0,0.0251066,0.514796,-0.983607,33.0625,1,37635,3816536
88,4,-0.665652,-0.0846281,9.78763,0.0996068,-0.62978,0.972,-0.00666023,-0.000853448,0.097876,1,3.4945e-05,-1.92133e-05,2.44696e-05,0.006989,-0.00384265,0.00489393,0,0,0,0,0.0251393,0.51429,-0.982609,33.0625,1,37636,3816636
89,1,-0.665652,-0.0846281,9.78763,0.0996068,-0.62978,0.972,-0.00666023,-0.000853448,0.097876,1,3.4945e-05,-1.92133e-05,2.44696e-05,0.006989,-0.00384265,0.00489393,0,0,0,0,0.0251393,0.51429,-0.982609,33.0625,1,37636,3816636
89,2,-0.66956,-0.0745995,9.7813,0.0941755,-0.618809,0.96843,-0.00669723,-0.000754909,0.0978128,1,4.46383e-05,-8.43595e-06,1.35432e-05,0.00892766,-0.00168719,0.00270865,0,0,0,0,0.0255104,0.517258,-0.98507,33.0625,1,37637,3816736
89,3,-0.66956,-0.0745995,9.7813,0.0941755,-0.618809,0.96843,-0.00669723,-0.000754909,0.0978128,1,4.46383e-05,-8.43595e-06,1.35432e-05,0.00892766,-0.00168719,0.00270865,0,0,0,0,0.0255104,0.517258,-0.98507,33.0625,1,37637,3816736
89,4,-0.672939,-0.0668084,9.78614,0.0930571,-0.613379,0.970572,-0.00673203,-0.000676384,0.0978611,1,4.25895e-05,-1.34647e-05,-2.591e-06,0.00851789,-0.00269295,-0.0005182,0,0,0,0,0.0269129,0.51824,-0.986064,33.0625,1,37638,3816836
90,1,-0.672939,-0.0668084,9.78614,0.0930571,-0.613379,0.970572,-0.00673203,-0.000676384,0.0978611,1,4.25895e-05,-1.34647e-05,-2.591e-06,0.00851789,-0.00269295,-0.0005182,0,0,0,0,0.0269129,0.51824,-0.986064,33.0625,1,37638,3816836
90,2,-0.676348,-0.0710246,9.79596,0.0908394,-0.617186,0.983773,-0.00676533,-0.000719099,0.0979594,1,4.41855e-05,-9.57622e-06,1.45344e-05,0.00883711,-0.00191524,0.00290688,0,0,0,0,0.0269286,0.515819,-0.987128,33.0625,1,37639,3816936
90,3,-0.676348,-0.0710246,9.79596,0.0908394,-0.617186,0.983773,-0.00676533,-0.000719099,0.0979594,1,4.41855e-05,-9.57622e-06,1.45344e-05,0.00883711,-0.00191524,0.00290688,0,0,0,0,0.0269286,0.515819,-0.987128,33.0625,1,37639,3816936
90,4,-0.678375,-0.0741006,9.79256,0.0908462,-0.620029,0.983557,-0.00678526,-0.000750283,0.0979254,1,4.71528e-05,-7.7191e-06,3.1683e-06,0.00943056,-0.00154382,0.000633661,0,0,0,0,0.0245676,0.513879,-0.986656,33.0625,1,37640,3817036
91,1,-0.678375,-0.0741006,9.79256,0.0908462,-0.620029,0.983557,-0.00678526,-0.000750283,0.0979254,1,4.71528e-05,-7.7191e-06,3.1683e-06,0.00943056,-0.00154382,0.000633661,0,0,0,0,0.0245676,0.513879,-0.986656,33.0625,1,37640,3817036
91,2,-0.671725,-0.0715418,9.78574,0.0936831,-0.621946,0.976452,-0.00671764,-0.000724552,0.0978573,1,4.5618e-05,-2.12904e-06,1.53223e-05,0.0091236,-0.000425807,0.00306445,0,0,0,0,0.0245842,0.514349,-0.985635,33.0625,1,37641,3817136
91,3,-0.671725,-0.0715418,9.78574,0.0936831,-0.621946,0.976452,-0.00671764,-0.000724552,0.0978573,1,4.5618e-05,-2.12904e-06,1.53223e-05,0.0091236,-0.000425807,0.00306445,0,0,0,0,0.0245842,0.514349,-0.985635,33.0625,1,37641,3817136
91,4,-0.668821,-0.0753741,9.79926,0.0959815,-0.620957,0.986928,-0.0066895,-0.000764607,0.0979925,1,5.43966e-05,-6.67815e-06,1.53408e-05,0.0108793,-0.00133563,0.00306817,0,0,0,0,0.0265334,0.514314,-0.984635,33.0625,1,37642,3817236
92,1,-0.668821,-0.0753741,9.79926,0.0959815,-0.620957,0.986928,-0.0066895,-0.000764607,0.0979925,1,5.43966e-05,-6.67815e-06,1.53408e-05,0.0108793,-0.00133563,0.00306817,0,0,0,0,0.0265334,0.514314,-0.984635,33.0625,1,37642,3817236
92,2,-0.677358,-0.0737431,9.79424,0.0875052,-0.62424,0.986673,-0.00677478,-0.000747023,0.0979422,1,4.77246e-05,-6.25131e-06,1.79709e-05,0.00954493,-0.00125026,0.00359417,0,0,0,0,0.0274761,0.517694,-0.983049,33.0625,1,37643,3817336
92,3,-0.677358,-0.0737431,9.79424,0.0875052,-0.62424,0.986673,-0.00677478,-0.000747023,0.0979422,1,4.77246e-05,-6.25131e-06,1.79709e-05,0.00954493,-0.00125026,0.00359417,0,0,0,0,0.0274761,0.517694,-0.983049,33.0625,1,37643,3817336
92,4,-0.665692,-0.0727162,9.7969,0.103303,-0.623918,0.983015,-0.00665897,-0.000733793,0.0979688,1,3.24939e-05,-1.06468e-05,1.98613e-05,0.00649878,-0.00212936,0.00397226,0,0,0,0,0.0293678,0.518184,-0.984057,33.0625,1,37644,3817436
93,1,-0.665692,-0.0727162,9.7969,0.103303,-0.623918,0.983015,-0.00665897,-0.000733793,0.0979688,1,3.24939e-05,-1.06468e-05,1.98613e-05,0.00649878,-0.00212936,0.00397226,0,0,0,0,0.0293678,0.518184,-0.984057,33.0625,1,37644,3817436
93,2,-0.679124,-0.0745844,9.79424,0.0829449,-0.62528,0.97944,-0.00679088,-0.000752165,0.0979424,1,3.13744e-05,1.73766e-06,1.28578e-05,0.00627488,0.000347533,0.00257157,0,0,0,0,0.0273936,0.51679,-0.987109,33.0625,1,37645,3817536
93,3,-0.679124,-0.0745844,9.79424,0.0829449,-0.62528,0.97944,-0.00679088,-0.000752165,0.0979424,1,3.13744e-05,1.73766e-06,1.28578e-05,0.00627488,0.000347533,0.00257157,0,0,0,0,0.0273936,0.51679,-0.987109,33.0625,1,37645,3817536
93,4,-0.67622,-0.0739381,9.78306,0.0859972,-0.627509,0.969617,-0.00676574,-0.000749102,0.0978303,1,4.85667e-05,-1.81869e-05,1.61655e-05,0.00971334,-0.00363738,0.00323311,0,0,0,0,0.0255018,0.516301,-0.986101,33.0625,1,37646,3817636
94,1,-0.67622,-0.0739381,9.78306,0.0859972,-0.627509,0.969617,-0.00676574,-0.000749102,0.0978303,1,4.85667e-05,-1.81869e-05,1.61655e-05,0.00971334,-0.00363738,0.00323311,0,0,0,0,0.0255018,0.516301,-0.986101,33.0625,1,37646,3817636
94,2,-0.672677,-0.071307,9.78609,0.0908484,-0.622006,0.973182,-0.00672791,-0.000720863,0.0978608,1,3.93149e-05,-5.85605e-06,7.29231e-06,0.00786297,-0.00117121,0.00145846,0,0,0,0,0.0245809,0.51676,-0.984066,33.0625,1,37647,3817736
94,3,-0.672677,-0.071307,9.78609,0.0908484,-0.622006,0.973182,-0.00672791,-0.000720863,0.0978608,1,3.93149e-05,-5.85605e-06,7.29231e-06,0.00786297,-0.00117121,0.00145846,0,0,0,0,0.0245809,0.51676,-0.984066,33.0625,1,37647,3817736
94,4,-0.664832,-0.0730873,9.79111,0.104231,-0.620435,0.977139,-0.0066497,-0.000741967,0.0979109,1,5.58961e-05,-7.13538e-06,1.11632e-05,0.0111792,-0.00142708,0.00223263,0,0,0,0,0.0250378,0.51822,-0.984036,33.0625,1,37648,3817836
95,1,-0.664832,-0.0730873,9.79111,0.104231,-0.620435,0.977139,-0.0066497,-0.000741967,0.0979109,1,5.58961e-05,-7.13538e-06,1.11632e-05,0.0111792,-0.00142708,0.00223263,0,0,0,0,0.0250378,0.51822,-0.984036,33.0625,1,37648,3817836
95,2,-0.670611,-0.0617885,9.79023,0.0918062,-0.616466,0.979557,-0.00670878,-0.000625573,0.0979021,1,3.83593e-05,-1.3724e-05,1.3208e-05,0.00767187,-0.0027448,0.0026416,0,0,0,0,0.0259673,0.518717,-0.985039,33.0625,1,37649,3817936
95,3,-0.670611,-0.0617885,9.79023,0.0918062,-0.616466,0.979557,-0.00670878,-0.000625573,0.0979021,1,3.83593e-05,-1.3724e-05,1.3208e-05,0.00767187,-0.0027448,0.0026416,0,0,0,0,0.0259673,0.518717,-0.985039,33.0625,1,37649,3817936
95,4,-0.674902,-0.0792006,9.79317,0.0896168,-0.631832,0.976574,-0.00674941,-0.00080133,0.0979316,1,4.56405e-05,-2.27448e-06,2.84833e-05,0.0091281,-0.000454896,0.00569666,0,0,0,0,0.025498,0.517267,-0.985574,33.0625,1,37650,3818036
96,1,-0.674902,-0.0792006,9.79317,0.0896168,-0.631832,0.976574,-0.00674941,-0.00080133,0.0979316,1,4.56405e-05,-2.27448e-06,2.84833e-05,0.0091281,-0.000454896,0.00569666,0,0,0,0,0.025498,0.517267,-0.985574,33.0625,1,37650,3818036
96,2,-0.679996,-0.0811273,9.79319,0.0829771,-0.638402,0.978502,-0.00680261,-0.000821633,0.0979316,1,5.12766e-05,-1.36864e-05,2.33151e-05,0.0102553,-0.00273728,0.00466302,0,0,0,0,0.0259583,0.516315,-0.987113,33.0625,1,37651,3818136
96,3,-0.679996,-0.0811273,9.79319,0.0829771,-0.638402,0.978502,-0.00680261,-0.000821633,0.0979316,1,5.12766e-05,-1.36864e-05,2.33151e-05,0.0102553,-0.00273728,0.00466302,0,0,0,0,0.0259583,0.516315,-0.987113,33.0625,1,37651,3818136
96,4,-0.670117,-0.0722884,9.79048,0.0952458,-0.626982,0.980835,-0.0067046,-0.000733482,0.0979045,1,5.27559e-05,-1.76932e-05,2.00046e-05,0.0105512,-0.00353863,0.00400091,0,0,0,0,0.0274178,0.515327,-0.987142,33.0625,1,37652,3818236
97,1,-0.670117,-0.0722884,9.79048,0.0952458,-0.626982,0.980835,-0.0067046,-0.000733482,0.0979045,1,5.27559e-05,-1.76932e-05,2.00046e-05,0.0105512,-0.00353863,0.00400091,0,0,0,0,0.0274178,0.515327,-0.987142,33.0625,1,37652,3818236
97,2,-0.669966,-0.0607507,9.79499,0.0968828,-0.611701,0.987799,-0.00670158,-0.000616873,0.0979497,1,4.67765e-05,-9.87993e-06,1.51694e-05,0.00935529,-0.00197599,0.00303388,0,0,0,0,0.0259995,0.516766,-0.985083,33.0625,1,37653,3818336
97,3,-0.669966,-0.0607507,9.79499,0.0968828,-0.611701,0.987799,-0.00670158,-0.000616873,0.0979497,1,4.67765e-05,-9.87993e-06,1.51694e-05,0.00935529,-0.00197599,0.00303388,0,0,0,0,0.0259995,0.516766,-0.985083,33.0625,1,37653,3818336
97,4,-0.674699,-0.0740922,9.79049,0.0840608,-0.628348,0.979495,-0.00674693,-0.000747651,0.0979048,1,3.42168e-05,2.81235e-07,2.12151e-06,0.00684336,5.62469e-05,0.000424302,0,0,0,0,0.0265257,0.516248,-0.983582,33.0625,1,37654,3818436
98,1,-0.674699,-0.0740922,9.79049,0.0840608,-0.628348,0.979495,-0.00674693,-0.000747651,0.0979048,1,3.42168e-05,2.81235e-07,2.12151e-06,0.00684336,5.62469e-05,0.000424302,0,0,0,0,0.0265257,0.516248,-0.983582,33.0625,1,37654,3818436
98,2,-0.670345,-0.0706009,9.78337,0.0930159,-0.626465,0.970638,-0.00670408,-0.000713944,0.0978336,1,3.99481e-05,-3.2746e-06,8.85506e-06,0.00798963,-0.00065492,0.00177101,0,0,0,0,0.0274472,0.517233,-0.984574,33.0625,1,37655,3818536
98,3,-0.670345,-0.0706009,9.78337,0.0930159,-0.626465,0.970638,-0.00670408,-0.000713944,0.0978336,1,3.99481e-05,-3.2746e-06,8.85506e-06,0.00798963,-0.00065492,0.00177101,0,0,0,0,0.0274472,0.517233,-0.984574,33.0625,1,37655,3818536
98,4,-0.665977,-0.0801823,9.79005,0.0977097,-0.637871,0.973823,-0.00666314,-0.00081069,0.0979002,1,4.43849e-05,-1.7319e-05,1.32525e-05,0.00887699,-0.00346381,0.00265051,0,0,0,0,0.0279202,0.517717,-0.984566,33.0625,1,37656,3818636
99,1,-0.665977,-0.0801823,9.79005,0.0977097,-0.637871,0.973823,-0.00666314,-0.00081069,0.0979002,1,4.43849e-05,-1.7319e-05,1.32525e-05,0.00887699,-0.00346381,0.00265051,0,0,0,0,0.0279202,0.517717,-0.984566,33.0625,1,37656,3818636
99,2,-0.665113,-0.0745458,9.79009,0.0974541,-0.631019,0.978155,-0.00665337,-0.000754846,0.0979006,1,4.71341e-05,-1.1567e-05,1.19715e-05,0.00942683,-0.00231341,0.00239429,0,0,0,0,0.0274552,0.516745,-0.984585,33.0625,1,37657,3818736
99,3,-0.665113,-0.0745458,9.79009,0.0974541,-0.631019,0.978155,-0.00665337,-0.000754846,0.0979006,1,4.71341e-05,-1.1567e-05,1.19715e-05,0.00942683,-0.00231341,0.00239429,0,0,0,0,0.0274552,0.516745,-0.984585,33.0625,1,37657,3818736
99,4,-0.661813,-0.0745484,9.78904,0.101149,-0.633028,0.975101,-0.00661827,-0.000754323,0.0978903,1,4.43272e-05,-8.34371e-07,1.21316e-05,0.00886544,-0.000166874,0.00242631,0,0,0,0,0.0270391,0.514292,-0.983627,33.0625,1,37658,3818836
100,1,-0.661813,-0.0745484,9.78904,0.101149,-0.633028,0.975101,-0.00661827,-0.000754323,0.0978903,1,4.43272e-05,-8.34371e-07,1.21316e-05,0.00886544,-0.000166874,0.00242631,0,0,0,0,0.0270391,0.514292,-0.983627,33.0625,1,37658,3818836
100,2,-0.67575,-0.0776375,9.79691,0.0862123,-0.634041,0.984089,-0.00675607,-0.000783643,0.0979691,1,3.61689e-05,7.18583e-06,1.34465e-05,0.00723377,0.00143717,0.00268931,0,0,0,0,0.0275326,0.514279,-0.983125,33.0625,1,37659,3818936
100,3,-0.67575,-0.0776375,9.79691,0.0862123,-0.634041,0.984089,-0.00675607,-0.000783643,0.0979691,1,3.61689e-05,7.18583e-06,1.34465e-05,0.00723377,0.00143717,0.00268931,0,0,0,0,0.0275326,0.514279,-0.983125,33.0625,1,37659,3818936
100,4,-0.659607,-0.066711,9.79216,0.103853,-0.623058,0.97581,-0.00659838,-0.000676802,0.0979214,1,4.79074e-05,-1.19342e-05,2.34932e-05,0.00958147,-0.00238683,0.00469863,0,0,0,0,0.0284668,0.516701,-0.98257,33.0625,1,37660,3819036
101,1,-0.659607,-0.066711,9.79216,0.103853,-0.623058,0.97581,-0.00659838,-0.000676802,0.0979214,1,4.79074e-05,-1.19342e-05,2.34932e-05,0.00958147,-0.00238683,0.00469863,0,0,0,0,0.0284668,0.516701,-0.98257,33.0625,1,37660,3819036
101,2,-0.674442,-0.0749569,9.79013,0.0869028,-0.630724,0.978004,-0.00674343,-0.000760143,0.0979013,1,5.38322e-05,5.0183e-06,2.50545e-06,0.0107664,0.00100366,0.00050109,0,0,0,0,0.0269746,0.518195,-0.98354,33.0625,1,37661,3819136
101,3,-0.674442,-0.0749569,9.79013,0.0869028,-0.630724,0.978004,-0.00674343,-0.000760143,0.0979013,1,5.38322e-05,5.0183e-06,2.50545e-06,0.0107664,0.00100366,0.00050109,0,0,0,0,0.0269746,0.518195,-0.98354,33.0625,1,37661,3819136
101,4,-0.679716,-0.0747571,9.78985,0.0803992,-0.635969,0.973865,-0.00679966,-0.00075642,0.0978982,1,4.3228e-05,-1.30296e-05,2.83273e-05,0.0086456,-0.00260593,0.00566546,0,0,0,0,0.0283805,0.516764,-0.986104,33.0625,1,37662,3819236
102,1,-0.679716,-0.0747571,9.78985,0.0803992,-0.635969,0.973865,-0.00679966,-0.00075642,0.0978982,1,4.3228e-05,-1.30296e-05,2.83273e-05,0.0086456,-0.00260593,0.00566546,0,0,0,0,0.0283805,0.516764,-0.986104,33.0625,1,37662,3819236
102,2,-0.672838,-0.0787888,9.78739,0.0905234,-0.637059,0.974206,-0.0067304,-0.000796697,0.0978737,1,4.35079e-05,-1.04959e-05,2.17219e-05,0.00870157,-0.00209918,0.00434439,0,0,0,0,0.028845,0.516291,-0.987127,33.0625,1,37663,3819336
102,3,-0.672838,-0.0787888,9.78739,0.0905234,-0.637059,0.974206,-0.0067304,-0.000796697,0.0978737,1,4.35079e-05,-1.04959e-05,2.17219e-05,0.00870157,-0.00209918,0.00434439,0,0,0,0,0.028845,0.516291,-0.987127,33.0625,1,37663,3819336
102,4,-0.676239,-0.0736688,9.7878,0.0854558,-0.634326,0.974822,-0.0067665,-0.000747302,0.0978777,1,5.31169e-05,-2.11451e-05,1.59795e-05,0.0106234,-0.00422902,0.00319591,0,0,0,0,0.0269575,0.51628,-0.985603,33.0625,3,37664,3819436
103,1,-0.676239,-0.0736688,9.7878,0.0854558,-0.634326,0.974822,-0.0067665,-0.000747302,0.0978777,1,5.31169e-05,-2.11451e-05,1.59795e-05,0.0106234,-0.00422902,0.00319591,0,0,0,0,0.0269575,0.51628,-0.985603,33.0625,3,37664,3819436
103,2,-0.665199,-0.0633296,9.79222,0.0948968,-0.627555,0.977783,-0.00665384,-0.000641719,0.097922,1,4.18126e-05,-9.51438e-06,1.75519e-05,0.00836252,-0.00190288,0.00351038,0,0,0,0,0.0274752,0.514803,-0.985133,33.0625,3,37665,3819536
103,3,-0.665199,-0.0633296,9.79222,0.0948968,-0.627555,0.977783,-0.00665384,-0.000641719,0.097922,1,4.18126e-05,-9.51438e-06,1.75519e-05,0.00836252,-0.00190288,0.00351038,0,0,0,0,0.0274752,0.514803,-0.985133,33.0625,3,37665,3819536
103,4,-0.678212,-0.0809372,9.79047,0.0822763,-0.644283,0.977931,-0.00678466,-0.000817746,0.0979044,1,4.10081e-05,-1.31931e-05,2.53057e-05,0.00820163,-0.00263863,0.00506113,0,0,0,0,0.0274837,0.515761,-0.984102,33.0625,3,37666,3819636
104,1,-0.678212,-0.0809372,9.79047,0.0822763,-0.644283,0.977931,-0.00678466,-0.000817746,0.0979044,1,4.10081e-05,-1.31931e-05,2.53057e-05,0.00820163,-0.00263863,0.00506113,0,0,0,0,0.0274837,0.515761,-0.984102,33.0625,3,37666,3819636
104,2,-0.666437,-0.077017,9.78736,0.0974568,-0.634489,0.970074,-0.0066659,-0.000777455,0.0978735,1,3.58243e-05,-7.96255e-06,2.04574e-05,0.00716486,-0.00159251,0.00409148,0,0,0,0,0.0259673,0.518717,-0.985039,33.0625,3,37667,3819736
104,3,-0.666437,-0.077017,9.78736,0.0974568,-0.634489,0.970074,-0.0066659,-0.000777455,0.0978735,1,3.58243e-05,-7.96255e-06,2.04574e-05,0.00716486,-0.00159251,0.00409148,0,0,0,0,0.0259673,0.518717,-0.985039,33.0625,3,37667,3819736
104,4,-0.670216,-0.0671795,9.7868,0.0937687,-0.624042,0.97566,-0.00670436,-0.000680383,0.0978677,1,4.22189e-05,-1.13993e-05,2.41769e-05,0.00844378,-0.00227987,0.00483538,0,0,0,0,0.0273978,0.517269,-0.986593,33.0625,3,37668,3819836
105,1,-0.670216,-0.0671795,9.7868,0.0937687,-0.624042,0.97566,-0.00670436,-0.000680383,0.0978677,1,4.22189e-05,-1.13993e-05,2.41769e-05,0.00844378,-0.00227987,0.00483538,0,0,0,0,0.0273978,0.517269,-0.986593,33.0625,3,37668,3819836
105,2,-0.673108,-0.0683576,9.78171,0.0896475,-0.628387,0.965227,-0.00673152,-0.000694178,0.097817,1,5.27929e-05,-2.39743e-06,2.03439e-05,0.0105586,-0.000479485,0.00406879,0,0,0,0,0.0263943,0.516825,-0.988619,33.0625,3,37669,3819936
105,3,-0.673108,-0.0683576,9.78171,0.0896475,-0.628387,0.965227,-0.00673152,-0.000694178,0.097817,1,5.27929e-05,-2.39743e-06,2.03439e-05,0.0105586,-0.000479485,0.00406879,0,0,0,0,0.0263943,0.516825,-0.988619,33.0625,3,37669,3819936
105,4,-0.677348,-0.0762418,9.78642,0.0847983,-0.637287,0.970469,-0.00677367,-0.000768919,0.0978642,1,3.25256e-05,-1.02074e-06,9.9556e-06,0.00650512,-0.000204147,0.00199112,0,0,0,0,0.0259787,0.515818,-0.986619,33.0625,3,37670,3820036
106,1,-0.677348,-0.0762418,9.78642,0.0847983,-0.637287,0.970469,-0.00677367,-0.000768919,0.0978642,1,3.25256e-05,-1.02074e-06,9.9556e-06,0.00650512,-0.000204147,0.00199112,0,0,0,0,0.0259787,0.515818,-0.986619,33.0625,3,37670,3820036
106,2,-0.672633,-0.0781732,9.78807,0.0888707,-0.643636,0.97438,-0.00672556,-0.0007893,0.0978807,1,3.87467e-05,3.99366e-06,-1.29481e-06,0.00774934,0.000798731,-0.000258961,0,0,0,0,0.0265091,0.515778,-0.984602,33.0625,3,37671,3820136
106,3,-0.672633,-0.0781732,9.78807,0.0888707,-0.643636,0.97438,-0.00672556,-0.0007893,0.0978807,1,3.87467e-05,3.99366e-06,-1.29481e-06,0.00774934,0.000798731,-0.000258961,0,0,0,0,0.0265091,0.515778,-0.984602,33.0625,3,37671,3820136
106,4,-0.682658,-0.0779297,9.80273,0.0804731,-0.641987,0.990648,-0.00682788,-0.00078937,0.0980271,1,4.94216e-05,-6.88294e-06,2.81128e-05,0.00988432,-0.00137659,0.00562255,0,0,0,0,0.0260119,0.516757,-0.984578,33.0625,3,37672,3820236
107,1,-0.682658,-0.0779297,9.80273,0.0804731,-0.641987,0.990648,-0.00682788,-0.00078937,0.0980271,1,4.94216e-05,-6.88294e-06,2.81128e-05,0.00988432,-0.00137659,0.00562255,0,0,0,0,0.0260119,0.516757,-0.984578,33.0625,3,37672,3820236
107,2,-0.67418,-0.0757965,9.80269,0.0897064,-0.639148,0.99204,-0.00674356,-0.000766775,0.0980267,1,4.29675e-05,-9.20144e-06,2.86829e-05,0.00859349,-0.00184029,0.00573659,0,0,0,0,0.0265091,0.515778,-0.984602,33.0625,3,37673,3820336
107,3,-0.67418,-0.0757965,9.80269,0.0897064,-0.639148,0.99204,-0.00674356,-0.000766775,0.0980267,1,4.29675e-05,-9.20144e-06,2.86829e-05,0.00859349,-0.00184029,0.00573659,0,0,0,0,0.0265091,0.515778,-0.984602,33.0625,3,37673,3820336
107,4,-0.676869,-0.080485,9.77927,0.0873663,-0.639101,0.965791,-0.00677223,-0.000812599,0.0977924,1,3.83e-05,-1.82331e-05,1.90621e-05,0.00766,-0.00364661,0.00381243,0,0,0,0,0.0269656,0.515792,-0.985614,33.0625,3,37674,3820436
108,1,-0.676869,-0.080485,9.77927,0.0873663,-0.639101,0.965791,-0.00677223,-0.000812599,0.0977924,1,3.83e-05,-1.82331e-05,1.90621e-05,0.00766,-0.00364661,0.00381243,0,0,0,0,0.0269656,0.515792,-0.985614,33.0625,3,37674,3820436
108,2,-0.670437,-0.0780069,9.79383,0.0923053,-0.6391,0.978342,-0.00670653,-0.000791408,0.097938,1,5.69095e-05,-1.1131e-05,1.43161e-05,0.0113819,-0.00222619,0.00286323,0,0,0,0,0.0259459,0.516324,-0.987618,33.0625,3,37675,3820536
108,3,-0.670437,-0.0780069,9.79383,0.0923053,-0.6391,0.978342,-0.00670653,-0.000791408,0.097938,1,5.69095e-05,-1.1131e-05,1.43161e-05,0.0113819,-0.00222619,0.00286323,0,0,0,0,0.0259459,0.516324,-0.987618,33.0625,3,37675,3820536
108,4,-0.670117,-0.0767913,9.79417,0.0886998,-0.641076,0.982307,-0.00670338,-0.000775482,0.0979415,1,3.73218e-05,-1.14555e-05,1.92839e-05,0.00746436,-0.0022911,0.00385678,0,0,0,0,0.0269656,0.515792,-0.985614,33.0625,3,37676,3820636
109,1,-0.670117,-0.0767913,9.79417,0.0886998,-0.641076,0.982307,-0.00670338,-0.000775482,0.0979415,1,3.73218e-05,-1.14555e-05,1.92839e-05,0.00746436,-0.0022911,0.00385678,0,0,0,0,0.0269656,0.515792,-0.985614,33.0625,3,37676,3820636
109,2,-0.678388,-0.0804933,9.78876,0.0875015,-0.642864,0.977042,-0.00678398,-0.000812869,0.0978875,1,3.892e-05,-7.17074e-07,2.32811e-05,0.007784,-0.000143415,0.00465623,0,0,0,0,0.0255184,0.51677,-0.985081,33.0625,3,37677,3820736
109,3,-0.678388,-0.0804933,9.78876,0.0875015,-0.642864,0.977042,-0.00678398,-0.000812869,0.0978875,1,3.892e-05,-7.17074e-07,2.32811e-05,0.007784,-0.000143415,0.00465623,0,0,0,0,0.0255184,0.51677,-0.985081,33.0625,3,37677,3820736
109,4,-0.680468,-0.0678343,9.78821,0.0766777,-0.631614,0.976952,-0.006805,-0.000688597,0.097882,1,5.19101e-05,-1.67261e-06,6.70145e-06,0.010382,-0.000334521,0.00134029,0,0,0,0,0.0251028,0.515763,-0.983081,33.0625,3,37678,3820836
110,1,-0.680468,-0.0678343,9.78821,0.0766777,-0.631614,0.976952,-0.006805,-0.000688597,0.097882,1,5.19101e-05,-1.67261e-06,6.70145e-06,0.010382,-0.000334521,0.00134029,0,0,0,0,0.0251028,0.515763,-0.983081,33.0625,3,37678,3820836
110,2,-0.677103,-0.067328,9.7909,0.0869022,-0.628882,0.976836,-0.00677169,-0.000679517,0.0979089,1,3.06778e-05,-3.48654e-06,1.69128e-05,0.00613556,-0.000697309,0.00338257,0,0,0,0,0.0265381,0.516239,-0.983077,33.0625,3,37679,3820936
110,3,-0.677103,-0.067328,9.7909,0.0869022,-0.628882,0.976836,-0.00677169,-0.000679517,0.0979089,1,3.06778e-05,-3.48654e-06,1.69128e-05,0.00613556,-0.000697309,0.00338257,0,0,0,0,0.0265381,0.516239,-0.983077,33.0625,3,37679,3820936
110,4,-0.679399,-0.0764235,9.79152,0.0863288,-0.640063,0.977486,-0.00679478,-0.000773363,0.0979151,1,4.51598e-05,-4.20217e-06,2.08672e-05,0.00903197,-0.000840434,0.00417344,0,0,0,0,0.0269167,0.517273,-0.986591,33.0625,3,37680,3821036
111,1,-0.679399,-0.0764235,9.79152,0.0863288,-0.640063,0.977486,-0.00679478,-0.000773363,0.0979151,1,4.51598e-05,-4.20217e-06,2.08672e-05,0.00903197,-0.000840434,0.00417344,0,0,0,0,0.0269167,0.517273,-0.986591,33.0625,3,37680,3821036
111,2,-0.679769,-0.0734136,9.7868,0.0816489,-0.640894,0.971568,-0.00679968,-0.000742233,0.0978678,1,4.04398e-05,-1.02578e-05,1.32994e-05,0.00808796,-0.00205156,0.00265988,0,0,0,0,0.0263578,0.518298,-0.989091,33.0625,3,37681,3821136
111,3,-0.679769,-0.0734136,9.7868,0.0816489,-0.640894,0.971568,-0.00679968,-0.000742233,0.0978678,1,4.04398e-05,-1.02578e-05,1.32994e-05,0.00808796,-0.00205156,0.00265988,0,0,0,0,0.0263578,0.518298,-0.989091,33.0625,3,37681,3821136
111,4,-0.666943,-0.0705357,9.78165,0.0967287,-0.634198,0.965763,-0.00667094,-0.000713673,0.0978163,1,4.23118e-05,-7.71519e-06,2.92266e-06,0.00846236,-0.00154304,0.000584533,0,0,0,0,0.0269366,0.515331,-0.987139,33.0625,3,37682,3821236
112,1,-0.666943,-0.0705357,9.78165,0.0967287,-0.634198,0.965763,-0.00667094,-0.000713673,0.0978163,1,4.23118e-05,-7.71519e-06,2.92266e-06,0.00846236,-0.00154304,0.000584533,0,0,0,0,0.0269366,0.515331,-0.987139,33.0625,3,37682,3821236
112,2,-0.675035,-0.0745491,9.78506,0.0819459,-0.642902,0.969008,-0.00675247,-0.00075536,0.0978504,1,4.92929e-05,-1.0958e-05,1.64643e-05,0.00985858,-0.00219159,0.00329286,0,0,0,0,0.0260399,0.514327,-0.985137,33.0625,3,37683,3821336
112,3,-0.675035,-0.0745491,9.78506,0.0819459,-0.642902,0.969008,-0.00675247,-0.00075536,0.0978504,1,4.92929e-05,-1.0958e-05,1.64643e-05,0.00985858,-0.00219159,0.00329286,0,0,0,0,0.0260399,0.514327,-0.985137,33.0625,3,37683,3821336
112,4,-0.66779,-0.0842364,9.79205,0.0940297,-0.650359,0.980383,-0.00667772,-0.0008512,0.0979205,1,4.33923e-05,6.74337e-07,2.5315e-05,0.00867845,0.000134867,0.00506301,0,0,0,0,0.0265295,0.515281,-0.984108,33.0625,3,37684,3821436
113,1,-0.66779,-0.0842364,9.79205,0.0940297,-0.650359,0.980383,-0.00667772,-0.0008512,0.0979205,1,4.33923e-05,6.74337e-07,2.5315e-05,0.00867845,0.000134867,0.00506301,0,0,0,0,0.0265295,0.515281,-0.984108,33.0625,3,37684,3821436
113,2,-0.66382,-0.0800418,9.78494,0.0971521,-0.648572,0.970035,-0.00663784,-0.000808341,0.0978493,1,3.83798e-05,1.59437e-06,3.1054e-05,0.00767596,0.000318874,0.00621081,0,0,0,0,0.0264887,0.516275,-0.985096,33.0625,3,37685,3821536
113,3,-0.66382,-0.0800418,9.78494,0.0971521,-0.648572,0.970035,-0.00663784,-0.000808341,0.0978493,1,3.83798e-05,1.59437e-06,3.1054e-05,0.00767596,0.000318874,0.00621081,0,0,0,0,0.0264887,0.516275,-0.985096,33.0625,3,37685,3821536
113,4,-0.669302,-0.082568,9.79853,0.0925608,-0.65022,0.985451,-0.00669611,-0.000834989,0.0979851,1,4.61024e-05,-1.59255e-05,2.05356e-05,0.00922048,-0.0031851,0.00410711,0,0,0,0,0.0264437,0.516789,-0.9866,33.0625,3,37686,3821636
114,1,-0.669302,-0.082568,9.79853,0.0925608,-0.65022,0.985451,-0.00669611,-0.000834989,0.0979851,1,4.61024e-05,-1.59255e-05,2.05356e-05,0.00922048,-0.0031851,0.00410711,0,0,0,0,0.0264437,0.516789,-0.9866,33.0625,3,37686,3821636
114,2,-0.672023,-0.0666635,9.78646,0.0940074,-0.635786,0.971822,-0.00672153,-0.000678682,0.0978645,1,6.00255e-05,-6.78976e-06,2.21805e-05,0.0120051,-0.00135795,0.00443609,0,0,0,0,0.0269286,0.515819,-0.987128,33.0625,3,37687,3821736
114,3,-0.672023,-0.0666635,9.78646,0.0940074,-0.635786,0.971822,-0.00672153,-0.000678682,0.0978645,1,6.00255e-05,-6.78976e-06,2.21805e-05,0.0120051,-0.00135795,0.00443609,0,0,0,0,0.0269286,0.515819,-0.987128,33.0625,3,37687,3821736
114,4,-0.671332,-0.0668837,9.79155,0.0926931,-0.636648,0.97519,-0.00671443,-0.000676692,0.0979153,1,3.87094e-05,-5.79116e-06,2.04501e-05,0.00774188,-0.00115823,0.00409002,0,0,0,0,0.0255384,0.514828,-0.985629,33.0625,3,37688,3821836
115,1,-0.671332,-0.0668837,9.79155,0.0926931,-0.636648,0.97519,-0.00671443,-0.000676692,0.0979153,1,3.87094e-05,-5.79116e-06,2.04501e-05,0.00774188,-0.00115823,0.00409002,0,0,0,0,0.0255384,0.514828,-0.985629,33.0625,3,37688,3821836
115,2,-0.66675,-0.0846906,9.78221,0.0906403,-0.649379,0.966288,-0.00667084,-0.000851502,0.0978218,1,2.24094e-05,-1.72033e-05,1.58513e-05,0.00448189,-0.00344065,0.00317025,0,0,0,0,0.0236713,0.51432,-0.983611,33.0625,3,37689,3821936
115,3,-0.66675,-0.0846906,9.78221,0.0906403,-0.649379,0.966288,-0.00667084,-0.000851502,0.0978218,1,2.24094e-05,-1.72033e-05,1.58513e-05,0.00448189,-0.00344065,0.00317025,0,0,0,0,0.0236713,0.51432,-0.983611,33.0625,3,37689,3821936
115,4,-0.662462,-0.0711213,9.7884,0.099579,-0.638875,0.975511,-0.00662506,-0.000719985,0.0978839,1,4.33009e-05,-2.3728e-06,2.23424e-05,0.00866019,-0.000474561,0.00446848,0,0,0,0,0.0246872,0.514755,-0.981081,33.0625,3,37690,3822036
116,1,-0.662462,-0.0711213,9.7884,0.099579,-0.638875,0.975511,-0.00662506,-0.000719985,0.0978839,1,4.33009e-05,-2.3728e-06,2.23424e-05,0.00866019,-0.000474561,0.00446848,0,0,0,0,0.0246872,0.514755,-0.981081,33.0625,3,37690,3822036
116,2,-0.659055,-0.0738504,9.78293,0.104716,-0.64152,0.966131,-0.00659178,-0.000746324,0.0978292,1,3.75044e-05,-6.60093e-06,3.65675e-05,0.00750088,-0.00132019,0.0073135,0,0,0,0,0.0260204,0.517715,-0.983547,33.0625,3,37691,3822136
116,3,-0.659055,-0.0738504,9.78293,0.104716,-0.64152,0.966131,-0.00659178,-0.000746324,0.0978292,1,3.75044e-05,-6.60093e-06,3.65675e-05,0.00750088,-0.00132019,0.0073135,0,0,0,0,0.0260204,0.517715,-0.983547,33.0625,3,37691,3822136
116,4,-0.677996,-0.0739772,9.79018,0.0815569,-0.643035,0.974354,-0.00678143,-0.000750275,0.0979016,1,5.19437e-05,-7.72784e-06,2.44954e-05,0.0103887,-0.00154557,0.00489909,0,0,0,0,0.0283805,0.516764,-0.986104,33.0625,3,37692,3822236
117,1,-0.677996,-0.0739772,9.79018,0.0815569,-0.643035,0.974354,-0.00678143,-0.000750275,0.0979016,1,5.19437e-05,-7.72784e-06,2.44954e-05,0.0103887,-0.00154557,0.00489909,0,0,0,0,0.0283805,0.516764,-0.986104,33.0625,3,37692,3822236
117,2,-0.666601,-0.071556,9.79316,0.100112,-0.641855,0.978193,-0.00666498,-0.000725874,0.0979316,1,5.0867e-05,5.09026e-06,2.63771e-05,0.0101734,0.00101805,0.00527541,0,0,0,0,0.0269286,0.515819,-0.987128,33.0625,3,37693,3822336
117,3,-0.666601,-0.071556,9.79316,0.100112,-0.641855,0.978193,-0.00666498,-0.000725874,0.0979316,1,5.0867e-05,5.09026e-06,2.63771e-05,0.0101734,0.00101805,0.00527541,0,0,0,0,0.0269286,0.515819,-0.987128,33.0625,3,37693,3822336
117,4,-0.677203,-0.0767015,9.7905,0.0831947,-0.648684,0.976002,-0.00677508,-0.000776996,0.0979047,1,5.03994e-05,-1.56707e-05,8.25692e-06,0.0100799,-0.00313413,0.00165138,0,0,0,0,0.0250653,0.514344,-0.985637,33.0625,3,37694,3822436
118,1,-0.677203,-0.0767015,9.7905,0.0831947,-0.648684,0.976002,-0.00677508,-0.000776996,0.0979047,1,5.03994e-05,-1.56707e-05,8.25692e-06,0.0100799,-0.00313413,0.00165138,0,0,0,0,0.0250653,0.514344,-0.985637,33.0625,3,37694,3822436
118,2,-0.666849,-0.0858496,9.77982,0.0915479,-0.663913,0.966989,-0.00666875,-0.000866851,0.0977981,1,4.18369e-05,-1.45299e-06,1.28746e-05,0.00836737,-0.000290597,0.00257493,0,0,0,0,0.0251189,0.514787,-0.983103,33.0625,3,37695,3822536
118,3,-0.666849,-0.0858496,9.77982,0.0915479,-0.663913,0.966989,-0.00666875,-0.000866851,0.0977981,1,4.18369e-05,-1.45299e-06,1.28746e-05,0.00836737,-0.000290597,0.00257493,0,0,0,0,0.0251189,0.514787,-0.983103,33.0625,3,37695,3822536
118,4,-0.679148,-0.0699373,9.78343,0.0824464,-0.643152,0.971957,-0.00679302,-0.000706823,0.0978342,1,3.76645e-05,-7.91437e-06,5.88046e-06,0.00753291,-0.00158287,0.00117609,0,0,0,0,0.0265627,0.51622,-0.982067,33.0625,3,37696,3822636
118,5,-0.679148,-0.0699373,9.78343,0.0824464,-0.643152,0.971957,-0.00679302,-0.000706823,0.0978342,1,3.76645e-05,-7.91437e-06,5.88046e-06,0.00753291,-0.00158287,0.00117609,0,0,0,0,0.0265627,0.51622,-0.982067,33.0625,3,37696,3822636
118,6,-0.66807,-0.0863212,9.79408,0.0964186,-0.655967,0.976761,-0.00668163,-0.000871426,0.0979406,1,4.10862e-05,-4.84668e-06,1.2448e-05,0.00821724,-0.000969336,0.00248961,0,0,0,0,0.0274718,0.517215,-0.983564,33.0625,3,37697,3822736
119,1,-0.66807,-0.0863212,9.79408,0.0964186,-0.655967,0.976761,-0.00668163,-0.000871426,0.0979406,1,4.10862e-05,-4.84668e-06,1.2448e-05,0.00821724,-0.000969336,0.00248961,0,0,0,0,0.0274718,0.517215,-0.983564,33.0625,3,37697,3822736
119,2,-0.679738,-0.0703421,9.79022,0.076558,-0.644092,0.974229,-0.00680024,-0.000711699,0.097902,1,4.06056e-05,-1.47615e-05,2.40674e-05,0.00812112,-0.00295229,0.00481348,0,0,0,0,0.026958,0.517725,-0.984561,33.0625,3,37698,3822836
119,3,-0.679738,-0.0703421,9.79022,0.076558,-0.644092,0.974229,-0.00680024,-0.000711699,0.097902,1,4.06056e-05,-1.47615e-05,2.40674e-05,0.00812112,-0.00295229,0.00481348,0,0,0,0,0.026958,0.517725,-0.984561,33.0625,3,37698,3822836
119,4,-0.67248,-0.0795641,9.79349,0.0897141,-0.651592,0.97771,-0.00672742,-0.000803361,0.0979346,1,3.86424e-05,-1.34296e-05,1.12448e-05,0.00772849,-0.00268593,0.00224896,0,0,0,0,0.027414,0.516294,-0.986615,33.0625,3,37699,3822936
120,1,-0.67248,-0.0795641,9.79349,0.0897141,-0.651592,0.97771,-0.00672742,-0.000803361,0.0979346,1,3.86424e-05,-1.34296e-05,1.12448e-05,0.00772849,-0.00268593,0.00224896,0,0,0,0,0.027414,0.516294,-0.986615,33.0625,3,37699,3822936
120,2,-0.680945,-0.0752999,9.79121,0.0763363,-0.647762,0.975138,-0.00681325,-0.000765443,0.0979118,1,6.21862e-05,-1.95267e-05,1.95594e-05,0.0124372,-0.00390534,0.00391188,0,0,0,0,0.0274624,0.513367,-0.98668,33.0625,3,37700,3823036
120,3,-0.680945,-0.0752999,9.79121,0.0763363,-0.647762,0.975138,-0.00681325,-0.000765443,0.0979118,1,6.21862e-05,-1.95267e-05,1.95594e-05,0.0124372,-0.00390534,0.00391188,0,0,0,0,0.0274624,0.513367,-0.98668,33.0625,3,37700,3823036
120,4,-0.671821,-0.0790043,9.79214,0.0909843,-0.648804,0.977546,-0.00671897,-0.000795179,0.0979213,1,2.49372e-05,-4.02501e-06,1.87977e-05,0.00498744,-0.000805001,0.00375953,0,0,0,0,0.0269979,0.513841,-0.985658,33.0625,3,37701,3823136
120,5,-0.671821,-0.0790043,9.79214,0.0909843,-0.648804,0.977546,-0.00671897,-0.000795179,0.0979213,1,2.49372e-05,-4.02501e-06,1.87977e-05,0.00498744,-0.000805001,0.00375953,0,0,0,0,0.0269979,0.513841,-0.985658,33.0625,3,37701,3823136
120,6,-0.677945,-0.0770685,9.77998,0.0800959,-0.648707,0.966122,-0.00678259,-0.000778739,0.0977995,1,3.95144e-05,-1.62254e-05,2.39869e-05,0.00790287,-0.00324507,0.00479738,0,0,0,0,0.0275041,0.515264,-0.983608,33.0625,3,37702,3823236
121,1,-0.677945,-0.0770685,9.77998,0.0800959,-0.648707,0.966122,-0.00678259,-0.000778739,0.0977995,1,3.95144e-05,-1.62254e-05,2.39869e-05,0.00790287,-0.00324507,0.00479738,0,0,0,0,0.0275041,0.515264,-0.983608,33.0625,3,37702,3823236
121,2,-0.680708,-0.0786035,9.78643,0.0802511,-0.651332,0.965837,-0.00680889,-0.000792677,0.0978641,1,3.38181e-05,-9.29488e-06,1.64836e-06,0.00676362,-0.00185898,0.000329672,0,0,0,0,0.0260119,0.516757,-0.984578,33.0625,3,37703,3823336
121,3,-0.680708,-0.0786035,9.78643,0.0802511,-0.651332,0.965837,-0.00680889,-0.000792677,0.0978641,1,3.38181e-05,-9.29488e-06,1.64836e-06,0.00676362,-0.00185898,0.000329672,0,0,0,0,0.0260119,0.516757,-0.984578,33.0625,3,37703,3823336
121,4,-0.666452,-0.069321,9.78946,0.0921488,-0.641326,0.972875,-0.00666732,-0.000698787,0.0978944,1,2.6416e-05,-1.44878e-05,3.03984e-05,0.0052832,-0.00289755,0.00607967,0,0,0,0,0.0264641,0.516293,-0.986106,33.0625,3,37704,3823436
121,5,-0.666452,-0.069321,9.78946,0.0921488,-0.641326,0.972875,-0.00666732,-0.000698787,0.0978944,1,2.6416e-05,-1.44878e-05,3.03984e-05,0.0052832,-0.00289755,0.00607967,0,0,0,0,0.0264641,0.516293,-0.986106,33.0625,3,37704,3823436
121,6,-0.672994,-0.0720648,9.77829,0.0862334,-0.648277,0.964203,-0.00673286,-0.000730716,0.0977826,1,4.97474e-05,-1.51097e-05,2.51833e-05,0.00994948,-0.00302194,0.00503665,0,0,0,0,0.0264641,0.516293,-0.986106,33.0625,3,37705,3823536
121,7,-0.672994,-0.0720648,9.77829,0.0862334,-0.648277,0.964203,-0.00673286,-0.000730716,0.0977826,1,4.97474e-05,-1.51097e-05,2.51833e-05,0.00994948,-0.00302194,0.00503665,0,0,0,0,0.0264641,0.516293,-0.986106,33.0625,3,37705,3823536
121,8,-0.66476,-0.0795529,9.77647,0.0938195,-0.656623,0.960636,-0.00665084,-0.00080576,0.0977644,1,5.06191e-05,-1.67956e-05,2.50881e-05,0.0101238,-0.00335912,0.00501763,0,0,0,0,0.0250411,0.515808,-0.985605,33.0625,3,37706,3823636
121,9,-0.66476,-0.0795529,9.77647,0.0938195,-0.656623,0.960636,-0.00665084,-0.00080576,0.0977644,1,5.06191e-05,-1.67956e-05,2.50881e-05,0.0101238,-0.00335912,0.00501763,0,0,0,0,0.0250411,0.515808,-0.985605,33.0625,3,37706,3823636
121,10,-0.676234,-0.0749633,9.78949,0.0833542,-0.650751,0.97607,-0.00676601,-0.000758712,0.0978945,1,4.52306e-05,-1.88926e-05,1.64958e-05,0.00904612,-0.00377852,0.00329917,0,0,0,0,0.0250701,0.516269,-0.98408,33.0625,3,37707,3823736
121,11,-0.676234,-0.0749633,9.78949,0.0833542,-0.650751,0.97607,-0.00676601,-0.000758712,0.0978945,1,4.52306e-05,-1.88926e-05,1.64958e-05,0.00904612,-0.00377852,0.00329917,0,0,0,0,0.0250701,0.516269,-0.98408,33.0625,3,37707,3823736
121,12,-0.666557,-0.0706713,9.78877,0.0913342,-0.650538,0.976542,-0.0066665,-0.000717202,0.0978875,1,5.12022e-05,-4.96368e-06,3.48949e-05,0.0102404,-0.000992735,0.00697899,0,0,0,0,0.0265257,0.516248,-0.983582,33.0625,3,37708,3823836
122,1,-0.666557,-0.0706713,9.78877,0.0913342,-0.650538,0.976542,-0.0066665,-0.000717202,0.0978875,1,5.12022e-05,-4.96368e-06,3.48949e-05,0.0102404,-0.000992735,0.00697899,0,0,0,0,0.0265257,0.516248,-0.983582,33.0625,3,37708,3823836
122,2,-0.661629,-0.0844309,9.78489,0.0957103,-0.66528,0.96679,-0.00661935,-0.000854586,0.0978486,1,5.12972e-05,-1.57893e-05,1.79748e-05,0.0102594,-0.00315785,0.00359496,0,0,0,0,0.0279159,0.517238,-0.985081,33.0625,3,37709,3823936
122,3,-0.661629,-0.0844309,9.78489,0.0957103,-0.66528,0.96679,-0.00661935,-0.000854586,0.0978486,1,5.12972e-05,-1.57893e-05,1.79748e-05,0.0102594,-0.00315785,0.00359496,0,0,0,0,0.0279159,0.517238,-0.985081,33.0625,3,37709,3823936
122,4,-0.676934,-0.0791858,9.79522,0.0838436,-0.657215,0.978505,-0.00677035,-0.000800743,0.097952,1,4.37275e-05,-5.36975e-06,2.35475e-05,0.00874551,-0.00107395,0.0047095,0,0,0,0,0.0274182,0.516772,-0.986099,33.0625,3,37710,3824036
122,5,-0.676934,-0.0791858,9.79522,0.0838436,-0.657215,0.978505,-0.00677035,-0.000800743,0.097952,1,4.37275e-05,-5.36975e-06,2.35475e-05,0.00874551,-0.00107395,0.0047095,0,0,0,0,0.0274182,0.516772,-0.986099,33.0625,3,37710,3824036
122,6,-0.673623,-0.0718619,9.79492,0.086079,-0.648042,0.981953,-0.0067366,-0.000728919,0.0979491,1,5.10886e-05,-2.08291e-06,2.167e-05,0.0102177,-0.000416581,0.00433399,0,0,0,0,0.0259502,0.516802,-0.987102,33.0625,3,37711,3824136
123,1,-0.673623,-0.0718619,9.79492,0.086079,-0.648042,0.981953,-0.0067366,-0.000728919,0.0979491,1,5.10886e-05,-2.08291e-06,2.167e-05,0.0102177,-0.000416581,0.00433399,0,0,0,0,0.0259502,0.516802,-0.987102,33.0625,3,37711,3824136
123,2,-0.663737,-0.07706,9.79311,0.0940119,-0.652721,0.976197,-0.00663762,-0.000778327,0.097931,1,3.86406e-05,-1.38938e-06,1.19841e-05,0.00772812,-0.000277875,0.00239683,0,0,0,0,0.0273936,0.51679,-0.987109,33.0625,3,37712,3824236
123,3,-0.663737,-0.07706,9.79311,0.0940119,-0.652721,0.976197,-0.00663762,-0.000778327,0.097931,1,3.86406e-05,-1.38938e-06,1.19841e-05,0.00772812,-0.000277875,0.00239683,0,0,0,0,0.0273936,0.51679,-0.987109,33.0625,3,37712,3824236
123,4,-0.667452,-0.083616,9.78494,0.0899118,-0.664592,0.965577,-0.00667747,-0.000843399,0.0978491,1,3.62228e-05,-1.51434e-05,1.12543e-05,0.00724455,-0.00302868,0.00225086,0,0,0,0,0.0269656,0.515792,-0.985614,33.0625,3,37713,3824336
123,5,-0.667452,-0.083616,9.78494,0.0899118,-0.664592,0.965577,-0.00667747,-0.000843399,0.0978491,1,3.62228e-05,-1.51434e-05,1.12543e-05,0.00724455,-0.00302868,0.00225086,0,0,0,0,0.0269656,0.515792,-0.985614,33.0625,3,37713,3824336
123,6,-0.661685,-0.0715477,9.78568,0.0940838,-0.654954,0.973636,-0.00661888,-0.000722724,0.0978566,1,3.52246e-05,-1.05333e-05,2.67251e-05,0.00704491,-0.00210666,0.00534502,0,0,0,0,0.0269822,0.516262,-0.984594,33.0625,3,37714,3824436
123,7,-0.661685,-0.0715477,9.78568,0.0940838,-0.654954,0.973636,-0.00661888,-0.000722724,0.0978566,1,3.52246e-05,-1.05333e-05,2.67251e-05,0.00704491,-0.00210666,0.00534502,0,0,0,0,0.0269822,0.516262,-0.984594,33.0625,3,37714,3824436
123,8,-0.664468,-0.0765771,9.78667,0.0914679,-0.656813,0.970397,-0.0066448,-0.000775349,0.0978666,1,4.73634e-05,-8.19579e-07,2.31544e-05,0.00947268,-0.000163916,0.00463089,0,0,0,0,0.0264688,0.518217,-0.984548,33.0625,3,37715,3824536
124,1,-0.664468,-0.0765771,9.78667,0.0914679,-0.656813,0.970397,-0.0066448,-0.000775349,0.0978666,1,4.73634e-05,-8.19579e-07,2.31544e-05,0.00947268,-0.000163916,0.00463089,0,0,0,0,0.0264688,0.518217,-0.984548,33.0625,3,37715,3824536
124,2,-0.676633,-0.0765001,9.78676,0.0754616,-0.66081,0.971776,-0.0067683,-0.000771825,0.0978674,1,3.4744e-05,-1.00917e-05,1.7117e-06,0.00694879,-0.00201834,0.000342339,0,0,0,0,0.0269167,0.517273,-0.986591,33.0625,3,37716,3824636
124,3,-0.676633,-0.0765001,9.78676,0.0754616,-0.66081,0.971776,-0.0067683,-0.000771825,0.0978674,1,3.4744e-05,-1.00917e-05,1.7117e-06,0.00694879,-0.00201834,0.000342339,0,0,0,0,0.0269167,0.517273,-0.986591,33.0625,3,37716,3824636
124,4,-0.6777,-0.0774293,9.78709,0.0813837,-0.654877,0.972348,-0.00677768,-0.000782491,0.0978708,1,4.14643e-05,-3.5298e-06,6.07026e-06,0.00829287,-0.000705959,0.00121405,0,0,0,0,0.027377,0.516321,-0.988129,33.0625,3,37717,3824736
124,5,-0.6777,-0.0774293,9.78709,0.0813837,-0.654877,0.972348,-0.00677768,-0.000782491,0.0978708,1,4.14643e-05,-3.5298e-06,6.07026e-06,0.00829287,-0.000705959,0.00121405,0,0,0,0,0.027377,0.516321,-0.988129,33.0625,3,37717,3824736
124,6,-0.66977,-0.0784255,9.79755,0.0863618,-0.658919,0.983521,-0.00669989,-0.000794338,0.0979752,1,4.99225e-05,-1.13773e-05,2.24264e-05,0.0099845,-0.00227546,0.00448528,0,0,0,0,0.0269694,0.514825,-0.986141,33.0625,3,37718,3824836
125,1,-0.66977,-0.0784255,9.79755,0.0863618,-0.658919,0.983521,-0.00669989,-0.000794338,0.0979752,1,4.99225e-05,-1.13773e-05,2.24264e-05,0.0099845,-0.00227546,0.00448528,0,0,0,0,0.0269694,0.514825,-0.986141,33.0625,3,37718,3824836
125,2,-0.668865,-0.0798367,9.7921,0.0909683,-0.663886,0.974813,-0.00668796,-0.000806337,0.097921,1,3.89946e-05,3.32661e-06,2.48587e-05,0.00779892,0.000665322,0.00497174,0,0,0,0,0.0250534,0.515799,-0.9851,33.0625,3,37719,3824936
125,3,-0.668865,-0.0798367,9.7921,0.0909683,-0.663886,0.974813,-0.00668796,-0.000806337,0.097921,1,3.89946e-05,3.32661e-06,2.48587e-05,0.00779892,0.000665322,0.00497174,0,0,0,0,0.0250534,0.515799,-0.9851,33.0625,3,37719,3824936
125,4,-0.670214,-0.07768,9.78907,0.0863243,-0.658956,0.976274,-0.00670307,-0.000787963,0.0978906,1,5.52219e-05,-4.98792e-06,2.62148e-05,0.0110444,-0.000997584,0.00524296,0,0,0,0,0.0269822,0.516262,-0.984594,33.0625,3,37720,3825036
125,5,-0.670214,-0.07768,9.78907,0.0863243,-0.658956,0.976274,-0.00670307,-0.000787963,0.0978906,1,5.52219e-05,-4.98792e-06,2.62148e-05,0.0110444,-0.000997584,0.00524296,0,0,0,0,0.0269822,0.516262,-0.984594,33.0625,3,37720,3825036
125,6,-0.667381,-0.0773235,9.7833,0.0878318,-0.658391,0.968179,-0.00667783,-0.00078228,0.0978327,1,4.46848e-05,-2.07184e-05,2.26218e-05,0.00893696,-0.00414368,0.00452435,0,0,0,0,0.0288696,0.516273,-0.986117,33.0625,3,37721,3825136
125,7,-0.667381,-0.0773235,9.7833,0.0878318,-0.658391,0.968179,-0.00667783,-0.00078228,0.0978327,1,4.46848e-05,-2.07184e-05,2.26218e-05,0.00893696,-0.00414368,0.00452435,0,0,0,0,0.0288696,0.516273,-0.986117,33.0625,3,37721,3825136
125,8,-0.664377,-0.075856,9.79177,0.0949759,-0.654229,0.976014,-0.00664485,-0.000769586,0.0979175,1,5.51772e-05,-5.66799e-06,1.6568e-05,0.0110354,-0.0011336,0.00331359,0,0,0,0,0.0269205,0.516307,-0.987118,33.0625,3,37722,3825236
126,1,-0.664377,-0.075856,9.79177,0.0949759,-0.654229,0.976014,-0.00664485,-0.000769586,0.0979175,1,5.51772e-05,-5.66799e-06,1.6568e-05,0.0110354,-0.0011336,0.00331359,0,0,0,0,0.0269205,0.516307,-0.987118,33.0625,3,37722,3825236
126,2,-0.66975,-0.0792251,9.78533,0.090419,-0.661701,0.972053,-0.00670027,-0.000804227,0.0978531,1,5.94203e-05,-1.43238e-05,2.59035e-05,0.0118841,-0.00286477,0.0051807,0,0,0,0,0.0264185,0.515362,-0.988651,33.0625,3,37723,3825336
126,3,-0.66975,-0.0792251,9.78533,0.090419,-0.661701,0.972053,-0.00670027,-0.000804227,0.0978531,1,5.94203e-05,-1.43238e-05,2.59035e-05,0.0118841,-0.00286477,0.0051807,0,0,0,0,0.0264185,0.515362,-0.988651,33.0625,3,37723,3825336
