frame_id,imu_idx,accel_x,accel_y,accel_z,free_accel_x,free_accel_y,free_accel_z,delta_v_x,delta_v_y,delta_v_z,delta_q_w,delta_q_x,delta_q_y,delta_q_z,rate_x,rate_y,rate_z,quat_w,quat_x,quat_y,quat_z,mag_x,mag_y,mag_z,temperature,status_byte,packet_counter,time_fine
1,1,-0.762391,-0.0374453,9.78467,0.157976,-1.08305,0.903984,-0.00762512,-0.00038317,0.0978466,1,4.36008e-05,-6.19365e-06,1.21238e-05,0.00872016,-0.00123873,0.00242477,0,0,0,0,0.0733914,0.528244,-0.966864,34.75,3,63176,59360846
1,2,-0.548336,-0.0432222,7.33677,0.157976,-1.08305,0.903984,-0.00548469,-0.000438248,0.0733676,1,4.02704e-05,-9.13236e-06,1.06544e-05,0.00805408,-0.00182647,0.00213089,0,0,0,0,0.0702712,0.53133,-0.974357,34.75,1,63177,59362383
1,3,-0.548336,-0.0432222,7.33677,0.157976,-1.08305,0.903984,-0.00548469,-0.000438248,0.0733676,1,4.02704e-05,-9.13236e-06,1.06544e-05,0.00805408,-0.00182647,0.00213089,0,0,0,0,0.0702712,0.53133,-0.974357,34.75,1,63177,59362383
1,4,-0.723223,-0.0492694,9.78023,0.0831197,-0.511832,0.974555,-0.00723517,-0.000502518,0.0978021,1,4.83801e-05,-1.51546e-05,2.49561e-05,0.00967602,-0.00303091,0.00499122,0,0,0,0,0.0718413,0.528816,-0.970885,34.75,1,63178,59362483
2,1,-0.723223,-0.0492694,9.78023,0.0831197,-0.511832,0.974555,-0.00723517,-0.000502518,0.0978021,1,4.83801e-05,-1.51546e-05,2.49561e-05,0.00967602,-0.00303091,0.00499122,0,0,0,0,0.0718413,0.528816,-0.970885,34.75,1,63178,59362483
2,2,-0.711172,-0.0536882,9.78148,0.0955972,-0.515936,0.971129,-0.00711511,-0.000547306,0.0978145,1,5.21188e-05,-1.74322e-05,1.60111e-05,0.0104238,-0.00348644,0.00320223,0,0,0,0,0.0723713,0.527331,-0.96991,34.75,1,63179,59362583
2,3,-0.711172,-0.0536882,9.78148,0.0955972,-0.515936,0.971129,-0.00711511,-0.000547306,0.0978145,1,5.21188e-05,-1.74322e-05,1.60111e-05,0.0104238,-0.00348644,0.00320223,0,0,0,0,0.0723713,0.527331,-0.96991,34.75,1,63179,59362583
2,4,-0.708698,-0.0747892,9.78263,0.0959894,-0.535513,0.969832,-0.00708924,-0.000757918,0.0978261,1,4.94365e-05,-1.17494e-05,2.49093e-05,0.00988729,-0.00234987,0.00498186,0,0,0,0,0.0733007,0.527828,-0.970914,34.75,1,63180,59362683
2,5,-0.708698,-0.0747892,9.78263,0.0959894,-0.535513,0.969832,-0.00708924,-0.000757918,0.0978261,1,4.94365e-05,-1.17494e-05,2.49093e-05,0.00988729,-0.00234987,0.00498186,0,0,0,0,0.0733007,0.527828,-0.970914,34.75,1,63180,59362683
2,6,-0.714913,-0.0846284,9.78803,0.0905362,-0.54608,0.982238,-0.00715411,-0.000856802,0.0978799,1,5.17609e-05,-2.56603e-05,2.69336e-05,0.0103522,-0.00513205,0.00538673,0,0,0,0,0.0732803,0.528325,-0.971408,34.75,1,63181,59362783
3,1,-0.714913,-0.0846284,9.78803,0.0905362,-0.54608,0.982238,-0.00715411,-0.000856802,0.0978799,1,5.17609e-05,-2.56603e-05,2.69336e-05,0.0103522,-0.00513205,0.00538673,0,0,0,0,0.0732803,0.528325,-0.971408,34.75,1,63181,59362783
3,2,-0.712648,-0.0573464,9.78145,0.0901388,-0.522594,0.972262,-0.00712722,-0.000585782,0.0978144,1,6.15753e-05,-3.87619e-06,1.90195e-05,0.0123151,-0.000775237,0.0038039,0,0,0,0,0.0747114,0.528322,-0.971919,34.75,1,63182,59362883
3,3,-0.712648,-0.0573464,9.78145,0.0901388,-0.522594,0.972262,-0.00712722,-0.000585782,0.0978144,1,6.15753e-05,-3.87619e-06,1.90195e-05,0.0123151,-0.000775237,0.0038039,0,0,0,0,0.0747114,0.528322,-0.971919,34.75,1,63182,59362883
3,4,-0.715007,-0.0511867,9.78356,0.0889209,-0.514987,0.975672,-0.00715185,-0.000524383,0.0978354,1,6.30971e-05,-9.16798e-06,1.18557e-05,0.0126194,-0.0018336,0.00237114,0,0,0,0,0.0732761,0.527846,-0.971923,34.75,1,63183,59362983
4,1,-0.715007,-0.0511867,9.78356,0.0889209,-0.514987,0.975672,-0.00715185,-0.000524383,0.0978354,1,6.30971e-05,-9.16798e-06,1.18557e-05,0.0126194,-0.0018336,0.00237114,0,0,0,0,0.0732761,0.527846,-0.971923,34.75,1,63183,59362983
4,2,-0.729559,-0.0532729,9.78873,0.0704157,-0.521669,0.978054,-0.00729673,-0.000543035,0.0978871,1,5.18058e-05,-5.92887e-06,1.11904e-05,0.0103612,-0.00118577,0.00223808,0,0,0,0,0.0709849,0.525373,-0.968937,34.75,1,63184,59363083
4,3,-0.729559,-0.0532729,9.78873,0.0704157,-0.521669,0.978054,-0.00729673,-0.000543035,0.0978871,1,5.18058e-05,-5.92887e-06,1.11904e-05,0.0103612,-0.00118577,0.00223808,0,0,0,0,0.0709849,0.525373,-0.968937,34.75,1,63184,59363083
4,4,-0.731607,-0.0602237,9.77613,0.0658979,-0.527689,0.967781,-0.00731891,-0.000612544,0.097761,1,5.23441e-05,-1.4547e-05,4.90439e-06,0.0104688,-0.0029094,0.000980879,0,0,0,0,0.0719514,0.525844,-0.968426,34.75,1,63185,59363183
7,1,-0.731607,-0.0602237,9.77613,0.0658979,-0.527689,0.967781,-0.00731891,-0.000612544,0.097761,1,5.23441e-05,-1.4547e-05,4.90439e-06,0.0104688,-0.0029094,0.000980879,0,0,0,0,0.0719514,0.525844,-0.968426,34.75,1,63185,59363183
7,2,-0.719856,-0.0786004,9.78438,0.0825609,-0.547114,0.975375,-0.00720091,-0.000798863,0.0978435,1,6.45518e-05,-1.21595e-05,1.57784e-05,0.0129104,-0.00243191,0.00315568,0,0,0,0,0.0738312,0.527788,-0.968897,34.75,1,63186,59363283
7,3,-0.719856,-0.0786004,9.78438,0.0825609,-0.547114,0.975375,-0.00720091,-0.000798863,0.0978435,1,6.45518e-05,-1.21595e-05,1.57784e-05,0.0129104,-0.00243191,0.00315568,0,0,0,0,0.0738312,0.527788,-0.968897,34.75,1,63186,59363283
7,4,-0.745542,-0.0733601,9.77373,0.0552288,-0.54258,0.963024,-0.00745703,-0.000744196,0.0977371,1,5.29773e-05,-8.35964e-06,1.60933e-05,0.0105955,-0.00167193,0.00321867,0,0,0,0,0.0752091,0.528788,-0.970901,34.75,1,63187,59363383
8,1,-0.745542,-0.0733601,9.77373,0.0552288,-0.54258,0.963024,-0.00745703,-0.000744196,0.0977371,1,5.29773e-05,-8.35964e-06,1.60933e-05,0.0105955,-0.00167193,0.00321867,0,0,0,0,0.0752091,0.528788,-0.970901,34.75,1,63187,59363383
8,2,-0.735652,-0.0620341,9.77411,0.0638003,-0.531048,0.962311,-0.00735942,-0.000628839,0.0977409,1,4.25819e-05,-1.48899e-05,1.18166e-05,0.00851639,-0.00297799,0.00236331,0,0,0,0,0.0756489,0.528332,-0.972934,34.75,1,63188,59363483
8,3,-0.735652,-0.0620341,9.77411,0.0638003,-0.531048,0.962311,-0.00735942,-0.000628839,0.0977409,1,4.25819e-05,-1.48899e-05,1.18166e-05,0.00851639,-0.00297799,0.00236331,0,0,0,0,0.0756489,0.528332,-0.972934,34.75,1,63188,59363483
8,4,-0.732695,-0.0519757,9.78367,0.0705996,-0.527235,0.972594,-0.00732866,-0.000532703,0.0978365,1,6.45947e-05,-8.87511e-06,2.09548e-05,0.0129189,-0.00177502,0.00419095,0,0,0,0,0.0732021,0.527901,-0.974952,34.75,1,63189,59363583
9,1,-0.732695,-0.0519757,9.78367,0.0705996,-0.527235,0.972594,-0.00732866,-0.000532703,0.0978365,1,6.45947e-05,-8.87511e-06,2.09548e-05,0.0129189,-0.00177502,0.00419095,0,0,0,0,0.0732021,0.527901,-0.974952,34.75,1,63189,59363583
9,2,-0.733028,-0.0596026,9.78292,0.0684996,-0.534885,0.97509,-0.00733211,-0.000607459,0.097829,1,5.6941e-05,-9.48638e-06,1.99101e-05,0.0113882,-0.00189728,0.00398202,0,0,0,0,0.0727988,0.526884,-0.972448,34.75,1,63190,59363683
9,3,-0.733028,-0.0596026,9.78292,0.0684996,-0.534885,0.97509,-0.00733211,-0.000607459,0.097829,1,5.6941e-05,-9.48638e-06,1.99101e-05,0.0113882,-0.00189728,0.00398202,0,0,0,0,0.0727988,0.526884,-0.972448,34.75,1,63190,59363683
9,4,-0.720874,-0.0535585,9.77882,0.0786604,-0.525333,0.972564,-0.00720987,-0.000543864,0.0977881,1,4.12352e-05,-5.8507e-06,1.48211e-05,0.00824704,-0.00117014,0.00296422,0,0,0,0,0.0723959,0.527313,-0.968901,34.75,1,63191,59363783
10,1,-0.720874,-0.0535585,9.77882,0.0786604,-0.525333,0.972564,-0.00720987,-0.000543864,0.0977881,1,4.12352e-05,-5.8507e-06,1.48211e-05,0.00824704,-0.00117014,0.00296422,0,0,0,0,0.0723959,0.527313,-0.968901,34.75,1,63191,59363783
10,2,-0.728178,-0.0579765,9.78088,0.0728569,-0.53444,0.969904,-0.0072848,-0.000589214,0.0978085,1,4.74304e-05,-1.5501e-05,1.17141e-05,0.00948608,-0.00310019,0.00234281,0,0,0,0,0.0733667,0.528262,-0.967874,34.75,1,63192,59363883
10,3,-0.728178,-0.0579765,9.78088,0.0728569,-0.53444,0.969904,-0.0072848,-0.000589214,0.0978085,1,4.74304e-05,-1.5501e-05,1.17141e-05,0.00948608,-0.00310019,0.00234281,0,0,0,0,0.0733667,0.528262,-0.967874,34.75,1,63192,59363883
10,4,-0.725743,-0.0586258,9.78492,0.0734833,-0.536799,0.96818,-0.00726092,-0.000594994,0.0978489,1,4.37107e-05,-1.78815e-05,1.25189e-05,0.00874213,-0.00357629,0.00250378,0,0,0,0,0.0737372,0.529784,-0.971377,34.75,1,63193,59363983
11,1,-0.725743,-0.0586258,9.78492,0.0734833,-0.536799,0.96818,-0.00726092,-0.000594994,0.0978489,1,4.37107e-05,-1.78815e-05,1.25189e-05,0.00874213,-0.00357629,0.00250378,0,0,0,0,0.0737372,0.529784,-0.971377,34.75,1,63193,59363983
11,2,-0.728858,-0.056313,9.78293,0.0720424,-0.532674,0.969917,-0.0072914,-0.000571983,0.0978291,1,4.27738e-05,-1.45773e-05,3.31754e-05,0.00855476,-0.00291546,0.00663508,0,0,0,0,0.0722445,0.529832,-0.97339,34.75,1,63194,59364083
11,3,-0.728858,-0.056313,9.78293,0.0720424,-0.532674,0.969917,-0.0072914,-0.000571983,0.0978291,1,4.27738e-05,-1.45773e-05,3.31754e-05,0.00855476,-0.00291546,0.00663508,0,0,0,0,0.0722445,0.529832,-0.97339,34.75,1,63194,59364083
11,4,-0.730737,-0.0631321,9.78697,0.0680559,-0.545001,0.976272,-0.00731082,-0.000641818,0.0978694,1,5.23013e-05,-1.77641e-05,1.77357e-05,0.0104603,-0.00355281,0.00354715,0,0,0,0,0.0713023,0.527898,-0.973933,34.75,1,63195,59364183
11,5,-0.730737,-0.0631321,9.78697,0.0680559,-0.545001,0.976272,-0.00731082,-0.000641818,0.0978694,1,5.23013e-05,-1.77641e-05,1.77357e-05,0.0104603,-0.00355281,0.00354715,0,0,0,0,0.0713023,0.527898,-0.973933,34.75,1,63195,59364183
11,6,-0.719406,-0.0499136,9.78597,0.0841997,-0.532369,0.976177,-0.00719657,-0.000510064,0.0978595,1,5.47245e-05,-1.28819e-05,1.50633e-05,0.0109449,-0.00257638,0.00301266,0,0,0,0,0.0732633,0.52641,-0.97347,34.75,1,63196,59364283
12,1,-0.719406,-0.0499136,9.78597,0.0841997,-0.532369,0.976177,-0.00719657,-0.000510064,0.0978595,1,5.47245e-05,-1.28819e-05,1.50633e-05,0.0109449,-0.00257638,0.00301266,0,0,0,0,0.0732633,0.52641,-0.97347,34.75,1,63196,59364283
12,2,-0.709824,-0.0476968,9.78254,0.0887784,-0.530071,0.969995,-0.00710353,-0.000482966,0.097825,1,2.90032e-05,-2.71704e-05,2.27934e-05,0.00580063,-0.00543407,0.00455868,0,0,0,0,0.0738431,0.526334,-0.969434,34.75,1,63197,59364383
12,3,-0.709824,-0.0476968,9.78254,0.0887784,-0.530071,0.969995,-0.00710353,-0.000482966,0.097825,1,2.90032e-05,-2.71704e-05,2.27934e-05,0.00580063,-0.00543407,0.00455868,0,0,0,0,0.0738431,0.526334,-0.969434,34.75,1,63197,59364383
12,4,-0.709017,-0.0640877,9.78511,0.084508,-0.547823,0.974314,-0.00709484,-0.000649029,0.0978507,1,4.03859e-05,-2.39946e-05,1.74735e-05,0.00807718,-0.00479892,0.0034947,0,0,0,0,0.0738431,0.526334,-0.969434,34.75,1,63198,59364483
10,1,-0.709017,-0.0640877,9.78511,0.084508,-0.547823,0.974314,-0.00709484,-0.000649029,0.0978507,1,4.03859e-05,-2.39946e-05,1.74735e-05,0.00807718,-0.00479892,0.0034947,0,0,0,0,0.0738431,0.526334,-0.969434,34.75,1,63198,59364483
10,2,-0.711579,-0.0479239,9.78933,0.0839763,-0.532681,0.971669,-0.00711828,-0.000488084,0.0978931,1,4.456e-05,-1.27573e-05,8.52546e-06,0.008912,-0.00255147,0.00170509,0,0,0,0,0.0737657,0.5288,-0.970894,34.75,1,63199,59364583
10,3,-0.711579,-0.0479239,9.78933,0.0839763,-0.532681,0.971669,-0.00711828,-0.000488084,0.0978931,1,4.456e-05,-1.27573e-05,8.52546e-06,0.008912,-0.00255147,0.00170509,0,0,0,0,0.0737657,0.5288,-0.970894,34.75,1,63199,59364583
10,4,-0.71346,-0.0589002,9.79569,0.0856373,-0.54318,0.983215,-0.00713711,-0.000599635,0.0979567,1,5.31692e-05,-1.28876e-05,1.51339e-05,0.0106338,-0.00257753,0.00302678,0,0,0,0,0.0742345,0.528805,-0.971401,34.75,1,63200,59364683
14,1,-0.71346,-0.0589002,9.79569,0.0856373,-0.54318,0.983215,-0.00713711,-0.000599635,0.0979567,1,5.31692e-05,-1.28876e-05,1.51339e-05,0.0106338,-0.00257753,0.00302678,0,0,0,0,0.0742345,0.528805,-0.971401,34.75,1,63200,59364683
14,2,-0.720642,-0.0699286,9.78004,0.0713336,-0.557735,0.969961,-0.00720892,-0.000707423,0.0978002,1,4.01028e-05,-1.29268e-05,2.03512e-05,0.00802055,-0.00258537,0.00407025,0,0,0,0,0.0713189,0.528368,-0.972913,34.75,1,63201,59364783
14,3,-0.720642,-0.0699286,9.78004,0.0713336,-0.557735,0.969961,-0.00720892,-0.000707423,0.0978002,1,4.01028e-05,-1.29268e-05,2.03512e-05,0.00802055,-0.00258537,0.00407025,0,0,0,0,0.0713189,0.528368,-0.972913,34.75,1,63201,59364783
14,4,-0.723386,-0.0566152,9.78798,0.0767125,-0.546925,0.976577,-0.00723645,-0.000574098,0.0978796,1,3.88286e-05,-1.33499e-05,2.37748e-05,0.00776571,-0.00266997,0.00475496,0,0,0,0,0.0708748,0.528345,-0.971396,34.75,1,63202,59364883
14,5,-0.723386,-0.0566152,9.78798,0.0767125,-0.546925,0.976577,-0.00723645,-0.000574098,0.0978796,1,3.88286e-05,-1.33499e-05,2.37748e-05,0.00776571,-0.00266997,0.00475496,0,0,0,0,0.0708748,0.528345,-0.971396,34.75,1,63202,59364883
14,6,-0.721465,-0.0509134,9.78733,0.0739353,-0.537805,0.977542,-0.00721625,-0.000515403,0.0978732,1,3.02065e-05,-8.31849e-06,2.46409e-05,0.00604131,-0.0016637,0.00492819,0,0,0,0,0.0719025,0.527326,-0.969403,34.75,1,63203,59364983
14,7,-0.721465,-0.0509134,9.78733,0.0739353,-0.537805,0.977542,-0.00721625,-0.000515403,0.0978732,1,3.02065e-05,-8.31849e-06,2.46409e-05,0.00604131,-0.0016637,0.00492819,0,0,0,0,0.0719025,0.527326,-0.969403,34.75,1,63203,59364983
14,8,-0.709148,-0.0585314,9.78651,0.088895,-0.550724,0.978096,-0.00709335,-0.00059456,0.0978649,1,4.61061e-05,-9.62063e-06,1.56107e-05,0.00922122,-0.00192413,0.00312214,0,0,0,0,0.0724002,0.527791,-0.968385,34.75,1,63204,59365083
15,1,-0.709148,-0.0585314,9.78651,0.088895,-0.550724,0.978096,-0.00709335,-0.00059456,0.0978649,1,4.61061e-05,-9.62063e-06,1.56107e-05,0.00922122,-0.00192413,0.00312214,0,0,0,0,0.0724002,0.527791,-0.968385,34.75,1,63204,59365083
15,2,-0.713252,-0.053359,9.78658,0.083113,-0.544916,0.971354,-0.00713381,-0.000544377,0.0978657,1,5.30464e-05,-6.72229e-06,2.82802e-05,0.0106093,-0.00134446,0.00565604,0,0,0,0,0.0737904,0.528782,-0.969885,34.75,1,63205,59365183
15,3,-0.713252,-0.053359,9.78658,0.083113,-0.544916,0.971354,-0.00713381,-0.000544377,0.0978657,1,5.30464e-05,-6.72229e-06,2.82802e-05,0.0106093,-0.00134446,0.00565604,0,0,0,0,0.0737904,0.528782,-0.969885,34.75,1,63205,59365183
15,4,-0.707462,-0.0614637,9.77833,0.087241,-0.552863,0.960991,-0.0070766,-0.000625365,0.0977831,1,5.28936e-05,-1.02803e-05,2.71124e-05,0.0105787,-0.00205606,0.00542249,0,0,0,0,0.0738018,0.525882,-0.971464,34.75,1,63206,59365283
15,5,-0.707462,-0.0614637,9.77833,0.087241,-0.552863,0.960991,-0.0070766,-0.000625365,0.0977831,1,5.28936e-05,-1.02803e-05,2.71124e-05,0.0105787,-0.00205606,0.00542249,0,0,0,0,0.0738018,0.525882,-0.971464,34.75,1,63206,59365283
15,6,-0.714127,-0.056108,9.78217,0.0800354,-0.546097,0.970467,-0.00714619,-0.000570068,0.0978213,1,4.36957e-05,-2.5321e-05,3.07988e-05,0.00873914,-0.00506421,0.00615976,0,0,0,0,0.0723295,0.525434,-0.972983,34.75,1,63207,59365383
16,1,-0.714127,-0.056108,9.78217,0.0800354,-0.546097,0.970467,-0.00714619,-0.000570068,0.0978213,1,4.36957e-05,-2.5321e-05,3.07988e-05,0.00873914,-0.00506421,0.00615976,0,0,0,0,0.0723295,0.525434,-0.972983,34.75,1,63207,59365383
16,2,-0.700487,-0.0461826,9.79231,0.0943271,-0.538567,0.983519,-0.00700543,-0.000470604,0.0979231,1,4.33902e-05,-2.94877e-06,1.99826e-05,0.00867804,-0.000589754,0.00399653,0,0,0,0,0.0728272,0.525899,-0.971964,34.75,1,63208,59365483
16,3,-0.700487,-0.0461826,9.79231,0.0943271,-0.538567,0.983519,-0.00700543,-0.000470604,0.0979231,1,4.33902e-05,-2.94877e-06,1.99826e-05,0.00867804,-0.000589754,0.00399653,0,0,0,0,0.0728272,0.525899,-0.971964,34.75,1,63208,59365483
16,4,-0.698871,-0.0612336,9.78947,0.0957742,-0.554019,0.979947,-0.00699091,-0.00062056,0.0978945,1,4.10956e-05,-1.13547e-05,1.27311e-05,0.00821911,-0.00227093,0.00254622,0,0,0,0,0.0723708,0.525885,-0.970953,34.75,1,63209,59365583
17,1,-0.698871,-0.0612336,9.78947,0.0957742,-0.554019,0.979947,-0.00699091,-0.00062056,0.0978945,1,4.10956e-05,-1.13547e-05,1.27311e-05,0.00821911,-0.00227093,0.00254622,0,0,0,0,0.0723708,0.525885,-0.970953,34.75,1,63209,59365583
17,2,-0.711915,-0.0568107,9.78484,0.0801249,-0.546756,0.974201,-0.00712126,-0.00057661,0.0978482,1,4.19653e-05,-1.08964e-05,2.04166e-05,0.00839307,-0.00217929,0.00408331,0,0,0,0,0.0728647,0.527318,-0.969408,34.75,1,63210,59365683
17,3,-0.711915,-0.0568107,9.78484,0.0801249,-0.546756,0.974201,-0.00712126,-0.00057661,0.0978482,1,4.19653e-05,-1.08964e-05,2.04166e-05,0.00839307,-0.00217929,0.00408331,0,0,0,0,0.0728647,0.527318,-0.969408,34.75,1,63210,59365683
17,4,-0.712907,-0.0593859,9.77669,0.0818023,-0.554861,0.963564,-0.00713112,-0.000605346,0.0977667,1,5.73286e-05,-1.06098e-05,1.94905e-05,0.0114657,-0.00212195,0.00389809,0,0,0,0,0.0742677,0.529744,-0.96936,34.75,1,63211,59365783
18,1,-0.712907,-0.0593859,9.77669,0.0818023,-0.554861,0.963564,-0.00713112,-0.000605346,0.0977667,1,5.73286e-05,-1.06098e-05,1.94905e-05,0.0114657,-0.00212195,0.00389809,0,0,0,0,0.0742677,0.529744,-0.96936,34.75,1,63211,59365783
18,2,-0.71132,-0.0624852,9.77902,0.0784218,-0.565404,0.963488,-0.00711454,-0.000635621,0.09779,1,5.39682e-05,-6.9905e-06,1.50245e-05,0.0107936,-0.0013981,0.0030049,0,0,0,0,0.0746833,0.530752,-0.97136,34.75,1,63212,59365883
18,3,-0.71132,-0.0624852,9.77902,0.0784218,-0.565404,0.963488,-0.00711454,-0.000635621,0.09779,1,5.39682e-05,-6.9905e-06,1.50245e-05,0.0107936,-0.0013981,0.0030049,0,0,0,0,0.0746833,0.530752,-0.97136,34.75,1,63212,59365883
18,4,-0.707474,-0.0536172,9.78383,0.0848281,-0.559662,0.97213,-0.00707758,-0.000546755,0.097838,1,5.25472e-05,-1.46269e-05,2.12696e-05,0.0105094,-0.00292538,0.00425392,0,0,0,0,0.0727707,0.529314,-0.971888,34.75,1,63213,59365983
19,1,-0.707474,-0.0536172,9.78383,0.0848281,-0.559662,0.97213,-0.00707758,-0.000546755,0.097838,1,5.25472e-05,-1.46269e-05,2.12696e-05,0.0105094,-0.00292538,0.00425392,0,0,0,0,0.0727707,0.529314,-0.971888,34.75,1,63213,59365983
19,2,-0.707549,-0.0628788,9.78306,0.0844335,-0.571854,0.973778,-0.00707653,-0.000637468,0.0978305,1,4.21906e-05,-5.51714e-06,3.00447e-05,0.00843812,-0.00110343,0.00600894,0,0,0,0,0.0709564,0.526358,-0.96942,34.75,1,63214,59366083
19,3,-0.707549,-0.0628788,9.78306,0.0844335,-0.571854,0.973778,-0.00707653,-0.000637468,0.0978305,1,4.21906e-05,-5.51714e-06,3.00447e-05,0.00843812,-0.00110343,0.00600894,0,0,0,0,0.0709564,0.526358,-0.96942,34.75,1,63214,59366083
19,4,-0.705812,-0.0546918,9.7838,0.0861591,-0.556834,0.967641,-0.00705906,-0.000556554,0.0978379,1,4.73821e-05,-4.96929e-06,2.58496e-05,0.00947642,-0.000993859,0.00516993,0,0,0,0,0.072404,0.526825,-0.968912,34.75,1,63215,59366183
19,5,-0.705812,-0.0546918,9.7838,0.0861591,-0.556834,0.967641,-0.00705906,-0.000556554,0.0978379,1,4.73821e-05,-4.96929e-06,2.58496e-05,0.00947642,-0.000993859,0.00516993,0,0,0,0,0.072404,0.526825,-0.968912,34.75,1,63215,59366183
19,6,-0.710931,-0.0520454,9.7825,0.0828461,-0.553366,0.964398,-0.00711121,-0.000529058,0.0978249,1,4.31817e-05,-9.78808e-06,1.09263e-05,0.00863634,-0.00195762,0.00218525,0,0,0,0,0.0742877,0.527802,-0.969909,34.75,1,63216,59366283
19,7,-0.710931,-0.0520454,9.7825,0.0828461,-0.553366,0.964398,-0.00711121,-0.000529058,0.0978249,1,4.31817e-05,-9.78808e-06,1.09263e-05,0.00863634,-0.00195762,0.00218525,0,0,0,0,0.0742877,0.527802,-0.969909,34.75,1,63216,59366283
19,8,-0.72847,-0.0649188,9.79642,0.0673558,-0.561303,0.974079,-0.00728537,-0.000657588,0.097964,1,4.17661e-05,-3.50345e-06,1.48323e-05,0.00835322,-0.000700689,0.00296645,0,0,0,0,0.0733012,0.529274,-0.969871,34.75,1,63217,59366383
20,1,-0.72847,-0.0649188,9.79642,0.0673558,-0.561303,0.974079,-0.00728537,-0.000657588,0.097964,1,4.17661e-05,-3.50345e-06,1.48323e-05,0.00835322,-0.000700689,0.00296645,0,0,0,0,0.0733012,0.529274,-0.969871,34.75,1,63217,59366383
20,2,-0.72238,-0.0596062,9.78795,0.0611702,-0.55512,0.979003,-0.00722531,-0.000605877,0.0978793,1,4.81905e-05,-7.88251e-06,2.6401e-05,0.00963809,-0.0015765,0.0052802,0,0,0,0,0.0728077,0.529287,-0.970374,34.75,1,63218,59366483
20,3,-0.72238,-0.0596062,9.78795,0.0611702,-0.55512,0.979003,-0.00722531,-0.000605877,0.0978793,1,4.81905e-05,-7.88251e-06,2.6401e-05,0.00963809,-0.0015765,0.0052802,0,0,0,0,0.0728077,0.529287,-0.970374,34.75,1,63218,59366483
20,4,-0.721271,-0.0526988,9.7914,0.0751707,-0.575881,0.973064,-0.00721698,-0.000539085,0.0979136,1,6.09905e-05,-2.18711e-05,1.06394e-05,0.0121981,-0.00437423,0.00212789,0,0,0,0,0.0718246,0.528346,-0.971905,34.75,1,63219,59366583
21,1,-0.721271,-0.0526988,9.7914,0.0751707,-0.575881,0.973064,-0.00721698,-0.000539085,0.0979136,1,6.09905e-05,-2.18711e-05,1.06394e-05,0.0121981,-0.00437423,0.00212789,0,0,0,0,0.0718246,0.528346,-0.971905,34.75,1,63219,59366583
21,2,-0.702067,-0.044633,9.78489,0.0902772,-0.573762,0.972204,-0.00702277,-0.000457161,0.0978487,1,5.47693e-05,-1.07546e-05,8.03141e-06,0.0109539,-0.00215091,0.00160628,0,0,0,0,0.0737653,0.527355,-0.971936,34.75,1,63220,59366683
21,3,-0.702067,-0.044633,9.78489,0.0902772,-0.573762,0.972204,-0.00702277,-0.000457161,0.0978487,1,5.47693e-05,-1.07546e-05,8.03141e-06,0.0109539,-0.00215091,0.00160628,0,0,0,0,0.0737653,0.527355,-0.971936,34.75,1,63220,59366683
21,4,-0.682692,-0.0545487,9.78196,0.113329,-0.581194,0.974041,-0.00682942,-0.000551242,0.0978194,1,2.85953e-05,-1.28873e-05,1.17703e-05,0.00571907,-0.00257747,0.00235406,0,0,0,0,0.0733126,0.526374,-0.971451,34.75,1,63221,59366783
22,1,-0.682692,-0.0545487,9.78196,0.113329,-0.581194,0.974041,-0.00682942,-0.000551242,0.0978194,1,2.85953e-05,-1.28873e-05,1.17703e-05,0.00571907,-0.00257747,0.00235406,0,0,0,0,0.0733126,0.526374,-0.971451,34.75,1,63221,59366783
22,2,-0.684461,-0.0755025,9.79502,0.109464,-0.58066,0.973457,-0.00684695,-0.000763342,0.09795,1,4.09038e-05,-1.21235e-05,2.22084e-05,0.00818076,-0.00242471,0.00444167,0,0,0,0,0.0728766,0.525863,-0.969945,34.75,1,63222,59366883
22,3,-0.684461,-0.0755025,9.79502,0.109464,-0.58066,0.973457,-0.00684695,-0.000763342,0.09795,1,4.09038e-05,-1.21235e-05,2.22084e-05,0.00818076,-0.00242471,0.00444167,0,0,0,0,0.0728766,0.525863,-0.969945,34.75,1,63222,59366883
22,4,-0.70518,-0.0681186,9.78673,0.0864937,-0.566178,0.970717,-0.00705165,-0.000690117,0.0978672,1,4.41408e-05,6.14505e-07,2.05863e-05,0.00882816,0.000122901,0.00411726,0,0,0,0,0.073835,0.526822,-0.969423,34.75,1,63223,59366983
22,5,-0.70518,-0.0681186,9.78673,0.0864937,-0.566178,0.970717,-0.00705165,-0.000690117,0.0978672,1,4.41408e-05,6.14505e-07,2.05863e-05,0.00882816,0.000122901,0.00411726,0,0,0,0,0.073835,0.526822,-0.969423,34.75,1,63223,59366983
22,6,-0.720321,-0.047283,9.77887,0.0756246,-0.551639,0.961861,-0.00720235,-0.000482395,0.0977887,1,4.64618e-05,4.21878e-06,3.32035e-05,0.00929237,0.000843757,0.0066407,0,0,0,0,0.0728196,0.527832,-0.970911,34.75,1,63224,59367083
23,1,-0.720321,-0.047283,9.77887,0.0756246,-0.551639,0.961861,-0.00720235,-0.000482395,0.0977887,1,4.64618e-05,4.21878e-06,3.32035e-05,0.00929237,0.000843757,0.0066407,0,0,0,0,0.0728196,0.527832,-0.970911,34.75,1,63224,59367083
23,2,-0.735458,-0.0488605,9.79355,0.0605586,-0.555734,0.98023,-0.00735477,-0.000497145,0.0979354,1,4.14494e-05,-1.12653e-06,2.86866e-05,0.00828988,-0.000225307,0.00573732,0,0,0,0,0.0723096,0.527376,-0.972434,34.75,1,63225,59367183
23,3,-0.735458,-0.0488605,9.79355,0.0605586,-0.555734,0.98023,-0.00735477,-0.000497145,0.0979354,1,4.14494e-05,-1.12653e-06,2.86866e-05,0.00828988,-0.000225307,0.00573732,0,0,0,0,0.0723096,0.527376,-0.972434,34.75,1,63225,59367183
23,4,-0.751645,-0.0624525,9.781,0.0391819,-0.583641,0.971328,-0.00751972,-0.000635323,0.0978096,1,5.30369e-05,-1.68992e-05,2.80667e-05,0.0106074,-0.00337985,0.00561334,0,0,0,0,0.0718731,0.52542,-0.971971,34.75,1,63226,59367283
23,5,-0.751645,-0.0624525,9.781,0.0391819,-0.583641,0.971328,-0.00751972,-0.000635323,0.0978096,1,5.30369e-05,-1.68992e-05,2.80667e-05,0.0106074,-0.00337985,0.00561334,0,0,0,0,0.0718731,0.52542,-0.971971,34.75,1,63226,59367283
23,6,-0.7415,-0.0485562,9.78003,0.0560834,-0.563495,0.970746,-0.00741843,-0.000493189,0.0978,1,3.75604e-05,-1.76205e-05,1.89226e-05,0.00751207,-0.00352409,0.00378452,0,0,0,0,0.071437,0.524909,-0.970465,34.75,1,63227,59367383
24,1,-0.7415,-0.0485562,9.78003,0.0560834,-0.563495,0.970746,-0.00741843,-0.000493189,0.0978,1,3.75604e-05,-1.76205e-05,1.89226e-05,0.00751207,-0.00352409,0.00378452,0,0,0,0,0.071437,0.524909,-0.970465,34.75,1,63227,59367383
24,2,-0.738478,-0.058553,9.7772,0.0513394,-0.572282,0.967014,-0.00738624,-0.000596661,0.0977719,1,5.59036e-05,-7.51543e-06,1.34688e-05,0.0111807,-0.00150309,0.00269375,0,0,0,0,0.07337,0.52585,-0.969443,34.75,1,63228,59367483
24,3,-0.738478,-0.058553,9.7772,0.0513394,-0.572282,0.967014,-0.00738624,-0.000596661,0.0977719,1,5.59036e-05,-7.51543e-06,1.34688e-05,0.0111807,-0.00150309,0.00269375,0,0,0,0,0.07337,0.52585,-0.969443,34.75,1,63228,59367483
24,4,-0.715905,-0.0693692,9.79154,0.076916,-0.577051,0.981335,-0.00716047,-0.000700459,0.0979153,1,3.34456e-05,-7.35745e-06,1.52384e-05,0.00668912,-0.00147149,0.00304769,0,0,0,0,0.0737695,0.527833,-0.971421,34.75,1,63229,59367583
25,1,-0.715905,-0.0693692,9.79154,0.076916,-0.577051,0.981335,-0.00716047,-0.000700459,0.0979153,1,3.34456e-05,-7.35745e-06,1.52384e-05,0.00668912,-0.00147149,0.00304769,0,0,0,0,0.0737695,0.527833,-0.971421,34.75,1,63229,59367583
25,2,-0.697855,-0.0734872,9.78494,0.0904216,-0.5904,0.97156,-0.0069804,-0.000743265,0.0978492,1,4.1414e-05,-9.60752e-06,2.06792e-05,0.0082828,-0.0019215,0.00413584,0,0,0,0,0.0742464,0.527351,-0.971939,34.75,1,63230,59367683
25,3,-0.697855,-0.0734872,9.78494,0.0904216,-0.5904,0.97156,-0.0069804,-0.000743265,0.0978492,1,4.1414e-05,-9.60752e-06,2.06792e-05,0.0082828,-0.0019215,0.00413584,0,0,0,0,0.0742464,0.527351,-0.971939,34.75,1,63230,59367683
25,4,-0.695515,-0.0572299,9.76982,0.0928439,-0.578214,0.954787,-0.00695921,-0.000579233,0.0976979,1,3.44032e-05,-2.08762e-05,1.52179e-05,0.00688064,-0.00417525,0.00304359,0,0,0,0,0.0722892,0.527872,-0.972928,34.75,1,63231,59367783
26,1,-0.695515,-0.0572299,9.76982,0.0928439,-0.578214,0.954787,-0.00695921,-0.000579233,0.0976979,1,3.44032e-05,-2.08762e-05,1.52179e-05,0.00688064,-0.00417525,0.00304359,0,0,0,0,0.0722892,0.527872,-0.972928,34.75,1,63231,59367783
26,2,-0.688547,-0.0607044,9.78159,0.0979656,-0.579661,0.966361,-0.00688554,-0.000615407,0.0978159,1,4.13283e-05,-4.58517e-07,2.018e-05,0.00826567,-9.17034e-05,0.00403599,0,0,0,0,0.0728277,0.527345,-0.970922,34.75,1,63232,59367883
26,3,-0.688547,-0.0607044,9.78159,0.0979656,-0.579661,0.966361,-0.00688554,-0.000615407,0.0978159,1,4.13283e-05,-4.58517e-07,2.018e-05,0.00826567,-9.17034e-05,0.00403599,0,0,0,0,0.0728277,0.527345,-0.970922,34.75,1,63232,59367883
26,4,-0.695607,-0.0552908,9.77933,0.0932919,-0.574795,0.96137,-0.00695836,-0.000560475,0.0977931,1,3.70145e-05,-1.18275e-05,2.35328e-05,0.00740291,-0.00236551,0.00470655,0,0,0,0,0.073342,0.52828,-0.968884,34.75,1,63233,59367983
27,1,-0.695607,-0.0552908,9.77933,0.0932919,-0.574795,0.96137,-0.00695836,-0.000560475,0.0977931,1,3.70145e-05,-1.18275e-05,2.35328e-05,0.00740291,-0.00236551,0.00470655,0,0,0,0,0.073342,0.52828,-0.968884,34.75,1,63233,59367983
27,2,-0.721777,-0.0542329,9.78086,0.0725651,-0.572307,0.965547,-0.00721961,-0.000550603,0.0978085,1,4.12576e-05,-9.48665e-06,1.4059e-05,0.00825153,-0.00189733,0.00281181,0,0,0,0,0.0733173,0.528298,-0.969893,34.75,1,63234,59368083
27,3,-0.721777,-0.0542329,9.78086,0.0725651,-0.572307,0.965547,-0.00721961,-0.000550603,0.0978085,1,4.12576e-05,-9.48665e-06,1.4059e-05,0.00825153,-0.00189733,0.00281181,0,0,0,0,0.0733173,0.528298,-0.969893,34.75,1,63234,59368083
27,4,-0.754802,-0.0435391,9.7883,0.0378768,-0.564141,0.974529,-0.00755042,-0.000444007,0.0978828,1,4.31239e-05,-1.22918e-05,1.15018e-05,0.00862478,-0.00245835,0.00230036,0,0,0,0,0.0718332,0.529304,-0.970874,34.75,1,63235,59368183
28,1,-0.754802,-0.0435391,9.7883,0.0378768,-0.564141,0.974529,-0.00755042,-0.000444007,0.0978828,1,4.31239e-05,-1.22918e-05,1.15018e-05,0.00862478,-0.00245835,0.00230036,0,0,0,0,0.0718332,0.529304,-0.970874,34.75,1,63235,59368183
28,2,-0.748203,-0.0537771,9.78512,0.0397795,-0.576108,0.970882,-0.00748486,-0.000546793,0.097851,1,4.46347e-05,-1.45734e-05,1.91831e-05,0.00892694,-0.00291469,0.00383661,0,0,0,0,0.072812,0.529765,-0.969858,34.75,1,63236,59368283
28,3,-0.748203,-0.0537771,9.78512,0.0397795,-0.576108,0.970882,-0.00748486,-0.000546793,0.097851,1,4.46347e-05,-1.45734e-05,1.91831e-05,0.00892694,-0.00291469,0.00383661,0,0,0,0,0.072812,0.529765,-0.969858,34.75,1,63236,59368283
28,4,-0.745295,-0.0631465,9.77585,0.0426144,-0.589272,0.958993,-0.00745272,-0.000641767,0.0977585,1,5.22398e-05,1.15687e-06,5.92115e-06,0.010448,0.000231373,0.00118423,0,0,0,0,0.0737491,0.52833,-0.971915,34.75,1,63237,59368383
29,1,-0.745295,-0.0631465,9.77585,0.0426144,-0.589272,0.958993,-0.00745272,-0.000641767,0.0977585,1,5.22398e-05,1.15687e-06,5.92115e-06,0.010448,0.000231373,0.00118423,0,0,0,0,0.0737491,0.52833,-0.971915,34.75,1,63237,59368383
29,2,-0.727123,-0.0650576,9.78725,0.0550248,-0.588486,0.97539,-0.00727252,-0.000662347,0.0978724,1,5.91129e-05,-6.68681e-06,1.37797e-05,0.0118226,-0.00133736,0.00275594,0,0,0,0,0.0727907,0.527372,-0.972437,34.75,1,63238,59368483
29,3,-0.727123,-0.0650576,9.78725,0.0550248,-0.588486,0.97539,-0.00727252,-0.000662347,0.0978724,1,5.91129e-05,-6.68681e-06,1.37797e-05,0.0118226,-0.00133736,0.00275594,0,0,0,0,0.0727907,0.527372,-0.972437,34.75,1,63238,59368483
29,4,-0.716702,-0.0640967,9.77871,0.0748084,-0.59361,0.96371,-0.00716857,-0.000647614,0.0977869,1,3.26242e-05,-8.02781e-06,1.85931e-05,0.00652483,-0.00160556,0.00371862,0,0,0,0,0.0714133,0.527817,-0.96939,34.75,1,63239,59368583
30,1,-0.716702,-0.0640967,9.77871,0.0748084,-0.59361,0.96371,-0.00716857,-0.000647614,0.0977869,1,3.26242e-05,-8.02781e-06,1.85931e-05,0.00652483,-0.00160556,0.00371862,0,0,0,0,0.0714133,0.527817,-0.96939,34.75,1,63239,59368583
30,2,-0.712999,-0.0675605,9.79867,0.074499,-0.595874,0.984464,-0.00713286,-0.000683691,0.0979865,1,4.02107e-05,-1.47578e-05,1.44336e-05,0.00804215,-0.00295157,0.00288672,0,0,0,0,0.073342,0.52828,-0.968884,34.75,1,63240,59368683
30,3,-0.712999,-0.0675605,9.79867,0.074499,-0.595874,0.984464,-0.00713286,-0.000683691,0.0979865,1,4.02107e-05,-1.47578e-05,1.44336e-05,0.00804215,-0.00295157,0.00288672,0,0,0,0,0.073342,0.52828,-0.968884,34.75,1,63240,59368683
30,4,-0.703042,-0.0579544,9.78648,0.0839169,-0.586036,0.970796,-0.00703256,-0.000591918,0.0978645,1,6.10631e-05,-1.11289e-05,3.00222e-05,0.0122126,-0.00222577,0.00600445,0,0,0,0,0.0742592,0.528787,-0.970392,34.75,1,63241,59368783
30,5,-0.703042,-0.0579544,9.78648,0.0839169,-0.586036,0.970796,-0.00703256,-0.000591918,0.0978645,1,6.10631e-05,-1.11289e-05,3.00222e-05,0.0122126,-0.00222577,0.00600445,0,0,0,0,0.0742592,0.528787,-0.970392,34.75,1,63241,59368783
30,6,-0.695847,-0.0583135,9.77691,0.0927826,-0.589455,0.960241,-0.00695656,-0.000593022,0.0977692,1,4.95389e-05,9.65948e-06,1.44115e-05,0.00990778,0.0019319,0.00288229,0,0,0,0,0.0747403,0.528783,-0.970394,34.75,1,63242,59368883
31,1,-0.695847,-0.0583135,9.77691,0.0927826,-0.589455,0.960241,-0.00695656,-0.000593022,0.0977692,1,4.95389e-05,9.65948e-06,1.44115e-05,0.00990778,0.0019319,0.00288229,0,0,0,0,0.0747403,0.528783,-0.970394,34.75,1,63242,59368883
31,2,-0.697818,-0.0536852,9.78781,0.0916635,-0.585143,0.968812,-0.00697755,-0.000545464,0.0978781,1,4.36343e-05,3.18164e-06,5.04991e-06,0.00872685,0.000636328,0.00100998,0,0,0,0,0.0733169,0.526853,-0.970935,34.75,1,63243,59368983
31,3,-0.697818,-0.0536852,9.78781,0.0916635,-0.585143,0.968812,-0.00697755,-0.000545464,0.0978781,1,4.36343e-05,3.18164e-06,5.04991e-06,0.00872685,0.000636328,0.00100998,0,0,0,0,0.0733169,0.526853,-0.970935,34.75,1,63243,59368983
31,4,-0.704973,-0.0472613,9.78588,0.0874444,-0.576614,0.967305,-0.00704977,-0.00048168,0.0978588,1,4.50499e-05,-2.53552e-07,1.77102e-05,0.00900998,-5.07104e-05,0.00354204,0,0,0,0,0.0728761,0.524418,-0.970987,34.75,1,63244,59369083
31,5,-0.704973,-0.0472613,9.78588,0.0874444,-0.576614,0.967305,-0.00704977,-0.00048168,0.0978588,1,4.50499e-05,-2.53552e-07,1.77102e-05,0.00900998,-5.07104e-05,0.00354204,0,0,0,0,0.0728761,0.524418,-0.970987,34.75,1,63244,59369083
31,6,-0.703424,-0.050773,9.78586,0.0855398,-0.579038,0.967793,-0.00703524,-0.000518092,0.0978585,1,5.19213e-05,-5.20027e-06,1.42136e-05,0.0103843,-0.00104005,0.00284272,0,0,0,0,0.0714128,0.526372,-0.970432,34.75,1,63245,59369183
31,7,-0.703424,-0.050773,9.78586,0.0855398,-0.579038,0.967793,-0.00703524,-0.000518092,0.0978585,1,5.19213e-05,-5.20027e-06,1.42136e-05,0.0103843,-0.00104005,0.00284272,0,0,0,0,0.0714128,0.526372,-0.970432,34.75,1,63245,59369183
31,8,-0.720451,-0.046338,9.785,0.0657709,-0.579059,0.969749,-0.00720552,-0.000472094,0.0978498,1,4.32973e-05,-5.27706e-06,1.66964e-05,0.00865947,-0.00105541,0.00333928,0,0,0,0,0.0728154,0.527354,-0.971427,34.75,1,63246,59369283
32,1,-0.720451,-0.046338,9.785,0.0657709,-0.579059,0.969749,-0.00720552,-0.000472094,0.0978498,1,4.32973e-05,-5.27706e-06,1.66964e-05,0.00865947,-0.00105541,0.00333928,0,0,0,0,0.0728154,0.527354,-0.971427,34.75,1,63246,59369283
32,2,-0.729128,-0.0607775,9.79409,0.059216,-0.590873,0.979851,-0.00729342,-0.000618148,0.0979407,1,5.17704e-05,-1.10363e-05,1.59051e-05,0.0103541,-0.00220726,0.00318101,0,0,0,0,0.0727499,0.528365,-0.973424,34.75,1,63247,59369383
32,3,-0.729128,-0.0607775,9.79409,0.059216,-0.590873,0.979851,-0.00729342,-0.000618148,0.0979407,1,5.17704e-05,-1.10363e-05,1.59051e-05,0.0103541,-0.00220726,0.00318101,0,0,0,0,0.0727499,0.528365,-0.973424,34.75,1,63247,59369383
32,4,-0.726278,-0.0675039,9.7991,0.0605486,-0.600931,0.986094,-0.00726561,-0.000687541,0.0979907,1,6.2691e-05,-1.45269e-05,1.48657e-05,0.0125382,-0.00290538,0.00297313,0,0,0,0,0.0727745,0.528347,-0.972415,34.75,1,63248,59369483
32,5,-0.726278,-0.0675039,9.7991,0.0605486,-0.600931,0.986094,-0.00726561,-0.000687541,0.0979907,1,6.2691e-05,-1.45269e-05,1.48657e-05,0.0125382,-0.00290538,0.00297313,0,0,0,0,0.0727745,0.528347,-0.972415,34.75,1,63248,59369483
32,6,-0.727853,-0.06605,9.78114,0.0585703,-0.599948,0.963919,-0.0072801,-0.000671093,0.0978112,1,5.27128e-05,-8.13596e-06,1.92729e-05,0.0105426,-0.00162719,0.00385457,0,0,0,0,0.0727622,0.528356,-0.97292,34.75,1,63249,59369583
33,1,-0.727853,-0.06605,9.78114,0.0585703,-0.599948,0.963919,-0.0072801,-0.000671093,0.0978112,1,5.27128e-05,-8.13596e-06,1.92729e-05,0.0105426,-0.00162719,0.00385457,0,0,0,0,0.0727622,0.528356,-0.97292,34.75,1,63249,59369583
33,2,-0.723298,-0.0624976,9.7859,0.061337,-0.601458,0.971091,-0.00723634,-0.000632155,0.0978587,1,3.54796e-05,-1.73004e-05,1.62291e-05,0.00709593,-0.00346009,0.00324582,0,0,0,0,0.0728358,0.526857,-0.970933,34.75,1,63250,59369683
33,3,-0.723298,-0.0624976,9.7859,0.061337,-0.601458,0.971091,-0.00723634,-0.000632155,0.0978587,1,3.54796e-05,-1.73004e-05,1.62291e-05,0.00709593,-0.00346009,0.00324582,0,0,0,0,0.0728358,0.526857,-0.970933,34.75,1,63250,59369683
33,4,-0.714641,-0.0493174,9.78392,0.0717849,-0.587594,0.968221,-0.0071485,-0.000502646,0.097839,1,4.78849e-05,-1.07122e-05,7.14492e-06,0.00957698,-0.00214245,0.00142898,0,0,0,0,0.0723959,0.527313,-0.968901,34.75,1,63251,59369783
34,1,-0.714641,-0.0493174,9.78392,0.0717849,-0.587594,0.968221,-0.0071485,-0.000502646,0.097839,1,4.78849e-05,-1.07122e-05,7.14492e-06,0.00957698,-0.00214245,0.00142898,0,0,0,0,0.0723959,0.527313,-0.968901,34.75,1,63251,59369783
34,2,-0.726942,-0.0477976,9.78163,0.0594015,-0.580751,0.968158,-0.00727215,-0.000485141,0.0978161,1,3.55802e-05,-1.40575e-05,1.40518e-05,0.00711604,-0.00281149,0.00281036,0,0,0,0,0.0728813,0.527787,-0.968387,34.75,1,63252,59369883
34,3,-0.726942,-0.0477976,9.78163,0.0594015,-0.580751,0.968158,-0.00727215,-0.000485141,0.0978161,1,3.55802e-05,-1.40575e-05,1.40518e-05,0.00711604,-0.00281149,0.00281036,0,0,0,0,0.0728813,0.527787,-0.968387,34.75,1,63252,59369883
34,4,-0.724615,-0.0534918,9.78156,0.0641314,-0.590494,0.965679,-0.00724772,-0.000543285,0.0978155,1,4.07769e-05,-8.16562e-06,2.69248e-05,0.00815538,-0.00163313,0.00538497,0,0,0,0,0.0732969,0.528795,-0.970387,34.75,1,63253,59369983
35,1,-0.724615,-0.0534918,9.78156,0.0641314,-0.590494,0.965679,-0.00724772,-0.000543285,0.0978155,1,4.07769e-05,-8.16562e-06,2.69248e-05,0.00815538,-0.00163313,0.00538497,0,0,0,0,0.0732969,0.528795,-0.970387,34.75,1,63253,59369983
35,2,-0.71974,-0.0670036,9.78176,0.0659757,-0.607234,0.964859,-0.00719676,-0.000680262,0.0978175,1,4.97607e-05,3.02304e-06,3.40973e-05,0.00995215,0.000604609,0.00681946,0,0,0,0,0.0732561,0.529788,-0.971375,34.75,1,63254,59370083
35,3,-0.71974,-0.0670036,9.78176,0.0659757,-0.607234,0.964859,-0.00719676,-0.000680262,0.0978175,1,4.97607e-05,3.02304e-06,3.40973e-05,0.00995215,0.000604609,0.00681946,0,0,0,0,0.0732561,0.529788,-0.971375,34.75,1,63254,59370083
35,4,-0.727862,-0.0556704,9.79039,0.0592604,-0.597755,0.971944,-0.00728087,-0.000564386,0.0979037,1,3.78229e-05,-1.163e-05,1.89638e-05,0.00756458,-0.002326,0.00379276,0,0,0,0,0.0727784,0.527381,-0.972941,34.75,1,63255,59370183
35,5,-0.727862,-0.0556704,9.79039,0.0592604,-0.597755,0.971944,-0.00728087,-0.000564386,0.0979037,1,3.78229e-05,-1.163e-05,1.89638e-05,0.00756458,-0.002326,0.00379276,0,0,0,0,0.0727784,0.527381,-0.972941,34.75,1,63255,59370183
35,6,-0.721832,-0.0541785,9.78595,0.0605684,-0.593139,0.970827,-0.0072187,-0.00055111,0.0978594,1,4.65252e-05,-2.00603e-06,1.52345e-05,0.00930503,-0.000401205,0.00304691,0,0,0,0,0.0723091,0.52593,-0.973477,34.75,1,63256,59370283
36,1,-0.721832,-0.0541785,9.78595,0.0605684,-0.593139,0.970827,-0.0072187,-0.00055111,0.0978594,1,4.65252e-05,-2.00603e-06,1.52345e-05,0.00930503,-0.000401205,0.00304691,0,0,0,0,0.0723091,0.52593,-0.973477,34.75,1,63256,59370283
36,2,-0.726639,-0.0600049,9.77202,0.0592318,-0.602253,0.953561,-0.00726806,-0.000608785,0.09772,1,4.27997e-05,-8.71914e-06,2.55184e-05,0.00855995,-0.00174383,0.00510368,0,0,0,0,0.0723713,0.527331,-0.96991,34.75,1,63257,59370383
36,3,-0.726639,-0.0600049,9.77202,0.0592318,-0.602253,0.953561,-0.00726806,-0.000608785,0.09772,1,4.27997e-05,-8.71914e-06,2.55184e-05,0.00855995,-0.00174383,0.00510368,0,0,0,0,0.0723713,0.527331,-0.96991,34.75,1,63257,59370383
36,4,-0.71767,-0.0565481,9.78319,0.0661012,-0.598799,0.967836,-0.00717958,-0.00057398,0.0978316,1,4.25839e-05,-1.48059e-05,1.16379e-05,0.00851677,-0.00296118,0.00232757,0,0,0,0,0.0728936,0.527778,-0.967883,34.75,1,63258,59370483
37,1,-0.71767,-0.0565481,9.78319,0.0661012,-0.598799,0.967836,-0.00717958,-0.00057398,0.0978316,1,4.25839e-05,-1.48059e-05,1.16379e-05,0.00851677,-0.00296118,0.00232757,0,0,0,0,0.0728936,0.527778,-0.967883,34.75,1,63258,59370483
37,2,-0.72335,-0.0543633,9.78936,0.063546,-0.593261,0.966932,-0.00723701,-0.000555575,0.0978932,1,5.89098e-05,-1.80864e-05,2.82657e-05,0.011782,-0.00361728,0.00565314,0,0,0,0,0.0738027,0.528773,-0.96938,34.75,1,63259,59370583
37,3,-0.72335,-0.0543633,9.78936,0.063546,-0.593261,0.966932,-0.00723701,-0.000555575,0.0978932,1,5.89098e-05,-1.80864e-05,2.82657e-05,0.011782,-0.00361728,0.00565314,0,0,0,0,0.0738027,0.528773,-0.96938,34.75,1,63259,59370583
37,4,-0.719375,-0.04883,9.78971,0.0667772,-0.593304,0.972485,-0.00719612,-0.000496067,0.0978969,1,3.76218e-05,-1.22432e-05,2.78725e-05,0.00752436,-0.00244863,0.0055745,0,0,0,0,0.0751887,0.529285,-0.971395,34.75,1,63260,59370683
38,1,-0.719375,-0.04883,9.78971,0.0667772,-0.593304,0.972485,-0.00719612,-0.000496067,0.0978969,1,3.76218e-05,-1.22432e-05,2.78725e-05,0.00752436,-0.00244863,0.0055745,0,0,0,0,0.0751887,0.529285,-0.971395,34.75,1,63260,59370683
38,2,-0.726362,-0.0631301,9.79608,0.0595767,-0.605032,0.983571,-0.00726486,-0.000642675,0.0979607,1,5.674e-05,-6.41134e-06,1.77152e-05,0.011348,-0.00128227,0.00354305,0,0,0,0,0.0737126,0.529803,-0.972387,34.75,1,63261,59370783
38,3,-0.726362,-0.0631301,9.79608,0.0595767,-0.605032,0.983571,-0.00726486,-0.000642675,0.0979607,1,5.674e-05,-6.41134e-06,1.77152e-05,0.011348,-0.00128227,0.00354305,0,0,0,0,0.0737126,0.529803,-0.972387,34.75,1,63261,59370783
38,4,-0.720823,-0.0553041,9.78187,0.0648184,-0.599921,0.965435,-0.00720937,-0.000559523,0.0978185,1,3.11546e-05,-5.96972e-06,2.67923e-05,0.00623092,-0.00119394,0.00535846,0,0,0,0,0.0732846,0.528804,-0.970892,34.75,1,63262,59370883
39,1,-0.720823,-0.0553041,9.78187,0.0648184,-0.599921,0.965435,-0.00720937,-0.000559523,0.0978185,1,3.11546e-05,-5.96972e-06,2.67923e-05,0.00623092,-0.00119394,0.00535846,0,0,0,0,0.0732846,0.528804,-0.970892,34.75,1,63262,59370883
39,2,-0.722547,-0.070383,9.79159,0.0580714,-0.613053,0.974537,-0.00722783,-0.000711776,0.0979157,1,3.98178e-05,-1.21538e-05,1.0276e-05,0.00796357,-0.00243075,0.0020552,0,0,0,0,0.0737899,0.527337,-0.970927,34.75,1,63263,59370983
39,3,-0.722547,-0.070383,9.79159,0.0580714,-0.613053,0.974537,-0.00722783,-0.000711776,0.0979157,1,3.98178e-05,-1.21538e-05,1.0276e-05,0.00796357,-0.00243075,0.0020552,0,0,0,0,0.0737899,0.527337,-0.970927,34.75,1,63263,59370983
39,4,-0.702887,-0.0648422,9.78709,0.0800447,-0.613247,0.971538,-0.00703232,-0.000660479,0.0978706,1,6.04634e-05,-1.77062e-05,1.58194e-05,0.0120927,-0.00354123,0.00316387,0,0,0,0,0.0738307,0.526343,-0.969939,34.75,1,63264,59371083
40,1,-0.702887,-0.0648422,9.78709,0.0800447,-0.613247,0.971538,-0.00703232,-0.000660479,0.0978706,1,6.04634e-05,-1.77062e-05,1.58194e-05,0.0120927,-0.00354123,0.00316387,0,0,0,0,0.0738307,0.526343,-0.969939,34.75,1,63264,59371083
40,2,-0.706778,-0.0585395,9.78073,0.0785193,-0.608772,0.963161,-0.00706946,-0.000593666,0.0978071,1,4.1578e-05,-8.66915e-06,9.72278e-06,0.00831559,-0.00173383,0.00194456,0,0,0,0,0.0747199,0.52928,-0.970888,34.75,1,63265,59371183
40,3,-0.706778,-0.0585395,9.78073,0.0785193,-0.608772,0.963161,-0.00706946,-0.000593666,0.0978071,1,4.1578e-05,-8.66915e-06,9.72278e-06,0.00831559,-0.00173383,0.00194456,0,0,0,0,0.0747199,0.52928,-0.970888,34.75,1,63265,59371183
40,4,-0.707007,-0.0604967,9.78852,0.080395,-0.607461,0.97158,-0.00707292,-0.000614352,0.0978849,1,4.73838e-05,-1.46014e-05,7.69639e-06,0.00947677,-0.00292027,0.00153928,0,0,0,0,0.0756328,0.529308,-0.972912,34.75,1,63266,59371283
41,1,-0.707007,-0.0604967,9.78852,0.080395,-0.607461,0.97158,-0.00707292,-0.000614352,0.0978849,1,4.73838e-05,-1.46014e-05,7.69639e-06,0.00947677,-0.00292027,0.00153928,0,0,0,0,0.0756328,0.529308,-0.972912,34.75,1,63266,59371283
41,2,-0.697211,-0.0458506,9.79401,0.0815356,-0.593585,0.972661,-0.00697669,-0.000466402,0.0979397,1,3.93837e-05,-2.34302e-05,1.30518e-05,0.00787674,-0.00468604,0.00261035,0,0,0,0,0.073231,0.528361,-0.973427,34.75,1,63267,59371383
41,3,-0.697211,-0.0458506,9.79401,0.0815356,-0.593585,0.972661,-0.00697669,-0.000466402,0.0979397,1,3.93837e-05,-2.34302e-05,1.30518e-05,0.00787674,-0.00468604,0.00261035,0,0,0,0,0.073231,0.528361,-0.973427,34.75,1,63267,59371383
41,4,-0.697213,-0.053164,9.78716,0.0813789,-0.603952,0.972541,-0.00697537,-0.00053726,0.0978713,1,2.76473e-05,-1.66335e-05,1.49457e-05,0.00552946,-0.00332669,0.00298915,0,0,0,0,0.0723466,0.527349,-0.97092,34.75,1,63268,59371483
42,1,-0.697213,-0.053164,9.78716,0.0813789,-0.603952,0.972541,-0.00697537,-0.00053726,0.0978713,1,2.76473e-05,-1.66335e-05,1.49457e-05,0.00552946,-0.00332669,0.00298915,0,0,0,0,0.0723466,0.527349,-0.97092,34.75,1,63268,59371483
42,2,-0.690606,-0.0662154,9.77851,0.0932849,-0.612308,0.960387,-0.00690461,-0.000670706,0.0977851,1,4.3828e-05,7.42474e-06,-1.38768e-06,0.0087656,0.00148495,-0.000277535,0,0,0,0,0.0728524,0.527327,-0.969913,34.75,1,63269,59371583
42,3,-0.690606,-0.0662154,9.77851,0.0932849,-0.612308,0.960387,-0.00690461,-0.000670706,0.0977851,1,4.3828e-05,7.42474e-06,-1.38768e-06,0.0087656,0.00148495,-0.000277535,0,0,0,0,0.0728524,0.527327,-0.969913,34.75,1,63269,59371583
42,4,-0.70715,-0.0501376,9.77809,0.0725368,-0.601337,0.960025,-0.0070747,-0.000511194,0.0977806,1,5.00456e-05,-1.63446e-05,2.19599e-06,0.0100091,-0.00326892,0.000439198,0,0,0,0,0.0737942,0.527815,-0.970411,34.75,1,63270,59371683
43,1,-0.70715,-0.0501376,9.77809,0.0725368,-0.601337,0.960025,-0.0070747,-0.000511194,0.0977806,1,5.00456e-05,-1.63446e-05,2.19599e-06,0.0100091,-0.00326892,0.000439198,0,0,0,0,0.0737942,0.527815,-0.970411,34.75,1,63270,59371683
43,2,-0.71779,-0.0578231,9.78622,0.0652636,-0.608698,0.969753,-0.00717781,-0.000588321,0.0978622,1,5.04702e-05,3.57831e-07,1.47522e-05,0.010094,7.15661e-05,0.00295044,0,0,0,0,0.0733169,0.526853,-0.970935,34.75,1,63271,59371783
43,3,-0.71779,-0.0578231,9.78622,0.0652636,-0.608698,0.969753,-0.00717781,-0.000588321,0.0978622,1,5.04702e-05,3.57831e-07,1.47522e-05,0.010094,7.15661e-05,0.00295044,0,0,0,0,0.0733169,0.526853,-0.970935,34.75,1,63271,59371783
43,4,-0.725878,-0.0549815,9.78427,0.0516451,-0.600871,0.967182,-0.00725959,-0.000557714,0.0978426,1,3.93298e-05,-4.24697e-06,1.39398e-05,0.00786596,-0.000849394,0.00278796,0,0,0,0,0.0728073,0.527841,-0.971416,34.75,1,63272,59371883
44,1,-0.725878,-0.0549815,9.78427,0.0516451,-0.600871,0.967182,-0.00725959,-0.000557714,0.0978426,1,3.93298e-05,-4.24697e-06,1.39398e-05,0.00786596,-0.000849394,0.00278796,0,0,0,0,0.0728073,0.527841,-0.971416,34.75,1,63272,59371883
44,2,-0.720048,-0.0656509,9.78889,0.0600577,-0.615713,0.975643,-0.00720037,-0.000664269,0.0978889,1,3.81973e-05,4.20776e-07,1.95391e-05,0.00763946,8.41551e-05,0.00390781,0,0,0,0,0.0708586,0.529321,-0.971374,34.75,1,63273,59371983
44,3,-0.720048,-0.0656509,9.78889,0.0600577,-0.615713,0.975643,-0.00720037,-0.000664269,0.0978889,1,3.81973e-05,4.20776e-07,1.95391e-05,0.00763946,8.41551e-05,0.00390781,0,0,0,0,0.0708586,0.529321,-0.971374,34.75,1,63273,59371983
44,4,-0.714501,-0.0603817,9.78925,0.0659464,-0.614961,0.976963,-0.00714712,-0.000610566,0.0978923,1,3.39897e-05,-1.07991e-05,6.61411e-06,0.00679794,-0.00215983,0.00132282,0,0,0,0,0.0714337,0.527321,-0.968896,34.75,1,63274,59372083
45,1,-0.714501,-0.0603817,9.78925,0.0659464,-0.614961,0.976963,-0.00714712,-0.000610566,0.0978923,1,3.39897e-05,-1.07991e-05,6.61411e-06,0.00679794,-0.00215983,0.00132282,0,0,0,0,0.0714337,0.527321,-0.968896,34.75,1,63274,59372083
45,2,-0.705864,-0.0509735,9.77163,0.0755332,-0.605185,0.957064,-0.00706202,-0.000521505,0.097716,1,5.88577e-05,-1.7399e-05,1.89433e-05,0.0117715,-0.00347979,0.00378865,0,0,0,0,0.0709977,0.52681,-0.96739,34.75,1,63275,59372183
45,3,-0.705864,-0.0509735,9.77163,0.0755332,-0.605185,0.957064,-0.00706202,-0.000521505,0.097716,1,5.88577e-05,-1.7399e-05,1.89433e-05,0.0117715,-0.00347979,0.00378865,0,0,0,0,0.0709977,0.52681,-0.96739,34.75,1,63275,59372183
45,4,-0.716395,-0.0571289,9.78317,0.0633196,-0.611641,0.96579,-0.00716409,-0.000581289,0.0978317,1,5.01611e-05,-7.6527e-07,1.29453e-05,0.0100322,-0.000153054,0.00258905,0,0,0,0,0.0714626,0.527781,-0.967371,34.75,1,63276,59372283
46,1,-0.716395,-0.0571289,9.78317,0.0633196,-0.611641,0.96579,-0.00716409,-0.000581289,0.0978317,1,5.01611e-05,-7.6527e-07,1.29453e-05,0.0100322,-0.000153054,0.00258905,0,0,0,0,0.0714626,0.527781,-0.967371,34.75,1,63276,59372283
46,2,-0.708648,-0.0446256,9.77984,0.0713181,-0.601172,0.959973,-0.00708757,-0.000453018,0.0977983,1,3.33731e-05,-5.67763e-06,1.64694e-05,0.00667461,-0.00113553,0.00329388,0,0,0,0,0.0727788,0.528826,-0.971899,34.75,1,63277,59372383
46,3,-0.708648,-0.0446256,9.77984,0.0713181,-0.601172,0.959973,-0.00708757,-0.000453018,0.0977983,1,3.33731e-05,-5.67763e-06,1.64694e-05,0.00667461,-0.00113553,0.00329388,0,0,0,0,0.0727788,0.528826,-0.971899,34.75,1,63277,59372383
46,4,-0.711114,-0.056667,9.78925,0.0721385,-0.614742,0.967484,-0.0071145,-0.00057826,0.0978922,1,5.82431e-05,-1.72164e-05,1.31317e-05,0.0116486,-0.00344327,0.00262633,0,0,0,0,0.0742018,0.529311,-0.9724,34.75,1,63278,59372483
47,1,-0.711114,-0.056667,9.78925,0.0721385,-0.614742,0.967484,-0.0071145,-0.00057826,0.0978922,1,5.82431e-05,-1.72164e-05,1.31317e-05,0.0116486,-0.00344327,0.00262633,0,0,0,0,0.0742018,0.529311,-0.9724,34.75,1,63278,59372483
47,2,-0.724594,-0.0528383,9.79445,0.062204,-0.614073,0.980237,-0.00724483,-0.000537787,0.0979446,1,4.70598e-05,5.60473e-06,1.27628e-05,0.00941195,0.00112095,0.00255255,0,0,0,0,0.0742383,0.527838,-0.971928,34.75,1,63279,59372583
47,3,-0.724594,-0.0528383,9.79445,0.062204,-0.614073,0.980237,-0.00724483,-0.000537787,0.0979446,1,4.70598e-05,5.60473e-06,1.27628e-05,0.00941195,0.00112095,0.00255255,0,0,0,0,0.0742383,0.527838,-0.971928,34.75,1,63279,59372583
47,4,-0.724502,-0.0641946,9.7869,0.0558774,-0.620529,0.96936,-0.00724528,-0.000649728,0.0978689,1,3.82867e-05,-1.4396e-06,1.98577e-05,0.00765734,-0.000287921,0.00397154,0,0,0,0,0.0738184,0.526352,-0.970444,34.75,1,63280,59372683
48,1,-0.724502,-0.0641946,9.7869,0.0558774,-0.620529,0.96936,-0.00724528,-0.000649728,0.0978689,1,3.82867e-05,-1.4396e-06,1.98577e-05,0.00765734,-0.000287921,0.00397154,0,0,0,0,0.0738184,0.526352,-0.970444,34.75,1,63280,59372683
48,2,-0.736442,-0.0518981,9.79149,0.0474409,-0.608757,0.972753,-0.00736605,-0.00052861,0.0979147,1,4.78438e-05,-8.40413e-06,1.76563e-05,0.00956876,-0.00168083,0.00353125,0,0,0,0,0.0733539,0.526826,-0.969421,34.75,1,63281,59372783
48,3,-0.736442,-0.0518981,9.79149,0.0474409,-0.608757,0.972753,-0.00736605,-0.00052861,0.0979147,1,4.78438e-05,-8.40413e-06,1.76563e-05,0.00956876,-0.00168083,0.00353125,0,0,0,0,0.0733539,0.526826,-0.969421,34.75,1,63281,59372783
48,4,-0.739228,-0.0563438,9.7881,0.0370492,-0.614554,0.974121,-0.00739791,-0.000573235,0.0978805,1,4.85665e-05,-2.88786e-05,1.95559e-05,0.0097133,-0.00577573,0.00391119,0,0,0,0,0.0737781,0.528791,-0.970389,34.75,1,63282,59372883
49,1,-0.739228,-0.0563438,9.7881,0.0370492,-0.614554,0.974121,-0.00739791,-0.000573235,0.0978805,1,4.85665e-05,-2.88786e-05,1.95559e-05,0.0097133,-0.00577573,0.00391119,0,0,0,0,0.0737781,0.528791,-0.970389,34.75,1,63282,59372883
49,2,-0.728308,-0.0637948,9.78217,0.0514686,-0.621329,0.96707,-0.00728307,-0.000647041,0.0978217,1,4.53349e-05,-8.02697e-08,1.53428e-05,0.00906697,-1.60539e-05,0.00306855,0,0,0,0,0.0723148,0.530745,-0.969834,34.75,1,63283,59372983
49,3,-0.728308,-0.0637948,9.78217,0.0514686,-0.621329,0.96707,-0.00728307,-0.000647041,0.0978217,1,4.53349e-05,-8.02697e-08,1.53428e-05,0.00906697,-1.60539e-05,0.00306855,0,0,0,0,0.0723148,0.530745,-0.969834,34.75,1,63283,59372983
49,4,-0.719783,-0.0551943,9.78524,0.0607411,-0.612545,0.965371,-0.00719898,-0.000561511,0.0978523,1,4.70616e-05,-6.01825e-06,2.4857e-05,0.00941231,-0.00120365,0.00497141,0,0,0,0,0.0732969,0.528795,-0.970387,34.75,1,63284,59373083
49,5,-0.719783,-0.0551943,9.78524,0.0607411,-0.612545,0.965371,-0.00719898,-0.000561511,0.0978523,1,4.70616e-05,-6.01825e-06,2.4857e-05,0.00941231,-0.00120365,0.00497141,0,0,0,0,0.0732969,0.528795,-0.970387,34.75,1,63284,59373083
49,6,-0.720574,-0.0604957,9.79302,0.0598969,-0.621248,0.977003,-0.00720755,-0.000611382,0.09793,1,3.21232e-05,-9.28159e-06,9.24966e-06,0.00642464,-0.00185632,0.00184993,0,0,0,0,0.0718365,0.526892,-0.972443,34.75,1,63285,59373183
49,7,-0.720574,-0.0604957,9.79302,0.0598969,-0.621248,0.977003,-0.00720755,-0.000611382,0.09793,1,3.21232e-05,-9.28159e-06,9.24966e-06,0.00642464,-0.00185632,0.00184993,0,0,0,0,0.0718365,0.526892,-0.972443,34.75,1,63285,59373183
49,8,-0.713225,-0.0541188,9.78387,0.0665532,-0.616592,0.964071,-0.00713481,-0.000550005,0.0978385,1,4.30252e-05,-1.32661e-05,2.79321e-05,0.00860504,-0.00265323,0.00558641,0,0,0,0,0.0709113,0.526873,-0.970924,34.75,1,63286,59373283
50,1,-0.713225,-0.0541188,9.78387,0.0665532,-0.616592,0.964071,-0.00713481,-0.000550005,0.0978385,1,4.30252e-05,-1.32661e-05,2.79321e-05,0.00860504,-0.00265323,0.00558641,0,0,0,0,0.0709113,0.526873,-0.970924,34.75,1,63286,59373283
50,2,-0.73062,-0.059403,9.79003,0.0493658,-0.626322,0.97564,-0.00730743,-0.000603833,0.0979002,1,5.01778e-05,-6.27324e-06,-1.55706e-06,0.0100356,-0.00125465,-0.000311413,0,0,0,0,0.0718944,0.527813,-0.969392,34.75,1,63287,59373383
50,3,-0.73062,-0.059403,9.79003,0.0493658,-0.626322,0.97564,-0.00730743,-0.000603833,0.0979002,1,5.01778e-05,-6.27324e-06,-1.55706e-06,0.0100356,-0.00125465,-0.000311413,0,0,0,0,0.0718944,0.527813,-0.969392,34.75,1,63287,59373383
50,4,-0.736198,-0.0531581,9.77655,0.0430278,-0.612966,0.958111,-0.00736272,-0.000540418,0.0977654,1,4.4506e-05,-3.85192e-06,9.18104e-06,0.00890121,-0.000770383,0.00183621,0,0,0,0,0.0723755,0.527809,-0.969395,34.75,1,63288,59373483
51,1,-0.736198,-0.0531581,9.77655,0.0430278,-0.612966,0.958111,-0.00736272,-0.000540418,0.0977654,1,4.4506e-05,-3.85192e-06,9.18104e-06,0.00890121,-0.000770383,0.00183621,0,0,0,0,0.0723755,0.527809,-0.969395,34.75,1,63288,59373483
51,2,-0.730624,-0.060764,9.78493,0.0413586,-0.622746,0.967033,-0.00730772,-0.000615873,0.0978492,1,4.11477e-05,-7.6143e-06,1.23532e-05,0.00822954,-0.00152286,0.00247064,0,0,0,0,0.0737823,0.52927,-0.969874,34.75,1,63289,59373583
51,3,-0.730624,-0.060764,9.78493,0.0413586,-0.622746,0.967033,-0.00730772,-0.000615873,0.0978492,1,4.11477e-05,-7.6143e-06,1.23532e-05,0.00822954,-0.00152286,0.00247064,0,0,0,0,0.0737823,0.52927,-0.969874,34.75,1,63289,59373583
51,4,-0.726805,-0.0548585,9.78801,0.053687,-0.618242,0.970666,-0.00727154,-0.00055876,0.0978798,1,5.12433e-05,-1.79016e-05,9.87778e-06,0.0102487,-0.00358031,0.00197556,0,0,0,0,0.0742839,0.528769,-0.969382,34.75,1,63290,59373683
51,5,-0.726805,-0.0548585,9.78801,0.053687,-0.618242,0.970666,-0.00727154,-0.00055876,0.0978798,1,5.12433e-05,-1.79016e-05,9.87778e-06,0.0102487,-0.00358031,0.00197556,0,0,0,0,0.0742839,0.528769,-0.969382,34.75,1,63290,59373683
51,6,-0.730826,-0.0647367,9.78186,0.0456773,-0.63003,0.967408,-0.00731177,-0.000658663,0.0978182,1,5.65629e-05,-1.80416e-05,1.57524e-05,0.0113126,-0.00360832,0.00315048,0,0,0,0,0.0728111,0.526875,-0.971943,34.75,1,63291,59373783
52,1,-0.730826,-0.0647367,9.78186,0.0456773,-0.63003,0.967408,-0.00731177,-0.000658663,0.0978182,1,5.65629e-05,-1.80416e-05,1.57524e-05,0.0113126,-0.00360832,0.00315048,0,0,0,0,0.0728111,0.526875,-0.971943,34.75,1,63291,59373783
52,2,-0.725446,-0.059663,9.78763,0.0524057,-0.626993,0.969286,-0.00725676,-0.000606792,0.097876,1,5.11334e-05,-1.18258e-05,1.05015e-05,0.0102267,-0.00236516,0.00210031,0,0,0,0,0.0723381,0.526391,-0.971951,34.75,1,63292,59373883
52,3,-0.725446,-0.059663,9.78763,0.0524057,-0.626993,0.969286,-0.00725676,-0.000606792,0.097876,1,5.11334e-05,-1.18258e-05,1.05015e-05,0.0102267,-0.00236516,0.00210031,0,0,0,0,0.0723381,0.526391,-0.971951,34.75,1,63292,59373883
52,4,-0.720064,-0.0527083,9.77985,0.0566585,-0.617366,0.964772,-0.00720311,-0.000536023,0.0977983,1,4.45788e-05,-1.27087e-05,1.52531e-05,0.00891575,-0.00254173,0.00305061,0,0,0,0,0.0728728,0.52683,-0.969419,34.75,1,63293,59373983
52,5,-0.720064,-0.0527083,9.77985,0.0566585,-0.617366,0.964772,-0.00720311,-0.000536023,0.0977983,1,4.45788e-05,-1.27087e-05,1.52531e-05,0.00891575,-0.00254173,0.00305061,0,0,0,0,0.0728728,0.52683,-0.969419,34.75,1,63293,59373983
52,6,-0.716529,-0.060299,9.78757,0.0613103,-0.624887,0.970458,-0.00716805,-0.000611235,0.0978754,1,4.11868e-05,-1.41842e-05,1.2718e-05,0.00823737,-0.00283684,0.00254359,0,0,0,0,0.0728609,0.528284,-0.968881,34.75,1,63294,59374083
53,1,-0.716529,-0.060299,9.78757,0.0613103,-0.624887,0.970458,-0.00716805,-0.000611235,0.0978754,1,4.11868e-05,-1.41842e-05,1.2718e-05,0.00823737,-0.00283684,0.00254359,0,0,0,0,0.0728609,0.528284,-0.968881,34.75,1,63294,59374083
53,2,-0.709168,-0.0590334,9.77565,0.0650884,-0.627844,0.955849,-0.00709494,-0.000600666,0.0977562,1,5.05783e-05,-1.68659e-05,3.12422e-05,0.0101157,-0.00337319,0.00624843,0,0,0,0,0.0723224,0.528812,-0.970887,34.75,1,63295,59374183
53,3,-0.709168,-0.0590334,9.77565,0.0650884,-0.627844,0.955849,-0.00709494,-0.000600666,0.0977562,1,5.05783e-05,-1.68659e-05,3.12422e-05,0.0101157,-0.00337319,0.00624843,0,0,0,0,0.0723224,0.528812,-0.970887,34.75,1,63295,59374183
53,4,-0.714676,-0.0571403,9.78859,0.0654996,-0.626978,0.968284,-0.00714805,-0.000581577,0.0978857,1,5.04515e-05,-6.69789e-06,2.07631e-05,0.0100903,-0.00133958,0.00415263,0,0,0,0,0.0727295,0.528862,-0.973918,34.75,1,63296,59374283
53,5,-0.714676,-0.0571403,9.78859,0.0654996,-0.626978,0.968284,-0.00714805,-0.000581577,0.0978857,1,5.04515e-05,-6.69789e-06,2.07631e-05,0.0100903,-0.00133958,0.00415263,0,0,0,0,0.0727295,0.528862,-0.973918,34.75,1,63296,59374283
53,6,-0.726253,-0.0534185,9.78056,0.0520838,-0.621047,0.961866,-0.00726467,-0.000544149,0.0978054,1,4.97214e-05,-1.10565e-05,1.64026e-05,0.00994428,-0.00221131,0.00328053,0,0,0,0,0.0713103,0.527411,-0.973944,34.75,1,63297,59374383
54,1,-0.726253,-0.0534185,9.78056,0.0520838,-0.621047,0.961866,-0.00726467,-0.000544149,0.0978054,1,4.97214e-05,-1.10565e-05,1.64026e-05,0.00994428,-0.00221131,0.00328053,0,0,0,0,0.0713103,0.527411,-0.973944,34.75,1,63297,59374383
54,2,-0.737484,-0.0464069,9.78578,0.0400375,-0.617764,0.967905,-0.00737712,-0.000472785,0.0978576,1,4.36678e-05,-1.17236e-05,1.14946e-05,0.00873356,-0.00234472,0.00229891,0,0,0,0,0.0709478,0.525401,-0.970452,34.75,1,63298,59374483
54,3,-0.737484,-0.0464069,9.78578,0.0400375,-0.617764,0.967905,-0.00737712,-0.000472785,0.0978576,1,4.36678e-05,-1.17236e-05,1.14946e-05,0.00873356,-0.00234472,0.00229891,0,0,0,0,0.0709478,0.525401,-0.970452,34.75,1,63298,59374483
54,4,-0.720577,-0.0593818,9.79472,0.0598815,-0.626769,0.974944,-0.00720945,-0.000603504,0.0979469,1,4.87008e-05,-1.88758e-05,1.01235e-05,0.00974016,-0.00377517,0.0020247,0,0,0,0,0.071438,0.527799,-0.96838,34.75,1,63299,59374583
54,5,-0.720577,-0.0593818,9.79472,0.0598815,-0.626769,0.974944,-0.00720945,-0.000603504,0.0979469,1,4.87008e-05,-1.88758e-05,1.01235e-05,0.00974016,-0.00377517,0.0020247,0,0,0,0,0.071438,0.527799,-0.96838,34.75,1,63299,59374583
54,6,-0.734045,-0.0591057,9.79008,0.0442006,-0.626199,0.971503,-0.0073451,-0.000600982,0.0979004,1,4.99693e-05,-2.38177e-05,9.59392e-06,0.00999385,-0.00476355,0.00191879,0,0,0,0,0.0738231,0.528276,-0.968886,34.75,1,63300,59374683
54,7,-0.734045,-0.0591057,9.79008,0.0442006,-0.626199,0.971503,-0.0073451,-0.000600982,0.0979004,1,4.99693e-05,-2.38177e-05,9.59392e-06,0.00999385,-0.00476355,0.00191879,0,0,0,0,0.0738231,0.528276,-0.968886,34.75,1,63300,59374683
54,8,-0.712422,-0.0543416,9.78384,0.060893,-0.625739,0.963283,-0.00712308,-0.000552542,0.0978385,1,4.55901e-05,5.75381e-06,1.43964e-05,0.00911802,0.00115076,0.00287928,0,0,0,0,0.0762121,0.527786,-0.969918,34.75,1,63301,59374783
55,1,-0.712422,-0.0543416,9.78384,0.060893,-0.625739,0.963283,-0.00712308,-0.000552542,0.0978385,1,4.55901e-05,5.75381e-06,1.43964e-05,0.00911802,0.00115076,0.00287928,0,0,0,0,0.0762121,0.527786,-0.969918,34.75,1,63301,59374783
55,2,-0.70299,-0.0543572,9.79024,0.0717915,-0.622123,0.971872,-0.00703166,-0.000553178,0.0979022,1,4.77862e-05,-9.06369e-06,1.77023e-05,0.00955725,-0.00181274,0.00354046,0,0,0,0,0.075258,0.527307,-0.969924,34.75,1,63302,59374883
55,3,-0.70299,-0.0543572,9.79024,0.0717915,-0.622123,0.971872,-0.00703166,-0.000553178,0.0979022,1,4.77862e-05,-9.06369e-06,1.77023e-05,0.00955725,-0.00181274,0.00354046,0,0,0,0,0.075258,0.527307,-0.969924,34.75,1,63302,59374883
55,4,-0.687422,-0.0650636,9.79002,0.0880801,-0.636694,0.967867,-0.00687534,-0.000662683,0.0979001,1,6.02434e-05,-5.83197e-06,1.82841e-05,0.0120487,-0.00116639,0.00365681,0,0,0,0,0.0723058,0.528342,-0.971908,34.75,1,63303,59374983
56,1,-0.687422,-0.0650636,9.79002,0.0880801,-0.636694,0.967867,-0.00687534,-0.000662683,0.0979001,1,6.02434e-05,-5.83197e-06,1.82841e-05,0.0120487,-0.00116639,0.00365681,0,0,0,0,0.0723058,0.528342,-0.971908,34.75,1,63303,59374983
56,2,-0.689422,-0.0703556,9.79102,0.0888528,-0.642952,0.972091,-0.00689397,-0.000712757,0.0979101,1,4.48207e-05,1.05089e-06,3.08101e-05,0.00896415,0.000210179,0.00616202,0,0,0,0,0.0733088,0.527341,-0.970924,34.75,1,63304,59375083
56,3,-0.689422,-0.0703556,9.79102,0.0888528,-0.642952,0.972091,-0.00689397,-0.000712757,0.0979101,1,4.48207e-05,1.05089e-06,3.08101e-05,0.00896415,0.000210179,0.00616202,0,0,0,0,0.0733088,0.527341,-0.970924,34.75,1,63304,59375083
56,4,-0.692194,-0.0615007,9.79213,0.0795828,-0.632549,0.972468,-0.00692194,-0.000624321,0.0979212,1,4.63016e-05,-9.668e-08,1.77827e-05,0.00926032,-1.9336e-05,0.00355655,0,0,0,0,0.0728728,0.52683,-0.969419,34.75,1,63305,59375183
57,1,-0.692194,-0.0615007,9.79213,0.0795828,-0.632549,0.972468,-0.00692194,-0.000624321,0.0979212,1,4.63016e-05,-9.668e-08,1.77827e-05,0.00926032,-1.9336e-05,0.00355655,0,0,0,0,0.0728728,0.52683,-0.969419,34.75,1,63305,59375183
57,2,-0.690984,-0.0403467,9.78586,0.0918083,-0.613646,0.965949,-0.00691102,-0.000411213,0.0978585,1,3.87076e-05,-6.10217e-06,1.23474e-05,0.00774152,-0.00122043,0.00246949,0,0,0,0,0.0728856,0.528266,-0.967872,34.75,1,63306,59375283
57,3,-0.690984,-0.0403467,9.78586,0.0918083,-0.613646,0.965949,-0.00691102,-0.000411213,0.0978585,1,3.87076e-05,-6.10217e-06,1.23474e-05,0.00774152,-0.00122043,0.00246949,0,0,0,0,0.0728856,0.528266,-0.967872,34.75,1,63306,59375283
57,4,-0.714051,-0.050254,9.7883,0.0650674,-0.620892,0.967362,-0.00714122,-0.000514347,0.0978829,1,6.01187e-05,-3.64181e-06,2.66556e-06,0.0120237,-0.000728362,0.000533112,0,0,0,0,0.0742715,0.528778,-0.969887,34.75,1,63307,59375383
58,1,-0.714051,-0.050254,9.7883,0.0650674,-0.620892,0.967362,-0.00714122,-0.000514347,0.0978829,1,6.01187e-05,-3.64181e-06,2.66556e-06,0.0120237,-0.000728362,0.000533112,0,0,0,0,0.0742715,0.528778,-0.969887,34.75,1,63307,59375383
58,2,-0.71502,-0.0539855,9.78387,0.0603236,-0.623822,0.963287,-0.00715147,-0.00055095,0.0978385,1,5.6414e-05,-6.50943e-06,3.88918e-06,0.0112828,-0.00130189,0.000777836,0,0,0,0,0.0747479,0.52685,-0.971447,34.75,1,63308,59375483
58,3,-0.71502,-0.0539855,9.78387,0.0603236,-0.623822,0.963287,-0.00715147,-0.00055095,0.0978385,1,5.6414e-05,-6.50943e-06,3.88918e-06,0.0112828,-0.00130189,0.000777836,0,0,0,0,0.0747479,0.52685,-0.971447,34.75,1,63308,59375483
58,4,-0.721172,-0.0565424,9.78558,0.0533513,-0.626981,0.968111,-0.00721206,-0.000575208,0.0978557,1,4.88031e-05,-1.8384e-06,1.61324e-05,0.00976063,-0.00036768,0.00322649,0,0,0,0,0.0732922,0.526871,-0.971945,34.75,1,63309,59375583
59,1,-0.721172,-0.0565424,9.78558,0.0533513,-0.626981,0.968111,-0.00721206,-0.000575208,0.0978557,1,4.88031e-05,-1.8384e-06,1.61324e-05,0.00976063,-0.00036768,0.00322649,0,0,0,0,0.0732922,0.526871,-0.971945,34.75,1,63309,59375583
59,2,-0.731739,-0.0507721,9.78875,0.0429986,-0.628882,0.967422,-0.00731741,-0.000518186,0.0978875,1,5.2901e-05,-1.47062e-07,7.36686e-06,0.0105802,-2.94124e-05,0.00147337,0,0,0,0,0.0733211,0.527332,-0.97042,34.75,1,63310,59375683
59,3,-0.731739,-0.0507721,9.78875,0.0429986,-0.628882,0.967422,-0.00731741,-0.000518186,0.0978875,1,5.2901e-05,-1.47062e-07,7.36686e-06,0.0105802,-2.94124e-05,0.00147337,0,0,0,0,0.0733211,0.527332,-0.97042,34.75,1,63310,59375683
59,4,-0.721366,-0.0548104,9.77779,0.0531937,-0.630314,0.957032,-0.0072128,-0.000554874,0.0977779,1,3.43695e-05,4.35831e-06,3.37908e-06,0.0068739,0.000871662,0.000675816,0,0,0,0,0.072877,0.527309,-0.968903,34.75,1,63311,59375783
60,1,-0.721366,-0.0548104,9.77779,0.0531937,-0.630314,0.957032,-0.0072128,-0.000554874,0.0977779,1,3.43695e-05,4.35831e-06,3.37908e-06,0.0068739,0.000871662,0.000675816,0,0,0,0,0.072877,0.527309,-0.968903,34.75,1,63311,59375783
60,2,-0.718862,-0.0617587,9.78755,0.0561093,-0.637083,0.965758,-0.00718815,-0.000625694,0.0978755,1,4.07155e-05,2.35262e-06,9.47203e-06,0.00814309,0.000470524,0.00189441,0,0,0,0,0.0728604,0.526839,-0.969923,34.75,1,63312,59375883
60,3,-0.718862,-0.0617587,9.78755,0.0561093,-0.637083,0.965758,-0.00718815,-0.000625694,0.0978755,1,4.07155e-05,2.35262e-06,9.47203e-06,0.00814309,0.000470524,0.00189441,0,0,0,0,0.0728604,0.526839,-0.969923,34.75,1,63312,59375883
60,4,-0.712416,-0.0742726,9.78809,0.0607097,-0.653002,0.964261,-0.0071256,-0.000752561,0.0978807,1,4.8941e-05,-7.51406e-06,1.78943e-05,0.00978821,-0.00150281,0.00357887,0,0,0,0,0.0742468,0.528796,-0.970896,34.75,1,63313,59375983
60,5,-0.712416,-0.0742726,9.78809,0.0607097,-0.653002,0.964261,-0.0071256,-0.000752561,0.0978807,1,4.8941e-05,-7.51406e-06,1.78943e-05,0.00978821,-0.00150281,0.00357887,0,0,0,0,0.0742468,0.528796,-0.970896,34.75,1,63313,59375983
60,6,-0.706186,-0.0601461,9.78172,0.0699096,-0.637797,0.957655,-0.00706166,-0.000610934,0.0978172,1,4.8669e-05,1.07283e-06,-3.40886e-06,0.00973381,0.000214567,-0.000681773,0,0,0,0,0.0737249,0.529794,-0.971882,34.75,1,63314,59376083
60,7,-0.706186,-0.0601461,9.78172,0.0699096,-0.637797,0.957655,-0.00706166,-0.000610934,0.0978172,1,4.8669e-05,1.07283e-06,-3.40886e-06,0.00973381,0.000214567,-0.000681773,0,0,0,0,0.0737249,0.529794,-0.971882,34.75,1,63314,59376083
60,8,-0.69436,-0.0737027,9.78798,0.0786257,-0.647818,0.964821,-0.0069455,-0.000746896,0.0978796,1,4.88461e-05,-9.87765e-06,2.21206e-05,0.00976921,-0.00197553,0.00442413,0,0,0,0,0.072832,0.527823,-0.970407,34.75,1,63315,59376183
61,1,-0.69436,-0.0737027,9.78798,0.0786257,-0.647818,0.964821,-0.0069455,-0.000746896,0.0978796,1,4.88461e-05,-9.87765e-06,2.21206e-05,0.00976921,-0.00197553,0.00442413,0,0,0,0,0.072832,0.527823,-0.970407,34.75,1,63315,59376183
61,2,-0.694287,-0.0481147,9.78277,0.0810181,-0.628975,0.965116,-0.00694504,-0.000490469,0.0978275,1,4.63128e-05,-1.11927e-05,1.8768e-05,0.00926256,-0.00223854,0.00375359,0,0,0,0,0.0728562,0.52636,-0.970439,34.75,1,63316,59376283
61,3,-0.694287,-0.0481147,9.78277,0.0810181,-0.628975,0.965116,-0.00694504,-0.000490469,0.0978275,1,4.63128e-05,-1.11927e-05,1.8768e-05,0.00926256,-0.00223854,0.00375359,0,0,0,0,0.0728562,0.52636,-0.970439,34.75,1,63316,59376283
61,4,-0.71397,-0.0442875,9.79074,0.0665587,-0.62114,0.970546,-0.00714175,-0.000450903,0.0979072,1,4.02686e-05,-1.05275e-05,9.94829e-06,0.00805371,-0.00210551,0.00198966,0,0,0,0,0.0718939,0.526368,-0.970435,34.75,1,63317,59376383
61,5,-0.71397,-0.0442875,9.79074,0.0665587,-0.62114,0.970546,-0.00714175,-0.000450903,0.0979072,1,4.02686e-05,-1.05275e-05,9.94829e-06,0.00805371,-0.00210551,0.00198966,0,0,0,0,0.0718939,0.526368,-0.970435,34.75,1,63317,59376383
61,6,-0.725737,-0.0545948,9.78497,0.0514784,-0.630885,0.962899,-0.00726042,-0.000554047,0.0978494,1,3.98216e-05,-1.56705e-05,2.10569e-05,0.00796432,-0.00313411,0.00421138,0,0,0,0,0.0743327,0.527287,-0.968405,34.75,1,63318,59376483
62,1,-0.725737,-0.0545948,9.78497,0.0514784,-0.630885,0.962899,-0.00726042,-0.000554047,0.0978494,1,3.98216e-05,-1.56705e-05,2.10569e-05,0.00796432,-0.00313411,0.00421138,0,0,0,0,0.0743327,0.527287,-0.968405,34.75,1,63318,59376483
62,2,-0.748225,-0.055852,9.78544,0.0281362,-0.632466,0.966604,-0.00748563,-0.000565604,0.0978541,1,3.48036e-05,-1.73913e-05,1.82037e-05,0.00696071,-0.00347826,0.00364075,0,0,0,0,0.0747322,0.529271,-0.970383,34.75,1,63319,59376583
62,3,-0.748225,-0.055852,9.78544,0.0281362,-0.632466,0.966604,-0.00748563,-0.000565604,0.0978541,1,3.48036e-05,-1.73913e-05,1.82037e-05,0.00696071,-0.00347826,0.00364075,0,0,0,0,0.0747322,0.529271,-0.970383,34.75,1,63319,59376583
62,4,-0.747989,-0.0558981,9.7773,0.0242797,-0.631761,0.96104,-0.00748094,-0.000571473,0.0977728,1,6.25123e-05,-5.46713e-06,1.78903e-05,0.0125025,-0.00109343,0.00357806,0,0,0,0,0.0732927,0.528316,-0.970903,34.75,1,63320,59376683
63,1,-0.747989,-0.0558981,9.7773,0.0242797,-0.631761,0.96104,-0.00748094,-0.000571473,0.0977728,1,6.25123e-05,-5.46713e-06,1.78903e-05,0.0125025,-0.00109343,0.00357806,0,0,0,0,0.0732927,0.528316,-0.970903,34.75,1,63320,59376683
63,2,-0.745515,-0.0662098,9.78194,0.0253681,-0.643907,0.961097,-0.00745775,-0.000667075,0.0978191,1,2.42665e-05,-1.34073e-05,1.54004e-05,0.0048533,-0.00268147,0.00308008,0,0,0,0,0.0723219,0.527367,-0.97193,34.75,1,63321,59376783
63,3,-0.745515,-0.0662098,9.78194,0.0253681,-0.643907,0.961097,-0.00745775,-0.000667075,0.0978191,1,2.42665e-05,-1.34073e-05,1.54004e-05,0.0048533,-0.00268147,0.00308008,0,0,0,0,0.0723219,0.527367,-0.97193,34.75,1,63321,59376783
63,4,-0.718563,-0.0566074,9.78999,0.0585551,-0.635791,0.968004,-0.00718845,-0.000574658,0.0978996,1,4.2772e-05,-1.44988e-05,1.45843e-05,0.00855441,-0.00289976,0.00291686,0,0,0,0,0.0719267,0.525862,-0.969436,34.75,1,63322,59376883
63,5,-0.718563,-0.0566074,9.78999,0.0585551,-0.635791,0.968004,-0.00718845,-0.000574658,0.0978996,1,4.2772e-05,-1.44988e-05,1.45843e-05,0.00855441,-0.00289976,0.00291686,0,0,0,0,0.0719267,0.525862,-0.969436,34.75,1,63322,59376883
63,6,-0.710901,-0.0664663,9.77932,0.0626799,-0.645955,0.959982,-0.00710943,-0.000673618,0.0977931,1,4.44539e-05,-2.28003e-06,1.83563e-05,0.00889079,-0.000456006,0.00367126,0,0,0,0,0.0714664,0.526815,-0.967897,34.75,1,63323,59376983
64,1,-0.710901,-0.0664663,9.77932,0.0626799,-0.645955,0.959982,-0.00710943,-0.000673618,0.0977931,1,4.44539e-05,-2.28003e-06,1.83563e-05,0.00889079,-0.000456006,0.00367126,0,0,0,0,0.0714664,0.526815,-0.967897,34.75,1,63323,59376983
64,2,-0.689481,-0.0703112,9.78559,0.0856148,-0.646599,0.960325,-0.00689372,-0.000711812,0.0978559,1,4.34685e-05,5.48022e-06,1.39027e-05,0.00869371,0.00109604,0.00278054,0,0,0,0,0.0738312,0.527788,-0.968897,34.75,1,63324,59377083
64,3,-0.689481,-0.0703112,9.78559,0.0856148,-0.646599,0.960325,-0.00689372,-0.000711812,0.0978559,1,4.34685e-05,5.48022e-06,1.39027e-05,0.00869371,0.00109604,0.00278054,0,0,0,0,0.0738312,0.527788,-0.968897,34.75,1,63324,59377083
64,4,-0.707288,-0.0781693,9.7921,0.0666483,-0.665337,0.974479,-0.00707309,-0.000793782,0.0979209,1,6.06441e-05,-1.19059e-06,1.50406e-05,0.0121288,-0.000238117,0.00300812,0,0,0,0,0.0747854,0.528268,-0.96889,34.75,1,63325,59377183
65,1,-0.707288,-0.0781693,9.7921,0.0666483,-0.665337,0.974479,-0.00707309,-0.000793782,0.0979209,1,6.06441e-05,-1.19059e-06,1.50406e-05,0.0121288,-0.000238117,0.00300812,0,0,0,0,0.0747854,0.528268,-0.96889,34.75,1,63325,59377183
65,2,-0.70881,-0.0573045,9.78482,0.0613202,-0.636285,0.959853,-0.00709077,-0.000584723,0.0978479,1,5.90272e-05,-1.37127e-05,8.898e-06,0.0118054,-0.00274254,0.0017796,0,0,0,0,0.0752048,0.528309,-0.971417,34.75,1,63326,59377283
65,3,-0.70881,-0.0573045,9.78482,0.0613202,-0.636285,0.959853,-0.00709077,-0.000584723,0.0978479,1,5.90272e-05,-1.37127e-05,8.898e-06,0.0118054,-0.00274254,0.0017796,0,0,0,0,0.0752048,0.528309,-0.971417,34.75,1,63326,59377283
65,4,-0.708935,-0.0479812,9.79914,0.0648475,-0.635849,0.97747,-0.00708925,-0.000489158,0.0979913,1,4.62439e-05,3.89372e-07,2.0003e-05,0.00924877,7.78743e-05,0.00400061,0,0,0,0,0.0742013,0.527865,-0.973442,34.75,1,63327,59377383
65,5,-0.708935,-0.0479812,9.79914,0.0648475,-0.635849,0.97747,-0.00708925,-0.000489158,0.0979913,1,4.62439e-05,3.89372e-07,2.0003e-05,0.00924877,7.78743e-05,0.00400061,0,0,0,0,0.0742013,0.527865,-0.973442,34.75,1,63327,59377383
65,6,-0.699899,-0.0364616,9.78324,0.0683541,-0.621145,0.964632,-0.00699941,-0.000375174,0.0978323,1,5.29215e-05,-2.22027e-06,1.4469e-05,0.0105843,-0.000444055,0.0028938,0,0,0,0,0.0752864,0.526322,-0.969441,34.75,1,63328,59377483
66,1,-0.699899,-0.0364616,9.78324,0.0683541,-0.621145,0.964632,-0.00699941,-0.000375174,0.0978323,1,5.29215e-05,-2.22027e-06,1.4469e-05,0.0105843,-0.000444055,0.0028938,0,0,0,0,0.0752864,0.526322,-0.969441,34.75,1,63328,59377483
66,2,-0.696352,-0.0573038,9.78846,0.078977,-0.636767,0.96936,-0.00696298,-0.000582972,0.0978846,1,4.89559e-05,2.64507e-06,2.51568e-05,0.00979119,0.000529015,0.00503136,0,0,0,0,0.0738678,0.526316,-0.968425,34.75,1,63329,59377583
66,3,-0.696352,-0.0573038,9.78846,0.078977,-0.636767,0.96936,-0.00696298,-0.000582972,0.0978846,1,4.89559e-05,2.64507e-06,2.51568e-05,0.00979119,0.000529015,0.00503136,0,0,0,0,0.0738678,0.526316,-0.968425,34.75,1,63329,59377583
66,4,-0.706124,-0.0725672,9.78331,0.0634524,-0.656281,0.958959,-0.00706098,-0.000733025,0.0978331,1,3.62247e-05,1.21842e-06,1.87271e-05,0.00724493,0.000243683,0.00374543,0,0,0,0,0.0724121,0.526337,-0.968922,34.75,1,63330,59377683
67,1,-0.706124,-0.0725672,9.78331,0.0634524,-0.656281,0.958959,-0.00706098,-0.000733025,0.0978331,1,3.62247e-05,1.21842e-06,1.87271e-05,0.00724493,0.000243683,0.00374543,0,0,0,0,0.0724121,0.526337,-0.968922,34.75,1,63330,59377683
67,2,-0.718189,-0.0630595,9.78518,0.0612498,-0.6474,0.96276,-0.00718586,-0.000637987,0.0978515,1,3.6994e-05,-2.03438e-05,1.05538e-05,0.00739879,-0.00406876,0.00211076,0,0,0,0,0.0737657,0.5288,-0.970894,34.75,1,63331,59377783
67,3,-0.718189,-0.0630595,9.78518,0.0612498,-0.6474,0.96276,-0.00718586,-0.000637987,0.0978515,1,3.6994e-05,-2.03438e-05,1.05538e-05,0.00739879,-0.00406876,0.00211076,0,0,0,0,0.0737657,0.5288,-0.970894,34.75,1,63331,59377783
67,4,-0.757451,-0.0726052,9.78433,0.0183798,-0.658338,0.964855,-0.00757434,-0.000735797,0.0978432,1,4.84661e-05,7.41117e-07,1.72388e-05,0.00969321,0.000148223,0.00344776,0,0,0,0,0.0746663,0.528837,-0.973423,34.75,1,63332,59377883
67,5,-0.757451,-0.0726052,9.78433,0.0183798,-0.658338,0.964855,-0.00757434,-0.000735797,0.0978432,1,4.84661e-05,7.41117e-07,1.72388e-05,0.00969321,0.000148223,0.00344776,0,0,0,0,0.0746663,0.528837,-0.973423,34.75,1,63332,59377883
67,6,-0.761928,-0.0613231,9.78378,0.0122074,-0.644136,0.967949,-0.00761974,-0.000622701,0.0978377,1,4.67524e-05,-2.50914e-06,2.10628e-05,0.00935048,-0.000501828,0.00421255,0,0,0,0,0.0732552,0.526898,-0.973459,34.75,1,63333,59377983
68,1,-0.761928,-0.0613231,9.78378,0.0122074,-0.644136,0.967949,-0.00761974,-0.000622701,0.0978377,1,4.67524e-05,-2.50914e-06,2.10628e-05,0.00935048,-0.000501828,0.00421255,0,0,0,0,0.0732552,0.526898,-0.973459,34.75,1,63333,59377983
68,2,-0.771107,-0.0447121,9.78399,0.00174287,-0.630771,0.968498,-0.00771324,-0.000456587,0.0978397,1,4.71473e-05,-1.11424e-05,1.55882e-05,0.00942947,-0.00222848,0.00311764,0,0,0,0,0.0713962,0.525902,-0.971453,34.75,1,63334,59378083
68,3,-0.771107,-0.0447121,9.78399,0.00174287,-0.630771,0.968498,-0.00771324,-0.000456587,0.0978397,1,4.71473e-05,-1.11424e-05,1.55882e-05,0.00942947,-0.00222848,0.00311764,0,0,0,0,0.0713962,0.525902,-0.971453,34.75,1,63334,59378083
68,4,-0.759931,-0.0342879,9.77621,0.0118472,-0.619279,0.955763,-0.00760394,-0.00035132,0.0977618,1,4.26061e-05,-2.36744e-05,7.2492e-06,0.00852121,-0.00473489,0.00144984,0,0,0,0,0.0714332,0.525875,-0.969938,34.75,1,63335,59378183
69,1,-0.759931,-0.0342879,9.77621,0.0118472,-0.619279,0.955763,-0.00760394,-0.00035132,0.0977618,1,4.26061e-05,-2.36744e-05,7.2492e-06,0.00852121,-0.00473489,0.00144984,0,0,0,0,0.0714332,0.525875,-0.969938,34.75,1,63335,59378183
69,2,-0.754989,-0.033372,9.7738,0.0115693,-0.616262,0.955665,-0.00755287,-0.00034502,0.0977378,1,5.70938e-05,-1.52567e-05,9.22218e-06,0.0114188,-0.00305134,0.00184443,0,0,0,0,0.0733705,0.527296,-0.968401,34.75,1,63336,59378283
69,3,-0.754989,-0.033372,9.7738,0.0115693,-0.616262,0.955665,-0.00755287,-0.00034502,0.0977378,1,5.70938e-05,-1.52567e-05,9.22218e-06,0.0114188,-0.00305134,0.00184443,0,0,0,0,0.0733705,0.527296,-0.968401,34.75,1,63336,59378283
69,4,-0.755555,-0.0703111,9.78402,0.0184206,-0.650392,0.967707,-0.00755936,-0.000708776,0.0978399,1,2.79508e-05,-1.95952e-05,1.2897e-05,0.00559015,-0.00391904,0.0025794,0,0,0,0,0.0737738,0.528312,-0.970905,34.75,1,63337,59378383
69,5,-0.755555,-0.0703111,9.78402,0.0184206,-0.650392,0.967707,-0.00755936,-0.000708776,0.0978399,1,2.79508e-05,-1.95952e-05,1.2897e-05,0.00559015,-0.00391904,0.0025794,0,0,0,0,0.0737738,0.528312,-0.970905,34.75,1,63337,59378383
69,6,-0.726393,-0.0753276,9.77529,0.044445,-0.658284,0.95712,-0.00726614,-0.000763537,0.0977527,1,5.11538e-05,-1.14592e-05,1.78682e-05,0.0102308,-0.00229185,0.00357364,0,0,0,0,0.0737448,0.527851,-0.97243,34.75,1,63338,59378483
70,1,-0.726393,-0.0753276,9.77529,0.044445,-0.658284,0.95712,-0.00726614,-0.000763537,0.0977527,1,5.11538e-05,-1.14592e-05,1.78682e-05,0.0102308,-0.00229185,0.00357364,0,0,0,0,0.0737448,0.527851,-0.97243,34.75,1,63338,59378483
70,2,-0.726716,-0.0678669,9.78655,0.0448102,-0.653522,0.965872,-0.00727051,-0.000687758,0.0978652,1,4.56311e-05,-1.7207e-05,1.0809e-05,0.00912622,-0.00344139,0.0021618,0,0,0,0,0.0732637,0.527855,-0.972428,34.75,1,63339,59378583
70,3,-0.726716,-0.0678669,9.78655,0.0448102,-0.653522,0.965872,-0.00727051,-0.000687758,0.0978652,1,4.56311e-05,-1.7207e-05,1.0809e-05,0.00912622,-0.00344139,0.0021618,0,0,0,0,0.0732637,0.527855,-0.972428,34.75,1,63339,59378583
70,4,-0.706087,-0.0492877,9.79369,0.0648251,-0.638574,0.970017,-0.0070639,-0.000502242,0.0979366,1,4.63705e-05,-1.55454e-05,1.99696e-05,0.00927411,-0.00310909,0.00399392,0,0,0,0,0.0742829,0.525878,-0.971467,34.75,1,63340,59378683
70,5,-0.706087,-0.0492877,9.79369,0.0648251,-0.638574,0.970017,-0.0070639,-0.000502242,0.0979366,1,4.63705e-05,-1.55454e-05,1.99696e-05,0.00927411,-0.00310909,0.00399392,0,0,0,0,0.0742829,0.525878,-0.971467,34.75,1,63340,59378683
70,6,-0.688994,-0.0337415,9.79811,0.0832946,-0.620429,0.975217,-0.00689025,-0.000348375,0.097981,1,5.39495e-05,-1.71001e-06,2.82156e-05,0.0107899,-0.000342002,0.00564312,0,0,0,0,0.0723997,0.526346,-0.969427,34.75,1,63341,59378783
70,7,-0.688994,-0.0337415,9.79811,0.0832946,-0.620429,0.975217,-0.00689025,-0.000348375,0.097981,1,5.39495e-05,-1.71001e-06,2.82156e-05,0.0107899,-0.000342002,0.00564312,0,0,0,0,0.0723997,0.526346,-0.969427,34.75,1,63341,59378783
70,8,-0.6868,-0.0202699,9.78701,0.0822483,-0.612891,0.965011,-0.00686848,-0.000212005,0.0978701,1,4.56552e-05,-2.48068e-06,2.69155e-05,0.00913103,-0.000496137,0.0053831,0,0,0,0,0.0724614,0.526301,-0.966903,34.75,1,63342,59378883
70,9,-0.6868,-0.0202699,9.78701,0.0822483,-0.612891,0.965011,-0.00686848,-0.000212005,0.0978701,1,4.56552e-05,-2.48068e-06,2.69155e-05,0.00913103,-0.000496137,0.0053831,0,0,0,0,0.0724614,0.526301,-0.966903,34.75,1,63342,59378883
70,10,-0.691503,-0.0305856,9.78425,0.0822863,-0.620793,0.958566,-0.00691499,-0.000314296,0.0978425,1,4.21162e-05,1.39676e-07,1.43482e-05,0.00842324,2.79351e-05,0.00286963,0,0,0,0,0.0728894,0.5273,-0.968398,34.75,1,63343,59378983
70,11,-0.691503,-0.0305856,9.78425,0.0822863,-0.620793,0.958566,-0.00691499,-0.000314296,0.0978425,1,4.21162e-05,1.39676e-07,1.43482e-05,0.00842324,2.79351e-05,0.00286963,0,0,0,0,0.0728894,0.5273,-0.968398,34.75,1,63343,59378983
70,12,-0.710468,-0.0370693,9.78601,0.0624454,-0.628336,0.963356,-0.00710495,-0.00037875,0.0978601,1,3.99723e-05,-1.41554e-06,1.63989e-05,0.00799446,-0.000283109,0.00327977,0,0,0,0,0.0727627,0.529801,-0.971877,34.75,1,63344,59379083
71,1,-0.710468,-0.0370693,9.78601,0.0624454,-0.628336,0.963356,-0.00710495,-0.00037875,0.0978601,1,3.99723e-05,-1.41554e-06,1.63989e-05,0.00799446,-0.000283109,0.00327977,0,0,0,0,0.0727627,0.529801,-0.971877,34.75,1,63344,59379083
71,2,-0.724773,-0.0607182,9.78524,0.0436764,-0.648308,0.965556,-0.00724864,-0.000615402,0.0978523,1,4.03786e-05,-4.82571e-06,2.18709e-05,0.00807572,-0.000965143,0.00437418,0,0,0,0,0.0722607,0.528857,-0.973411,34.75,1,63345,59379183
71,3,-0.724773,-0.0607182,9.78524,0.0436764,-0.648308,0.965556,-0.00724864,-0.000615402,0.0978523,1,4.03786e-05,-4.82571e-06,2.18709e-05,0.00807572,-0.000965143,0.00437418,0,0,0,0,0.0722607,0.528857,-0.973411,34.75,1,63345,59379183
71,4,-0.719747,-0.0660588,9.7699,0.0559653,-0.653182,0.949404,-0.00719938,-0.000666564,0.0976988,1,2.90647e-05,-9.9129e-06,2.0573e-05,0.00581294,-0.00198258,0.0041146,0,0,0,0,0.071902,0.52588,-0.970445,34.75,1,63346,59379283
71,5,-0.719747,-0.0660588,9.7699,0.0559653,-0.653182,0.949404,-0.00719938,-0.000666564,0.0976988,1,2.90647e-05,-9.9129e-06,2.0573e-05,0.00581294,-0.00198258,0.0041146,0,0,0,0,0.071902,0.52588,-0.970445,34.75,1,63346,59379283
71,6,-0.742286,-0.0668382,9.78665,0.0257736,-0.653644,0.965333,-0.00742095,-0.000675978,0.0978666,1,3.68039e-05,9.60543e-06,2.64162e-05,0.00736079,0.00192109,0.00528324,0,0,0,0,0.0724325,0.52584,-0.968429,34.75,1,63347,59379383
71,7,-0.742286,-0.0668382,9.78665,0.0257736,-0.653644,0.965333,-0.00742095,-0.000675978,0.0978666,1,3.68039e-05,9.60543e-06,2.64162e-05,0.00736079,0.00192109,0.00528324,0,0,0,0,0.0724325,0.52584,-0.968429,34.75,1,63347,59379383
71,8,-0.725533,-0.0512923,9.7955,0.0480245,-0.637175,0.975239,-0.00725706,-0.000519267,0.0979548,1,3.10763e-05,-8.922e-06,1.76916e-05,0.00621525,-0.0017844,0.00353832,0,0,0,0,0.0738559,0.52777,-0.967887,34.75,1,63348,59379483
71,9,-0.725533,-0.0512923,9.7955,0.0480245,-0.637175,0.975239,-0.00725706,-0.000519267,0.0979548,1,3.10763e-05,-8.922e-06,1.76916e-05,0.00621525,-0.0017844,0.00353832,0,0,0,0,0.0738559,0.52777,-0.967887,34.75,1,63348,59379483
71,10,-0.724265,-0.0420169,9.79387,0.0462671,-0.636032,0.978069,-0.0072427,-0.00042748,0.0979386,1,3.57964e-05,-3.31408e-07,2.06063e-05,0.00715928,-6.62817e-05,0.00412127,0,0,0,0,0.0737942,0.527815,-0.970411,34.75,1,63349,59379583
71,11,-0.724265,-0.0420169,9.79387,0.0462671,-0.636032,0.978069,-0.0072427,-0.00042748,0.0979386,1,3.57964e-05,-3.31408e-07,2.06063e-05,0.00715928,-6.62817e-05,0.00412127,0,0,0,0,0.0737942,0.527815,-0.970411,34.75,1,63349,59379583
71,12,-0.698267,-0.0251161,9.79011,0.0721458,-0.617027,0.965071,-0.00698244,-0.000257465,0.0979011,1,3.05846e-05,1.07298e-06,2.26535e-05,0.00611693,0.000214595,0.00453069,0,0,0,0,0.0742098,0.528823,-0.972411,34.75,1,63350,59379683
72,1,-0.698267,-0.0251161,9.79011,0.0721458,-0.617027,0.965071,-0.00698244,-0.000257465,0.0979011,1,3.05846e-05,1.07298e-06,2.26535e-05,0.00611693,0.000214595,0.00453069,0,0,0,0,0.0742098,0.528823,-0.972411,34.75,1,63350,59379683
72,2,-0.66847,-0.0425302,9.79146,0.103515,-0.631034,0.969955,-0.00668718,-0.000433094,0.0979144,1,3.76607e-05,-1.27553e-05,3.12162e-05,0.00753214,-0.00255106,0.00624325,0,0,0,0,0.0732476,0.528831,-0.972406,34.75,1,63351,59379783
72,3,-0.66847,-0.0425302,9.79146,0.103515,-0.631034,0.969955,-0.00668718,-0.000433094,0.0979144,1,3.76607e-05,-1.27553e-05,3.12162e-05,0.00753214,-0.00255106,0.00624325,0,0,0,0,0.0732476,0.528831,-0.972406,34.75,1,63351,59379783
72,4,-0.652808,-0.0608855,9.77898,0.115336,-0.64957,0.951382,-0.00652846,-0.000616482,0.0977897,1,3.81861e-05,-1.99884e-06,1.21313e-05,0.00763722,-0.000399768,0.00242626,0,0,0,0,0.0723955,0.525867,-0.969943,34.75,1,63352,59379883
72,5,-0.652808,-0.0608855,9.77898,0.115336,-0.64957,0.951382,-0.00652846,-0.000616482,0.0977897,1,3.81861e-05,-1.99884e-06,1.21313e-05,0.00763722,-0.000399768,0.00242626,0,0,0,0,0.0723955,0.525867,-0.969943,34.75,1,63352,59379883
72,6,-0.675656,-0.0536606,9.79039,0.10299,-0.645375,0.9637,-0.00675545,-0.000541469,0.097904,1,2.39722e-05,5.60656e-06,1.25524e-05,0.00479445,0.00112131,0.00251047,0,0,0,0,0.0724405,0.525352,-0.968439,34.75,1,63353,59379983
72,7,-0.675656,-0.0536606,9.79039,0.10299,-0.645375,0.9637,-0.00675545,-0.000541469,0.097904,1,2.39722e-05,5.60656e-06,1.25524e-05,0.00479445,0.00112131,0.00251047,0,0,0,0,0.0724405,0.525352,-0.968439,34.75,1,63353,59379983
72,8,-0.702764,-0.0698583,9.79518,0.0728075,-0.659552,0.971114,-0.00702593,-0.000706605,0.0979518,1,3.95662e-05,8.60178e-06,1.92599e-05,0.00791324,0.00172036,0.00385198,0,0,0,0,0.0724244,0.526328,-0.968418,34.75,1,63354,59380083
73,1,-0.702764,-0.0698583,9.79518,0.0728075,-0.659552,0.971114,-0.00702593,-0.000706605,0.0979518,1,3.95662e-05,8.60178e-06,1.92599e-05,0.00791324,0.00172036,0.00385198,0,0,0,0,0.0724244,0.526328,-0.968418,34.75,1,63354,59380083
73,2,-0.734065,-0.0711649,9.78011,0.0387517,-0.662732,0.962895,-0.00734003,-0.000718415,0.0978011,1,3.40771e-05,3.1236e-06,6.79501e-06,0.00681541,0.00062472,0.001359,0,0,0,0,0.0723793,0.526843,-0.969921,34.75,1,63355,59380183
73,3,-0.734065,-0.0711649,9.78011,0.0387517,-0.662732,0.962895,-0.00734003,-0.000718415,0.0978011,1,3.40771e-05,3.1236e-06,6.79501e-06,0.00681541,0.00062472,0.001359,0,0,0,0,0.0723793,0.526843,-0.969921,34.75,1,63355,59380183
73,4,-0.735393,-0.0544086,9.78706,0.0372349,-0.644464,0.964648,-0.0073542,-0.000550646,0.0978705,1,3.32091e-05,-1.39871e-06,3.98774e-06,0.00664183,-0.000279742,0.000797548,0,0,0,0,0.0738146,0.527319,-0.969917,34.75,1,63356,59380283
73,5,-0.735393,-0.0544086,9.78706,0.0372349,-0.644464,0.964648,-0.0073542,-0.000550646,0.0978705,1,3.32091e-05,-1.39871e-06,3.98774e-06,0.00664183,-0.000279742,0.000797548,0,0,0,0,0.0738146,0.527319,-0.969917,34.75,1,63356,59380283
73,6,-0.715666,-0.0622744,9.77465,0.0529365,-0.652475,0.949336,-0.00715997,-0.000630491,0.0977462,1,3.90726e-05,-1.70006e-05,7.62592e-06,0.00781451,-0.00340012,0.00152518,0,0,0,0,0.0742468,0.528796,-0.970896,34.75,1,63357,59380383
74,1,-0.715666,-0.0622744,9.77465,0.0529365,-0.652475,0.949336,-0.00715997,-0.000630491,0.0977462,1,3.90726e-05,-1.70006e-05,7.62592e-06,0.00781451,-0.00340012,0.00152518,0,0,0,0,0.0742468,0.528796,-0.970896,34.75,1,63357,59380383
74,2,-0.694606,-0.0677986,9.787,0.0717316,-0.655958,0.962956,-0.00694619,-0.00068497,0.0978699,1,3.44682e-05,-8.06444e-07,1.70657e-05,0.00689363,-0.000161289,0.00341315,0,0,0,0,0.0738065,0.527806,-0.969906,34.75,1,63358,59380483
74,3,-0.694606,-0.0677986,9.787,0.0717316,-0.655958,0.962956,-0.00694619,-0.00068497,0.0978699,1,3.44682e-05,-8.06444e-07,1.70657e-05,0.00689363,-0.000161289,0.00341315,0,0,0,0,0.0738065,0.527806,-0.969906,34.75,1,63358,59380483
74,4,-0.634359,-0.0707722,9.79844,0.131738,-0.656587,0.968912,-0.00634153,-0.000714741,0.0979845,1,3.50289e-05,1.04455e-05,1.22152e-05,0.00700579,0.00208911,0.00244305,0,0,0,0,0.0728448,0.52926,-0.968859,34.75,1,63359,59380583
74,5,-0.634359,-0.0707722,9.79844,0.131738,-0.656587,0.968912,-0.00634153,-0.000714741,0.0979845,1,3.50289e-05,1.04455e-05,1.22152e-05,0.00700579,0.00208911,0.00244305,0,0,0,0,0.0728448,0.52926,-0.968859,34.75,1,63359,59380583
74,6,-0.533145,-0.0842048,9.80952,0.230524,-0.673012,0.970938,-0.00533042,-0.000850215,0.0980952,1,4.08012e-05,5.0983e-06,1.51601e-05,0.00816024,0.00101966,0.00303201,0,0,0,0,0.0742554,0.529753,-0.969865,34.75,1,63360,59380683
75,1,-0.533145,-0.0842048,9.80952,0.230524,-0.673012,0.970938,-0.00533042,-0.000850215,0.0980952,1,4.08012e-05,5.0983e-06,1.51601e-05,0.00816024,0.00101966,0.00303201,0,0,0,0,0.0742554,0.529753,-0.969865,34.75,1,63360,59380683
75,2,-0.483822,-0.0616333,9.82531,0.298429,-0.652731,0.992089,-0.00483317,-0.000627178,0.0982533,1,5.42234e-05,2.55496e-05,1.96532e-05,0.0108447,0.00510992,0.00393065,0,0,0,0,0.0737126,0.529803,-0.972387,34.75,1,63361,59380783
75,3,-0.483822,-0.0616333,9.82531,0.298429,-0.652731,0.992089,-0.00483317,-0.000627178,0.0982533,1,5.42234e-05,2.55496e-05,1.96532e-05,0.0108447,0.00510992,0.00393065,0,0,0,0,0.0737126,0.529803,-0.972387,34.75,1,63361,59380783
75,4,-0.50883,-0.0451511,9.78829,0.257654,-0.633887,0.950389,-0.00508055,-0.000460771,0.0978833,1,4.71732e-05,3.95906e-05,2.42921e-06,0.00943464,0.00791813,0.000485841,0,0,0,0,0.0737249,0.529794,-0.971882,34.75,1,63362,59380883
75,5,-0.50883,-0.0451511,9.78829,0.257654,-0.633887,0.950389,-0.00508055,-0.000460771,0.0978833,1,4.71732e-05,3.95906e-05,2.42921e-06,0.00943464,0.00791813,0.000485841,0,0,0,0,0.0737249,0.529794,-0.971882,34.75,1,63362,59380883
75,6,-0.474992,-0.0487224,9.80941,0.298356,-0.638188,0.973612,-0.00474113,-0.000497741,0.0980944,1,5.27371e-05,4.47165e-05,1.79875e-05,0.0105474,0.0089433,0.00359751,0,0,0,0,0.0732642,0.529301,-0.971386,34.75,1,63363,59380983
76,1,-0.474992,-0.0487224,9.80941,0.298356,-0.638188,0.973612,-0.00474113,-0.000497741,0.0980944,1,5.27371e-05,4.47165e-05,1.79875e-05,0.0105474,0.0089433,0.00359751,0,0,0,0,0.0732642,0.529301,-0.971386,34.75,1,63363,59380983
76,2,-0.469918,-0.0546422,9.80424,0.312379,-0.647124,0.963305,-0.00468924,-0.000554463,0.0980428,1,4.01845e-05,5.06249e-05,1.71718e-05,0.0080369,0.010125,0.00343437,0,0,0,0,0.0733458,0.527314,-0.96941,34.75,1,63364,59381083
76,3,-0.469918,-0.0546422,9.80424,0.312379,-0.647124,0.963305,-0.00468924,-0.000554463,0.0980428,1,4.01845e-05,5.06249e-05,1.71718e-05,0.0080369,0.010125,0.00343437,0,0,0,0,0.0733458,0.527314,-0.96941,34.75,1,63364,59381083
76,4,-0.506484,-0.0425269,9.79881,0.279317,-0.639645,0.962501,-0.00505495,-0.000434908,0.0979886,1,4.77973e-05,5.0323e-05,2.68914e-05,0.00955945,0.0100646,0.00537828,0,0,0,0,0.0719067,0.527804,-0.968888,34.75,1,63365,59381183
76,5,-0.506484,-0.0425269,9.79881,0.279317,-0.639645,0.962501,-0.00505495,-0.000434908,0.0979886,1,4.77973e-05,5.0323e-05,2.68914e-05,0.00955945,0.0100646,0.00537828,0,0,0,0,0.0719067,0.527804,-0.968888,34.75,1,63365,59381183
76,6,-0.578891,-0.0524289,9.79752,0.210507,-0.64515,0.965285,-0.00577842,-0.000530887,0.0979758,1,3.26595e-05,5.34356e-05,1.7168e-05,0.00653191,0.0106871,0.0034336,0,0,0,0,0.0728775,0.528754,-0.967861,34.75,1,63366,59381283
76,7,-0.578891,-0.0524289,9.79752,0.210507,-0.64515,0.965285,-0.00577842,-0.000530887,0.0979758,1,3.26595e-05,5.34356e-05,1.7168e-05,0.00653191,0.0106871,0.0034336,0,0,0,0,0.0728775,0.528754,-0.967861,34.75,1,63366,59381283
76,8,-0.726393,-0.0641756,9.78958,0.0741673,-0.660098,0.966677,-0.00725252,-0.00064925,0.0978966,1,3.69849e-05,5.82077e-05,1.74116e-05,0.00739697,0.0116415,0.00348232,0,0,0,0,0.0752338,0.52877,-0.969891,34.75,1,63367,59381383
77,1,-0.726393,-0.0641756,9.78958,0.0741673,-0.660098,0.966677,-0.00725252,-0.00064925,0.0978966,1,3.69849e-05,5.82077e-05,1.74116e-05,0.00739697,0.0116415,0.00348232,0,0,0,0,0.0752338,0.52877,-0.969891,34.75,1,63367,59381383
77,2,-0.780041,-0.0441538,9.7959,-0.00981574,-0.648362,0.985049,-0.00779206,-0.000451198,0.0979596,1,4.80282e-05,4.25225e-05,1.60502e-05,0.00960564,0.00850451,0.00321004,0,0,0,0,0.0746948,0.527852,-0.97294,34.75,1,63368,59381483
77,3,-0.780041,-0.0441538,9.7959,-0.00981574,-0.648362,0.985049,-0.00779206,-0.000451198,0.0979596,1,4.80282e-05,4.25225e-05,1.60502e-05,0.00960564,0.00850451,0.00321004,0,0,0,0,0.0746948,0.527852,-0.97294,34.75,1,63368,59381483
77,4,-0.743461,-0.0167101,9.78843,0.0381995,-0.612379,0.962927,-0.0074308,-0.000177197,0.0978846,1,4.97846e-05,1.94163e-05,2.35496e-05,0.00995692,0.00388326,0.00470992,0,0,0,0,0.0742302,0.528326,-0.971917,34.75,1,63369,59381583
77,5,-0.743461,-0.0167101,9.78843,0.0381995,-0.612379,0.962927,-0.0074308,-0.000177197,0.0978846,1,4.97846e-05,1.94163e-05,2.35496e-05,0.00995692,0.00388326,0.00470992,0,0,0,0,0.0742302,0.528326,-0.971917,34.75,1,63369,59381583
77,6,-0.612447,0.0105783,9.84001,0.218332,-0.591129,1.02899,-0.00611485,0.000103149,0.0984007,1,1.19952e-05,4.89037e-05,2.23446e-05,0.00239903,0.00978073,0.00446892,0,0,0,0,0.073342,0.52828,-0.968884,34.75,1,63370,59381683
78,1,-0.612447,0.0105783,9.84001,0.218332,-0.591129,1.02899,-0.00611485,0.000103149,0.0984007,1,1.19952e-05,4.89037e-05,2.23446e-05,0.00239903,0.00978073,0.00446892,0,0,0,0,0.073342,0.52828,-0.968884,34.75,1,63370,59381683
78,2,-0.921395,-0.0639212,9.79159,-0.179205,-0.706295,0.971133,-0.00920746,-0.000643286,0.0979165,1,1.92725e-05,3.30549e-05,1.62944e-05,0.00385451,0.00661097,0.00325887,0,0,0,0,0.0733263,0.530701,-0.96782,34.75,1,63371,59381783
78,3,-0.921395,-0.0639212,9.79159,-0.179205,-0.706295,0.971133,-0.00920746,-0.000643286,0.0979165,1,1.92725e-05,3.30549e-05,1.62944e-05,0.00385451,0.00661097,0.00325887,0,0,0,0,0.0733263,0.530701,-0.96782,34.75,1,63371,59381783
78,4,-1.05002,-0.110192,9.75713,-0.337102,-0.739133,0.947026,-0.0104934,-0.00110667,0.0975719,1,2.07911e-05,3.39975e-05,3.27261e-05,0.00415823,0.00679949,0.00654521,0,0,0,0,0.0752304,0.531182,-0.968323,34.75,1,63372,59381883
78,5,-1.05002,-0.110192,9.75713,-0.337102,-0.739133,0.947026,-0.0104934,-0.00110667,0.0975719,1,2.07911e-05,3.39975e-05,3.27261e-05,0.00415823,0.00679949,0.00654521,0,0,0,0,0.0752304,0.531182,-0.968323,34.75,1,63372,59381883
78,6,-1.08834,-0.134749,9.71917,-0.295332,-0.795005,0.926295,-0.0108729,-0.00135411,0.0971927,1,2.935e-05,5.2963e-05,4.22588e-05,0.00587001,0.0105926,0.00845177,0,0,0,0,0.0756949,0.530708,-0.969346,34.75,1,63373,59381983
79,1,-1.08834,-0.134749,9.71917,-0.295332,-0.795005,0.926295,-0.0108729,-0.00135411,0.0971927,1,2.935e-05,5.2963e-05,4.22588e-05,0.00587001,0.0105926,0.00845177,0,0,0,0,0.0756949,0.530708,-0.969346,34.75,1,63373,59381983
79,2,-1.36268,-0.0905778,9.74109,-0.553489,-0.748061,0.957347,-0.0136215,-0.000912059,0.0974116,1,2.89943e-05,2.72149e-05,2.31951e-05,0.00579886,0.00544298,0.00463901,0,0,0,0,0.0756494,0.529777,-0.971891,34.75,1,63374,59382083
79,3,-1.36268,-0.0905778,9.74109,-0.553489,-0.748061,0.957347,-0.0136215,-0.000912059,0.0974116,1,2.89943e-05,2.72149e-05,2.31951e-05,0.00579886,0.00544298,0.00463901,0,0,0,0,0.0756494,0.529777,-0.971891,34.75,1,63374,59382083
79,4,-1.34161,-0.0300357,9.71709,-0.589224,-0.679805,0.942821,-0.0134182,-0.000306544,0.0971705,1,2.80963e-05,-1.09124e-05,2.70659e-05,0.00561927,-0.00218248,0.00541317,0,0,0,0,0.074699,0.528331,-0.972424,34.75,1,63375,59382183
79,5,-1.34161,-0.0300357,9.71709,-0.589224,-0.679805,0.942821,-0.0134182,-0.000306544,0.0971705,1,2.80963e-05,-1.09124e-05,2.70659e-05,0.00561927,-0.00218248,0.00541317,0,0,0,0,0.074699,0.528331,-0.972424,34.75,1,63375,59382183
79,6,-1.19702,0.0229507,9.71116,-0.42317,-0.589299,0.931183,-0.0119767,0.000222075,0.0971108,1,3.59752e-05,-3.33712e-05,1.85572e-05,0.00719504,-0.00667425,0.00371144,0,0,0,0,0.0747645,0.52732,-0.970427,34.75,1,63376,59382283
80,1,-1.19702,0.0229507,9.71116,-0.42317,-0.589299,0.931183,-0.0119767,0.000222075,0.0971108,1,3.59752e-05,-3.33712e-05,1.85572e-05,0.00719504,-0.00667425,0.00371144,0,0,0,0,0.0747645,0.52732,-0.970427,34.75,1,63376,59382283
80,2,-0.97309,-0.0556674,9.73371,-0.17139,-0.664366,0.933779,-0.00973453,-0.000562231,0.0973367,1,2.72727e-05,-1.87234e-05,1.27353e-05,0.00545455,-0.00374468,0.00254706,0,0,0,0,0.0743451,0.527278,-0.9679,34.75,3,63377,59382383
80,3,-0.97309,-0.0556674,9.73371,-0.17139,-0.664366,0.933779,-0.00973453,-0.000562231,0.0973367,1,2.72727e-05,-1.87234e-05,1.27353e-05,0.00545455,-0.00374468,0.00254706,0,0,0,0,0.0743451,0.527278,-0.9679,34.75,3,63377,59382383
80,4,-1.07852,-0.106029,9.74448,-0.272822,-0.687972,0.956009,-0.0107844,-0.00106391,0.0974448,1,1.60466e-05,3.75152e-06,2.28882e-05,0.00320932,0.000750303,0.00457764,0,0,0,0,0.0767796,0.527719,-0.966387,34.75,3,63378,59382483
80,5,-1.07852,-0.106029,9.74448,-0.272822,-0.687972,0.956009,-0.0107844,-0.00106391,0.0974448,1,1.60466e-05,3.75152e-06,2.28882e-05,0.00320932,0.000750303,0.00457764,0,0,0,0,0.0767796,0.527719,-0.966387,34.75,3,63378,59382483
80,6,-1.21638,-0.132533,9.73705,-0.41937,-0.733792,0.950006,-0.0121636,-0.00133339,0.0973704,1,3.91303e-05,9.6522e-07,1.80267e-05,0.00782606,0.000193044,0.00360534,0,0,0,0,0.0766894,0.528749,-0.969394,34.75,3,63379,59382583
80,7,-1.21638,-0.132533,9.73705,-0.41937,-0.733792,0.950006,-0.0121636,-0.00133339,0.0973704,1,3.91303e-05,9.6522e-07,1.80267e-05,0.00782606,0.000193044,0.00360534,0,0,0,0,0.0766894,0.528749,-0.969394,34.75,3,63379,59382583
80,8,-1.19128,-0.0287579,9.73303,-0.434584,-0.645911,0.938838,-0.0119146,-0.000297686,0.0973301,1,5.06044e-05,-9.18979e-06,1.07628e-05,0.0101209,-0.00183796,0.00215257,0,0,0,0,0.076122,0.528816,-0.972925,34.75,3,63380,59382683
81,1,-1.19128,-0.0287579,9.73303,-0.434584,-0.645911,0.938838,-0.0119146,-0.000297686,0.0973301,1,5.06044e-05,-9.18979e-06,1.07628e-05,0.0101209,-0.00183796,0.00215257,0,0,0,0,0.076122,0.528816,-0.972925,34.75,3,63380,59382683
81,2,-1.06172,-0.0170076,9.74413,-0.323874,-0.635213,0.95178,-0.0106191,-0.00017615,0.0974411,1,2.93013e-05,-1.02199e-05,1.71553e-05,0.00586026,-0.00204398,0.00343107,0,0,0,0,0.075192,0.526873,-0.972964,34.75,3,63381,59382783
81,3,-1.06172,-0.0170076,9.74413,-0.323874,-0.635213,0.95178,-0.0106191,-0.00017615,0.0974411,1,2.93013e-05,-1.02199e-05,1.71553e-05,0.00586026,-0.00204398,0.00343107,0,0,0,0,0.075192,0.526873,-0.972964,34.75,3,63381,59382783
81,4,-0.992832,0.00685284,9.75608,-0.204435,-0.593171,0.945503,-0.00992897,6.48261e-05,0.0975607,1,1.82819e-05,-3.29503e-06,6.80049e-06,0.00365637,-0.000659006,0.0013601,0,0,0,0,0.0733866,0.52632,-0.968422,34.75,3,63382,59382883
81,5,-0.992832,0.00685284,9.75608,-0.204435,-0.593171,0.945503,-0.00992897,6.48261e-05,0.0975607,1,1.82819e-05,-3.29503e-06,6.80049e-06,0.00365637,-0.000659006,0.0013601,0,0,0,0,0.0733866,0.52632,-0.968422,34.75,3,63382,59382883
81,6,-0.9483,-0.0267713,9.76737,-0.17474,-0.625805,0.959704,-0.00948396,-0.000271391,0.0976736,1,1.89617e-05,-4.87822e-06,-1.41188e-06,0.00379235,-0.000975643,-0.000282375,0,0,0,0,0.0729264,0.527272,-0.966884,34.75,3,63383,59382983
82,1,-0.9483,-0.0267713,9.76737,-0.17474,-0.625805,0.959704,-0.00948396,-0.000271391,0.0976736,1,1.89617e-05,-4.87822e-06,-1.41188e-06,0.00379235,-0.000975643,-0.000282375,0,0,0,0,0.0729264,0.527272,-0.966884,34.75,3,63383,59382983
82,2,-0.795697,-0.0954697,9.78779,0.000294975,-0.646752,0.952876,-0.00795615,-0.000958089,0.097878,1,1.62553e-05,4.03818e-06,1.31856e-05,0.00325106,0.000807637,0.00263713,0,0,0,0,0.0748385,0.527265,-0.967398,34.75,3,63384,59383083
82,3,-0.795697,-0.0954697,9.78779,0.000294975,-0.646752,0.952876,-0.00795615,-0.000958089,0.097878,1,1.62553e-05,4.03818e-06,1.31856e-05,0.00325106,0.000807637,0.00263713,0,0,0,0,0.0748385,0.527265,-0.967398,34.75,3,63384,59383083
82,4,-0.829775,-0.0982099,9.76935,-0.0547644,-0.66549,0.959274,-0.00829759,-0.000992108,0.0976934,1,5.19939e-05,9.1628e-07,-9.00013e-06,0.0103988,0.000183256,-0.00180003,0,0,0,0,0.0733667,0.528262,-0.967874,34.75,3,63385,59383183
82,5,-0.829775,-0.0982099,9.76935,-0.0547644,-0.66549,0.959274,-0.00829759,-0.000992108,0.0976934,1,5.19939e-05,9.1628e-07,-9.00013e-06,0.0103988,0.000183256,-0.00180003,0,0,0,0,0.0733667,0.528262,-0.967874,34.75,3,63385,59383183
82,6,-0.912041,-0.122884,9.78496,-0.137426,-0.769321,0.974277,-0.00911912,-0.00123751,0.0978497,1,4.41894e-05,6.57926e-06,1.31825e-06,0.00883788,0.00131585,0.00026365,0,0,0,0,0.0738474,0.526813,-0.968919,34.75,3,63386,59383283
83,1,-0.912041,-0.122884,9.78496,-0.137426,-0.769321,0.974277,-0.00911912,-0.00123751,0.0978497,1,4.41894e-05,6.57926e-06,1.31825e-06,0.00883788,0.00131585,0.00026365,0,0,0,0,0.0738474,0.526813,-0.968919,34.75,3,63386,59383283
83,2,-0.761362,-0.0292695,9.76303,0.0148757,-0.668512,0.951041,-0.00761457,-0.00029867,0.0976302,1,3.081e-05,-4.85805e-06,-2.72823e-06,0.006162,-0.00097161,-0.000545646,0,0,0,0,0.0747683,0.526353,-0.970953,34.75,3,63387,59383383
83,3,-0.761362,-0.0292695,9.76303,0.0148757,-0.668512,0.951041,-0.00761457,-0.00029867,0.0976302,1,3.081e-05,-4.85805e-06,-2.72823e-06,0.006162,-0.00097161,-0.000545646,0,0,0,0,0.0747683,0.526353,-0.970953,34.75,3,63387,59383383
83,4,-0.620764,-0.0780915,9.77862,0.161675,-0.707083,0.960597,-0.00620806,-0.000790472,0.0977861,1,4.80674e-05,-2.2593e-06,1.2588e-05,0.00961348,-0.000451859,0.0025176,0,0,0,0,0.0733416,0.526835,-0.969926,34.75,3,63388,59383483
83,5,-0.620764,-0.0780915,9.77862,0.161675,-0.707083,0.960597,-0.00620806,-0.000790472,0.0977861,1,4.80674e-05,-2.2593e-06,1.2588e-05,0.00961348,-0.000451859,0.0025176,0,0,0,0,0.0733416,0.526835,-0.969926,34.75,3,63388,59383483
83,6,-0.530701,-0.073195,9.79569,0.256075,-0.669548,0.957166,-0.00530344,-0.000740828,0.0979571,1,4.37612e-05,1.80114e-05,2.87423e-05,0.00875223,0.00360228,0.00574846,0,0,0,0,0.0738151,0.528764,-0.968875,34.75,3,63389,59383583
84,1,-0.530701,-0.073195,9.79569,0.256075,-0.669548,0.957166,-0.00530344,-0.000740828,0.0979571,1,4.37612e-05,1.80114e-05,2.87423e-05,0.00875223,0.00360228,0.00574846,0,0,0,0,0.0738151,0.528764,-0.968875,34.75,3,63389,59383583
84,2,-0.477192,-0.0717789,9.80314,0.311183,-0.642315,0.95788,-0.00477098,-0.000728713,0.0980314,1,5.5002e-05,4.70285e-06,1.4689e-05,0.0110004,0.00094057,0.00293779,0,0,0,0,0.0762453,0.528726,-0.967877,34.75,3,63390,59383683
84,3,-0.477192,-0.0717789,9.80314,0.311183,-0.642315,0.95788,-0.00477098,-0.000728713,0.0980314,1,5.5002e-05,4.70285e-06,1.4689e-05,0.0110004,0.00094057,0.00293779,0,0,0,0,0.0762453,0.528726,-0.967877,34.75,3,63390,59383683
84,4,-0.473788,-0.0847598,9.8125,0.319603,-0.646929,0.975024,-0.00473414,-0.000858567,0.0981251,1,5.47709e-05,1.88982e-05,2.33022e-05,0.0109542,0.00377964,0.00466044,0,0,0,0,0.0757642,0.52873,-0.967875,34.75,3,63391,59383783
84,5,-0.473788,-0.0847598,9.8125,0.319603,-0.646929,0.975024,-0.00473414,-0.000858567,0.0981251,1,5.47709e-05,1.88982e-05,2.33022e-05,0.0109542,0.00377964,0.00466044,0,0,0,0,0.0757642,0.52873,-0.967875,34.75,3,63391,59383783
84,6,-0.453415,-0.0879558,9.81641,0.37168,-0.657976,0.942167,-0.00452907,-0.000890348,0.0981642,1,5.49705e-05,2.58757e-05,-2.38059e-07,0.0109941,0.00517515,-4.76118e-05,0,0,0,0,0.0757234,0.529723,-0.968862,34.75,3,63392,59383883
85,1,-0.453415,-0.0879558,9.81641,0.37168,-0.657976,0.942167,-0.00452907,-0.000890348,0.0981642,1,5.49705e-05,2.58757e-05,-2.38059e-07,0.0109941,0.00517515,-4.76118e-05,0,0,0,0,0.0757234,0.529723,-0.968862,34.75,3,63392,59383883
85,2,-0.362589,-0.102696,9.80824,0.400584,-0.740734,0.964871,-0.00362366,-0.00104133,0.0980823,1,7.32132e-05,1.13308e-05,1.45937e-06,0.0146426,0.00226617,0.000291875,0,0,0,0,0.0751887,0.529285,-0.971395,34.75,3,63393,59383983
85,3,-0.362589,-0.102696,9.80824,0.400584,-0.740734,0.964871,-0.00362366,-0.00104133,0.0980823,1,7.32132e-05,1.13308e-05,1.45937e-06,0.0146426,0.00226617,0.000291875,0,0,0,0,0.0751887,0.529285,-0.971395,34.75,3,63393,59383983
85,4,-0.372941,-0.0334711,9.77802,0.397183,-0.703537,0.952013,-0.00372797,-0.000344675,0.0977803,1,5.08614e-05,7.36332e-06,2.47924e-06,0.0101723,0.00147266,0.000495849,0,0,0,0,0.0752537,0.526828,-0.97044,34.75,3,63394,59384083
85,5,-0.372941,-0.0334711,9.77802,0.397183,-0.703537,0.952013,-0.00372797,-0.000344675,0.0977803,1,5.08614e-05,7.36332e-06,2.47924e-06,0.0101723,0.00147266,0.000495849,0,0,0,0,0.0752537,0.526828,-0.97044,34.75,3,63394,59384083
85,6,-0.410265,-0.0301511,9.80647,0.421255,-0.813338,1.01301,-0.0041002,-0.000313169,0.0980648,1,5.90941e-05,1.24268e-05,8.29367e-06,0.0118188,0.00248536,0.00165873,0,0,0,0,0.077236,0.527733,-0.967399,34.75,3,63395,59384183
85,7,-0.410265,-0.0301511,9.80647,0.421255,-0.813338,1.01301,-0.0041002,-0.000313169,0.0980648,1,5.90941e-05,1.24268e-05,8.29367e-06,0.0118188,0.00248536,0.00165873,0,0,0,0,0.077236,0.527733,-0.967399,34.75,3,63395,59384183
85,8,-0.361643,-0.0521963,9.83414,0.424469,-0.861002,1.02901,-0.00361959,-0.000528087,0.0983413,1,3.05158e-05,-1.614e-05,1.68351e-05,0.00610316,-0.00322801,0.00336702,0,0,0,0,0.0772569,0.528682,-0.965862,34.75,3,63396,59384283
85,9,-0.361643,-0.0521963,9.83414,0.424469,-0.861002,1.02901,-0.00361959,-0.000528087,0.0983413,1,3.05158e-05,-1.614e-05,1.68351e-05,0.00610316,-0.00322801,0.00336702,0,0,0,0,0.0772569,0.528682,-0.965862,34.75,3,63396,59384283
85,10,-0.459759,-0.120936,9.83185,0.360767,-0.868144,0.995237,-0.00460038,-0.00121642,0.0983182,1,3.51091e-05,-1.43791e-05,1.69941e-05,0.00702181,-0.00287582,0.00339883,0,0,0,0,0.0753035,0.528237,-0.967378,34.75,3,63397,59384383
86,1,-0.459759,-0.120936,9.83185,0.360767,-0.868144,0.995237,-0.00460038,-0.00121642,0.0983182,1,3.51091e-05,-1.43791e-05,1.69941e-05,0.00702181,-0.00287582,0.00339883,0,0,0,0,0.0753035,0.528237,-0.967378,34.75,3,63397,59384383
86,2,-0.447224,-0.0937589,9.81535,0.347381,-0.723661,0.971172,-0.00447941,-0.000943192,0.0981532,1,2.8517e-05,-3.65192e-05,5.48895e-07,0.0057034,-0.00730383,0.000109779,0,0,0,0,0.0757229,0.528278,-0.969905,34.75,3,63398,59384483
86,3,-0.447224,-0.0937589,9.81535,0.347381,-0.723661,0.971172,-0.00447941,-0.000943192,0.0981532,1,2.8517e-05,-3.65192e-05,5.48895e-07,0.0057034,-0.00730383,0.000109779,0,0,0,0,0.0757229,0.528278,-0.969905,34.75,3,63398,59384483
86,4,-0.416415,-0.10189,9.83745,0.371263,-0.656645,0.980829,-0.00417125,-0.00102789,0.0983741,1,4.59271e-05,-3.60585e-05,-5.56857e-06,0.00918543,-0.00721169,-0.00111371,0,0,0,0,0.0747645,0.52732,-0.970427,34.75,3,63399,59384583
86,5,-0.416415,-0.10189,9.83745,0.371263,-0.656645,0.980829,-0.00417125,-0.00102789,0.0983741,1,4.59271e-05,-3.60585e-05,-5.56857e-06,0.00918543,-0.00721169,-0.00111371,0,0,0,0,0.0747645,0.52732,-0.970427,34.75,3,63399,59384583
86,6,-0.421127,-0.120492,9.82815,0.36755,-0.680084,0.971604,-0.00421887,-0.00121627,0.098281,1,5.76785e-05,-3.87023e-05,2.49315e-06,0.0115357,-0.00774046,0.00049863,0,0,0,0,0.0743446,0.525833,-0.968943,34.75,3,63400,59384683
87,1,-0.421127,-0.120492,9.82815,0.36755,-0.680084,0.971604,-0.00421887,-0.00121627,0.098281,1,5.76785e-05,-3.87023e-05,2.49315e-06,0.0115357,-0.00774046,0.00049863,0,0,0,0,0.0743446,0.525833,-0.968943,34.75,3,63400,59384683
87,2,-0.386863,-0.0751401,9.8076,0.402714,-0.666311,0.961099,-0.00387072,-0.000764843,0.0980758,1,6.8169e-05,-1.07476e-05,9.10104e-06,0.0136338,-0.00214953,0.00182021,0,0,0,0,0.0748224,0.528241,-0.967376,34.75,3,63401,59384783
87,3,-0.386863,-0.0751401,9.8076,0.402714,-0.666311,0.961099,-0.00387072,-0.000764843,0.0980758,1,6.8169e-05,-1.07476e-05,9.10104e-06,0.0136338,-0.00214953,0.00182021,0,0,0,0,0.0748224,0.528241,-0.967376,34.75,3,63401,59384783
87,4,-0.491908,-0.138076,9.76572,0.347816,-0.667487,0.904039,-0.00492271,-0.00138487,0.097657,1,2.00926e-05,-1.8848e-05,1.95653e-05,0.00401852,-0.00376959,0.00391306,0,0,0,0,0.0767758,0.528686,-0.96586,34.75,3,63402,59384883
87,5,-0.491908,-0.138076,9.76572,0.347816,-0.667487,0.904039,-0.00492271,-0.00138487,0.097657,1,2.00926e-05,-1.8848e-05,1.95653e-05,0.00401852,-0.00376959,0.00391306,0,0,0,0,0.0767758,0.528686,-0.96586,34.75,3,63402,59384883
87,6,-0.111428,0.0676331,9.89351,0.809265,-0.286299,0.989351,-0.0011177,0.000674718,0.098935,1,8.05182e-06,-1.72227e-05,8.81494e-06,0.00161037,-0.00344455,0.00176299,0,0,0,0,0.0767426,0.527746,-0.967901,34.75,3,63403,59384983
88,1,-0.111428,0.0676331,9.89351,0.809265,-0.286299,0.989351,-0.0011177,0.000674718,0.098935,1,8.05182e-06,-1.72227e-05,8.81494e-06,0.00161037,-0.00344455,0.00176299,0,0,0,0,0.0767426,0.527746,-0.967901,34.75,3,63403,59384983
88,2,-0.289389,-0.235051,9.74896,0.468033,-0.665529,0.856458,-0.00289831,-0.00236164,0.0974892,1,5.70266e-05,-2.27116e-05,2.19141e-06,0.0114053,-0.00454231,0.000438281,0,0,0,0,0.0762287,0.528256,-0.968897,34.75,3,63404,59385083
88,3,-0.289389,-0.235051,9.74896,0.468033,-0.665529,0.856458,-0.00289831,-0.00236164,0.0974892,1,5.70266e-05,-2.27116e-05,2.19141e-06,0.0114053,-0.00454231,0.000438281,0,0,0,0,0.0762287,0.528256,-0.968897,34.75,3,63404,59385083
88,4,-0.483074,-0.0696444,9.79714,0.271778,-0.545757,0.954555,-0.00483294,-0.000710081,0.0979712,1,6.92477e-05,-1.12654e-05,7.08554e-06,0.0138495,-0.00225309,0.00141711,0,0,0,0,0.0761713,0.52878,-0.970906,34.75,3,63405,59385183
88,5,-0.483074,-0.0696444,9.79714,0.271778,-0.545757,0.954555,-0.00483294,-0.000710081,0.0979712,1,6.92477e-05,-1.12654e-05,7.08554e-06,0.0138495,-0.00225309,0.00141711,0,0,0,0,0.0761713,0.52878,-0.970906,34.75,3,63405,59385183
88,6,-0.442273,-0.0570246,9.8234,0.3871,-0.624215,0.976452,-0.00442536,-0.000580151,0.0982339,1,5.00735e-05,-1.34276e-05,7.67799e-06,0.0100147,-0.00268552,0.0015356,0,0,0,0,0.0766847,0.526825,-0.970952,34.75,3,63406,59385283
89,1,-0.442273,-0.0570246,9.8234,0.3871,-0.624215,0.976452,-0.00442536,-0.000580151,0.0982339,1,5.00735e-05,-1.34276e-05,7.67799e-06,0.0100147,-0.00268552,0.0015356,0,0,0,0,0.0766847,0.526825,-0.970952,34.75,3,63406,59385283
89,2,-0.688635,-0.0572423,9.7864,0.111682,-0.668496,0.961338,-0.00688956,-0.000579719,0.0978637,1,3.62714e-05,-1.64822e-05,1.43182e-05,0.00725428,-0.00329643,0.00286364,0,0,0,0,0.0767302,0.527755,-0.968406,34.75,3,63407,59385383
89,3,-0.688635,-0.0572423,9.7864,0.111682,-0.668496,0.961338,-0.00688956,-0.000579719,0.0978637,1,3.62714e-05,-1.64822e-05,1.43182e-05,0.00725428,-0.00329643,0.00286364,0,0,0,0,0.0767302,0.527755,-0.968406,34.75,3,63407,59385383
89,4,-0.628703,-0.0855766,9.76608,0.130097,-0.72304,0.929839,-0.00629325,-0.000869346,0.0976603,1,6.82324e-05,-3.20184e-05,2.00863e-05,0.0136465,-0.00640367,0.00401726,0,0,0,0,0.0757723,0.528242,-0.967885,34.75,3,63408,59385483
90,1,-0.628703,-0.0855766,9.76608,0.130097,-0.72304,0.929839,-0.00629325,-0.000869346,0.0976603,1,6.82324e-05,-3.20184e-05,2.00863e-05,0.0136465,-0.00640367,0.00401726,0,0,0,0,0.0757723,0.528242,-0.967885,34.75,3,63408,59385483
90,2,-0.641328,-0.0366469,9.78999,0.143939,-0.654374,0.963727,-0.00642044,-0.000376582,0.0978994,1,5.16192e-05,-3.65753e-05,5.34364e-07,0.0103238,-0.00731507,0.000106873,0,0,0,0,0.0762164,0.528265,-0.969402,34.75,3,63409,59385583
90,3,-0.641328,-0.0366469,9.78999,0.143939,-0.654374,0.963727,-0.00642044,-0.000376582,0.0978994,1,5.16192e-05,-3.65753e-05,5.34364e-07,0.0103238,-0.00731507,0.000106873,0,0,0,0,0.0762164,0.528265,-0.969402,34.75,3,63409,59385583
90,4,-0.812385,-0.0635923,9.7909,-0.00575489,-0.671239,0.966545,-0.00812654,-0.000645987,0.0979087,1,4.89336e-05,-1.39274e-05,2.9668e-05,0.00978673,-0.00278549,0.00593359,0,0,0,0,0.0761917,0.528283,-0.970412,34.75,3,63410,59385683
91,1,-0.812385,-0.0635923,9.7909,-0.00575489,-0.671239,0.966545,-0.00812654,-0.000645987,0.0979087,1,4.89336e-05,-1.39274e-05,2.9668e-05,0.00978673,-0.00278549,0.00593359,0,0,0,0,0.0761917,0.528283,-0.970412,34.75,3,63410,59385683
91,2,-0.865487,-0.0798207,9.7935,-0.0724633,-0.653652,0.975885,-0.00866144,-0.000807829,0.0979344,1,4.60166e-05,-3.38557e-05,3.51144e-05,0.00920331,-0.00677114,0.00702288,0,0,0,0,0.0733012,0.529274,-0.969871,34.75,3,63411,59385783
91,3,-0.865487,-0.0798207,9.7935,-0.0724633,-0.653652,0.975885,-0.00866144,-0.000807829,0.0979344,1,4.60166e-05,-3.38557e-05,3.51144e-05,0.00920331,-0.00677114,0.00702288,0,0,0,0,0.0733012,0.529274,-0.969871,34.75,3,63411,59385783
91,4,-0.922929,-0.0502579,9.78364,-0.144915,-0.650537,0.971117,-0.00923395,-0.000515667,0.0978359,1,6.42185e-05,-2.39874e-05,2.82821e-05,0.0128437,-0.00479749,0.00565641,0,0,0,0,0.0733505,0.529238,-0.967852,34.75,3,63412,59385883
92,1,-0.922929,-0.0502579,9.78364,-0.144915,-0.650537,0.971117,-0.00923395,-0.000515667,0.0978359,1,6.42185e-05,-2.39874e-05,2.82821e-05,0.0128437,-0.00479749,0.00565641,0,0,0,0,0.0733505,0.529238,-0.967852,34.75,3,63412,59385883
92,2,-0.957274,-0.0270997,9.75998,-0.191337,-0.634121,0.958247,-0.00957888,-0.000283313,0.0975991,1,6.06459e-05,-3.15066e-05,2.49707e-05,0.0121292,-0.00630133,0.00499413,0,0,0,0,0.0728201,0.529278,-0.969869,34.75,3,63413,59385983
92,3,-0.957274,-0.0270997,9.75998,-0.191337,-0.634121,0.958247,-0.00957888,-0.000283313,0.0975991,1,6.06459e-05,-3.15066e-05,2.49707e-05,0.0121292,-0.00630133,0.00499413,0,0,0,0,0.0728201,0.529278,-0.969869,34.75,3,63413,59385983
92,4,-0.901604,-0.0515153,9.75499,-0.123553,-0.667249,0.952467,-0.00902343,-0.00052631,0.0975491,1,5.41453e-05,-3.80722e-05,3.28647e-05,0.0108291,-0.00761445,0.00657294,0,0,0,0,0.0737985,0.528294,-0.969895,34.75,3,63414,59386083
92,5,-0.901604,-0.0515153,9.75499,-0.123553,-0.667249,0.952467,-0.00902343,-0.00052631,0.0975491,1,5.41453e-05,-3.80722e-05,3.28647e-05,0.0108291,-0.00761445,0.00657294,0,0,0,0,0.0737985,0.528294,-0.969895,34.75,3,63414,59386083
92,6,-0.868346,-0.129436,9.77105,-0.0918719,-0.749577,0.960843,-0.00868939,-0.00130531,0.0977098,1,5.32808e-05,-3.07225e-05,3.12909e-05,0.0106562,-0.00614451,0.00625817,0,0,0,0,0.0747569,0.529253,-0.969374,34.75,3,63415,59386183
93,1,-0.868346,-0.129436,9.77105,-0.0918719,-0.749577,0.960843,-0.00868939,-0.00130531,0.0977098,1,5.32808e-05,-3.07225e-05,3.12909e-05,0.0106562,-0.00614451,0.00625817,0,0,0,0,0.0747569,0.529253,-0.969374,34.75,3,63415,59386183
93,2,-0.87337,-0.086176,9.77041,-0.0927812,-0.704003,0.95594,-0.00873437,-0.000876487,0.0977039,1,7.21177e-05,-3.75931e-06,3.63311e-05,0.0144235,-0.000751863,0.00726622,0,0,0,0,0.073314,0.53071,-0.968324,34.75,3,63416,59386283
93,3,-0.87337,-0.086176,9.77041,-0.0927812,-0.704003,0.95594,-0.00873437,-0.000876487,0.0977039,1,7.21177e-05,-3.75931e-06,3.63311e-05,0.0144235,-0.000751863,0.00726622,0,0,0,0,0.073314,0.53071,-0.968324,34.75,3,63416,59386283
93,4,-0.902514,-0.0618702,9.75691,-0.122444,-0.66928,0.943933,-0.00902594,-0.000630244,0.097569,1,5.65611e-05,-4.29738e-06,2.79359e-05,0.0113122,-0.000859475,0.00558719,0,0,0,0,0.0718868,0.529746,-0.968339,34.75,3,63417,59386383
93,5,-0.902514,-0.0618702,9.75691,-0.122444,-0.66928,0.943933,-0.00902594,-0.000630244,0.097569,1,5.65611e-05,-4.29738e-06,2.79359e-05,0.0113122,-0.000859475,0.00558719,0,0,0,0,0.0718868,0.529746,-0.968339,34.75,3,63417,59386383
93,6,-0.973768,-0.0237415,9.756,-0.184988,-0.632623,0.949301,-0.00973458,-0.000249918,0.0975603,1,6.1404e-05,1.58304e-05,2.67792e-05,0.0122808,0.00316607,0.00535584,0,0,0,0,0.0733378,0.527801,-0.969399,34.75,3,63418,59386483
93,7,-0.973768,-0.0237415,9.756,-0.184988,-0.632623,0.949301,-0.00973458,-0.000249918,0.0975603,1,6.1404e-05,1.58304e-05,2.67792e-05,0.0122808,0.00316607,0.00535584,0,0,0,0,0.0733378,0.527801,-0.969399,34.75,3,63418,59386483
93,8,-1.05686,-0.0444041,9.76893,-0.274143,-0.660535,0.967046,-0.010565,-0.000456306,0.0976897,1,6.12865e-05,1.87329e-05,1.37499e-05,0.0122573,0.00374658,0.00274999,0,0,0,0,0.0738146,0.527319,-0.969917,34.75,3,63419,59386583
93,9,-1.05686,-0.0444041,9.76893,-0.274143,-0.660535,0.967046,-0.010565,-0.000456306,0.0976897,1,6.12865e-05,1.87329e-05,1.37499e-05,0.0122573,0.00374658,0.00274999,0,0,0,0,0.0738146,0.527319,-0.969917,34.75,3,63419,59386583
93,10,-1.05188,-0.0494241,9.75837,-0.274348,-0.669403,0.957295,-0.0105197,-0.0005064,0.0975835,1,6.00088e-05,-4.44989e-06,2.12602e-05,0.0120018,-0.000889977,0.00425204,0,0,0,0,0.0762406,0.526802,-0.969435,34.75,3,63420,59386683
94,1,-1.05188,-0.0494241,9.75837,-0.274348,-0.669403,0.957295,-0.0105197,-0.0005064,0.0975835,1,6.00088e-05,-4.44989e-06,2.12602e-05,0.0120018,-0.000889977,0.00425204,0,0,0,0,0.0762406,0.526802,-0.969435,34.75,3,63420,59386683
94,2,-0.985072,-0.0586459,9.76259,-0.211015,-0.678893,0.957903,-0.00985371,-0.000595655,0.0976256,1,4.51393e-05,-1.5402e-05,1.94183e-05,0.00902787,-0.0030804,0.00388365,0,0,0,0,0.0767098,0.528252,-0.9689,34.75,3,63421,59386783
94,3,-0.985072,-0.0586459,9.76259,-0.211015,-0.678893,0.957903,-0.00985371,-0.000595655,0.0976256,1,4.51393e-05,-1.5402e-05,1.94183e-05,0.00902787,-0.0030804,0.00388365,0,0,0,0,0.0767098,0.528252,-0.9689,34.75,3,63421,59386783
94,4,-0.931737,-0.0553491,9.77378,-0.1516,-0.66658,0.962692,-0.00931852,-0.000567848,0.0977376,1,7.00278e-05,-6.10052e-06,3.58394e-05,0.0140056,-0.00122011,0.00716789,0,0,0,0,0.0733135,0.529265,-0.969367,34.75,3,63422,59386883
94,5,-0.931737,-0.0553491,9.77378,-0.1516,-0.66658,0.962692,-0.00931852,-0.000567848,0.0977376,1,7.00278e-05,-6.10052e-06,3.58394e-05,0.0140056,-0.00122011,0.00716789,0,0,0,0,0.0733135,0.529265,-0.969367,34.75,3,63422,59386883
94,6,-0.903876,-0.0207435,9.78473,-0.120137,-0.634627,0.972524,-0.00903702,-0.000219419,0.0978475,1,5.94331e-05,8.86847e-06,1.95786e-05,0.0118866,0.00177369,0.00391572,0,0,0,0,0.071854,0.530252,-0.969338,34.75,3,63423,59386983
95,1,-0.903876,-0.0207435,9.78473,-0.120137,-0.634627,0.972524,-0.00903702,-0.000219419,0.0978475,1,5.94331e-05,8.86847e-06,1.95786e-05,0.0118866,0.00177369,0.00391572,0,0,0,0,0.071854,0.530252,-0.969338,34.75,3,63423,59386983
95,2,-0.901865,-0.030526,9.7714,-0.13173,-0.648576,0.959003,-0.00901571,-0.000315799,0.0977143,1,5.25191e-05,1.50019e-05,1.52328e-05,0.0105038,0.00300037,0.00304656,0,0,0,0,0.0727873,0.529783,-0.970868,34.75,3,63424,59387083
95,3,-0.901865,-0.030526,9.7714,-0.13173,-0.648576,0.959003,-0.00901571,-0.000315799,0.0977143,1,5.25191e-05,1.50019e-05,1.52328e-05,0.0105038,0.00300037,0.00304656,0,0,0,0,0.0727873,0.529783,-0.970868,34.75,3,63424,59387083
95,4,-0.856149,-0.0422326,9.76727,-0.0838061,-0.6585,0.954165,-0.00856092,-0.000431366,0.0976727,1,4.48823e-05,2.86851e-06,1.5896e-05,0.00897645,0.000573702,0.00317919,0,0,0,0,0.0738065,0.527806,-0.969906,34.75,3,63425,59387183
95,5,-0.856149,-0.0422326,9.76727,-0.0838061,-0.6585,0.954165,-0.00856092,-0.000431366,0.0976727,1,4.48823e-05,2.86851e-06,1.5896e-05,0.00897645,0.000573702,0.00317919,0,0,0,0,0.0738065,0.527806,-0.969906,34.75,3,63425,59387183
95,6,-0.827867,-0.0644884,9.77095,-0.0430211,-0.679312,0.948253,-0.00827454,-0.000656139,0.0977098,1,5.6157e-05,2.10602e-05,1.6969e-05,0.0112314,0.00421205,0.0033938,0,0,0,0,0.0752907,0.526801,-0.968925,34.75,3,63426,59387283
96,1,-0.827867,-0.0644884,9.77095,-0.0430211,-0.679312,0.948253,-0.00827454,-0.000656139,0.0977098,1,5.6157e-05,2.10602e-05,1.6969e-05,0.0112314,0.00421205,0.0033938,0,0,0,0,0.0752907,0.526801,-0.968925,34.75,3,63426,59387283
96,2,-0.779744,-0.0730642,9.78242,0.00390573,-0.694108,0.963866,-0.00779544,-0.000742227,0.0978243,1,5.88149e-05,1.01977e-05,4.99811e-06,0.011763,0.00203954,0.000999623,0,0,0,0,0.0752499,0.527794,-0.969913,34.75,3,63427,59387383
96,3,-0.779744,-0.0730642,9.78242,0.00390573,-0.694108,0.963866,-0.00779544,-0.000742227,0.0978243,1,5.88149e-05,1.01977e-05,4.99811e-06,0.011763,0.00203954,0.000999623,0,0,0,0,0.0752499,0.527794,-0.969913,34.75,3,63427,59387383
96,4,-0.778315,-0.0627865,9.78557,0.00402852,-0.682507,0.966017,-0.00778111,-0.000639343,0.0978558,1,5.6455e-05,1.02373e-05,2.75856e-05,0.011291,0.00204747,0.00551712,0,0,0,0,0.0752708,0.528743,-0.968377,34.75,3,63428,59387483
96,5,-0.778315,-0.0627865,9.78557,0.00402852,-0.682507,0.966017,-0.00778111,-0.000639343,0.0978558,1,5.6455e-05,1.02373e-05,2.75856e-05,0.011291,0.00204747,0.00551712,0,0,0,0,0.0752708,0.528743,-0.968377,34.75,3,63428,59387483
96,6,-0.744724,-0.0549032,9.77592,0.0320223,-0.677963,0.952607,-0.00744686,-0.000558411,0.0977591,1,4.75645e-05,1.92584e-06,5.28607e-06,0.00951291,0.000385167,0.00105721,0,0,0,0,0.0742796,0.52829,-0.969898,34.75,3,63429,59387583
97,1,-0.744724,-0.0549032,9.77592,0.0320223,-0.677963,0.952607,-0.00744686,-0.000558411,0.0977591,1,4.75645e-05,1.92584e-06,5.28607e-06,0.00951291,0.000385167,0.00105721,0,0,0,0,0.0742796,0.52829,-0.969898,34.75,3,63429,59387583
97,2,-0.678135,-0.0196137,9.79409,0.0947299,-0.641313,0.964092,-0.00678281,-0.000205946,0.0979408,1,4.98835e-05,-7.43936e-06,2.80503e-06,0.0099767,-0.00148787,0.000561006,0,0,0,0,0.0742915,0.526836,-0.970435,34.75,3,63430,59387683
97,3,-0.678135,-0.0196137,9.79409,0.0947299,-0.641313,0.964092,-0.00678281,-0.000205946,0.0979408,1,4.98835e-05,-7.43936e-06,2.80503e-06,0.0099767,-0.00148787,0.000561006,0,0,0,0,0.0742915,0.526836,-0.970435,34.75,3,63430,59387683
97,4,-0.613458,-0.0472862,9.79545,0.170356,-0.662979,0.967571,-0.00613411,-0.000481617,0.0979545,1,4.44949e-05,2.37865e-06,3.11638e-06,0.00889897,0.00047573,0.000623276,0,0,0,0,0.0733259,0.529256,-0.968862,34.75,3,63431,59387783
97,5,-0.613458,-0.0472862,9.79545,0.170356,-0.662979,0.967571,-0.00613411,-0.000481617,0.0979545,1,4.44949e-05,2.37865e-06,3.11638e-06,0.00889897,0.00047573,0.000623276,0,0,0,0,0.0733259,0.529256,-0.968862,34.75,3,63431,59387783
97,6,-0.802585,-0.168184,9.85544,-0.0712295,-0.732902,0.852086,-0.00802918,-0.00169169,0.0985539,1,5.07344e-05,-1.67433e-05,-9.13068e-06,0.0101469,-0.00334866,-0.00182614,0,0,0,0,0.0738236,0.529721,-0.967844,34.75,3,63432,59387883
98,1,-0.802585,-0.168184,9.85544,-0.0712295,-0.732902,0.852086,-0.00802918,-0.00169169,0.0985539,1,5.07344e-05,-1.67433e-05,-9.13068e-06,0.0101469,-0.00334866,-0.00182614,0,0,0,0,0.0738236,0.529721,-0.967844,34.75,3,63432,59387883
98,2,-0.0328915,0.120929,9.866,0.86215,-0.170308,0.969238,-0.000334694,0.00121003,0.0986599,1,-3.68446e-06,-2.96104e-05,-2.61305e-05,-0.000736892,-0.00592208,-0.00522611,0,0,0,0,0.0743166,0.528263,-0.968383,34.75,3,63433,59387983
98,3,-0.0328915,0.120929,9.866,0.86215,-0.170308,0.969238,-0.000334694,0.00121003,0.0986599,1,-3.68446e-06,-2.96104e-05,-2.61305e-05,-0.000736892,-0.00592208,-0.00522611,0,0,0,0,0.0743166,0.528263,-0.968383,34.75,3,63433,59387983
98,4,-0.311598,-0.370825,9.70216,0.445462,-0.893515,0.801053,-0.00311215,-0.00372067,0.0970213,1,6.33881e-05,1.89506e-05,1.96418e-05,0.0126776,0.00379011,0.00392836,0,0,0,0,0.075295,0.527279,-0.96841,34.75,3,63434,59388083
98,5,-0.311598,-0.370825,9.70216,0.445462,-0.893515,0.801053,-0.00311215,-0.00372067,0.0970213,1,6.33881e-05,1.89506e-05,1.96418e-05,0.0126776,0.00379011,0.00392836,0,0,0,0,0.075295,0.527279,-0.96841,34.75,3,63434,59388083
98,6,-0.780751,-0.0898498,9.71856,-0.0374402,-0.655948,0.901252,-0.00780823,-0.000909424,0.0971854,1,5.27523e-05,-4.09754e-06,4.30718e-05,0.0105505,-0.000819509,0.00861435,0,0,0,0,0.0747564,0.527807,-0.970416,34.75,3,63435,59388183
99,1,-0.780751,-0.0898498,9.71856,-0.0374402,-0.655948,0.901252,-0.00780823,-0.000909424,0.0971854,1,5.27523e-05,-4.09754e-06,4.30718e-05,0.0105505,-0.000819509,0.00861435,0,0,0,0,0.0747564,0.527807,-0.970416,34.75,3,63435,59388183
99,2,-0.708423,0.0819858,9.84777,0.124975,-0.422022,1.02331,-0.00708753,0.000813617,0.0984775,1,2.84277e-05,-1.6362e-05,4.52511e-05,0.00568555,-0.0032724,0.00905022,0,0,0,0,0.0728362,0.528302,-0.969891,34.75,3,63436,59388283
99,3,-0.708423,0.0819858,9.84777,0.124975,-0.422022,1.02331,-0.00708753,0.000813617,0.0984775,1,2.84277e-05,-1.6362e-05,4.52511e-05,0.00568555,-0.0032724,0.00905022,0,0,0,0,0.0728362,0.528302,-0.969891,34.75,3,63436,59388283
99,4,-0.915492,0.0263239,9.88671,-0.152542,-0.498246,1.07682,-0.00916369,0.000255874,0.0988663,1,3.74079e-05,-4.4359e-05,-1.77279e-06,0.00748157,-0.00887181,-0.000354558,0,0,0,0,0.072376,0.529255,-0.968352,34.75,3,63437,59388383
99,5,-0.915492,0.0263239,9.88671,-0.152542,-0.498246,1.07682,-0.00916369,0.000255874,0.0988663,1,3.74079e-05,-4.4359e-05,-1.77279e-06,0.00748157,-0.00887181,-0.000354558,0,0,0,0,0.072376,0.529255,-0.968352,34.75,3,63437,59388383
99,6,-0.820699,-0.0540664,9.77616,-0.0769304,-0.680603,0.950864,-0.00821705,-0.000554646,0.0977606,1,7.18944e-05,-5.14033e-05,-4.54121e-06,0.0143789,-0.0102807,-0.000908241,0,0,0,0,0.0752584,0.528752,-0.968882,34.75,3,63438,59388483
