frame_id,imu_idx,accel_x,accel_y,accel_z,free_accel_x,free_accel_y,free_accel_z,delta_v_x,delta_v_y,delta_v_z,delta_q_w,delta_q_x,delta_q_y,delta_q_z,rate_x,rate_y,rate_z,quat_w,quat_x,quat_y,quat_z,mag_x,mag_y,mag_z,temperature,status_byte,packet_counter,time_fine
2884,1,-0.688864,-0.0435771,9.78548,-0.161768,-1.6142,0.987484,-0.00689073,-0.000443163,0.0978546,1,3.73722e-05,-1.06784e-05,5.6547e-06,0.00747443,-0.00213568,0.00113094,0,0,0,0,0.0666984,0.31322,-1.13727,33.3125,3,319,19884765
2884,2,-0.497252,-0.0672615,7.34133,-0.161768,-1.6142,0.987484,-0.00497421,-0.000676985,0.0734131,1,2.77553e-05,-1.17884e-05,2.9618e-05,0.00555105,-0.00235768,0.00592361,0,0,0,0,0.058343,0.522067,-0.996731,33.1875,1,7376,20591948
2884,3,-0.497252,-0.0672615,7.34133,-0.161768,-1.6142,0.987484,-0.00497421,-0.000676985,0.0734131,1,2.77553e-05,-1.17884e-05,2.9618e-05,0.00555105,-0.00235768,0.00592361,0,0,0,0,0.058343,0.522067,-0.996731,33.1875,1,7376,20591948
2884,4,-0.651692,-0.0912475,9.78598,0.0880567,-0.505775,1.00027,-0.006519,-0.000920868,0.0978596,1,4.15074e-05,-1.082e-05,2.06396e-05,0.00830149,-0.00216399,0.00412792,0,0,0,0,0.0587786,0.521133,-0.999279,33.1875,1,7377,20592048
1,1,-0.651692,-0.0912475,9.78598,0.0880567,-0.505775,1.00027,-0.006519,-0.000920868,0.0978596,1,4.15074e-05,-1.082e-05,2.06396e-05,0.00830149,-0.00216399,0.00412792,0,0,0,0,0.0587786,0.521133,-0.999279,33.1875,1,7377,20592048
1,2,-0.652286,-0.0788492,9.78981,0.0877381,-0.495994,1.0032,-0.00652444,-0.000799037,0.0978979,1,5.30853e-05,-8.18621e-06,1.15451e-05,0.0106171,-0.00163724,0.00230902,0,0,0,0,0.0568575,0.518737,-1.00084,33.1875,1,7378,20592148
1,3,-0.652286,-0.0788492,9.78981,0.0877381,-0.495994,1.0032,-0.00652444,-0.000799037,0.0978979,1,5.30853e-05,-8.18621e-06,1.15451e-05,0.0106171,-0.00163724,0.00230902,0,0,0,0,0.0568575,0.518737,-1.00084,33.1875,1,7378,20592148
1,4,-0.657112,-0.0902324,9.79044,0.0787393,-0.504894,1.00927,-0.00657362,-0.000910958,0.0979041,1,4.25746e-05,-1.29937e-05,2.25788e-05,0.00851492,-0.00259874,0.00451576,0,0,0,0,0.0569472,0.516262,-0.998874,33.1875,1,7379,20592248
2,1,-0.657112,-0.0902324,9.79044,0.0787393,-0.504894,1.00927,-0.00657362,-0.000910958,0.0979041,1,4.25746e-05,-1.29937e-05,2.25788e-05,0.00851492,-0.00259874,0.00451576,0,0,0,0,0.0569472,0.516262,-0.998874,33.1875,1,7379,20592248
2,2,-0.651188,-0.106259,9.79501,0.0937497,-0.517644,1.01111,-0.00651497,-0.00107327,0.0979498,1,5.47414e-05,-1.57074e-05,-3.47946e-06,0.0109483,-0.00314148,-0.000695892,0,0,0,0,0.0565154,0.51623,-0.996852,33.1875,1,7380,20592348
2,3,-0.651188,-0.106259,9.79501,0.0937497,-0.517644,1.01111,-0.00651497,-0.00107327,0.0979498,1,5.47414e-05,-1.57074e-05,-3.47946e-06,0.0109483,-0.00314148,-0.000695892,0,0,0,0,0.0565154,0.51623,-0.996852,33.1875,1,7380,20592348
2,4,-0.659484,-0.10435,9.7944,0.082712,-0.520516,1.01034,-0.0065951,-0.00105224,0.0979439,1,4.28446e-05,-1.61701e-06,2.65947e-05,0.00856892,-0.000323402,0.00531895,0,0,0,0,0.0579962,0.517636,-0.994302,33.1875,1,7381,20592448
3,1,-0.659484,-0.10435,9.7944,0.082712,-0.520516,1.01034,-0.0065951,-0.00105224,0.0979439,1,4.28446e-05,-1.61701e-06,2.65947e-05,0.00856892,-0.000323402,0.00531895,0,0,0,0,0.0579962,0.517636,-0.994302,33.1875,1,7381,20592448
3,2,-0.660907,-0.100853,9.79545,0.0757484,-0.515241,1.0092,-0.00660971,-0.00101753,0.0979544,1,4.45786e-05,-3.44051e-06,1.99491e-05,0.00891573,-0.000688103,0.00398982,0,0,0,0,0.0598229,0.520583,-0.996266,33.1875,1,7382,20592548
3,3,-0.660907,-0.100853,9.79545,0.0757484,-0.515241,1.0092,-0.00660971,-0.00101753,0.0979544,1,4.45786e-05,-3.44051e-06,1.99491e-05,0.00891573,-0.000688103,0.00398982,0,0,0,0,0.0598229,0.520583,-0.996266,33.1875,1,7382,20592548
3,4,-0.657699,-0.0947102,9.7938,0.081279,-0.510168,1.00595,-0.00657989,-0.00095648,0.0979377,1,4.56126e-05,-1.51267e-05,3.36819e-05,0.00912252,-0.00302534,0.00673638,0,0,0,0,0.0578448,0.520156,-0.998791,33.1875,1,7383,20592648
7,1,-0.657699,-0.0947102,9.7938,0.081279,-0.510168,1.00595,-0.00657989,-0.00095648,0.0979377,1,4.56126e-05,-1.51267e-05,3.36819e-05,0.00912252,-0.00302534,0.00673638,0,0,0,0,0.0578448,0.520156,-0.998791,33.1875,1,7383,20592648
7,2,-0.65234,-0.089816,9.78702,0.0850566,-0.515064,1.00366,-0.00652726,-0.000906773,0.0978698,1,4.22709e-05,-1.99621e-05,2.59708e-05,0.00845418,-0.00399242,0.00519415,0,0,0,0,0.0554222,0.518261,-1.00084,33.1875,1,7384,20592748
7,3,-0.65234,-0.089816,9.78702,0.0850566,-0.515064,1.00366,-0.00652726,-0.000906773,0.0978698,1,4.22709e-05,-1.99621e-05,2.59708e-05,0.00845418,-0.00399242,0.00519415,0,0,0,0,0.0554222,0.518261,-1.00084,33.1875,1,7384,20592748
7,4,-0.659948,-0.0975241,9.79513,0.0808472,-0.517927,1.01261,-0.0065995,-0.000981615,0.0979512,1,3.19276e-05,-1.54613e-07,9.0507e-06,0.00638552,-3.09225e-05,0.00181014,0,0,0,0,0.0554791,0.516292,-0.999876,33.1875,1,7385,20592848
8,1,-0.659948,-0.0975241,9.79513,0.0808472,-0.517927,1.01261,-0.0065995,-0.000981615,0.0979512,1,3.19276e-05,-1.54613e-07,9.0507e-06,0.00638552,-3.09225e-05,0.00181014,0,0,0,0,0.0554791,0.516292,-0.999876,33.1875,1,7385,20592848
8,2,-0.660522,-0.0972322,9.79447,0.0860012,-0.519723,1.01485,-0.00660731,-0.000978261,0.0979445,1,2.82991e-05,-1.0941e-05,2.9998e-05,0.00565982,-0.00218819,0.00599961,0,0,0,0,0.0564788,0.517702,-0.997324,33.1875,1,7386,20592948
8,3,-0.660522,-0.0972322,9.79447,0.0860012,-0.519723,1.01485,-0.00660731,-0.000978261,0.0979445,1,2.82991e-05,-1.0941e-05,2.9998e-05,0.00565982,-0.00218819,0.00599961,0,0,0,0,0.0564788,0.517702,-0.997324,33.1875,1,7386,20592948
8,4,-0.656783,-0.0946662,9.78497,0.0815999,-0.512566,1.00317,-0.00657117,-0.00095487,0.0978494,1,4.07434e-05,-1.72689e-05,1.7818e-05,0.00814868,-0.00345379,0.0035636,0,0,0,0,0.0589342,0.519091,-0.994274,33.1875,1,7387,20593048
9,1,-0.656783,-0.0946662,9.78497,0.0815999,-0.512566,1.00317,-0.00657117,-0.00095487,0.0978494,1,4.07434e-05,-1.72689e-05,1.7818e-05,0.00814868,-0.00345379,0.0035636,0,0,0,0,0.0589342,0.519091,-0.994274,33.1875,1,7387,20593048
9,2,-0.667804,-0.0834277,9.7865,0.0712042,-0.502205,0.999244,-0.00668064,-0.000842473,0.0978647,1,4.00449e-05,-1.35115e-05,2.67608e-05,0.00800899,-0.00270229,0.00535216,0,0,0,0,0.0603695,0.519567,-0.99427,33.1875,1,7388,20593148
9,3,-0.667804,-0.0834277,9.7865,0.0712042,-0.502205,0.999244,-0.00668064,-0.000842473,0.0978647,1,4.00449e-05,-1.35115e-05,2.67608e-05,0.00800899,-0.00270229,0.00535216,0,0,0,0,0.0603695,0.519567,-0.99427,33.1875,1,7388,20593148
9,4,-0.662551,-0.0881194,9.79185,0.0714034,-0.509447,1.00344,-0.00662777,-0.000890991,0.0979183,1,4.86246e-05,-1.17304e-05,2.06956e-05,0.00972492,-0.00234607,0.00413912,0,0,0,0,0.059802,0.519634,-0.997802,33.1875,1,7389,20593248
10,1,-0.662551,-0.0881194,9.79185,0.0714034,-0.509447,1.00344,-0.00662777,-0.000890991,0.0979183,1,4.86246e-05,-1.17304e-05,2.06956e-05,0.00972492,-0.00234607,0.00413912,0,0,0,0,0.059802,0.519634,-0.997802,33.1875,1,7389,20593248
10,2,-0.668234,-0.0942755,9.80167,0.068277,-0.516225,1.01615,-0.00668548,-0.000950761,0.0980165,1,3.99742e-05,-1.61102e-05,1.26845e-05,0.00799484,-0.00322204,0.0025369,0,0,0,0,0.0568247,0.519243,-1.00184,33.1875,1,7390,20593348
10,3,-0.668234,-0.0942755,9.80167,0.068277,-0.516225,1.01615,-0.00668548,-0.000950761,0.0980165,1,3.99742e-05,-1.61102e-05,1.26845e-05,0.00799484,-0.00322204,0.0025369,0,0,0,0,0.0568247,0.519243,-1.00184,33.1875,1,7390,20593348
10,4,-0.661873,-0.100155,9.78733,0.0750977,-0.527465,1.005,-0.00662075,-0.0010104,0.0978731,1,4.47687e-05,-1.04028e-05,6.66815e-06,0.00895374,-0.00208056,0.00133363,0,0,0,0,0.055936,0.517751,-0.999846,33.1875,1,7391,20593448
11,1,-0.661873,-0.100155,9.78733,0.0750977,-0.527465,1.005,-0.00662075,-0.0010104,0.0978731,1,4.47687e-05,-1.04028e-05,6.66815e-06,0.00895374,-0.00208056,0.00133363,0,0,0,0,0.055936,0.517751,-0.999846,33.1875,1,7391,20593448
11,2,-0.662255,-0.0903017,9.7864,0.0750343,-0.519919,1.00159,-0.00662488,-0.000911499,0.0978637,1,4.19879e-05,-1.2096e-05,1.98798e-05,0.00839757,-0.00241921,0.00397596,0,0,0,0,0.0560385,0.516713,-0.996334,33.1875,1,7392,20593548
11,3,-0.662255,-0.0903017,9.7864,0.0750343,-0.519919,1.00159,-0.00662488,-0.000911499,0.0978637,1,4.19879e-05,-1.2096e-05,1.98798e-05,0.00839757,-0.00241921,0.00397596,0,0,0,0,0.0560385,0.516713,-0.996334,33.1875,1,7392,20593548
11,4,-0.655999,-0.0953177,9.78124,0.0843551,-0.52188,1.00012,-0.0065647,-0.000962098,0.097812,1,4.399e-05,-2.43157e-05,2.405e-05,0.008798,-0.00486313,0.00481001,0,0,0,0,0.0570506,0.518114,-0.993277,33.1875,1,7393,20593648
12,1,-0.655999,-0.0953177,9.78124,0.0843551,-0.52188,1.00012,-0.0065647,-0.000962098,0.097812,1,4.399e-05,-2.43157e-05,2.405e-05,0.008798,-0.00486313,0.00481001,0,0,0,0,0.0570506,0.518114,-0.993277,33.1875,1,7393,20593648
12,2,-0.653365,-0.0959867,9.78901,0.0835558,-0.520991,0.999652,-0.00653548,-0.000969132,0.0978899,1,4.57523e-05,-9.57969e-06,2.34914e-05,0.00915045,-0.00191594,0.00469828,0,0,0,0,0.0574501,0.520097,-0.995255,33.1875,1,7394,20593748
12,3,-0.653365,-0.0959867,9.78901,0.0835558,-0.520991,0.999652,-0.00653548,-0.000969132,0.0978899,1,4.57523e-05,-9.57969e-06,2.34914e-05,0.00915045,-0.00191594,0.00469828,0,0,0,0,0.0574501,0.520097,-0.995255,33.1875,1,7394,20593748
12,4,-0.665775,-0.100135,9.79381,0.0666366,-0.532714,1.00365,-0.00666247,-0.00100706,0.0979377,1,2.79303e-05,-2.42984e-05,1.79781e-05,0.00558606,-0.00485969,0.00359562,0,0,0,0,0.0578406,0.519677,-0.999307,33.1875,1,7395,20593848
10,1,-0.665775,-0.100135,9.79381,0.0666366,-0.532714,1.00365,-0.00666247,-0.00100706,0.0979377,1,2.79303e-05,-2.42984e-05,1.79781e-05,0.00558606,-0.00485969,0.00359562,0,0,0,0,0.0578406,0.519677,-0.999307,33.1875,1,7395,20593848
10,2,-0.663901,-0.0985606,9.79753,0.0720651,-0.531132,1.01071,-0.00664193,-0.000994372,0.097975,1,4.31498e-05,-1.51658e-05,2.33932e-05,0.00862996,-0.00303316,0.00467864,0,0,0,0,0.0563597,0.518271,-1.00186,33.1875,1,7396,20593948
10,3,-0.663901,-0.0985606,9.79753,0.0720651,-0.531132,1.01071,-0.00664193,-0.000994372,0.097975,1,4.31498e-05,-1.51658e-05,2.33932e-05,0.00862996,-0.00303316,0.00467864,0,0,0,0,0.0563597,0.518271,-1.00186,33.1875,1,7396,20593948
10,4,-0.654158,-0.0918086,9.78463,0.0831676,-0.525155,1.00004,-0.00654285,-0.000928917,0.0978461,1,5.40242e-05,-6.68155e-06,1.98166e-05,0.0108048,-0.00133631,0.00396331,0,0,0,0,0.05499,0.516784,-0.999863,33.1875,1,7397,20594048
14,1,-0.654158,-0.0918086,9.78463,0.0831676,-0.525155,1.00004,-0.00654285,-0.000928917,0.0978461,1,5.40242e-05,-6.68155e-06,1.98166e-05,0.0108048,-0.00133631,0.00396331,0,0,0,0,0.05499,0.516784,-0.999863,33.1875,1,7397,20594048
14,2,-0.667376,-0.101635,9.7921,0.0691488,-0.532843,1.01129,-0.00667451,-0.00102553,0.0979208,1,4.54429e-05,-4.07904e-06,2.11784e-05,0.00908859,-0.000815809,0.00423568,0,0,0,0,0.0555864,0.517177,-0.994806,33.1875,1,7398,20594148
14,3,-0.667376,-0.101635,9.7921,0.0691488,-0.532843,1.01129,-0.00667451,-0.00102553,0.0979208,1,4.54429e-05,-4.07904e-06,2.11784e-05,0.00908859,-0.000815809,0.00423568,0,0,0,0,0.0555864,0.517177,-0.994806,33.1875,1,7398,20594148
14,4,-0.658704,-0.0912197,9.78365,0.076628,-0.526766,0.998896,-0.0065869,-0.000920527,0.0978364,1,4.10583e-05,4.93568e-07,2.25194e-05,0.00821166,9.87136e-05,0.00450388,0,0,0,0,0.057536,0.518589,-0.992764,33.1875,1,7399,20594248
15,1,-0.658704,-0.0912197,9.78365,0.076628,-0.526766,0.998896,-0.0065869,-0.000920527,0.0978364,1,4.10583e-05,4.93568e-07,2.25194e-05,0.00821166,9.87136e-05,0.00450388,0,0,0,0,0.057536,0.518589,-0.992764,33.1875,1,7399,20594248
15,2,-0.666498,-0.08911,9.78575,0.0701333,-0.525075,0.995522,-0.00666521,-0.000901531,0.0978574,1,5.22938e-05,-1.33177e-06,1.46982e-05,0.0104587,-0.000266353,0.00293964,0,0,0,0,0.0588934,0.520085,-0.995262,33.1875,1,7400,20594348
15,3,-0.666498,-0.08911,9.78575,0.0701333,-0.525075,0.995522,-0.00666521,-0.000901531,0.0978574,1,5.22938e-05,-1.33177e-06,1.46982e-05,0.0104587,-0.000266353,0.00293964,0,0,0,0,0.0588934,0.520085,-0.995262,33.1875,1,7400,20594348
15,4,-0.652749,-0.0959516,9.789,0.0835494,-0.530645,0.996537,-0.00652941,-0.00096899,0.0978898,1,4.73111e-05,-9.94679e-06,1.62032e-05,0.00946222,-0.00198936,0.00324065,0,0,0,0,0.0588317,0.52013,-0.997786,33.1875,1,7401,20594448
15,5,-0.652749,-0.0959516,9.789,0.0835494,-0.530645,0.996537,-0.00652941,-0.00096899,0.0978898,1,4.73111e-05,-9.94679e-06,1.62032e-05,0.00946222,-0.00198936,0.00324065,0,0,0,0,0.0588317,0.52013,-0.997786,33.1875,1,7401,20594448
15,6,-0.667004,-0.0927508,9.78743,0.0696464,-0.529692,1.0003,-0.00667257,-0.00093572,0.097874,1,4.04474e-05,-1.31672e-05,2.20201e-05,0.00808948,-0.00263344,0.00440401,0,0,0,0,0.0578444,0.518711,-0.999833,33.1875,1,7402,20594548
16,1,-0.667004,-0.0927508,9.78743,0.0696464,-0.529692,1.0003,-0.00667257,-0.00093572,0.097874,1,4.04474e-05,-1.31672e-05,2.20201e-05,0.00808948,-0.00263344,0.00440401,0,0,0,0,0.0578444,0.518711,-0.999833,33.1875,1,7402,20594548
16,2,-0.671526,-0.10086,9.79314,0.0651302,-0.536845,1.00603,-0.0067157,-0.00101568,0.0979313,1,3.47512e-05,-2.45145e-06,2.08898e-05,0.00695023,-0.000490291,0.00417796,0,0,0,0,0.0578933,0.517229,-0.998856,33.1875,1,7403,20594648
16,3,-0.671526,-0.10086,9.79314,0.0651302,-0.536845,1.00603,-0.0067157,-0.00101568,0.0979313,1,3.47512e-05,-2.45145e-06,2.08898e-05,0.00695023,-0.000490291,0.00417796,0,0,0,0,0.0578933,0.517229,-0.998856,33.1875,1,7403,20594648
16,4,-0.660527,-0.087223,9.79015,0.0756019,-0.528052,1.00466,-0.00660796,-0.000879059,0.0979012,1,3.44814e-05,-1.37927e-05,5.84303e-06,0.00689627,-0.00275855,0.00116861,0,0,0,0,0.0565282,0.517666,-0.995305,33.1875,1,7404,20594748
17,1,-0.660527,-0.087223,9.79015,0.0756019,-0.528052,1.00466,-0.00660796,-0.000879059,0.0979012,1,3.44814e-05,-1.37927e-05,5.84303e-06,0.00689627,-0.00275855,0.00116861,0,0,0,0,0.0565282,0.517666,-0.995305,33.1875,1,7404,20594748
17,2,-0.662038,-0.0922875,9.79248,0.0729991,-0.534153,1.00371,-0.00661991,-0.000931667,0.0979247,1,4.37181e-05,2.21841e-06,1.73636e-05,0.00874363,0.000443683,0.00347272,0,0,0,0,0.0570672,0.518584,-0.992257,33.1875,1,7405,20594848
17,3,-0.662038,-0.0922875,9.79248,0.0729991,-0.534153,1.00371,-0.00661991,-0.000931667,0.0979247,1,4.37181e-05,2.21841e-06,1.73636e-05,0.00874363,0.000443683,0.00347272,0,0,0,0,0.0570672,0.518584,-0.992257,33.1875,1,7405,20594848
17,4,-0.680741,-0.101185,9.7939,0.052918,-0.543598,1.00226,-0.0068112,-0.0010193,0.0979386,1,3.64595e-05,-1.95802e-05,2.28079e-05,0.0072919,-0.00391604,0.00456157,0,0,0,0,0.0588649,0.52107,-0.995745,33.1875,1,7406,20594948
18,1,-0.680741,-0.101185,9.7939,0.052918,-0.543598,1.00226,-0.0068112,-0.0010193,0.0979386,1,3.64595e-05,-1.95802e-05,2.28079e-05,0.0072919,-0.00391604,0.00456157,0,0,0,0,0.0588649,0.52107,-0.995745,33.1875,1,7406,20594948
18,2,-0.652176,-0.0736444,9.78613,0.0805907,-0.516301,0.992097,-0.00652549,-0.000746347,0.097861,1,4.93507e-05,-1.92301e-05,1.8675e-05,0.00987014,-0.00384601,0.00373499,0,0,0,0,0.0582605,0.521164,-1.00079,33.1875,1,7407,20595048
18,3,-0.652176,-0.0736444,9.78613,0.0805907,-0.516301,0.992097,-0.00652549,-0.000746347,0.097861,1,4.93507e-05,-1.92301e-05,1.8675e-05,0.00987014,-0.00384601,0.00373499,0,0,0,0,0.0582605,0.521164,-1.00079,33.1875,1,7407,20595048
18,4,-0.658772,-0.0961097,9.78837,0.0732339,-0.540405,1.00389,-0.0065908,-0.000968111,0.0978834,1,3.42522e-05,-1.59666e-05,2.34097e-05,0.00685044,-0.00319332,0.00468194,0,0,0,0,0.0563436,0.519247,-1.00183,33.1875,1,7408,20595148
19,1,-0.658772,-0.0961097,9.78837,0.0732339,-0.540405,1.00389,-0.0065908,-0.000968111,0.0978834,1,3.42522e-05,-1.59666e-05,2.34097e-05,0.00685044,-0.00319332,0.00468194,0,0,0,0,0.0563436,0.519247,-1.00183,33.1875,1,7408,20595148
19,2,-0.661109,-0.0911515,9.79725,0.0732605,-0.537992,1.01539,-0.00661456,-0.000923389,0.0979721,1,5.9139e-05,-1.78757e-05,2.15992e-05,0.0118278,-0.00357513,0.00431984,0,0,0,0,0.0560139,0.516731,-0.997344,33.1875,1,7409,20595248
19,3,-0.661109,-0.0911515,9.79725,0.0732605,-0.537992,1.01539,-0.00661456,-0.000923389,0.0979721,1,5.9139e-05,-1.78757e-05,2.15992e-05,0.0118278,-0.00357513,0.00431984,0,0,0,0,0.0560139,0.516731,-0.997344,33.1875,1,7409,20595248
19,4,-0.660906,-0.0977664,9.78904,0.0732089,-0.542078,1.00291,-0.00661166,-0.000986427,0.0978901,1,4.29337e-05,-1.3577e-05,2.70068e-05,0.00858675,-0.0027154,0.00540136,0,0,0,0,0.055611,0.517159,-0.993797,33.1875,1,7410,20595348
20,1,-0.660906,-0.0977664,9.78904,0.0732089,-0.542078,1.00291,-0.00661166,-0.000986427,0.0978901,1,4.29337e-05,-1.3577e-05,2.70068e-05,0.00858675,-0.0027154,0.00540136,0,0,0,0,0.055611,0.517159,-0.993797,33.1875,1,7410,20595348
20,2,-0.656425,-0.089769,9.79111,0.0741068,-0.537788,1.0003,-0.00656668,-0.000907995,0.0979109,1,5.08857e-05,-1.26328e-05,2.5911e-05,0.0101771,-0.00252655,0.00518219,0,0,0,0,0.0565448,0.518136,-0.994285,33.1875,1,7411,20595448
20,3,-0.656425,-0.089769,9.79111,0.0741068,-0.537788,1.0003,-0.00656668,-0.000907995,0.0979109,1,5.08857e-05,-1.26328e-05,2.5911e-05,0.0101771,-0.00252655,0.00518219,0,0,0,0,0.0565448,0.518136,-0.994285,33.1875,1,7411,20595448
20,4,-0.664638,-0.104315,9.77985,0.0708245,-0.550825,0.990664,-0.0066477,-0.00105043,0.0977983,1,3.59937e-05,-6.95723e-06,1.82445e-05,0.00719875,-0.00139145,0.0036489,0,0,0,0,0.0564342,0.519662,-0.997785,33.1875,1,7412,20595548
21,1,-0.664638,-0.104315,9.77985,0.0708245,-0.550825,0.990664,-0.0066477,-0.00105043,0.0977983,1,3.59937e-05,-6.95723e-06,1.82445e-05,0.00719875,-0.00139145,0.0036489,0,0,0,0,0.0564342,0.519662,-0.997785,33.1875,1,7412,20595548
21,2,-0.657395,-0.0930439,9.78499,0.0776879,-0.540874,0.993319,-0.00657724,-0.000938649,0.0978496,1,4.04195e-05,-1.7051e-05,2.28076e-05,0.0080839,-0.00341021,0.00456153,0,0,0,0,0.0573594,0.519681,-0.999305,33.1875,1,7413,20595648
21,3,-0.657395,-0.0930439,9.78499,0.0776879,-0.540874,0.993319,-0.00657724,-0.000938649,0.0978496,1,4.04195e-05,-1.7051e-05,2.28076e-05,0.0080839,-0.00341021,0.00456153,0,0,0,0,0.0573594,0.519681,-0.999305,33.1875,1,7413,20595648
21,4,-0.669617,-0.105802,9.79683,0.0644798,-0.557022,1.01105,-0.00669812,-0.00106615,0.0979681,1,4.04249e-05,-1.01459e-05,1.56761e-05,0.00808499,-0.00202917,0.00313522,0,0,0,0,0.0568655,0.518249,-1.00085,33.1875,1,7414,20595748
22,1,-0.669617,-0.105802,9.79683,0.0644798,-0.557022,1.01105,-0.00669812,-0.00106615,0.0979681,1,4.04249e-05,-1.01459e-05,1.56761e-05,0.00808499,-0.00202917,0.00313522,0,0,0,0,0.0568655,0.518249,-1.00085,33.1875,1,7414,20595748
22,2,-0.669836,-0.0950348,9.78606,0.0655394,-0.549932,0.998829,-0.00669991,-0.000960171,0.0978604,1,4.80877e-05,-8.23308e-06,3.0706e-05,0.00961753,-0.00164662,0.00614121,0,0,0,0,0.056931,0.517237,-0.998852,33.1875,1,7415,20595848
22,3,-0.669836,-0.0950348,9.78606,0.0655394,-0.549932,0.998829,-0.00669991,-0.000960171,0.0978604,1,4.80877e-05,-8.23308e-06,3.0706e-05,0.00961753,-0.00164662,0.00614121,0,0,0,0,0.056931,0.517237,-0.998852,33.1875,1,7415,20595848
22,4,-0.651576,-0.0847556,9.77789,0.0771449,-0.535744,0.995842,-0.00651795,-0.000853571,0.0977787,1,2.9223e-05,-1.13901e-05,2.30373e-05,0.00584459,-0.00227801,0.00460746,0,0,0,0,0.0579554,0.51863,-0.99529,33.1875,1,7416,20595948
23,1,-0.651576,-0.0847556,9.77789,0.0771449,-0.535744,0.995842,-0.00651795,-0.000853571,0.0977787,1,2.9223e-05,-1.13901e-05,2.30373e-05,0.00584459,-0.00227801,0.00460746,0,0,0,0,0.0579554,0.51863,-0.99529,33.1875,1,7416,20595948
23,2,-0.656537,-0.0914186,9.79449,0.0729831,-0.540551,1.00499,-0.00656662,-0.000920677,0.0979447,1,3.14748e-05,-6.61442e-06,2.47938e-05,0.00629497,-0.00132288,0.00495876,0,0,0,0,0.0598841,0.519093,-0.994784,33.1875,1,7417,20596048
23,3,-0.656537,-0.0914186,9.79449,0.0729831,-0.540551,1.00499,-0.00656662,-0.000920677,0.0979447,1,3.14748e-05,-6.61442e-06,2.47938e-05,0.00629497,-0.00132288,0.00495876,0,0,0,0,0.0598841,0.519093,-0.994784,33.1875,1,7417,20596048
23,4,-0.661516,-0.0965524,9.79211,0.0671207,-0.548593,1.00643,-0.0066181,-0.000972332,0.0979208,1,3.41478e-05,-1.50913e-05,9.10091e-06,0.00682956,-0.00301825,0.00182018,0,0,0,0,0.0593333,0.519629,-0.997295,33.1875,1,7418,20596148
24,1,-0.661516,-0.0965524,9.79211,0.0671207,-0.548593,1.00643,-0.0066181,-0.000972332,0.0979208,1,3.41478e-05,-1.50913e-05,9.10091e-06,0.00682956,-0.00301825,0.00182018,0,0,0,0,0.0593333,0.519629,-0.997295,33.1875,1,7418,20596148
24,2,-0.662077,-0.0966655,9.78498,0.0665822,-0.549747,0.994387,-0.00662038,-0.000976281,0.0978497,1,4.80655e-05,1.872e-06,1.66372e-05,0.00961311,0.0003744,0.00332745,0,0,0,0,0.0568579,0.520182,-0.999796,33.1875,1,7419,20596248
24,3,-0.662077,-0.0966655,9.78498,0.0665822,-0.549747,0.994387,-0.00662038,-0.000976281,0.0978497,1,4.80655e-05,1.872e-06,1.66372e-05,0.00961311,0.0003744,0.00332745,0,0,0,0,0.0568579,0.520182,-0.999796,33.1875,1,7419,20596248
24,4,-0.670444,-0.0947632,9.7898,0.0583185,-0.55253,1.00397,-0.00670652,-0.000956329,0.0978978,1,4.31891e-05,-1.07808e-05,1.79523e-05,0.00863783,-0.00215616,0.00359046,0,0,0,0,0.0563683,0.519229,-1.00083,33.1875,1,7420,20596348
25,1,-0.670444,-0.0947632,9.7898,0.0583185,-0.55253,1.00397,-0.00670652,-0.000956329,0.0978978,1,4.31891e-05,-1.07808e-05,1.79523e-05,0.00863783,-0.00215616,0.00359046,0,0,0,0,0.0563683,0.519229,-1.00083,33.1875,1,7420,20596348
25,2,-0.652756,-0.096949,9.78966,0.0811392,-0.553087,1.00387,-0.00652871,-0.000978766,0.0978965,1,4.6067e-05,-6.08875e-06,1.95988e-05,0.00921339,-0.00121775,0.00391976,0,0,0,0,0.0555,0.51724,-0.99834,33.1875,1,7421,20596448
25,3,-0.652756,-0.096949,9.78966,0.0811392,-0.553087,1.00387,-0.00652871,-0.000978766,0.0978965,1,4.6067e-05,-6.08875e-06,1.95988e-05,0.00921339,-0.00121775,0.00391976,0,0,0,0,0.0555,0.51724,-0.99834,33.1875,1,7421,20596448
25,4,-0.656984,-0.0953839,9.78902,0.0749479,-0.551242,1.00454,-0.00656935,-0.000962432,0.0978901,1,4.24309e-05,2.28931e-06,2.17913e-05,0.00848619,0.000457862,0.00435825,0,0,0,0,0.0541387,0.516711,-0.995315,33.1875,1,7422,20596548
26,1,-0.656984,-0.0953839,9.78902,0.0749479,-0.551242,1.00454,-0.00656935,-0.000962432,0.0978901,1,4.24309e-05,2.28931e-06,2.17913e-05,0.00848619,0.000457862,0.00435825,0,0,0,0,0.0541387,0.516711,-0.995315,33.1875,1,7422,20596548
26,2,-0.654409,-0.0981883,9.78594,0.0783282,-0.556585,0.996061,-0.00654681,-0.000988338,0.0978591,1,3.23988e-05,-1.39811e-05,8.71156e-06,0.00647977,-0.00279621,0.00174231,0,0,0,0,0.0579639,0.519587,-0.994259,33.1875,1,7423,20596648
26,3,-0.654409,-0.0981883,9.78594,0.0783282,-0.556585,0.996061,-0.00654681,-0.000988338,0.0978591,1,3.23988e-05,-1.39811e-05,8.71156e-06,0.00647977,-0.00279621,0.00174231,0,0,0,0,0.0579639,0.519587,-0.994259,33.1875,1,7423,20596648
26,4,-0.66342,-0.0912738,9.78673,0.0684628,-0.550314,0.993085,-0.00663361,-0.000922004,0.0978673,1,4.54803e-05,2.76982e-06,2.74347e-05,0.00909606,0.000553964,0.00548694,0,0,0,0,0.0597944,0.521567,-0.996749,33.1875,1,7424,20596748
26,5,-0.66342,-0.0912738,9.78673,0.0684628,-0.550314,0.993085,-0.00663361,-0.000922004,0.0978673,1,4.54803e-05,2.76982e-06,2.74347e-05,0.00909606,0.000553964,0.00548694,0,0,0,0,0.0597944,0.521567,-0.996749,33.1875,1,7424,20596748
26,6,-0.654385,-0.106328,9.78858,0.0756734,-0.568306,0.998884,-0.00654515,-0.00107203,0.0978856,1,4.32991e-05,-6.92315e-06,2.13142e-05,0.00865982,-0.00138463,0.00426284,0,0,0,0,0.0583378,0.518698,-0.999331,33.1875,1,7425,20596848
27,1,-0.654385,-0.106328,9.78858,0.0756734,-0.568306,0.998884,-0.00654515,-0.00107203,0.0978856,1,4.32991e-05,-6.92315e-06,2.13142e-05,0.00865982,-0.00138463,0.00426284,0,0,0,0,0.0583378,0.518698,-0.999331,33.1875,1,7425,20596848
27,2,-0.656128,-0.0986607,9.79035,0.070446,-0.558669,0.998594,-0.00656316,-0.000996364,0.0979033,1,4.87734e-05,-9.76568e-06,1.5732e-05,0.00975467,-0.00195314,0.00314641,0,0,0,0,0.0563925,0.517765,-1.00086,33.1875,1,7426,20596948
27,3,-0.656128,-0.0986607,9.79035,0.070446,-0.558669,0.998594,-0.00656316,-0.000996364,0.0979033,1,4.87734e-05,-9.76568e-06,1.5732e-05,0.00975467,-0.00195314,0.00314641,0,0,0,0,0.0563925,0.517765,-1.00086,33.1875,1,7426,20596948
27,4,-0.658738,-0.073066,9.79228,0.0734332,-0.534412,1.00337,-0.00658931,-0.000740559,0.0979226,1,4.85701e-05,-1.00753e-05,2.93613e-05,0.00971403,-0.00201505,0.00587225,0,0,0,0,0.0550066,0.517254,-0.998843,33.1875,1,7427,20597048
28,1,-0.658738,-0.073066,9.79228,0.0734332,-0.534412,1.00337,-0.00658931,-0.000740559,0.0979226,1,4.85701e-05,-1.00753e-05,2.93613e-05,0.00971403,-0.00201505,0.00587225,0,0,0,0,0.0550066,0.517254,-0.998843,33.1875,1,7427,20597048
28,2,-0.666218,-0.095989,9.78604,0.0625766,-0.562274,0.999543,-0.00666646,-0.000971602,0.09786,1,5.89808e-05,-2.19695e-05,1.26639e-05,0.0117962,-0.00439391,0.00253277,0,0,0,0,0.0560347,0.517679,-0.995808,33.1875,1,7428,20597148
28,3,-0.666218,-0.095989,9.78604,0.0625766,-0.562274,0.999543,-0.00666646,-0.000971602,0.09786,1,5.89808e-05,-2.19695e-05,1.26639e-05,0.0117962,-0.00439391,0.00253277,0,0,0,0,0.0560347,0.517679,-0.995808,33.1875,1,7428,20597148
28,4,-0.664742,-0.0825788,9.7858,0.0641468,-0.545387,0.997539,-0.00665047,-0.000833619,0.0978577,1,3.78638e-05,-1.58142e-05,3.16574e-05,0.00757276,-0.00316285,0.00633148,0,0,0,0,0.057507,0.518128,-0.994289,33.1875,1,7429,20597248
29,1,-0.664742,-0.0825788,9.7858,0.0641468,-0.545387,0.997539,-0.00665047,-0.000833619,0.0978577,1,3.78638e-05,-1.58142e-05,3.16574e-05,0.00757276,-0.00316285,0.00633148,0,0,0,0,0.057507,0.518128,-0.994289,33.1875,1,7429,20597248
29,2,-0.654105,-0.0910862,9.78871,0.0766551,-0.553063,0.997997,-0.00654422,-0.000916831,0.0978868,1,2.8951e-05,-1.64026e-05,2.30073e-05,0.0057902,-0.00328053,0.00460146,0,0,0,0,0.0578942,0.52012,-0.996772,33.1875,1,7430,20597348
29,3,-0.654105,-0.0910862,9.78871,0.0766551,-0.553063,0.997997,-0.00654422,-0.000916831,0.0978868,1,2.8951e-05,-1.64026e-05,2.30073e-05,0.0057902,-0.00328053,0.00460146,0,0,0,0,0.0578942,0.52012,-0.996772,33.1875,1,7430,20597348
29,4,-0.663562,-0.09575,9.7962,0.0683051,-0.556733,1.00566,-0.00663638,-0.00096667,0.0979618,1,4.55753e-05,-4.05867e-06,1.81419e-05,0.00911506,-0.000811734,0.00362839,0,0,0,0,0.0587947,0.520157,-0.999301,33.1875,1,7431,20597448
30,1,-0.663562,-0.09575,9.7962,0.0683051,-0.556733,1.00566,-0.00663638,-0.00096667,0.0979618,1,4.55753e-05,-4.05867e-06,1.81419e-05,0.00911506,-0.000811734,0.00362839,0,0,0,0,0.0587947,0.520157,-0.999301,33.1875,1,7431,20597448
30,2,-0.661801,-0.0941362,9.79417,0.0671137,-0.560742,1.00428,-0.00662219,-0.000948874,0.0979413,1,3.73143e-05,-2.14876e-05,1.53445e-05,0.00746286,-0.00429751,0.0030689,0,0,0,0,0.0558952,0.518745,-1.00083,33.1875,1,7432,20597548
30,3,-0.661801,-0.0941362,9.79417,0.0671137,-0.560742,1.00428,-0.00662219,-0.000948874,0.0979413,1,3.73143e-05,-2.14876e-05,1.53445e-05,0.00746286,-0.00429751,0.0030689,0,0,0,0,0.0558952,0.518745,-1.00083,33.1875,1,7432,20597548
30,4,-0.659546,-0.0943665,9.79245,0.0722158,-0.558293,1.00539,-0.00659664,-0.000953725,0.0979243,1,5.1165e-05,-6.06282e-06,2.98943e-06,0.010233,-0.00121256,0.000597885,0,0,0,0,0.0540652,0.51821,-0.997302,33.1875,1,7433,20597648
31,1,-0.659546,-0.0943665,9.79245,0.0722158,-0.558293,1.00539,-0.00659664,-0.000953725,0.0979243,1,5.1165e-05,-6.06282e-06,2.98943e-06,0.010233,-0.00121256,0.000597885,0,0,0,0,0.0540652,0.51821,-0.997302,33.1875,1,7433,20597648
31,2,-0.66208,-0.0961652,9.79788,0.0647648,-0.561644,1.0073,-0.00662546,-0.000970573,0.0979784,1,4.41745e-05,-2.39611e-05,1.99769e-05,0.00883489,-0.00479221,0.00399538,0,0,0,0,0.0555864,0.517177,-0.994806,33.1875,1,7434,20597748
31,3,-0.66208,-0.0961652,9.79788,0.0647648,-0.561644,1.0073,-0.00662546,-0.000970573,0.0979784,1,4.41745e-05,-2.39611e-05,1.99769e-05,0.00883489,-0.00479221,0.00399538,0,0,0,0,0.0555864,0.517177,-0.994806,33.1875,1,7434,20597748
31,4,-0.660942,-0.0992217,9.78529,0.0660186,-0.564985,0.996604,-0.00661044,-0.00100086,0.0978527,1,4.27272e-05,-5.38694e-06,2.10087e-05,0.00854545,-0.00107739,0.00420175,0,0,0,0,0.0570136,0.518141,-0.994792,33.1875,1,7435,20597848
32,1,-0.660942,-0.0992217,9.78529,0.0660186,-0.564985,0.996604,-0.00661044,-0.00100086,0.0978527,1,4.27272e-05,-5.38694e-06,2.10087e-05,0.00854545,-0.00107739,0.00420175,0,0,0,0,0.0570136,0.518141,-0.994792,33.1875,1,7435,20597848
32,2,-0.65303,-0.0987823,9.79542,0.0788972,-0.568514,1.00721,-0.00653187,-0.000996603,0.097954,1,4.40981e-05,-8.08956e-06,1.07532e-05,0.00881962,-0.00161791,0.00215063,0,0,0,0,0.0579312,0.520093,-0.995257,33.1875,1,7436,20597948
32,3,-0.65303,-0.0987823,9.79542,0.0788972,-0.568514,1.00721,-0.00653187,-0.000996603,0.097954,1,4.40981e-05,-8.08956e-06,1.07532e-05,0.00881962,-0.00161791,0.00215063,0,0,0,0,0.0579312,0.520093,-0.995257,33.1875,1,7436,20597948
32,4,-0.660919,-0.0936694,9.79484,0.0696298,-0.567966,1.00462,-0.00661076,-0.00094636,0.0979482,1,4.77079e-05,-8.27375e-06,2.42425e-05,0.00954158,-0.00165475,0.00484849,0,0,0,0,0.0578776,0.51965,-0.997792,33.1875,1,7437,20598048
33,1,-0.660919,-0.0936694,9.79484,0.0696298,-0.567966,1.00462,-0.00661076,-0.00094636,0.0979482,1,4.77079e-05,-8.27375e-06,2.42425e-05,0.00954158,-0.00165475,0.00484849,0,0,0,0,0.0578776,0.51965,-0.997792,33.1875,1,7437,20598048
33,2,-0.660927,-0.0894101,9.78403,0.0675344,-0.561988,0.996426,-0.00661224,-0.000904957,0.09784,1,5.45606e-05,-1.52978e-05,1.35377e-05,0.0109121,-0.00305957,0.00270753,0,0,0,0,0.056401,0.518723,-0.999826,33.1875,1,7438,20598148
33,3,-0.660927,-0.0894101,9.78403,0.0675344,-0.561988,0.996426,-0.00661224,-0.000904957,0.09784,1,5.45606e-05,-1.52978e-05,1.35377e-05,0.0109121,-0.00305957,0.00270753,0,0,0,0,0.056401,0.518723,-0.999826,33.1875,1,7438,20598148
33,4,-0.669446,-0.0945105,9.79013,0.058357,-0.570107,0.997998,-0.00669464,-0.000953754,0.0979012,1,4.31631e-05,-1.05999e-06,1.47482e-05,0.00863263,-0.000211998,0.00294964,0,0,0,0,0.0569799,0.515756,-0.997875,33.1875,1,7439,20598248
34,1,-0.669446,-0.0945105,9.79013,0.058357,-0.570107,0.997998,-0.00669464,-0.000953754,0.0979012,1,4.31631e-05,-1.05999e-06,1.47482e-05,0.00863263,-0.000211998,0.00294964,0,0,0,0,0.0569799,0.515756,-0.997875,33.1875,1,7439,20598248
34,2,-0.666286,-0.0957802,9.79045,0.0650749,-0.565924,0.99676,-0.00666464,-0.00096704,0.0979043,1,4.61303e-05,-9.21681e-06,1.54056e-05,0.00922607,-0.00184336,0.00308113,0,0,0,0,0.0570131,0.516696,-0.995834,33.1875,1,7440,20598348
34,3,-0.666286,-0.0957802,9.79045,0.0650749,-0.565924,0.99676,-0.00666464,-0.00096704,0.0979043,1,4.61303e-05,-9.21681e-06,1.54056e-05,0.00922607,-0.00184336,0.00308113,0,0,0,0,0.0570131,0.516696,-0.995834,33.1875,1,7440,20598348
34,4,-0.662732,-0.0944648,9.79486,0.0604978,-0.568864,1.00526,-0.00663088,-0.000952135,0.0979482,1,3.70781e-05,-1.83394e-05,1.68343e-05,0.00741562,-0.00366788,0.00336687,0,0,0,0,0.0584574,0.519574,-0.993756,33.1875,1,7441,20598448
35,1,-0.662732,-0.0944648,9.79486,0.0604978,-0.568864,1.00526,-0.00663088,-0.000952135,0.0979482,1,3.70781e-05,-1.83394e-05,1.68343e-05,0.00741562,-0.00366788,0.00336687,0,0,0,0,0.0584574,0.519574,-0.993756,33.1875,1,7441,20598448
35,2,-0.659921,-0.0988365,9.79139,0.0668357,-0.571057,0.996903,-0.00659996,-0.000996967,0.0979138,1,4.18256e-05,-4.1464e-06,3.11584e-05,0.00836512,-0.00082928,0.00623168,0,0,0,0,0.0584246,0.52008,-0.994755,33.1875,1,7442,20598548
35,3,-0.659921,-0.0988365,9.79139,0.0668357,-0.571057,0.996903,-0.00659996,-0.000996967,0.0979138,1,4.18256e-05,-4.1464e-06,3.11584e-05,0.00836512,-0.00082928,0.00623168,0,0,0,0,0.0584246,0.52008,-0.994755,33.1875,1,7442,20598548
35,4,-0.66677,-0.0919,9.78607,0.0556383,-0.567794,0.996075,-0.00666854,-0.000929012,0.0978605,1,4.96172e-05,-4.46822e-06,2.25306e-05,0.00992343,-0.000893645,0.00450612,0,0,0,0,0.057869,0.518693,-0.998824,33.1875,1,7443,20598648
36,1,-0.66677,-0.0919,9.78607,0.0556383,-0.567794,0.996075,-0.00666854,-0.000929012,0.0978605,1,4.96172e-05,-4.46822e-06,2.25306e-05,0.00992343,-0.000893645,0.00450612,0,0,0,0,0.057869,0.518693,-0.998824,33.1875,1,7443,20598648
36,2,-0.661893,-0.0961603,9.78906,0.0675162,-0.577207,0.997481,-0.00662176,-0.000969621,0.0978903,1,3.97172e-05,-1.46833e-05,1.82521e-05,0.00794343,-0.00293665,0.00365042,0,0,0,0,0.0558952,0.518745,-1.00083,33.1875,1,7444,20598748
36,3,-0.661893,-0.0961603,9.78906,0.0675162,-0.577207,0.997481,-0.00662176,-0.000969621,0.0978903,1,3.97172e-05,-1.46833e-05,1.82521e-05,0.00794343,-0.00293665,0.00365042,0,0,0,0,0.0558952,0.518745,-1.00083,33.1875,1,7444,20598748
36,4,-0.659606,-0.100956,9.79171,0.0688624,-0.580198,1.00126,-0.00659499,-0.0010167,0.0979171,1,3.53251e-05,5.2563e-06,1.64508e-05,0.00706502,0.00105126,0.00329016,0,0,0,0,0.0554753,0.517259,-0.99935,33.1875,1,7445,20598848
37,1,-0.659606,-0.100956,9.79171,0.0688624,-0.580198,1.00126,-0.00659499,-0.0010167,0.0979171,1,3.53251e-05,5.2563e-06,1.64508e-05,0.00706502,0.00105126,0.00329016,0,0,0,0,0.0554753,0.517259,-0.99935,33.1875,1,7445,20598848
37,2,-0.656435,-0.103469,9.79065,0.0745453,-0.581879,1.0038,-0.00656587,-0.00104496,0.0979063,1,5.03696e-05,-8.13415e-06,3.09331e-05,0.0100739,-0.00162683,0.00618662,0,0,0,0,0.0565282,0.517666,-0.995305,33.1875,1,7446,20598948
37,3,-0.656435,-0.103469,9.79065,0.0745453,-0.581879,1.0038,-0.00656587,-0.00104496,0.0979063,1,5.03696e-05,-8.13415e-06,3.09331e-05,0.0100739,-0.00162683,0.00618662,0,0,0,0,0.0565282,0.517666,-0.995305,33.1875,1,7446,20598948
37,4,-0.660256,-0.104663,9.79168,0.0670997,-0.581244,0.99849,-0.00660294,-0.00105526,0.0979167,1,4.19652e-05,-2.28958e-06,3.11809e-05,0.00839305,-0.000457916,0.00623617,0,0,0,0,0.0584655,0.519086,-0.993767,33.1875,1,7447,20599048
38,1,-0.660256,-0.104663,9.79168,0.0670997,-0.581244,0.99849,-0.00660294,-0.00105526,0.0979167,1,4.19652e-05,-2.28958e-06,3.11809e-05,0.00839305,-0.000457916,0.00623617,0,0,0,0,0.0584655,0.519086,-0.993767,33.1875,1,7447,20599048
38,2,-0.655173,-0.0941256,9.79174,0.0723712,-0.573352,1.00373,-0.0065531,-0.000949041,0.0979173,1,3.80388e-05,-7.22371e-06,2.55873e-05,0.00760776,-0.00144474,0.00511745,0,0,0,0,0.0593333,0.519629,-0.997295,33.1875,1,7448,20599148
38,3,-0.655173,-0.0941256,9.79174,0.0723712,-0.573352,1.00373,-0.0065531,-0.000949041,0.0979173,1,3.80388e-05,-7.22371e-06,2.55873e-05,0.00760776,-0.00144474,0.00511745,0,0,0,0,0.0593333,0.519629,-0.997295,33.1875,1,7448,20599148
38,4,-0.650596,-0.0991924,9.79066,0.0765775,-0.577556,0.994794,-0.00650945,-0.000998746,0.0979063,1,3.30004e-05,-1.80995e-05,2.76436e-05,0.00660008,-0.00361989,0.00552871,0,0,0,0,0.0588066,0.518703,-0.999838,33.1875,1,7449,20599248
39,1,-0.650596,-0.0991924,9.79066,0.0765775,-0.577556,0.994794,-0.00650945,-0.000998746,0.0979063,1,3.30004e-05,-1.80995e-05,2.76436e-05,0.00660008,-0.00361989,0.00552871,0,0,0,0,0.0588066,0.518703,-0.999838,33.1875,1,7449,20599248
39,2,-0.655146,-0.095253,9.79038,0.0718342,-0.577606,1.00049,-0.00655296,-0.000964143,0.0979036,1,5.81462e-05,-7.8474e-06,1.74195e-05,0.0116292,-0.00156948,0.0034839,0,0,0,0,0.0558829,0.518754,-1.00134,33.1875,1,7450,20599348
39,3,-0.655146,-0.095253,9.79038,0.0718342,-0.577606,1.00049,-0.00655296,-0.000964143,0.0979036,1,5.81462e-05,-7.8474e-06,1.74195e-05,0.0116292,-0.00156948,0.0034839,0,0,0,0,0.0558829,0.518754,-1.00134,33.1875,1,7450,20599348
39,4,-0.656345,-0.0906462,9.78908,0.0699436,-0.574824,0.998379,-0.0065677,-0.000914901,0.0978905,1,4.22133e-05,-2.18413e-05,1.32747e-05,0.00844266,-0.00436826,0.00265494,0,0,0,0,0.0549985,0.517741,-0.998832,33.1875,1,7451,20599448
40,1,-0.656345,-0.0906462,9.78908,0.0699436,-0.574824,0.998379,-0.0065677,-0.000914901,0.0978905,1,4.22133e-05,-2.18413e-05,1.32747e-05,0.00844266,-0.00436826,0.00265494,0,0,0,0,0.0549985,0.517741,-0.998832,33.1875,1,7451,20599448
40,2,-0.65373,-0.0889152,9.79823,0.0705175,-0.573456,1.00688,-0.00653984,-0.000898306,0.097982,1,4.64637e-05,-1.29733e-05,3.68244e-06,0.00929274,-0.00259465,0.000736488,0,0,0,0,0.0555375,0.518659,-0.995783,33.1875,1,7452,20599548
40,3,-0.65373,-0.0889152,9.79823,0.0705175,-0.573456,1.00688,-0.00653984,-0.000898306,0.097982,1,4.64637e-05,-1.29733e-05,3.68244e-06,0.00929274,-0.00259465,0.000736488,0,0,0,0,0.0555375,0.518659,-0.995783,33.1875,1,7452,20599548
40,4,-0.650659,-0.10479,9.77839,0.0748922,-0.588714,0.987229,-0.00650763,-0.00105706,0.0977838,1,4.56517e-05,-5.50756e-06,1.81381e-05,0.00913035,-0.00110151,0.00362762,0,0,0,0,0.0574377,0.520106,-0.99576,33.1875,1,7453,20599648
41,1,-0.650659,-0.10479,9.77839,0.0748922,-0.588714,0.987229,-0.00650763,-0.00105706,0.0977838,1,4.56517e-05,-5.50756e-06,1.81381e-05,0.00913035,-0.00110151,0.00362762,0,0,0,0,0.0574377,0.520106,-0.99576,33.1875,1,7453,20599648
41,2,-0.664405,-0.109948,9.80117,0.0626314,-0.589342,1.00726,-0.00664712,-0.00110717,0.0980114,1,3.81413e-05,-1.58288e-05,1.65329e-05,0.00762827,-0.00316577,0.00330658,0,0,0,0,0.058363,0.520125,-0.997279,33.1875,1,7454,20599748
41,3,-0.664405,-0.109948,9.80117,0.0626314,-0.589342,1.00726,-0.00664712,-0.00110717,0.0980114,1,3.81413e-05,-1.58288e-05,1.65329e-05,0.00762827,-0.00316577,0.00330658,0,0,0,0,0.058363,0.520125,-0.997279,33.1875,1,7454,20599748
41,4,-0.64234,-0.105264,9.79394,0.0853482,-0.586399,1.00239,-0.00642587,-0.00105908,0.0979392,1,3.21381e-05,-1.27014e-05,1.14831e-05,0.00642762,-0.00254028,0.00229662,0,0,0,0,0.0583544,0.519168,-0.99831,33.1875,1,7455,20599848
42,1,-0.64234,-0.105264,9.79394,0.0853482,-0.586399,1.00239,-0.00642587,-0.00105908,0.0979392,1,3.21381e-05,-1.27014e-05,1.14831e-05,0.00642762,-0.00254028,0.00229662,0,0,0,0,0.0583544,0.519168,-0.99831,33.1875,1,7455,20599848
42,2,-0.655004,-0.0967017,9.78935,0.0695238,-0.582051,0.998907,-0.00655522,-0.000976718,0.0978931,1,4.92949e-05,-2.65147e-05,3.82788e-06,0.00985898,-0.00530294,0.000765576,0,0,0,0,0.0583336,0.518219,-0.999847,33.1875,1,7456,20599948
42,3,-0.655004,-0.0967017,9.78935,0.0695238,-0.582051,0.998907,-0.00655522,-0.000976718,0.0978931,1,4.92949e-05,-2.65147e-05,3.82788e-06,0.00985898,-0.00530294,0.000765576,0,0,0,0,0.0583336,0.518219,-0.999847,33.1875,1,7456,20599948
42,4,-0.6627,-0.104614,9.79341,0.0622087,-0.585882,1.00421,-0.00663064,-0.00105575,0.0979338,1,4.8183e-05,-1.87268e-05,1.27981e-05,0.0096366,-0.00374536,0.00255961,0,0,0,0,0.0574819,0.516701,-0.996341,33.1875,1,7457,20600048
43,1,-0.6627,-0.104614,9.79341,0.0622087,-0.585882,1.00421,-0.00663064,-0.00105575,0.0979338,1,4.8183e-05,-1.87268e-05,1.27981e-05,0.0096366,-0.00374536,0.00255961,0,0,0,0,0.0574819,0.516701,-0.996341,33.1875,1,7457,20600048
43,2,-0.649418,-0.0898847,9.78665,0.0722579,-0.576541,0.995073,-0.00649457,-0.000906022,0.0978664,1,3.51557e-05,-2.21842e-06,2.26011e-05,0.00703115,-0.000443683,0.00452023,0,0,0,0,0.0556153,0.517638,-0.993281,33.1875,1,7458,20600148
43,3,-0.649418,-0.0898847,9.78665,0.0722579,-0.576541,0.995073,-0.00649457,-0.000906022,0.0978664,1,3.51557e-05,-2.21842e-06,2.26011e-05,0.00703115,-0.000443683,0.00452023,0,0,0,0,0.0556153,0.517638,-0.993281,33.1875,1,7458,20600148
43,4,-0.652542,-0.11251,9.79158,0.0728698,-0.593937,0.999109,-0.00652894,-0.00113142,0.0979154,1,3.1527e-05,-1.8118e-05,1.08799e-05,0.0063054,-0.00362361,0.00217599,0,0,0,0,0.0565452,0.519581,-0.993242,33.1875,1,7459,20600248
44,1,-0.652542,-0.11251,9.79158,0.0728698,-0.593937,0.999109,-0.00652894,-0.00113142,0.0979154,1,3.1527e-05,-1.8118e-05,1.08799e-05,0.0063054,-0.00362361,0.00217599,0,0,0,0,0.0565452,0.519581,-0.993242,33.1875,1,7459,20600248
44,2,-0.653553,-0.0843125,9.78402,0.0727689,-0.573309,0.994289,-0.00653705,-0.00085167,0.09784,1,4.20176e-05,-7.99435e-06,2.46539e-05,0.00840352,-0.00159887,0.00493079,0,0,0,0,0.0588199,0.521584,-0.997249,33.1875,1,7460,20600348
44,3,-0.653553,-0.0843125,9.78402,0.0727689,-0.573309,0.994289,-0.00653705,-0.00085167,0.09784,1,4.20176e-05,-7.99435e-06,2.46539e-05,0.00840352,-0.00159887,0.00493079,0,0,0,0,0.0588199,0.521584,-0.997249,33.1875,1,7460,20600348
44,4,-0.664626,-0.0905769,9.78608,0.0558326,-0.578349,0.99309,-0.00664942,-0.000913863,0.0978605,1,4.00506e-05,-1.63111e-05,1.92133e-05,0.00801012,-0.00326221,0.00384265,0,0,0,0,0.0602134,0.520163,-1.00032,33.1875,1,7461,20600448
45,1,-0.664626,-0.0905769,9.78608,0.0558326,-0.578349,0.99309,-0.00664942,-0.000913863,0.0978605,1,4.00506e-05,-1.63111e-05,1.92133e-05,0.00801012,-0.00326221,0.00384265,0,0,0,0,0.0602134,0.520163,-1.00032,33.1875,1,7461,20600448
45,2,-0.670235,-0.0940978,9.78471,0.0501914,-0.581685,0.996569,-0.00670246,-0.000947838,0.0978471,1,3.39671e-05,-7.30405e-07,1.58345e-05,0.00679343,-0.000146081,0.00316689,0,0,0,0,0.0578112,0.517771,-1.00187,33.1875,1,7462,20600548
45,3,-0.670235,-0.0940978,9.78471,0.0501914,-0.581685,0.996569,-0.00670246,-0.000947838,0.0978471,1,3.39671e-05,-7.30405e-07,1.58345e-05,0.00679343,-0.000146081,0.00316689,0,0,0,0,0.0578112,0.517771,-1.00187,33.1875,1,7462,20600548
45,4,-0.656915,-0.0891573,9.78434,0.0605825,-0.577996,0.988098,-0.00657022,-0.000900242,0.0978432,1,4.33327e-05,-5.60061e-06,1.44614e-05,0.00866654,-0.00112012,0.00289229,0,0,0,0,0.056429,0.516293,-1.00039,33.1875,1,7463,20600648
46,1,-0.656915,-0.0891573,9.78434,0.0605825,-0.577996,0.988098,-0.00657022,-0.000900242,0.0978432,1,4.33327e-05,-5.60061e-06,1.44614e-05,0.00866654,-0.00112012,0.00289229,0,0,0,0,0.056429,0.516293,-1.00039,33.1875,1,7463,20600648
46,2,-0.664578,-0.0982889,9.79652,0.0585101,-0.587354,1.00296,-0.00664856,-0.000991133,0.0979649,1,4.10097e-05,-1.435e-05,1.57246e-05,0.00820195,-0.00287,0.00314492,0,0,0,0,0.056997,0.517671,-0.995812,33.1875,1,7464,20600748
46,3,-0.664578,-0.0982889,9.79652,0.0585101,-0.587354,1.00296,-0.00664856,-0.000991133,0.0979649,1,4.10097e-05,-1.435e-05,1.57246e-05,0.00820195,-0.00287,0.00314492,0,0,0,0,0.056997,0.517671,-0.995812,33.1875,1,7464,20600748
46,4,-0.660172,-0.0976031,9.78836,0.0615532,-0.585806,0.99664,-0.00660382,-0.000987459,0.0978833,1,5.663e-05,-1.09803e-05,2.58311e-05,0.011326,-0.00219607,0.00516622,0,0,0,0,0.0589551,0.52004,-0.992738,33.1875,1,7465,20600848
47,1,-0.660172,-0.0976031,9.78836,0.0615532,-0.585806,0.99664,-0.00660382,-0.000987459,0.0978833,1,5.663e-05,-1.09803e-05,2.58311e-05,0.011326,-0.00219607,0.00516622,0,0,0,0,0.0589551,0.52004,-0.992738,33.1875,1,7465,20600848
47,2,-0.660181,-0.0853141,9.79186,0.0623593,-0.573361,0.999332,-0.00660505,-0.000864846,0.0979183,1,5.80197e-05,-1.67821e-05,2.59447e-05,0.0116039,-0.00335642,0.00518894,0,0,0,0,0.059338,0.521553,-0.995737,33.1875,1,7466,20600948
47,3,-0.660181,-0.0853141,9.79186,0.0623593,-0.573361,0.999332,-0.00660505,-0.000864846,0.0979183,1,5.80197e-05,-1.67821e-05,2.59447e-05,0.0116039,-0.00335642,0.00518894,0,0,0,0,0.059338,0.521553,-0.995737,33.1875,1,7466,20600948
47,4,-0.65415,-0.0918527,9.79277,0.0681073,-0.58559,1.00091,-0.00654185,-0.000927684,0.0979276,1,4.54877e-05,-1.97038e-06,1.89709e-05,0.00909754,-0.000394077,0.00379419,0,0,0,0,0.0583136,0.520161,-0.999298,33.1875,1,7467,20601048
48,1,-0.65415,-0.0918527,9.79277,0.0681073,-0.58559,1.00091,-0.00654185,-0.000927684,0.0979276,1,4.54877e-05,-1.97038e-06,1.89709e-05,0.00909754,-0.000394077,0.00379419,0,0,0,0,0.0583136,0.520161,-0.999298,33.1875,1,7467,20601048
48,2,-0.656332,-0.100221,9.79341,0.0634278,-0.590893,1.00269,-0.00656572,-0.00101018,0.0979338,1,3.96707e-05,-1.2409e-05,1.55696e-05,0.00793414,-0.0024818,0.00311393,0,0,0,0,0.0558872,0.519233,-1.00082,33.1875,1,7468,20601148
48,3,-0.656332,-0.100221,9.79341,0.0634278,-0.590893,1.00269,-0.00656572,-0.00101018,0.0979338,1,3.96707e-05,-1.2409e-05,1.55696e-05,0.00793414,-0.0024818,0.00311393,0,0,0,0,0.0558872,0.519233,-1.00082,33.1875,1,7468,20601148
48,4,-0.665936,-0.0944574,9.79555,0.0545623,-0.582924,1.00769,-0.00666137,-0.000952395,0.0979553,1,3.90784e-05,-1.03784e-05,1.23978e-05,0.00781568,-0.00207569,0.00247955,0,0,0,0,0.055537,0.517213,-0.996826,33.1875,1,7469,20601248
49,1,-0.665936,-0.0944574,9.79555,0.0545623,-0.582924,1.00769,-0.00666137,-0.000952395,0.0979553,1,3.90784e-05,-1.03784e-05,1.23978e-05,0.00781568,-0.00207569,0.00247955,0,0,0,0,0.055537,0.517213,-0.996826,33.1875,1,7469,20601248
49,2,-0.659468,-0.103711,9.79474,0.0548333,-0.59701,1.00131,-0.00659514,-0.00104352,0.0979473,1,3.18326e-05,-2.51087e-06,1.27963e-05,0.00636653,-0.000502174,0.00255926,0,0,0,0,0.0560836,0.516198,-0.994831,33.1875,1,7470,20601348
49,3,-0.659468,-0.103711,9.79474,0.0548333,-0.59701,1.00131,-0.00659514,-0.00104352,0.0979473,1,3.18326e-05,-2.51087e-06,1.27963e-05,0.00636653,-0.000502174,0.00255926,0,0,0,0,0.0560836,0.516198,-0.994831,33.1875,1,7470,20601348
49,4,-0.658178,-0.101437,9.79,0.0602478,-0.595664,1.00024,-0.00658235,-0.0010247,0.0978999,1,5.09732e-05,-3.17586e-06,2.63061e-05,0.0101946,-0.000635172,0.00526122,0,0,0,0,0.0580128,0.518106,-0.993282,33.1875,1,7471,20601448
50,1,-0.658178,-0.101437,9.79,0.0602478,-0.595664,1.00024,-0.00658235,-0.0010247,0.0978999,1,5.09732e-05,-3.17586e-06,2.63061e-05,0.0101946,-0.000635172,0.00526122,0,0,0,0,0.0580128,0.518106,-0.993282,33.1875,1,7471,20601448
50,2,-0.662051,-0.0957354,9.7945,0.0569905,-0.591477,1.00339,-0.00662571,-0.000967172,0.0979446,1,4.95891e-05,-2.66155e-05,7.82868e-06,0.00991782,-0.0053231,0.00156574,0,0,0,0,0.0593541,0.520578,-0.995758,33.1875,1,7472,20601548
50,3,-0.662051,-0.0957354,9.7945,0.0569905,-0.591477,1.00339,-0.00662571,-0.000967172,0.0979446,1,4.95891e-05,-2.66155e-05,7.82868e-06,0.00991782,-0.0053231,0.00156574,0,0,0,0,0.0593541,0.520578,-0.995758,33.1875,1,7472,20601548
50,4,-0.659165,-0.0919279,9.79722,0.0611993,-0.58851,1.00832,-0.00659332,-0.000929743,0.097972,1,5.31543e-05,-8.55356e-06,3.68984e-06,0.0106309,-0.00171071,0.000737967,0,0,0,0,0.0587985,0.519191,-0.999827,33.1875,1,7473,20601648
51,1,-0.659165,-0.0919279,9.79722,0.0611993,-0.58851,1.00832,-0.00659332,-0.000929743,0.097972,1,5.31543e-05,-8.55356e-06,3.68984e-06,0.0106309,-0.00171071,0.000737967,0,0,0,0,0.0587985,0.519191,-0.999827,33.1875,1,7473,20601648
51,2,-0.66732,-0.102956,9.79547,0.0502679,-0.598774,1.00515,-0.00667448,-0.00104017,0.0979545,1,5.25209e-05,-6.78026e-06,2.36688e-05,0.0105042,-0.00135605,0.00473376,0,0,0,0,0.0573424,0.517766,-1.00137,33.1875,1,7474,20601748
51,3,-0.66732,-0.102956,9.79547,0.0502679,-0.598774,1.00515,-0.00667448,-0.00104017,0.0979545,1,5.25209e-05,-6.78026e-06,2.36688e-05,0.0105042,-0.00135605,0.00473376,0,0,0,0,0.0573424,0.517766,-1.00137,33.1875,1,7474,20601748
51,4,-0.654986,-0.101567,9.79067,0.0608744,-0.598656,0.999584,-0.00655285,-0.00102276,0.0979064,1,3.47699e-05,-1.54638e-05,2.11131e-05,0.00695399,-0.00309276,0.00422262,0,0,0,0,0.0574568,0.515273,-0.998393,33.1875,1,7475,20601848
52,1,-0.654986,-0.101567,9.79067,0.0608744,-0.598656,0.999584,-0.00655285,-0.00102276,0.0979064,1,3.47699e-05,-1.54638e-05,2.11131e-05,0.00695399,-0.00309276,0.00422262,0,0,0,0,0.0574568,0.515273,-0.998393,33.1875,1,7475,20601848
52,2,-0.654541,-0.0947544,9.79274,0.0600684,-0.58666,1.00204,-0.00654631,-0.000954416,0.0979273,1,3.32797e-05,-4.83353e-06,2.7085e-05,0.00665593,-0.000966706,0.005417,0,0,0,0,0.0570658,0.514248,-0.995383,33.1875,1,7476,20601948
52,3,-0.654541,-0.0947544,9.79274,0.0600684,-0.58666,1.00204,-0.00654631,-0.000954416,0.0979273,1,3.32797e-05,-4.83353e-06,2.7085e-05,0.00665593,-0.000966706,0.005417,0,0,0,0,0.0570658,0.514248,-0.995383,33.1875,1,7476,20601948
52,4,-0.664578,-0.0944709,9.79248,0.0501732,-0.589658,1.00569,-0.00664838,-0.000953564,0.0979246,1,4.34034e-05,-1.35677e-05,2.66748e-05,0.00868068,-0.00271354,0.00533497,0,0,0,0,0.0570506,0.518114,-0.993277,33.1875,1,7477,20602048
53,1,-0.664578,-0.0944709,9.79248,0.0501732,-0.589658,1.00569,-0.00664838,-0.000953564,0.0979246,1,4.34034e-05,-1.35677e-05,2.66748e-05,0.00868068,-0.00271354,0.00533497,0,0,0,0,0.0570506,0.518114,-0.993277,33.1875,1,7477,20602048
53,2,-0.660742,-0.0974245,9.79753,0.0535411,-0.597202,1.00748,-0.00661077,-0.00098427,0.0979749,1,4.98295e-05,-1.72946e-05,1.97534e-05,0.0099659,-0.00345892,0.00395068,0,0,0,0,0.0583757,0.521561,-0.995732,33.1875,1,7478,20602148
53,3,-0.660742,-0.0974245,9.79753,0.0535411,-0.597202,1.00748,-0.00661077,-0.00098427,0.0979749,1,4.98295e-05,-1.72946e-05,1.97534e-05,0.0099659,-0.00345892,0.00395068,0,0,0,0,0.0583757,0.521561,-0.995732,33.1875,1,7478,20602148
53,4,-0.662351,-0.0919676,9.78638,0.0514941,-0.588399,0.993416,-0.00662344,-0.000927988,0.0978637,1,4.17717e-05,2.34807e-07,1.02406e-05,0.00835435,4.69614e-05,0.00204812,0,0,0,0,0.0592758,0.520153,-0.999303,33.1875,1,7479,20602248
54,1,-0.662351,-0.0919676,9.78638,0.0514941,-0.588399,0.993416,-0.00662344,-0.000927988,0.0978637,1,4.17717e-05,2.34807e-07,1.02406e-05,0.00835435,4.69614e-05,0.00204812,0,0,0,0,0.0592758,0.520153,-0.999303,33.1875,1,7479,20602248
54,2,-0.653335,-0.101345,9.79642,0.0618078,-0.599243,1.00354,-0.00653546,-0.00102035,0.097964,1,3.2952e-05,-1.11014e-05,3.41572e-05,0.0065904,-0.00222029,0.00683144,0,0,0,0,0.0569025,0.518222,-0.999335,33.1875,1,7480,20602348
54,3,-0.653335,-0.101345,9.79642,0.0618078,-0.599243,1.00354,-0.00653546,-0.00102035,0.097964,1,3.2952e-05,-1.11014e-05,3.41572e-05,0.0065904,-0.00222029,0.00683144,0,0,0,0,0.0569025,0.518222,-0.999335,33.1875,1,7480,20602348
54,4,-0.657432,-0.097644,9.7897,0.0550642,-0.598037,1.00069,-0.0065766,-0.000987476,0.0978967,1,5.54639e-05,-1.18188e-05,1.33886e-05,0.0110928,-0.00236376,0.00267772,0,0,0,0,0.0555574,0.516717,-0.996332,33.1875,1,7481,20602448
55,1,-0.657432,-0.097644,9.7897,0.0550642,-0.598037,1.00069,-0.0065766,-0.000987476,0.0978967,1,5.54639e-05,-1.18188e-05,1.33886e-05,0.0110928,-0.00236376,0.00267772,0,0,0,0,0.0555574,0.516717,-0.996332,33.1875,1,7481,20602448
55,2,-0.66253,-0.0996291,9.78666,0.0476489,-0.598034,0.99702,-0.00662779,-0.00100089,0.0978664,1,2.25697e-05,-1.28523e-05,1.39773e-05,0.00451393,-0.00257046,0.00279546,0,0,0,0,0.0556025,0.516202,-0.994828,33.1875,1,7482,20602548
55,3,-0.66253,-0.0996291,9.78666,0.0476489,-0.598034,0.99702,-0.00662779,-0.00100089,0.0978664,1,2.25697e-05,-1.28523e-05,1.39773e-05,0.00451393,-0.00257046,0.00279546,0,0,0,0,0.0556025,0.516202,-0.994828,33.1875,1,7482,20602548
55,4,-0.666396,-0.0976708,9.79924,0.044369,-0.596586,1.00531,-0.00666419,-0.000983107,0.0979924,1,3.19611e-05,-1.29449e-06,1.01907e-05,0.00639221,-0.000258898,0.00203814,0,0,0,0,0.057527,0.516186,-0.994837,33.1875,1,7483,20602648
56,1,-0.666396,-0.0976708,9.79924,0.044369,-0.596586,1.00531,-0.00666419,-0.000983107,0.0979924,1,3.19611e-05,-1.29449e-06,1.01907e-05,0.00639221,-0.000258898,0.00203814,0,0,0,0,0.057527,0.516186,-0.994837,33.1875,1,7483,20602648
56,2,-0.665472,-0.100228,9.80093,0.0474564,-0.60313,1.00695,-0.00665644,-0.00101247,0.098009,1,5.16735e-05,-8.80822e-06,4.67303e-06,0.0103347,-0.00176164,0.000934605,0,0,0,0,0.0574581,0.519609,-0.995266,33.1875,1,7484,20602748
56,3,-0.665472,-0.100228,9.80093,0.0474564,-0.60313,1.00695,-0.00665644,-0.00101247,0.098009,1,5.16735e-05,-8.80822e-06,4.67303e-06,0.0103347,-0.00176164,0.000934605,0,0,0,0,0.0574581,0.519609,-0.995266,33.1875,1,7484,20602748
56,4,-0.655751,-0.105635,9.79131,0.0559728,-0.608483,0.994244,-0.00655764,-0.00106396,0.097913,1,3.75883e-05,-8.9236e-07,1.87641e-05,0.00751765,-0.000178472,0.00375283,0,0,0,0,0.0568788,0.521131,-0.99826,33.1875,1,7485,20602848
57,1,-0.655751,-0.105635,9.79131,0.0559728,-0.608483,0.994244,-0.00655764,-0.00106396,0.097913,1,3.75883e-05,-8.9236e-07,1.87641e-05,0.00751765,-0.000178472,0.00375283,0,0,0,0,0.0568788,0.521131,-0.99826,33.1875,1,7485,20602848
57,2,-0.653241,-0.0859476,9.78772,0.059923,-0.585551,0.997096,-0.00653413,-0.000865031,0.0978771,1,2.80496e-05,-8.81394e-06,4.89888e-06,0.00560992,-0.00176279,0.000979777,0,0,0,0,0.0559076,0.518736,-1.00033,33.1875,1,7486,20602948
57,3,-0.653241,-0.0859476,9.78772,0.059923,-0.585551,0.997096,-0.00653413,-0.000865031,0.0978771,1,2.80496e-05,-8.81394e-06,4.89888e-06,0.00560992,-0.00176279,0.000979777,0,0,0,0,0.0559076,0.518736,-1.00033,33.1875,1,7486,20602948
57,4,-0.667672,-0.0956697,9.80436,0.0402746,-0.600183,1.01541,-0.00667747,-0.000965181,0.0980435,1,4.23807e-05,-3.97877e-06,1.30013e-05,0.00847615,-0.000795754,0.00260026,0,0,0,0,0.0569965,0.516226,-0.996854,33.1875,1,7487,20603048
58,1,-0.667672,-0.0956697,9.80436,0.0402746,-0.600183,1.01541,-0.00667747,-0.000965181,0.0980435,1,4.23807e-05,-3.97877e-06,1.30013e-05,0.00847615,-0.000795754,0.00260026,0,0,0,0,0.0569965,0.516226,-0.996854,33.1875,1,7487,20603048
58,2,-0.65564,-0.0926369,9.78802,0.0474537,-0.596978,0.996175,-0.00655693,-0.00093427,0.0978801,1,3.85044e-05,-3.01738e-06,2.77426e-05,0.00770088,-0.000603475,0.00554852,0,0,0,0,0.0565609,0.51716,-0.994306,33.1875,1,7488,20603148
58,3,-0.65564,-0.0926369,9.78802,0.0474537,-0.596978,0.996175,-0.00655693,-0.00093427,0.0978801,1,3.85044e-05,-3.01738e-06,2.77426e-05,0.00770088,-0.000603475,0.00554852,0,0,0,0,0.0565609,0.51716,-0.994306,33.1875,1,7488,20603148
58,4,-0.666355,-0.0991194,9.78703,0.0405849,-0.608197,0.997617,-0.00666508,-0.000999921,0.0978701,1,4.2878e-05,-8.06888e-06,2.50806e-05,0.00857561,-0.00161378,0.00501613,0,0,0,0,0.0569851,0.519125,-0.995275,33.1875,1,7489,20603248
59,1,-0.666355,-0.0991194,9.78703,0.0405849,-0.608197,0.997617,-0.00666508,-0.000999921,0.0978701,1,4.2878e-05,-8.06888e-06,2.50806e-05,0.00857561,-0.00161378,0.00501613,0,0,0,0,0.0569851,0.519125,-0.995275,33.1875,1,7489,20603248
59,2,-0.66391,-0.104766,9.789,0.0411767,-0.609377,0.998891,-0.00664045,-0.00105461,0.0978898,1,3.38722e-05,-7.16181e-06,2.38884e-05,0.00677445,-0.00143236,0.00477768,0,0,0,0,0.0583345,0.52111,-0.997762,33.1875,1,7490,20603348
59,3,-0.66391,-0.104766,9.789,0.0411767,-0.609377,0.998891,-0.00664045,-0.00105461,0.0978898,1,3.38722e-05,-7.16181e-06,2.38884e-05,0.00677445,-0.00143236,0.00477768,0,0,0,0,0.0583345,0.52111,-0.997762,33.1875,1,7490,20603348
59,4,-0.661382,-0.10631,9.78829,0.046463,-0.611879,0.996751,-0.00661686,-0.00107269,0.0978826,1,4.76969e-05,-1.57691e-05,1.91235e-05,0.00953938,-0.00315381,0.00382469,0,0,0,0,0.0588275,0.519651,-0.998302,33.1875,1,7491,20603448
60,1,-0.661382,-0.10631,9.78829,0.046463,-0.611879,0.996751,-0.00661686,-0.00107269,0.0978826,1,4.76969e-05,-1.57691e-05,1.91235e-05,0.00953938,-0.00315381,0.00382469,0,0,0,0,0.0588275,0.519651,-0.998302,33.1875,1,7491,20603448
60,2,-0.654751,-0.0959497,9.79342,0.0466872,-0.601835,1.00175,-0.00654923,-0.000970604,0.097934,1,5.49834e-05,-9.05036e-06,2.5766e-05,0.0109967,-0.00181007,0.0051532,0,0,0,0,0.0555123,0.517231,-0.997835,33.1875,1,7492,20603548
60,3,-0.654751,-0.0959497,9.79342,0.0466872,-0.601835,1.00175,-0.00654923,-0.000970604,0.097934,1,5.49834e-05,-9.05036e-06,2.5766e-05,0.0109967,-0.00181007,0.0051532,0,0,0,0,0.0555123,0.517231,-0.997835,33.1875,1,7492,20603548
60,4,-0.656782,-0.0999918,9.79475,0.0377139,-0.602633,1.002,-0.00656965,-0.00100572,0.0979473,1,2.88281e-05,-9.47903e-06,1.20309e-05,0.00576562,-0.00189581,0.00240618,0,0,0,0,0.0555532,0.516238,-0.996847,33.1875,1,7493,20603648
61,1,-0.656782,-0.0999918,9.79475,0.0377139,-0.602633,1.002,-0.00656965,-0.00100572,0.0979473,1,2.88281e-05,-9.47903e-06,1.20309e-05,0.00576562,-0.00189581,0.00240618,0,0,0,0,0.0555532,0.516238,-0.996847,33.1875,1,7493,20603648
61,2,-0.66607,-0.0937554,9.7864,0.031496,-0.601679,0.992296,-0.00666221,-0.000945896,0.0978638,1,4.15817e-05,-7.87707e-06,1.52662e-05,0.00831634,-0.00157541,0.00305324,0,0,0,0,0.0579592,0.517663,-0.995817,33.1875,1,7494,20603748
61,3,-0.66607,-0.0937554,9.7864,0.031496,-0.601679,0.992296,-0.00666221,-0.000945896,0.0978638,1,4.15817e-05,-7.87707e-06,1.52662e-05,0.00831634,-0.00157541,0.00305324,0,0,0,0,0.0579592,0.517663,-0.995817,33.1875,1,7494,20603748
61,4,-0.659556,-0.0925586,9.79077,0.0396198,-0.601409,0.997439,-0.00659639,-0.000935715,0.0979075,1,5.04257e-05,-4.42925e-06,1.93471e-05,0.0100851,-0.00088585,0.00386941,0,0,0,0,0.0574743,0.518634,-0.995288,33.1875,1,7495,20603848
62,1,-0.659556,-0.0925586,9.79077,0.0396198,-0.601409,0.997439,-0.00659639,-0.000935715,0.0979075,1,5.04257e-05,-4.42925e-06,1.93471e-05,0.0100851,-0.00088585,0.00386941,0,0,0,0,0.0574743,0.518634,-0.995288,33.1875,1,7495,20603848
62,2,-0.666127,-0.0933721,9.78368,0.0310602,-0.601223,0.992737,-0.00666249,-0.000941195,0.0978366,1,3.62041e-05,-6.51392e-06,2.92846e-05,0.00724082,-0.00130278,0.00585693,0,0,0,0,0.0573965,0.519654,-0.99779,33.1875,1,7496,20603948
62,3,-0.666127,-0.0933721,9.78368,0.0310602,-0.601223,0.992737,-0.00666249,-0.000941195,0.0978366,1,3.62041e-05,-6.51392e-06,2.92846e-05,0.00724082,-0.00130278,0.00585693,0,0,0,0,0.0573965,0.519654,-0.99779,33.1875,1,7496,20603948
62,4,-0.670315,-0.093234,9.79661,0.0258035,-0.60402,1.00464,-0.00670477,-0.000938566,0.0979659,1,3.00875e-05,-8.47502e-06,2.46966e-05,0.0060175,-0.001695,0.00493932,0,0,0,0,0.0587615,0.519218,-1.00134,33.1875,1,7497,20604048
63,1,-0.670315,-0.093234,9.79661,0.0258035,-0.60402,1.00464,-0.00670477,-0.000938566,0.0979659,1,3.00875e-05,-8.47502e-06,2.46966e-05,0.0060175,-0.001695,0.00493932,0,0,0,0,0.0587615,0.519218,-1.00134,33.1875,1,7497,20604048
63,2,-0.667263,-0.105485,9.78427,0.0238655,-0.611164,0.992814,-0.00667515,-0.00106159,0.0978424,1,3.36952e-05,-1.30015e-05,1.10062e-05,0.00673904,-0.0026003,0.00220124,0,0,0,0,0.0573343,0.518254,-1.00136,33.1875,1,7498,20604148
63,3,-0.667263,-0.105485,9.78427,0.0238655,-0.611164,0.992814,-0.00667515,-0.00106159,0.0978424,1,3.36952e-05,-1.30015e-05,1.10062e-05,0.00673904,-0.0026003,0.00220124,0,0,0,0,0.0573343,0.518254,-1.00136,33.1875,1,7498,20604148
63,4,-0.656097,-0.101965,9.79134,0.0336412,-0.60767,0.997723,-0.00656392,-0.001027,0.0979131,1,3.69417e-05,-1.51566e-05,8.52554e-06,0.00738834,-0.00303132,0.00170511,0,0,0,0,0.0555408,0.516247,-0.997352,33.1875,1,7499,20604248
64,1,-0.656097,-0.101965,9.79134,0.0336412,-0.60767,0.997723,-0.00656392,-0.001027,0.0979131,1,3.69417e-05,-1.51566e-05,8.52554e-06,0.00738834,-0.00303132,0.00170511,0,0,0,0,0.0555408,0.516247,-0.997352,33.1875,1,7499,20604248
64,2,-0.657787,-0.0957704,9.79107,0.0277368,-0.597821,0.999689,-0.00658035,-0.000965315,0.0979104,1,3.71487e-05,-1.28819e-05,2.56244e-05,0.00742973,-0.00257637,0.00512489,0,0,0,0,0.0555949,0.518135,-0.993775,33.1875,1,7500,20604348
64,3,-0.657787,-0.0957704,9.79107,0.0277368,-0.597821,0.999689,-0.00658035,-0.000965315,0.0979104,1,3.71487e-05,-1.28819e-05,2.56244e-05,0.00742973,-0.00257637,0.00512489,0,0,0,0,0.0555949,0.518135,-0.993775,33.1875,1,7500,20604348
64,4,-0.653805,-0.0949689,9.7863,0.0339066,-0.602888,0.995184,-0.00653877,-0.000957993,0.0978629,1,4.11999e-05,-3.8593e-06,1.83171e-05,0.00823998,-0.00077186,0.00366341,0,0,0,0,0.0575279,0.519076,-0.992753,33.1875,1,7501,20604448
65,1,-0.653805,-0.0949689,9.7863,0.0339066,-0.602888,0.995184,-0.00653877,-0.000957993,0.0978629,1,4.11999e-05,-3.8593e-06,1.83171e-05,0.00823998,-0.00077186,0.00366341,0,0,0,0,0.0575279,0.519076,-0.992753,33.1875,1,7501,20604448
65,2,-0.662992,-0.098403,9.79107,0.0226619,-0.608443,0.998433,-0.00662835,-0.000995991,0.0979107,1,5.93106e-05,7.71504e-06,2.61176e-05,0.0118621,0.00154301,0.00522351,0,0,0,0,0.0579269,0.519614,-0.995773,33.1875,1,7502,20604548
65,3,-0.662992,-0.098403,9.79107,0.0226619,-0.608443,0.998433,-0.00662835,-0.000995991,0.0979107,1,5.93106e-05,7.71504e-06,2.61176e-05,0.0118621,0.00154301,0.00522351,0,0,0,0,0.0579269,0.519614,-0.995773,33.1875,1,7502,20604548
65,4,-0.661606,-0.0934481,9.79145,0.0273625,-0.604716,1.00164,-0.00661851,-0.000941127,0.0979143,1,3.34009e-05,-1.2586e-05,7.90337e-06,0.00668018,-0.00251719,0.00158067,0,0,0,0,0.0578534,0.521114,-0.99776,33.1875,1,7503,20604648
66,1,-0.661606,-0.0934481,9.79145,0.0273625,-0.604716,1.00164,-0.00661851,-0.000941127,0.0979143,1,3.34009e-05,-1.2586e-05,7.90337e-06,0.00668018,-0.00251719,0.00158067,0,0,0,0,0.0578534,0.521114,-0.99776,33.1875,1,7503,20604648
66,2,-0.651873,-0.105632,9.79298,0.0312619,-0.621487,0.998606,-0.0065225,-0.0010653,0.0979295,1,4.51188e-05,-1.93865e-05,1.06785e-05,0.00902377,-0.0038773,0.00213571,0,0,0,0,0.0564504,0.518687,-0.997807,33.1875,1,7504,20604748
66,3,-0.651873,-0.105632,9.79298,0.0312619,-0.621487,0.998606,-0.0065225,-0.0010653,0.0979295,1,4.51188e-05,-1.93865e-05,1.06785e-05,0.00902377,-0.0038773,0.00213571,0,0,0,0,0.0564504,0.518687,-0.997807,33.1875,1,7504,20604748
66,4,-0.667796,-0.0872371,9.79053,0.0204366,-0.595691,0.998491,-0.00668008,-0.000880732,0.097905,1,4.16095e-05,-1.09542e-05,1.59836e-05,0.00832191,-0.00219084,0.00319672,0,0,0,0,0.0565605,0.515715,-0.995348,33.1875,1,7505,20604848
67,1,-0.667796,-0.0872371,9.79053,0.0204366,-0.595691,0.998491,-0.00668008,-0.000880732,0.097905,1,4.16095e-05,-1.09542e-05,1.59836e-05,0.00832191,-0.00219084,0.00319672,0,0,0,0,0.0565605,0.515715,-0.995348,33.1875,1,7505,20604848
67,2,-0.659161,-0.105425,9.78319,0.0257093,-0.618539,0.988714,-0.0065933,-0.00106496,0.0978317,1,5.37578e-05,-8.76172e-06,1.48937e-05,0.0107516,-0.00175234,0.00297875,0,0,0,0,0.0565695,0.518118,-0.993275,33.1875,1,7506,20604948
67,3,-0.659161,-0.105425,9.78319,0.0257093,-0.618539,0.988714,-0.0065933,-0.00106496,0.0978317,1,5.37578e-05,-8.76172e-06,1.48937e-05,0.0107516,-0.00175234,0.00297875,0,0,0,0,0.0565695,0.518118,-0.993275,33.1875,1,7506,20604948
67,4,-0.656899,-0.0953781,9.78733,0.0286868,-0.60789,0.99234,-0.00657036,-0.000962263,0.0978732,1,4.15592e-05,-7.27937e-06,2.63939e-05,0.00831185,-0.00145587,0.00527877,0,0,0,0,0.0574871,0.52007,-0.993741,33.1875,1,7507,20605048
68,1,-0.656899,-0.0953781,9.78733,0.0286868,-0.60789,0.99234,-0.00657036,-0.000962263,0.0978732,1,4.15592e-05,-7.27937e-06,2.63939e-05,0.00831185,-0.00145587,0.00527877,0,0,0,0,0.0574871,0.52007,-0.993741,33.1875,1,7507,20605048
68,2,-0.662586,-0.103557,9.79137,0.0231977,-0.621302,0.998792,-0.00662752,-0.00104602,0.0979135,1,5.18206e-05,-8.72436e-06,2.284e-05,0.0103641,-0.00174487,0.004568,0,0,0,0,0.057878,0.521096,-0.99675,33.1875,1,7508,20605148
68,3,-0.662586,-0.103557,9.79137,0.0231977,-0.621302,0.998792,-0.00662752,-0.00104602,0.0979135,1,5.18206e-05,-8.72436e-06,2.284e-05,0.0103641,-0.00174487,0.004568,0,0,0,0,0.057878,0.521096,-0.99675,33.1875,1,7508,20605148
68,4,-0.671981,-0.0963004,9.79049,0.0121646,-0.607643,0.997609,-0.00672319,-0.000968818,0.0979046,1,2.90201e-05,-1.73878e-05,9.7546e-06,0.00580402,-0.00347755,0.00195092,0,0,0,0,0.0568418,0.521158,-0.999774,33.1875,1,7509,20605248
69,1,-0.671981,-0.0963004,9.79049,0.0121646,-0.607643,0.997609,-0.00672319,-0.000968818,0.0979046,1,2.90201e-05,-1.73878e-05,9.7546e-06,0.00580402,-0.00347755,0.00195092,0,0,0,0,0.0568418,0.521158,-0.999774,33.1875,1,7509,20605248
69,2,-0.655277,-0.103335,9.79846,0.0301578,-0.619271,1.00497,-0.00655554,-0.00104029,0.0979843,1,3.45166e-05,-1.42977e-05,1.35191e-05,0.00690333,-0.00285954,0.00270383,0,0,0,0,0.0563806,0.51922,-1.00032,33.1875,1,7510,20605348
69,3,-0.655277,-0.103335,9.79846,0.0301578,-0.619271,1.00497,-0.00655554,-0.00104029,0.0979843,1,3.45166e-05,-1.42977e-05,1.35191e-05,0.00690333,-0.00285954,0.00270383,0,0,0,0,0.0563806,0.51922,-1.00032,33.1875,1,7510,20605348
69,4,-0.652502,-0.094889,9.78832,0.035521,-0.60927,0.993594,-0.00652579,-0.000958729,0.097883,1,4.98034e-05,-3.97857e-06,6.84538e-06,0.00996068,-0.000795714,0.00136908,0,0,0,0,0.0565443,0.516691,-0.995327,33.1875,1,7511,20605448
70,1,-0.652502,-0.094889,9.78832,0.035521,-0.60927,0.993594,-0.00652579,-0.000958729,0.097883,1,4.98034e-05,-3.97857e-06,6.84538e-06,0.00996068,-0.000795714,0.00136908,0,0,0,0,0.0565443,0.516691,-0.995327,33.1875,1,7511,20605448
70,2,-0.649548,-0.0994238,9.79099,0.0388687,-0.613866,0.997782,-0.00649729,-0.00100236,0.0979097,1,3.92518e-05,-9.60001e-06,3.3898e-05,0.00785036,-0.00192,0.0067796,0,0,0,0,0.0560841,0.517643,-0.993788,33.1875,1,7512,20605548
70,3,-0.649548,-0.0994238,9.79099,0.0388687,-0.613866,0.997782,-0.00649729,-0.00100236,0.0979097,1,3.92518e-05,-9.60001e-06,3.3898e-05,0.00785036,-0.00192,0.0067796,0,0,0,0,0.0560841,0.517643,-0.993788,33.1875,1,7512,20605548
70,4,-0.659031,-0.0960649,9.8016,0.0285253,-0.611529,1.00763,-0.00659333,-0.000969789,0.0980157,1,4.57373e-05,-1.55213e-05,1.31466e-05,0.00914746,-0.00310426,0.00262932,0,0,0,0,0.0584365,0.518626,-0.995292,33.1875,1,7513,20605648
71,1,-0.659031,-0.0960649,9.8016,0.0285253,-0.611529,1.00763,-0.00659333,-0.000969789,0.0980157,1,4.57373e-05,-1.55213e-05,1.31466e-05,0.00914746,-0.00310426,0.00262932,0,0,0,0,0.0584365,0.518626,-0.995292,33.1875,1,7513,20605648
71,2,-0.659499,-0.102175,9.78391,0.0275677,-0.616065,0.986541,-0.00659648,-0.00103043,0.0978389,1,4.31743e-05,-7.79736e-06,1.77117e-05,0.00863486,-0.00155947,0.00354234,0,0,0,0,0.0593171,0.520605,-0.997273,33.1875,1,7514,20605748
71,3,-0.659499,-0.102175,9.78391,0.0275677,-0.616065,0.986541,-0.00659648,-0.00103043,0.0978389,1,4.31743e-05,-7.79736e-06,1.77117e-05,0.00863486,-0.00155947,0.00354234,0,0,0,0,0.0593171,0.520605,-0.997273,33.1875,1,7514,20605748
71,4,-0.663294,-0.0947424,9.79315,0.0177809,-0.611396,0.997638,-0.00663455,-0.000955903,0.0979313,1,4.136e-05,-8.50451e-06,2.85117e-05,0.00827201,-0.0017009,0.00570234,0,0,0,0,0.0583506,0.520134,-0.997784,33.1875,1,7515,20605848
72,1,-0.663294,-0.0947424,9.79315,0.0177809,-0.611396,0.997638,-0.00663455,-0.000955903,0.0979313,1,4.136e-05,-8.50451e-06,2.85117e-05,0.00827201,-0.0017009,0.00570234,0,0,0,0,0.0583506,0.520134,-0.997784,33.1875,1,7515,20605848
72,2,-0.662037,-0.103253,9.79172,0.0211902,-0.620207,1.00211,-0.00662498,-0.00104157,0.0979168,1,4.44669e-05,-2.38212e-05,2.49651e-05,0.00889339,-0.00476425,0.00499303,0,0,0,0,0.0559607,0.517733,-0.998836,33.1875,1,7516,20605948
72,3,-0.662037,-0.103253,9.79172,0.0211902,-0.620207,1.00211,-0.00662498,-0.00104157,0.0979168,1,4.44669e-05,-2.38212e-05,2.49651e-05,0.00889339,-0.00476425,0.00499303,0,0,0,0,0.0559607,0.517733,-0.998836,33.1875,1,7516,20605948
72,4,-0.657674,-0.0973823,9.79208,0.0275043,-0.610531,0.99848,-0.00658092,-0.000982978,0.0979204,1,4.58063e-05,-2.14984e-05,1.40145e-05,0.00916126,-0.00429969,0.0028029,0,0,0,0,0.054599,0.515758,-0.996854,33.1875,1,7517,20606048
73,1,-0.657674,-0.0973823,9.79208,0.0275043,-0.610531,0.99848,-0.00658092,-0.000982978,0.0979204,1,4.58063e-05,-2.14984e-05,1.40145e-05,0.00916126,-0.00429969,0.0028029,0,0,0,0,0.054599,0.515758,-0.996854,33.1875,1,7517,20606048
73,2,-0.651633,-0.0959059,9.77984,0.029614,-0.617477,0.990461,-0.00652072,-0.000967478,0.097798,1,4.2066e-05,-2.2592e-05,1.46627e-05,0.0084132,-0.00451841,0.00293254,0,0,0,0,0.0551133,0.516694,-0.994815,33.1875,1,7518,20606148
73,3,-0.651633,-0.0959059,9.77984,0.029614,-0.617477,0.990461,-0.00652072,-0.000967478,0.097798,1,4.2066e-05,-2.2592e-05,1.46627e-05,0.0084132,-0.00451841,0.00293254,0,0,0,0,0.0551133,0.516694,-0.994815,33.1875,1,7518,20606148
73,4,-0.65636,-0.0968265,9.79716,0.0305882,-0.61248,1.00478,-0.00656675,-0.000975549,0.0979713,1,3.60366e-05,-1.62608e-05,1.69353e-05,0.00720731,-0.00325217,0.00338705,0,0,0,0,0.057499,0.518616,-0.994278,33.1875,1,7519,20606248
74,1,-0.65636,-0.0968265,9.79716,0.0305882,-0.61248,1.00478,-0.00656675,-0.000975549,0.0979713,1,3.60366e-05,-1.62608e-05,1.69353e-05,0.00720731,-0.00325217,0.00338705,0,0,0,0,0.057499,0.518616,-0.994278,33.1875,1,7519,20606248
74,2,-0.660729,-0.0921875,9.77822,0.0275661,-0.60666,0.984813,-0.00660787,-0.00093156,0.097782,1,4.79612e-05,-3.18372e-06,2.31229e-05,0.00959225,-0.000636745,0.00462458,0,0,0,0,0.0583634,0.52157,-0.996237,33.1875,1,7520,20606348
74,3,-0.660729,-0.0921875,9.77822,0.0275661,-0.60666,0.984813,-0.00660787,-0.00093156,0.097782,1,4.79612e-05,-3.18372e-06,2.31229e-05,0.00959225,-0.000636745,0.00462458,0,0,0,0,0.0583634,0.52157,-0.996237,33.1875,1,7520,20606348
74,4,-0.658667,-0.103523,9.79373,0.0294816,-0.624305,0.995344,-0.00658932,-0.00104659,0.097937,1,5.62819e-05,-1.38021e-05,2.60581e-05,0.0112564,-0.00276041,0.00521162,0,0,0,0,0.0587663,0.521142,-0.999784,33.1875,1,7521,20606448
75,1,-0.658667,-0.103523,9.79373,0.0294816,-0.624305,0.995344,-0.00658932,-0.00104659,0.097937,1,5.62819e-05,-1.38021e-05,2.60581e-05,0.0112564,-0.00276041,0.00521162,0,0,0,0,0.0587663,0.521142,-0.999784,33.1875,1,7521,20606448
75,2,-0.669157,-0.0962011,9.78571,0.00965882,-0.615111,0.990632,-0.00669232,-0.00097441,0.0978569,1,6.1985e-05,-4.0405e-06,1.99752e-05,0.012397,-0.000808099,0.00399504,0,0,0,0,0.0573305,0.519221,-1.00083,33.1875,1,7522,20606548
75,3,-0.669157,-0.0962011,9.78571,0.00965882,-0.615111,0.990632,-0.00669232,-0.00097441,0.0978569,1,6.1985e-05,-4.0405e-06,1.99752e-05,0.012397,-0.000808099,0.00399504,0,0,0,0,0.0573305,0.519221,-1.00083,33.1875,1,7522,20606548
75,4,-0.663041,-0.0982369,9.78769,0.0209527,-0.622478,0.99476,-0.00663067,-0.000991066,0.0978768,1,4.2485e-05,-1.61514e-06,2.86383e-05,0.00849699,-0.000323029,0.00572766,0,0,0,0,0.0564954,0.518172,-0.996304,33.1875,1,7523,20606648
76,1,-0.663041,-0.0982369,9.78769,0.0209527,-0.622478,0.99476,-0.00663067,-0.000991066,0.0978768,1,4.2485e-05,-1.61514e-06,2.86383e-05,0.00849699,-0.000323029,0.00572766,0,0,0,0,0.0564954,0.518172,-0.996304,33.1875,1,7523,20606648
76,2,-0.659578,-0.0954757,9.7904,0.0304648,-0.614737,0.999216,-0.00659672,-0.000962141,0.0979039,1,3.62527e-05,-5.02919e-06,2.16793e-05,0.00725053,-0.00100584,0.00433586,0,0,0,0,0.057581,0.518074,-0.99126,33.1875,1,7524,20606748
76,3,-0.659578,-0.0954757,9.7904,0.0304648,-0.614737,0.999216,-0.00659672,-0.000962141,0.0979039,1,3.62527e-05,-5.02919e-06,2.16793e-05,0.00725053,-0.00100584,0.00433586,0,0,0,0,0.057581,0.518074,-0.99126,33.1875,1,7524,20606748
76,4,-0.663516,-0.100897,9.78429,0.0190055,-0.619797,0.987551,-0.00663827,-0.00101555,0.0978426,1,3.27268e-05,-1.60111e-05,1.34315e-05,0.00654535,-0.00320223,0.0026863,0,0,0,0,0.059477,0.519042,-0.991753,33.1875,1,7525,20606848
77,1,-0.663516,-0.100897,9.78429,0.0190055,-0.619797,0.987551,-0.00663827,-0.00101555,0.0978426,1,3.27268e-05,-1.60111e-05,1.34315e-05,0.00654535,-0.00320223,0.0026863,0,0,0,0,0.059477,0.519042,-0.991753,33.1875,1,7525,20606848
77,2,-0.654147,-0.0853824,9.78435,0.0283617,-0.602564,0.983335,-0.0065448,-0.00086298,0.0978432,1,4.59105e-05,-1.71251e-05,1.31391e-05,0.0091821,-0.00342502,0.00262782,0,0,0,0,0.0602632,0.521572,-0.997256,33.1875,1,7526,20606948
77,3,-0.654147,-0.0853824,9.78435,0.0283617,-0.602564,0.983335,-0.0065448,-0.00086298,0.0978432,1,4.59105e-05,-1.71251e-05,1.31391e-05,0.0091821,-0.00342502,0.00262782,0,0,0,0,0.0602632,0.521572,-0.997256,33.1875,1,7526,20606948
77,4,-0.65856,-0.0841897,9.79118,0.0255798,-0.605197,0.991541,-0.00658712,-0.000848021,0.0979116,1,2.9415e-05,-8.01478e-06,2.76397e-05,0.00588301,-0.00160296,0.00552794,0,0,0,0,0.0592512,0.520171,-1.00031,33.1875,1,7527,20607048
78,1,-0.65856,-0.0841897,9.79118,0.0255798,-0.605197,0.991541,-0.00658712,-0.000848021,0.0979116,1,2.9415e-05,-8.01478e-06,2.76397e-05,0.00588301,-0.00160296,0.00552794,0,0,0,0,0.0592512,0.520171,-1.00031,33.1875,1,7527,20607048
78,2,-0.668005,-0.0913391,9.77999,0.0129154,-0.616908,0.991006,-0.00668385,-0.000921541,0.0977996,1,4.06523e-05,-1.95894e-05,1.48544e-05,0.00813046,-0.00391789,0.00297088,0,0,0,0,0.0564172,0.517747,-0.999848,33.1875,1,7528,20607148
78,3,-0.668005,-0.0913391,9.77999,0.0129154,-0.616908,0.991006,-0.00668385,-0.000921541,0.0977996,1,4.06523e-05,-1.95894e-05,1.48544e-05,0.00813046,-0.00391789,0.00297088,0,0,0,0,0.0564172,0.517747,-0.999848,33.1875,1,7528,20607148
78,4,-0.665668,-0.0879905,9.78475,0.0190439,-0.614482,0.993173,-0.0066598,-0.000887509,0.0978472,1,3.7497e-05,-1.61659e-05,1.99618e-05,0.0074994,-0.00323319,0.00399236,0,0,0,0,0.0560219,0.516243,-0.997355,33.1875,1,7529,20607248
79,1,-0.665668,-0.0879905,9.78475,0.0190439,-0.614482,0.993173,-0.0066598,-0.000887509,0.0978472,1,3.7497e-05,-1.61659e-05,1.99618e-05,0.0074994,-0.00323319,0.00399236,0,0,0,0,0.0560219,0.516243,-0.997355,33.1875,1,7529,20607248
79,2,-0.665574,-0.101282,9.80396,0.0198846,-0.620753,1.01373,-0.00665679,-0.00102233,0.0980395,1,4.72217e-05,-5.59538e-06,1.87029e-05,0.00944435,-0.00111908,0.00374059,0,0,0,0,0.0565282,0.517666,-0.995305,33.1875,1,7530,20607348
79,3,-0.665574,-0.101282,9.80396,0.0198846,-0.620753,1.01373,-0.00665679,-0.00102233,0.0980395,1,4.72217e-05,-5.59538e-06,1.87029e-05,0.00944435,-0.00111908,0.00374059,0,0,0,0,0.0565282,0.517666,-0.995305,33.1875,1,7530,20607348
79,4,-0.664982,-0.0960603,9.78705,0.0193263,-0.617555,0.993066,-0.00665129,-0.000970269,0.0978703,1,4.86244e-05,-7.64045e-06,1.10807e-05,0.00972488,-0.00152809,0.00221614,0,0,0,0,0.0579682,0.520066,-0.993743,33.1875,1,7531,20607448
80,1,-0.664982,-0.0960603,9.78705,0.0193263,-0.617555,0.993066,-0.00665129,-0.000970269,0.0978703,1,4.86244e-05,-7.64045e-06,1.10807e-05,0.00972488,-0.00152809,0.00221614,0,0,0,0,0.0579682,0.520066,-0.993743,33.1875,1,7531,20607448
80,2,-0.657837,-0.0995551,9.79273,0.0289896,-0.618756,0.996209,-0.00657912,-0.00100366,0.0979272,1,4.03207e-05,-4.0084e-06,1.63652e-05,0.00806414,-0.000801681,0.00327303,0,0,0,0,0.0574012,0.521578,-0.996232,33.1875,1,7532,20607548
80,3,-0.657837,-0.0995551,9.79273,0.0289896,-0.618756,0.996209,-0.00657912,-0.00100366,0.0979272,1,4.03207e-05,-4.0084e-06,1.63652e-05,0.00806414,-0.000801681,0.00327303,0,0,0,0,0.0574012,0.521578,-0.996232,33.1875,1,7532,20607548
80,4,-0.659831,-0.0909358,9.78807,0.0254002,-0.614273,0.988793,-0.00660205,-0.000917636,0.0978804,1,4.18669e-05,-1.91493e-05,6.18032e-06,0.00837338,-0.00382987,0.00123606,0,0,0,0,0.0573841,0.519663,-0.998295,33.1875,1,7533,20607648
81,1,-0.659831,-0.0909358,9.78807,0.0254002,-0.614273,0.988793,-0.00660205,-0.000917636,0.0978804,1,4.18669e-05,-1.91493e-05,6.18032e-06,0.00837338,-0.00382987,0.00123606,0,0,0,0,0.0573841,0.519663,-0.998295,33.1875,1,7533,20607648
81,2,-0.658468,-0.105201,9.78659,0.0249692,-0.630822,0.991059,-0.00658614,-0.00105625,0.0978657,1,2.07853e-05,-7.61646e-06,1.30459e-05,0.00415705,-0.00152329,0.00260919,0,0,0,0,0.0573879,0.518697,-0.998822,33.1875,1,7534,20607748
81,3,-0.658468,-0.105201,9.78659,0.0249692,-0.630822,0.991059,-0.00658614,-0.00105625,0.0978657,1,2.07853e-05,-7.61646e-06,1.30459e-05,0.00415705,-0.00152329,0.00260919,0,0,0,0,0.0573879,0.518697,-0.998822,33.1875,1,7534,20607748
81,4,-0.665945,-0.0989139,9.78873,0.0239819,-0.623696,0.993053,-0.00666217,-0.000996909,0.097887,1,3.80632e-05,-1.41634e-05,2.38996e-05,0.00761264,-0.00283268,0.00477993,0,0,0,0,0.0565401,0.516212,-0.995842,33.1875,1,7535,20607848
82,1,-0.665945,-0.0989139,9.78873,0.0239819,-0.623696,0.993053,-0.00666217,-0.000996909,0.097887,1,3.80632e-05,-1.41634e-05,2.38996e-05,0.00761264,-0.00283268,0.00477993,0,0,0,0,0.0565401,0.516212,-0.995842,33.1875,1,7535,20607848
82,2,-0.660755,-0.109487,9.79335,0.0229807,-0.638561,1.0003,-0.00660888,-0.00110211,0.0979333,1,3.56269e-05,-6.96255e-06,1.9459e-05,0.00712537,-0.00139251,0.0038918,0,0,0,0,0.0551176,0.517172,-0.994299,33.1875,1,7536,20607948
82,3,-0.660755,-0.109487,9.79335,0.0229807,-0.638561,1.0003,-0.00660888,-0.00110211,0.0979333,1,3.56269e-05,-6.96255e-06,1.9459e-05,0.00712537,-0.00139251,0.0038918,0,0,0,0,0.0551176,0.517172,-0.994299,33.1875,1,7536,20607948
82,4,-0.657767,-0.0935603,9.78736,0.030174,-0.611041,0.992119,-0.00658068,-0.000946214,0.0978733,1,5.27837e-05,-1.55885e-05,2.12321e-05,0.0105567,-0.0031177,0.00424641,0,0,0,0,0.057014,0.519586,-0.993749,33.1875,1,7537,20608048
83,1,-0.657767,-0.0935603,9.78736,0.030174,-0.611041,0.992119,-0.00658068,-0.000946214,0.0978733,1,5.27837e-05,-1.55885e-05,2.12321e-05,0.0105567,-0.0031177,0.00424641,0,0,0,0,0.057014,0.519586,-0.993749,33.1875,1,7537,20608048
83,2,-0.660425,-0.0985925,9.7785,0.0224154,-0.619492,0.980956,-0.00660459,-0.000995503,0.0977849,1,4.71396e-05,-1.98882e-06,2.71578e-05,0.00942792,-0.000397765,0.00543155,0,0,0,0,0.0588977,0.520564,-0.994747,33.1875,1,7538,20608148
83,3,-0.660425,-0.0985925,9.7785,0.0224154,-0.619492,0.980956,-0.00660459,-0.000995503,0.0977849,1,4.71396e-05,-1.98882e-06,2.71578e-05,0.00942792,-0.000397765,0.00543155,0,0,0,0,0.0588977,0.520564,-0.994747,33.1875,1,7538,20608148
83,4,-0.663545,-0.0991639,9.79006,0.0230641,-0.623949,0.992573,-0.00663841,-0.00100007,0.0979003,1,4.10397e-05,-1.54485e-05,2.95249e-05,0.00820794,-0.0030897,0.00590498,0,0,0,0,0.0588726,0.519137,-0.996798,33.1875,1,7539,20608248
84,1,-0.663545,-0.0991639,9.79006,0.0230641,-0.623949,0.992573,-0.00663841,-0.00100007,0.0979003,1,4.10397e-05,-1.54485e-05,2.95249e-05,0.00820794,-0.0030897,0.00590498,0,0,0,0,0.0588726,0.519137,-0.996798,33.1875,1,7539,20608248
84,2,-0.662537,-0.0905323,9.79251,0.0235216,-0.611456,0.997033,-0.00662638,-0.000915274,0.0979249,1,5.05448e-05,-5.17448e-06,3.88305e-06,0.010109,-0.0010349,0.00077661,0,0,0,0,0.0564869,0.517214,-0.997335,33.1875,1,7540,20608348
84,3,-0.662537,-0.0905323,9.79251,0.0235216,-0.611456,0.997033,-0.00662638,-0.000915274,0.0979249,1,5.05448e-05,-5.17448e-06,3.88305e-06,0.010109,-0.0010349,0.00077661,0,0,0,0,0.0564869,0.517214,-0.997335,33.1875,1,7540,20608348
84,4,-0.655963,-0.0984122,9.79579,0.0324132,-0.624083,0.999187,-0.00656333,-0.00099414,0.0979576,1,4.98947e-05,-1.90643e-05,1.85202e-05,0.00997893,-0.00381285,0.00370404,0,0,0,0,0.0560794,0.515719,-0.995346,33.1875,1,7541,20608448
85,1,-0.655963,-0.0984122,9.79579,0.0324132,-0.624083,0.999187,-0.00656333,-0.00099414,0.0979576,1,4.98947e-05,-1.90643e-05,1.85202e-05,0.00997893,-0.00381285,0.00370404,0,0,0,0,0.0560794,0.515719,-0.995346,33.1875,1,7541,20608448
85,2,-0.662408,-0.103502,9.79715,0.0203082,-0.634548,1.00469,-0.00662613,-0.00104054,0.0979713,1,2.6772e-05,-1.06673e-05,2.06938e-05,0.0053544,-0.00213345,0.00413876,0,0,0,0,0.0570705,0.516172,-0.993826,33.1875,1,7542,20608548
85,3,-0.662408,-0.103502,9.79715,0.0203082,-0.634548,1.00469,-0.00662613,-0.00104054,0.0979713,1,2.6772e-05,-1.06673e-05,2.06938e-05,0.0053544,-0.00213345,0.00413876,0,0,0,0,0.0570705,0.516172,-0.993826,33.1875,1,7542,20608548
85,4,-0.658281,-0.0888919,9.79011,0.0269904,-0.61281,0.997395,-0.00658493,-0.000897447,0.0979009,1,4.2146e-05,-1.10508e-05,2.09625e-05,0.00842919,-0.00221017,0.0041925,0,0,0,0,0.0575113,0.518607,-0.993774,33.1875,1,7543,20608648
86,1,-0.658281,-0.0888919,9.79011,0.0269904,-0.61281,0.997395,-0.00658493,-0.000897447,0.0979009,1,4.2146e-05,-1.10508e-05,2.09625e-05,0.00842919,-0.00221017,0.0041925,0,0,0,0,0.0575113,0.518607,-0.993774,33.1875,1,7543,20608648
86,2,-0.66357,-0.0913394,9.79623,0.0202414,-0.609652,1.00087,-0.00663839,-0.000922443,0.0979621,1,4.50108e-05,-1.39197e-05,1.73394e-05,0.00900215,-0.00278394,0.00346787,0,0,0,0,0.0564793,0.519148,-0.996282,33.1875,1,7544,20608748
86,3,-0.66357,-0.0913394,9.79623,0.0202414,-0.609652,1.00087,-0.00663839,-0.000922443,0.0979621,1,4.50108e-05,-1.39197e-05,1.73394e-05,0.00900215,-0.00278394,0.00346787,0,0,0,0,0.0564793,0.519148,-0.996282,33.1875,1,7544,20608748
86,4,-0.657606,-0.097047,9.79715,0.0301326,-0.624542,0.998681,-0.00657547,-0.000981005,0.0979715,1,5.28711e-05,2.87405e-06,1.33424e-05,0.0105742,0.00057481,0.00266848,0,0,0,0,0.0578814,0.518684,-0.998319,33.1875,1,7545,20608848
87,1,-0.657606,-0.097047,9.79715,0.0301326,-0.624542,0.998681,-0.00657547,-0.000981005,0.0979715,1,5.28711e-05,2.87405e-06,1.33424e-05,0.0105742,0.00057481,0.00266848,0,0,0,0,0.0578814,0.518684,-0.998319,33.1875,1,7545,20608848
87,2,-0.653723,-0.0943686,9.79072,0.0291085,-0.616744,0.996543,-0.00653821,-0.000950997,0.097907,1,3.59437e-05,-5.19288e-06,2.08596e-05,0.00718873,-0.00103858,0.00417192,0,0,0,0,0.0574121,0.517233,-0.998854,33.1875,1,7546,20608948
87,3,-0.653723,-0.0943686,9.79072,0.0291085,-0.616744,0.996543,-0.00653821,-0.000950997,0.097907,1,3.59437e-05,-5.19288e-06,2.08596e-05,0.00718873,-0.00103858,0.00417192,0,0,0,0,0.0574121,0.517233,-0.998854,33.1875,1,7546,20608948
87,4,-0.660159,-0.0840123,9.79018,0.0278364,-0.611459,0.992664,-0.00660533,-0.000850252,0.0979014,1,5.10441e-05,-1.91813e-05,1.01698e-05,0.0102088,-0.00383627,0.00203397,0,0,0,0,0.0565277,0.516221,-0.996347,33.1875,1,7547,20609048
88,1,-0.660159,-0.0840123,9.79018,0.0278364,-0.611459,0.992664,-0.00660533,-0.000850252,0.0979014,1,5.10441e-05,-1.91813e-05,1.01698e-05,0.0102088,-0.00383627,0.00203397,0,0,0,0,0.0565277,0.516221,-0.996347,33.1875,1,7547,20609048
88,2,-0.655246,-0.094303,9.79105,0.0317589,-0.620838,0.997166,-0.00655168,-0.000952567,0.0979105,1,4.70709e-05,3.76236e-06,2.43317e-05,0.00941419,0.000752472,0.00486634,0,0,0,0,0.0560922,0.517155,-0.993799,33.1875,1,7548,20609148
88,3,-0.655246,-0.094303,9.79105,0.0317589,-0.620838,0.997166,-0.00655168,-0.000952567,0.0979105,1,4.70709e-05,3.76236e-06,2.43317e-05,0.00941419,0.000752472,0.00486634,0,0,0,0,0.0560922,0.517155,-0.993799,33.1875,1,7548,20609148
88,4,-0.658136,-0.101224,9.78933,0.0291641,-0.623053,0.991415,-0.00658365,-0.00102039,0.0978931,1,4.12501e-05,-1.17888e-05,5.42592e-06,0.00825002,-0.00235777,0.00108518,0,0,0,0,0.0575151,0.51764,-0.9943,33.1875,1,7549,20609248
89,1,-0.658136,-0.101224,9.78933,0.0291641,-0.623053,0.991415,-0.00658365,-0.00102039,0.0978931,1,4.12501e-05,-1.17888e-05,5.42592e-06,0.00825002,-0.00235777,0.00108518,0,0,0,0,0.0575151,0.51764,-0.9943,33.1875,1,7549,20609248
89,2,-0.65319,-0.0895319,9.78397,0.0359873,-0.618988,0.988162,-0.00653283,-0.000902378,0.0978395,1,3.44329e-05,-4.97897e-06,2.46204e-05,0.00688658,-0.000995793,0.00492408,0,0,0,0,0.0574131,0.520124,-0.99677,33.1875,1,7550,20609348
89,3,-0.65319,-0.0895319,9.78397,0.0359873,-0.618988,0.988162,-0.00653283,-0.000902378,0.0978395,1,3.44329e-05,-4.97897e-06,2.46204e-05,0.00688658,-0.000995793,0.00492408,0,0,0,0,0.0574131,0.520124,-0.99677,33.1875,1,7550,20609348
89,4,-0.66112,-0.100875,9.78732,0.0277485,-0.627767,0.992239,-0.00661416,-0.00101762,0.0978729,1,4.34909e-05,-1.54285e-05,2.66599e-05,0.00869819,-0.0030857,0.00533197,0,0,0,0,0.0568783,0.519685,-0.999302,33.1875,1,7551,20609448
90,1,-0.66112,-0.100875,9.78732,0.0277485,-0.627767,0.992239,-0.00661416,-0.00101762,0.0978729,1,4.34909e-05,-1.54285e-05,2.66599e-05,0.00869819,-0.0030857,0.00533197,0,0,0,0,0.0568783,0.519685,-0.999302,33.1875,1,7551,20609448
90,2,-0.648341,-0.0997044,9.78995,0.041545,-0.63042,0.992364,-0.00648436,-0.00100586,0.0978994,1,4.35225e-05,-5.07025e-06,2.27225e-05,0.00870449,-0.00101405,0.00454451,0,0,0,0,0.0563887,0.518732,-1.00033,33.1875,1,7552,20609548
90,3,-0.648341,-0.0997044,9.78995,0.041545,-0.63042,0.992364,-0.00648436,-0.00100586,0.0978994,1,4.35225e-05,-5.07025e-06,2.27225e-05,0.00870449,-0.00101405,0.00454451,0,0,0,0,0.0563887,0.518732,-1.00033,33.1875,1,7552,20609548
90,4,-0.662139,-0.0955329,9.79721,0.026077,-0.627612,1.00743,-0.00662436,-0.000963053,0.0979719,1,3.81732e-05,-1.53462e-05,1.84942e-05,0.00763463,-0.00306923,0.00369883,0,0,0,0,0.0579592,0.517663,-0.995817,33.1875,1,7553,20609648
91,1,-0.662139,-0.0955329,9.79721,0.026077,-0.627612,1.00743,-0.00662436,-0.000963053,0.0979719,1,3.81732e-05,-1.53462e-05,1.84942e-05,0.00763463,-0.00306923,0.00369883,0,0,0,0,0.0579592,0.517663,-0.995817,33.1875,1,7553,20609648
91,2,-0.657571,-0.0838214,9.79185,0.0324853,-0.615109,0.99276,-0.00657593,-0.000846323,0.0979184,1,3.97043e-05,-1.3042e-06,2.5287e-05,0.00794086,-0.000260841,0.0050574,0,0,0,0,0.0580617,0.516625,-0.992305,33.1875,1,7554,20609748
91,3,-0.657571,-0.0838214,9.79185,0.0324853,-0.615109,0.99276,-0.00657593,-0.000846323,0.0979184,1,3.97043e-05,-1.3042e-06,2.5287e-05,0.00794086,-0.000260841,0.0050574,0,0,0,0,0.0580617,0.516625,-0.992305,33.1875,1,7554,20609748
91,4,-0.653508,-0.0970067,9.7917,0.0333667,-0.626075,0.995421,-0.00653644,-0.000980622,0.0979168,1,5.28152e-05,-7.07802e-06,1.62167e-05,0.010563,-0.0014156,0.00324333,0,0,0,0,0.0580085,0.517627,-0.993798,33.1875,1,7555,20609848
92,1,-0.653508,-0.0970067,9.7917,0.0333667,-0.626075,0.995421,-0.00653644,-0.000980622,0.0979168,1,5.28152e-05,-7.07802e-06,1.62167e-05,0.010563,-0.0014156,0.00324333,0,0,0,0,0.0580085,0.517627,-0.993798,33.1875,1,7555,20609848
92,2,-0.661633,-0.0941024,9.79382,0.027853,-0.620065,0.997021,-0.00661731,-0.000949444,0.097938,1,4.2269e-05,-5.09795e-06,1.06246e-05,0.0084538,-0.00101959,0.00212492,0,0,0,0,0.059802,0.519634,-0.997802,33.1875,1,7556,20609948
92,3,-0.661633,-0.0941024,9.79382,0.027853,-0.620065,0.997021,-0.00661731,-0.000949444,0.097938,1,4.2269e-05,-5.09795e-06,1.06246e-05,0.0084538,-0.00101959,0.00212492,0,0,0,0,0.059802,0.519634,-0.997802,33.1875,1,7556,20609948
92,4,-0.658536,-0.092197,9.79009,0.0269521,-0.622388,0.992235,-0.00658724,-0.000930769,0.0979007,1,4.38523e-05,-9.72639e-06,1.61417e-05,0.00877046,-0.00194528,0.00322835,0,0,0,0,0.0588313,0.518685,-0.998828,33.1875,1,7557,20610048
93,1,-0.658536,-0.092197,9.79009,0.0269521,-0.622388,0.992235,-0.00658724,-0.000930769,0.0979007,1,4.38523e-05,-9.72639e-06,1.61417e-05,0.00877046,-0.00194528,0.00322835,0,0,0,0,0.0588313,0.518685,-0.998828,33.1875,1,7557,20610048
93,2,-0.665366,-0.102276,9.78869,0.0196788,-0.634947,0.995759,-0.0066548,-0.00103148,0.0978867,1,4.38317e-05,-5.9737e-06,1.03715e-05,0.00876633,-0.00119474,0.00207429,0,0,0,0,0.054542,0.517727,-0.99782,33.1875,1,7558,20610148
93,3,-0.665366,-0.102276,9.78869,0.0196788,-0.634947,0.995759,-0.0066548,-0.00103148,0.0978867,1,4.38317e-05,-5.9737e-06,1.03715e-05,0.00876633,-0.00119474,0.00207429,0,0,0,0,0.054542,0.517727,-0.99782,33.1875,1,7558,20610148
93,4,-0.6555,-0.0889914,9.78806,0.0286754,-0.618119,0.991317,-0.00655676,-0.000896977,0.0978805,1,3.5625e-05,-9.01346e-06,6.84507e-06,0.00712499,-0.00180269,0.00136901,0,0,0,0,0.0541387,0.516711,-0.995315,33.1875,1,7559,20610248
94,1,-0.6555,-0.0889914,9.78806,0.0286754,-0.618119,0.991317,-0.00655676,-0.000896977,0.0978805,1,3.5625e-05,-9.01346e-06,6.84507e-06,0.00712499,-0.00180269,0.00136901,0,0,0,0,0.0541387,0.516711,-0.995315,33.1875,1,7559,20610248
94,2,-0.662381,-0.101506,9.79377,0.0264564,-0.63384,0.999989,-0.00662826,-0.00102636,0.0979373,1,5.58624e-05,-2.30266e-05,2.71405e-05,0.0111725,-0.00460532,0.0054281,0,0,0,0,0.0565325,0.518145,-0.994789,33.1875,1,7560,20610348
94,3,-0.662381,-0.101506,9.79377,0.0264564,-0.63384,0.999989,-0.00662826,-0.00102636,0.0979373,1,5.58624e-05,-2.30266e-05,2.71405e-05,0.0111725,-0.00460532,0.0054281,0,0,0,0,0.0565325,0.518145,-0.994789,33.1875,1,7560,20610348
94,4,-0.668801,-0.0879763,9.78952,0.0183202,-0.619963,0.991585,-0.00669111,-0.000887594,0.0978949,1,3.83777e-05,-1.60132e-05,2.37248e-05,0.00767554,-0.00320263,0.00474497,0,0,0,0,0.05891,0.520555,-0.994242,33.1875,1,7561,20610448
95,1,-0.668801,-0.0879763,9.78952,0.0183202,-0.619963,0.991585,-0.00669111,-0.000887594,0.0978949,1,3.83777e-05,-1.60132e-05,2.37248e-05,0.00767554,-0.00320263,0.00474497,0,0,0,0,0.05891,0.520555,-0.994242,33.1875,1,7561,20610448
95,2,-0.654396,-0.0884967,9.78603,0.0268692,-0.618758,0.990461,-0.00654708,-0.000892888,0.09786,1,3.98998e-05,-1.60242e-05,8.50094e-06,0.00797996,-0.00320484,0.00170019,0,0,0,0,0.0583919,0.520586,-0.995754,33.1875,1,7562,20610548
95,3,-0.654396,-0.0884967,9.78603,0.0268692,-0.618758,0.990461,-0.00654708,-0.000892888,0.09786,1,3.98998e-05,-1.60242e-05,8.50094e-06,0.00797996,-0.00320484,0.00170019,0,0,0,0,0.0583919,0.520586,-0.995754,33.1875,1,7562,20610548
95,4,-0.656552,-0.0912427,9.78838,0.031289,-0.624188,0.988506,-0.00656659,-0.000920836,0.0978837,1,4.25242e-05,-5.48563e-06,6.36275e-06,0.00850484,-0.00109713,0.00127255,0,0,0,0,0.0583502,0.518689,-0.998826,33.1875,1,7563,20610648
96,1,-0.656552,-0.0912427,9.78838,0.031289,-0.624188,0.988506,-0.00656659,-0.000920836,0.0978837,1,4.25242e-05,-5.48563e-06,6.36275e-06,0.00850484,-0.00109713,0.00127255,0,0,0,0,0.0583502,0.518689,-0.998826,33.1875,1,7563,20610648
96,2,-0.65111,-0.092464,9.77681,0.0381799,-0.628719,0.97811,-0.0065141,-0.000933701,0.0977678,1,4.50891e-05,-1.55399e-05,1.8796e-05,0.00901782,-0.00310799,0.00375919,0,0,0,0,0.0574083,0.5182,-0.998328,33.1875,1,7564,20610748
96,3,-0.65111,-0.092464,9.77681,0.0381799,-0.628719,0.97811,-0.0065141,-0.000933701,0.0977678,1,4.50891e-05,-1.55399e-05,1.8796e-05,0.00901782,-0.00310799,0.00375919,0,0,0,0,0.0574083,0.5182,-0.998328,33.1875,1,7564,20610748
96,4,-0.656815,-0.0947963,9.79209,0.0317258,-0.630857,0.999943,-0.00657036,-0.000954909,0.0979206,1,3.43601e-05,-1.1487e-05,1.64845e-05,0.00687203,-0.00229741,0.0032969,0,0,0,0,0.0570212,0.516208,-0.995845,33.1875,1,7565,20610848
97,1,-0.656815,-0.0947963,9.79209,0.0317258,-0.630857,0.999943,-0.00657036,-0.000954909,0.0979206,1,3.43601e-05,-1.1487e-05,1.64845e-05,0.00687203,-0.00229741,0.0032969,0,0,0,0,0.0570212,0.516208,-0.995845,33.1875,1,7565,20610848
97,2,-0.654961,-0.0996747,9.79068,0.0313435,-0.6323,0.99605,-0.00655376,-0.0010072,0.0979064,1,5.18953e-05,-2.14163e-05,2.2011e-05,0.0103791,-0.00428326,0.00440219,0,0,0,0,0.0575721,0.515671,-0.993334,33.1875,1,7566,20610948
97,3,-0.654961,-0.0996747,9.79068,0.0313435,-0.6323,0.99605,-0.00655376,-0.0010072,0.0979064,1,5.18953e-05,-2.14163e-05,2.2011e-05,0.0103791,-0.00428326,0.00440219,0,0,0,0,0.0575721,0.515671,-0.993334,33.1875,1,7566,20610948
97,4,-0.658185,-0.0987425,9.7785,0.0295484,-0.634405,0.984041,-0.00658409,-0.000995022,0.0977848,1,3.71226e-05,-1.17496e-05,2.55517e-05,0.00742452,-0.00234991,0.00511034,0,0,0,0,0.0575322,0.519555,-0.992237,33.1875,1,7567,20611048
98,1,-0.658185,-0.0987425,9.7785,0.0295484,-0.634405,0.984041,-0.00658409,-0.000995022,0.0977848,1,3.71226e-05,-1.17496e-05,2.55517e-05,0.00742452,-0.00234991,0.00511034,0,0,0,0,0.0575322,0.519555,-0.992237,33.1875,1,7567,20611048
98,2,-0.654418,-0.0983796,9.79034,0.0305128,-0.632693,0.991284,-0.00654576,-0.000994273,0.0979032,1,5.28749e-05,-8.18626e-06,9.49945e-06,0.010575,-0.00163725,0.00189989,0,0,0,0,0.0574135,0.521569,-0.995727,33.1875,1,7568,20611148
98,3,-0.654418,-0.0983796,9.79034,0.0305128,-0.632693,0.991284,-0.00654576,-0.000994273,0.0979032,1,5.28749e-05,-8.18626e-06,9.49945e-06,0.010575,-0.00163725,0.00189989,0,0,0,0,0.0574135,0.521569,-0.995727,33.1875,1,7568,20611148
98,4,-0.66551,-0.0980289,9.78331,0.0160731,-0.632243,0.98448,-0.00665948,-0.00099055,0.0978327,1,5.20144e-05,-2.24635e-05,6.21728e-06,0.0104029,-0.0044927,0.00124346,0,0,0,0,0.0568703,0.520173,-0.999291,33.1875,1,7569,20611248
99,1,-0.66551,-0.0980289,9.78331,0.0160731,-0.632243,0.98448,-0.00665948,-0.00099055,0.0978327,1,5.20144e-05,-2.24635e-05,6.21728e-06,0.0104029,-0.0044927,0.00124346,0,0,0,0,0.0568703,0.520173,-0.999291,33.1875,1,7569,20611248
99,2,-0.656776,-0.0937981,9.79142,0.0288797,-0.630521,0.997982,-0.00657001,-0.000944989,0.097914,1,3.44683e-05,-1.16714e-05,1.96656e-05,0.00689367,-0.00233429,0.00393313,0,0,0,0,0.0554226,0.519706,-0.9998,33.1875,1,7570,20611348
99,3,-0.656776,-0.0937981,9.79142,0.0288797,-0.630521,0.997982,-0.00657001,-0.000944989,0.097914,1,3.44683e-05,-1.16714e-05,1.96656e-05,0.00689367,-0.00233429,0.00393313,0,0,0,0,0.0554226,0.519706,-0.9998,33.1875,1,7570,20611348
99,4,-0.669267,-0.108292,9.79172,0.0241832,-0.642887,0.996031,-0.0066957,-0.00108985,0.0979169,1,3.39002e-05,-1.57113e-05,2.18675e-05,0.00678003,-0.00314227,0.00437349,0,0,0,0,0.0569396,0.518195,-0.99782,33.1875,1,7571,20611448
100,1,-0.669267,-0.108292,9.79172,0.0241832,-0.642887,0.996031,-0.0066957,-0.00108985,0.0979169,1,3.39002e-05,-1.57113e-05,2.18675e-05,0.00678003,-0.00314227,0.00437349,0,0,0,0,0.0569396,0.518195,-0.99782,33.1875,1,7571,20611448
100,2,-0.665948,-0.105292,9.78731,0.0192504,-0.644268,0.996429,-0.00666122,-0.0010623,0.0978729,1,4.72627e-05,-9.01338e-06,9.44551e-06,0.00945255,-0.00180268,0.0018891,0,0,0,0,0.0579554,0.51863,-0.99529,33.1875,1,7572,20611548
100,3,-0.665948,-0.105292,9.78731,0.0192504,-0.644268,0.996429,-0.00666122,-0.0010623,0.0978729,1,4.72627e-05,-9.01338e-06,9.44551e-06,0.00945255,-0.00180268,0.0018891,0,0,0,0,0.0579554,0.51863,-0.99529,33.1875,1,7572,20611548
100,4,-0.660237,-0.0964574,9.78362,0.0265379,-0.631524,0.98925,-0.00660542,-0.000972262,0.0978359,1,3.81413e-05,-1.57376e-05,1.70172e-05,0.00762826,-0.00314752,0.00340344,0,0,0,0,0.0570017,0.519595,-0.994254,33.1875,1,7573,20611648
101,1,-0.660237,-0.0964574,9.78362,0.0265379,-0.631524,0.98925,-0.00660542,-0.000972262,0.0978359,1,3.81413e-05,-1.57376e-05,1.70172e-05,0.00762826,-0.00314752,0.00340344,0,0,0,0,0.0570017,0.519595,-0.994254,33.1875,1,7573,20611648
101,2,-0.660933,-0.090225,9.79487,0.0236118,-0.628732,1.00309,-0.00661064,-0.000912318,0.0979485,1,5.07609e-05,-6.7313e-06,9.4436e-06,0.0101522,-0.00134626,0.00188872,0,0,0,0,0.0568627,0.522106,-0.998238,33.1875,1,7574,20611748
101,3,-0.660933,-0.090225,9.79487,0.0236118,-0.628732,1.00309,-0.00661064,-0.000912318,0.0979485,1,5.07609e-05,-6.7313e-06,9.4436e-06,0.0101522,-0.00134626,0.00188872,0,0,0,0,0.0568627,0.522106,-0.998238,33.1875,1,7574,20611748
101,4,-0.660705,-0.0827276,9.79424,0.0279648,-0.619723,0.997652,-0.00660915,-0.000837634,0.0979422,1,5.13529e-05,-1.09132e-05,2.26502e-05,0.0102706,-0.00218265,0.00453004,0,0,0,0,0.0559242,0.519206,-0.999308,33.1875,1,7575,20611848
102,1,-0.660705,-0.0827276,9.79424,0.0279648,-0.619723,0.997652,-0.00660915,-0.000837634,0.0979422,1,5.13529e-05,-1.09132e-05,2.26502e-05,0.0102706,-0.00218265,0.00453004,0,0,0,0,0.0559242,0.519206,-0.999308,33.1875,1,7575,20611848
102,2,-0.656145,-0.0945016,9.77547,0.0325239,-0.635374,0.981901,-0.00656557,-0.00095459,0.0977544,1,4.69889e-05,-2.13272e-05,2.94634e-05,0.00939779,-0.00426544,0.00589269,0,0,0,0,0.0554995,0.515795,-0.999382,33.1875,3,7576,20611948
102,3,-0.656145,-0.0945016,9.77547,0.0325239,-0.635374,0.981901,-0.00656557,-0.00095459,0.0977544,1,4.69889e-05,-2.13272e-05,2.94634e-05,0.00939779,-0.00426544,0.00589269,0,0,0,0,0.0554995,0.515795,-0.999382,33.1875,3,7576,20611948
102,4,-0.663318,-0.0969983,9.78601,0.0225331,-0.636808,0.989758,-0.00663514,-0.000980176,0.0978598,1,5.04906e-05,-1.02744e-05,2.34062e-05,0.0100981,-0.00205487,0.00468124,0,0,0,0,0.0574406,0.516249,-0.998371,33.1875,3,7577,20612048
103,1,-0.663318,-0.0969983,9.78601,0.0225331,-0.636808,0.989758,-0.00663514,-0.000980176,0.0978598,1,5.04906e-05,-1.02744e-05,2.34062e-05,0.0100981,-0.00205487,0.00468124,0,0,0,0,0.0574406,0.516249,-0.998371,33.1875,3,7577,20612048
103,2,-0.656408,-0.0987003,9.78256,0.0302166,-0.63955,0.995474,-0.00656778,-0.000995862,0.0978252,1,4.37051e-05,-1.91312e-05,2.34377e-05,0.00874102,-0.00382624,0.00468754,0,0,0,0,0.0574942,0.516692,-0.995836,33.1875,3,7578,20612148
103,3,-0.656408,-0.0987003,9.78256,0.0302166,-0.63955,0.995474,-0.00656778,-0.000995862,0.0978252,1,4.37051e-05,-1.91312e-05,2.34377e-05,0.00874102,-0.00382624,0.00468754,0,0,0,0,0.0574942,0.516692,-0.995836,33.1875,3,7578,20612148
103,4,-0.665293,-0.0992801,9.78803,0.0222152,-0.640216,0.993811,-0.00665395,-0.00099924,0.0978802,1,3.10169e-05,-5.50404e-06,2.75745e-05,0.00620337,-0.00110081,0.0055149,0,0,0,0,0.0574781,0.517667,-0.995814,33.1875,3,7579,20612248
104,1,-0.665293,-0.0992801,9.78803,0.0222152,-0.640216,0.993811,-0.00665395,-0.00099924,0.0978802,1,3.10169e-05,-5.50404e-06,2.75745e-05,0.00620337,-0.00110081,0.0055149,0,0,0,0,0.0574781,0.517667,-0.995814,33.1875,3,7579,20612248
104,2,-0.660267,-0.107297,9.78419,0.0270308,-0.640739,0.986417,-0.00660376,-0.00108039,0.0978418,1,3.68076e-05,-5.72934e-06,1.68461e-05,0.00736152,-0.00114587,0.00336921,0,0,0,0,0.0588071,0.520148,-0.998796,33.1875,3,7580,20612348
104,3,-0.660267,-0.107297,9.78419,0.0270308,-0.640739,0.986417,-0.00660376,-0.00108039,0.0978418,1,3.68076e-05,-5.72934e-06,1.68461e-05,0.00736152,-0.00114587,0.00336921,0,0,0,0,0.0588071,0.520148,-0.998796,33.1875,3,7580,20612348
104,4,-0.660969,-0.0983656,9.77852,0.0233732,-0.639726,0.984614,-0.00661214,-0.000993703,0.0977849,1,5.07217e-05,-1.26323e-05,9.65242e-06,0.0101443,-0.00252647,0.00193048,0,0,0,0,0.0578648,0.518214,-0.999339,33.1875,3,7581,20612448
105,1,-0.660969,-0.0983656,9.77852,0.0233732,-0.639726,0.984614,-0.00661214,-0.000993703,0.0977849,1,5.07217e-05,-1.26323e-05,9.65242e-06,0.0101443,-0.00252647,0.00193048,0,0,0,0,0.0578648,0.518214,-0.999339,33.1875,3,7581,20612448
105,2,-0.671528,-0.0919938,9.79356,0.0135633,-0.6288,0.997802,-0.00671621,-0.000930153,0.0979354,1,5.1001e-05,-4.89669e-06,1.67324e-05,0.0102002,-0.000979337,0.00334648,0,0,0,0,0.055035,0.516269,-0.99836,33.1875,3,7582,20612548
105,3,-0.671528,-0.0919938,9.79356,0.0135633,-0.6288,0.997802,-0.00671621,-0.000930153,0.0979354,1,5.1001e-05,-4.89669e-06,1.67324e-05,0.0102002,-0.000979337,0.00334648,0,0,0,0,0.055035,0.516269,-0.99836,33.1875,3,7582,20612548
105,4,-0.65708,-0.100909,9.79848,0.0276433,-0.638624,1.00647,-0.00657162,-0.00101984,0.0979847,1,5.38565e-05,-4.31951e-06,1.50036e-05,0.0107713,-0.000863903,0.00300071,0,0,0,0,0.0565073,0.516718,-0.996841,33.1875,3,7583,20612648
106,1,-0.65708,-0.100909,9.79848,0.0276433,-0.638624,1.00647,-0.00657162,-0.00101984,0.0979847,1,5.38565e-05,-4.31951e-06,1.50036e-05,0.0107713,-0.000863903,0.00300071,0,0,0,0,0.0565073,0.516718,-0.996841,33.1875,3,7583,20612648
106,2,-0.661941,-0.0929879,9.78603,0.0244396,-0.634532,0.988554,-0.00662089,-0.000938065,0.0978602,1,4.05796e-05,-7.73375e-06,1.84605e-05,0.00811593,-0.00154675,0.00369211,0,0,0,0,0.0575274,0.517631,-0.993795,33.1875,3,7584,20612748
106,3,-0.661941,-0.0929879,9.78603,0.0244396,-0.634532,0.988554,-0.00662089,-0.000938065,0.0978602,1,4.05796e-05,-7.73375e-06,1.84605e-05,0.00811593,-0.00154675,0.00369211,0,0,0,0,0.0575274,0.517631,-0.993795,33.1875,3,7584,20612748
106,4,-0.654184,-0.0960037,9.79273,0.0292242,-0.636092,0.997913,-0.00654182,-0.000969528,0.0979272,1,4.67785e-05,-1.26886e-07,2.51998e-05,0.00935569,-2.53772e-05,0.00503996,0,0,0,0,0.0579924,0.518603,-0.993776,33.1875,3,7585,20612848
107,1,-0.654184,-0.0960037,9.79273,0.0292242,-0.636092,0.997913,-0.00654182,-0.000969528,0.0979272,1,4.67785e-05,-1.26886e-07,2.51998e-05,0.00935569,-2.53772e-05,0.00503996,0,0,0,0,0.0579924,0.518603,-0.993776,33.1875,3,7585,20612848
107,2,-0.662815,-0.0989538,9.79346,0.0249514,-0.639719,0.997393,-0.00663118,-0.00100196,0.0979343,1,6.23707e-05,-1.56553e-05,1.51508e-05,0.0124741,-0.00313107,0.00303016,0,0,0,0,0.0583587,0.519646,-0.997795,33.1875,3,7586,20612948
107,3,-0.662815,-0.0989538,9.79346,0.0249514,-0.639719,0.997393,-0.00663118,-0.00100196,0.0979343,1,6.23707e-05,-1.56553e-05,1.51508e-05,0.0124741,-0.00313107,0.00303016,0,0,0,0,0.0583587,0.519646,-0.997795,33.1875,3,7586,20612948
107,4,-0.658107,-0.0962306,9.79616,0.0247003,-0.637212,1.00135,-0.00658335,-0.000968356,0.0979613,1,2.89679e-05,-1.19003e-05,2.84389e-05,0.00579357,-0.00238006,0.00568778,0,0,0,0,0.0568983,0.517743,-0.999851,33.1875,3,7587,20613048
108,1,-0.658107,-0.0962306,9.79616,0.0247003,-0.637212,1.00135,-0.00658335,-0.000968356,0.0979613,1,2.89679e-05,-1.19003e-05,2.84389e-05,0.00579357,-0.00238006,0.00568778,0,0,0,0,0.0568983,0.517743,-0.999851,33.1875,3,7587,20613048
108,2,-0.657952,-0.0919477,9.78907,0.0313819,-0.632925,0.993932,-0.00657994,-0.000927589,0.0978905,1,4.00319e-05,-2.32841e-06,2.08691e-05,0.00800638,-0.000465681,0.00417383,0,0,0,0,0.0545416,0.516282,-0.998862,33.1875,3,7588,20613148
108,3,-0.657952,-0.0919477,9.78907,0.0313819,-0.632925,0.993932,-0.00657994,-0.000927589,0.0978905,1,4.00319e-05,-2.32841e-06,2.08691e-05,0.00800638,-0.000465681,0.00417383,0,0,0,0,0.0545416,0.516282,-0.998862,33.1875,3,7588,20613148
108,4,-0.653141,-0.0974255,9.78697,0.0299884,-0.639107,0.987695,-0.00653653,-0.000982153,0.0978693,1,3.91511e-05,-2.6336e-05,1.79181e-05,0.00783023,-0.00526721,0.00358362,0,0,0,0,0.055594,0.515244,-0.99586,33.1875,3,7589,20613248
109,1,-0.653141,-0.0974255,9.78697,0.0299884,-0.639107,0.987695,-0.00653653,-0.000982153,0.0978693,1,3.91511e-05,-2.6336e-05,1.79181e-05,0.00783023,-0.00526721,0.00358362,0,0,0,0,0.055594,0.515244,-0.99586,33.1875,3,7589,20613248
109,2,-0.662754,-0.0869143,9.79388,0.0243998,-0.630566,0.998786,-0.0066289,-0.000877402,0.0979387,1,4.01807e-05,-7.21959e-06,2.92532e-05,0.00803615,-0.00144392,0.00585064,0,0,0,0,0.0555617,0.517195,-0.995816,33.1875,3,7590,20613348
109,3,-0.662754,-0.0869143,9.79388,0.0243998,-0.630566,0.998786,-0.0066289,-0.000877402,0.0979387,1,4.01807e-05,-7.21959e-06,2.92532e-05,0.00803615,-0.00144392,0.00585064,0,0,0,0,0.0555617,0.517195,-0.995816,33.1875,3,7590,20613348
109,4,-0.657359,-0.0979812,9.79207,0.0294483,-0.640299,0.99606,-0.00657702,-0.000992079,0.0979203,1,6.14785e-05,-1.76839e-05,1.72591e-05,0.0122957,-0.00353679,0.00345182,0,0,0,0,0.0564798,0.520593,-0.99524,33.1875,3,7591,20613448
110,1,-0.657359,-0.0979812,9.79207,0.0294483,-0.640299,0.99606,-0.00657702,-0.000992079,0.0979203,1,6.14785e-05,-1.76839e-05,1.72591e-05,0.0122957,-0.00353679,0.00345182,0,0,0,0,0.0564798,0.520593,-0.99524,33.1875,3,7591,20613448
110,2,-0.662057,-0.0840595,9.78442,0.02264,-0.630749,0.988209,-0.00662278,-0.000849276,0.0978439,1,4.33139e-05,-1.14198e-05,1.5477e-05,0.00866279,-0.00228396,0.00309539,0,0,0,0,0.0583511,0.521579,-0.996742,33.1875,3,7592,20613548
110,3,-0.662057,-0.0840595,9.78442,0.02264,-0.630749,0.988209,-0.00662278,-0.000849276,0.0978439,1,4.33139e-05,-1.14198e-05,1.5477e-05,0.00866279,-0.00228396,0.00309539,0,0,0,0,0.0583511,0.521579,-0.996742,33.1875,3,7592,20613548
110,4,-0.660763,-0.10566,9.78185,0.0239801,-0.652941,0.985949,-0.00661013,-0.00106437,0.0978183,1,3.81192e-05,-1.3033e-05,2.36609e-05,0.00762383,-0.00260661,0.00473218,0,0,0,0,0.0573718,0.519672,-0.9988,33.1875,3,7593,20613648
111,1,-0.660763,-0.10566,9.78185,0.0239801,-0.652941,0.985949,-0.00661013,-0.00106437,0.0978183,1,3.81192e-05,-1.3033e-05,2.36609e-05,0.00762383,-0.00260661,0.00473218,0,0,0,0,0.0573718,0.519672,-0.9988,33.1875,3,7593,20613648
111,2,-0.65167,-0.0916863,9.78768,0.0336033,-0.637001,0.992466,-0.00652003,-0.000927629,0.0978764,1,5.38976e-05,-1.71675e-05,1.65459e-05,0.0107795,-0.00343351,0.00330919,0,0,0,0,0.0559692,0.518691,-0.997805,33.1875,3,7594,20613748
111,3,-0.65167,-0.0916863,9.78768,0.0336033,-0.637001,0.992466,-0.00652003,-0.000927629,0.0978764,1,5.38976e-05,-1.71675e-05,1.65459e-05,0.0107795,-0.00343351,0.00330919,0,0,0,0,0.0559692,0.518691,-0.997805,33.1875,3,7594,20613748
111,4,-0.661301,-0.0998524,9.79207,0.0266965,-0.646844,0.999821,-0.00661301,-0.00100701,0.0979206,1,4.16971e-05,-2.32494e-07,2.39836e-05,0.00833942,-4.64989e-05,0.00479672,0,0,0,0,0.055566,0.517674,-0.9953,33.1875,3,7595,20613848
112,1,-0.661301,-0.0998524,9.79207,0.0266965,-0.646844,0.999821,-0.00661301,-0.00100701,0.0979206,1,4.16971e-05,-2.32494e-07,2.39836e-05,0.00833942,-4.64989e-05,0.00479672,0,0,0,0,0.055566,0.517674,-0.9953,33.1875,3,7595,20613848
112,2,-0.657837,-0.0927558,9.79042,0.0300471,-0.643979,0.994997,-0.0065819,-0.00093557,0.0979038,1,3.99145e-05,-1.81461e-05,1.49534e-05,0.0079829,-0.00362922,0.00299069,0,0,0,0,0.0560556,0.518628,-0.994271,33.1875,3,7596,20613948
112,3,-0.657837,-0.0927558,9.79042,0.0300471,-0.643979,0.994997,-0.0065819,-0.00093557,0.0979038,1,3.99145e-05,-1.81461e-05,1.49534e-05,0.0079829,-0.00362922,0.00299069,0,0,0,0,0.0560556,0.518628,-0.994271,33.1875,3,7596,20613948
112,4,-0.654082,-0.100235,9.79202,0.0320826,-0.648434,0.996988,-0.00654225,-0.00100878,0.09792,1,3.19518e-05,-7.44688e-06,1.34167e-05,0.00639035,-0.00148938,0.00268334,0,0,0,0,0.0584246,0.52008,-0.994755,33.1875,3,7597,20614048
113,1,-0.654082,-0.100235,9.79202,0.0320826,-0.648434,0.996988,-0.00654225,-0.00100878,0.09792,1,3.19518e-05,-7.44688e-06,1.34167e-05,0.00639035,-0.00148938,0.00268334,0,0,0,0,0.0584246,0.52008,-0.994755,33.1875,3,7597,20614048
113,2,-0.661642,-0.0875406,9.79591,0.0263302,-0.63195,0.999901,-0.00661734,-0.000885218,0.097959,1,4.8561e-05,-4.87101e-06,2.24709e-05,0.00971221,-0.000974203,0.00449418,0,0,0,0,0.0568831,0.521609,-0.997744,33.1875,3,7598,20614148
113,3,-0.661642,-0.0875406,9.79591,0.0263302,-0.63195,0.999901,-0.00661734,-0.000885218,0.097959,1,4.8561e-05,-4.87101e-06,2.24709e-05,0.00971221,-0.000974203,0.00449418,0,0,0,0,0.0568831,0.521609,-0.997744,33.1875,3,7598,20614148
113,4,-0.659435,-0.0980268,9.78903,0.0193394,-0.645312,0.988831,-0.00659729,-0.000991773,0.09789,1,5.71664e-05,-1.52443e-05,2.37559e-05,0.0114333,-0.00304886,0.00475119,0,0,0,0,0.056373,0.521153,-0.999267,33.1875,3,7599,20614248
114,1,-0.659435,-0.0980268,9.78903,0.0193394,-0.645312,0.988831,-0.00659729,-0.000991773,0.09789,1,5.71664e-05,-1.52443e-05,2.37559e-05,0.0114333,-0.00304886,0.00475119,0,0,0,0,0.056373,0.521153,-0.999267,33.1875,3,7599,20614248
114,2,-0.663582,-0.106278,9.79746,0.0210177,-0.662564,1.00054,-0.006636,-0.00107462,0.0979745,1,5.91781e-05,-1.14341e-06,1.88668e-05,0.0118356,-0.000228682,0.00377337,0,0,0,0,0.0583179,0.52064,-0.998783,33.1875,3,7600,20614348
114,3,-0.663582,-0.106278,9.79746,0.0210177,-0.662564,1.00054,-0.006636,-0.00107462,0.0979745,1,5.91781e-05,-1.14341e-06,1.88668e-05,0.0118356,-0.000228682,0.00377337,0,0,0,0,0.0583179,0.52064,-0.998783,33.1875,3,7600,20614348
114,4,-0.66083,-0.0977608,9.78429,0.0247834,-0.649803,0.989447,-0.00661088,-0.000986354,0.0978427,1,4.42284e-05,-1.32381e-05,6.87479e-06,0.00884569,-0.00264762,0.00137496,0,0,0,0,0.0574415,0.51914,-0.996287,33.1875,3,7601,20614448
115,1,-0.66083,-0.0977608,9.78429,0.0247834,-0.649803,0.989447,-0.00661088,-0.000986354,0.0978427,1,4.42284e-05,-1.32381e-05,6.87479e-06,0.00884569,-0.00264762,0.00137496,0,0,0,0,0.0574415,0.51914,-0.996287,33.1875,3,7601,20614448
115,2,-0.660986,-0.0903129,9.79147,0.0233409,-0.641634,0.992645,-0.00661001,-0.00091269,0.0979146,1,4.70393e-05,-1.01899e-06,2.64159e-05,0.00940786,-0.000203798,0.00528318,0,0,0,0,0.0560186,0.518655,-0.995786,33.1875,3,7602,20614548
115,3,-0.660986,-0.0903129,9.79147,0.0233409,-0.641634,0.992645,-0.00661001,-0.00091269,0.0979146,1,4.70393e-05,-1.01899e-06,2.64159e-05,0.00940786,-0.000203798,0.00528318,0,0,0,0,0.0560186,0.518655,-0.995786,33.1875,3,7602,20614548
115,4,-0.664168,-0.0895089,9.78743,0.0197833,-0.638715,0.994339,-0.00663963,-0.000905161,0.0978743,1,4.97514e-05,1.02389e-05,2.51027e-05,0.00995027,0.00204778,0.00502053,0,0,0,0,0.0584536,0.520541,-0.99323,33.1875,3,7603,20614648
116,1,-0.664168,-0.0895089,9.78743,0.0197833,-0.638715,0.994339,-0.00663963,-0.000905161,0.0978743,1,4.97514e-05,1.02389e-05,2.51027e-05,0.00995027,0.00204778,0.00502053,0,0,0,0,0.0584536,0.520541,-0.99323,33.1875,3,7603,20614648
116,2,-0.656383,-0.0830421,9.78607,0.0290367,-0.635504,0.987108,-0.00656367,-0.000838697,0.0978606,1,4.12725e-05,6.87172e-07,1.50726e-05,0.00825449,0.000137434,0.00301453,0,0,0,0,0.0588773,0.521061,-0.99524,33.1875,3,7604,20614748
116,3,-0.656383,-0.0830421,9.78607,0.0290367,-0.635504,0.987108,-0.00656367,-0.000838697,0.0978606,1,4.12725e-05,6.87172e-07,1.50726e-05,0.00825449,0.000137434,0.00301453,0,0,0,0,0.0588773,0.521061,-0.99524,33.1875,3,7604,20614748
116,4,-0.656987,-0.0864851,9.78537,0.0277946,-0.635669,0.987605,-0.00657179,-0.00087191,0.0978535,1,3.54311e-05,-9.91307e-06,9.53513e-06,0.00708623,-0.00198261,0.00190703,0,0,0,0,0.0573884,0.520142,-0.997779,33.1875,3,7605,20614848
117,1,-0.656987,-0.0864851,9.78537,0.0277946,-0.635669,0.987605,-0.00657179,-0.00087191,0.0978535,1,3.54311e-05,-9.91307e-06,9.53513e-06,0.00708623,-0.00198261,0.00190703,0,0,0,0,0.0573884,0.520142,-0.997779,33.1875,3,7605,20614848
117,2,-0.659483,-0.104904,9.7866,0.0269666,-0.658466,0.986288,-0.00659734,-0.00105789,0.0978657,1,4.40962e-05,-1.30309e-05,1.61326e-05,0.00881925,-0.00260618,0.00322651,0,0,0,0,0.0564423,0.519175,-0.997796,33.1875,3,7606,20614948
117,3,-0.659483,-0.104904,9.7866,0.0269666,-0.658466,0.986288,-0.00659734,-0.00105789,0.0978657,1,4.40962e-05,-1.30309e-05,1.61326e-05,0.00881925,-0.00260618,0.00322651,0,0,0,0,0.0564423,0.519175,-0.997796,33.1875,3,7606,20614948
117,4,-0.666355,-0.098116,9.78534,0.0188063,-0.651595,0.992,-0.00666477,-0.00099041,0.0978533,1,4.61769e-05,-6.39423e-06,1.59963e-05,0.00923538,-0.00127885,0.00319927,0,0,0,0,0.0555494,0.517204,-0.996321,33.1875,3,7607,20615048
118,1,-0.666355,-0.098116,9.78534,0.0188063,-0.651595,0.992,-0.00666477,-0.00099041,0.0978533,1,4.61769e-05,-6.39423e-06,1.59963e-05,0.00923538,-0.00127885,0.00319927,0,0,0,0,0.0555494,0.517204,-0.996321,33.1875,3,7607,20615048
118,2,-0.654823,-0.0939173,9.78937,0.0306296,-0.648172,0.989784,-0.00655024,-0.000949778,0.0978934,1,5.33313e-05,-1.03692e-05,1.25134e-05,0.0106663,-0.00207384,0.00250268,0,0,0,0,0.0555825,0.518144,-0.99428,33.1875,3,7608,20615148
118,3,-0.654823,-0.0939173,9.78937,0.0306296,-0.648172,0.989784,-0.00655024,-0.000949778,0.0978934,1,5.33313e-05,-1.03692e-05,1.25134e-05,0.0106663,-0.00207384,0.00250268,0,0,0,0,0.0555825,0.518144,-0.99428,33.1875,3,7608,20615148
118,4,-0.647745,-0.0929001,9.79274,0.0423572,-0.641443,0.995169,-0.00648235,-0.000938001,0.097927,1,4.52924e-05,-2.51231e-05,9.97409e-06,0.00905847,-0.00502462,0.00199482,0,0,0,0,0.058437,0.520071,-0.99425,33.1875,3,7609,20615248
119,1,-0.647745,-0.0929001,9.79274,0.0423572,-0.641443,0.995169,-0.00648235,-0.000938001,0.097927,1,4.52924e-05,-2.51231e-05,9.97409e-06,0.00905847,-0.00502462,0.00199482,0,0,0,0,0.058437,0.520071,-0.99425,33.1875,3,7609,20615248
119,2,-0.663325,-0.0986931,9.78735,0.0276399,-0.656907,0.989361,-0.00663485,-0.000996966,0.0978733,1,5.04198e-05,-8.29083e-06,1.24577e-05,0.010084,-0.00165817,0.00249153,0,0,0,0,0.0578861,0.520608,-0.996761,33.1875,3,7610,20615348
119,3,-0.663325,-0.0986931,9.78735,0.0276399,-0.656907,0.989361,-0.00663485,-0.000996966,0.0978733,1,5.04198e-05,-8.29083e-06,1.24577e-05,0.010084,-0.00165817,0.00249153,0,0,0,0,0.0578861,0.520608,-0.996761,33.1875,3,7610,20615348
119,4,-0.648735,-0.0891336,9.78767,0.0388678,-0.644444,0.990527,-0.00648915,-0.000900659,0.0978765,1,4.59086e-05,-9.43447e-06,2.59522e-05,0.00918172,-0.00188689,0.00519044,0,0,0,0,0.055928,0.518239,-0.999835,33.1875,3,7611,20615448
120,1,-0.648735,-0.0891336,9.78767,0.0388678,-0.644444,0.990527,-0.00648915,-0.000900659,0.0978765,1,4.59086e-05,-9.43447e-06,2.59522e-05,0.00918172,-0.00188689,0.00519044,0,0,0,0,0.055928,0.518239,-0.999835,33.1875,3,7611,20615448
120,2,-0.65157,-0.0928963,9.79581,0.0368497,-0.646274,0.994483,-0.00651929,-0.000939768,0.0979578,1,5.3283e-05,-1.85982e-05,2.80662e-05,0.0106566,-0.00371964,0.00561325,0,0,0,0,0.0554549,0.517755,-0.999844,33.1875,3,7612,20615548
120,3,-0.65157,-0.0928963,9.79581,0.0368497,-0.646274,0.994483,-0.00651929,-0.000939768,0.0979578,1,5.3283e-05,-1.85982e-05,2.80662e-05,0.0106566,-0.00371964,0.00561325,0,0,0,0,0.0554549,0.517755,-0.999844,33.1875,3,7612,20615548
120,4,-0.66573,-0.101153,9.78293,0.01737,-0.655617,0.988995,-0.00665715,-0.00102058,0.0978292,1,4.5091e-05,6.35086e-07,1.6637e-05,0.0090182,0.000127017,0.0033274,0,0,0,0,0.0560675,0.517173,-0.994809,33.1875,3,7613,20615648
121,1,-0.66573,-0.101153,9.78293,0.01737,-0.655617,0.988995,-0.00665715,-0.00102058,0.0978292,1,4.5091e-05,6.35086e-07,1.6637e-05,0.0090182,0.000127017,0.0033274,0,0,0,0,0.0560675,0.517173,-0.994809,33.1875,3,7613,20615648
121,2,-0.66224,-0.104546,9.79713,0.024705,-0.658399,1.00426,-0.00662184,-0.00105131,0.0979712,1,2.93031e-05,2.74379e-06,8.10809e-06,0.00586062,0.000548758,0.00162162,0,0,0,0,0.0570425,0.518602,-0.993266,33.1875,3,7614,20615748
121,3,-0.66224,-0.104546,9.79713,0.024705,-0.658399,1.00426,-0.00662184,-0.00105131,0.0979712,1,2.93031e-05,2.74379e-06,8.10809e-06,0.00586062,0.000548758,0.00162162,0,0,0,0,0.0570425,0.518602,-0.993266,33.1875,3,7614,20615748
121,4,-0.659185,-0.0925219,9.78975,0.0268234,-0.64689,0.991448,-0.0065945,-0.000935507,0.0978972,1,5.10589e-05,-1.37423e-05,2.20631e-05,0.0102118,-0.00274846,0.00441263,0,0,0,0,0.0594115,0.520054,-0.99375,33.1875,3,7615,20615848
122,1,-0.659185,-0.0925219,9.78975,0.0268234,-0.64689,0.991448,-0.0065945,-0.000935507,0.0978972,1,5.10589e-05,-1.37423e-05,2.20631e-05,0.0102118,-0.00274846,0.00441263,0,0,0,0,0.0594115,0.520054,-0.99375,33.1875,3,7615,20615848
122,2,-0.650368,-0.0850694,9.79552,0.0337421,-0.639312,0.996521,-0.00650526,-0.00085965,0.0979551,1,4.48805e-05,-8.17312e-06,1.25485e-05,0.00897611,-0.00163462,0.0025097,0,0,0,0,0.0593257,0.521562,-0.996242,33.1875,3,7616,20615948
122,3,-0.650368,-0.0850694,9.79552,0.0337421,-0.639312,0.996521,-0.00650526,-0.00085965,0.0979551,1,4.48805e-05,-8.17312e-06,1.25485e-05,0.00897611,-0.00163462,0.0025097,0,0,0,0,0.0593257,0.521562,-0.996242,33.1875,3,7616,20615948
122,4,-0.657513,-0.0983347,9.78731,0.0307991,-0.65853,0.985794,-0.00657647,-0.000993801,0.0978729,1,5.25229e-05,-6.97921e-06,1.31093e-05,0.0105046,-0.00139584,0.00262186,0,0,0,0,0.0573352,0.521145,-0.999272,33.1875,3,7617,20616048
123,1,-0.657513,-0.0983347,9.78731,0.0307991,-0.65853,0.985794,-0.00657647,-0.000993801,0.0978729,1,5.25229e-05,-6.97921e-06,1.31093e-05,0.0105046,-0.00139584,0.00262186,0,0,0,0,0.0573352,0.521145,-0.999272,33.1875,3,7617,20616048
123,2,-0.660543,-0.0985104,9.78632,0.0225725,-0.658906,0.987538,-0.0066072,-0.000993148,0.097863,1,3.94285e-05,-9.30582e-06,2.47489e-05,0.0078857,-0.00186116,0.00494978,0,0,0,0,0.0559284,0.519684,-0.998793,33.1875,3,7618,20616148
123,3,-0.660543,-0.0985104,9.78632,0.0225725,-0.658906,0.987538,-0.0066072,-0.000993148,0.097863,1,3.94285e-05,-9.30582e-06,2.47489e-05,0.0078857,-0.00186116,0.00494978,0,0,0,0,0.0559284,0.519684,-0.998793,33.1875,3,7618,20616148
123,4,-0.656766,-0.0993868,9.78934,0.0279699,-0.656219,0.989596,-0.00656994,-0.00100444,0.0978931,1,5.24446e-05,-1.18893e-05,2.32216e-05,0.0104889,-0.00237785,0.00464431,0,0,0,0,0.0565443,0.516691,-0.995327,33.1875,3,7619,20616248
124,1,-0.656766,-0.0993868,9.78934,0.0279699,-0.656219,0.989596,-0.00656994,-0.00100444,0.0978931,1,5.24446e-05,-1.18893e-05,2.32216e-05,0.0104889,-0.00237785,0.00464431,0,0,0,0,0.0565443,0.516691,-0.995327,33.1875,3,7619,20616248
124,2,-0.658151,-0.0935377,9.79109,0.0292585,-0.653692,0.997248,-0.00658339,-0.000945425,0.0979107,1,4.99078e-05,-9.78445e-06,2.08689e-05,0.00998156,-0.00195689,0.00417379,0,0,0,0,0.0570544,0.517147,-0.993804,33.1875,3,7620,20616348
124,3,-0.658151,-0.0935377,9.79109,0.0292585,-0.653692,0.997248,-0.00658339,-0.000945425,0.0979107,1,4.99078e-05,-9.78445e-06,2.08689e-05,0.00998156,-0.00195689,0.00417379,0,0,0,0,0.0570544,0.517147,-0.993804,33.1875,3,7620,20616348
124,4,-0.655202,-0.100099,9.78829,0.0287011,-0.657087,0.986637,-0.0065522,-0.00101059,0.0978828,1,4.83263e-05,-1.02064e-06,1.10419e-05,0.00966526,-0.000204128,0.00220838,0,0,0,0,0.0579435,0.520084,-0.994753,33.1875,3,7621,20616448
125,1,-0.655202,-0.100099,9.78829,0.0287011,-0.657087,0.986637,-0.0065522,-0.00101059,0.0978828,1,4.83263e-05,-1.02064e-06,1.10419e-05,0.00966526,-0.000204128,0.00220838,0,0,0,0,0.0579435,0.520084,-0.994753,33.1875,3,7621,20616448
125,2,-0.653085,-0.0940259,9.788,0.0347769,-0.652138,0.988954,-0.00653221,-0.000947369,0.0978798,1,3.61689e-05,-6.96429e-06,2.20896e-06,0.00723378,-0.00139286,0.000441792,0,0,0,0,0.0578576,0.521592,-0.997244,33.1875,3,7622,20616548
125,3,-0.653085,-0.0940259,9.788,0.0347769,-0.652138,0.988954,-0.00653221,-0.000947369,0.0978798,1,3.61689e-05,-6.96429e-06,2.20896e-06,0.00723378,-0.00139286,0.000441792,0,0,0,0,0.0578576,0.521592,-0.997244,33.1875,3,7622,20616548
125,4,-0.649708,-0.0921648,9.7924,0.0347084,-0.651323,0.990966,-0.00649831,-0.000931761,0.0979239,1,5.01536e-05,-6.4803e-06,2.23573e-05,0.0100307,-0.00129606,0.00447147,0,0,0,0,0.0559204,0.520172,-0.998782,33.1875,3,7623,20616648
126,1,-0.649708,-0.0921648,9.7924,0.0347084,-0.651323,0.990966,-0.00649831,-0.000931761,0.0979239,1,5.01536e-05,-6.4803e-06,2.23573e-05,0.0100307,-0.00129606,0.00447147,0,0,0,0,0.0559204,0.520172,-0.998782,33.1875,3,7623,20616648
126,2,-0.649723,-0.0962626,9.78355,0.037047,-0.657424,0.986943,-0.00649783,-0.000972051,0.0978353,1,4.65588e-05,-3.27994e-06,2.41899e-05,0.00931177,-0.000655988,0.00483799,0,0,0,0,0.0540282,0.518237,-0.998816,33.1875,3,7624,20616748
126,3,-0.649723,-0.0962626,9.78355,0.037047,-0.657424,0.986943,-0.00649783,-0.000972051,0.0978353,1,4.65588e-05,-3.27994e-06,2.41899e-05,0.00931177,-0.000655988,0.00483799,0,0,0,0,0.0540282,0.518237,-0.998816,33.1875,3,7624,20616748
126,4,-0.657955,-0.0936166,9.79176,0.0302483,-0.657084,0.989641,-0.00657979,-0.00094577,0.0979175,1,4.76614e-05,-1.40499e-06,2.05264e-05,0.00953228,-0.000280999,0.00410529,0,0,0,0,0.0560466,0.516225,-0.996345,33.1875,3,7625,20616848
127,1,-0.657955,-0.0936166,9.79176,0.0302483,-0.657084,0.989641,-0.00657979,-0.00094577,0.0979175,1,4.76614e-05,-1.40499e-06,2.05264e-05,0.00953228,-0.000280999,0.00410529,0,0,0,0,0.0560466,0.516225,-0.996345,33.1875,3,7625,20616848
127,2,-0.664434,-0.0954689,9.78975,0.0248114,-0.655813,0.994206,-0.00664427,-0.000962402,0.0978974,1,3.83201e-05,1.76939e-07,1.58307e-05,0.00766403,3.53878e-05,0.00316615,0,0,0,0,0.056076,0.518131,-0.993777,33.1875,3,7626,20616948
127,3,-0.664434,-0.0954689,9.78975,0.0248114,-0.655813,0.994206,-0.00664427,-0.000962402,0.0978974,1,3.83201e-05,1.76939e-07,1.58307e-05,0.00766403,3.53878e-05,0.00316615,0,0,0,0,0.056076,0.518131,-0.993777,33.1875,3,7626,20616948
127,4,-0.668906,-0.101726,9.78771,0.0200314,-0.663124,0.991276,-0.00669169,-0.00102502,0.0978768,1,3.88959e-05,-1.35397e-05,1.06466e-05,0.00777917,-0.00270793,0.00212931,0,0,0,0,0.0565941,0.5181,-0.992265,33.1875,3,7627,20617048
128,1,-0.668906,-0.101726,9.78771,0.0200314,-0.663124,0.991276,-0.00669169,-0.00102502,0.0978768,1,3.88959e-05,-1.35397e-05,1.06466e-05,0.00777917,-0.00270793,0.00212931,0,0,0,0,0.0565941,0.5181,-0.992265,33.1875,3,7627,20617048
128,2,-0.651452,-0.101987,9.78181,0.0361714,-0.660762,0.981118,-0.00651501,-0.00103,0.0978179,1,5.09973e-05,-2.62821e-06,1.19266e-05,0.0101995,-0.000525642,0.00238531,0,0,0,0,0.0593499,0.520099,-0.996274,33.1875,3,7628,20617148
128,3,-0.651452,-0.101987,9.78181,0.0361714,-0.660762,0.981118,-0.00651501,-0.00103,0.0978179,1,5.09973e-05,-2.62821e-06,1.19266e-05,0.0101995,-0.000525642,0.00238531,0,0,0,0,0.0593499,0.520099,-0.996274,33.1875,3,7628,20617148
128,4,-0.65941,-0.0981788,9.7948,0.0248654,-0.662122,0.996521,-0.00659644,-0.000989739,0.0979477,1,3.91064e-05,-1.22074e-05,2.2035e-05,0.00782128,-0.00244148,0.00440699,0,0,0,0,0.058799,0.520636,-0.998785,33.1875,3,7629,20617248
129,1,-0.65941,-0.0981788,9.7948,0.0248654,-0.662122,0.996521,-0.00659644,-0.000989739,0.0979477,1,3.91064e-05,-1.22074e-05,2.2035e-05,0.00782128,-0.00244148,0.00440699,0,0,0,0,0.058799,0.520636,-0.998785,33.1875,3,7629,20617248
129,2,-0.663267,-0.0964788,9.79381,0.0189487,-0.664777,0.994924,-0.00663457,-0.000973725,0.0979379,1,4.4288e-05,-9.89253e-06,1.97461e-05,0.00885761,-0.00197851,0.00394921,0,0,0,0,0.0550151,0.518211,-0.997811,33.1875,3,7630,20617348
129,3,-0.663267,-0.0964788,9.79381,0.0189487,-0.664777,0.994924,-0.00663457,-0.000973725,0.0979379,1,4.4288e-05,-9.89253e-06,1.97461e-05,0.00885761,-0.00197851,0.00394921,0,0,0,0,0.0550151,0.518211,-0.997811,33.1875,3,7630,20617348
129,4,-0.666596,-0.0975209,9.79587,0.022152,-0.657516,0.99939,-0.00666742,-0.000983692,0.0979585,1,4.27365e-05,-7.51231e-06,8.23457e-06,0.0085473,-0.00150246,0.00164692,0,0,0,0,0.0541426,0.515744,-0.995842,33.1875,3,7631,20617448
130,1,-0.666596,-0.0975209,9.79587,0.022152,-0.657516,0.99939,-0.00666742,-0.000983692,0.0979585,1,4.27365e-05,-7.51231e-06,8.23457e-06,0.0085473,-0.00150246,0.00164692,0,0,0,0,0.0541426,0.515744,-0.995842,33.1875,3,7631,20617448
130,2,-0.652731,-0.0959755,9.78188,0.0354068,-0.662966,0.980359,-0.00652989,-0.000968019,0.0978185,1,4.02928e-05,-1.35191e-05,2.92211e-05,0.00805856,-0.00270381,0.00584422,0,0,0,0,0.0541881,0.516675,-0.993296,33.1875,3,7632,20617548
130,3,-0.652731,-0.0959755,9.78188,0.0354068,-0.662966,0.980359,-0.00652989,-0.000968019,0.0978185,1,4.02928e-05,-1.35191e-05,2.92211e-05,0.00805856,-0.00270381,0.00584422,0,0,0,0,0.0541881,0.516675,-0.993296,33.1875,3,7632,20617548
130,4,-0.663705,-0.083331,9.78307,0.0248907,-0.646001,0.982991,-0.00663835,-0.000844266,0.0978306,1,5.46371e-05,-6.84523e-06,2.00565e-05,0.0109274,-0.00136904,0.0040113,0,0,0,0,0.0565538,0.520539,-0.992211,33.1875,3,7633,20617648
131,1,-0.663705,-0.083331,9.78307,0.0248907,-0.646001,0.982991,-0.00663835,-0.000844266,0.0978306,1,5.46371e-05,-6.84523e-06,2.00565e-05,0.0109274,-0.00136904,0.0040113,0,0,0,0,0.0565538,0.520539,-0.992211,33.1875,3,7633,20617648
131,2,-0.65658,-0.0956214,9.78699,0.0266394,-0.664294,0.987329,-0.00656543,-0.000966089,0.0978698,1,4.8982e-05,1.6839e-06,2.19381e-05,0.00979641,0.000336781,0.00438762,0,0,0,0,0.0583838,0.521074,-0.995743,33.1875,3,7634,20617748
131,3,-0.65658,-0.0956214,9.78699,0.0266394,-0.664294,0.987329,-0.00656543,-0.000966089,0.0978698,1,4.8982e-05,1.6839e-06,2.19381e-05,0.00979641,0.000336781,0.00438762,0,0,0,0,0.0583838,0.521074,-0.995743,33.1875,3,7634,20617748
131,4,-0.652768,-0.095801,9.7856,0.0324442,-0.66034,0.986534,-0.00652918,-0.000963748,0.0978559,1,2.6716e-05,-8.00966e-06,3.89571e-05,0.0053432,-0.00160193,0.00779142,0,0,0,0,0.057861,0.519181,-0.998813,33.1875,3,7635,20617848
132,1,-0.652768,-0.095801,9.7856,0.0324442,-0.66034,0.986534,-0.00652918,-0.000963748,0.0978559,1,2.6716e-05,-8.00966e-06,3.89571e-05,0.0053432,-0.00160193,0.00779142,0,0,0,0,0.057861,0.519181,-0.998813,33.1875,3,7635,20617848
132,2,-0.658433,-0.094258,9.78363,0.0287287,-0.664418,0.98559,-0.00658918,-0.000951815,0.0978359,1,4.67934e-05,-2.48551e-05,5.97362e-06,0.00935868,-0.00497102,0.00119472,0,0,0,0,0.0564874,0.51866,-0.996293,33.1875,3,7636,20617948
