frame_id,imu_idx,accel_x,accel_y,accel_z,free_accel_x,free_accel_y,free_accel_z,delta_v_x,delta_v_y,delta_v_z,delta_q_w,delta_q_x,delta_q_y,delta_q_z,rate_x,rate_y,rate_z,quat_w,quat_x,quat_y,quat_z,mag_x,mag_y,mag_z,temperature,status_byte,packet_counter,time_fine
1,1,-0.670464,-0.0804688,9.78649,0.5417,-0.104911,0.959912,-0.00670645,-0.000812309,0.0978647,1,3.66402e-05,-9.48837e-06,3.35517e-05,0.00732804,-0.00189768,0.00671034,0,0,0,0,0.0757083,0.521061,-0.975621,33.8125,3,51616,18412405
1,2,-0.504927,-0.0674479,7.34626,0.5417,-0.104911,0.959912,-0.00505143,-0.000678653,0.0734624,1,2.79453e-05,-1.47334e-05,6.73925e-06,0.00558906,-0.00294669,0.00134785,0,0,0,0,0.0810982,0.53093,-0.984517,33.8125,1,51617,18413948
3,1,-0.504927,-0.0674479,7.34626,0.5417,-0.104911,0.959912,-0.00505143,-0.000678653,0.0734624,1,2.79453e-05,-1.47334e-05,6.73925e-06,0.00558906,-0.00294669,0.00134785,0,0,0,0,0.0810982,0.53093,-0.984517,33.8125,1,51617,18413948
3,2,-0.667619,-0.0878927,9.79082,0.0600439,-0.511311,0.997178,-0.00667873,-0.000888068,0.0979079,1,4.45042e-05,-1.32863e-05,3.19462e-05,0.00890084,-0.00265725,0.00638925,0,0,0,0,0.0797199,0.528485,-0.983555,33.8125,1,51618,18414048
3,3,-0.667619,-0.0878927,9.79082,0.0600439,-0.511311,0.997178,-0.00667873,-0.000888068,0.0979079,1,4.45042e-05,-1.32863e-05,3.19462e-05,0.00890084,-0.00265725,0.00638925,0,0,0,0,0.0797199,0.528485,-0.983555,33.8125,1,51618,18414048
3,4,-0.670875,-0.0779526,9.78752,0.0578533,-0.49926,0.98907,-0.00671024,-0.000788045,0.0978751,1,4.27775e-05,-7.70596e-06,1.0891e-05,0.00855549,-0.00154119,0.00217819,0,0,0,0,0.075993,0.524091,-0.981615,33.8125,1,51619,18414148
4,1,-0.670875,-0.0779526,9.78752,0.0578533,-0.49926,0.98907,-0.00671024,-0.000788045,0.0978751,1,4.27775e-05,-7.70596e-06,1.0891e-05,0.00855549,-0.00154119,0.00217819,0,0,0,0,0.075993,0.524091,-0.981615,33.8125,1,51619,18414148
4,2,-0.665646,-0.0892569,9.78706,0.0659715,-0.509583,0.988225,-0.00665991,-0.000900846,0.0978703,1,4.03503e-05,-1.79054e-05,2.84094e-05,0.00807006,-0.00358108,0.00568188,0,0,0,0,0.0762549,0.520045,-0.973626,33.8125,1,51620,18414248
4,3,-0.665646,-0.0892569,9.78706,0.0659715,-0.509583,0.988225,-0.00665991,-0.000900846,0.0978703,1,4.03503e-05,-1.79054e-05,2.84094e-05,0.00807006,-0.00358108,0.00568188,0,0,0,0,0.0762549,0.520045,-0.973626,33.8125,1,51620,18414248
4,4,-0.677017,-0.0945484,9.79456,0.0507492,-0.515487,0.994891,-0.00677477,-0.00095501,0.0979452,1,4.68362e-05,-2.37449e-05,2.59859e-05,0.00936724,-0.00474899,0.00519718,0,0,0,0,0.0772631,0.522413,-0.970042,33.8125,1,51621,18414348
7,1,-0.677017,-0.0945484,9.79456,0.0507492,-0.515487,0.994891,-0.00677477,-0.00095501,0.0979452,1,4.68362e-05,-2.37449e-05,2.59859e-05,0.00936724,-0.00474899,0.00519718,0,0,0,0,0.0772631,0.522413,-0.970042,33.8125,1,51621,18414348
7,2,-0.661857,-0.0893297,9.7911,0.0695825,-0.511148,0.987309,-0.006621,-0.000900242,0.0979108,1,3.39206e-05,-1.25915e-05,2.28249e-05,0.00678411,-0.00251831,0.00456499,0,0,0,0,0.0810024,0.526798,-0.971477,33.8125,1,51622,18414448
8,1,-0.661857,-0.0893297,9.7911,0.0695825,-0.511148,0.987309,-0.006621,-0.000900242,0.0979108,1,3.39206e-05,-1.25915e-05,2.28249e-05,0.00678411,-0.00251831,0.00456499,0,0,0,0,0.0810024,0.526798,-0.971477,33.8125,1,51622,18414448
8,2,-0.66087,-0.0886576,9.79245,0.0675402,-0.510011,0.984521,-0.00661057,-0.000893868,0.0979244,1,3.68822e-05,-9.57214e-06,5.16881e-06,0.00737645,-0.00191443,0.00103376,0,0,0,0,0.0812866,0.528383,-0.978514,33.8125,1,51623,18414548
9,1,-0.66087,-0.0886576,9.79245,0.0675402,-0.510011,0.984521,-0.00661057,-0.000893868,0.0979244,1,3.68822e-05,-9.57214e-06,5.16881e-06,0.00737645,-0.00191443,0.00103376,0,0,0,0,0.0812866,0.528383,-0.978514,33.8125,1,51623,18414548
9,2,-0.663179,-0.0958412,9.79343,0.0616574,-0.521739,0.989886,-0.00663437,-0.000967475,0.097934,1,4.53554e-05,-1.32768e-05,1.35434e-05,0.00907108,-0.00265535,0.00270869,0,0,0,0,0.0783127,0.52558,-0.984118,33.8125,1,51624,18414648
10,1,-0.663179,-0.0958412,9.79343,0.0616574,-0.521739,0.989886,-0.00663437,-0.000967475,0.097934,1,4.53554e-05,-1.32768e-05,1.35434e-05,0.00907108,-0.00265535,0.00270869,0,0,0,0,0.0783127,0.52558,-0.984118,33.8125,1,51624,18414648
10,2,-0.679623,-0.0853433,9.79193,0.0469234,-0.511957,0.994773,-0.00679663,-0.000861892,0.0979192,1,4.13732e-05,-2.27603e-06,2.62352e-05,0.00827464,-0.000455205,0.00524704,0,0,0,0,0.0765353,0.522597,-0.980136,33.8125,1,51625,18414748
10,3,-0.679623,-0.0853433,9.79193,0.0469234,-0.511957,0.994773,-0.00679663,-0.000861892,0.0979192,1,4.13732e-05,-2.27603e-06,2.62352e-05,0.00827464,-0.000455205,0.00524704,0,0,0,0,0.0765353,0.522597,-0.980136,33.8125,1,51625,18414748
10,4,-0.666647,-0.0892285,9.78503,0.0615091,-0.517392,0.988385,-0.00666925,-0.000902504,0.09785,1,5.11595e-05,-1.43794e-05,1.55716e-05,0.0102319,-0.00287588,0.00311432,0,0,0,0,0.0762677,0.521481,-0.972079,33.8125,1,51626,18414848
11,1,-0.666647,-0.0892285,9.78503,0.0615091,-0.517392,0.988385,-0.00666925,-0.000902504,0.09785,1,5.11595e-05,-1.43794e-05,1.55716e-05,0.0102319,-0.00287588,0.00311432,0,0,0,0,0.0762677,0.521481,-0.972079,33.8125,1,51626,18414848
11,2,-0.665449,-0.0967014,9.79548,0.0622079,-0.52116,0.993928,-0.00665646,-0.000971992,0.0979546,1,2.41642e-05,-1.0211e-05,1.83618e-05,0.00483284,-0.0020422,0.00367236,0,0,0,0,0.0777286,0.52483,-0.96898,33.8125,1,51627,18414948
11,3,-0.665449,-0.0967014,9.79548,0.0622079,-0.52116,0.993928,-0.00665646,-0.000971992,0.0979546,1,2.41642e-05,-1.0211e-05,1.83618e-05,0.00483284,-0.0020422,0.00367236,0,0,0,0,0.0777286,0.52483,-0.96898,33.8125,1,51627,18414948
11,4,-0.672349,-0.0836285,9.7936,0.0527337,-0.509089,0.985845,-0.00672644,-0.000843864,0.0979358,1,3.74654e-05,-1.52067e-05,1.78868e-05,0.00749307,-0.00304133,0.00357735,0,0,0,0,0.0824216,0.528249,-0.971451,33.8125,1,51628,18415048
12,1,-0.672349,-0.0836285,9.7936,0.0527337,-0.509089,0.985845,-0.00672644,-0.000843864,0.0979358,1,3.74654e-05,-1.52067e-05,1.78868e-05,0.00749307,-0.00304133,0.00357735,0,0,0,0,0.0824216,0.528249,-0.971451,33.8125,1,51628,18415048
12,2,-0.673155,-0.0887415,9.78847,0.0533934,-0.515904,0.980548,-0.00673231,-0.000894376,0.0978845,1,3.42001e-05,-4.08273e-06,1.97719e-05,0.00684002,-0.000816546,0.00395438,0,0,0,0,0.0822247,0.529839,-0.978486,33.8125,1,51629,18415148
10,1,-0.673155,-0.0887415,9.78847,0.0533934,-0.515904,0.980548,-0.00673231,-0.000894376,0.0978845,1,3.42001e-05,-4.08273e-06,1.97719e-05,0.00684002,-0.000816546,0.00395438,0,0,0,0,0.0822247,0.529839,-0.978486,33.8125,1,51629,18415148
10,2,-0.672521,-0.0811179,9.78582,0.0491858,-0.513608,0.979534,-0.0067276,-0.000820379,0.097858,1,4.62513e-05,-1.22936e-05,1.10064e-05,0.00925026,-0.00245872,0.00220128,0,0,0,0,0.0778401,0.526541,-0.983085,33.8125,1,51630,18415248
14,1,-0.672521,-0.0811179,9.78582,0.0491858,-0.513608,0.979534,-0.0067276,-0.000820379,0.097858,1,4.62513e-05,-1.22936e-05,1.10064e-05,0.00925026,-0.00245872,0.00220128,0,0,0,0,0.0778401,0.526541,-0.983085,33.8125,1,51630,18415248
14,2,-0.661243,-0.0875825,9.79382,0.0653714,-0.518706,0.993102,-0.00661233,-0.000884084,0.0979382,1,4.10733e-05,3.49951e-07,1.60967e-05,0.00821466,6.99901e-05,0.00321934,0,0,0,0,0.0741335,0.521651,-0.980651,33.8125,1,51631,18415348
14,3,-0.661243,-0.0875825,9.79382,0.0653714,-0.518706,0.993102,-0.00661233,-0.000884084,0.0979382,1,4.10733e-05,3.49951e-07,1.60967e-05,0.00821466,6.99901e-05,0.00321934,0,0,0,0,0.0741335,0.521651,-0.980651,33.8125,1,51631,18415348
14,4,-0.681174,-0.0977224,9.7837,0.0454929,-0.529184,0.990374,-0.00681512,-0.000983781,0.0978367,1,3.21865e-05,-1.75034e-05,1.89617e-05,0.00643729,-0.00350069,0.00379233,0,0,0,0,0.0757904,0.520519,-0.972603,33.8125,1,51632,18415448
15,1,-0.681174,-0.0977224,9.7837,0.0454929,-0.529184,0.990374,-0.00681512,-0.000983781,0.0978367,1,3.21865e-05,-1.75034e-05,1.89617e-05,0.00643729,-0.00350069,0.00379233,0,0,0,0,0.0757904,0.520519,-0.972603,33.8125,1,51632,18415448
15,2,-0.666416,-0.0904294,9.79247,0.0640412,-0.520794,0.988065,-0.00666405,-0.000911615,0.0979246,1,3.63737e-05,4.08038e-07,1.48119e-05,0.00727474,8.16075e-05,0.00296237,0,0,0,0,0.0777528,0.523366,-0.969013,33.8125,1,51633,18415548
15,3,-0.666416,-0.0904294,9.79247,0.0640412,-0.520794,0.988065,-0.00666405,-0.000911615,0.0979246,1,3.63737e-05,4.08038e-07,1.48119e-05,0.00727474,8.16075e-05,0.00296237,0,0,0,0,0.0777528,0.523366,-0.969013,33.8125,1,51633,18415548
15,4,-0.674042,-0.0863259,9.79765,0.0548868,-0.509529,0.98821,-0.00674311,-0.000872425,0.0979763,1,4.58305e-05,-1.38374e-05,1.37835e-05,0.00916609,-0.00276748,0.00275669,0,0,0,0,0.0809863,0.527773,-0.971455,33.8125,1,51634,18415648
16,1,-0.674042,-0.0863259,9.79765,0.0548868,-0.509529,0.98821,-0.00674311,-0.000872425,0.0979763,1,4.58305e-05,-1.38374e-05,1.37835e-05,0.00916609,-0.00276748,0.00275669,0,0,0,0,0.0809863,0.527773,-0.971455,33.8125,1,51634,18415648
16,2,-0.655927,-0.0864063,9.78904,0.0720462,-0.519227,0.979074,-0.00655914,-0.000873418,0.0978904,1,4.66835e-05,5.45623e-07,1.64304e-05,0.00933669,0.000109125,0.00328609,0,0,0,0,0.0821881,0.531311,-0.978958,33.8125,1,51635,18415748
17,1,-0.655927,-0.0864063,9.78904,0.0720462,-0.519227,0.979074,-0.00655914,-0.000873418,0.0978904,1,4.66835e-05,5.45623e-07,1.64304e-05,0.00933669,0.000109125,0.00328609,0,0,0,0,0.0821881,0.531311,-0.978958,33.8125,1,51635,18415748
17,2,-0.667066,-0.0879869,9.79182,0.0542526,-0.527441,0.986291,-0.00667159,-0.000888921,0.097918,1,4.5428e-05,-4.85209e-06,1.16416e-05,0.00908561,-0.000970417,0.00232832,0,0,0,0,0.0802457,0.526521,-0.983096,33.8125,1,51636,18415848
17,3,-0.667066,-0.0879869,9.79182,0.0542526,-0.527441,0.986291,-0.00667159,-0.000888921,0.097918,1,4.5428e-05,-4.85209e-06,1.16416e-05,0.00908561,-0.000970417,0.00232832,0,0,0,0,0.0802457,0.526521,-0.983096,33.8125,1,51636,18415848
17,4,-0.670488,-0.0885815,9.78472,0.0534103,-0.530341,0.985069,-0.00670495,-0.000894975,0.0978471,1,4.61452e-05,-4.76692e-07,9.7042e-06,0.00922905,-9.53384e-05,0.00194084,0,0,0,0,0.0765557,0.5221,-0.979642,33.8125,1,51637,18415948
18,1,-0.670488,-0.0885815,9.78472,0.0534103,-0.530341,0.985069,-0.00670495,-0.000894975,0.0978471,1,4.61452e-05,-4.76692e-07,9.7042e-06,0.00922905,-9.53384e-05,0.00194084,0,0,0,0,0.0765557,0.5221,-0.979642,33.8125,1,51637,18415948
18,2,-0.664933,-0.0858898,9.78336,0.0617871,-0.521725,0.985006,-0.00665192,-0.00086631,0.0978333,1,3.75231e-05,-1.32917e-05,5.29152e-06,0.00750461,-0.00265835,0.0010583,0,0,0,0,0.0767365,0.521486,-0.972586,33.8125,1,51638,18416048
18,3,-0.664933,-0.0858898,9.78336,0.0617871,-0.521725,0.985006,-0.00665192,-0.00086631,0.0978333,1,3.75231e-05,-1.32917e-05,5.29152e-06,0.00750461,-0.00265835,0.0010583,0,0,0,0,0.0767365,0.521486,-0.972586,33.8125,1,51638,18416048
18,4,-0.666959,-0.0973171,9.78394,0.0565515,-0.532054,0.981867,-0.00667133,-0.000984382,0.0978392,1,5.55423e-05,-9.13402e-06,2.56541e-05,0.0111085,-0.0018268,0.00513083,0,0,0,0,0.0777205,0.525317,-0.96897,33.8125,1,51639,18416148
19,1,-0.666959,-0.0973171,9.78394,0.0565515,-0.532054,0.981867,-0.00667133,-0.000984382,0.0978392,1,5.55423e-05,-9.13402e-06,2.56541e-05,0.0111085,-0.0018268,0.00513083,0,0,0,0,0.0777205,0.525317,-0.96897,33.8125,1,51639,18416148
19,2,-0.660673,-0.0855042,9.78026,0.0652892,-0.52477,0.97298,-0.00660818,-0.000862406,0.0978025,1,3.66717e-05,-7.50657e-06,1.44169e-05,0.00733434,-0.00150131,0.00288338,0,0,0,0,0.0809331,0.528776,-0.972948,33.8125,1,51640,18416248
20,1,-0.660673,-0.0855042,9.78026,0.0652892,-0.52477,0.97298,-0.00660818,-0.000862406,0.0978025,1,3.66717e-05,-7.50657e-06,1.44169e-05,0.00733434,-0.00150131,0.00288338,0,0,0,0,0.0809331,0.528776,-0.972948,33.8125,1,51640,18416248
20,2,-0.668256,-0.0965946,9.79684,0.0566421,-0.540933,0.984596,-0.00668483,-0.000974536,0.0979682,1,4.13431e-05,-1.1951e-05,3.65545e-05,0.00826862,-0.0023902,0.0073109,0,0,0,0,0.0821634,0.531329,-0.979968,33.8125,1,51641,18416348
21,1,-0.668256,-0.0965946,9.79684,0.0566421,-0.540933,0.984596,-0.00668483,-0.000974536,0.0979682,1,4.13431e-05,-1.1951e-05,3.65545e-05,0.00826862,-0.0023902,0.0073109,0,0,0,0,0.0821634,0.531329,-0.979968,33.8125,1,51641,18416348
21,2,-0.669436,-0.0898286,9.79284,0.0547779,-0.53388,0.985591,-0.00669386,-0.000904342,0.0979284,1,2.89735e-05,2.30795e-06,2.84984e-05,0.0057947,0.000461591,0.00569968,0,0,0,0,0.0801683,0.528987,-0.984556,33.8125,1,51642,18416448
21,3,-0.669436,-0.0898286,9.79284,0.0547779,-0.53388,0.985591,-0.00669386,-0.000904342,0.0979284,1,2.89735e-05,2.30795e-06,2.84984e-05,0.0057947,0.000461591,0.00569968,0,0,0,0,0.0801683,0.528987,-0.984556,33.8125,1,51642,18416448
21,4,-0.673724,-0.0968115,9.78705,0.0464408,-0.550145,0.990415,-0.00673931,-0.000978357,0.0978702,1,5.05653e-05,-1.07827e-05,2.55777e-05,0.0101131,-0.00215655,0.00511554,0,0,0,0,0.0769429,0.524093,-0.982125,33.8125,1,51643,18416548
22,1,-0.673724,-0.0968115,9.78705,0.0464408,-0.550145,0.990415,-0.00673931,-0.000978357,0.0978702,1,5.05653e-05,-1.07827e-05,2.55777e-05,0.0101131,-0.00215655,0.00511554,0,0,0,0,0.0769429,0.524093,-0.982125,33.8125,1,51643,18416548
22,2,-0.657183,-0.0755803,9.78882,0.0687074,-0.525218,0.991074,-0.00657472,-0.000764187,0.0978879,1,4.22541e-05,-1.48117e-05,8.46373e-06,0.00845082,-0.00296235,0.00169275,0,0,0,0,0.0762468,0.520533,-0.973615,33.8125,1,51644,18416648
22,3,-0.657183,-0.0755803,9.78882,0.0687074,-0.525218,0.991074,-0.00657472,-0.000764187,0.0978879,1,4.22541e-05,-1.48117e-05,8.46373e-06,0.00845082,-0.00296235,0.00169275,0,0,0,0,0.0762468,0.520533,-0.973615,33.8125,1,51644,18416648
22,4,-0.673211,-0.0794751,9.79228,0.0539074,-0.525779,0.990792,-0.00673343,-0.000802737,0.0979226,1,3.90466e-05,-6.98283e-06,2.5142e-05,0.00780933,-0.00139657,0.00502841,0,0,0,0,0.0792289,0.522849,-0.968021,33.8125,1,51645,18416748
23,1,-0.673211,-0.0794751,9.79228,0.0539074,-0.525779,0.990792,-0.00673343,-0.000802737,0.0979226,1,3.90466e-05,-6.98283e-06,2.5142e-05,0.00780933,-0.00139657,0.00502841,0,0,0,0,0.0792289,0.522849,-0.968021,33.8125,1,51645,18416748
23,2,-0.670772,-0.0890975,9.80066,0.0535759,-0.527539,0.992189,-0.00670763,-0.000899307,0.0980065,1,4.06689e-05,2.16213e-07,2.68203e-05,0.00813379,4.32426e-05,0.00536406,0,0,0,0,0.081521,0.528212,-0.968923,33.8125,1,51646,18416848
24,1,-0.670772,-0.0890975,9.80066,0.0535759,-0.527539,0.992189,-0.00670763,-0.000899307,0.0980065,1,4.06689e-05,2.16213e-07,2.68203e-05,0.00813379,4.32426e-05,0.00536406,0,0,0,0,0.081521,0.528212,-0.968923,33.8125,1,51646,18416848
24,2,-0.671064,-0.0895467,9.78404,0.0493503,-0.538314,0.972242,-0.00671218,-0.000904737,0.0978402,1,4.5756e-05,-8.05933e-06,2.35566e-05,0.00915121,-0.00161187,0.00471133,0,0,0,0,0.0808264,0.529336,-0.976976,33.8125,1,51647,18416948
24,3,-0.671064,-0.0895467,9.78404,0.0493503,-0.538314,0.972242,-0.00671218,-0.000904737,0.0978402,1,4.5756e-05,-8.05933e-06,2.35566e-05,0.00915121,-0.00161187,0.00471133,0,0,0,0,0.0808264,0.529336,-0.976976,33.8125,1,51647,18416948
24,4,-0.67483,-0.0915572,9.80066,0.0473326,-0.544635,0.99254,-0.00674899,-0.000924688,0.0980064,1,4.57279e-05,-3.63174e-06,1.13213e-05,0.00914558,-0.000726348,0.00226426,0,0,0,0,0.0783658,0.524577,-0.982626,33.8125,1,51648,18417048
25,1,-0.67483,-0.0915572,9.80066,0.0473326,-0.544635,0.99254,-0.00674899,-0.000924688,0.0980064,1,4.57279e-05,-3.63174e-06,1.13213e-05,0.00914558,-0.000726348,0.00226426,0,0,0,0,0.0783658,0.524577,-0.982626,33.8125,1,51648,18417048
25,2,-0.65725,-0.0749246,9.79221,0.0647638,-0.52984,0.992687,-0.00657396,-0.000756996,0.0979219,1,3.80985e-05,-7.63117e-06,2.19234e-05,0.00761971,-0.00152623,0.00438468,0,0,0,0,0.0756053,0.520654,-0.980175,33.8125,1,51649,18417148
25,3,-0.65725,-0.0749246,9.79221,0.0647638,-0.52984,0.992687,-0.00657396,-0.000756996,0.0979219,1,3.80985e-05,-7.63117e-06,2.19234e-05,0.00761971,-0.00152623,0.00438468,0,0,0,0,0.0756053,0.520654,-0.980175,33.8125,1,51649,18417148
25,4,-0.667714,-0.0857539,9.78947,0.05563,-0.533357,0.985759,-0.0066793,-0.000868635,0.0978945,1,5.5462e-05,-1.11946e-05,1.77773e-05,0.0110924,-0.00223893,0.00355545,0,0,0,0,0.0767854,0.520005,-0.971609,33.8125,1,51650,18417248
26,1,-0.667714,-0.0857539,9.78947,0.05563,-0.533357,0.985759,-0.0066793,-0.000868635,0.0978945,1,5.5462e-05,-1.11946e-05,1.77773e-05,0.0110924,-0.00223893,0.00355545,0,0,0,0,0.0767854,0.520005,-0.971609,33.8125,1,51650,18417248
26,2,-0.671093,-0.0844795,9.7929,0.0543436,-0.530109,0.989619,-0.006713,-0.000850008,0.0979288,1,2.60752e-05,-1.06264e-05,7.96455e-06,0.00521504,-0.00212528,0.00159291,0,0,0,0,0.0791885,0.525287,-0.967967,33.8125,1,51651,18417348
27,1,-0.671093,-0.0844795,9.7929,0.0543436,-0.530109,0.989619,-0.006713,-0.000850008,0.0979288,1,2.60752e-05,-1.06264e-05,7.96455e-06,0.00521504,-0.00212528,0.00159291,0,0,0,0,0.0791885,0.525287,-0.967967,33.8125,1,51651,18417348
27,2,-0.668083,-0.0829671,9.79425,0.0522233,-0.533052,0.984152,-0.00668244,-0.00083598,0.0979423,1,3.14041e-05,-8.34856e-06,1.17347e-05,0.00628082,-0.00166971,0.00234695,0,0,0,0,0.0814513,0.528745,-0.971436,33.8125,1,51652,18417448
28,1,-0.668083,-0.0829671,9.79425,0.0522233,-0.533052,0.984152,-0.00668244,-0.00083598,0.0979423,1,3.14041e-05,-8.34856e-06,1.17347e-05,0.00628082,-0.00166971,0.00234695,0,0,0,0,0.0814513,0.528745,-0.971436,33.8125,1,51652,18417448
28,2,-0.669106,-0.0808361,9.78309,0.0516788,-0.5315,0.968786,-0.00669446,-0.000814248,0.0978306,1,2.89528e-05,-1.75276e-05,1.65926e-05,0.00579056,-0.00350553,0.00331851,0,0,0,0,0.0822408,0.528863,-0.978508,33.8125,1,51653,18417548
28,3,-0.669106,-0.0808361,9.78309,0.0516788,-0.5315,0.968786,-0.00669446,-0.000814248,0.0978306,1,2.89528e-05,-1.75276e-05,1.65926e-05,0.00579056,-0.00350553,0.00331851,0,0,0,0,0.0822408,0.528863,-0.978508,33.8125,1,51653,18417548
28,4,-0.675752,-0.0833299,9.79566,0.0439006,-0.541209,0.985781,-0.00676116,-0.000839511,0.0979563,1,3.02699e-05,-1.87474e-05,2.08245e-05,0.00605397,-0.00374947,0.0041649,0,0,0,0,0.0817583,0.524531,-0.981632,33.8125,1,51654,18417648
29,1,-0.675752,-0.0833299,9.79566,0.0439006,-0.541209,0.985781,-0.00676116,-0.000839511,0.0979563,1,3.02699e-05,-1.87474e-05,2.08245e-05,0.00605397,-0.00374947,0.0041649,0,0,0,0,0.0817583,0.524531,-0.981632,33.8125,1,51654,18417648
29,2,-0.672382,-0.0848648,9.7946,0.0485995,-0.542066,0.995557,-0.00672799,-0.000858962,0.0979457,1,5.16026e-05,-2.14038e-05,1.52703e-05,0.0103205,-0.00428076,0.00305405,0,0,0,0,0.0780275,0.521104,-0.979166,33.8125,1,51655,18417748
30,1,-0.672382,-0.0848648,9.7946,0.0485995,-0.542066,0.995557,-0.00672799,-0.000858962,0.0979457,1,5.16026e-05,-2.14038e-05,1.52703e-05,0.0103205,-0.00428076,0.00305405,0,0,0,0,0.0780275,0.521104,-0.979166,33.8125,1,51655,18417748
30,2,-0.666632,-0.0819692,9.79527,0.0510153,-0.53278,0.995036,-0.00666959,-0.000825427,0.0979524,1,2.8832e-05,-1.67581e-05,6.44293e-06,0.0057664,-0.00335162,0.00128859,0,0,0,0,0.0762758,0.520994,-0.972089,33.8125,1,51656,18417848
30,3,-0.666632,-0.0819692,9.79527,0.0510153,-0.53278,0.995036,-0.00666959,-0.000825427,0.0979524,1,2.8832e-05,-1.67581e-05,6.44293e-06,0.0057664,-0.00335162,0.00128859,0,0,0,0,0.0762758,0.520994,-0.972089,33.8125,1,51656,18417848
30,4,-0.671657,-0.0967392,9.78602,0.0470215,-0.548063,0.978836,-0.00671907,-0.000977355,0.0978599,1,5.03585e-05,-1.28856e-05,7.97202e-06,0.0100717,-0.00257712,0.0015944,0,0,0,0,0.0791885,0.525287,-0.967967,33.8125,1,51657,18417948
31,1,-0.671657,-0.0967392,9.78602,0.0470215,-0.548063,0.978836,-0.00671907,-0.000977355,0.0978599,1,5.03585e-05,-1.28856e-05,7.97202e-06,0.0100717,-0.00257712,0.0015944,0,0,0,0,0.0791885,0.525287,-0.967967,33.8125,1,51657,18417948
31,2,-0.665309,-0.0905479,9.78637,0.0507369,-0.5438,0.976963,-0.00665497,-0.00091471,0.0978634,1,4.63314e-05,-9.71566e-06,1.22526e-05,0.00926628,-0.00194313,0.00245051,0,0,0,0,0.0804852,0.529719,-0.970905,33.8125,1,51658,18418048
31,3,-0.665309,-0.0905479,9.78637,0.0507369,-0.5438,0.976963,-0.00665497,-0.00091471,0.0978634,1,4.63314e-05,-9.71566e-06,1.22526e-05,0.00926628,-0.00194313,0.00245051,0,0,0,0,0.0804852,0.529719,-0.970905,33.8125,1,51658,18418048
31,4,-0.678261,-0.0898402,9.79324,0.043237,-0.548465,0.980735,-0.00678193,-0.000904944,0.0979324,1,3.17694e-05,3.25432e-06,2.35231e-05,0.00635387,0.000650865,0.00470462,0,0,0,0,0.0802959,0.529376,-0.978993,33.8125,1,51659,18418148
32,1,-0.678261,-0.0898402,9.79324,0.043237,-0.548465,0.980735,-0.00678193,-0.000904944,0.0979324,1,3.17694e-05,3.25432e-06,2.35231e-05,0.00635387,0.000650865,0.00470462,0,0,0,0,0.0802959,0.529376,-0.978993,33.8125,1,51659,18418148
32,2,-0.666004,-0.091705,9.78771,0.0522072,-0.553839,0.977787,-0.00666236,-0.000925929,0.0978769,1,4.38297e-05,-1.20291e-05,2.24656e-05,0.00876595,-0.00240582,0.00449311,0,0,0,0,0.0792915,0.526042,-0.983102,33.8125,1,51660,18418248
33,1,-0.666004,-0.091705,9.78771,0.0522072,-0.553839,0.977787,-0.00666236,-0.000925929,0.0978769,1,4.38297e-05,-1.20291e-05,2.24656e-05,0.00876595,-0.00240582,0.00449311,0,0,0,0,0.0792915,0.526042,-0.983102,33.8125,1,51660,18418248
33,2,-0.673494,-0.0900092,9.78575,0.0472498,-0.554735,0.983601,-0.00673787,-0.000907675,0.0978572,1,3.721e-05,-1.51544e-05,2.23056e-05,0.007442,-0.00303089,0.00446112,0,0,0,0,0.076568,0.522091,-0.979137,33.8125,1,51661,18418348
33,3,-0.673494,-0.0900092,9.78575,0.0472498,-0.554735,0.983601,-0.00673787,-0.000907675,0.0978572,1,3.721e-05,-1.51544e-05,2.23056e-05,0.007442,-0.00303089,0.00446112,0,0,0,0,0.076568,0.522091,-0.979137,33.8125,1,51661,18418348
33,4,-0.670972,-0.0932583,9.8013,0.0505222,-0.550144,1.00412,-0.00671116,-0.000941528,0.0980128,1,4.49699e-05,-7.43744e-06,9.72664e-06,0.00899397,-0.00148749,0.00194533,0,0,0,0,0.07628,0.521472,-0.971574,33.8125,1,51662,18418448
34,1,-0.670972,-0.0932583,9.8013,0.0505222,-0.550144,1.00412,-0.00671116,-0.000941528,0.0980128,1,4.49699e-05,-7.43744e-06,9.72664e-06,0.00899397,-0.00148749,0.00194533,0,0,0,0,0.07628,0.521472,-0.971574,33.8125,1,51662,18418448
34,2,-0.667029,-0.0961371,9.78938,0.053274,-0.554556,0.980819,-0.00667084,-0.000970521,0.0978936,1,4.56236e-05,-2.9412e-06,1.63187e-05,0.00912471,-0.00058824,0.00326374,0,0,0,0,0.079653,0.524814,-0.96899,33.8125,1,51663,18418548
34,3,-0.667029,-0.0961371,9.78938,0.053274,-0.554556,0.980819,-0.00667084,-0.000970521,0.0978936,1,4.56236e-05,-2.9412e-06,1.63187e-05,0.00912471,-0.00058824,0.00326374,0,0,0,0,0.079653,0.524814,-0.96899,33.8125,1,51663,18418548
34,4,-0.664698,-0.0870088,9.79181,0.0601911,-0.54089,0.978305,-0.00664845,-0.000877728,0.097918,1,3.77949e-05,-7.69276e-06,1.79393e-05,0.00755897,-0.00153855,0.00358786,0,0,0,0,0.0833838,0.528241,-0.971456,33.8125,1,51664,18418648
35,1,-0.664698,-0.0870088,9.79181,0.0601911,-0.54089,0.978305,-0.00664845,-0.000877728,0.097918,1,3.77949e-05,-7.69276e-06,1.79393e-05,0.00755897,-0.00153855,0.00358786,0,0,0,0,0.0833838,0.528241,-0.971456,33.8125,1,51664,18418648
35,2,-0.671173,-0.0920227,9.78571,0.0461796,-0.556726,0.971522,-0.00671185,-0.000928781,0.097857,1,4.24441e-05,-7.84005e-07,1.8457e-05,0.00848882,-0.000156801,0.00369139,0,0,0,0,0.0827176,0.52838,-0.979026,33.8125,1,51665,18418748
35,3,-0.671173,-0.0920227,9.78571,0.0461796,-0.556726,0.971522,-0.00671185,-0.000928781,0.097857,1,4.24441e-05,-7.84005e-07,1.8457e-05,0.00848882,-0.000156801,0.00369139,0,0,0,0,0.0827176,0.52838,-0.979026,33.8125,1,51665,18418748
35,4,-0.668604,-0.0812342,9.79699,0.0434752,-0.551876,0.987208,-0.00668971,-0.000820915,0.0979696,1,4.28259e-05,-1.88763e-05,1.35952e-05,0.00856518,-0.00377526,0.00271904,0,0,0,0,0.0797968,0.524574,-0.983137,33.8125,1,51666,18418848
36,1,-0.668604,-0.0812342,9.79699,0.0434752,-0.551876,0.987208,-0.00668971,-0.000820915,0.0979696,1,4.28259e-05,-1.88763e-05,1.35952e-05,0.00856518,-0.00377526,0.00271904,0,0,0,0,0.0797968,0.524574,-0.983137,33.8125,1,51666,18418848
36,2,-0.677315,-0.0846585,9.78547,0.0431949,-0.552789,0.982359,-0.00677373,-0.000853044,0.0978546,1,3.21437e-05,-3.09002e-06,1.23419e-05,0.00642874,-0.000618004,0.00246837,0,0,0,0,0.0751043,0.5226,-0.979624,33.8125,1,51667,18418948
36,3,-0.677315,-0.0846585,9.78547,0.0431949,-0.552789,0.982359,-0.00677373,-0.000853044,0.0978546,1,3.21437e-05,-3.09002e-06,1.23419e-05,0.00642874,-0.000618004,0.00246837,0,0,0,0,0.0751043,0.5226,-0.979624,33.8125,1,51667,18418948
36,4,-0.672048,-0.0859109,9.79188,0.0491988,-0.547111,0.989516,-0.00672332,-0.000866835,0.0979185,1,3.72547e-05,-1.47838e-05,3.19612e-05,0.00745094,-0.00295675,0.00639224,0,0,0,0,0.0752974,0.521977,-0.972063,33.8125,1,51668,18419048
37,1,-0.672048,-0.0859109,9.79188,0.0491988,-0.547111,0.989516,-0.00672332,-0.000866835,0.0979185,1,3.72547e-05,-1.47838e-05,3.19612e-05,0.00745094,-0.00295675,0.00639224,0,0,0,0,0.0752974,0.521977,-0.972063,33.8125,1,51668,18419048
37,2,-0.677239,-0.0774956,9.79029,0.0440046,-0.540845,0.98507,-0.00677485,-0.000783525,0.0979027,1,4.24628e-05,-1.27405e-05,1.87902e-05,0.00849257,-0.00254809,0.00375804,0,0,0,0,0.0787074,0.525291,-0.967965,33.8125,1,51669,18419148
37,3,-0.677239,-0.0774956,9.79029,0.0440046,-0.540845,0.98507,-0.00677485,-0.000783525,0.0979027,1,4.24628e-05,-1.27405e-05,1.87902e-05,0.00849257,-0.00254809,0.00375804,0,0,0,0,0.0787074,0.525291,-0.967965,33.8125,1,51669,18419148
37,4,-0.667522,-0.101135,9.79308,0.0532213,-0.56176,0.981124,-0.00667756,-0.00101763,0.0979306,1,3.18066e-05,-1.19469e-05,3.61716e-06,0.00636132,-0.00238938,0.000723432,0,0,0,0,0.0814389,0.528754,-0.971941,33.8125,1,51670,18419248
38,1,-0.667522,-0.101135,9.79308,0.0532213,-0.56176,0.981124,-0.00667756,-0.00101763,0.0979306,1,3.18066e-05,-1.19469e-05,3.61716e-06,0.00636132,-0.00238938,0.000723432,0,0,0,0,0.0814389,0.528754,-0.971941,33.8125,1,51670,18419248
38,2,-0.671015,-0.0896789,9.79252,0.0452647,-0.558542,0.976803,-0.00671303,-0.000904794,0.0979249,1,3.99053e-05,-1.48526e-05,1.41227e-05,0.00798106,-0.00297053,0.00282453,0,0,0,0,0.0816861,0.530367,-0.980492,33.8125,1,51671,18419348
39,1,-0.671015,-0.0896789,9.79252,0.0452647,-0.558542,0.976803,-0.00671303,-0.000904794,0.0979249,1,3.99053e-05,-1.48526e-05,1.41227e-05,0.00798106,-0.00297053,0.00282453,0,0,0,0,0.0816861,0.530367,-0.980492,33.8125,1,51671,18419348
39,2,-0.669189,-0.0846156,9.79559,0.0482977,-0.555113,0.986137,-0.00669143,-0.000855148,0.0979559,1,4.4547e-05,2.21077e-06,1.97852e-05,0.0089094,0.000442153,0.00395703,0,0,0,0,0.0793043,0.527478,-0.981555,33.8125,1,51672,18419448
39,3,-0.669189,-0.0846156,9.79559,0.0482977,-0.555113,0.986137,-0.00669143,-0.000855148,0.0979559,1,4.4547e-05,2.21077e-06,1.97852e-05,0.0089094,0.000442153,0.00395703,0,0,0,0,0.0793043,0.527478,-0.981555,33.8125,1,51672,18419448
39,4,-0.661838,-0.0961376,9.7924,0.053521,-0.571877,0.989348,-0.00661989,-0.000969162,0.0979238,1,3.89144e-05,-7.81948e-06,1.24499e-05,0.00778287,-0.0015639,0.00248998,0,0,0,0,0.0775473,0.523998,-0.977079,33.8125,1,51673,18419548
40,1,-0.661838,-0.0961376,9.7924,0.053521,-0.571877,0.989348,-0.00661989,-0.000969162,0.0979238,1,3.89144e-05,-7.81948e-06,1.24499e-05,0.00778287,-0.0015639,0.00248998,0,0,0,0,0.0775473,0.523998,-0.977079,33.8125,1,51673,18419548
40,2,-0.669731,-0.0835217,9.7929,0.0486389,-0.556925,0.990248,-0.00669941,-0.000845364,0.0979288,1,4.98928e-05,-1.09598e-05,2.80235e-05,0.00997857,-0.00219195,0.00560469,0,0,0,0,0.0772708,0.52048,-0.971095,33.8125,1,51674,18419648
41,1,-0.669731,-0.0835217,9.7929,0.0486389,-0.556925,0.990248,-0.00669941,-0.000845364,0.0979288,1,4.98928e-05,-1.09598e-05,2.80235e-05,0.00997857,-0.00219195,0.00560469,0,0,0,0,0.0772708,0.52048,-0.971095,33.8125,1,51674,18419648
41,2,-0.655421,-0.0941085,9.79508,0.0703934,-0.561923,0.986614,-0.00655521,-0.000950349,0.0979507,1,4.57334e-05,-5.31658e-06,2.32384e-05,0.00914668,-0.00106332,0.00464768,0,0,0,0,0.0787231,0.522871,-0.969029,33.8125,1,51675,18419748
41,3,-0.655421,-0.0941085,9.79508,0.0703934,-0.561923,0.986614,-0.00655521,-0.000950349,0.0979507,1,4.57334e-05,-5.31658e-06,2.32384e-05,0.00914668,-0.00106332,0.00464768,0,0,0,0,0.0787231,0.522871,-0.969029,33.8125,1,51675,18419748
41,4,-0.664685,-0.0810988,9.78983,0.0499259,-0.551523,0.979249,-0.00664913,-0.000818548,0.0978981,1,3.71002e-05,-1.18332e-05,2.22475e-05,0.00742003,-0.00236664,0.0044495,0,0,0,0,0.0814755,0.527282,-0.971469,33.8125,1,51676,18419848
42,1,-0.664685,-0.0810988,9.78983,0.0499259,-0.551523,0.979249,-0.00664913,-0.000818548,0.0978981,1,3.71002e-05,-1.18332e-05,2.22475e-05,0.00742003,-0.00236664,0.0044495,0,0,0,0,0.0814755,0.527282,-0.971469,33.8125,1,51676,18419848
42,2,-0.666321,-0.083504,9.80034,0.0504187,-0.558778,0.984978,-0.0066651,-0.000844668,0.0980032,1,4.74228e-05,-9.84793e-06,2.50099e-05,0.00948456,-0.00196959,0.00500199,0,0,0,0,0.0812747,0.529838,-0.977977,33.8125,1,51677,18419948
42,3,-0.666321,-0.083504,9.80034,0.0504187,-0.558778,0.984978,-0.0066651,-0.000844668,0.0980032,1,4.74228e-05,-9.84793e-06,2.50099e-05,0.00948456,-0.00196959,0.00500199,0,0,0,0,0.0812747,0.529838,-0.977977,33.8125,1,51677,18419948
42,4,-0.661477,-0.0841466,9.79047,0.0554938,-0.561844,0.979556,-0.00661909,-0.000849659,0.0979043,1,4.08402e-05,-2.22048e-05,1.47951e-05,0.00816804,-0.00444096,0.00295901,0,0,0,0,0.0783705,0.526501,-0.981068,33.8125,1,51678,18420048
43,1,-0.661477,-0.0841466,9.79047,0.0554938,-0.561844,0.979556,-0.00661909,-0.000849659,0.0979043,1,4.08402e-05,-2.22048e-05,1.47951e-05,0.00816804,-0.00444096,0.00295901,0,0,0,0,0.0783705,0.526501,-0.981068,33.8125,1,51678,18420048
43,2,-0.677327,-0.0826332,9.79329,0.0343011,-0.565153,0.98635,-0.00677324,-0.000834518,0.0979328,1,4.01531e-05,-9.3236e-08,2.37077e-05,0.00803061,-1.86472e-05,0.00474155,0,0,0,0,0.0751247,0.522103,-0.97913,33.8125,1,51679,18420148
43,3,-0.677327,-0.0826332,9.79329,0.0343011,-0.565153,0.98635,-0.00677324,-0.000834518,0.0979328,1,4.01531e-05,-9.3236e-08,2.37077e-05,0.00803061,-1.86472e-05,0.00474155,0,0,0,0,0.0751247,0.522103,-0.97913,33.8125,1,51679,18420148
43,4,-0.664682,-0.08591,9.79047,0.0549844,-0.559521,0.988639,-0.00664928,-0.000866895,0.0979044,1,3.82847e-05,-1.27887e-05,2.24842e-05,0.00765694,-0.00255775,0.00449685,0,0,0,0,0.0772176,0.521482,-0.972588,33.8125,1,51680,18420248
44,1,-0.664682,-0.08591,9.79047,0.0549844,-0.559521,0.988639,-0.00664928,-0.000866895,0.0979044,1,3.82847e-05,-1.27887e-05,2.24842e-05,0.00765694,-0.00255775,0.00449685,0,0,0,0,0.0772176,0.521482,-0.972588,33.8125,1,51680,18420248
44,2,-0.675937,-0.094134,9.78097,0.0420751,-0.570488,0.975482,-0.00676078,-0.000948885,0.0978095,1,3.74614e-05,-7.35391e-06,1.60637e-05,0.00749228,-0.00147078,0.00321273,0,0,0,0,0.0787359,0.524307,-0.967482,33.8125,1,51681,18420348
44,3,-0.675937,-0.094134,9.78097,0.0420751,-0.570488,0.975482,-0.00676078,-0.000948885,0.0978095,1,3.74614e-05,-7.35391e-06,1.60637e-05,0.00749228,-0.00147078,0.00321273,0,0,0,0,0.0787359,0.524307,-0.967482,33.8125,1,51681,18420348
44,4,-0.664338,-0.0875296,9.78808,0.0507653,-0.562375,0.974654,-0.00664612,-0.000885526,0.0978805,1,5.12989e-05,-1.41268e-05,1.4095e-05,0.0102598,-0.00282536,0.002819,0,0,0,0,0.0810314,0.527259,-0.969952,33.8125,1,51682,18420448
45,1,-0.664338,-0.0875296,9.78808,0.0507653,-0.562375,0.974654,-0.00664612,-0.000885526,0.0978805,1,5.12989e-05,-1.41268e-05,1.4095e-05,0.0102598,-0.00282536,0.002819,0,0,0,0,0.0810314,0.527259,-0.969952,33.8125,1,51682,18420448
45,2,-0.674035,-0.0918458,9.79795,0.0436209,-0.575061,0.985743,-0.00674117,-0.000926642,0.0979793,1,4.04381e-05,-4.35285e-06,1.92687e-05,0.00808763,-0.00087057,0.00385374,0,0,0,0,0.081299,0.528374,-0.978009,33.8125,1,51683,18420548
45,3,-0.674035,-0.0918458,9.79795,0.0436209,-0.575061,0.985743,-0.00674117,-0.000926642,0.0979793,1,4.04381e-05,-4.35285e-06,1.92687e-05,0.00808763,-0.00087057,0.00385374,0,0,0,0,0.081299,0.528374,-0.978009,33.8125,1,51683,18420548
45,4,-0.674118,-0.08091,9.79702,0.033943,-0.562923,0.986459,-0.0067445,-0.000818279,0.0979699,1,4.57949e-05,-1.70826e-05,1.53277e-05,0.00915898,-0.00341652,0.00306554,0,0,0,0,0.0778766,0.525069,-0.982612,33.8125,1,51684,18420648
46,1,-0.674118,-0.08091,9.79702,0.033943,-0.562923,0.986459,-0.0067445,-0.000818279,0.0979699,1,4.57949e-05,-1.70826e-05,1.53277e-05,0.00915898,-0.00341652,0.00306554,0,0,0,0,0.0778766,0.525069,-0.982612,33.8125,1,51684,18420648
46,2,-0.66672,-0.0887118,9.78978,0.0493417,-0.571889,0.985953,-0.00666945,-0.00089524,0.0978975,1,3.96648e-05,-1.17574e-05,2.66547e-05,0.00793296,-0.00235147,0.00533094,0,0,0,0,0.0760784,0.521138,-0.980166,33.8125,1,51685,18420748
47,1,-0.66672,-0.0887118,9.78978,0.0493417,-0.571889,0.985953,-0.00666945,-0.00089524,0.0978975,1,3.96648e-05,-1.17574e-05,2.66547e-05,0.00793296,-0.00235147,0.00533094,0,0,0,0,0.0760784,0.521138,-0.980166,33.8125,1,51685,18420748
47,2,-0.656855,-0.0872572,9.79142,0.0647818,-0.568365,0.985692,-0.00656929,-0.000879024,0.0979141,1,3.23505e-05,-3.87965e-06,8.88668e-06,0.00647009,-0.000775929,0.00177734,0,0,0,0,0.0772133,0.521004,-0.973104,33.8125,1,51686,18420848
48,1,-0.656855,-0.0872572,9.79142,0.0647818,-0.568365,0.985692,-0.00656929,-0.000879024,0.0979141,1,3.23505e-05,-3.87965e-06,8.88668e-06,0.00647009,-0.000775929,0.00177734,0,0,0,0,0.0772133,0.521004,-0.973104,33.8125,1,51686,18420848
48,2,-0.6646,-0.0933621,9.78633,0.0563107,-0.572848,0.983477,-0.00664902,-0.00094216,0.0978631,1,4.25186e-05,-1.55642e-05,1.63188e-05,0.00850372,-0.00311284,0.00326376,0,0,0,0,0.0782097,0.524826,-0.968983,33.8125,1,51687,18420948
49,1,-0.6646,-0.0933621,9.78633,0.0563107,-0.572848,0.983477,-0.00664902,-0.00094216,0.0978631,1,4.25186e-05,-1.55642e-05,1.63188e-05,0.00850372,-0.00311284,0.00326376,0,0,0,0,0.0782097,0.524826,-0.968983,33.8125,1,51687,18420948
49,2,-0.683012,-0.0884175,9.78718,0.0321378,-0.563986,0.978383,-0.00683171,-0.000893177,0.0978716,1,4.45451e-05,-8.30762e-06,2.06995e-05,0.00890902,-0.00166152,0.00413991,0,0,0,0,0.0804971,0.528265,-0.971442,33.8125,1,51688,18421048
49,3,-0.683012,-0.0884175,9.78718,0.0321378,-0.563986,0.978383,-0.00683171,-0.000893177,0.0978716,1,4.45451e-05,-8.30762e-06,2.06995e-05,0.00890902,-0.00166152,0.00413991,0,0,0,0,0.0804971,0.528265,-0.971442,33.8125,1,51688,18421048
49,4,-0.660908,-0.0829044,9.79013,0.0555296,-0.56806,0.973767,-0.00661071,-0.000840472,0.0979011,1,5.65668e-05,-8.5676e-06,2.66264e-05,0.0113134,-0.00171352,0.00532528,0,0,0,0,0.081735,0.528885,-0.979515,33.8125,1,51689,18421148
50,1,-0.660908,-0.0829044,9.79013,0.0555296,-0.56806,0.973767,-0.00661071,-0.000840472,0.0979011,1,5.65668e-05,-8.5676e-06,2.66264e-05,0.0113134,-0.00171352,0.00532528,0,0,0,0,0.081735,0.528885,-0.979515,33.8125,1,51689,18421148
50,2,-0.671932,-0.0863039,9.78237,0.0464262,-0.57485,0.971793,-0.0067195,-0.000869576,0.0978236,1,3.20748e-05,-1.10466e-06,1.94758e-05,0.00641495,-0.000220933,0.00389516,0,0,0,0,0.0802656,0.524579,-0.983644,33.8125,1,51690,18421248
50,3,-0.671932,-0.0863039,9.78237,0.0464262,-0.57485,0.971793,-0.0067195,-0.000869576,0.0978236,1,3.20748e-05,-1.10466e-06,1.94758e-05,0.00641495,-0.000220933,0.00389516,0,0,0,0,0.0802656,0.524579,-0.983644,33.8125,1,51690,18421248
50,4,-0.662724,-0.0854126,9.78876,0.0474343,-0.573505,0.981995,-0.00662759,-0.000862984,0.0978875,1,4.33474e-05,-2.04311e-06,2.80218e-05,0.00866948,-0.000408621,0.00560437,0,0,0,0,0.07563,0.520636,-0.979165,33.8125,1,51691,18421348
51,1,-0.662724,-0.0854126,9.78876,0.0474343,-0.573505,0.981995,-0.00662759,-0.000862984,0.0978875,1,4.33474e-05,-2.04311e-06,2.80218e-05,0.00866948,-0.000408621,0.00560437,0,0,0,0,0.07563,0.520636,-0.979165,33.8125,1,51691,18421348
51,2,-0.675144,-0.0883671,9.79255,0.0374955,-0.572462,0.98659,-0.00675287,-0.00089324,0.0979253,1,4.77583e-05,-7.44692e-06,1.59572e-05,0.00955165,-0.00148938,0.00319143,0,0,0,0,0.0758317,0.520971,-0.970573,33.8125,1,51692,18421448
52,1,-0.675144,-0.0883671,9.79255,0.0374955,-0.572462,0.98659,-0.00675287,-0.00089324,0.0979253,1,4.77583e-05,-7.44692e-06,1.59572e-05,0.00955165,-0.00148938,0.00319143,0,0,0,0,0.0758317,0.520971,-0.970573,33.8125,1,51692,18421448
52,2,-0.661366,-0.0800994,9.78099,0.0539119,-0.561814,0.969748,-0.00661626,-0.000807161,0.0978097,1,3.02214e-05,-1.34091e-05,1.93046e-05,0.00604428,-0.00268182,0.00386092,0,0,0,0,0.078222,0.524817,-0.968478,33.8125,1,51693,18421548
52,3,-0.661366,-0.0800994,9.78099,0.0539119,-0.561814,0.969748,-0.00661626,-0.000807161,0.0978097,1,3.02214e-05,-1.34091e-05,1.93046e-05,0.00604428,-0.00268182,0.00386092,0,0,0,0,0.078222,0.524817,-0.968478,33.8125,1,51693,18421548
52,4,-0.675984,-0.078086,9.79265,0.0382514,-0.565292,0.98193,-0.0067597,-0.00079013,0.0979264,1,4.57541e-05,5.10737e-07,2.28042e-05,0.00915082,0.000102147,0.00456083,0,0,0,0,0.0824211,0.526804,-0.972494,33.8125,1,51694,18421648
53,1,-0.675984,-0.078086,9.79265,0.0382514,-0.565292,0.98193,-0.0067597,-0.00079013,0.0979264,1,4.57541e-05,5.10737e-07,2.28042e-05,0.00915082,0.000102147,0.00456083,0,0,0,0,0.0824211,0.526804,-0.972494,33.8125,1,51694,18421648
53,2,-0.66338,-0.0768105,9.78715,0.0505826,-0.566307,0.970534,-0.00663656,-0.000773559,0.0978713,1,2.59595e-05,-1.43649e-05,2.80627e-05,0.0051919,-0.00287299,0.00561254,0,0,0,0,0.0822403,0.527418,-0.97955,33.8125,1,51695,18421748
54,1,-0.66338,-0.0768105,9.78715,0.0505826,-0.566307,0.970534,-0.00663656,-0.000773559,0.0978713,1,2.59595e-05,-1.43649e-05,2.80627e-05,0.0051919,-0.00287299,0.00561254,0,0,0,0,0.0822403,0.527418,-0.97955,33.8125,1,51695,18421748
54,2,-0.666183,-0.0896375,9.79012,0.0427466,-0.583662,0.981435,-0.00666506,-0.000904896,0.0979009,1,4.31836e-05,-1.65647e-05,4.93574e-06,0.00863671,-0.00331293,0.000987147,0,0,0,0,0.0802822,0.525049,-0.982624,33.8125,1,51696,18421848
54,3,-0.666183,-0.0896375,9.79012,0.0427466,-0.583662,0.981435,-0.00666506,-0.000904896,0.0979009,1,4.31836e-05,-1.65647e-05,4.93574e-06,0.00863671,-0.00331293,0.000987147,0,0,0,0,0.0802822,0.525049,-0.982624,33.8125,1,51696,18421848
54,4,-0.660307,-0.0791798,9.79118,0.0511556,-0.570279,0.983203,-0.00660373,-0.00079758,0.0979117,1,2.85841e-05,-3.45546e-06,1.3992e-05,0.00571683,-0.000691092,0.00279841,0,0,0,0,0.0774937,0.523556,-0.979614,33.8125,1,51697,18421948
55,1,-0.660307,-0.0791798,9.79118,0.0511556,-0.570279,0.983203,-0.00660373,-0.00079758,0.0979117,1,2.85841e-05,-3.45546e-06,1.3992e-05,0.00571683,-0.000691092,0.00279841,0,0,0,0,0.0774937,0.523556,-0.979614,33.8125,1,51697,18421948
55,2,-0.667367,-0.0850639,9.7966,0.0427105,-0.571237,0.992116,-0.00667536,-0.00085785,0.0979658,1,3.61446e-05,-8.70622e-06,9.6765e-06,0.00722891,-0.00174124,0.0019353,0,0,0,0,0.0752851,0.521986,-0.972568,33.8125,1,51698,18422048
55,3,-0.667367,-0.0850639,9.7966,0.0427105,-0.571237,0.992116,-0.00667536,-0.00085785,0.0979658,1,3.61446e-05,-8.70622e-06,9.6765e-06,0.00722891,-0.00174124,0.0019353,0,0,0,0,0.0752851,0.521986,-0.972568,33.8125,1,51698,18422048
55,4,-0.67109,-0.0827306,9.79936,0.0422839,-0.576678,0.994576,-0.00671264,-0.000834244,0.0979934,1,3.36208e-05,-9.13248e-06,2.59578e-05,0.00672415,-0.0018265,0.00519157,0,0,0,0,0.0782752,0.523814,-0.966985,33.8125,1,51699,18422148
56,1,-0.67109,-0.0827306,9.79936,0.0422839,-0.576678,0.994576,-0.00671264,-0.000834244,0.0979934,1,3.36208e-05,-9.13248e-06,2.59578e-05,0.00672415,-0.0018265,0.00519157,0,0,0,0,0.0782752,0.523814,-0.966985,33.8125,1,51699,18422148
56,2,-0.666099,-0.0766294,9.79157,0.0528,-0.567205,0.977892,-0.00666366,-0.00077474,0.0979155,1,4.14419e-05,-1.38374e-05,2.47531e-05,0.00828837,-0.00276749,0.00495061,0,0,0,0,0.0814347,0.528275,-0.972456,33.8125,1,51700,18422248
56,3,-0.666099,-0.0766294,9.79157,0.0528,-0.567205,0.977892,-0.00666366,-0.00077474,0.0979155,1,4.14419e-05,-1.38374e-05,2.47531e-05,0.00828837,-0.00276749,0.00495061,0,0,0,0,0.0814347,0.528275,-0.972456,33.8125,1,51700,18422248
56,4,-0.676237,-0.0920193,9.79151,0.0345715,-0.587824,0.972789,-0.0067636,-0.000930941,0.0979149,1,5.34318e-05,-6.46291e-06,2.10295e-05,0.0106864,-0.00129258,0.0042059,0,0,0,0,0.0806788,0.530889,-0.981991,33.8125,1,51701,18422348
57,1,-0.676237,-0.0920193,9.79151,0.0345715,-0.587824,0.972789,-0.0067636,-0.000930941,0.0979149,1,5.34318e-05,-6.46291e-06,2.10295e-05,0.0106864,-0.00129258,0.0042059,0,0,0,0,0.0806788,0.530889,-0.981991,33.8125,1,51701,18422348
57,2,-0.673441,-0.0882495,9.80136,0.040722,-0.590263,0.993172,-0.00673512,-0.000893793,0.0980134,1,5.65537e-05,-3.74737e-06,1.57077e-05,0.0113107,-0.000749474,0.00314153,0,0,0,0,0.0788028,0.527979,-0.982047,33.8125,1,51702,18422448
57,3,-0.673441,-0.0882495,9.80136,0.040722,-0.590263,0.993172,-0.00673512,-0.000893793,0.0980134,1,5.65537e-05,-3.74737e-06,1.57077e-05,0.0113107,-0.000749474,0.00314153,0,0,0,0,0.0788028,0.527979,-0.982047,33.8125,1,51702,18422448
57,4,-0.681199,-0.0850037,9.79263,0.0345114,-0.583436,0.990295,-0.00681544,-0.000858021,0.097926,1,3.9447e-05,-1.7781e-05,1.89356e-05,0.00788941,-0.0035562,0.00378712,0,0,0,0,0.0756063,0.523545,-0.97809,33.8125,1,51703,18422548
58,1,-0.681199,-0.0850037,9.79263,0.0345114,-0.583436,0.990295,-0.00681544,-0.000858021,0.097926,1,3.9447e-05,-1.7781e-05,1.89356e-05,0.00788941,-0.0035562,0.00378712,0,0,0,0,0.0756063,0.523545,-0.97809,33.8125,1,51703,18422548
58,2,-0.671184,-0.0930373,9.79485,0.0427238,-0.588087,0.990169,-0.00671083,-0.000940968,0.0979485,1,5.28507e-05,5.02737e-06,1.80659e-05,0.0105701,0.00100547,0.00361319,0,0,0,0,0.0748163,0.521981,-0.972061,33.8125,1,51704,18422648
58,3,-0.671184,-0.0930373,9.79485,0.0427238,-0.588087,0.990169,-0.00671083,-0.000940968,0.0979485,1,5.28507e-05,5.02737e-06,1.80659e-05,0.0105701,0.00100547,0.00361319,0,0,0,0,0.0748163,0.521981,-0.972061,33.8125,1,51704,18422648
58,4,-0.669438,-0.083016,9.79459,0.046532,-0.578396,0.982394,-0.00669625,-0.000836682,0.0979457,1,3.21156e-05,-9.65986e-06,1.72072e-05,0.00642312,-0.00193197,0.00344145,0,0,0,0,0.0772802,0.524328,-0.967979,33.8125,1,51705,18422748
59,1,-0.669438,-0.083016,9.79459,0.046532,-0.578396,0.982394,-0.00669625,-0.000836682,0.0979457,1,3.21156e-05,-9.65986e-06,1.72072e-05,0.00642312,-0.00193197,0.00344145,0,0,0,0,0.0772802,0.524328,-0.967979,33.8125,1,51705,18422748
59,2,-0.665948,-0.0903594,9.78569,0.0474398,-0.585254,0.97242,-0.00666253,-0.000910484,0.0978567,1,3.33711e-05,-1.5838e-05,2.69768e-05,0.00667422,-0.00316761,0.00539535,0,0,0,0,0.0809497,0.529246,-0.971928,33.8125,1,51706,18422848
59,3,-0.665948,-0.0903594,9.78569,0.0474398,-0.585254,0.97242,-0.00666253,-0.000910484,0.0978567,1,3.33711e-05,-1.5838e-05,2.69768e-05,0.00667422,-0.00316761,0.00539535,0,0,0,0,0.0809497,0.529246,-0.971928,33.8125,1,51706,18422848
59,4,-0.68631,-0.0909303,9.7943,0.0268252,-0.585824,0.980786,-0.00686401,-0.00091814,0.0979429,1,4.35302e-05,-4.83336e-06,2.26159e-05,0.00870604,-0.000966672,0.00452318,0,0,0,0,0.0821919,0.530344,-0.979485,33.8125,1,51707,18422948
60,1,-0.68631,-0.0909303,9.7943,0.0268252,-0.585824,0.980786,-0.00686401,-0.00091814,0.0979429,1,4.35302e-05,-4.83336e-06,2.26159e-05,0.00870604,-0.000966672,0.00452318,0,0,0,0,0.0821919,0.530344,-0.979485,33.8125,1,51707,18422948
60,2,-0.668983,-0.0828542,9.79223,0.0379687,-0.585381,0.977979,-0.00669341,-0.000837103,0.097922,1,4.28762e-05,-1.8377e-05,1.22078e-05,0.00857523,-0.0036754,0.00244156,0,0,0,0,0.0788222,0.524591,-0.983638,33.8125,1,51708,18423048
61,1,-0.668983,-0.0828542,9.79223,0.0379687,-0.585381,0.977979,-0.00669341,-0.000837103,0.097922,1,4.28762e-05,-1.8377e-05,1.22078e-05,0.00857523,-0.0036754,0.00244156,0,0,0,0,0.0788222,0.524591,-0.983638,33.8125,1,51708,18423048
61,2,-0.661197,-0.0855194,9.79181,0.0531146,-0.591589,0.987728,-0.00661452,-0.000863709,0.0979179,1,4.24795e-05,-1.31392e-05,1.47856e-05,0.0084959,-0.00262784,0.00295713,0,0,0,0,0.0751328,0.521616,-0.979141,33.8125,1,51709,18423148
61,3,-0.661197,-0.0855194,9.79181,0.0531146,-0.591589,0.987728,-0.00661452,-0.000863709,0.0979179,1,4.24795e-05,-1.31392e-05,1.47856e-05,0.0084959,-0.00262784,0.00295713,0,0,0,0,0.0751328,0.521616,-0.979141,33.8125,1,51709,18423148
61,4,-0.664555,-0.0897536,9.7884,0.0504147,-0.590598,0.986079,-0.00664833,-0.000905502,0.0978838,1,3.97488e-05,-1.42867e-05,1.38802e-05,0.00794977,-0.00285735,0.00277604,0,0,0,0,0.0748452,0.522442,-0.970535,33.8125,1,51710,18423248
62,1,-0.664555,-0.0897536,9.7884,0.0504147,-0.590598,0.986079,-0.00664833,-0.000905502,0.0978838,1,3.97488e-05,-1.42867e-05,1.38802e-05,0.00794977,-0.00285735,0.00277604,0,0,0,0,0.0748452,0.522442,-0.970535,33.8125,1,51710,18423248
62,2,-0.659196,-0.0911843,9.7931,0.055206,-0.589797,0.982582,-0.00659294,-0.000922777,0.0979308,1,5.45792e-05,-5.15396e-06,1.84738e-05,0.0109158,-0.00103079,0.00369476,0,0,0,0,0.0772602,0.52627,-0.967431,33.8125,1,51711,18423348
62,3,-0.659196,-0.0911843,9.7931,0.055206,-0.589797,0.982582,-0.00659294,-0.000922777,0.0979308,1,5.45792e-05,-5.15396e-06,1.84738e-05,0.0109158,-0.00103079,0.00369476,0,0,0,0,0.0772602,0.52627,-0.967431,33.8125,1,51711,18423348
62,4,-0.672378,-0.0897301,9.79558,0.0428155,-0.589273,0.979607,-0.0067262,-0.000907023,0.0979555,1,4.87082e-05,-1.24405e-05,1.33757e-05,0.00974164,-0.00248811,0.00267514,0,0,0,0,0.0824012,0.528746,-0.971945,33.8125,1,51712,18423448
63,1,-0.672378,-0.0897301,9.79558,0.0428155,-0.589273,0.979607,-0.0067262,-0.000907023,0.0979555,1,4.87082e-05,-1.24405e-05,1.33757e-05,0.00974164,-0.00248811,0.00267514,0,0,0,0,0.0824012,0.528746,-0.971945,33.8125,1,51712,18423448
63,2,-0.673547,-0.0907829,9.78641,0.0377317,-0.592126,0.969166,-0.00673661,-0.000915732,0.0978639,1,3.81953e-05,-6.12257e-06,3.16986e-05,0.00763906,-0.00122451,0.00633972,0,0,0,0,0.082171,0.529396,-0.981021,33.8125,1,51713,18423548
64,1,-0.673547,-0.0907829,9.78641,0.0377317,-0.592126,0.969166,-0.00673661,-0.000915732,0.0978639,1,3.81953e-05,-6.12257e-06,3.16986e-05,0.00763906,-0.00122451,0.00633972,0,0,0,0,0.082171,0.529396,-0.981021,33.8125,1,51713,18423548
64,2,-0.664902,-0.0883528,9.78469,0.0400961,-0.593607,0.974519,-0.00665208,-0.000891579,0.0978466,1,4.03543e-05,-1.57188e-05,1.15816e-05,0.00807085,-0.00314376,0.00231632,0,0,0,0,0.0787615,0.527527,-0.984077,33.8125,1,51714,18423648
64,3,-0.664902,-0.0883528,9.78469,0.0400961,-0.593607,0.974519,-0.00665208,-0.000891579,0.0978466,1,4.03543e-05,-1.57188e-05,1.15816e-05,0.00807085,-0.00314376,0.00231632,0,0,0,0,0.0787615,0.527527,-0.984077,33.8125,1,51714,18423648
64,4,-0.666305,-0.0842212,9.79117,0.038551,-0.593554,0.988097,-0.00666551,-0.000851961,0.0979115,1,4.73541e-05,-1.28747e-05,3.57011e-05,0.00947083,-0.00257495,0.00714022,0,0,0,0,0.0760461,0.523089,-0.980123,33.8125,1,51715,18423748
65,1,-0.666305,-0.0842212,9.79117,0.038551,-0.593554,0.988097,-0.00666551,-0.000851961,0.0979115,1,4.73541e-05,-1.28747e-05,3.57011e-05,0.00947083,-0.00257495,0.00714022,0,0,0,0,0.0760461,0.523089,-0.980123,33.8125,1,51715,18423748
65,2,-0.671987,-0.0861141,9.80104,0.0381855,-0.592369,0.997629,-0.00672214,-0.000868025,0.0980102,1,3.36619e-05,-1.1781e-05,2.12787e-05,0.00673238,-0.0023562,0.00425573,0,0,0,0,0.0753055,0.521489,-0.972074,33.8125,1,51716,18423848
66,1,-0.671987,-0.0861141,9.80104,0.0381855,-0.592369,0.997629,-0.00672214,-0.000868025,0.0980102,1,3.36619e-05,-1.1781e-05,2.12787e-05,0.00673238,-0.0023562,0.00425573,0,0,0,0,0.0753055,0.521489,-0.972074,33.8125,1,51716,18423848
66,2,-0.671449,-0.0860537,9.80475,0.04476,-0.588859,0.995787,-0.00671322,-0.00086829,0.0980476,1,3.83258e-05,6.3071e-06,1.77042e-05,0.00766517,0.00126142,0.00354084,0,0,0,0,0.0781978,0.52628,-0.968445,33.8125,1,51717,18423948
67,1,-0.671449,-0.0860537,9.80475,0.04476,-0.588859,0.995787,-0.00671322,-0.00086829,0.0980476,1,3.83258e-05,6.3071e-06,1.77042e-05,0.00766517,0.00126142,0.00354084,0,0,0,0,0.0781978,0.52628,-0.968445,33.8125,1,51717,18423948
67,2,-0.66597,-0.0834583,9.78169,0.0434581,-0.588182,0.965656,-0.00666353,-0.00084277,0.0978165,1,4.04249e-05,-1.97312e-05,2.09546e-05,0.00808499,-0.00394624,0.00419093,0,0,0,0,0.0818626,0.529274,-0.973951,33.8125,1,51718,18424048
68,1,-0.66597,-0.0834583,9.78169,0.0434581,-0.588182,0.965656,-0.00666353,-0.00084277,0.0978165,1,4.04249e-05,-1.97312e-05,2.09546e-05,0.00808499,-0.00394624,0.00419093,0,0,0,0,0.0818626,0.529274,-0.973951,33.8125,1,51718,18424048
68,2,-0.662409,-0.0945012,9.79311,0.0488278,-0.607244,0.974987,-0.00662776,-0.000952751,0.0979307,1,3.87394e-05,-1.88871e-05,1.1483e-05,0.00774787,-0.00377742,0.00229661,0,0,0,0,0.0812126,0.528437,-0.981543,33.8125,1,51719,18424148
68,3,-0.662409,-0.0945012,9.79311,0.0488278,-0.607244,0.974987,-0.00662776,-0.000952751,0.0979307,1,3.87394e-05,-1.88871e-05,1.1483e-05,0.00774787,-0.00377742,0.00229661,0,0,0,0,0.0812126,0.528437,-0.981543,33.8125,1,51719,18424148
68,4,-0.67486,-0.0835262,9.78479,0.0298242,-0.594142,0.976272,-0.00675129,-0.000844095,0.0978477,1,4.38634e-05,-1.38714e-05,1.84607e-05,0.00877267,-0.00277428,0.00369213,0,0,0,0,0.0802661,0.526025,-0.982602,33.8125,1,51720,18424248
69,1,-0.67486,-0.0835262,9.78479,0.0298242,-0.594142,0.976272,-0.00675129,-0.000844095,0.0978477,1,4.38634e-05,-1.38714e-05,1.84607e-05,0.00877267,-0.00277428,0.00369213,0,0,0,0,0.0802661,0.526025,-0.982602,33.8125,1,51720,18424248
69,2,-0.669955,-0.0937274,9.7901,0.0410137,-0.603676,0.985327,-0.00670331,-0.000947346,0.0979007,1,5.02076e-05,-1.94068e-05,1.79859e-05,0.0100415,-0.00388136,0.00359717,0,0,0,0,0.0765932,0.523519,-0.977085,33.8125,1,51721,18424348
69,3,-0.669955,-0.0937274,9.7901,0.0410137,-0.603676,0.985327,-0.00670331,-0.000947346,0.0979007,1,5.02076e-05,-1.94068e-05,1.79859e-05,0.0100415,-0.00388136,0.00359717,0,0,0,0,0.0765932,0.523519,-0.977085,33.8125,1,51721,18424348
69,4,-0.66939,-0.0795047,9.7909,0.0428971,-0.58685,0.985992,-0.00669638,-0.000801663,0.0979088,1,3.24062e-05,-1.28319e-05,2.02022e-05,0.00648125,-0.00256638,0.00404044,0,0,0,0,0.0757832,0.523897,-0.970507,33.8125,1,51722,18424448
70,1,-0.66939,-0.0795047,9.7909,0.0428971,-0.58685,0.985992,-0.00669638,-0.000801663,0.0979088,1,3.24062e-05,-1.28319e-05,2.02022e-05,0.00648125,-0.00256638,0.00404044,0,0,0,0,0.0757832,0.523897,-0.970507,33.8125,1,51722,18424448
70,2,-0.665415,-0.0748515,9.80176,0.0441247,-0.585597,0.99455,-0.00665382,-0.000755155,0.0980176,1,3.25983e-05,1.57167e-06,1.87418e-05,0.00651966,0.000314333,0.00374837,0,0,0,0,0.0790988,0.527762,-0.969932,33.8125,1,51723,18424548
70,3,-0.665415,-0.0748515,9.80176,0.0441247,-0.585597,0.99455,-0.00665382,-0.000755155,0.0980176,1,3.25983e-05,1.57167e-06,1.87418e-05,0.00651966,0.000314333,0.00374837,0,0,0,0,0.0790988,0.527762,-0.969932,33.8125,1,51723,18424548
70,4,-0.673352,-0.0914131,9.79252,0.0401922,-0.599639,0.976448,-0.00673633,-0.000922507,0.097925,1,4.11925e-05,-1.45527e-05,2.28788e-05,0.00823849,-0.00291055,0.00457576,0,0,0,0,0.0823437,0.52927,-0.973954,33.8125,1,51724,18424648
71,1,-0.673352,-0.0914131,9.79252,0.0401922,-0.599639,0.976448,-0.00673633,-0.000922507,0.097925,1,4.11925e-05,-1.45527e-05,2.28788e-05,0.00823849,-0.00291055,0.00457576,0,0,0,0,0.0823437,0.52927,-0.973954,33.8125,1,51724,18424648
71,2,-0.674716,-0.0885665,9.8068,0.0342356,-0.604723,0.992684,-0.00674948,-0.000893536,0.0980677,1,3.80016e-05,-1.2111e-05,3.09107e-05,0.00760032,-0.0024222,0.00618214,0,0,0,0,0.0826972,0.528877,-0.97952,33.8125,1,51725,18424748
72,1,-0.674716,-0.0885665,9.8068,0.0342356,-0.604723,0.992684,-0.00674948,-0.000893536,0.0980677,1,3.80016e-05,-1.2111e-05,3.09107e-05,0.00760032,-0.0024222,0.00618214,0,0,0,0,0.0826972,0.528877,-0.97952,33.8125,1,51725,18424748
72,2,-0.665694,-0.0868049,9.79623,0.0401537,-0.597088,0.982096,-0.00665755,-0.000878265,0.0979622,1,5.1083e-05,-3.22432e-06,1.55606e-05,0.0102166,-0.000644863,0.00311212,0,0,0,0,0.0798504,0.525017,-0.980603,33.8125,1,51726,18424848
73,1,-0.665694,-0.0868049,9.79623,0.0401537,-0.597088,0.982096,-0.00665755,-0.000878265,0.0979622,1,5.1083e-05,-3.22432e-06,1.55606e-05,0.0102166,-0.000644863,0.00311212,0,0,0,0,0.0798504,0.525017,-0.980603,33.8125,1,51726,18424848
73,2,-0.658186,-0.0833109,9.79282,0.0482444,-0.594973,0.981745,-0.00658442,-0.00084326,0.097928,1,5.15039e-05,-1.31208e-05,4.84497e-06,0.0103008,-0.00262416,0.000968995,0,0,0,0,0.0761648,0.521075,-0.976633,33.8125,1,51727,18424948
74,1,-0.658186,-0.0833109,9.79282,0.0482444,-0.594973,0.981745,-0.00658442,-0.00084326,0.097928,1,5.15039e-05,-1.31208e-05,4.84497e-06,0.0103008,-0.00262416,0.000968995,0,0,0,0,0.0761648,0.521075,-0.976633,33.8125,1,51727,18424948
74,2,-0.682361,-0.0914428,9.78782,0.0239511,-0.602899,0.983396,-0.00682505,-0.000924861,0.097878,1,5.24036e-05,-7.46935e-06,1.28375e-05,0.0104807,-0.00149387,0.0025675,0,0,0,0,0.0768186,0.520945,-0.969568,33.8125,1,51728,18425048
74,3,-0.682361,-0.0914428,9.78782,0.0239511,-0.602899,0.983396,-0.00682505,-0.000924861,0.097878,1,5.24036e-05,-7.46935e-06,1.28375e-05,0.0104807,-0.00149387,0.0025675,0,0,0,0,0.0768186,0.520945,-0.969568,33.8125,1,51728,18425048
74,4,-0.659576,-0.0882421,9.78566,0.048311,-0.59658,0.972468,-0.00659784,-0.000889726,0.0978564,1,3.62991e-05,-1.07681e-05,1.52216e-05,0.00725982,-0.00215362,0.00304432,0,0,0,0,0.0796696,0.525283,-0.967969,33.8125,1,51729,18425148
75,1,-0.659576,-0.0882421,9.78566,0.048311,-0.59658,0.972468,-0.00659784,-0.000889726,0.0978564,1,3.62991e-05,-1.07681e-05,1.52216e-05,0.00725982,-0.00215362,0.00304432,0,0,0,0,0.0796696,0.525283,-0.967969,33.8125,1,51729,18425148
75,2,-0.665222,-0.0897628,9.79214,0.0418936,-0.601733,0.975189,-0.00665456,-0.00090649,0.0979212,1,4.45974e-05,-1.20511e-05,9.62402e-06,0.00891948,-0.00241023,0.0019248,0,0,0,0,0.0809535,0.528279,-0.972454,33.8125,1,51730,18425248
75,3,-0.665222,-0.0897628,9.79214,0.0418936,-0.601733,0.975189,-0.00665456,-0.00090649,0.0979212,1,4.45974e-05,-1.20511e-05,9.62402e-06,0.00891948,-0.00241023,0.0019248,0,0,0,0,0.0809535,0.528279,-0.972454,33.8125,1,51730,18425248
75,4,-0.6738,-0.0860923,9.78782,0.0373071,-0.600256,0.965404,-0.00674142,-0.000872195,0.0978779,1,5.61681e-05,-1.76724e-05,2.05155e-05,0.0112336,-0.00353448,0.0041031,0,0,0,0,0.0807927,0.526951,-0.980059,33.8125,1,51731,18425348
76,1,-0.6738,-0.0860923,9.78782,0.0373071,-0.600256,0.965404,-0.00674142,-0.000872195,0.0978779,1,5.61681e-05,-1.76724e-05,2.05155e-05,0.0112336,-0.00353448,0.0041031,0,0,0,0,0.0807927,0.526951,-0.980059,33.8125,1,51731,18425348
76,2,-0.671841,-0.0730486,9.78792,0.0311633,-0.589831,0.975421,-0.00672239,-0.000737769,0.0978789,1,3.68117e-05,-2.03285e-05,5.73694e-06,0.00736234,-0.0040657,0.00114739,0,0,0,0,0.0783905,0.524559,-0.981616,33.8125,1,51732,18425448
76,3,-0.671841,-0.0730486,9.78792,0.0311633,-0.589831,0.975421,-0.00672239,-0.000737769,0.0978789,1,3.68117e-05,-2.03285e-05,5.73694e-06,0.00736234,-0.0040657,0.00114739,0,0,0,0,0.0783905,0.524559,-0.981616,33.8125,1,51732,18425448
76,4,-0.674172,-0.0885874,9.78033,0.0324489,-0.605497,0.974885,-0.006744,-0.00089421,0.0978031,1,4.20697e-05,-1.17196e-05,7.92368e-06,0.00841395,-0.00234393,0.00158474,0,0,0,0,0.0761239,0.522068,-0.97762,33.8125,1,51733,18425548
77,1,-0.674172,-0.0885874,9.78033,0.0324489,-0.605497,0.974885,-0.006744,-0.00089421,0.0978031,1,4.20697e-05,-1.17196e-05,7.92368e-06,0.00841395,-0.00234393,0.00158474,0,0,0,0,0.0761239,0.522068,-0.97762,33.8125,1,51733,18425548
77,2,-0.674165,-0.080772,9.79363,0.0382972,-0.593375,0.983619,-0.00674309,-0.000818157,0.0979361,1,5.18803e-05,-7.5196e-06,2.04331e-05,0.0103761,-0.00150392,0.00408661,0,0,0,0,0.0767858,0.52145,-0.970566,33.8125,1,51734,18425648
77,3,-0.674165,-0.080772,9.79363,0.0382972,-0.593375,0.983619,-0.00674309,-0.000818157,0.0979361,1,5.18803e-05,-7.5196e-06,2.04331e-05,0.0103761,-0.00150392,0.00408661,0,0,0,0,0.0767858,0.52145,-0.970566,33.8125,1,51734,18425648
77,4,-0.657188,-0.0864246,9.78261,0.0532891,-0.600204,0.969212,-0.00657402,-0.000871622,0.0978259,1,3.65619e-05,-1.10826e-05,1.69296e-05,0.00731238,-0.00221651,0.00338592,0,0,0,0,0.0787198,0.525282,-0.96746,33.8125,1,51735,18425748
78,1,-0.657188,-0.0864246,9.78261,0.0532891,-0.600204,0.969212,-0.00657402,-0.000871622,0.0978259,1,3.65619e-05,-1.10826e-05,1.69296e-05,0.00731238,-0.00221651,0.00338592,0,0,0,0,0.0787198,0.525282,-0.96746,33.8125,1,51735,18425748
78,2,-0.677556,-0.0845478,9.79261,0.0341992,-0.60008,0.979335,-0.00677651,-0.000855385,0.0979259,1,4.90678e-05,-5.03857e-06,2.1938e-05,0.00981355,-0.00100771,0.0043876,0,0,0,0,0.0828742,0.52923,-0.971937,33.8125,1,51736,18425848
79,1,-0.677556,-0.0845478,9.79261,0.0341992,-0.60008,0.979335,-0.00677651,-0.000855385,0.0979259,1,4.90678e-05,-5.03857e-06,2.1938e-05,0.00981355,-0.00100771,0.0043876,0,0,0,0,0.0828742,0.52923,-0.971937,33.8125,1,51736,18425848
79,2,-0.665617,-0.08267,9.79424,0.035978,-0.596684,0.975878,-0.0066601,-0.000833406,0.0979421,1,3.38387e-05,-2.01147e-05,5.83753e-06,0.00676773,-0.00402295,0.00116751,0,0,0,0,0.0821876,0.529866,-0.98,33.8125,1,51737,18425948
79,3,-0.665617,-0.08267,9.79424,0.035978,-0.596684,0.975878,-0.0066601,-0.000833406,0.0979421,1,3.38387e-05,-2.01147e-05,5.83753e-06,0.00676773,-0.00402295,0.00116751,0,0,0,0,0.0821876,0.529866,-0.98,33.8125,1,51737,18425948
79,4,-0.678837,-0.0938646,9.79253,0.0235825,-0.615904,0.979784,-0.00679058,-0.00094759,0.0979251,1,4.44539e-05,-1.14328e-05,1.74921e-05,0.00889078,-0.00228656,0.00349843,0,0,0,0,0.0802784,0.526016,-0.982098,33.8125,1,51738,18426048
80,1,-0.678837,-0.0938646,9.79253,0.0235825,-0.615904,0.979784,-0.00679058,-0.00094759,0.0979251,1,4.44539e-05,-1.14328e-05,1.74921e-05,0.00889078,-0.00228656,0.00349843,0,0,0,0,0.0802784,0.526016,-0.982098,33.8125,1,51738,18426048
80,2,-0.666876,-0.0807632,9.79563,0.0380769,-0.603727,0.987465,-0.00667443,-0.000817461,0.0979558,1,4.84378e-05,-2.9158e-05,2.54421e-05,0.00968757,-0.0058316,0.00508841,0,0,0,0,0.0761239,0.522068,-0.97762,33.8125,1,51739,18426148
80,3,-0.666876,-0.0807632,9.79563,0.0380769,-0.603727,0.987465,-0.00667443,-0.000817461,0.0979558,1,4.84378e-05,-2.9158e-05,2.54421e-05,0.00968757,-0.0058316,0.00508841,0,0,0,0,0.0761239,0.522068,-0.97762,33.8125,1,51739,18426148
80,4,-0.673467,-0.0948672,9.7952,0.0331206,-0.611264,0.988463,-0.00673649,-0.000956653,0.0979518,1,3.9581e-05,-9.43993e-06,1.67847e-05,0.0079162,-0.00188799,0.00335693,0,0,0,0,0.0749268,0.520455,-0.96856,33.8125,1,51740,18426248
81,1,-0.673467,-0.0948672,9.7952,0.0331206,-0.611264,0.988463,-0.00673649,-0.000956653,0.0979518,1,3.9581e-05,-9.43993e-06,1.67847e-05,0.0079162,-0.00188799,0.00335693,0,0,0,0,0.0749268,0.520455,-0.96856,33.8125,1,51740,18426248
81,2,-0.672354,-0.0893291,9.78745,0.0338725,-0.605418,0.974776,-0.00672794,-0.000901597,0.0978741,1,4.14494e-05,-2.25995e-05,1.43108e-05,0.00828988,-0.0045199,0.00286216,0,0,0,0,0.0787235,0.524316,-0.967986,33.8125,1,51741,18426348
81,3,-0.672354,-0.0893291,9.78745,0.0338725,-0.605418,0.974776,-0.00672794,-0.000901597,0.0978741,1,4.14494e-05,-2.25995e-05,1.43108e-05,0.00828988,-0.0045199,0.00286216,0,0,0,0,0.0787235,0.524316,-0.967986,33.8125,1,51741,18426348
81,4,-0.66744,-0.091269,9.78705,0.045122,-0.611473,0.966349,-0.00667388,-0.000922815,0.0978704,1,5.07906e-05,2.52596e-06,1.37071e-05,0.0101581,0.000505193,0.00274142,0,0,0,0,0.0813811,0.527833,-0.974991,33.8125,1,51742,18426448
82,1,-0.66744,-0.091269,9.78705,0.045122,-0.611473,0.966349,-0.00667388,-0.000922815,0.0978704,1,5.07906e-05,2.52596e-06,1.37071e-05,0.0101581,0.000505193,0.00274142,0,0,0,0,0.0813811,0.527833,-0.974991,33.8125,1,51742,18426448
82,2,-0.67045,-0.0894103,9.7942,0.0371767,-0.60979,0.976867,-0.00670478,-0.000901563,0.0979419,1,3.64948e-05,-1.65426e-06,2.31415e-05,0.00729896,-0.000330853,0.0046283,0,0,0,0,0.0802423,0.528933,-0.981527,33.8125,1,51743,18426548
82,3,-0.67045,-0.0894103,9.7942,0.0371767,-0.60979,0.976867,-0.00670478,-0.000901563,0.0979419,1,3.64948e-05,-1.65426e-06,2.31415e-05,0.00729896,-0.000330853,0.0046283,0,0,0,0,0.0802423,0.528933,-0.981527,33.8125,1,51743,18426548
82,4,-0.662975,-0.0839258,9.79522,0.0423068,-0.607114,0.985963,-0.0066312,-0.000845736,0.0979521,1,3.18661e-05,-7.56959e-06,1.77921e-05,0.00637322,-0.00151392,0.00355842,0,0,0,0,0.0783743,0.525535,-0.981594,33.8125,1,51744,18426648
82,5,-0.662975,-0.0839258,9.79522,0.0423068,-0.607114,0.985963,-0.0066312,-0.000845736,0.0979521,1,3.18661e-05,-7.56959e-06,1.77921e-05,0.00637322,-0.00151392,0.00355842,0,0,0,0,0.0783743,0.525535,-0.981594,33.8125,1,51744,18426648
82,6,-0.664908,-0.0801287,9.79459,0.0451321,-0.601281,0.986987,-0.00665366,-0.000808992,0.0979456,1,3.76215e-05,-2.35625e-05,2.51813e-05,0.00752431,-0.0047125,0.00503627,0,0,0,0,0.0765927,0.522073,-0.978128,33.8125,1,51745,18426748
83,1,-0.664908,-0.0801287,9.79459,0.0451321,-0.601281,0.986987,-0.00665366,-0.000808992,0.0979456,1,3.76215e-05,-2.35625e-05,2.51813e-05,0.00752431,-0.0047125,0.00503627,0,0,0,0,0.0765927,0.522073,-0.978128,33.8125,1,51745,18426748
83,2,-0.664453,-0.0872063,9.78945,0.0409037,-0.607322,0.982977,-0.00664904,-0.000880776,0.0978941,1,4.40144e-05,-2.30538e-05,7.18587e-06,0.00880289,-0.00461075,0.00143717,0,0,0,0,0.0758193,0.52098,-0.971078,33.8125,1,51746,18426848
84,1,-0.664453,-0.0872063,9.78945,0.0409037,-0.607322,0.982977,-0.00664904,-0.000880776,0.0978941,1,4.40144e-05,-2.30538e-05,7.18587e-06,0.00880289,-0.00461075,0.00143717,0,0,0,0,0.0758193,0.52098,-0.971078,33.8125,1,51746,18426848
84,2,-0.67345,-0.0884795,9.7861,0.0326333,-0.6047,0.971622,-0.00673711,-0.000895929,0.0978607,1,5.63711e-05,-1.34053e-05,7.53075e-06,0.0112742,-0.00268105,0.00150615,0,0,0,0,0.0777779,0.524794,-0.966961,33.8125,1,51747,18426948
84,3,-0.67345,-0.0884795,9.7861,0.0326333,-0.6047,0.971622,-0.00673711,-0.000895929,0.0978607,1,5.63711e-05,-1.34053e-05,7.53075e-06,0.0112742,-0.00268105,0.00150615,0,0,0,0,0.0777779,0.524794,-0.966961,33.8125,1,51747,18426948
84,4,-0.664376,-0.0821127,9.79118,0.0427867,-0.606275,0.975475,-0.00664434,-0.000829742,0.0979116,1,4.34183e-05,-3.07871e-06,8.46375e-06,0.00868365,-0.000615743,0.00169275,0,0,0,0,0.0819281,0.528262,-0.971954,33.8125,1,51748,18427048
85,1,-0.664376,-0.0821127,9.79118,0.0427867,-0.606275,0.975475,-0.00664434,-0.000829742,0.0979116,1,4.34183e-05,-3.07871e-06,8.46375e-06,0.00868365,-0.000615743,0.00169275,0,0,0,0,0.0819281,0.528262,-0.971954,33.8125,1,51748,18427048
85,2,-0.666414,-0.0832563,9.79423,0.0431583,-0.61065,0.974497,-0.00666515,-0.000840647,0.0979422,1,4.09074e-05,-5.19518e-06,5.33847e-06,0.00818147,-0.00103904,0.00106769,0,0,0,0,0.0812083,0.527959,-0.982059,33.8125,1,51749,18427148
85,3,-0.666414,-0.0832563,9.79423,0.0431583,-0.61065,0.974497,-0.00666515,-0.000840647,0.0979422,1,4.09074e-05,-5.19518e-06,5.33847e-06,0.00818147,-0.00103904,0.00106769,0,0,0,0,0.0812083,0.527959,-0.982059,33.8125,1,51749,18427148
85,4,-0.670782,-0.0777895,9.79567,0.0320514,-0.605204,0.982717,-0.00671018,-0.000786087,0.0979565,1,4.10956e-05,-1.21517e-05,1.04514e-05,0.00821912,-0.00243034,0.00209027,0,0,0,0,0.0788427,0.524095,-0.983144,33.8125,1,51750,18427248
85,5,-0.670782,-0.0777895,9.79567,0.0320514,-0.605204,0.982717,-0.00671018,-0.000786087,0.0979565,1,4.10956e-05,-1.21517e-05,1.04514e-05,0.00821912,-0.00243034,0.00209027,0,0,0,0,0.0788427,0.524095,-0.983144,33.8125,1,51750,18427248
85,6,-0.672445,-0.0842269,9.78444,0.0335638,-0.608284,0.975545,-0.00672736,-0.000850018,0.0978441,1,3.82028e-05,-1.5054e-05,2.03456e-05,0.00764057,-0.0030108,0.00406911,0,0,0,0,0.0751294,0.524027,-0.977572,33.8125,1,51751,18427348
86,1,-0.672445,-0.0842269,9.78444,0.0335638,-0.608284,0.975545,-0.00672736,-0.000850018,0.0978441,1,3.82028e-05,-1.5054e-05,2.03456e-05,0.00764057,-0.0030108,0.00406911,0,0,0,0,0.0751294,0.524027,-0.977572,33.8125,1,51751,18427348
86,2,-0.66909,-0.087846,9.78506,0.0331901,-0.611576,0.977901,-0.0066917,-0.000889146,0.0978504,1,5.29197e-05,-4.29735e-06,2.46221e-05,0.0105839,-0.000859469,0.00492442,0,0,0,0,0.0752613,0.524895,-0.971493,33.8125,1,51752,18427448
86,3,-0.66909,-0.087846,9.78506,0.0331901,-0.611576,0.977901,-0.0066917,-0.000889146,0.0978504,1,5.29197e-05,-4.29735e-06,2.46221e-05,0.0105839,-0.000859469,0.00492442,0,0,0,0,0.0752613,0.524895,-0.971493,33.8125,1,51752,18427448
86,4,-0.677854,-0.0875655,9.79496,0.0303941,-0.610918,0.985779,-0.00677993,-0.000881899,0.0979494,1,3.06295e-05,-7.24367e-06,1.79632e-05,0.0061259,-0.00144873,0.00359263,0,0,0,0,0.0791558,0.525793,-0.968966,33.8125,1,51753,18427548
87,1,-0.677854,-0.0875655,9.79496,0.0303941,-0.610918,0.985779,-0.00677993,-0.000881899,0.0979494,1,3.06295e-05,-7.24367e-06,1.79632e-05,0.0061259,-0.00144873,0.00359263,0,0,0,0,0.0791558,0.525793,-0.968966,33.8125,1,51753,18427548
87,2,-0.662576,-0.0943251,9.79005,0.0424335,-0.620567,0.973793,-0.00662618,-0.000953666,0.0979003,1,5.08466e-05,-2.50548e-06,3.46264e-05,0.0101693,-0.000501096,0.00692528,0,0,0,0,0.081883,0.528777,-0.973457,33.8125,1,51754,18427648
88,1,-0.662576,-0.0943251,9.79005,0.0424335,-0.620567,0.973793,-0.00662618,-0.000953666,0.0979003,1,5.08466e-05,-2.50548e-06,3.46264e-05,0.0101693,-0.000501096,0.00692528,0,0,0,0,0.081883,0.528777,-0.973457,33.8125,1,51754,18427648
88,2,-0.674888,-0.0891666,9.78474,0.0303961,-0.619413,0.964689,-0.00675083,-0.000903196,0.0978472,1,5.75799e-05,-1.01512e-05,1.94313e-05,0.011516,-0.00203025,0.00388626,0,0,0,0,0.0798025,0.529389,-0.979495,33.8125,1,51755,18427748
88,3,-0.674888,-0.0891666,9.78474,0.0303961,-0.619413,0.964689,-0.00675083,-0.000903196,0.0978472,1,5.75799e-05,-1.01512e-05,1.94313e-05,0.011516,-0.00203025,0.00388626,0,0,0,0,0.0798025,0.529389,-0.979495,33.8125,1,51755,18427748
88,4,-0.674398,-0.089882,9.79356,0.0256519,-0.619001,0.978998,-0.00674798,-0.0009058,0.0979352,1,3.3792e-05,-2.06866e-05,2.67812e-05,0.0067584,-0.00413733,0.00535624,0,0,0,0,0.0788763,0.526479,-0.98006,33.8125,1,51756,18427848
89,1,-0.674398,-0.089882,9.79356,0.0256519,-0.619001,0.978998,-0.00674798,-0.0009058,0.0979352,1,3.3792e-05,-2.06866e-05,2.67812e-05,0.0067584,-0.00413733,0.00535624,0,0,0,0,0.0788763,0.526479,-0.98006,33.8125,1,51756,18427848
89,2,-0.671843,-0.0878997,9.79083,0.0326868,-0.620234,0.985241,-0.00671878,-0.000888264,0.0979082,1,4.57745e-05,-2.00067e-06,2.2607e-05,0.00915489,-0.000400134,0.0045214,0,0,0,0,0.0775473,0.523998,-0.977079,33.8125,1,51757,18427948
89,3,-0.671843,-0.0878997,9.79083,0.0326868,-0.620234,0.985241,-0.00671878,-0.000888264,0.0979082,1,4.57745e-05,-2.00067e-06,2.2607e-05,0.00915489,-0.000400134,0.0045214,0,0,0,0,0.0775473,0.523998,-0.977079,33.8125,1,51757,18427948
89,4,-0.669607,-0.0941489,9.79213,0.0341891,-0.622728,0.981211,-0.00669868,-0.000949983,0.097921,1,4.20101e-05,-1.35676e-05,1.99321e-05,0.00840202,-0.00271352,0.00398643,0,0,0,0,0.0777238,0.522906,-0.970538,33.8125,1,51758,18428048
90,1,-0.669607,-0.0941489,9.79213,0.0341891,-0.622728,0.981211,-0.00669868,-0.000949983,0.097921,1,4.20101e-05,-1.35676e-05,1.99321e-05,0.00840202,-0.00271352,0.00398643,0,0,0,0,0.0777238,0.522906,-0.970538,33.8125,1,51758,18428048
90,2,-0.662208,-0.0891217,9.78568,0.0413183,-0.614549,0.97259,-0.00662506,-0.000902135,0.0978565,1,5.41658e-05,-1.54411e-05,2.3894e-05,0.0108332,-0.00308823,0.0047788,0,0,0,0,0.082051,0.526727,-0.967948,33.8125,1,51759,18428148
91,1,-0.662208,-0.0891217,9.78568,0.0413183,-0.614549,0.97259,-0.00662506,-0.000902135,0.0978565,1,5.41658e-05,-1.54411e-05,2.3894e-05,0.0108332,-0.00308823,0.0047788,0,0,0,0,0.082051,0.526727,-0.967948,33.8125,1,51759,18428148
91,2,-0.663173,-0.0872687,9.79181,0.0409333,-0.61136,0.968845,-0.00663571,-0.000880188,0.0979178,1,3.71075e-05,-2.04707e-05,1.76822e-05,0.00742149,-0.00409414,0.00353645,0,0,0,0,0.0838037,0.529727,-0.97294,33.8125,1,51760,18428248
92,1,-0.663173,-0.0872687,9.79181,0.0409333,-0.61136,0.968845,-0.00663571,-0.000880188,0.0979178,1,3.71075e-05,-2.04707e-05,1.76822e-05,0.00742149,-0.00409414,0.00353645,0,0,0,0,0.0838037,0.529727,-0.97294,33.8125,1,51760,18428248
92,2,-0.675595,-0.0896987,9.78813,0.0194304,-0.622713,0.968294,-0.00675629,-0.00090576,0.0978812,1,4.49866e-05,-1.71718e-06,-2.47919e-06,0.00899732,-0.000343436,-0.000495838,0,0,0,0,0.0816899,0.5294,-0.981019,33.8125,1,51761,18428348
93,1,-0.675595,-0.0896987,9.78813,0.0194304,-0.622713,0.968294,-0.00675629,-0.00090576,0.0978812,1,4.49866e-05,-1.71718e-06,-2.47919e-06,0.00899732,-0.000343436,-0.000495838,0,0,0,0,0.0816899,0.5294,-0.981019,33.8125,1,51761,18428348
93,2,-0.669112,-0.0834343,9.7895,0.0328862,-0.61771,0.973911,-0.00669265,-0.000844294,0.0978948,1,4.92632e-05,-8.03163e-06,2.28137e-05,0.00985265,-0.00160633,0.00456274,0,0,0,0,0.0797887,0.525062,-0.983127,33.8125,1,51762,18428448
94,1,-0.669112,-0.0834343,9.7895,0.0328862,-0.61771,0.973911,-0.00669265,-0.000844294,0.0978948,1,4.92632e-05,-8.03163e-06,2.28137e-05,0.00985265,-0.00160633,0.00456274,0,0,0,0,0.0797887,0.525062,-0.983127,33.8125,1,51762,18428448
94,2,-0.661521,-0.087052,9.78773,0.0415117,-0.624484,0.977573,-0.00661833,-0.000882104,0.097877,1,5.76712e-05,-1.61474e-05,2.22307e-05,0.0115342,-0.00322948,0.00444613,0,0,0,0,0.0766131,0.521577,-0.977634,33.8125,1,51763,18428548
95,1,-0.661521,-0.087052,9.78773,0.0415117,-0.624484,0.977573,-0.00661833,-0.000882104,0.097877,1,5.76712e-05,-1.61474e-05,2.22307e-05,0.0115342,-0.00322948,0.00444613,0,0,0,0,0.0766131,0.521577,-0.977634,33.8125,1,51763,18428548
95,2,-0.662589,-0.0826599,9.78438,0.0411043,-0.613643,0.975775,-0.00662915,-0.000836861,0.0978435,1,5.23254e-05,-1.66521e-05,1.62968e-06,0.0104651,-0.00333042,0.000325936,0,0,0,0,0.0772755,0.522404,-0.969537,33.8125,1,51764,18428648
96,1,-0.662589,-0.0826599,9.78438,0.0411043,-0.613643,0.975775,-0.00662915,-0.000836861,0.0978435,1,5.23254e-05,-1.66521e-05,1.62968e-06,0.0104651,-0.00333042,0.000325936,0,0,0,0,0.0772755,0.522404,-0.969537,33.8125,1,51764,18428648
96,2,-0.667789,-0.0908911,9.79182,0.0337974,-0.622679,0.981163,-0.00668301,-0.000920132,0.0979177,1,5.5788e-05,-2.63436e-05,2.21746e-05,0.0111576,-0.00526872,0.00443492,0,0,0,0,0.0777414,0.526266,-0.967433,33.8125,1,51765,18428748
97,1,-0.667789,-0.0908911,9.79182,0.0337974,-0.622679,0.981163,-0.00668301,-0.000920132,0.0979177,1,5.5788e-05,-2.63436e-05,2.21746e-05,0.0111576,-0.00526872,0.00443492,0,0,0,0,0.0777414,0.526266,-0.967433,33.8125,1,51765,18428748
97,2,-0.668287,-0.0838546,9.799,0.034239,-0.614204,0.978935,-0.00668477,-0.000848552,0.0979897,1,5.01704e-05,-9.84059e-06,1.29786e-05,0.0100341,-0.00196812,0.00259572,0,0,0,0,0.080452,0.52878,-0.972946,33.8125,1,51766,18428848
97,3,-0.668287,-0.0838546,9.799,0.034239,-0.614204,0.978935,-0.00668477,-0.000848552,0.0979897,1,5.01704e-05,-9.84059e-06,1.29786e-05,0.0100341,-0.00196812,0.00259572,0,0,0,0,0.080452,0.52878,-0.972946,33.8125,1,51766,18428848
97,4,-0.675858,-0.0944007,9.78504,0.0276472,-0.632006,0.962676,-0.00675884,-0.000954122,0.0978503,1,5.12563e-05,-1.39298e-06,6.16509e-06,0.0102513,-0.000278597,0.00123302,0,0,0,0,0.0802546,0.528924,-0.981023,33.8125,1,51767,18428948
98,1,-0.675858,-0.0944007,9.78504,0.0276472,-0.632006,0.962676,-0.00675884,-0.000954122,0.0978503,1,5.12563e-05,-1.39298e-06,6.16509e-06,0.0102513,-0.000278597,0.00123302,0,0,0,0,0.0802546,0.528924,-0.981023,33.8125,1,51767,18428948
98,2,-0.671365,-0.0903967,9.78878,0.0289877,-0.630228,0.97769,-0.00671676,-0.000912821,0.0978875,1,4.41615e-05,-1.60373e-05,1.54916e-05,0.0088323,-0.00320746,0.00309832,0,0,0,0,0.0778605,0.526045,-0.982591,33.8125,1,51768,18429048
98,3,-0.671365,-0.0903967,9.78878,0.0289877,-0.630228,0.97769,-0.00671676,-0.000912821,0.0978875,1,4.41615e-05,-1.60373e-05,1.54916e-05,0.0088323,-0.00320746,0.00309832,0,0,0,0,0.0778605,0.526045,-0.982591,33.8125,1,51768,18429048
98,4,-0.663953,-0.08848,9.79519,0.0361439,-0.625718,0.987689,-0.00664059,-0.000895298,0.0979517,1,5.20497e-05,-5.59527e-06,2.26554e-05,0.01041,-0.00111905,0.00453109,0,0,0,0,0.0775431,0.52352,-0.977595,33.8125,1,51769,18429148
99,1,-0.663953,-0.08848,9.79519,0.0361439,-0.625718,0.987689,-0.00664059,-0.000895298,0.0979517,1,5.20497e-05,-5.59527e-06,2.26554e-05,0.01041,-0.00111905,0.00453109,0,0,0,0,0.0775431,0.52352,-0.977595,33.8125,1,51769,18429148
99,2,-0.670376,-0.0904801,9.7864,0.0363511,-0.631894,0.980068,-0.00670601,-0.000912687,0.0978638,1,3.95458e-05,-1.15897e-05,1.08758e-05,0.00790916,-0.00231794,0.00217515,0,0,0,0,0.0786776,0.52194,-0.971574,33.8125,1,51770,18429248
99,3,-0.670376,-0.0904801,9.7864,0.0363511,-0.631894,0.980068,-0.00670601,-0.000912687,0.0978638,1,3.95458e-05,-1.15897e-05,1.08758e-05,0.00790916,-0.00231794,0.00217515,0,0,0,0,0.0786776,0.52194,-0.971574,33.8125,1,51770,18429248
99,4,-0.663405,-0.0809835,9.77625,0.0368913,-0.614912,0.960508,-0.00663689,-0.000818578,0.0977623,1,4.31461e-05,-1.47097e-05,2.31081e-05,0.00862923,-0.00294195,0.00462162,0,0,0,0,0.0781974,0.524835,-0.969488,33.8125,1,51771,18429348
100,1,-0.663405,-0.0809835,9.77625,0.0368913,-0.614912,0.960508,-0.00663689,-0.000818578,0.0977623,1,4.31461e-05,-1.47097e-05,2.31081e-05,0.00862923,-0.00294195,0.00462162,0,0,0,0,0.0781974,0.524835,-0.969488,33.8125,1,51771,18429348
100,2,-0.670205,-0.0843405,9.79935,0.0385688,-0.616361,0.978484,-0.00670582,-0.000850902,0.0979932,1,3.67017e-05,-1.94443e-05,2.2683e-05,0.00734033,-0.00388885,0.00453661,0,0,0,0,0.0790291,0.528295,-0.972445,33.8125,1,51772,18429448
100,3,-0.670205,-0.0843405,9.79935,0.0385688,-0.616361,0.978484,-0.00670582,-0.000850902,0.0979932,1,3.67017e-05,-1.94443e-05,2.2683e-05,0.00734033,-0.00388885,0.00453661,0,0,0,0,0.0790291,0.528295,-0.972445,33.8125,1,51772,18429448
100,4,-0.675871,-0.0863658,9.79393,0.026286,-0.626402,0.975148,-0.00675955,-0.000872491,0.0979392,1,4.43366e-05,-4.37159e-06,1.09803e-05,0.00886731,-0.000874318,0.00219605,0,0,0,0,0.079309,0.529402,-0.979998,33.8125,1,51773,18429548
100,5,-0.675871,-0.0863658,9.79393,0.026286,-0.626402,0.975148,-0.00675955,-0.000872491,0.0979392,1,4.43366e-05,-4.37159e-06,1.09803e-05,0.00886731,-0.000874318,0.00219605,0,0,0,0,0.079309,0.529402,-0.979998,33.8125,1,51773,18429548
100,6,-0.676199,-0.079127,9.79502,0.0264847,-0.616885,0.981919,-0.00676559,-0.000800106,0.0979498,1,4.44818e-05,-1.84326e-05,9.00991e-06,0.00889637,-0.00368651,0.00180198,0,0,0,0,0.0773998,0.525552,-0.982095,33.8125,1,51774,18429648
101,1,-0.676199,-0.079127,9.79502,0.0264847,-0.616885,0.981919,-0.00676559,-0.000800106,0.0979498,1,4.44818e-05,-1.84326e-05,9.00991e-06,0.00889637,-0.00368651,0.00180198,0,0,0,0,0.0773998,0.525552,-0.982095,33.8125,1,51774,18429648
101,2,-0.669416,-0.0781026,9.79125,0.0335277,-0.615404,0.982418,-0.00669577,-0.000788508,0.0979123,1,3.85344e-05,-8.1509e-06,-4.73322e-06,0.00770688,-0.00163018,-0.000946643,0,0,0,0,0.0756385,0.521594,-0.978134,33.8125,1,51775,18429748
101,3,-0.669416,-0.0781026,9.79125,0.0335277,-0.615404,0.982418,-0.00669577,-0.000788508,0.0979123,1,3.85344e-05,-8.1509e-06,-4.73322e-06,0.00770688,-0.00163018,-0.000946643,0,0,0,0,0.0756385,0.521594,-0.978134,33.8125,1,51775,18429748
101,4,-0.663258,-0.0840908,9.78539,0.039175,-0.623637,0.976123,-0.00663706,-0.0008508,0.0978535,1,4.92463e-05,-2.30597e-05,1.91053e-05,0.00984927,-0.00461194,0.00382106,0,0,0,0,0.0767778,0.521938,-0.970556,33.8125,1,51776,18429848
101,5,-0.663258,-0.0840908,9.78539,0.039175,-0.623637,0.976123,-0.00663706,-0.0008508,0.0978535,1,4.92463e-05,-2.30597e-05,1.91053e-05,0.00984927,-0.00461194,0.00382106,0,0,0,0,0.0767778,0.521938,-0.970556,33.8125,1,51776,18429848
101,6,-0.662677,-0.0903945,9.78092,0.0466101,-0.624882,0.968183,-0.00662713,-0.000911976,0.0978091,1,3.91491e-05,-2.11059e-06,2.81128e-05,0.00782983,-0.000422119,0.00562256,0,0,0,0,0.0791724,0.526263,-0.967945,33.8125,1,51777,18429948
102,1,-0.662677,-0.0903945,9.78092,0.0466101,-0.624882,0.968183,-0.00662713,-0.000911976,0.0978091,1,3.91491e-05,-2.11059e-06,2.81128e-05,0.00782983,-0.000422119,0.00562256,0,0,0,0,0.0791724,0.526263,-0.967945,33.8125,1,51777,18429948
102,2,-0.669659,-0.0902966,9.79725,0.0359811,-0.627753,0.978865,-0.006699,-0.00091449,0.0979722,1,5.80661e-05,-1.24146e-05,1.09693e-05,0.0116132,-0.00248291,0.00219385,0,0,0,0,0.0814266,0.528763,-0.972446,33.8125,1,51778,18430048
102,3,-0.669659,-0.0902966,9.79725,0.0359811,-0.627753,0.978865,-0.006699,-0.00091449,0.0979722,1,5.80661e-05,-1.24146e-05,1.09693e-05,0.0116132,-0.00248291,0.00219385,0,0,0,0,0.0814266,0.528763,-0.972446,33.8125,1,51778,18430048
102,4,-0.670069,-0.0896728,9.7864,0.027664,-0.634204,0.968643,-0.00670277,-0.000905132,0.0978638,1,4.17344e-05,-1.07719e-05,1.75852e-05,0.00834688,-0.00215438,0.00351703,0,0,0,0,0.080267,0.528915,-0.980518,33.8125,1,51779,18430148
102,5,-0.670069,-0.0896728,9.7864,0.027664,-0.634204,0.968643,-0.00670277,-0.000905132,0.0978638,1,4.17344e-05,-1.07719e-05,1.75852e-05,0.00834688,-0.00215438,0.00351703,0,0,0,0,0.080267,0.528915,-0.980518,33.8125,1,51779,18430148
102,6,-0.677389,-0.0917407,9.78814,0.0233607,-0.635307,0.975743,-0.00677843,-0.000926855,0.097881,1,4.6987e-05,-2.3356e-05,1.8388e-05,0.0093974,-0.0046712,0.0036776,0,0,0,0,0.0779136,0.525042,-0.981098,33.8125,1,51780,18430248
102,7,-0.677389,-0.0917407,9.78814,0.0233607,-0.635307,0.975743,-0.00677843,-0.000926855,0.097881,1,4.6987e-05,-2.3356e-05,1.8388e-05,0.0093974,-0.0046712,0.0036776,0,0,0,0,0.0779136,0.525042,-0.981098,33.8125,1,51780,18430248
102,8,-0.676886,-0.0806362,9.79094,0.0251471,-0.622803,0.979171,-0.00677023,-0.000811891,0.0979092,1,2.67049e-05,-7.17462e-06,2.21448e-05,0.00534098,-0.00143492,0.00442896,0,0,0,0,0.0761733,0.522032,-0.975601,33.8125,1,51781,18430348
103,1,-0.676886,-0.0806362,9.79094,0.0251471,-0.622803,0.979171,-0.00677023,-0.000811891,0.0979092,1,2.67049e-05,-7.17462e-06,2.21448e-05,0.00534098,-0.00143492,0.00442896,0,0,0,0,0.0761733,0.522032,-0.975601,33.8125,1,51781,18430348
103,2,-0.671002,-0.0893307,9.78133,0.0303213,-0.629995,0.970647,-0.00671445,-0.000902756,0.097813,1,4.62643e-05,-2.29278e-05,2.96735e-05,0.00925287,-0.00458555,0.0059347,0,0,0,0,0.0773039,0.521419,-0.969054,33.8125,1,51782,18430448
103,3,-0.671002,-0.0893307,9.78133,0.0303213,-0.629995,0.970647,-0.00671445,-0.000902756,0.097813,1,4.62643e-05,-2.29278e-05,2.96735e-05,0.00925287,-0.00458555,0.0059347,0,0,0,0,0.0773039,0.521419,-0.969054,33.8125,1,51782,18430448
103,4,-0.672049,-0.0937481,9.78876,0.0301426,-0.630822,0.973195,-0.0067236,-0.000947285,0.0978872,1,4.86168e-05,-1.60876e-05,2.12064e-05,0.00972336,-0.00321752,0.00424129,0,0,0,0,0.079152,0.52676,-0.968439,33.8125,1,51783,18430548
104,1,-0.672049,-0.0937481,9.78876,0.0301426,-0.630822,0.973195,-0.0067236,-0.000947285,0.0978872,1,4.86168e-05,-1.60876e-05,2.12064e-05,0.00972336,-0.00321752,0.00424129,0,0,0,0,0.079152,0.52676,-0.968439,33.8125,1,51783,18430548
104,2,-0.676349,-0.0883774,9.79597,0.0250874,-0.628793,0.978164,-0.00676673,-0.000894235,0.0979593,1,5.18338e-05,-1.67045e-05,2.25878e-05,0.0103668,-0.00334091,0.00451756,0,0,0,0,0.0822868,0.531239,-0.97492,33.8125,1,51784,18430648
104,3,-0.676349,-0.0883774,9.79597,0.0250874,-0.628793,0.978164,-0.00676673,-0.000894235,0.0979593,1,5.18338e-05,-1.67045e-05,2.25878e-05,0.0103668,-0.00334091,0.00451756,0,0,0,0,0.0822868,0.531239,-0.97492,33.8125,1,51784,18430648
104,4,-0.664762,-0.0748393,9.79056,0.0288286,-0.62009,0.969793,-0.00664897,-0.000759871,0.0979054,1,5.7796e-05,-7.0035e-06,1.21538e-05,0.0115592,-0.0014007,0.00243076,0,0,0,0,0.082134,0.529423,-0.982535,33.8125,1,51785,18430748
104,5,-0.664762,-0.0748393,9.79056,0.0288286,-0.62009,0.969793,-0.00664897,-0.000759871,0.0979054,1,5.7796e-05,-7.0035e-06,1.21538e-05,0.0115592,-0.0014007,0.00243076,0,0,0,0,0.082134,0.529423,-0.982535,33.8125,1,51785,18430748
104,6,-0.672422,-0.0879287,9.7922,0.0276015,-0.635071,0.978587,-0.00672493,-0.000888571,0.0979219,1,4.60839e-05,-3.8017e-06,1.92463e-05,0.00921677,-0.00076034,0.00384926,0,0,0,0,0.0778353,0.524617,-0.984643,33.8125,1,51786,18430848
104,7,-0.672422,-0.0879287,9.7922,0.0276015,-0.635071,0.978587,-0.00672493,-0.000888571,0.0979219,1,4.60839e-05,-3.8017e-06,1.92463e-05,0.00921677,-0.00076034,0.00384926,0,0,0,0,0.0778353,0.524617,-0.984643,33.8125,1,51786,18430848
104,8,-0.66767,-0.0840728,9.78509,0.0276893,-0.629016,0.976696,-0.00668077,-0.000849561,0.0978505,1,4.37889e-05,-2.09526e-05,1.97089e-05,0.00875778,-0.00419053,0.00394178,0,0,0,0,0.0761073,0.521599,-0.978641,33.8125,1,51787,18430948
105,1,-0.66767,-0.0840728,9.78509,0.0276893,-0.629016,0.976696,-0.00668077,-0.000849561,0.0978505,1,4.37889e-05,-2.09526e-05,1.97089e-05,0.00875778,-0.00419053,0.00394178,0,0,0,0,0.0761073,0.521599,-0.978641,33.8125,1,51787,18430948
105,2,-0.672171,-0.090132,9.78743,0.0272513,-0.633894,0.980798,-0.00672397,-0.000908469,0.0978741,1,3.55298e-05,-1.16995e-05,1.44003e-05,0.00710595,-0.0023399,0.00288007,0,0,0,0,0.0772916,0.521428,-0.969559,33.8125,1,51788,18431048
105,3,-0.672171,-0.090132,9.78743,0.0272513,-0.633894,0.980798,-0.00672397,-0.000908469,0.0978741,1,3.55298e-05,-1.16995e-05,1.44003e-05,0.00710595,-0.0023399,0.00288007,0,0,0,0,0.0772916,0.521428,-0.969559,33.8125,1,51788,18431048
105,4,-0.663717,-0.080615,9.78474,0.037629,-0.622504,0.970891,-0.00663707,-0.000815465,0.0978473,1,4.75291e-05,4.82349e-07,1.02965e-06,0.00950583,9.64698e-05,0.000205929,0,0,0,0,0.079189,0.526733,-0.966925,33.8125,1,51789,18431148
105,5,-0.663717,-0.080615,9.78474,0.037629,-0.622504,0.970891,-0.00663707,-0.000815465,0.0978473,1,4.75291e-05,4.82349e-07,1.02965e-06,0.00950583,9.64698e-05,0.000205929,0,0,0,0,0.079189,0.526733,-0.966925,33.8125,1,51789,18431148
105,6,-0.679515,-0.0888631,9.78987,0.0239153,-0.628597,0.968936,-0.00679946,-0.000901551,0.0978983,1,6.35775e-05,-2.2346e-05,3.46978e-05,0.0127155,-0.0044692,0.00693955,0,0,0,0,0.0828211,0.530232,-0.973429,33.8125,1,51790,18431248
106,1,-0.679515,-0.0888631,9.78987,0.0239153,-0.628597,0.968936,-0.00679946,-0.000901551,0.0978983,1,6.35775e-05,-2.2346e-05,3.46978e-05,0.0127155,-0.0044692,0.00693955,0,0,0,0,0.0828211,0.530232,-0.973429,33.8125,1,51790,18431248
106,2,-0.668497,-0.0897131,9.78879,0.0214298,-0.636546,0.96977,-0.00668996,-0.000903424,0.0978875,1,3.11192e-05,-2.56281e-05,1.49738e-05,0.00622384,-0.00512563,0.00299477,0,0,0,0,0.0812007,0.529892,-0.981005,33.8125,1,51791,18431348
107,1,-0.668497,-0.0897131,9.78879,0.0214298,-0.636546,0.96977,-0.00668996,-0.000903424,0.0978875,1,3.11192e-05,-2.56281e-05,1.49738e-05,0.00622384,-0.00512563,0.00299477,0,0,0,0,0.0812007,0.529892,-0.981005,33.8125,1,51791,18431348
107,2,-0.662941,-0.0883668,9.7945,0.030538,-0.639773,0.97988,-0.00663165,-0.000892288,0.0979448,1,4.27662e-05,-1.15746e-05,1.83063e-05,0.00855324,-0.00231492,0.00366125,0,0,0,0,0.0788678,0.525522,-0.981092,33.8125,1,51792,18431448
107,3,-0.662941,-0.0883668,9.7945,0.030538,-0.639773,0.97988,-0.00663165,-0.000892288,0.0979448,1,4.27662e-05,-1.15746e-05,1.83063e-05,0.00855324,-0.00231492,0.00366125,0,0,0,0,0.0788678,0.525522,-0.981092,33.8125,1,51792,18431448
107,4,-0.671186,-0.0826228,9.79393,0.0272951,-0.62885,0.986972,-0.00671314,-0.000832922,0.0979391,1,3.32239e-05,-6.61241e-06,1.38769e-05,0.00664479,-0.00132248,0.00277537,0,0,0,0,0.0775796,0.522047,-0.977123,33.8125,1,51793,18431548
107,5,-0.671186,-0.0826228,9.79393,0.0272951,-0.62885,0.986972,-0.00671314,-0.000832922,0.0979391,1,3.32239e-05,-6.61241e-06,1.38769e-05,0.00664479,-0.00132248,0.00277537,0,0,0,0,0.0775796,0.522047,-0.977123,33.8125,1,51793,18431548
107,6,-0.679529,-0.0911593,9.79494,0.0173454,-0.637607,0.986677,-0.00679682,-0.000921447,0.0979492,1,4.91962e-05,-7.96482e-06,1.5946e-05,0.00983924,-0.00159296,0.0031892,0,0,0,0,0.078205,0.522902,-0.970541,33.8125,1,51794,18431648
108,1,-0.679529,-0.0911593,9.79494,0.0173454,-0.637607,0.986677,-0.00679682,-0.000921447,0.0979492,1,4.91962e-05,-7.96482e-06,1.5946e-05,0.00983924,-0.00159296,0.0031892,0,0,0,0,0.078205,0.522902,-0.970541,33.8125,1,51794,18431648
108,2,-0.673112,-0.0865688,9.7834,0.0265973,-0.631318,0.968308,-0.00673417,-0.000873871,0.0978337,1,4.04716e-05,-1.57989e-05,1.9595e-05,0.00809432,-0.00315977,0.003919,0,0,0,0,0.0791558,0.525793,-0.968966,33.8125,1,51795,18431748
109,1,-0.673112,-0.0865688,9.7834,0.0265973,-0.631318,0.968308,-0.00673417,-0.000873871,0.0978337,1,4.04716e-05,-1.57989e-05,1.9595e-05,0.00809432,-0.00315977,0.003919,0,0,0,0,0.0791558,0.525793,-0.968966,33.8125,1,51795,18431748
109,2,-0.668013,-0.0899176,9.78673,0.0291568,-0.635451,0.968766,-0.00668221,-0.000908886,0.0978671,1,4.8047e-05,-1.08386e-05,2.28826e-05,0.00960939,-0.00216771,0.00457652,0,0,0,0,0.082368,0.527807,-0.973986,33.8125,1,51796,18431848
109,3,-0.668013,-0.0899176,9.78673,0.0291568,-0.635451,0.968766,-0.00668221,-0.000908886,0.0978671,1,4.8047e-05,-1.08386e-05,2.28826e-05,0.00960939,-0.00216771,0.00457652,0,0,0,0,0.082368,0.527807,-0.973986,33.8125,1,51796,18431848
109,4,-0.670796,-0.086904,9.77931,0.0264753,-0.629275,0.95996,-0.00670845,-0.000877131,0.097793,1,4.09112e-05,-2.56121e-06,6.68828e-06,0.00818224,-0.000512243,0.00133766,0,0,0,0,0.0812335,0.529386,-0.980007,33.8125,1,51797,18431948
110,1,-0.670796,-0.086904,9.77931,0.0264753,-0.629275,0.95996,-0.00670845,-0.000877131,0.097793,1,4.09112e-05,-2.56121e-06,6.68828e-06,0.00818224,-0.000512243,0.00133766,0,0,0,0,0.0812335,0.529386,-0.980007,33.8125,1,51797,18431948
110,2,-0.664725,-0.0832765,9.78066,0.0321178,-0.633077,0.963886,-0.00664934,-0.000838004,0.0978064,1,2.57101e-05,-1.07979e-05,1.58324e-05,0.00514202,-0.00215958,0.00316649,0,0,0,0,0.0789048,0.525495,-0.979577,33.8125,1,51798,18432048
110,3,-0.664725,-0.0832765,9.78066,0.0321178,-0.633077,0.963886,-0.00664934,-0.000838004,0.0978064,1,2.57101e-05,-1.07979e-05,1.58324e-05,0.00514202,-0.00215958,0.00316649,0,0,0,0,0.0789048,0.525495,-0.979577,33.8125,1,51798,18432048
110,4,-0.66894,-0.0859549,9.79254,0.0248476,-0.636259,0.981141,-0.00669292,-0.000867017,0.0979251,1,3.78768e-05,-1.80176e-05,3.71589e-06,0.00757536,-0.00360351,0.000743178,0,0,0,0,0.076161,0.522041,-0.976106,33.8125,1,51799,18432148
111,1,-0.66894,-0.0859549,9.79254,0.0248476,-0.636259,0.981141,-0.00669292,-0.000867017,0.0979251,1,3.78768e-05,-1.80176e-05,3.71589e-06,0.00757536,-0.00360351,0.000743178,0,0,0,0,0.076161,0.522041,-0.976106,33.8125,1,51799,18432148
111,2,-0.66777,-0.0920101,9.78229,0.0282203,-0.639999,0.970602,-0.00667839,-0.000929387,0.0978228,1,4.60129e-05,-3.72547e-06,2.12285e-05,0.00920259,-0.000745093,0.0042457,0,0,0,0,0.0748457,0.523887,-0.969493,33.8125,1,51800,18432248
112,1,-0.66777,-0.0920101,9.78229,0.0282203,-0.639999,0.970602,-0.00667839,-0.000929387,0.0978228,1,4.60129e-05,-3.72547e-06,2.12285e-05,0.00920259,-0.000745093,0.0042457,0,0,0,0,0.0748457,0.523887,-0.969493,33.8125,1,51800,18432248
112,2,-0.66702,-0.087355,9.79284,0.0327823,-0.63076,0.97583,-0.00667142,-0.000881193,0.0979283,1,3.6953e-05,-6.50074e-06,3.03835e-05,0.0073906,-0.00130015,0.00607669,0,0,0,0,0.0796497,0.527225,-0.967421,33.8125,1,51801,18432348
112,3,-0.66702,-0.087355,9.79284,0.0327823,-0.63076,0.97583,-0.00667142,-0.000881193,0.0979283,1,3.6953e-05,-6.50074e-06,3.03835e-05,0.0073906,-0.00130015,0.00607669,0,0,0,0,0.0796497,0.527225,-0.967421,33.8125,1,51801,18432348
112,4,-0.673557,-0.0842019,9.78987,0.0267652,-0.635821,0.970951,-0.00673661,-0.000851071,0.0978985,1,4.53181e-05,-5.39987e-06,1.32659e-05,0.00906363,-0.00107997,0.00265317,0,0,0,0,0.0818754,0.53071,-0.972404,33.8125,1,51802,18432448
113,1,-0.673557,-0.0842019,9.78987,0.0267652,-0.635821,0.970951,-0.00673661,-0.000851071,0.0978985,1,4.53181e-05,-5.39987e-06,1.32659e-05,0.00906363,-0.00107997,0.00265317,0,0,0,0,0.0818754,0.53071,-0.972404,33.8125,1,51802,18432448
113,2,-0.671125,-0.083319,9.79088,0.0214386,-0.633838,0.968943,-0.00671455,-0.000840718,0.0979085,1,3.77092e-05,-1.6991e-05,1.06806e-05,0.00754184,-0.00339819,0.00213612,0,0,0,0,0.0793294,0.528905,-0.979504,33.8125,1,51803,18432548
113,3,-0.671125,-0.083319,9.79088,0.0214386,-0.633838,0.968943,-0.00671455,-0.000840718,0.0979085,1,3.77092e-05,-1.6991e-05,1.06806e-05,0.00754184,-0.00339819,0.00213612,0,0,0,0,0.0793294,0.528905,-0.979504,33.8125,1,51803,18432548
113,4,-0.665598,-0.0889325,9.79012,0.0289836,-0.644729,0.97185,-0.00665842,-0.000899108,0.0979009,1,4.88385e-05,-1.25843e-05,1.65681e-05,0.00976771,-0.00251685,0.00331362,0,0,0,0,0.0764698,0.523609,-0.982133,33.8125,1,51804,18432648
114,1,-0.665598,-0.0889325,9.79012,0.0289836,-0.644729,0.97185,-0.00665842,-0.000899108,0.0979009,1,4.88385e-05,-1.25843e-05,1.65681e-05,0.00976771,-0.00251685,0.00331362,0,0,0,0,0.0764698,0.523609,-0.982133,33.8125,1,51804,18432648
114,2,-0.665601,-0.0872928,9.78606,0.0299956,-0.642326,0.973294,-0.00666018,-0.000880669,0.0978602,1,3.82494e-05,-2.14725e-05,1.91499e-05,0.00764988,-0.00429451,0.00382999,0,0,0,0,0.0746725,0.522568,-0.977603,33.8125,1,51805,18432748
114,3,-0.665601,-0.0872928,9.78606,0.0299956,-0.642326,0.973294,-0.00666018,-0.000880669,0.0978602,1,3.82494e-05,-2.14725e-05,1.91499e-05,0.00764988,-0.00429451,0.00382999,0,0,0,0,0.0746725,0.522568,-0.977603,33.8125,1,51805,18432748
114,4,-0.677364,-0.100854,9.77755,0.0191866,-0.653455,0.970139,-0.00677888,-0.00101892,0.097775,1,5.10533e-05,-2.70939e-05,2.88989e-05,0.0102107,-0.00541878,0.00577978,0,0,0,0,0.0777281,0.523384,-0.970023,33.8125,1,51806,18432848
114,5,-0.677364,-0.100854,9.77755,0.0191866,-0.653455,0.970139,-0.00677888,-0.00101892,0.097775,1,5.10533e-05,-2.70939e-05,2.88989e-05,0.0102107,-0.00541878,0.00577978,0,0,0,0,0.0777281,0.523384,-0.970023,33.8125,1,51806,18432848
114,6,-0.668721,-0.0858086,9.79151,0.0276558,-0.632141,0.977392,-0.00669019,-0.000868487,0.0979148,1,5.1785e-05,-1.54157e-05,1.94781e-05,0.010357,-0.00308315,0.00389561,0,0,0,0,0.0810684,0.527232,-0.968437,33.8125,1,51807,18432948
115,1,-0.668721,-0.0858086,9.79151,0.0276558,-0.632141,0.977392,-0.00669019,-0.000868487,0.0979148,1,5.1785e-05,-1.54157e-05,1.94781e-05,0.010357,-0.00308315,0.00389561,0,0,0,0,0.0810684,0.527232,-0.968437,33.8125,1,51807,18432948
115,2,-0.668136,-0.086425,9.7854,0.0321537,-0.636978,0.965541,-0.00668166,-0.000874467,0.0978539,1,5.18207e-05,-1.59424e-06,5.66978e-06,0.0103641,-0.000318848,0.00113396,0,0,0,0,0.0828002,0.529284,-0.974966,33.8125,1,51808,18433048
115,3,-0.668136,-0.086425,9.7854,0.0321537,-0.636978,0.965541,-0.00668166,-0.000874467,0.0978539,1,5.18207e-05,-1.59424e-06,5.66978e-06,0.0103641,-0.000318848,0.00113396,0,0,0,0,0.0828002,0.529284,-0.974966,33.8125,1,51808,18433048
115,4,-0.663527,-0.0922959,9.79957,0.0297926,-0.650944,0.979968,-0.006638,-0.000928764,0.0979954,1,2.87537e-05,-1.4076e-05,1.27666e-05,0.00575073,-0.0028152,0.00255332,0,0,0,0,0.0826436,0.528435,-0.982055,33.8125,1,51809,18433148
115,5,-0.663527,-0.0922959,9.79957,0.0297926,-0.650944,0.979968,-0.006638,-0.000928764,0.0979954,1,2.87537e-05,-1.4076e-05,1.27666e-05,0.00575073,-0.0028152,0.00255332,0,0,0,0,0.0826436,0.528435,-0.982055,33.8125,1,51809,18433148
115,6,-0.663972,-0.0804216,9.78407,0.0307757,-0.634189,0.971704,-0.00664122,-0.000811829,0.0978405,1,3.72718e-05,-7.84535e-06,2.40725e-05,0.00745436,-0.00156907,0.00481449,0,0,0,0,0.0793404,0.52456,-0.982126,33.8125,1,51810,18433248
116,1,-0.663972,-0.0804216,9.78407,0.0307757,-0.634189,0.971704,-0.00664122,-0.000811829,0.0978405,1,3.72718e-05,-7.84535e-06,2.40725e-05,0.00745436,-0.00156907,0.00481449,0,0,0,0,0.0793404,0.52456,-0.982126,33.8125,1,51810,18433248
116,2,-0.675591,-0.0856849,9.79393,0.0158817,-0.63882,0.985849,-0.00675619,-0.000864414,0.0979392,1,3.7387e-05,-1.58529e-06,1.79038e-05,0.0074774,-0.000317058,0.00358076,0,0,0,0,0.0761524,0.521084,-0.977137,33.8125,1,51811,18433348
116,3,-0.675591,-0.0856849,9.79393,0.0158817,-0.63882,0.985849,-0.00675619,-0.000864414,0.0979392,1,3.7387e-05,-1.58529e-06,1.79038e-05,0.0074774,-0.000317058,0.00358076,0,0,0,0,0.0761524,0.521084,-0.977137,33.8125,1,51811,18433348
116,4,-0.672517,-0.0861912,9.78238,0.023247,-0.639507,0.973713,-0.00672711,-0.000871287,0.0978236,1,4.65271e-05,-1.0112e-05,2.01892e-05,0.00930541,-0.0020224,0.00403784,0,0,0,0,0.0777481,0.521442,-0.970571,33.8125,1,51812,18433448
117,1,-0.672517,-0.0861912,9.78238,0.023247,-0.639507,0.973713,-0.00672711,-0.000871287,0.0978236,1,4.65271e-05,-1.0112e-05,2.01892e-05,0.00930541,-0.0020224,0.00403784,0,0,0,0,0.0777481,0.521442,-0.970571,33.8125,1,51812,18433448
117,2,-0.679672,-0.0879884,9.79292,0.0225119,-0.637392,0.975816,-0.00679628,-0.000890229,0.0979291,1,5.15637e-05,2.06598e-06,1.80582e-05,0.0103127,0.000413195,0.00361164,0,0,0,0,0.0796246,0.525798,-0.969473,33.8125,1,51813,18433548
117,3,-0.679672,-0.0879884,9.79292,0.0225119,-0.637392,0.975816,-0.00679628,-0.000890229,0.0979291,1,5.15637e-05,2.06598e-06,1.80582e-05,0.0103127,0.000413195,0.00361164,0,0,0,0,0.0796246,0.525798,-0.969473,33.8125,1,51813,18433548
117,4,-0.690478,-0.0825201,9.78423,0.00617206,-0.63328,0.967255,-0.00690854,-0.000834797,0.097842,1,4.76071e-05,-1.93885e-05,2.02919e-05,0.00952143,-0.0038777,0.00405837,0,0,0,0,0.08088,0.529779,-0.974441,33.8125,1,51814,18433648
117,5,-0.690478,-0.0825201,9.78423,0.00617206,-0.63328,0.967255,-0.00690854,-0.000834797,0.097842,1,4.76071e-05,-1.93885e-05,2.02919e-05,0.00952143,-0.0038777,0.00405837,0,0,0,0,0.08088,0.529779,-0.974441,33.8125,1,51814,18433648
117,6,-0.673606,-0.0764533,9.79536,0.0207583,-0.634858,0.976076,-0.00673639,-0.000773025,0.0979535,1,4.15518e-05,-1.91881e-06,2.61423e-05,0.00831037,-0.000383761,0.00522845,0,0,0,0,0.0793047,0.528923,-0.980513,33.8125,1,51815,18433748
118,1,-0.673606,-0.0764533,9.79536,0.0207583,-0.634858,0.976076,-0.00673639,-0.000773025,0.0979535,1,4.15518e-05,-1.91881e-06,2.61423e-05,0.00831037,-0.000383761,0.00522845,0,0,0,0,0.0793047,0.528923,-0.980513,33.8125,1,51815,18433748
118,2,-0.662198,-0.0864646,9.78944,0.0354425,-0.644197,0.973794,-0.00662371,-0.000873695,0.0978942,1,4.52066e-05,-8.95865e-06,1.49642e-05,0.00904133,-0.00179173,0.00299284,0,0,0,0,0.0774325,0.525046,-0.981096,33.8125,1,51816,18433848
118,3,-0.662198,-0.0864646,9.78944,0.0354425,-0.644197,0.973794,-0.00662371,-0.000873695,0.0978942,1,4.52066e-05,-8.95865e-06,1.49642e-05,0.00904133,-0.00179173,0.00299284,0,0,0,0,0.0774325,0.525046,-0.981096,33.8125,1,51816,18433848
118,4,-0.678635,-0.0886459,9.78545,0.0195432,-0.645061,0.973179,-0.00678909,-0.00089524,0.0978542,1,4.41111e-05,-1.41095e-05,1.09247e-05,0.00882221,-0.0028219,0.00218495,0,0,0,0,0.0746848,0.522559,-0.977098,33.8125,3,51817,18433948
118,5,-0.678635,-0.0886459,9.78545,0.0195432,-0.645061,0.973179,-0.00678909,-0.00089524,0.0978542,1,4.41111e-05,-1.41095e-05,1.09247e-05,0.00882221,-0.0028219,0.00218495,0,0,0,0,0.0746848,0.522559,-0.977098,33.8125,3,51817,18433948
118,6,-0.661025,-0.0823744,9.79284,0.0383203,-0.638507,0.984131,-0.00660998,-0.0008343,0.0979284,1,5.21987e-05,1.13814e-06,2.51495e-05,0.0104398,0.000227627,0.00502989,0,0,0,0,0.0768152,0.523356,-0.967999,33.8125,3,51818,18434048
119,1,-0.661025,-0.0823744,9.79284,0.0383203,-0.638507,0.984131,-0.00660998,-0.0008343,0.0979284,1,5.21987e-05,1.13814e-06,2.51495e-05,0.0104398,0.000227627,0.00502989,0,0,0,0,0.0768152,0.523356,-0.967999,33.8125,3,51818,18434048
119,2,-0.670116,-0.0849728,9.79492,0.0312053,-0.639024,0.97354,-0.00670157,-0.000858107,0.0979491,1,4.06709e-05,-2.35792e-06,3.0728e-05,0.00813418,-0.000471584,0.0061456,0,0,0,0,0.0810969,0.526247,-0.967954,33.8125,3,51819,18434148
119,3,-0.670116,-0.0849728,9.79492,0.0312053,-0.639024,0.97354,-0.00670157,-0.000858107,0.0979491,1,4.06709e-05,-2.35792e-06,3.0728e-05,0.00813418,-0.000471584,0.0061456,0,0,0,0,0.0810969,0.526247,-0.967954,33.8125,3,51819,18434148
119,4,-0.663669,-0.0819643,9.78202,0.0341525,-0.638825,0.960681,-0.00663894,-0.000829334,0.09782,1,4.83729e-05,-1.16266e-05,1.714e-05,0.00967459,-0.00232533,0.00342799,0,0,0,0,0.0823105,0.52833,-0.975995,33.8125,3,51820,18434248
119,5,-0.663669,-0.0819643,9.78202,0.0341525,-0.638825,0.960681,-0.00663894,-0.000829334,0.09782,1,4.83729e-05,-1.16266e-05,1.714e-05,0.00967459,-0.00232533,0.00342799,0,0,0,0,0.0823105,0.52833,-0.975995,33.8125,3,51820,18434248
119,6,-0.682439,-0.09112,9.78613,0.0126022,-0.649136,0.967261,-0.00682536,-0.000920281,0.0978611,1,4.4735e-05,-5.19495e-06,2.38291e-05,0.008947,-0.00103899,0.00476583,0,0,0,0,0.0797693,0.528449,-0.981536,33.8125,3,51821,18434348
119,7,-0.682439,-0.09112,9.78613,0.0126022,-0.649136,0.967261,-0.00682536,-0.000920281,0.0978611,1,4.4735e-05,-5.19495e-06,2.38291e-05,0.008947,-0.00103899,0.00476583,0,0,0,0,0.0797693,0.528449,-0.981536,33.8125,3,51821,18434348
119,8,-0.667727,-0.0943829,9.78973,0.0268863,-0.656202,0.972736,-0.00667835,-0.00095244,0.0978972,1,4.20044e-05,-5.81303e-06,2.89868e-05,0.00840088,-0.00116261,0.00579735,0,0,0,0,0.0769552,0.524083,-0.98162,33.8125,3,51822,18434448
120,1,-0.667727,-0.0943829,9.78973,0.0268863,-0.656202,0.972736,-0.00667835,-0.00095244,0.0978972,1,4.20044e-05,-5.81303e-06,2.89868e-05,0.00840088,-0.00116261,0.00579735,0,0,0,0,0.0769552,0.524083,-0.98162,33.8125,3,51822,18434448
120,2,-0.664457,-0.0789548,9.78374,0.0327744,-0.642136,0.978817,-0.00664422,-0.000799537,0.0978373,1,4.95781e-05,1.62392e-06,2.16493e-05,0.00991563,0.000324783,0.00432985,0,0,0,0,0.0756756,0.521567,-0.976619,33.8125,3,51823,18434548
120,3,-0.664457,-0.0789548,9.78374,0.0327744,-0.642136,0.978817,-0.00664422,-0.000799537,0.0978373,1,4.95781e-05,1.62392e-06,2.16493e-05,0.00991563,0.000324783,0.00432985,0,0,0,0,0.0756756,0.521567,-0.976619,33.8125,3,51823,18434548
120,4,-0.662933,-0.0921697,9.79074,0.0401296,-0.648887,0.982962,-0.00663024,-0.000928042,0.0979073,1,3.16948e-05,-4.74052e-06,1.0455e-05,0.00633895,-0.000948105,0.002091,0,0,0,0,0.0777689,0.522391,-0.969035,33.8125,3,51824,18434648
120,5,-0.662933,-0.0921697,9.79074,0.0401296,-0.648887,0.982962,-0.00663024,-0.000928042,0.0979073,1,3.16948e-05,-4.74052e-06,1.0455e-05,0.00633895,-0.000948105,0.002091,0,0,0,0,0.0777689,0.522391,-0.969035,33.8125,3,51824,18434648
120,6,-0.663911,-0.0870787,9.79452,0.0315448,-0.643824,0.977096,-0.00664196,-0.00087669,0.097945,1,2.8435e-05,-1.47858e-05,2.5116e-05,0.00568701,-0.00295716,0.00502319,0,0,0,0,0.0805664,0.526287,-0.969971,33.8125,3,51825,18434748
120,7,-0.663911,-0.0870787,9.79452,0.0315448,-0.643824,0.977096,-0.00664196,-0.00087669,0.097945,1,2.8435e-05,-1.47858e-05,2.5116e-05,0.00568701,-0.00295716,0.00502319,0,0,0,0,0.0805664,0.526287,-0.969971,33.8125,3,51825,18434748
120,8,-0.67121,-0.0886042,9.79116,0.026719,-0.645889,0.971093,-0.00671094,-0.000896649,0.0979116,1,5.26011e-05,5.69603e-06,2.28211e-05,0.0105202,0.00113921,0.00456421,0,0,0,0,0.0818052,0.529798,-0.97596,33.8125,3,51826,18434848
121,1,-0.67121,-0.0886042,9.79116,0.026719,-0.645889,0.971093,-0.00671094,-0.000896649,0.0979116,1,5.26011e-05,5.69603e-06,2.28211e-05,0.0105202,0.00113921,0.00456421,0,0,0,0,0.0818052,0.529798,-0.97596,33.8125,3,51826,18434848
121,2,-0.675013,-0.0790009,9.7811,0.0154338,-0.640428,0.965485,-0.00675169,-0.00079907,0.0978108,1,4.47463e-05,-8.19363e-06,2.28287e-05,0.00894926,-0.00163873,0.00456575,0,0,0,0,0.08023,0.528942,-0.982032,33.8125,3,51827,18434948
121,3,-0.675013,-0.0790009,9.7811,0.0154338,-0.640428,0.965485,-0.00675169,-0.00079907,0.0978108,1,4.47463e-05,-8.19363e-06,2.28287e-05,0.00894926,-0.00163873,0.00456575,0,0,0,0,0.08023,0.528942,-0.982032,33.8125,3,51827,18434948
121,4,-0.672153,-0.0808974,9.79158,0.0260456,-0.641496,0.976332,-0.00672306,-0.000817358,0.0979156,1,4.15035e-05,-7.94999e-06,1.9064e-05,0.0083007,-0.00159,0.0038128,0,0,0,0,0.0778804,0.524103,-0.983139,33.8125,3,51828,18435048
121,5,-0.672153,-0.0808974,9.79158,0.0260456,-0.641496,0.976332,-0.00672306,-0.000817358,0.0979156,1,4.15035e-05,-7.94999e-06,1.9064e-05,0.0083007,-0.00159,0.0038128,0,0,0,0,0.0778804,0.524103,-0.983139,33.8125,3,51828,18435048
121,6,-0.661706,-0.0818623,9.78472,0.0308603,-0.643578,0.974105,-0.00661799,-0.000825868,0.097847,1,3.56994e-05,-4.92511e-06,1.95857e-05,0.00713989,-0.000985022,0.00391714,0,0,0,0,0.0771351,0.520579,-0.976648,33.8125,3,51829,18435148
122,1,-0.661706,-0.0818623,9.78472,0.0308603,-0.643578,0.974105,-0.00661799,-0.000825868,0.097847,1,3.56994e-05,-4.92511e-06,1.95857e-05,0.00713989,-0.000985022,0.00391714,0,0,0,0,0.0771351,0.520579,-0.976648,33.8125,3,51829,18435148
122,2,-0.669426,-0.0807637,9.79089,0.0286869,-0.638222,0.979736,-0.0066954,-0.000817609,0.0979087,1,4.97998e-05,-5.942e-06,1.6445e-05,0.00995995,-0.0011884,0.00328901,0,0,0,0,0.0777647,0.521912,-0.969551,33.8125,3,51830,18435248
122,3,-0.669426,-0.0807637,9.79089,0.0286869,-0.638222,0.979736,-0.0066954,-0.000817609,0.0979087,1,4.97998e-05,-5.942e-06,1.6445e-05,0.00995995,-0.0011884,0.00328901,0,0,0,0,0.0777647,0.521912,-0.969551,33.8125,3,51830,18435248
122,4,-0.679999,-0.0869295,9.79158,0.0209888,-0.642385,0.975306,-0.00680098,-0.000879921,0.0979156,1,5.30108e-05,-5.20233e-06,1.79952e-05,0.0106022,-0.00104047,0.00359904,0,0,0,0,0.0781774,0.526777,-0.968939,33.8125,3,51831,18435348
123,1,-0.679999,-0.0869295,9.79158,0.0209888,-0.642385,0.975306,-0.00680098,-0.000879921,0.0979156,1,5.30108e-05,-5.20233e-06,1.79952e-05,0.0106022,-0.00104047,0.00359904,0,0,0,0,0.0781774,0.526777,-0.968939,33.8125,3,51831,18435348
123,2,-0.674165,-0.0834968,9.78717,0.0271281,-0.641148,0.962903,-0.00674384,-0.000844938,0.0978714,1,4.94384e-05,-1.13882e-05,2.1722e-05,0.00988768,-0.00227765,0.00434439,0,0,0,0,0.0799011,0.529317,-0.975457,33.8125,3,51832,18435448
124,1,-0.674165,-0.0834968,9.78717,0.0271281,-0.641148,0.962903,-0.00674384,-0.000844938,0.0978714,1,4.94384e-05,-1.13882e-05,2.1722e-05,0.00988768,-0.00227765,0.00434439,0,0,0,0,0.0799011,0.529317,-0.975457,33.8125,3,51832,18435448
124,2,-0.673925,-0.0968583,9.79282,0.0241054,-0.65879,0.969598,-0.00674365,-0.000978309,0.0979278,1,4.85853e-05,-2.26125e-05,1.56015e-05,0.00971706,-0.00452249,0.00312029,0,0,0,0,0.0802053,0.52896,-0.983042,33.8125,3,51833,18435548
124,3,-0.673925,-0.0968583,9.79282,0.0241054,-0.65879,0.969598,-0.00674365,-0.000978309,0.0979278,1,4.85853e-05,-2.26125e-05,1.56015e-05,0.00971706,-0.00452249,0.00312029,0,0,0,0,0.0802053,0.52896,-0.983042,33.8125,3,51833,18435548
124,4,-0.675152,-0.089348,9.79051,0.0192572,-0.657273,0.971709,-0.00675282,-0.000901531,0.097905,1,4.04362e-05,-6.71302e-06,9.92225e-06,0.00808723,-0.0013426,0.00198445,0,0,0,0,0.0783497,0.525553,-0.982604,33.8125,3,51834,18435648
125,1,-0.675152,-0.089348,9.79051,0.0192572,-0.657273,0.971709,-0.00675282,-0.000901531,0.097905,1,4.04362e-05,-6.71302e-06,9.92225e-06,0.00808723,-0.0013426,0.00198445,0,0,0,0,0.0783497,0.525553,-0.982604,33.8125,3,51834,18435648
125,2,-0.669364,-0.0894233,9.79149,0.0298841,-0.658037,0.982045,-0.0066953,-0.000906045,0.0979147,1,5.95263e-05,-8.60408e-06,1.15689e-05,0.0119053,-0.00172082,0.00231378,0,0,0,0,0.0756884,0.523003,-0.975072,33.8125,3,51835,18435748
126,1,-0.669364,-0.0894233,9.79149,0.0298841,-0.658037,0.982045,-0.0066953,-0.000906045,0.0979147,1,5.95263e-05,-8.60408e-06,1.15689e-05,0.0119053,-0.00172082,0.00231378,0,0,0,0,0.0756884,0.523003,-0.975072,33.8125,3,51835,18435748
126,2,-0.675908,-0.0786634,9.78348,0.0264203,-0.642683,0.972041,-0.00676137,-0.000795683,0.0978346,1,4.47613e-05,-1.19005e-05,2.14855e-05,0.00895225,-0.0023801,0.0042971,0,0,0,0,0.0787596,0.521398,-0.968557,33.8125,3,51836,18435848
127,1,-0.675908,-0.0786634,9.78348,0.0264203,-0.642683,0.972041,-0.00676137,-0.000795683,0.0978346,1,4.47613e-05,-1.19005e-05,2.14855e-05,0.00895225,-0.0023801,0.0042971,0,0,0,0,0.0787596,0.521398,-0.968557,33.8125,3,51836,18435848
127,2,-0.679291,-0.0808456,9.79061,0.0190669,-0.644739,0.974994,-0.00679493,-0.000818039,0.0979059,1,4.74192e-05,-1.05145e-05,2.18972e-05,0.00948385,-0.0021029,0.00437945,0,0,0,0,0.0815732,0.524319,-0.969515,33.8125,3,51837,18435948
127,3,-0.679291,-0.0808456,9.79061,0.0190669,-0.644739,0.974994,-0.00679493,-0.000818039,0.0979059,1,4.74192e-05,-1.05145e-05,2.18972e-05,0.00948385,-0.0021029,0.00437945,0,0,0,0,0.0815732,0.524319,-0.969515,33.8125,3,51837,18435948
127,4,-0.665043,-0.0900845,9.7884,0.0323977,-0.653153,0.964746,-0.00665056,-0.000907451,0.0978839,1,3.31905e-05,-7.6573e-07,8.10991e-06,0.00663809,-0.000153146,0.00162198,0,0,0,0,0.0828002,0.529284,-0.974966,33.8125,3,51838,18436048
127,5,-0.665043,-0.0900845,9.7884,0.0323977,-0.653153,0.964746,-0.00665056,-0.000907451,0.0978839,1,3.31905e-05,-7.6573e-07,8.10991e-06,0.00663809,-0.000153146,0.00162198,0,0,0,0,0.0828002,0.529284,-0.974966,33.8125,3,51838,18436048
127,6,-0.662943,-0.0902908,9.79042,0.0285483,-0.656328,0.972147,-0.0066295,-0.000911121,0.0979041,1,4.09186e-05,-4.97687e-07,1.51096e-05,0.00818372,-9.95375e-05,0.00302192,0,0,0,0,0.0802176,0.528951,-0.982537,33.8125,3,51839,18436148
128,1,-0.662943,-0.0902908,9.79042,0.0285483,-0.656328,0.972147,-0.0066295,-0.000911121,0.0979041,1,4.09186e-05,-4.97687e-07,1.51096e-05,0.00818372,-9.95375e-05,0.00302192,0,0,0,0,0.0802176,0.528951,-0.982537,33.8125,3,51839,18436148
128,2,-0.660128,-0.0940002,9.79376,0.0384624,-0.669902,0.976013,-0.00660352,-0.000950712,0.0979373,1,5.33256e-05,-1.16009e-05,2.00682e-05,0.0106651,-0.00232019,0.00401363,0,0,0,0,0.0778766,0.525069,-0.982612,33.8125,3,51840,18436248
129,1,-0.660128,-0.0940002,9.79376,0.0384624,-0.669902,0.976013,-0.00660352,-0.000950712,0.0979373,1,5.33256e-05,-1.16009e-05,2.00682e-05,0.0106651,-0.00232019,0.00401363,0,0,0,0,0.0778766,0.525069,-0.982612,33.8125,3,51840,18436248
129,2,-0.668404,-0.0750836,9.79195,0.0291126,-0.642182,0.980831,-0.00668663,-0.000758225,0.0979193,1,3.81786e-05,-1.31987e-05,-6.56972e-06,0.00763572,-0.00263974,-0.00131394,0,0,0,0,0.0766093,0.522543,-0.977107,33.8125,3,51841,18436348
129,3,-0.668404,-0.0750836,9.79195,0.0291126,-0.642182,0.980831,-0.00668663,-0.000758225,0.0979193,1,3.81786e-05,-1.31987e-05,-6.56972e-06,0.00763572,-0.00263974,-0.00131394,0,0,0,0,0.0766093,0.522543,-0.977107,33.8125,3,51841,18436348
129,4,-0.659825,-0.0851222,9.78638,0.0388426,-0.650123,0.975336,-0.00660113,-0.000859034,0.0978636,1,3.90429e-05,-1.48248e-05,1.29024e-05,0.00780858,-0.00296496,0.00258049,0,0,0,0,0.0763583,0.521897,-0.968029,33.8125,3,51842,18436448
129,5,-0.659825,-0.0851222,9.78638,0.0388426,-0.650123,0.975336,-0.00660113,-0.000859034,0.0978636,1,3.90429e-05,-1.48248e-05,1.29024e-05,0.00780858,-0.00296496,0.00258049,0,0,0,0,0.0763583,0.521897,-0.968029,33.8125,3,51842,18436448
129,6,-0.661945,-0.0931452,9.79276,0.035449,-0.660902,0.979904,-0.00662046,-0.000939736,0.0979275,1,4.08198e-05,-5.39036e-06,2.18751e-05,0.00816396,-0.00107807,0.00437501,0,0,0,0,0.0796535,0.526259,-0.967947,33.8125,3,51843,18436548
130,1,-0.661945,-0.0931452,9.79276,0.035449,-0.660902,0.979904,-0.00662046,-0.000939736,0.0979275,1,4.08198e-05,-5.39036e-06,2.18751e-05,0.00816396,-0.00107807,0.00437501,0,0,0,0,0.0796535,0.526259,-0.967947,33.8125,3,51843,18436548
130,2,-0.673074,-0.0915108,9.80065,0.0259376,-0.653963,0.978343,-0.00673075,-0.000923846,0.0980064,1,4.37685e-05,-1.4529e-07,1.18406e-05,0.0087537,-2.90579e-05,0.00236813,0,0,0,0,0.0827921,0.529772,-0.974955,33.8125,3,51844,18436648
130,3,-0.673074,-0.0915108,9.80065,0.0259376,-0.653963,0.978343,-0.00673075,-0.000923846,0.0980064,1,4.37685e-05,-1.4529e-07,1.18406e-05,0.0087537,-2.90579e-05,0.00236813,0,0,0,0,0.0827921,0.529772,-0.974955,33.8125,3,51844,18436648
130,4,-0.669487,-0.0833064,9.79357,0.0279122,-0.649889,0.971328,-0.00669511,-0.000840335,0.0979356,1,3.64836e-05,-1.30756e-06,9.32808e-06,0.00729673,-0.000261513,0.00186562,0,0,0,0,0.0807315,0.528441,-0.981541,33.8125,3,51845,18436748
130,5,-0.669487,-0.0833064,9.79357,0.0279122,-0.649889,0.971328,-0.00669511,-0.000840335,0.0979356,1,3.64836e-05,-1.30756e-06,9.32808e-06,0.00729673,-0.000261513,0.00186562,0,0,0,0,0.0807315,0.528441,-0.981541,33.8125,3,51845,18436748
130,6,-0.65159,-0.064738,9.777,0.0417679,-0.63175,0.962103,-0.00651836,-0.000656566,0.0977697,1,4.62719e-05,-1.26584e-05,1.05779e-05,0.00925437,-0.00253169,0.00211558,0,0,0,0,0.0779174,0.524076,-0.981625,33.8125,3,51846,18436848
131,1,-0.65159,-0.064738,9.777,0.0417679,-0.63175,0.962103,-0.00651836,-0.000656566,0.0977697,1,4.62719e-05,-1.26584e-05,1.05779e-05,0.00925437,-0.00253169,0.00211558,0,0,0,0,0.0779174,0.524076,-0.981625,33.8125,3,51846,18436848
131,2,-0.671323,-0.0737191,9.77908,0.0261635,-0.641519,0.965688,-0.00671491,-0.000748367,0.0977906,1,5.56633e-05,-8.75762e-06,2.15622e-05,0.0111327,-0.00175153,0.00431244,0,0,0,0,0.0747541,0.520581,-0.975627,33.8125,3,51847,18436948
132,1,-0.671323,-0.0737191,9.77908,0.0261635,-0.641519,0.965688,-0.00671491,-0.000748367,0.0977906,1,5.56633e-05,-8.75762e-06,2.15622e-05,0.0111327,-0.00175153,0.00431244,0,0,0,0,0.0747541,0.520581,-0.975627,33.8125,3,51847,18436948
132,2,-0.682104,-0.10822,9.80702,0.0161758,-0.675324,1.0006,-0.00682245,-0.00109432,0.0980699,1,6.0385e-05,-7.42454e-06,2.00126e-05,0.012077,-0.00148491,0.00400251,0,0,0,0,0.0758649,0.52191,-0.968532,33.8125,3,51848,18437048
132,3,-0.682104,-0.10822,9.80702,0.0161758,-0.675324,1.0006,-0.00682245,-0.00109432,0.0980699,1,6.0385e-05,-7.42454e-06,2.00126e-05,0.012077,-0.00148491,0.00400251,0,0,0,0,0.0758649,0.52191,-0.968532,33.8125,3,51848,18437048
132,4,-0.677511,-0.0939482,9.79286,0.0186682,-0.663577,0.973767,-0.00677549,-0.000947076,0.0979285,1,3.83966e-05,-2.00428e-06,5.3847e-06,0.00767932,-0.000400857,0.00107694,0,0,0,0,0.080118,0.525785,-0.96897,33.8125,3,51849,18437148
132,5,-0.677511,-0.0939482,9.79286,0.0186682,-0.663577,0.973767,-0.00677549,-0.000947076,0.0979285,1,3.83966e-05,-2.00428e-06,5.3847e-06,0.00767932,-0.000400857,0.00107694,0,0,0,0,0.080118,0.525785,-0.96897,33.8125,3,51849,18437148
132,6,-0.666443,-0.0814619,9.78373,0.0314686,-0.646841,0.958701,-0.00666707,-0.000820712,0.0978371,1,2.99083e-05,-1.36158e-05,1.80754e-05,0.00598166,-0.00272316,0.00361508,0,0,0,0,0.0832813,0.52928,-0.974968,33.8125,3,51850,18437248
133,1,-0.666443,-0.0814619,9.78373,0.0314686,-0.646841,0.958701,-0.00666707,-0.000820712,0.0978371,1,2.99083e-05,-1.36158e-05,1.80754e-05,0.00598166,-0.00272316,0.00361508,0,0,0,0,0.0832813,0.52928,-0.974968,33.8125,3,51850,18437248
133,2,-0.674826,-0.0987245,9.78636,0.0196039,-0.667431,0.962927,-0.00674892,-0.000993886,0.0978635,1,3.34326e-05,-3.41809e-06,7.1898e-06,0.00668652,-0.000683619,0.00143796,0,0,0,0,0.0797323,0.528476,-0.98305,33.8125,3,51851,18437348
133,3,-0.674826,-0.0987245,9.78636,0.0196039,-0.667431,0.962927,-0.00674892,-0.000993886,0.0978635,1,3.34326e-05,-3.41809e-06,7.1898e-06,0.00668652,-0.000683619,0.00143796,0,0,0,0,0.0797323,0.528476,-0.98305,33.8125,3,51851,18437348
133,4,-0.675942,-0.0878119,9.7912,0.0203681,-0.662204,0.978578,-0.00676003,-0.000883513,0.0979119,1,2.68388e-05,-3.23912e-06,1.02353e-05,0.00536776,-0.000647824,0.00204707,0,0,0,0,0.0764532,0.523139,-0.983154,33.8125,3,51852,18437448
134,1,-0.675942,-0.0878119,9.7912,0.0203681,-0.662204,0.978578,-0.00676003,-0.000883513,0.0979119,1,2.68388e-05,-3.23912e-06,1.02353e-05,0.00536776,-0.000647824,0.00204707,0,0,0,0,0.0764532,0.523139,-0.983154,33.8125,3,51852,18437448
134,2,-0.670815,-0.0807288,9.79259,0.0271099,-0.650592,0.987345,-0.00670912,-0.000818392,0.0979257,1,5.53727e-05,-5.10561e-06,1.92969e-05,0.0110745,-0.00102112,0.00385938,0,0,0,0,0.0761937,0.521535,-0.975107,33.8125,3,51853,18437548
134,3,-0.670815,-0.0807288,9.79259,0.0271099,-0.650592,0.987345,-0.00670912,-0.000818392,0.0979257,1,5.53727e-05,-5.10561e-06,1.92969e-05,0.0110745,-0.00102112,0.00385938,0,0,0,0,0.0761937,0.521535,-0.975107,33.8125,3,51853,18437548
134,4,-0.668644,-0.0926546,9.79146,0.0287156,-0.662683,0.977461,-0.00668834,-0.000935792,0.0979144,1,4.64227e-05,-9.81794e-06,1.16024e-05,0.00928454,-0.00196359,0.00232048,0,0,0,0,0.0768067,0.522399,-0.96903,33.8125,3,51854,18437648
135,1,-0.668644,-0.0926546,9.79146,0.0287156,-0.662683,0.977461,-0.00668834,-0.000935792,0.0979144,1,4.64227e-05,-9.81794e-06,1.16024e-05,0.00928454,-0.00196359,0.00232048,0,0,0,0,0.0768067,0.522399,-0.96903,33.8125,3,51854,18437648
135,2,-0.666644,-0.0908761,9.78365,0.0308291,-0.661004,0.967249,-0.00666901,-0.000919017,0.0978363,1,5.25172e-05,-1.31227e-05,-1.54041e-06,0.0105034,-0.00262454,-0.000308082,0,0,0,0,0.079115,0.526787,-0.969954,33.8125,3,51855,18437748
135,3,-0.666644,-0.0908761,9.78365,0.0308291,-0.661004,0.967249,-0.00666901,-0.000919017,0.0978363,1,5.25172e-05,-1.31227e-05,-1.54041e-06,0.0105034,-0.00262454,-0.000308082,0,0,0,0,0.079115,0.526787,-0.969954,33.8125,3,51855,18437748
135,4,-0.670202,-0.103849,9.80256,0.023928,-0.670904,0.982956,-0.00670376,-0.00104745,0.0980254,1,4.5063e-05,-8.93329e-06,9.24431e-06,0.00901259,-0.00178666,0.00184886,0,0,0,0,0.0818256,0.529301,-0.975466,33.8125,3,51856,18437848
135,5,-0.670202,-0.103849,9.80256,0.023928,-0.670904,0.982956,-0.00670376,-0.00104745,0.0980254,1,4.5063e-05,-8.93329e-06,9.24431e-06,0.00901259,-0.00178666,0.00184886,0,0,0,0,0.0818256,0.529301,-0.975466,33.8125,3,51856,18437848
135,6,-0.668047,-0.0872982,9.79319,0.0249203,-0.660994,0.973699,-0.00668187,-0.00088189,0.0979317,1,4.4018e-05,-7.3816e-06,2.14391e-05,0.0088036,-0.00147632,0.00428782,0,0,0,0,0.0792924,0.528932,-0.981018,33.8125,3,51857,18437948
136,1,-0.668047,-0.0872982,9.79319,0.0249203,-0.660994,0.973699,-0.00668187,-0.00088189,0.0979317,1,4.4018e-05,-7.3816e-06,2.14391e-05,0.0088036,-0.00147632,0.00428782,0,0,0,0,0.0792924,0.528932,-0.981018,33.8125,3,51857,18437948
136,2,-0.663642,-0.0766,9.79123,0.0321549,-0.648446,0.975012,-0.00663872,-0.000775657,0.097912,1,4.76818e-05,-1.19007e-05,2.40913e-05,0.00953637,-0.00238015,0.00481827,0,0,0,0,0.0764907,0.524557,-0.980597,33.8125,3,51858,18438048
136,3,-0.663642,-0.0766,9.79123,0.0321549,-0.648446,0.975012,-0.00663872,-0.000775657,0.097912,1,4.76818e-05,-1.19007e-05,2.40913e-05,0.00953637,-0.00238015,0.00481827,0,0,0,0,0.0764907,0.524557,-0.980597,33.8125,3,51858,18438048
136,4,-0.671438,-0.0889752,9.79117,0.0270262,-0.66801,0.975666,-0.00671483,-0.000899204,0.0979116,1,4.69294e-05,-2.49035e-06,1.95073e-05,0.00938589,-0.00049807,0.00390145,0,0,0,0,0.0752557,0.52008,-0.975135,33.8125,3,51859,18438148
136,5,-0.671438,-0.0889752,9.79117,0.0270262,-0.66801,0.975666,-0.00671483,-0.000899204,0.0979116,1,4.69294e-05,-2.49035e-06,1.95073e-05,0.00938589,-0.00049807,0.00390145,0,0,0,0,0.0752557,0.52008,-0.975135,33.8125,3,51859,18438148
136,6,-0.662749,-0.0811016,9.79049,0.034346,-0.652543,0.974366,-0.00662664,-0.000819001,0.0979049,1,3.99164e-05,4.27704e-06,1.27851e-05,0.00798329,0.000855408,0.00255702,0,0,0,0,0.0782539,0.52142,-0.969564,33.8125,3,51860,18438248
137,1,-0.662749,-0.0811016,9.79049,0.034346,-0.652543,0.974366,-0.00662664,-0.000819001,0.0979049,1,3.99164e-05,4.27704e-06,1.27851e-05,0.00798329,0.000855408,0.00255702,0,0,0,0,0.0782539,0.52142,-0.969564,33.8125,3,51860,18438248
137,2,-0.663658,-0.0879697,9.78739,0.0315558,-0.657043,0.969388,-0.00663895,-0.000889253,0.0978736,1,4.746e-05,-1.22883e-05,2.0003e-05,0.00949201,-0.00245767,0.00400061,0,0,0,0,0.080053,0.528242,-0.969926,33.8125,3,51861,18438348
138,1,-0.663658,-0.0879697,9.78739,0.0315558,-0.657043,0.969388,-0.00663895,-0.000889253,0.0978736,1,4.746e-05,-1.22883e-05,2.0003e-05,0.00949201,-0.00245767,0.00400061,0,0,0,0,0.080053,0.528242,-0.969926,33.8125,3,51861,18438348
138,2,-0.66273,-0.0875857,9.78569,0.0317764,-0.653975,0.961297,-0.00662812,-0.000883829,0.0978568,1,3.94396e-05,-4.33606e-06,1.91091e-05,0.00788791,-0.000867211,0.00382181,0,0,0,0,0.080843,0.529806,-0.975955,33.8125,3,51862,18438448
138,3,-0.66273,-0.0875857,9.78569,0.0317764,-0.653975,0.961297,-0.00662812,-0.000883829,0.0978568,1,3.94396e-05,-4.33606e-06,1.91091e-05,0.00788791,-0.000867211,0.00382181,0,0,0,0,0.080843,0.529806,-0.975955,33.8125,3,51862,18438448
138,4,-0.673445,-0.079079,9.78754,0.0228239,-0.659611,0.966924,-0.00673865,-0.000798998,0.097875,1,4.1848e-05,-2.14503e-05,1.2275e-06,0.00836961,-0.00429006,0.0002455,0,0,0,0,0.0782808,0.528976,-0.983033,33.8125,3,51863,18438548
138,5,-0.673445,-0.079079,9.78754,0.0228239,-0.659611,0.966924,-0.00673865,-0.000798998,0.097875,1,4.1848e-05,-2.14503e-05,1.2275e-06,0.00836961,-0.00429006,0.0002455,0,0,0,0,0.0782808,0.528976,-0.983033,33.8125,3,51863,18438548
138,6,-0.660667,-0.0864361,9.78331,0.0358705,-0.667069,0.966578,-0.00660689,-0.000873666,0.097833,1,4.64228e-05,-1.27562e-06,1.68122e-05,0.00928455,-0.000255124,0.00336243,0,0,0,0,0.0755,0.52555,-0.981076,33.8125,3,51864,18438648
139,1,-0.660667,-0.0864361,9.78331,0.0358705,-0.667069,0.966578,-0.00660689,-0.000873666,0.097833,1,4.64228e-05,-1.27562e-06,1.68122e-05,0.00928455,-0.000255124,0.00336243,0,0,0,0,0.0755,0.52555,-0.981076,33.8125,3,51864,18438648
139,2,-0.659697,-0.0913022,9.79108,0.0415864,-0.670645,0.977863,-0.00660035,-0.000920766,0.0979105,1,3.91398e-05,-1.72927e-05,6.00316e-06,0.00782797,-0.00345853,0.00120063,0,0,0,0,0.0756722,0.523978,-0.975051,33.8125,3,51865,18438748
139,3,-0.659697,-0.0913022,9.79108,0.0415864,-0.670645,0.977863,-0.00660035,-0.000920766,0.0979105,1,3.91398e-05,-1.72927e-05,6.00316e-06,0.00782797,-0.00345853,0.00120063,0,0,0,0,0.0756722,0.523978,-0.975051,33.8125,3,51865,18438748
139,4,-0.675405,-0.094176,9.79488,0.0232763,-0.669581,0.983796,-0.00675685,-0.000950479,0.0979485,1,4.41149e-05,-1.4346e-05,5.685e-06,0.00882298,-0.0028692,0.001137,0,0,0,0,0.0777409,0.524821,-0.968476,33.8125,3,51866,18438848
139,5,-0.675405,-0.094176,9.79488,0.0232763,-0.669581,0.983796,-0.00675685,-0.000950479,0.0979485,1,4.41149e-05,-1.4346e-05,5.685e-06,0.00882298,-0.0028692,0.001137,0,0,0,0,0.0777409,0.524821,-0.968476,33.8125,3,51866,18438848
139,6,-0.678031,-0.0856833,9.79156,0.0192778,-0.662003,0.972682,-0.00678066,-0.000864385,0.0979156,1,3.76384e-05,-1.88686e-06,1.34001e-05,0.00752768,-0.000377372,0.00268002,0,0,0,0,0.079588,0.527271,-0.969945,33.8125,3,51867,18438948
139,7,-0.678031,-0.0856833,9.79156,0.0192778,-0.662003,0.972682,-0.00678066,-0.000864385,0.0979156,1,3.76384e-05,-1.88686e-06,1.34001e-05,0.00752768,-0.000377372,0.00268002,0,0,0,0,0.079588,0.527271,-0.969945,33.8125,3,51867,18438948
139,8,-0.660516,-0.0874221,9.78873,0.0380982,-0.660296,0.964622,-0.00660747,-0.000884242,0.0978871,1,4.95576e-05,-1.20437e-05,2.41678e-05,0.00991152,-0.00240874,0.00483355,0,0,0,0,0.0803087,0.530812,-0.977445,33.8125,3,51868,18439048
140,1,-0.660516,-0.0874221,9.78873,0.0380982,-0.660296,0.964622,-0.00660747,-0.000884242,0.0978871,1,4.95576e-05,-1.20437e-05,2.41678e-05,0.00991152,-0.00240874,0.00483355,0,0,0,0,0.0803087,0.530812,-0.977445,33.8125,3,51868,18439048
140,2,-0.675844,-0.0948649,9.78945,0.0206869,-0.674663,0.968399,-0.00675852,-0.000957578,0.0978944,1,4.4724e-05,-5.45866e-07,1.27403e-05,0.0089448,-0.000109173,0.00254806,0,0,0,0,0.0806537,0.529462,-0.984043,33.8125,3,51869,18439148
141,1,-0.675844,-0.0948649,9.78945,0.0206869,-0.674663,0.968399,-0.00675852,-0.000957578,0.0978944,1,4.4724e-05,-5.45866e-07,1.27403e-05,0.0089448,-0.000109173,0.00254806,0,0,0,0,0.0806537,0.529462,-0.984043,33.8125,3,51869,18439148
141,2,-0.661887,-0.0827053,9.79659,0.0332671,-0.667898,0.980437,-0.00662152,-0.000832494,0.0979656,1,2.74013e-05,-1.35638e-05,5.48922e-06,0.00548027,-0.00271277,0.00109784,0,0,0,0,0.0793769,0.523088,-0.981653,33.8125,3,51870,18439248
141,3,-0.661887,-0.0827053,9.79659,0.0332671,-0.667898,0.980437,-0.00662152,-0.000832494,0.0979656,1,2.74013e-05,-1.35638e-05,5.48922e-06,0.00548027,-0.00271277,0.00109784,0,0,0,0,0.0793769,0.523088,-0.981653,33.8125,3,51870,18439248
141,4,-0.654525,-0.0822666,9.78399,0.039087,-0.661723,0.975087,-0.00654618,-0.000830141,0.0978398,1,3.64949e-05,-4.95243e-06,2.54772e-05,0.00729898,-0.000990486,0.00509544,0,0,0,0,0.0781424,0.520056,-0.975149,33.8125,3,51871,18439348
142,1,-0.654525,-0.0822666,9.78399,0.039087,-0.661723,0.975087,-0.00654618,-0.000830141,0.0978398,1,3.64949e-05,-4.95243e-06,2.54772e-05,0.00729898,-0.000990486,0.00509544,0,0,0,0,0.0781424,0.520056,-0.975149,33.8125,3,51871,18439348
142,2,-0.664362,-0.0932294,9.78871,0.0365664,-0.67075,0.974468,-0.00664377,-0.000942928,0.0978869,1,5.32511e-05,-8.97596e-07,1.56668e-05,0.0106502,-0.000179519,0.00313336,0,0,0,0,0.0796607,0.522881,-0.970043,33.8125,3,51872,18439448
142,3,-0.664362,-0.0932294,9.78871,0.0365664,-0.67075,0.974468,-0.00664377,-0.000942928,0.0978869,1,5.32511e-05,-8.97596e-07,1.56668e-05,0.0106502,-0.000179519,0.00313336,0,0,0,0,0.0796607,0.522881,-0.970043,33.8125,3,51872,18439448
142,4,-0.672158,-0.0864805,9.79119,0.0264498,-0.663357,0.972843,-0.00672139,-0.000875697,0.0979118,1,5.36592e-05,7.29998e-07,2.85802e-05,0.0107318,0.000146,0.00571603,0,0,0,0,0.0810152,0.528234,-0.96993,33.8125,3,51873,18439548
142,5,-0.672158,-0.0864805,9.79119,0.0264498,-0.663357,0.972843,-0.00672139,-0.000875697,0.0979118,1,5.36592e-05,7.29998e-07,2.85802e-05,0.0107318,0.000146,0.00571603,0,0,0,0,0.0810152,0.528234,-0.96993,33.8125,3,51873,18439548
142,6,-0.661601,-0.0913386,9.78802,0.0333625,-0.667025,0.966462,-0.0066182,-0.000921626,0.09788,1,4.049e-05,-1.13752e-05,2.3708e-05,0.008098,-0.00227505,0.00474161,0,0,0,0,0.0822944,0.529306,-0.975973,33.8125,3,51874,18439648
143,1,-0.661601,-0.0913386,9.78802,0.0333625,-0.667025,0.966462,-0.0066182,-0.000921626,0.09788,1,4.049e-05,-1.13752e-05,2.3708e-05,0.008098,-0.00227505,0.00474161,0,0,0,0,0.0822944,0.529306,-0.975973,33.8125,3,51874,18439648
