frame_id,imu_idx,accel_x,accel_y,accel_z,free_accel_x,free_accel_y,free_accel_z,delta_v_x,delta_v_y,delta_v_z,delta_q_w,delta_q_x,delta_q_y,delta_q_z,rate_x,rate_y,rate_z,quat_w,quat_x,quat_y,quat_z,mag_x,mag_y,mag_z,temperature,status_byte,packet_counter,time_fine
1,1,0,0,0,0,0,0,0,0,0,0,0,0,0,0,0,0,0,0,0,0,0,0,0,0,0,0,0
1,2,-0.494326,-0.0585792,7.33933,0,0,0,-0.0049437,-0.000590904,0.0733933,1,3.54647e-05,-2.97662e-06,-9.46245e-06,0.00709294,-0.000595324,-0.00189249,0,0,0,0,0.0268958,0.516325,-0.988127,34.375,1,36852,16936005
1,3,-0.494326,-0.0585792,7.33933,0,0,0,-0.0049437,-0.000590904,0.0733933,1,3.54647e-05,-2.97662e-06,-9.46245e-06,0.00709294,-0.000595324,-0.00189249,0,0,0,0,0.0268958,0.516325,-0.988127,34.375,1,36852,16936005
1,4,-0.660161,-0.0884559,9.79314,0.105424,-0.511289,0.993999,-0.00660331,-0.000893916,0.0979312,1,4.60407e-05,-8.92948e-06,2.5675e-05,0.00920814,-0.0017859,0.005135,0,0,0,0,0.0282979,0.515861,-0.990164,34.375,1,36853,16936105
1,5,-0.660161,-0.0884559,9.79314,0.105424,-0.511289,0.993999,-0.00660331,-0.000893916,0.0979312,1,4.60407e-05,-8.92948e-06,2.5675e-05,0.00920814,-0.0017859,0.005135,0,0,0,0,0.0282979,0.515861,-0.990164,34.375,1,36853,16936105
1,6,-0.66253,-0.0767518,9.78717,0.100477,-0.501972,0.990075,-0.0066279,-0.0007768,0.0978714,1,4.62105e-05,-1.34181e-05,1.78701e-05,0.0092421,-0.00268363,0.00357401,0,0,0,0,0.0292725,0.515844,-0.989664,34.375,1,36854,16936205
3,1,-0.66253,-0.0767518,9.78717,0.100477,-0.501972,0.990075,-0.0066279,-0.0007768,0.0978714,1,4.62105e-05,-1.34181e-05,1.78701e-05,0.0092421,-0.00268363,0.00357401,0,0,0,0,0.0292725,0.515844,-0.989664,34.375,1,36854,16936205
3,2,-0.659036,-0.0867302,9.7918,0.101893,-0.512244,0.996927,-0.00659304,-0.000876736,0.0979177,1,4.60129e-05,-1.3972e-05,3.20188e-05,0.00920258,-0.0027944,0.00640375,0,0,0,0,0.0302067,0.518266,-0.989109,34.375,1,36855,16936305
3,3,-0.659036,-0.0867302,9.7918,0.101893,-0.512244,0.996927,-0.00659304,-0.000876736,0.0979177,1,4.60129e-05,-1.3972e-05,3.20188e-05,0.00920258,-0.0027944,0.00640375,0,0,0,0,0.0302067,0.518266,-0.989109,34.375,1,36855,16936305
3,4,-0.664936,-0.0778662,9.79666,0.0960078,-0.506078,0.99902,-0.00665027,-0.000789091,0.0979665,1,5.16903e-05,-4.82821e-06,2.26441e-05,0.0103381,-0.000965643,0.00452883,0,0,0,0,0.029615,0.519796,-0.992608,34.375,1,36856,16936405
4,1,-0.664936,-0.0778662,9.79666,0.0960078,-0.506078,0.99902,-0.00665027,-0.000789091,0.0979665,1,5.16903e-05,-4.82821e-06,2.26441e-05,0.0103381,-0.000965643,0.00452883,0,0,0,0,0.029615,0.519796,-0.992608,34.375,1,36856,16936405
4,2,-0.660531,-0.0818794,9.78744,0.102571,-0.512755,0.989846,-0.00660708,-0.000828249,0.0978742,1,4.67952e-05,-9.22928e-06,2.2309e-05,0.00935904,-0.00184586,0.0044618,0,0,0,0,0.0286229,0.516453,-0.996213,34.375,1,36857,16936505
7,1,-0.660531,-0.0818794,9.78744,0.102571,-0.512755,0.989846,-0.00660708,-0.000828249,0.0978742,1,4.67952e-05,-9.22928e-06,2.2309e-05,0.00935904,-0.00184586,0.0044618,0,0,0,0,0.0286229,0.516453,-0.996213,34.375,1,36857,16936505
7,2,-0.657261,-0.0705751,9.78074,0.104712,-0.500939,0.986284,-0.00657513,-0.000713917,0.0978071,1,4.08478e-05,-1.29527e-05,1.33032e-05,0.00816956,-0.00259055,0.00266063,0,0,0,0,0.0277751,0.513968,-0.993234,34.375,1,36858,16936605
7,3,-0.657261,-0.0705751,9.78074,0.104712,-0.500939,0.986284,-0.00657513,-0.000713917,0.0978071,1,4.08478e-05,-1.29527e-05,1.33032e-05,0.00816956,-0.00259055,0.00266063,0,0,0,0,0.0277751,0.513968,-0.993234,34.375,1,36858,16936605
7,4,-0.659029,-0.092993,9.79242,0.106396,-0.518789,0.998685,-0.00659293,-0.000936109,0.097924,1,3.05734e-05,-1.36662e-05,1.45493e-05,0.00611468,-0.00273324,0.00290986,0,0,0,0,0.0274216,0.514361,-0.987668,34.375,1,36859,16936705
7,5,-0.659029,-0.092993,9.79242,0.106396,-0.518789,0.998685,-0.00659293,-0.000936109,0.097924,1,3.05734e-05,-1.36662e-05,1.45493e-05,0.00611468,-0.00273324,0.00290986,0,0,0,0,0.0274216,0.514361,-0.987668,34.375,1,36859,16936705
7,6,-0.659421,-0.0904649,9.79244,0.103545,-0.520157,0.997459,-0.00659567,-0.000914835,0.0979242,1,5.00082e-05,-7.70768e-06,2.97484e-05,0.0100016,-0.00154154,0.00594968,0,0,0,0,0.0283354,0.517279,-0.987608,34.375,1,36860,16936805
8,1,-0.659421,-0.0904649,9.79244,0.103545,-0.520157,0.997459,-0.00659567,-0.000914835,0.0979242,1,5.00082e-05,-7.70768e-06,2.97484e-05,0.0100016,-0.00154154,0.00594968,0,0,0,0,0.0283354,0.517279,-0.987608,34.375,1,36860,16936805
8,2,-0.662857,-0.078903,9.78647,0.102331,-0.5108,0.981915,-0.00663165,-0.000797505,0.0978644,1,4.20288e-05,-1.58791e-05,1.87604e-05,0.00840575,-0.00317582,0.00375209,0,0,0,0,0.0306551,0.518768,-0.99011,34.375,1,36861,16936905
8,3,-0.662857,-0.078903,9.78647,0.102331,-0.5108,0.981915,-0.00663165,-0.000797505,0.0978644,1,4.20288e-05,-1.58791e-05,1.87604e-05,0.00840575,-0.00317582,0.00375209,0,0,0,0,0.0306551,0.518768,-0.99011,34.375,1,36861,16936905
8,4,-0.658977,-0.0877016,9.79281,0.100176,-0.522799,0.989672,-0.00659378,-0.000886516,0.0979278,1,4.78141e-05,-2.05729e-05,1.02838e-05,0.00956282,-0.00411457,0.00205675,0,0,0,0,0.0310171,0.519332,-0.994645,34.375,1,36862,16937005
9,1,-0.658977,-0.0877016,9.79281,0.100176,-0.522799,0.989672,-0.00659378,-0.000886516,0.0979278,1,4.78141e-05,-2.05729e-05,1.02838e-05,0.00956282,-0.00411457,0.00205675,0,0,0,0,0.0310171,0.519332,-0.994645,34.375,1,36862,16937005
9,2,-0.656389,-0.0830033,9.79555,0.10613,-0.519376,0.998419,-0.00656519,-0.000838273,0.0979553,1,4.17754e-05,-6.67933e-06,4.25797e-06,0.00835508,-0.00133587,0.000851595,0,0,0,0,0.0320197,0.516886,-0.994704,34.375,1,36863,16937105
9,3,-0.656389,-0.0830033,9.79555,0.10613,-0.519376,0.998419,-0.00656519,-0.000838273,0.0979553,1,4.17754e-05,-6.67933e-06,4.25797e-06,0.00835508,-0.00133587,0.000851595,0,0,0,0,0.0320197,0.516886,-0.994704,34.375,1,36863,16937105
9,4,-0.662684,-0.0861053,9.79761,0.0978303,-0.522347,1.00663,-0.00662935,-0.000869716,0.0979758,1,4.3016e-05,-1.29549e-05,1.77134e-05,0.0086032,-0.00259098,0.00354269,0,0,0,0,0.0306784,0.514414,-0.992228,34.375,1,36864,16937205
10,1,-0.662684,-0.0861053,9.79761,0.0978303,-0.522347,1.00663,-0.00662935,-0.000869716,0.0979758,1,4.3016e-05,-1.29549e-05,1.77134e-05,0.0086032,-0.00259098,0.00354269,0,0,0,0,0.0306784,0.514414,-0.992228,34.375,1,36864,16937205
10,2,-0.660362,-0.0938759,9.79276,0.100283,-0.526572,0.996713,-0.00660645,-0.000947608,0.0979274,1,4.20529e-05,-1.48726e-05,4.64303e-05,0.00841059,-0.00297452,0.00928607,0,0,0,0,0.0283345,0.514389,-0.989692,34.375,1,36865,16937305
10,3,-0.660362,-0.0938759,9.79276,0.100283,-0.526572,0.996713,-0.00660645,-0.000947608,0.0979274,1,4.20529e-05,-1.48726e-05,4.64303e-05,0.00841059,-0.00297452,0.00928607,0,0,0,0,0.0283345,0.514389,-0.989692,34.375,1,36865,16937305
10,4,-0.653005,-0.0844724,9.79991,0.105292,-0.519119,1.00836,-0.00653111,-0.000850909,0.097999,1,2.97314e-05,-5.65125e-06,2.73698e-05,0.00594628,-0.00113025,0.00547397,0,0,0,0,0.0278092,0.517798,-0.989109,34.375,1,36866,16937405
11,1,-0.653005,-0.0844724,9.79991,0.105292,-0.519119,1.00836,-0.00653111,-0.000850909,0.097999,1,2.97314e-05,-5.65125e-06,2.73698e-05,0.00594628,-0.00113025,0.00547397,0,0,0,0,0.0278092,0.517798,-0.989109,34.375,1,36866,16937405
11,2,-0.66154,-0.081454,9.78271,0.1026,-0.518024,0.983605,-0.00661775,-0.000824756,0.0978268,1,5.03809e-05,-1.22189e-05,2.71089e-05,0.0100762,-0.00244377,0.00542178,0,0,0,0,0.0301455,0.519756,-0.990591,34.375,1,36867,16937505
11,3,-0.66154,-0.081454,9.78271,0.1026,-0.518024,0.983605,-0.00661775,-0.000824756,0.0978268,1,5.03809e-05,-1.22189e-05,2.71089e-05,0.0100762,-0.00244377,0.00542178,0,0,0,0,0.0301455,0.519756,-0.990591,34.375,1,36867,16937505
11,4,-0.660094,-0.0839672,9.79455,0.100449,-0.526127,0.994108,-0.00660213,-0.00085058,0.0979453,1,5.43167e-05,-6.25294e-06,2.02579e-05,0.0108633,-0.00125059,0.00405158,0,0,0,0,0.0310332,0.518357,-0.994667,34.375,1,36868,16937605
12,1,-0.660094,-0.0839672,9.79455,0.100449,-0.526127,0.994108,-0.00660213,-0.00085058,0.0979453,1,5.43167e-05,-6.25294e-06,2.02579e-05,0.0108633,-0.00125059,0.00405158,0,0,0,0,0.0310332,0.518357,-0.994667,34.375,1,36868,16937605
12,2,-0.660547,-0.0880799,9.78738,0.0993345,-0.529106,0.988092,-0.00660768,-0.000888645,0.0978736,1,3.87391e-05,-1.14607e-05,1.99438e-05,0.00774781,-0.00229214,0.00398877,0,0,0,0,0.0296302,0.51593,-0.994714,34.375,1,36869,16937705
12,3,-0.660547,-0.0880799,9.78738,0.0993345,-0.529106,0.988092,-0.00660768,-0.000888645,0.0978736,1,3.87391e-05,-1.14607e-05,1.99438e-05,0.00774781,-0.00229214,0.00398877,0,0,0,0,0.0296302,0.51593,-0.994714,34.375,1,36869,16937705
12,4,-0.669429,-0.0739507,9.78757,0.0921916,-0.517933,0.992627,-0.00669556,-0.000747637,0.0978756,1,3.95869e-05,-6.72092e-06,2.84852e-05,0.00791737,-0.00134418,0.00569704,0,0,0,0,0.0283136,0.51344,-0.991228,34.375,1,36870,16937805
10,1,-0.669429,-0.0739507,9.78757,0.0921916,-0.517933,0.992627,-0.00669556,-0.000747637,0.0978756,1,3.95869e-05,-6.72092e-06,2.84852e-05,0.00791737,-0.00134418,0.00569704,0,0,0,0,0.0283136,0.51344,-0.991228,34.375,1,36870,16937805
10,2,-0.665925,-0.0844097,9.79323,0.0940481,-0.521928,0.994937,-0.00666067,-0.000852138,0.0979321,1,4.02405e-05,-7.36677e-06,1.19415e-05,0.00804811,-0.00147335,0.0023883,0,0,0,0,0.0283919,0.513865,-0.987684,34.375,1,36871,16937905
14,1,-0.665925,-0.0844097,9.79323,0.0940481,-0.521928,0.994937,-0.00666067,-0.000852138,0.0979321,1,4.02405e-05,-7.36677e-06,1.19415e-05,0.00804811,-0.00147335,0.0023883,0,0,0,0,0.0283919,0.513865,-0.987684,34.375,1,36871,16937905
14,2,-0.657327,-0.0879959,9.78805,0.101693,-0.53045,0.991078,-0.00657588,-0.000889642,0.0978803,1,4.76633e-05,-1.35376e-05,2.67773e-05,0.00953267,-0.00270752,0.00535546,0,0,0,0,0.0283558,0.516782,-0.987114,34.375,1,36872,16938005
14,3,-0.657327,-0.0879959,9.78805,0.101693,-0.53045,0.991078,-0.00657588,-0.000889642,0.0978803,1,4.76633e-05,-1.35376e-05,2.67773e-05,0.00953267,-0.00270752,0.00535546,0,0,0,0,0.0283558,0.516782,-0.987114,34.375,1,36872,16938005
14,4,-0.661289,-0.0818405,9.78778,0.0951977,-0.527183,0.986542,-0.00661348,-0.000828759,0.0978777,1,5.12934e-05,-3.21494e-06,2.36502e-05,0.0102587,-0.000642988,0.00473004,0,0,0,0,0.0311931,0.516794,-0.989147,34.375,1,36873,16938105
14,5,-0.661289,-0.0818405,9.78778,0.0951977,-0.527183,0.986542,-0.00661348,-0.000828759,0.0978777,1,5.12934e-05,-3.21494e-06,2.36502e-05,0.0102587,-0.000642988,0.00473004,0,0,0,0,0.0311931,0.516794,-0.989147,34.375,1,36873,16938105
14,6,-0.663999,-0.0870403,9.79523,0.0930542,-0.531452,0.998487,-0.00664395,-0.000880307,0.097952,1,4.97198e-05,-2.0325e-05,1.23268e-05,0.00994395,-0.00406499,0.00246537,0,0,0,0,0.0320567,0.516859,-0.99319,34.375,1,36874,16938205
15,1,-0.663999,-0.0870403,9.79523,0.0930542,-0.531452,0.998487,-0.00664395,-0.000880307,0.097952,1,4.97198e-05,-2.0325e-05,1.23268e-05,0.00994395,-0.00406499,0.00246537,0,0,0,0,0.0320567,0.516859,-0.99319,34.375,1,36874,16938205
15,2,-0.653685,-0.0850832,9.78974,0.101744,-0.529602,0.987141,-0.00653947,-0.000856695,0.0978972,1,2.87387e-05,-1.35357e-05,1.8079e-05,0.00574775,-0.00270714,0.0036158,0,0,0,0,0.0306248,0.513971,-0.994763,34.375,1,36875,16938305
15,3,-0.653685,-0.0850832,9.78974,0.101744,-0.529602,0.987141,-0.00653947,-0.000856695,0.0978972,1,2.87387e-05,-1.35357e-05,1.8079e-05,0.00574775,-0.00270714,0.0036158,0,0,0,0,0.0306248,0.513971,-0.994763,34.375,1,36875,16938305
15,4,-0.658122,-0.0854693,9.7918,0.100139,-0.52957,0.995883,-0.00658205,-0.0008618,0.0979179,1,3.4349e-05,-4.49091e-06,2.88356e-05,0.0068698,-0.000898181,0.00576712,0,0,0,0,0.0282766,0.513467,-0.992743,34.375,1,36876,16938405
16,1,-0.658122,-0.0854693,9.7918,0.100139,-0.52957,0.995883,-0.00658205,-0.0008618,0.0979179,1,3.4349e-05,-4.49091e-06,2.88356e-05,0.0068698,-0.000898181,0.00576712,0,0,0,0,0.0282766,0.513467,-0.992743,34.375,1,36876,16938405
16,2,-0.661108,-0.082262,9.80135,0.0979896,-0.524401,1.00805,-0.00661303,-0.000834348,0.0980133,1,5.86063e-05,-1.00973e-05,1.81105e-05,0.0117213,-0.00201946,0.0036221,0,0,0,0,0.0273603,0.515851,-0.98915,34.375,1,36877,16938505
16,3,-0.661108,-0.082262,9.80135,0.0979896,-0.524401,1.00805,-0.00661303,-0.000834348,0.0980133,1,5.86063e-05,-1.00973e-05,1.81105e-05,0.0117213,-0.00201946,0.0036221,0,0,0,0,0.0273603,0.515851,-0.98915,34.375,1,36877,16938505
16,4,-0.661236,-0.0813078,9.78474,0.0937055,-0.529491,0.988309,-0.00661276,-0.000820725,0.0978473,1,3.77298e-05,-2.23337e-06,1.99264e-05,0.00754597,-0.000446674,0.00398528,0,0,0,0,0.028315,0.517776,-0.988101,34.375,1,36878,16938605
16,5,-0.661236,-0.0813078,9.78474,0.0937055,-0.529491,0.988309,-0.00661276,-0.000820725,0.0978473,1,3.77298e-05,-2.23337e-06,1.99264e-05,0.00754597,-0.000446674,0.00398528,0,0,0,0,0.028315,0.517776,-0.988101,34.375,1,36878,16938605
16,6,-0.658387,-0.0846156,9.79928,0.104606,-0.536787,0.998303,-0.00658429,-0.000856766,0.0979926,1,5.30556e-05,-2.28007e-06,1.61135e-05,0.0106111,-0.000456014,0.0032227,0,0,0,0,0.0292075,0.518301,-0.990619,34.375,1,36879,16938705
17,1,-0.658387,-0.0846156,9.79928,0.104606,-0.536787,0.998303,-0.00658429,-0.000856766,0.0979926,1,5.30556e-05,-2.28007e-06,1.61135e-05,0.0106111,-0.000456014,0.0032227,0,0,0,0,0.0292075,0.518301,-0.990619,34.375,1,36879,16938705
17,2,-0.66276,-0.08341,9.7905,0.097097,-0.534986,0.98797,-0.00663034,-0.000842002,0.0979048,1,3.97136e-05,-1.40684e-05,9.5365e-06,0.00794273,-0.00281367,0.0019073,0,0,0,0,0.0286519,0.516914,-0.994688,34.375,1,36880,16938805
17,3,-0.66276,-0.08341,9.7905,0.097097,-0.534986,0.98797,-0.00663034,-0.000842002,0.0979048,1,3.97136e-05,-1.40684e-05,9.5365e-06,0.00794273,-0.00281367,0.0019073,0,0,0,0,0.0286519,0.516914,-0.994688,34.375,1,36880,16938805
17,4,-0.66217,-0.0757423,9.79633,0.0979966,-0.530775,0.999329,-0.0066244,-0.000767546,0.097963,1,5.03119e-05,-1.39659e-05,2.00515e-05,0.0100624,-0.00279319,0.0040103,0,0,0,0,0.0291695,0.515437,-0.994218,34.375,1,36881,16938905
18,1,-0.66217,-0.0757423,9.79633,0.0979966,-0.530775,0.999329,-0.0066244,-0.000767546,0.097963,1,5.03119e-05,-1.39659e-05,2.00515e-05,0.0100624,-0.00279319,0.0040103,0,0,0,0,0.0291695,0.515437,-0.994218,34.375,1,36881,16938905
18,2,-0.665898,-0.0802586,9.79462,0.0965578,-0.533309,0.994977,-0.00666181,-0.000812189,0.0979459,1,4.84604e-05,-1.44802e-05,8.19573e-06,0.00969208,-0.00289605,0.00163915,0,0,0,0,0.0292393,0.514904,-0.991705,34.375,1,36882,16939005
18,3,-0.665898,-0.0802586,9.79462,0.0965578,-0.533309,0.994977,-0.00666181,-0.000812189,0.0979459,1,4.84604e-05,-1.44802e-05,8.19573e-06,0.00969208,-0.00289605,0.00163915,0,0,0,0,0.0292393,0.514904,-0.991705,34.375,1,36882,16939005
18,4,-0.656018,-0.0841504,9.78773,0.099387,-0.539468,0.993297,-0.00656428,-0.000852554,0.097877,1,5.52478e-05,-2.11244e-05,1.78649e-05,0.0110496,-0.00422489,0.00357297,0,0,0,0,0.029301,0.514859,-0.989181,34.375,1,36883,16939105
19,1,-0.656018,-0.0841504,9.78773,0.099387,-0.539468,0.993297,-0.00656428,-0.000852554,0.097877,1,5.52478e-05,-2.11244e-05,1.78649e-05,0.0110496,-0.00422489,0.00357297,0,0,0,0,0.029301,0.514859,-0.989181,34.375,1,36883,16939105
19,2,-0.657678,-0.0743463,9.79462,0.100949,-0.525815,0.995358,-0.00658012,-0.000753596,0.0979459,1,5.03474e-05,-1.72032e-05,2.05988e-05,0.0100695,-0.00344065,0.00411976,0,0,0,0,0.0292649,0.517777,-0.988611,34.375,1,36884,16939205
19,3,-0.657678,-0.0743463,9.79462,0.100949,-0.525815,0.995358,-0.00658012,-0.000753596,0.0979459,1,5.03474e-05,-1.72032e-05,2.05988e-05,0.0100695,-0.00344065,0.00411976,0,0,0,0,0.0292649,0.517777,-0.988611,34.375,1,36884,16939205
19,4,-0.657374,-0.0863574,9.79179,0.103283,-0.544336,0.987886,-0.00657534,-0.000872958,0.0979177,1,4.73187e-05,-8.2701e-06,8.89582e-06,0.00946373,-0.00165402,0.00177916,0,0,0,0,0.0301901,0.517796,-0.99013,34.375,1,36885,16939305
20,1,-0.657374,-0.0863574,9.79179,0.103283,-0.544336,0.987886,-0.00657534,-0.000872958,0.0979177,1,4.73187e-05,-8.2701e-06,8.89582e-06,0.00946373,-0.00165402,0.00177916,0,0,0,0,0.0301901,0.517796,-0.99013,34.375,1,36885,16939305
20,2,-0.654945,-0.0750984,9.80069,0.0996013,-0.538376,0.997737,-0.00655239,-0.000762554,0.0980067,1,5.77345e-05,-1.51309e-05,1.93618e-05,0.0115469,-0.00302617,0.00387236,0,0,0,0,0.0301156,0.516405,-0.994201,34.375,1,36886,16939405
20,3,-0.654945,-0.0750984,9.80069,0.0996013,-0.538376,0.997737,-0.00655239,-0.000762554,0.0980067,1,5.77345e-05,-1.51309e-05,1.93618e-05,0.0115469,-0.00302617,0.00387236,0,0,0,0,0.0301156,0.516405,-0.994201,34.375,1,36886,16939405
20,4,-0.662247,-0.0898516,9.79823,0.0968625,-0.548712,0.999396,-0.00662288,-0.000907215,0.0979822,1,4.29002e-05,-2.29875e-06,2.20523e-05,0.00858005,-0.00045975,0.00441046,0,0,0,0,0.029161,0.51448,-0.995249,34.375,1,36887,16939505
20,5,-0.662247,-0.0898516,9.79823,0.0968625,-0.548712,0.999396,-0.00662288,-0.000907215,0.0979822,1,4.29002e-05,-2.29875e-06,2.20523e-05,0.00858005,-0.00045975,0.00441046,0,0,0,0,0.029161,0.51448,-0.995249,34.375,1,36887,16939505
20,6,-0.664601,-0.0826495,9.79289,0.0900501,-0.5431,0.995967,-0.00664703,-0.000835742,0.0979287,1,4.5402e-05,-5.45563e-06,2.66787e-05,0.0090804,-0.00109113,0.00533574,0,0,0,0,0.0273148,0.51492,-0.991696,34.375,1,36888,16939605
21,1,-0.664601,-0.0826495,9.79289,0.0900501,-0.5431,0.995967,-0.00664703,-0.000835742,0.0979287,1,4.5402e-05,-5.45563e-06,2.66787e-05,0.0090804,-0.00109113,0.00533574,0,0,0,0,0.0273148,0.51492,-0.991696,34.375,1,36888,16939605
21,2,-0.668303,-0.0831258,9.79867,0.0859791,-0.542438,1.00388,-0.0066842,-0.00084084,0.0979866,1,4.81158e-05,-6.09066e-06,1.14479e-05,0.00962317,-0.00121813,0.00228958,0,0,0,0,0.0288526,0.514358,-0.98818,34.375,1,36889,16939705
21,3,-0.668303,-0.0831258,9.79867,0.0859791,-0.542438,1.00388,-0.0066842,-0.00084084,0.0979866,1,4.81158e-05,-6.09066e-06,1.14479e-05,0.00962317,-0.00121813,0.00228958,0,0,0,0,0.0288526,0.514358,-0.98818,34.375,1,36889,16939705
21,4,-0.658046,-0.0840342,9.79318,0.101393,-0.542734,0.994956,-0.00658312,-0.000849217,0.0979315,1,4.42453e-05,-1.37462e-05,1.58977e-05,0.00884906,-0.00274924,0.00317953,0,0,0,0,0.0312544,0.515304,-0.987665,34.375,1,36890,16939805
22,1,-0.658046,-0.0840342,9.79318,0.101393,-0.542734,0.994956,-0.00658312,-0.000849217,0.0979315,1,4.42453e-05,-1.37462e-05,1.58977e-05,0.00884906,-0.00274924,0.00317953,0,0,0,0,0.0312544,0.515304,-0.987665,34.375,1,36890,16939805
22,2,-0.659203,-0.0773088,9.78578,0.0931167,-0.538246,0.981071,-0.00659433,-0.000783725,0.0978575,1,5.28338e-05,-1.19378e-05,2.25121e-05,0.0105668,-0.00238757,0.00450242,0,0,0,0,0.032608,0.517767,-0.989637,34.375,1,36891,16939905
23,1,-0.659203,-0.0773088,9.78578,0.0931167,-0.538246,0.981071,-0.00659433,-0.000783725,0.0978575,1,5.28338e-05,-1.19378e-05,2.25121e-05,0.0105668,-0.00238757,0.00450242,0,0,0,0,0.032608,0.517767,-0.989637,34.375,1,36891,16939905
23,2,-0.661387,-0.0905777,9.79043,0.0887502,-0.555093,0.987779,-0.00661664,-0.000912909,0.097904,1,3.47495e-05,-1.43388e-05,2.47713e-05,0.00694989,-0.00286776,0.00495426,0,0,0,0,0.0305479,0.517882,-0.99518,34.375,1,36892,16940005
23,3,-0.661387,-0.0905777,9.79043,0.0887502,-0.555093,0.987779,-0.00661664,-0.000912909,0.097904,1,3.47495e-05,-1.43388e-05,2.47713e-05,0.00694989,-0.00286776,0.00495426,0,0,0,0,0.0305479,0.517882,-0.99518,34.375,1,36892,16940005
23,4,-0.658263,-0.0987687,9.79136,0.0980681,-0.565003,0.991484,-0.00658562,-0.00099572,0.0979133,1,4.02237e-05,-1.53746e-05,1.1811e-05,0.00804475,-0.00307491,0.0023622,0,0,0,0,0.0276934,0.515955,-0.99521,34.375,1,36893,16940105
24,1,-0.658263,-0.0987687,9.79136,0.0980681,-0.565003,0.991484,-0.00658562,-0.00099572,0.0979133,1,4.02237e-05,-1.53746e-05,1.1811e-05,0.00804475,-0.00307491,0.0023622,0,0,0,0,0.0276934,0.515955,-0.99521,34.375,1,36893,16940105
24,2,-0.656458,-0.0768353,9.79356,0.0963409,-0.546146,0.996133,-0.00656591,-0.000777723,0.0979355,1,4.67133e-05,-6.93829e-06,1.68364e-05,0.00934266,-0.00138766,0.00336728,0,0,0,0,0.0273067,0.515408,-0.991685,34.375,1,36894,16940205
25,1,-0.656458,-0.0768353,9.79356,0.0963409,-0.546146,0.996133,-0.00656591,-0.000777723,0.0979355,1,4.67133e-05,-6.93829e-06,1.68364e-05,0.00934266,-0.00138766,0.00336728,0,0,0,0,0.0273067,0.515408,-0.991685,34.375,1,36894,16940205
25,2,-0.664547,-0.0847973,9.79388,0.0910058,-0.555796,0.99852,-0.00664768,-0.000856643,0.0979386,1,4.34088e-05,-1.14034e-05,1.25674e-05,0.00868177,-0.00228068,0.00251347,0,0,0,0,0.0283672,0.513883,-0.988693,34.375,1,36895,16940305
26,1,-0.664547,-0.0847973,9.79388,0.0910058,-0.555796,0.99852,-0.00664768,-0.000856643,0.0979386,1,4.34088e-05,-1.14034e-05,1.25674e-05,0.00868177,-0.00228068,0.00251347,0,0,0,0,0.0283672,0.513883,-0.988693,34.375,1,36895,16940305
26,2,-0.653163,-0.0800968,9.78909,0.107227,-0.550163,0.987925,-0.00653173,-0.000810041,0.0978909,1,4.48524e-05,-6.66606e-07,2.22867e-05,0.00897047,-0.000133321,0.00445735,0,0,0,0,0.0297659,0.515831,-0.989161,34.375,1,36896,16940405
26,3,-0.653163,-0.0800968,9.78909,0.107227,-0.550163,0.987925,-0.00653173,-0.000810041,0.0978909,1,4.48524e-05,-6.66606e-07,2.22867e-05,0.00897047,-0.000133321,0.00445735,0,0,0,0,0.0297659,0.515831,-0.989161,34.375,1,36896,16940405
26,4,-0.66809,-0.0885532,9.79864,0.0872451,-0.558767,0.997016,-0.00668486,-0.000897114,0.097986,1,5.75091e-05,-2.03984e-05,2.33498e-05,0.0115018,-0.00407968,0.00466996,0,0,0,0,0.0291377,0.518834,-0.993132,34.375,1,36897,16940505
27,1,-0.66809,-0.0885532,9.79864,0.0872451,-0.558767,0.997016,-0.00668486,-0.000897114,0.097986,1,5.75091e-05,-2.03984e-05,2.33498e-05,0.0115018,-0.00407968,0.00466996,0,0,0,0,0.0291377,0.518834,-0.993132,34.375,1,36897,16940505
27,2,-0.662199,-0.0820721,9.79661,0.0892914,-0.552274,0.995314,-0.00662324,-0.000829042,0.0979659,1,4.05274e-05,-6.633e-06,2.87239e-05,0.00810547,-0.0013266,0.00574479,0,0,0,0,0.0285949,0.518883,-0.995654,34.375,1,36898,16940605
27,3,-0.662199,-0.0820721,9.79661,0.0892914,-0.552274,0.995314,-0.00662324,-0.000829042,0.0979659,1,4.05274e-05,-6.633e-06,2.87239e-05,0.00810547,-0.0013266,0.00574479,0,0,0,0,0.0285949,0.518883,-0.995654,34.375,1,36898,16940605
27,4,-0.657212,-0.084563,9.78874,0.097249,-0.558712,0.992112,-0.00657239,-0.000855038,0.0978873,1,4.59867e-05,-1.67442e-06,3.07916e-05,0.00919734,-0.000334885,0.00615832,0,0,0,0,0.0291529,0.514968,-0.995239,34.375,1,36899,16940705
28,1,-0.657212,-0.084563,9.78874,0.097249,-0.558712,0.992112,-0.00657239,-0.000855038,0.0978873,1,4.59867e-05,-1.67442e-06,3.07916e-05,0.00919734,-0.000334885,0.00615832,0,0,0,0,0.0291529,0.514968,-0.995239,34.375,1,36899,16940705
28,2,-0.663756,-0.0923215,9.79857,0.0928836,-0.561847,1.0027,-0.00663973,-0.000931656,0.0979854,1,4.14383e-05,-1.13023e-05,2.41157e-05,0.00828766,-0.00226047,0.00482314,0,0,0,0,0.0263768,0.513465,-0.991724,34.375,1,36900,16940805
29,1,-0.663756,-0.0923215,9.79857,0.0928836,-0.561847,1.0027,-0.00663973,-0.000931656,0.0979854,1,4.14383e-05,-1.13023e-05,2.41157e-05,0.00828766,-0.00226047,0.00482314,0,0,0,0,0.0263768,0.513465,-0.991724,34.375,1,36900,16940805
29,2,-0.665048,-0.0794965,9.78274,0.0898399,-0.550276,0.988318,-0.00665169,-0.000803765,0.0978273,1,4.32785e-05,-6.35163e-06,2.49688e-05,0.0086557,-0.00127033,0.00499377,0,0,0,0,0.026447,0.514378,-0.988168,34.375,1,36901,16940905
29,3,-0.665048,-0.0794965,9.78274,0.0898399,-0.550276,0.988318,-0.00665169,-0.000803765,0.0978273,1,4.32785e-05,-6.35163e-06,2.49688e-05,0.0086557,-0.00127033,0.00499377,0,0,0,0,0.026447,0.514378,-0.988168,34.375,1,36901,16940905
29,4,-0.669859,-0.0868955,9.79459,0.0837089,-0.563099,0.992429,-0.00670129,-0.000877212,0.0979456,1,4.05294e-05,-1.39625e-05,2.36852e-05,0.00810587,-0.00279249,0.00473705,0,0,0,0,0.0292725,0.515844,-0.989664,34.375,1,36902,16941005
30,1,-0.669859,-0.0868955,9.79459,0.0837089,-0.563099,0.992429,-0.00670129,-0.000877212,0.0979456,1,4.05294e-05,-1.39625e-05,2.36852e-05,0.00810587,-0.00279249,0.00473705,0,0,0,0,0.0292725,0.515844,-0.989664,34.375,1,36902,16941005
30,2,-0.668002,-0.0851183,9.78882,0.0902594,-0.562758,0.989225,-0.00668046,-0.000859042,0.0978881,1,4.02685e-05,-2.19631e-06,-1.83113e-06,0.0080537,-0.000439263,-0.000366227,0,0,0,0,0.0301493,0.51879,-0.991118,34.375,1,36903,16941105
30,3,-0.668002,-0.0851183,9.78882,0.0902594,-0.562758,0.989225,-0.00668046,-0.000859042,0.0978881,1,4.02685e-05,-2.19631e-06,-1.83113e-06,0.0080537,-0.000439263,-0.000366227,0,0,0,0,0.0301493,0.51879,-0.991118,34.375,1,36903,16941105
30,4,-0.662279,-0.0847841,9.79319,0.087141,-0.56052,0.991553,-0.00662224,-0.000856094,0.0979318,1,4.11365e-05,2.66529e-06,1.48043e-05,0.00822731,0.000533058,0.00296087,0,0,0,0,0.0286158,0.519831,-0.994118,34.375,1,36904,16941205
31,1,-0.662279,-0.0847841,9.79319,0.087141,-0.56052,0.991553,-0.00662224,-0.000856094,0.0979318,1,4.11365e-05,2.66529e-06,1.48043e-05,0.00822731,0.000533058,0.00296087,0,0,0,0,0.0286158,0.519831,-0.994118,34.375,1,36904,16941205
31,2,-0.655568,-0.0882856,9.78635,0.100406,-0.56941,0.984634,-0.00655953,-0.000891965,0.0978631,1,4.68379e-05,-1.96271e-05,-4.43324e-06,0.00936757,-0.00392543,-0.000886647,0,0,0,0,0.0291653,0.514959,-0.994734,34.375,1,36905,16941305
31,3,-0.655568,-0.0882856,9.78635,0.100406,-0.56941,0.984634,-0.00655953,-0.000891965,0.0978631,1,4.68379e-05,-1.96271e-05,-4.43324e-06,0.00936757,-0.00392543,-0.000886647,0,0,0,0,0.0291653,0.514959,-0.994734,34.375,1,36905,16941305
31,4,-0.663655,-0.0824015,9.7888,0.088825,-0.566309,0.989808,-0.00663707,-0.000830993,0.0978879,1,3.44868e-05,-2.82003e-06,1.7075e-05,0.00689737,-0.000564005,0.00341499,0,0,0,0,0.0287862,0.512479,-0.992262,34.375,1,36906,16941405
32,1,-0.663655,-0.0824015,9.7888,0.088825,-0.566309,0.989808,-0.00663707,-0.000830993,0.0978879,1,3.44868e-05,-2.82003e-06,1.7075e-05,0.00689737,-0.000564005,0.00341499,0,0,0,0,0.0287862,0.512479,-0.992262,34.375,1,36906,16941405
32,2,-0.656842,-0.0779004,9.79491,0.0964652,-0.554437,0.99482,-0.00656966,-0.000787968,0.0979489,1,4.3554e-05,-6.63118e-06,3.28834e-05,0.00871081,-0.00132624,0.00657668,0,0,0,0,0.0283672,0.513883,-0.988693,34.375,1,36907,16941505
32,3,-0.656842,-0.0779004,9.79491,0.0964652,-0.554437,0.99482,-0.00656966,-0.000787968,0.0979489,1,4.3554e-05,-6.63118e-06,3.28834e-05,0.00871081,-0.00132624,0.00657668,0,0,0,0,0.0283672,0.513883,-0.988693,34.375,1,36907,16941505
32,4,-0.662007,-0.0919503,9.79551,0.0914022,-0.569363,0.995843,-0.00662368,-0.000927723,0.0979548,1,4.11123e-05,-1.85222e-05,1.24481e-05,0.00822246,-0.00370444,0.00248962,0,0,0,0,0.0283477,0.51727,-0.987103,34.375,1,36908,16941605
33,1,-0.662007,-0.0919503,9.79551,0.0914022,-0.569363,0.995843,-0.00662368,-0.000927723,0.0979548,1,4.11123e-05,-1.85222e-05,1.24481e-05,0.00822246,-0.00370444,0.00248962,0,0,0,0,0.0283477,0.51727,-0.987103,34.375,1,36908,16941605
33,2,-0.658064,-0.0854321,9.7935,0.0966007,-0.563078,0.990167,-0.00658261,-0.000863367,0.0979348,1,4.53386e-05,-1.01721e-05,1.2571e-05,0.00906772,-0.00203442,0.00251419,0,0,0,0,0.0292321,0.518283,-0.98961,34.375,1,36909,16941705
33,3,-0.658064,-0.0854321,9.7935,0.0966007,-0.563078,0.990167,-0.00658261,-0.000863367,0.0979348,1,4.53386e-05,-1.01721e-05,1.2571e-05,0.00906772,-0.00203442,0.00251419,0,0,0,0,0.0292321,0.518283,-0.98961,34.375,1,36909,16941705
33,4,-0.676474,-0.0855475,9.79396,0.0772923,-0.562966,0.993683,-0.00676692,-0.000863769,0.0979394,1,4.08644e-05,-1.12804e-05,2.14169e-05,0.00817288,-0.00225607,0.00428338,0,0,0,0,0.0282078,0.516891,-0.993171,34.375,1,36910,16941805
34,1,-0.676474,-0.0855475,9.79396,0.0772923,-0.562966,0.993683,-0.00676692,-0.000863769,0.0979394,1,4.08644e-05,-1.12804e-05,2.14169e-05,0.00817288,-0.00225607,0.00428338,0,0,0,0,0.0282078,0.516891,-0.993171,34.375,1,36910,16941805
34,2,-0.659501,-0.0879623,9.79043,0.0940708,-0.573675,0.988758,-0.00659641,-0.000891099,0.0979041,1,5.72148e-05,-7.37029e-06,2.06663e-05,0.011443,-0.00147406,0.00413326,0,0,0,0,0.0272735,0.514469,-0.993726,34.375,1,36911,16941905
34,3,-0.659501,-0.0879623,9.79043,0.0940708,-0.573675,0.988758,-0.00659641,-0.000891099,0.0979041,1,5.72148e-05,-7.37029e-06,2.06663e-05,0.011443,-0.00147406,0.00413326,0,0,0,0,0.0272735,0.514469,-0.993726,34.375,1,36911,16941905
34,4,-0.671119,-0.0809939,9.78447,0.0775073,-0.565496,0.98288,-0.00671263,-0.000819266,0.0978445,1,4.6147e-05,-7.54391e-06,2.20816e-05,0.00922941,-0.00150878,0.00441633,0,0,0,0,0.0273348,0.512978,-0.992244,34.375,1,36912,16942005
35,1,-0.671119,-0.0809939,9.78447,0.0775073,-0.565496,0.98288,-0.00671263,-0.000819266,0.0978445,1,4.6147e-05,-7.54391e-06,2.20816e-05,0.00922941,-0.00150878,0.00441633,0,0,0,0,0.0273348,0.512978,-0.992244,34.375,1,36912,16942005
35,2,-0.650107,-0.0808345,9.78636,0.102516,-0.562828,0.983971,-0.00650112,-0.000816284,0.0978635,1,4.03262e-05,-3.00088e-07,3.57264e-06,0.00806525,-6.00177e-05,0.000714527,0,0,0,0,0.0283753,0.513395,-0.988704,34.375,1,36913,16942105
35,3,-0.650107,-0.0808345,9.78636,0.102516,-0.562828,0.983971,-0.00650112,-0.000816284,0.0978635,1,4.03262e-05,-3.00088e-07,3.57264e-06,0.00806525,-6.00177e-05,0.000714527,0,0,0,0,0.0283753,0.513395,-0.988704,34.375,1,36913,16942105
35,4,-0.663929,-0.0734974,9.79601,0.089411,-0.553456,0.996474,-0.00664058,-0.000743991,0.09796,1,4.4914e-05,-6.70767e-06,1.63483e-05,0.0089828,-0.00134153,0.00326967,0,0,0,0,0.0302513,0.516306,-0.988648,34.375,1,36914,16942205
36,1,-0.663929,-0.0734974,9.79601,0.089411,-0.553456,0.996474,-0.00664058,-0.000743991,0.09796,1,4.4914e-05,-6.70767e-06,1.63483e-05,0.0089828,-0.00134153,0.00326967,0,0,0,0,0.0302513,0.516306,-0.988648,34.375,1,36914,16942205
36,2,-0.664528,-0.0829197,9.78475,0.0895003,-0.569621,0.98153,-0.00664896,-0.000839364,0.0978472,1,5.04535e-05,-1.89915e-05,2.20741e-05,0.0100907,-0.00379831,0.00441483,0,0,0,0,0.0325463,0.517812,-0.992161,34.375,1,36915,16942305
36,3,-0.664528,-0.0829197,9.78475,0.0895003,-0.569621,0.98153,-0.00664896,-0.000839364,0.0978472,1,5.04535e-05,-1.89915e-05,2.20741e-05,0.0100907,-0.00379831,0.00441483,0,0,0,0,0.0325463,0.517812,-0.992161,34.375,1,36915,16942305
36,4,-0.659375,-0.0770945,9.79766,0.0953113,-0.565248,0.996692,-0.00659703,-0.000781827,0.0979762,1,5.42962e-05,-1.68511e-05,1.83843e-05,0.0108592,-0.00337022,0.00367685,0,0,0,0,0.030564,0.516907,-0.995202,34.375,1,36916,16942405
37,1,-0.659375,-0.0770945,9.79766,0.0953113,-0.565248,0.996692,-0.00659703,-0.000781827,0.0979762,1,5.42962e-05,-1.68511e-05,1.83843e-05,0.0108592,-0.00337022,0.00367685,0,0,0,0,0.030564,0.516907,-0.995202,34.375,1,36916,16942405
37,2,-0.65104,-0.0816777,9.78128,0.0954377,-0.571361,0.977114,-0.00651213,-0.000828127,0.0978126,1,5.71963e-05,-8.9592e-06,1.23865e-05,0.0114393,-0.00179184,0.00247729,0,0,0,0,0.0282192,0.513991,-0.994751,34.375,1,36917,16942505
37,3,-0.65104,-0.0816777,9.78128,0.0954377,-0.571361,0.977114,-0.00651213,-0.000828127,0.0978126,1,5.71963e-05,-8.9592e-06,1.23865e-05,0.0114393,-0.00179184,0.00247729,0,0,0,0,0.0282192,0.513991,-0.994751,34.375,1,36917,16942505
37,4,-0.651722,-0.0874224,9.79309,0.0991154,-0.574559,0.994823,-0.0065175,-0.000882677,0.0979308,1,4.25745e-05,-1.51614e-06,8.7155e-06,0.00851489,-0.000303229,0.0017431,0,0,0,0,0.0268864,0.512477,-0.991243,34.375,1,36918,16942605
38,1,-0.651722,-0.0874224,9.79309,0.0991154,-0.574559,0.994823,-0.0065175,-0.000882677,0.0979308,1,4.25745e-05,-1.51614e-06,8.7155e-06,0.00851489,-0.000303229,0.0017431,0,0,0,0,0.0268864,0.512477,-0.991243,34.375,1,36918,16942605
38,2,-0.668658,-0.0773755,9.79601,0.0801289,-0.565722,0.997475,-0.0066882,-0.000780846,0.09796,1,3.47514e-05,-8.42854e-06,2.11187e-05,0.00695028,-0.00168571,0.00422373,0,0,0,0,0.0269609,0.513868,-0.987172,34.375,1,36919,16942705
38,3,-0.668658,-0.0773755,9.79601,0.0801289,-0.565722,0.997475,-0.0066882,-0.000780846,0.09796,1,3.47514e-05,-8.42854e-06,2.11187e-05,0.00695028,-0.00168571,0.00422373,0,0,0,0,0.0269609,0.513868,-0.987172,34.375,1,36919,16942705
38,4,-0.653547,-0.0771656,9.79423,0.0973634,-0.570329,0.992791,-0.00654014,-0.000779996,0.0979419,1,4.15743e-05,-2.39722e-05,1.50128e-05,0.00831486,-0.00479443,0.00300256,0,0,0,0,0.0268835,0.516334,-0.988632,34.375,1,36920,16942805
39,1,-0.653547,-0.0771656,9.79423,0.0973634,-0.570329,0.992791,-0.00654014,-0.000779996,0.0979419,1,4.15743e-05,-2.39722e-05,1.50128e-05,0.00831486,-0.00479443,0.00300256,0,0,0,0,0.0268835,0.516334,-0.988632,34.375,1,36920,16942805
39,2,-0.665255,-0.0831824,9.79492,0.087736,-0.571567,0.995546,-0.00665402,-0.000844154,0.097949,1,6.16535e-05,-7.65371e-06,1.89227e-05,0.0123307,-0.00153074,0.00378455,0,0,0,0,0.0287221,0.517826,-0.991133,34.375,1,36921,16942905
39,3,-0.665255,-0.0831824,9.79492,0.087736,-0.571567,0.995546,-0.00665402,-0.000844154,0.097949,1,6.16535e-05,-7.65371e-06,1.89227e-05,0.0123307,-0.00153074,0.00378455,0,0,0,0,0.0287221,0.517826,-0.991133,34.375,1,36921,16942905
39,4,-0.66278,-0.0850806,9.79151,0.088639,-0.576303,0.992318,-0.00663107,-0.000858329,0.0979148,1,3.78453e-05,-1.68212e-05,8.46392e-06,0.00756907,-0.00336424,0.00169278,0,0,0,0,0.0300791,0.517877,-0.994673,34.375,1,36922,16943005
39,5,-0.66278,-0.0850806,9.79151,0.088639,-0.576303,0.992318,-0.00663107,-0.000858329,0.0979148,1,3.78453e-05,-1.68212e-05,8.46392e-06,0.00756907,-0.00336424,0.00169278,0,0,0,0,0.0300791,0.517877,-0.994673,34.375,1,36922,16943005
39,6,-0.656693,-0.0786367,9.78745,0.0929948,-0.57063,0.987279,-0.00657163,-0.000793164,0.0978741,1,3.43451e-05,-2.40415e-05,5.63065e-06,0.00686903,-0.00480829,0.00112613,0,0,0,0,0.0287131,0.515423,-0.993206,34.375,1,36923,16943105
40,1,-0.656693,-0.0786367,9.78745,0.0929948,-0.57063,0.987279,-0.00657163,-0.000793164,0.0978741,1,3.43451e-05,-2.40415e-05,5.63065e-06,0.00686903,-0.00480829,0.00112613,0,0,0,0,0.0287131,0.515423,-0.993206,34.375,1,36923,16943105
40,2,-0.656612,-0.0856749,9.79316,0.0932628,-0.576474,0.989897,-0.00656946,-0.00086615,0.0979313,1,4.66034e-05,-1.72312e-05,2.07852e-05,0.00932068,-0.00344625,0.00415705,0,0,0,0,0.0273556,0.513927,-0.990708,34.375,1,36924,16943205
40,3,-0.656612,-0.0856749,9.79316,0.0932628,-0.576474,0.989897,-0.00656946,-0.00086615,0.0979313,1,4.66034e-05,-1.72312e-05,2.07852e-05,0.00932068,-0.00344625,0.00415705,0,0,0,0,0.0273556,0.513927,-0.990708,34.375,1,36924,16943205
40,4,-0.67392,-0.0865885,9.79123,0.0766967,-0.580536,0.990582,-0.00674353,-0.000873755,0.097912,1,3.9015e-05,-2.22791e-05,1.70152e-05,0.007803,-0.00445582,0.00340303,0,0,0,0,0.0283629,0.513404,-0.989209,34.375,1,36925,16943305
41,1,-0.67392,-0.0865885,9.79123,0.0766967,-0.580536,0.990582,-0.00674353,-0.000873755,0.097912,1,3.9015e-05,-2.22791e-05,1.70152e-05,0.007803,-0.00445582,0.00340303,0,0,0,0,0.0283629,0.513404,-0.989209,34.375,1,36925,16943305
41,2,-0.658547,-0.0709513,9.79193,0.0889492,-0.567588,0.991471,-0.00658694,-0.000719702,0.0979191,1,5.06528e-05,-7.66119e-06,2.04332e-05,0.0101306,-0.00153224,0.00408663,0,0,0,0,0.0292972,0.515826,-0.988654,34.375,1,36926,16943405
41,3,-0.658547,-0.0709513,9.79193,0.0889492,-0.567588,0.991471,-0.00658694,-0.000719702,0.0979191,1,5.06528e-05,-7.66119e-06,2.04332e-05,0.0101306,-0.00153224,0.00408663,0,0,0,0,0.0292972,0.515826,-0.988654,34.375,1,36926,16943405
41,4,-0.650278,-0.0788815,9.78639,0.0971932,-0.573192,0.982786,-0.0065043,-0.000795219,0.0978637,1,3.10524e-05,-7.96657e-06,2.50616e-05,0.00621049,-0.00159331,0.00501231,0,0,0,0,0.0301531,0.517823,-0.991644,34.375,1,36927,16943505
41,5,-0.650278,-0.0788815,9.78639,0.0971932,-0.573192,0.982786,-0.0065043,-0.000795219,0.0978637,1,3.10524e-05,-7.96657e-06,2.50616e-05,0.00621049,-0.00159331,0.00501231,0,0,0,0,0.0301531,0.517823,-0.991644,34.375,1,36927,16943505
41,6,-0.657691,-0.08325,9.79725,0.0888634,-0.58178,0.999433,-0.00658024,-0.00084344,0.0979722,1,5.44078e-05,-1.71791e-05,2.12549e-05,0.0108816,-0.00343582,0.00425099,0,0,0,0,0.0291657,0.516404,-0.993692,34.375,1,36928,16943605
42,1,-0.657691,-0.08325,9.79725,0.0888634,-0.58178,0.999433,-0.00658024,-0.00084344,0.0979722,1,5.44078e-05,-1.71791e-05,2.12549e-05,0.0108816,-0.00343582,0.00425099,0,0,0,0,0.0291657,0.516404,-0.993692,34.375,1,36928,16943605
42,2,-0.653637,-0.0768318,9.79423,0.0942354,-0.575386,0.991894,-0.00653866,-0.000777313,0.0979421,1,4.45322e-05,-1.18316e-05,2.08185e-05,0.00890645,-0.00236631,0.00416371,0,0,0,0,0.0277385,0.51544,-0.993706,34.375,1,36929,16943705
42,3,-0.653637,-0.0768318,9.79423,0.0942354,-0.575386,0.991894,-0.00653866,-0.000777313,0.0979421,1,4.45322e-05,-1.18316e-05,2.08185e-05,0.00890645,-0.00236631,0.00416371,0,0,0,0,0.0277385,0.51544,-0.993706,34.375,1,36929,16943705
42,4,-0.662309,-0.0770964,9.79325,0.087672,-0.57744,0.991184,-0.00662464,-0.000780985,0.0979323,1,5.01944e-05,-8.03389e-06,1.42906e-05,0.0100389,-0.00160678,0.00285812,0,0,0,0,0.0268256,0.515412,-0.991683,34.375,1,36930,16943805
43,1,-0.662309,-0.0770964,9.79325,0.087672,-0.57744,0.991184,-0.00662464,-0.000780985,0.0979323,1,5.01944e-05,-8.03389e-06,1.42906e-05,0.0100389,-0.00160678,0.00285812,0,0,0,0,0.0268256,0.515412,-0.991683,34.375,1,36930,16943805
43,2,-0.659524,-0.0791741,9.7878,0.0892216,-0.579044,0.98468,-0.00659571,-0.000801641,0.0978779,1,4.90194e-05,-2.58168e-06,2.30816e-05,0.00980388,-0.000516336,0.00461632,0,0,0,0,0.0283672,0.513883,-0.988693,34.375,1,36931,16943905
43,3,-0.659524,-0.0791741,9.7878,0.0892216,-0.579044,0.98468,-0.00659571,-0.000801641,0.0978779,1,4.90194e-05,-2.58168e-06,2.30816e-05,0.00980388,-0.000516336,0.00461632,0,0,0,0,0.0283672,0.513883,-0.988693,34.375,1,36931,16943905
43,4,-0.663952,-0.093553,9.79959,0.0864385,-0.595705,1.00054,-0.00664264,-0.000946493,0.0979955,1,5.4745e-05,-1.61121e-05,1.75756e-05,0.010949,-0.00322242,0.00351512,0,0,0,0,0.0288037,0.515839,-0.989157,34.375,1,36932,16944005
44,1,-0.663952,-0.093553,9.79959,0.0864385,-0.595705,1.00054,-0.00664264,-0.000946493,0.0979955,1,5.4745e-05,-1.61121e-05,1.75756e-05,0.010949,-0.00322242,0.00351512,0,0,0,0,0.0288037,0.515839,-0.989157,34.375,1,36932,16944005
44,2,-0.661174,-0.083687,9.79082,0.08686,-0.58484,0.985192,-0.0066145,-0.000844748,0.0979079,1,3.81152e-05,-1.4344e-05,3.13914e-05,0.00762304,-0.00286879,0.00627828,0,0,0,0,0.0292027,0.516377,-0.992177,34.375,1,36933,16944105
44,3,-0.661174,-0.083687,9.79082,0.08686,-0.58484,0.985192,-0.0066145,-0.000844748,0.0979079,1,3.81152e-05,-1.4344e-05,3.13914e-05,0.00762304,-0.00286879,0.00627828,0,0,0,0,0.0292027,0.516377,-0.992177,34.375,1,36933,16944105
44,4,-0.660829,-0.0834829,9.79387,0.0861177,-0.586157,0.98993,-0.00660999,-0.000843165,0.0979385,1,4.2215e-05,-8.69128e-06,5.06457e-06,0.00844299,-0.00173826,0.00101291,0,0,0,0,0.0295894,0.516924,-0.995702,34.375,1,36934,16944205
45,1,-0.660829,-0.0834829,9.79387,0.0861177,-0.586157,0.98993,-0.00660999,-0.000843165,0.0979385,1,4.2215e-05,-8.69128e-06,5.06457e-06,0.00844299,-0.00173826,0.00101291,0,0,0,0,0.0295894,0.516924,-0.995702,34.375,1,36934,16944205
45,2,-0.657779,-0.0855854,9.79722,0.0916863,-0.586201,0.993856,-0.00657975,-0.000862908,0.097972,1,3.54535e-05,-1.00658e-05,8.099e-06,0.0070907,-0.00201316,0.0016198,0,0,0,0,0.0286965,0.514953,-0.994227,34.375,1,36935,16944305
45,3,-0.657779,-0.0855854,9.79722,0.0916863,-0.586201,0.993856,-0.00657975,-0.000862908,0.097972,1,3.54535e-05,-1.00658e-05,8.099e-06,0.0070907,-0.00201316,0.0016198,0,0,0,0,0.0286965,0.514953,-0.994227,34.375,1,36935,16944305
45,4,-0.665579,-0.0827297,9.78917,0.0774127,-0.585563,0.989695,-0.00665839,-0.000834902,0.0978914,1,3.70406e-05,-1.35207e-05,2.64831e-05,0.00740812,-0.00270413,0.00529662,0,0,0,0,0.0287866,0.513924,-0.99122,34.375,1,36936,16944405
45,5,-0.665579,-0.0827297,9.78917,0.0774127,-0.585563,0.989695,-0.00665839,-0.000834902,0.0978914,1,3.70406e-05,-1.35207e-05,2.64831e-05,0.00740812,-0.00270413,0.00529662,0,0,0,0,0.0287866,0.513924,-0.99122,34.375,1,36936,16944405
45,6,-0.657692,-0.0754756,9.78647,0.0891836,-0.574972,0.9849,-0.00658134,-0.000761954,0.0978643,1,3.69735e-05,-2.25231e-05,-2.96549e-06,0.0073947,-0.00450462,-0.000593099,0,0,0,0,0.029346,0.514345,-0.987677,34.375,1,36937,16944505
46,1,-0.657692,-0.0754756,9.78647,0.0891836,-0.574972,0.9849,-0.00658134,-0.000761954,0.0978643,1,3.69735e-05,-2.25231e-05,-2.96549e-06,0.0073947,-0.00450462,-0.000593099,0,0,0,0,0.029346,0.514345,-0.987677,34.375,1,36937,16944505
46,2,-0.656024,-0.0864076,9.78704,0.0846882,-0.587048,0.984802,-0.00656241,-0.000873351,0.0978702,1,4.6393e-05,-1.123e-05,1.4765e-05,0.00927859,-0.00224601,0.002953,0,0,0,0,0.0297868,0.516779,-0.987625,34.375,1,36938,16944605
46,3,-0.656024,-0.0864076,9.78704,0.0846882,-0.587048,0.984802,-0.00656241,-0.000873351,0.0978702,1,4.6393e-05,-1.123e-05,1.4765e-05,0.00927859,-0.00224601,0.002953,0,0,0,0,0.0297868,0.516779,-0.987625,34.375,1,36938,16944605
46,4,-0.662112,-0.0943114,9.79142,0.0833088,-0.597635,0.98969,-0.00662254,-0.000951137,0.097914,1,4.04939e-05,-7.34614e-06,6.97562e-06,0.00809879,-0.00146923,0.00139512,0,0,0,0,0.0306997,0.516807,-0.989649,34.375,1,36939,16944705
47,1,-0.662112,-0.0943114,9.79142,0.0833088,-0.597635,0.98969,-0.00662254,-0.000951137,0.097914,1,4.04939e-05,-7.34614e-06,6.97562e-06,0.00809879,-0.00146923,0.00139512,0,0,0,0,0.0306997,0.516807,-0.989649,34.375,1,36939,16944705
47,2,-0.658467,-0.0831194,9.79081,0.0905656,-0.592679,0.988768,-0.00658644,-0.000838603,0.0979079,1,3.66513e-05,-9.19782e-06,1.76038e-05,0.00733025,-0.00183956,0.00352077,0,0,0,0,0.0286969,0.516399,-0.993184,34.375,1,36940,16944805
47,3,-0.658467,-0.0831194,9.79081,0.0905656,-0.592679,0.988768,-0.00658644,-0.000838603,0.0979079,1,3.66513e-05,-9.19782e-06,1.76038e-05,0.00733025,-0.00183956,0.00352077,0,0,0,0,0.0286969,0.516399,-0.993184,34.375,1,36940,16944805
47,4,-0.666604,-0.0869344,9.7932,0.0799723,-0.593997,0.991419,-0.00666668,-0.00087588,0.0979319,1,3.28869e-05,-3.34725e-06,7.09288e-06,0.00657737,-0.000669449,0.00141858,0,0,0,0,0.0287212,0.514935,-0.993217,34.375,1,36941,16944905
48,1,-0.666604,-0.0869344,9.7932,0.0799723,-0.593997,0.991419,-0.00666668,-0.00087588,0.0979319,1,3.28869e-05,-3.34725e-06,7.09288e-06,0.00657737,-0.000669449,0.00141858,0,0,0,0,0.0287212,0.514935,-0.993217,34.375,1,36941,16944905
48,2,-0.655629,-0.0836052,9.78774,0.0942298,-0.586095,0.981016,-0.00655907,-0.000844461,0.0978771,1,4.15092e-05,-1.43536e-05,2.16381e-05,0.00830183,-0.00287072,0.00432761,0,0,0,0,0.0273803,0.513909,-0.989698,34.375,1,36942,16945005
48,3,-0.655629,-0.0836052,9.78774,0.0942298,-0.586095,0.981016,-0.00655907,-0.000844461,0.0978771,1,4.15092e-05,-1.43536e-05,2.16381e-05,0.00830183,-0.00287072,0.00432761,0,0,0,0,0.0273803,0.513909,-0.989698,34.375,1,36942,16945005
48,4,-0.66658,-0.0790053,9.79192,0.0777813,-0.588687,0.987969,-0.00666834,-0.000797872,0.0979189,1,3.81247e-05,-1.31819e-05,2.64886e-05,0.00762494,-0.00263638,0.00529772,0,0,0,0,0.0269362,0.513886,-0.988182,34.375,1,36943,16945105
49,1,-0.66658,-0.0790053,9.79192,0.0777813,-0.588687,0.987969,-0.00666834,-0.000797872,0.0979189,1,3.81247e-05,-1.31819e-05,2.64886e-05,0.00762494,-0.00263638,0.00529772,0,0,0,0,0.0269362,0.513886,-0.988182,34.375,1,36943,16945105
49,2,-0.665266,-0.0945383,9.79518,0.0801206,-0.600851,0.994747,-0.00665777,-0.000957109,0.0979513,1,5.82524e-05,-2.63043e-05,2.36275e-05,0.0116505,-0.00526086,0.0047255,0,0,0,0,0.0297251,0.516824,-0.990149,34.375,1,36944,16945205
49,3,-0.665266,-0.0945383,9.79518,0.0801206,-0.600851,0.994747,-0.00665777,-0.000957109,0.0979513,1,5.82524e-05,-2.63043e-05,2.36275e-05,0.0116505,-0.00526086,0.0047255,0,0,0,0,0.0297251,0.516824,-0.990149,34.375,1,36944,16945205
49,4,-0.672343,-0.0816378,9.7899,0.0700123,-0.592356,0.986428,-0.0067261,-0.000826362,0.0978988,1,4.96693e-05,-1.38004e-05,1.92503e-05,0.00993386,-0.00276009,0.00385007,0,0,0,0,0.0306674,0.518759,-0.989606,34.375,1,36945,16945305
50,1,-0.672343,-0.0816378,9.7899,0.0700123,-0.592356,0.986428,-0.0067261,-0.000826362,0.0978988,1,4.96693e-05,-1.38004e-05,1.92503e-05,0.00993386,-0.00276009,0.00385007,0,0,0,0,0.0306674,0.518759,-0.989606,34.375,1,36945,16945305
50,2,-0.654273,-0.0743308,9.79527,0.0923122,-0.578971,0.990546,-0.00654778,-0.000754338,0.0979523,1,5.51978e-05,-2.58961e-05,1.6518e-05,0.0110396,-0.00517922,0.00330359,0,0,0,0,0.0287017,0.518323,-0.991627,34.375,1,36946,16945405
50,3,-0.654273,-0.0743308,9.79527,0.0923122,-0.578971,0.990546,-0.00654778,-0.000754338,0.0979523,1,5.51978e-05,-2.58961e-05,1.6518e-05,0.0110396,-0.00517922,0.00330359,0,0,0,0,0.0287017,0.518323,-0.991627,34.375,1,36946,16945405
50,4,-0.660093,-0.0787548,9.79799,0.0810335,-0.586603,0.996643,-0.00660426,-0.000792999,0.0979796,1,2.67141e-05,-1.71064e-05,1.63337e-05,0.00534281,-0.00342128,0.00326673,0,0,0,0,0.0277428,0.515919,-0.993191,34.375,1,36947,16945505
51,1,-0.660093,-0.0787548,9.79799,0.0810335,-0.586603,0.996643,-0.00660426,-0.000792999,0.0979796,1,2.67141e-05,-1.71064e-05,1.63337e-05,0.00534281,-0.00342128,0.00326673,0,0,0,0,0.0277428,0.515919,-0.993191,34.375,1,36947,16945505
51,2,-0.660391,-0.0884439,9.80367,0.088021,-0.605133,1.00459,-0.00660568,-0.000895667,0.0980364,1,5.59091e-05,-9.24056e-06,2.00684e-05,0.0111818,-0.00184811,0.00401368,0,0,0,0,0.0273599,0.514406,-0.990192,34.375,1,36948,16945605
51,3,-0.660391,-0.0884439,9.80367,0.088021,-0.605133,1.00459,-0.00660568,-0.000895667,0.0980364,1,5.59091e-05,-9.24056e-06,2.00684e-05,0.0111818,-0.00184811,0.00401368,0,0,0,0,0.0273599,0.514406,-0.990192,34.375,1,36948,16945605
51,4,-0.663861,-0.0870684,9.78946,0.0817374,-0.596508,0.987647,-0.00664003,-0.000880508,0.0978944,1,4.85182e-05,-7.45258e-06,2.44509e-05,0.00970364,-0.00149052,0.00489018,0,0,0,0,0.0288488,0.515324,-0.987653,34.375,1,36949,16945705
52,1,-0.663861,-0.0870684,9.78946,0.0817374,-0.596508,0.987647,-0.00664003,-0.000880508,0.0978944,1,4.85182e-05,-7.45258e-06,2.44509e-05,0.00970364,-0.00149052,0.00489018,0,0,0,0,0.0288488,0.515324,-0.987653,34.375,1,36949,16945705
52,2,-0.649935,-0.0737738,9.78813,0.0961215,-0.590774,0.986377,-0.00650357,-0.000749027,0.0978809,1,5.67585e-05,-2.16755e-05,1.36758e-05,0.0113517,-0.0043351,0.00273517,0,0,0,0,0.028286,0.517315,-0.989627,34.375,1,36950,16945805
52,3,-0.649935,-0.0737738,9.78813,0.0961215,-0.590774,0.986377,-0.00650357,-0.000749027,0.0978809,1,5.67585e-05,-2.16755e-05,1.36758e-05,0.0113517,-0.0043351,0.00273517,0,0,0,0,0.028286,0.517315,-0.989627,34.375,1,36950,16945805
52,4,-0.667951,-0.0900684,9.79217,0.0742126,-0.605358,0.989517,-0.00667995,-0.000907997,0.0979216,1,3.64091e-05,-2.39387e-06,1.37072e-05,0.00728182,-0.000478774,0.00274144,0,0,0,0,0.0296226,0.517863,-0.993661,34.375,1,36951,16945905
53,1,-0.667951,-0.0900684,9.79217,0.0742126,-0.605358,0.989517,-0.00667995,-0.000907997,0.0979216,1,3.64091e-05,-2.39387e-06,1.37072e-05,0.00728182,-0.000478774,0.00274144,0,0,0,0,0.0296226,0.517863,-0.993661,34.375,1,36951,16945905
53,2,-0.656476,-0.0832255,9.79384,0.0862779,-0.601556,0.989701,-0.00656519,-0.000842896,0.0979383,1,5.27668e-05,-2.39892e-06,2.32422e-05,0.0105534,-0.000479785,0.00464845,0,0,0,0,0.0300463,0.518383,-0.995672,34.375,1,36952,16946005
53,3,-0.656476,-0.0832255,9.79384,0.0862779,-0.601556,0.989701,-0.00656519,-0.000842896,0.0979383,1,5.27668e-05,-2.39892e-06,2.32422e-05,0.0105534,-0.000479785,0.00464845,0,0,0,0,0.0300463,0.518383,-0.995672,34.375,1,36952,16946005
53,4,-0.660396,-0.0909789,9.80635,0.0779566,-0.606035,1.00194,-0.00660485,-0.000918356,0.0980634,1,4.3733e-05,-4.53948e-06,-7.97104e-07,0.0087466,-0.000907896,-0.000159421,0,0,0,0,0.0296179,0.515939,-0.995219,34.375,1,36953,16946105
54,1,-0.660396,-0.0909789,9.80635,0.0779566,-0.606035,1.00194,-0.00660485,-0.000918356,0.0980634,1,4.3733e-05,-4.53948e-06,-7.97104e-07,0.0087466,-0.000907896,-0.000159421,0,0,0,0,0.0296179,0.515939,-0.995219,34.375,1,36953,16946105
54,2,-0.67406,-0.0891757,9.78374,0.0657613,-0.602633,0.98172,-0.00674225,-0.00090081,0.0978372,1,4.55994e-05,-8.5309e-06,9.65204e-06,0.00911989,-0.00170618,0.00193041,0,0,0,0,0.0297285,0.514413,-0.991718,34.375,1,36954,16946205
54,3,-0.67406,-0.0891757,9.78374,0.0657613,-0.602633,0.98172,-0.00674225,-0.00090081,0.0978372,1,4.55994e-05,-8.5309e-06,9.65204e-06,0.00911989,-0.00170618,0.00193041,0,0,0,0,0.0297285,0.514413,-0.991718,34.375,1,36954,16946205
54,4,-0.660733,-0.081683,9.7922,0.0820707,-0.596153,0.986437,-0.00661083,-0.000824776,0.0979217,1,3.9911e-05,-1.79427e-05,9.82911e-06,0.0079822,-0.00358854,0.00196582,0,0,0,0,0.0293214,0.514363,-0.988687,34.375,1,36955,16946305
54,5,-0.660733,-0.081683,9.7922,0.0820707,-0.596153,0.986437,-0.00661083,-0.000824776,0.0979217,1,3.9911e-05,-1.79427e-05,9.82911e-06,0.0079822,-0.00358854,0.00196582,0,0,0,0,0.0293214,0.514363,-0.988687,34.375,1,36955,16946305
54,6,-0.668792,-0.0845896,9.79699,0.0714357,-0.594299,0.995662,-0.00669173,-0.00085192,0.0979695,1,2.92249e-05,-1.9623e-05,2.22138e-05,0.00584499,-0.0039246,0.00444276,0,0,0,0,0.0307277,0.514378,-0.990208,34.375,1,36956,16946405
55,1,-0.668792,-0.0845896,9.79699,0.0714357,-0.594299,0.995662,-0.00669173,-0.00085192,0.0979695,1,2.92249e-05,-1.9623e-05,2.22138e-05,0.00584499,-0.0039246,0.00444276,0,0,0,0,0.0307277,0.514378,-0.990208,34.375,1,36956,16946405
55,2,-0.662217,-0.0799509,9.78713,0.0774099,-0.592235,0.983446,-0.00662405,-0.000807795,0.0978711,1,4.17809e-05,-9.68609e-06,8.09118e-06,0.00835619,-0.00193722,0.00161824,0,0,0,0,0.0316406,0.514406,-0.992232,34.375,1,36957,16946505
56,1,-0.662217,-0.0799509,9.78713,0.0774099,-0.592235,0.983446,-0.00662405,-0.000807795,0.0978711,1,4.17809e-05,-9.68609e-06,8.09118e-06,0.00835619,-0.00193722,0.00161824,0,0,0,0,0.0316406,0.514406,-0.992232,34.375,1,36957,16946505
56,2,-0.662322,-0.0854918,9.79659,0.0764915,-0.60383,0.992089,-0.00662818,-0.000862502,0.0979655,1,3.78245e-05,-2.54217e-05,1.30591e-05,0.0075649,-0.00508435,0.00261182,0,0,0,0,0.0306418,0.515886,-0.9927,34.375,1,36958,16946605
56,3,-0.662322,-0.0854918,9.79659,0.0764915,-0.60383,0.992089,-0.00662818,-0.000862502,0.0979655,1,3.78245e-05,-2.54217e-05,1.30591e-05,0.0075649,-0.00508435,0.00261182,0,0,0,0,0.0306418,0.515886,-0.9927,34.375,1,36958,16946605
56,4,-0.666451,-0.0873498,9.79117,0.06856,-0.606852,0.988278,-0.00666836,-0.000885089,0.0979114,1,5.81741e-05,-1.98019e-05,1.49234e-05,0.0116348,-0.00396037,0.00298467,0,0,0,0,0.0296881,0.516851,-0.991664,34.375,1,36959,16946705
56,5,-0.666451,-0.0873498,9.79117,0.06856,-0.606852,0.988278,-0.00666836,-0.000885089,0.0979114,1,5.81741e-05,-1.98019e-05,1.49234e-05,0.0116348,-0.00396037,0.00298467,0,0,0,0,0.0296881,0.516851,-0.991664,34.375,1,36959,16946705
56,6,-0.659832,-0.0830043,9.79149,0.0765611,-0.595631,0.986612,-0.00659908,-0.000837742,0.0979148,1,3.80408e-05,-4.02124e-06,1.89282e-05,0.00760817,-0.000804248,0.00378563,0,0,0,0,0.0287506,0.516841,-0.99065,34.375,1,36960,16946805
57,1,-0.659832,-0.0830043,9.79149,0.0765611,-0.595631,0.986612,-0.00659908,-0.000837742,0.0979148,1,3.80408e-05,-4.02124e-06,1.89282e-05,0.00760817,-0.000804248,0.00378563,0,0,0,0,0.0287506,0.516841,-0.99065,34.375,1,36960,16946805
57,2,-0.664318,-0.0814669,9.79798,0.0745845,-0.599549,0.992332,-0.00664363,-0.000821705,0.0979797,1,3.3872e-05,-2.55937e-06,2.9931e-05,0.00677441,-0.000511874,0.0059862,0,0,0,0,0.0292929,0.515347,-0.98917,34.375,1,36961,16946905
57,3,-0.664318,-0.0814669,9.79798,0.0745845,-0.599549,0.992332,-0.00664363,-0.000821705,0.0979797,1,3.3872e-05,-2.55937e-06,2.9931e-05,0.00677441,-0.000511874,0.0059862,0,0,0,0,0.0292929,0.515347,-0.98917,34.375,1,36961,16946905
57,4,-0.662594,-0.077234,9.79631,0.0767537,-0.594894,0.993244,-0.00662688,-0.000781316,0.097963,1,4.46625e-05,-4.93782e-06,1.70358e-05,0.0089325,-0.000987565,0.00340716,0,0,0,0,0.0292725,0.515844,-0.989664,34.375,1,36962,16947005
58,1,-0.662594,-0.077234,9.79631,0.0767537,-0.594894,0.993244,-0.00662688,-0.000781316,0.097963,1,4.46625e-05,-4.93782e-06,1.70358e-05,0.0089325,-0.000987565,0.00340716,0,0,0,0,0.0292725,0.515844,-0.989664,34.375,1,36962,16947005
58,2,-0.663793,-0.0823597,9.78984,0.0753655,-0.600072,0.984538,-0.00664146,-0.000830438,0.0978981,1,3.34213e-05,-1.82187e-05,2.23742e-05,0.00668425,-0.00364374,0.00447483,0,0,0,0,0.0296682,0.518794,-0.991116,34.375,1,36963,16947105
58,3,-0.663793,-0.0823597,9.78984,0.0753655,-0.600072,0.984538,-0.00664146,-0.000830438,0.0978981,1,3.34213e-05,-1.82187e-05,2.23742e-05,0.00668425,-0.00364374,0.00447483,0,0,0,0,0.0296682,0.518794,-0.991116,34.375,1,36963,16947105
58,4,-0.660061,-0.0763402,9.78646,0.074097,-0.598769,0.985292,-0.00659919,-0.00077313,0.0978647,1,4.86262e-05,7.16171e-06,1.59517e-05,0.00972525,0.00143234,0.00319034,0,0,0,0,0.0281669,0.517884,-0.994159,34.375,1,36964,16947205
59,1,-0.660061,-0.0763402,9.78646,0.074097,-0.598769,0.985292,-0.00659919,-0.00077313,0.0978647,1,4.86262e-05,7.16171e-06,1.59517e-05,0.00972525,0.00143234,0.00319034,0,0,0,0,0.0281669,0.517884,-0.994159,34.375,1,36964,16947205
59,2,-0.67109,-0.0797692,9.7916,0.0649014,-0.60132,0.989327,-0.00671126,-0.000804986,0.0979159,1,3.51258e-05,-2.0663e-06,3.08974e-05,0.00702517,-0.000413259,0.00617949,0,0,0,0,0.0282234,0.51447,-0.994235,34.375,1,36965,16947305
59,3,-0.67109,-0.0797692,9.7916,0.0649014,-0.60132,0.989327,-0.00671126,-0.000804986,0.0979159,1,3.51258e-05,-2.0663e-06,3.08974e-05,0.00702517,-0.000413259,0.00617949,0,0,0,0,0.0282234,0.51447,-0.994235,34.375,1,36965,16947305
59,4,-0.655394,-0.0768292,9.79016,0.0849048,-0.597678,0.98693,-0.00655745,-0.000776891,0.0979013,1,4.31948e-05,-1.80172e-05,1.07997e-05,0.00863895,-0.00360345,0.00215994,0,0,0,0,0.0273105,0.514442,-0.992211,34.375,1,36966,16947405
59,5,-0.655394,-0.0768292,9.79016,0.0849048,-0.597678,0.98693,-0.00655745,-0.000776891,0.0979013,1,4.31948e-05,-1.80172e-05,1.07997e-05,0.00863895,-0.00360345,0.00215994,0,0,0,0,0.0273105,0.514442,-0.992211,34.375,1,36966,16947405
59,6,-0.664261,-0.0802799,9.78647,0.0714562,-0.598361,0.986206,-0.006644,-0.000810317,0.0978645,1,3.70649e-05,-7.26415e-06,1.98054e-05,0.00741297,-0.00145283,0.00396108,0,0,0,0,0.0278457,0.516326,-0.988637,34.375,1,36967,16947505
60,1,-0.664261,-0.0802799,9.78647,0.0714562,-0.598361,0.986206,-0.006644,-0.000810317,0.0978645,1,3.70649e-05,-7.26415e-06,1.98054e-05,0.00741297,-0.00145283,0.00396108,0,0,0,0,0.0278457,0.516326,-0.988637,34.375,1,36967,16947505
60,2,-0.672422,-0.0810786,9.78922,0.0642281,-0.600857,0.985517,-0.00672541,-0.000818416,0.0978921,1,3.71412e-05,-6.32382e-06,2.66208e-05,0.00742824,-0.00126476,0.00532416,0,0,0,0,0.0297175,0.518757,-0.989096,34.375,1,36968,16947605
60,3,-0.672422,-0.0810786,9.78922,0.0642281,-0.600857,0.985517,-0.00672541,-0.000818416,0.0978921,1,3.71412e-05,-6.32382e-06,2.66208e-05,0.00742824,-0.00126476,0.00532416,0,0,0,0,0.0297175,0.518757,-0.989096,34.375,1,36968,16947605
60,4,-0.661022,-0.0841784,9.80269,0.0755637,-0.603331,0.998792,-0.00661373,-0.000848512,0.0980266,1,3.34605e-05,-1.8021e-05,1.27146e-05,0.00669211,-0.00360421,0.00254292,0,0,0,0,0.0306095,0.517837,-0.992656,34.375,1,36969,16947705
61,1,-0.661022,-0.0841784,9.80269,0.0755637,-0.603331,0.998792,-0.00661373,-0.000848512,0.0980266,1,3.34605e-05,-1.8021e-05,1.27146e-05,0.00669211,-0.00360421,0.00254292,0,0,0,0,0.0306095,0.517837,-0.992656,34.375,1,36969,16947705
61,2,-0.659742,-0.0798842,9.79153,0.0744862,-0.602303,0.985619,-0.00660049,-0.000807528,0.097915,1,4.35226e-05,-1.57506e-05,1.23735e-05,0.00870452,-0.00315012,0.00247469,0,0,0,0,0.0295894,0.516924,-0.995702,34.375,1,36970,16947805
61,3,-0.659742,-0.0798842,9.79153,0.0744862,-0.602303,0.985619,-0.00660049,-0.000807528,0.097915,1,4.35226e-05,-1.57506e-05,1.23735e-05,0.00870452,-0.00315012,0.00247469,0,0,0,0,0.0295894,0.516924,-0.995702,34.375,1,36970,16947805
61,4,-0.660371,-0.0760167,9.79191,0.0784639,-0.600603,0.986788,-0.00660834,-0.000771837,0.0979187,1,5.81331e-05,-2.37975e-05,2.15934e-05,0.0116266,-0.0047595,0.00431869,0,0,0,0,0.0277015,0.515467,-0.995221,34.375,1,36971,16947905
62,1,-0.660371,-0.0760167,9.79191,0.0784639,-0.600603,0.986788,-0.00660834,-0.000771837,0.0979187,1,5.81331e-05,-2.37975e-05,2.15934e-05,0.0116266,-0.0047595,0.00431869,0,0,0,0,0.0277015,0.515467,-0.995221,34.375,1,36971,16947905
62,2,-0.667879,-0.0846403,9.79629,0.0714181,-0.608109,0.99343,-0.00668163,-0.000856619,0.0979626,1,5.12413e-05,-1.45828e-05,1.31896e-05,0.0102483,-0.00291657,0.00263791,0,0,0,0,0.0277755,0.515413,-0.992192,34.375,1,36972,16948005
62,3,-0.667879,-0.0846403,9.79629,0.0714181,-0.608109,0.99343,-0.00668163,-0.000856619,0.0979626,1,5.12413e-05,-1.45828e-05,1.31896e-05,0.0102483,-0.00291657,0.00263791,0,0,0,0,0.0277755,0.515413,-0.992192,34.375,1,36972,16948005
62,4,-0.663765,-0.0865247,9.79896,0.0721837,-0.607961,0.995754,-0.00664002,-0.000872138,0.0979894,1,3.34904e-05,-1.23157e-05,2.46261e-05,0.00669808,-0.00246314,0.00492521,0,0,0,0,0.027878,0.514375,-0.98868,34.375,1,36973,16948105
63,1,-0.663765,-0.0865247,9.79896,0.0721837,-0.607961,0.995754,-0.00664002,-0.000872138,0.0979894,1,3.34904e-05,-1.23157e-05,2.46261e-05,0.00669808,-0.00246314,0.00492521,0,0,0,0,0.027878,0.514375,-0.98868,34.375,1,36973,16948105
63,2,-0.662766,-0.0795878,9.78986,0.0776778,-0.605587,0.98595,-0.00663253,-0.000803853,0.0978982,1,3.91808e-05,-2.50636e-05,2.28809e-05,0.00783615,-0.00501272,0.00457618,0,0,0,0,0.0278623,0.516795,-0.987616,34.375,1,36974,16948205
63,3,-0.662766,-0.0795878,9.78986,0.0776778,-0.605587,0.98595,-0.00663253,-0.000803853,0.0978982,1,3.91808e-05,-2.50636e-05,2.28809e-05,0.00783615,-0.00501272,0.00457618,0,0,0,0,0.0278623,0.516795,-0.987616,34.375,1,36974,16948205
63,4,-0.650139,-0.0977669,9.78656,0.0855298,-0.622312,0.983698,-0.0065043,-0.000988394,0.0978653,1,5.44953e-05,-1.49294e-05,4.50205e-06,0.0108991,-0.00298589,0.00090041,0,0,0,0,0.0292402,0.517795,-0.989621,34.375,1,36975,16948305
64,1,-0.650139,-0.0977669,9.78656,0.0855298,-0.622312,0.983698,-0.0065043,-0.000988394,0.0978653,1,5.44953e-05,-1.49294e-05,4.50205e-06,0.0108991,-0.00298589,0.00090041,0,0,0,0,0.0292402,0.517795,-0.989621,34.375,1,36975,16948305
64,2,-0.661166,-0.0814006,9.78474,0.0730369,-0.605489,0.979097,-0.0066156,-0.000825559,0.0978471,1,5.7958e-05,-2.02917e-05,1.5978e-05,0.0115916,-0.00405834,0.00319561,0,0,0,0,0.0291491,0.515934,-0.994712,34.375,1,36976,16948405
64,3,-0.661166,-0.0814006,9.78474,0.0730369,-0.605489,0.979097,-0.0066156,-0.000825559,0.0978471,1,5.7958e-05,-2.02917e-05,1.5978e-05,0.0115916,-0.00405834,0.00319561,0,0,0,0,0.0291491,0.515934,-0.994712,34.375,1,36976,16948405
64,4,-0.666497,-0.0895355,9.79251,0.073401,-0.61252,0.98937,-0.006667,-0.000905161,0.0979249,1,4.85239e-05,-1.05947e-05,2.27091e-05,0.00970478,-0.00211894,0.00454183,0,0,0,0,0.0296464,0.514955,-0.994736,34.375,1,36977,16948505
65,1,-0.666497,-0.0895355,9.79251,0.073401,-0.61252,0.98937,-0.006667,-0.000905161,0.0979249,1,4.85239e-05,-1.05947e-05,2.27091e-05,0.00970478,-0.00211894,0.00454183,0,0,0,0,0.0296464,0.514955,-0.994736,34.375,1,36977,16948505
65,2,-0.660424,-0.0953009,9.79038,0.0708028,-0.619612,0.985151,-0.00660588,-0.000962674,0.0979036,1,4.78681e-05,-8.56822e-06,2.20668e-05,0.00957362,-0.00171364,0.00441336,0,0,0,0,0.0277874,0.513959,-0.992729,34.375,1,36978,16948605
65,3,-0.660424,-0.0953009,9.79038,0.0708028,-0.619612,0.985151,-0.00660588,-0.000962674,0.0979036,1,4.78681e-05,-8.56822e-06,2.20668e-05,0.00957362,-0.00171364,0.00441336,0,0,0,0,0.0277874,0.513959,-0.992729,34.375,1,36978,16948605
65,4,-0.67032,-0.0828249,9.7953,0.0688356,-0.611504,0.989004,-0.00670532,-0.000835346,0.0979528,1,3.47663e-05,-1.09969e-05,2.12752e-05,0.00695326,-0.00219939,0.00425505,0,0,0,0,0.0259246,0.51393,-0.990196,34.375,1,36979,16948705
66,1,-0.67032,-0.0828249,9.7953,0.0688356,-0.611504,0.989004,-0.00670532,-0.000835346,0.0979528,1,3.47663e-05,-1.09969e-05,2.12752e-05,0.00695326,-0.00219939,0.00425505,0,0,0,0,0.0259246,0.51393,-0.990196,34.375,1,36979,16948705
66,2,-0.67296,-0.0838994,9.79294,0.0597222,-0.616214,0.992659,-0.00673288,-0.000850927,0.0979291,1,5.98673e-05,-1.68737e-05,1.5352e-05,0.0119735,-0.00337475,0.0030704,0,0,0,0,0.0282979,0.515861,-0.990164,34.375,1,36980,16948805
66,3,-0.67296,-0.0838994,9.79294,0.0597222,-0.616214,0.992659,-0.00673288,-0.000850927,0.0979291,1,5.98673e-05,-1.68737e-05,1.5352e-05,0.0119735,-0.00337475,0.0030704,0,0,0,0,0.0282979,0.515861,-0.990164,34.375,1,36980,16948805
66,4,-0.660853,-0.0696217,9.79976,0.0747507,-0.597962,0.99409,-0.00661103,-0.000706928,0.0979973,1,5.34076e-05,-1.28858e-05,1.84235e-05,0.0106815,-0.00257716,0.00368469,0,0,0,0,0.0311519,0.516343,-0.991177,34.375,1,36981,16948905
67,1,-0.660853,-0.0696217,9.79976,0.0747507,-0.597962,0.99409,-0.00661103,-0.000706928,0.0979973,1,5.34076e-05,-1.28858e-05,1.84235e-05,0.0106815,-0.00257716,0.00368469,0,0,0,0,0.0311519,0.516343,-0.991177,34.375,1,36981,16948905
67,2,-0.659131,-0.0868534,9.79858,0.0775009,-0.612172,0.991922,-0.00659156,-0.000875554,0.0979857,1,3.52412e-05,-1.38941e-06,8.5738e-06,0.00704825,-0.000277882,0.00171476,0,0,0,0,0.0296345,0.516409,-0.994199,34.375,1,36982,16949005
67,3,-0.659131,-0.0868534,9.79858,0.0775009,-0.612172,0.991922,-0.00659156,-0.000875554,0.0979857,1,3.52412e-05,-1.38941e-06,8.5738e-06,0.00704825,-0.000277882,0.00171476,0,0,0,0,0.0296345,0.516409,-0.994199,34.375,1,36982,16949005
67,4,-0.661798,-0.0866584,9.78673,0.0814974,-0.618104,0.982142,-0.00662107,-0.000876845,0.097867,1,5.16995e-05,-1.58606e-05,1.07065e-05,0.0103399,-0.00317212,0.0021413,0,0,0,0,0.0277419,0.513028,-0.995275,34.375,1,36983,16949105
68,1,-0.661798,-0.0866584,9.78673,0.0814974,-0.618104,0.982142,-0.00662107,-0.000876845,0.097867,1,5.16995e-05,-1.58606e-05,1.07065e-05,0.0103399,-0.00317212,0.0021413,0,0,0,0,0.0277419,0.513028,-0.995275,34.375,1,36983,16949105
68,2,-0.665503,-0.0829699,9.79052,0.0736092,-0.610846,0.987451,-0.00665817,-0.000840334,0.0979049,1,5.2981e-05,-1.62091e-05,1.95483e-05,0.0105962,-0.00324183,0.00390966,0,0,0,0,0.0268536,0.512982,-0.992242,34.375,1,36984,16949205
68,3,-0.665503,-0.0829699,9.79052,0.0736092,-0.610846,0.987451,-0.00665817,-0.000840334,0.0979049,1,5.2981e-05,-1.62091e-05,1.95483e-05,0.0105962,-0.00324183,0.00390966,0,0,0,0,0.0268536,0.512982,-0.992242,34.375,1,36984,16949205
68,4,-0.665902,-0.0855548,9.78813,0.0724768,-0.617066,0.986496,-0.00666046,-0.000861812,0.0978811,1,3.07952e-05,-7.5325e-06,1.7626e-05,0.00615905,-0.0015065,0.00352521,0,0,0,0,0.0273642,0.514884,-0.989677,34.375,1,36985,16949305
69,1,-0.665902,-0.0855548,9.78813,0.0724768,-0.617066,0.986496,-0.00666046,-0.000861812,0.0978811,1,3.07952e-05,-7.5325e-06,1.7626e-05,0.00615905,-0.0015065,0.00352521,0,0,0,0,0.0273642,0.514884,-0.989677,34.375,1,36985,16949305
69,2,-0.665669,-0.0809518,9.79225,0.0735347,-0.608191,0.986999,-0.00666294,-0.000819256,0.097922,1,4.82167e-05,-3.21081e-05,2.21447e-05,0.00964333,-0.00642162,0.00442894,0,0,0,0,0.027813,0.516831,-0.989635,34.375,1,36986,16949405
69,3,-0.665669,-0.0809518,9.79225,0.0735347,-0.608191,0.986999,-0.00666294,-0.000819256,0.097922,1,4.82167e-05,-3.21081e-05,2.21447e-05,0.00964333,-0.00642162,0.00442894,0,0,0,0,0.027813,0.516831,-0.989635,34.375,1,36986,16949405
69,4,-0.659006,-0.0771547,9.78952,0.0806391,-0.607448,0.985789,-0.00659419,-0.000779787,0.0978948,1,4.05667e-05,-2.13216e-05,2.25657e-05,0.00811334,-0.00426433,0.00451315,0,0,0,0,0.0292032,0.517822,-0.991135,34.375,1,36987,16949505
70,1,-0.659006,-0.0771547,9.78952,0.0806391,-0.607448,0.985789,-0.00659419,-0.000779787,0.0978948,1,4.05667e-05,-2.13216e-05,2.25657e-05,0.00811334,-0.00426433,0.00451315,0,0,0,0,0.0292032,0.517822,-0.991135,34.375,1,36987,16949505
70,2,-0.650418,-0.0771914,9.77995,0.0880885,-0.606353,0.97683,-0.00650615,-0.000781661,0.0977993,1,4.87453e-05,-1.01777e-05,1.63244e-05,0.00974906,-0.00203554,0.00326488,0,0,0,0,0.02917,0.516883,-0.993176,34.375,1,36988,16949605
71,1,-0.650418,-0.0771914,9.77995,0.0880885,-0.606353,0.97683,-0.00650615,-0.000781661,0.0977993,1,4.87453e-05,-1.01777e-05,1.63244e-05,0.00974906,-0.00203554,0.00326488,0,0,0,0,0.02917,0.516883,-0.993176,34.375,1,36988,16949605
71,2,-0.667556,-0.0925313,9.79418,0.0671811,-0.623296,0.991892,-0.00667714,-0.000936057,0.0979416,1,5.33424e-05,-8.29025e-06,2.20539e-05,0.0106685,-0.00165805,0.00441077,0,0,0,0,0.0282728,0.514434,-0.992216,34.375,1,36989,16949705
71,3,-0.667556,-0.0925313,9.79418,0.0671811,-0.623296,0.991892,-0.00667714,-0.000936057,0.0979416,1,5.33424e-05,-8.29025e-06,2.20539e-05,0.0106685,-0.00165805,0.00441077,0,0,0,0,0.0282728,0.514434,-0.992216,34.375,1,36989,16949705
71,4,-0.666024,-0.0927486,9.79588,0.0716336,-0.629553,0.992755,-0.00666369,-0.000933994,0.0979585,1,3.19742e-05,-1.78106e-05,1.82836e-05,0.00639484,-0.00356212,0.00365673,0,0,0,0,0.0282894,0.514903,-0.991196,34.375,1,36990,16949805
72,1,-0.666024,-0.0927486,9.79588,0.0716336,-0.629553,0.992755,-0.00666369,-0.000933994,0.0979585,1,3.19742e-05,-1.78106e-05,1.82836e-05,0.00639484,-0.00356212,0.00365673,0,0,0,0,0.0282894,0.514903,-0.991196,34.375,1,36990,16949805
72,2,-0.661915,-0.0795668,9.78815,0.0712743,-0.612105,0.983801,-0.006622,-0.000803938,0.0978812,1,4.12035e-05,-1.46532e-05,1.54156e-05,0.0082407,-0.00293065,0.00308311,0,0,0,0,0.0273931,0.515345,-0.988151,34.375,1,36991,16949905
73,1,-0.661915,-0.0795668,9.78815,0.0712743,-0.612105,0.983801,-0.006622,-0.000803938,0.0978812,1,4.12035e-05,-1.46532e-05,1.54156e-05,0.0082407,-0.00293065,0.00308311,0,0,0,0,0.0273931,0.515345,-0.988151,34.375,1,36991,16949905
73,2,-0.661762,-0.0815628,9.78373,0.0732808,-0.616237,0.980246,-0.00662196,-0.000822775,0.097837,1,3.54723e-05,-2.23013e-05,1.55401e-05,0.00709446,-0.00446026,0.00310802,0,0,0,0,0.028808,0.516318,-0.988641,34.375,1,36992,16950005
73,3,-0.661762,-0.0815628,9.78373,0.0732808,-0.616237,0.980246,-0.00662196,-0.000822775,0.097837,1,3.54723e-05,-2.23013e-05,1.55401e-05,0.00709446,-0.00446026,0.00310802,0,0,0,0,0.028808,0.516318,-0.988641,34.375,1,36992,16950005
73,4,-0.665712,-0.0814126,9.80072,0.0712873,-0.612959,0.994379,-0.0066608,-0.000821981,0.0980069,1,3.94974e-05,-1.885e-05,8.42456e-06,0.00789949,-0.00376999,0.00168491,0,0,0,0,0.0315718,0.517829,-0.992661,34.375,1,36993,16950105
74,1,-0.665712,-0.0814126,9.80072,0.0712873,-0.612959,0.994379,-0.0066608,-0.000821981,0.0980069,1,3.94974e-05,-1.885e-05,8.42456e-06,0.00789949,-0.00376999,0.00168491,0,0,0,0,0.0315718,0.517829,-0.992661,34.375,1,36993,16950105
74,2,-0.654213,-0.0824947,9.79893,0.0789399,-0.6128,0.993166,-0.00654618,-0.000830436,0.097989,1,2.65688e-05,-2.08524e-05,2.15433e-05,0.00531375,-0.00417047,0.00430866,0,0,0,0,0.0310413,0.517869,-0.994678,34.375,1,36994,16950205
75,1,-0.654213,-0.0824947,9.79893,0.0789399,-0.6128,0.993166,-0.00654618,-0.000830436,0.097989,1,2.65688e-05,-2.08524e-05,2.15433e-05,0.00531375,-0.00417047,0.00430866,0,0,0,0,0.0310413,0.517869,-0.994678,34.375,1,36994,16950205
75,2,-0.66037,-0.0860936,9.78945,0.0717101,-0.616445,0.982424,-0.00660688,-0.000867953,0.0978942,1,3.44125e-05,-1.64226e-05,2.11503e-05,0.00688251,-0.00328452,0.00423005,0,0,0,0,0.0301564,0.515411,-0.993213,34.375,1,36995,16950305
75,3,-0.66037,-0.0860936,9.78945,0.0717101,-0.616445,0.982424,-0.00660688,-0.000867953,0.0978942,1,3.44125e-05,-1.64226e-05,2.11503e-05,0.00688251,-0.00328452,0.00423005,0,0,0,0,0.0301564,0.515411,-0.993213,34.375,1,36995,16950305
75,4,-0.653721,-0.078237,9.79455,0.0788442,-0.61208,0.988841,-0.00653905,-0.000789283,0.0979453,1,3.46098e-05,-9.5086e-06,1.0144e-05,0.00692196,-0.00190172,0.00202881,0,0,0,0,0.0282975,0.514416,-0.991207,34.375,1,36996,16950405
76,1,-0.653721,-0.078237,9.79455,0.0788442,-0.61208,0.988841,-0.00653905,-0.000789283,0.0979453,1,3.46098e-05,-9.5086e-06,1.0144e-05,0.00692196,-0.00190172,0.00202881,0,0,0,0,0.0282975,0.514416,-0.991207,34.375,1,36996,16950405
76,2,-0.654404,-0.0876425,9.79243,0.0812811,-0.618214,0.990914,-0.00654475,-0.000886861,0.0979242,1,5.14257e-05,-3.88921e-06,2.78039e-05,0.0102851,-0.000777841,0.00556077,0,0,0,0,0.0292806,0.515356,-0.989675,34.375,1,36997,16950505
76,3,-0.654404,-0.0876425,9.79243,0.0812811,-0.618214,0.990914,-0.00654475,-0.000886861,0.0979242,1,5.14257e-05,-3.88921e-06,2.78039e-05,0.0102851,-0.000777841,0.00556077,0,0,0,0,0.0292806,0.515356,-0.989675,34.375,1,36997,16950505
76,4,-0.662472,-0.0853227,9.78709,0.0645074,-0.618755,0.980247,-0.00662817,-0.000862249,0.0978706,1,4.4655e-05,-1.78143e-05,2.11858e-05,0.008931,-0.00356286,0.00423717,0,0,0,0,0.0287306,0.518784,-0.990101,34.375,1,36998,16950605
77,1,-0.662472,-0.0853227,9.78709,0.0645074,-0.618755,0.980247,-0.00662817,-0.000862249,0.0978706,1,4.4655e-05,-1.78143e-05,2.11858e-05,0.008931,-0.00356286,0.00423717,0,0,0,0,0.0287306,0.518784,-0.990101,34.375,1,36998,16950605
77,2,-0.665954,-0.0827121,9.79188,0.0660326,-0.619426,0.985338,-0.0066608,-0.000835379,0.0979186,1,3.96184e-05,-6.75795e-06,3.74932e-05,0.00792369,-0.00135159,0.00749864,0,0,0,0,0.0292117,0.51878,-0.990103,34.375,1,36999,16950705
77,3,-0.665954,-0.0827121,9.79188,0.0660326,-0.619426,0.985338,-0.0066608,-0.000835379,0.0979186,1,3.96184e-05,-6.75795e-06,3.74932e-05,0.00792369,-0.00135159,0.00749864,0,0,0,0,0.0292117,0.51878,-0.990103,34.375,1,36999,16950705
77,4,-0.657039,-0.087204,9.79246,0.0743423,-0.622472,0.987986,-0.00657137,-0.000879846,0.0979245,1,3.83947e-05,-5.1597e-06,2.17742e-05,0.00767895,-0.00103194,0.00435485,0,0,0,0,0.0301322,0.516875,-0.993181,34.375,1,37000,16950805
78,1,-0.657039,-0.087204,9.79246,0.0743423,-0.622472,0.987986,-0.00657137,-0.000879846,0.0979245,1,3.83947e-05,-5.1597e-06,2.17742e-05,0.00767895,-0.00103194,0.00435485,0,0,0,0,0.0301322,0.516875,-0.993181,34.375,1,37000,16950805
78,2,-0.65439,-0.086679,9.78634,0.0803781,-0.621478,0.980143,-0.00654556,-0.000875398,0.0978632,1,4.22299e-05,-8.71538e-06,2.61665e-05,0.00844597,-0.00174308,0.00523329,0,0,0,0,0.0296506,0.515433,-0.99422,34.375,1,37001,16950905
78,3,-0.65439,-0.086679,9.78634,0.0803781,-0.621478,0.980143,-0.00654556,-0.000875398,0.0978632,1,4.22299e-05,-8.71538e-06,2.61665e-05,0.00844597,-0.00174308,0.00523329,0,0,0,0,0.0296506,0.515433,-0.99422,34.375,1,37001,16950905
78,4,-0.660425,-0.0914373,9.79414,0.0722448,-0.628365,0.989223,-0.00660603,-0.000921123,0.0979412,1,3.40864e-05,-9.16045e-06,5.48545e-06,0.00681728,-0.00183209,0.00109709,0,0,0,0,0.0277751,0.513968,-0.993234,34.375,1,37002,16951005
79,1,-0.660425,-0.0914373,9.79414,0.0722448,-0.628365,0.989223,-0.00660603,-0.000921123,0.0979412,1,3.40864e-05,-9.16045e-06,5.48545e-06,0.00681728,-0.00183209,0.00109709,0,0,0,0,0.0277751,0.513968,-0.993234,34.375,1,37002,16951005
79,2,-0.6647,-0.0812134,9.79018,0.0653647,-0.620957,0.985842,-0.00664727,-0.00082242,0.0979017,1,5.16847e-05,-1.46177e-06,1.25227e-05,0.0103369,-0.000292354,0.00250455,0,0,0,0,0.0273518,0.514893,-0.990181,34.375,1,37003,16951105
79,3,-0.6647,-0.0812134,9.79018,0.0653647,-0.620957,0.985842,-0.00664727,-0.00082242,0.0979017,1,5.16847e-05,-1.46177e-06,1.25227e-05,0.0103369,-0.000292354,0.00250455,0,0,0,0,0.0273518,0.514893,-0.990181,34.375,1,37003,16951105
79,4,-0.65579,-0.0781134,9.79558,0.0801069,-0.615002,0.991339,-0.00655828,-0.000790452,0.0979557,1,4.64935e-05,-2.08793e-06,1.5974e-05,0.0092987,-0.000417585,0.0031948,0,0,0,0,0.0292563,0.516819,-0.989642,34.375,1,37004,16951205
79,5,-0.65579,-0.0781134,9.79558,0.0801069,-0.615002,0.991339,-0.00655828,-0.000790452,0.0979557,1,4.64935e-05,-2.08793e-06,1.5974e-05,0.0092987,-0.000417585,0.0031948,0,0,0,0,0.0292563,0.516819,-0.989642,34.375,1,37004,16951205
79,6,-0.668464,-0.0879518,9.79525,0.0680491,-0.623389,0.986477,-0.00668667,-0.000887006,0.0979523,1,3.67893e-05,-1.05762e-05,2.10271e-05,0.00735786,-0.00211524,0.00420541,0,0,0,0,0.0301816,0.516838,-0.991161,34.375,1,37005,16951305
80,1,-0.668464,-0.0879518,9.79525,0.0680491,-0.623389,0.986477,-0.00668667,-0.000887006,0.0979523,1,3.67893e-05,-1.05762e-05,2.10271e-05,0.00735786,-0.00211524,0.00420541,0,0,0,0,0.0301816,0.516838,-0.991161,34.375,1,37005,16951305
80,2,-0.651707,-0.0842554,9.78905,0.0791997,-0.623061,0.987527,-0.00651829,-0.000851721,0.0978904,1,4.61414e-05,-6.34244e-06,1.02186e-05,0.00922828,-0.00126849,0.00204372,0,0,0,0,0.0291372,0.517388,-0.994175,34.375,1,37006,16951405
80,3,-0.651707,-0.0842554,9.78905,0.0791997,-0.623061,0.987527,-0.00651829,-0.000851721,0.0978904,1,4.61414e-05,-6.34244e-06,1.02186e-05,0.00922828,-0.00126849,0.00204372,0,0,0,0,0.0291372,0.517388,-0.994175,34.375,1,37006,16951405
80,4,-0.664192,-0.0777074,9.79531,0.0652344,-0.611827,0.988181,-0.0066463,-0.000783775,0.0979527,1,3.30731e-05,-2.24914e-05,1.66821e-05,0.00661461,-0.00449828,0.00333641,0,0,0,0,0.0286931,0.517365,-0.992658,34.375,1,37007,16951505
81,1,-0.664192,-0.0777074,9.79531,0.0652344,-0.611827,0.988181,-0.0066463,-0.000783775,0.0979527,1,3.30731e-05,-2.24914e-05,1.66821e-05,0.00661461,-0.00449828,0.00333641,0,0,0,0,0.0286931,0.517365,-0.992658,34.375,1,37007,16951505
81,2,-0.666584,-0.0869091,9.79456,0.066907,-0.62279,0.989553,-0.00666616,-0.000875781,0.0979455,1,3.30787e-05,-1.7677e-06,1.57635e-05,0.00661575,-0.000353539,0.0031527,0,0,0,0,0.0282856,0.51587,-0.990669,34.375,1,37008,16951605
82,1,-0.666584,-0.0869091,9.79456,0.066907,-0.62279,0.989553,-0.00666616,-0.000875781,0.0979455,1,3.30787e-05,-1.7677e-06,1.57635e-05,0.00661575,-0.000353539,0.0031527,0,0,0,0,0.0282856,0.51587,-0.990669,34.375,1,37008,16951605
82,2,-0.667679,-0.0840594,9.78883,0.0621606,-0.626887,0.985698,-0.00667741,-0.000848722,0.0978881,1,4.08925e-05,-3.22221e-06,9.18846e-06,0.00817851,-0.000644443,0.00183769,0,0,0,0,0.0288198,0.514863,-0.989179,34.375,1,37009,16951705
82,3,-0.667679,-0.0840594,9.78883,0.0621606,-0.626887,0.985698,-0.00667741,-0.000848722,0.0978881,1,4.08925e-05,-3.22221e-06,9.18846e-06,0.00817851,-0.000644443,0.00183769,0,0,0,0,0.0288198,0.514863,-0.989179,34.375,1,37009,16951705
82,4,-0.664863,-0.0830079,9.78306,0.0715507,-0.622449,0.980538,-0.006652,-0.000838559,0.0978303,1,4.29693e-05,-1.728e-05,5.48529e-06,0.00859386,-0.00345599,0.00109706,0,0,0,0,0.0302105,0.517299,-0.989636,34.375,1,37010,16951805
83,1,-0.664863,-0.0830079,9.78306,0.0715507,-0.622449,0.980538,-0.006652,-0.000838559,0.0978303,1,4.29693e-05,-1.728e-05,5.48529e-06,0.00859386,-0.00345599,0.00109706,0,0,0,0,0.0302105,0.517299,-0.989636,34.375,1,37010,16951805
83,2,-0.663221,-0.0889243,9.79926,0.0661229,-0.631117,0.993984,-0.00663238,-0.000896841,0.0979925,1,3.83369e-05,-9.64633e-07,6.43e-06,0.00766739,-0.000192927,0.001286,0,0,0,0,0.030667,0.517313,-0.990648,34.375,1,37011,16951905
84,1,-0.663221,-0.0889243,9.79926,0.0661229,-0.631117,0.993984,-0.00663238,-0.000896841,0.0979925,1,3.83369e-05,-9.64633e-07,6.43e-06,0.00766739,-0.000192927,0.001286,0,0,0,0,0.030667,0.517313,-0.990648,34.375,1,37011,16951905
84,2,-0.656034,-0.0881647,9.78973,0.0752549,-0.627217,0.984955,-0.00656175,-0.000889439,0.0978971,1,3.81377e-05,-7.43205e-06,2.48084e-05,0.00762755,-0.00148641,0.00496168,0,0,0,0,0.0296839,0.516373,-0.99218,34.375,1,37012,16952005
84,3,-0.656034,-0.0881647,9.78973,0.0752549,-0.627217,0.984955,-0.00656175,-0.000889439,0.0978971,1,3.81377e-05,-7.43205e-06,2.48084e-05,0.00762755,-0.00148641,0.00496168,0,0,0,0,0.0296839,0.516373,-0.99218,34.375,1,37012,16952005
84,4,-0.655105,-0.0747929,9.77933,0.0776666,-0.614518,0.970019,-0.0065543,-0.000758316,0.097793,1,5.09507e-05,-1.68513e-05,3.21308e-05,0.0101901,-0.00337026,0.00642615,0,0,0,0,0.0287496,0.513951,-0.992734,34.375,1,37013,16952105
85,1,-0.655105,-0.0747929,9.77933,0.0776666,-0.614518,0.970019,-0.0065543,-0.000758316,0.097793,1,5.09507e-05,-1.68513e-05,3.21308e-05,0.0101901,-0.00337026,0.00642615,0,0,0,0,0.0287496,0.513951,-0.992734,34.375,1,37013,16952105
85,2,-0.667901,-0.0830432,9.79258,0.0660858,-0.624113,0.988202,-0.00668244,-0.000840198,0.0979255,1,4.90695e-05,-1.7654e-05,1.16845e-05,0.00981391,-0.00353079,0.0023369,0,0,0,0,0.0282932,0.513937,-0.991722,34.375,1,37014,16952205
85,3,-0.667901,-0.0830432,9.79258,0.0660858,-0.624113,0.988202,-0.00668244,-0.000840198,0.0979255,1,4.90695e-05,-1.7654e-05,1.16845e-05,0.00981391,-0.00353079,0.0023369,0,0,0,0,0.0282932,0.513937,-0.991722,34.375,1,37014,16952205
85,4,-0.64718,-0.0837611,9.79175,0.0908384,-0.624816,0.985407,-0.00647543,-0.000843967,0.0979172,1,3.11414e-05,-1.8718e-05,1.99061e-05,0.00622828,-0.0037436,0.00398123,0,0,0,0,0.0302755,0.514842,-0.988681,34.375,1,37015,16952305
85,5,-0.64718,-0.0837611,9.79175,0.0908384,-0.624816,0.985407,-0.00647543,-0.000843967,0.0979172,1,3.11414e-05,-1.8718e-05,1.99061e-05,0.00622828,-0.0037436,0.00398123,0,0,0,0,0.0302755,0.514842,-0.988681,34.375,1,37015,16952305
85,6,-0.675424,-0.0858451,9.78988,0.0545162,-0.624928,0.98601,-0.0067569,-0.000866636,0.0978986,1,3.97395e-05,-1.38393e-05,2.99031e-05,0.00794789,-0.00276785,0.00598062,0,0,0,0,0.0287999,0.516805,-0.98863,34.375,1,37016,16952405
86,1,-0.675424,-0.0858451,9.78988,0.0545162,-0.624928,0.98601,-0.0067569,-0.000866636,0.0978986,1,3.97395e-05,-1.38393e-05,2.99031e-05,0.00794789,-0.00276785,0.00598062,0,0,0,0,0.0287999,0.516805,-0.98863,34.375,1,37016,16952405
86,2,-0.659828,-0.0884451,9.79924,0.0724542,-0.628606,0.991024,-0.00659801,-0.000895304,0.0979923,1,5.48791e-05,1.32021e-06,7.38543e-06,0.0109758,0.000264041,0.00147709,0,0,0,0,0.0282244,0.51736,-0.992151,34.375,1,37017,16952505
86,3,-0.659828,-0.0884451,9.79924,0.0724542,-0.628606,0.991024,-0.00659801,-0.000895304,0.0979923,1,5.48791e-05,1.32021e-06,7.38543e-06,0.0109758,0.000264041,0.00147709,0,0,0,0,0.0282244,0.51736,-0.992151,34.375,1,37017,16952505
86,4,-0.665116,-0.0809883,9.79699,0.0651027,-0.624188,0.989041,-0.00665461,-0.000818395,0.0979695,1,4.17401e-05,-1.78476e-05,2.51252e-05,0.00834802,-0.00356953,0.00502504,0,0,0,0,0.0291453,0.516901,-0.994185,34.375,1,37018,16952605
87,1,-0.665116,-0.0809883,9.79699,0.0651027,-0.624188,0.989041,-0.00665461,-0.000818395,0.0979695,1,4.17401e-05,-1.78476e-05,2.51252e-05,0.00834802,-0.00356953,0.00502504,0,0,0,0,0.0291453,0.516901,-0.994185,34.375,1,37018,16952605
87,2,-0.655877,-0.0753452,9.80102,0.0752819,-0.620963,0.99272,-0.00655747,-0.000764398,0.0980102,1,5.40614e-05,6.41534e-06,2.65594e-05,0.0108123,0.00128307,0.00531188,0,0,0,0,0.0287292,0.514448,-0.993228,34.375,1,37019,16952705
87,3,-0.655877,-0.0753452,9.80102,0.0752819,-0.620963,0.99272,-0.00655747,-0.000764398,0.0980102,1,5.40614e-05,6.41534e-06,2.65594e-05,0.0108123,0.00128307,0.00531188,0,0,0,0,0.0287292,0.514448,-0.993228,34.375,1,37019,16952705
87,4,-0.666177,-0.0803988,9.80615,0.068885,-0.618492,1.00171,-0.00666601,-0.000812878,0.0980611,1,4.37773e-05,-2.17876e-05,2.28776e-05,0.00875546,-0.00435752,0.00457552,0,0,0,0,0.0273144,0.513475,-0.992738,34.375,1,37020,16952805
88,1,-0.666177,-0.0803988,9.80615,0.068885,-0.618492,1.00171,-0.00666601,-0.000812878,0.0980611,1,4.37773e-05,-2.17876e-05,2.28776e-05,0.00875546,-0.00435752,0.00457552,0,0,0,0,0.0273144,0.513475,-0.992738,34.375,1,37020,16952805
88,2,-0.668302,-0.0886672,9.79523,0.0686826,-0.630418,0.989929,-0.0066842,-0.000892624,0.0979522,1,2.93422e-05,-6.16351e-06,1.51844e-05,0.00586844,-0.0012327,0.00303688,0,0,0,0,0.0292516,0.514895,-0.9912,34.375,1,37021,16952905
88,3,-0.668302,-0.0886672,9.79523,0.0686826,-0.630418,0.989929,-0.0066842,-0.000892624,0.0979522,1,2.93422e-05,-6.16351e-06,1.51844e-05,0.00586844,-0.0012327,0.00303688,0,0,0,0,0.0292516,0.514895,-0.9912,34.375,1,37021,16952905
88,4,-0.65502,-0.0887224,9.79142,0.0788445,-0.633123,0.982843,-0.00655227,-0.000895972,0.097914,1,4.41931e-05,-1.06303e-05,7.16214e-06,0.00883861,-0.00212605,0.00143243,0,0,0,0,0.0307282,0.515823,-0.989166,34.375,1,37022,16953005
89,1,-0.65502,-0.0887224,9.79142,0.0788445,-0.633123,0.982843,-0.00655227,-0.000895972,0.097914,1,4.41931e-05,-1.06303e-05,7.16214e-06,0.00883861,-0.00212605,0.00143243,0,0,0,0,0.0307282,0.515823,-0.989166,34.375,1,37022,16953005
89,2,-0.665203,-0.0785567,9.79259,0.0680671,-0.617713,0.988608,-0.00665556,-0.000794142,0.0979256,1,4.23901e-05,-1.81569e-05,2.04557e-05,0.00847801,-0.00363138,0.00409115,0,0,0,0,0.0306584,0.516356,-0.991679,34.375,1,37023,16953105
89,3,-0.665203,-0.0785567,9.79259,0.0680671,-0.617713,0.988608,-0.00665556,-0.000794142,0.0979256,1,4.23901e-05,-1.81569e-05,2.04557e-05,0.00847801,-0.00363138,0.00409115,0,0,0,0,0.0306584,0.516356,-0.991679,34.375,1,37023,16953105
89,4,-0.660039,-0.0858246,9.79284,0.0779593,-0.629192,0.986232,-0.00660424,-0.000866484,0.097928,1,4.01493e-05,-1.98931e-05,2.83084e-05,0.00802987,-0.00397863,0.00566169,0,0,0,0,0.0291206,0.516919,-0.995195,34.375,1,37024,16953205
90,1,-0.660039,-0.0858246,9.79284,0.0779593,-0.629192,0.986232,-0.00660424,-0.000866484,0.097928,1,4.01493e-05,-1.98931e-05,2.83084e-05,0.00802987,-0.00397863,0.00566169,0,0,0,0,0.0291206,0.516919,-0.995195,34.375,1,37024,16953205
90,2,-0.66702,-0.0766217,9.79329,0.0645103,-0.616157,0.986556,-0.00667109,-0.000773671,0.0979328,1,3.68581e-05,-4.67119e-06,1.7615e-05,0.00737162,-0.000934239,0.003523,0,0,0,0,0.02824,0.514939,-0.993215,34.375,1,37025,16953305
91,1,-0.66702,-0.0766217,9.79329,0.0645103,-0.616157,0.986556,-0.00667109,-0.000773671,0.0979328,1,3.68581e-05,-4.67119e-06,1.7615e-05,0.00737162,-0.000934239,0.003523,0,0,0,0,0.02824,0.514939,-0.993215,34.375,1,37025,16953305
91,2,-0.667425,-0.0783553,9.78887,0.0678762,-0.620543,0.98455,-0.00667514,-0.00078988,0.0978886,1,3.09627e-05,-4.71244e-06,1.98503e-05,0.00619254,-0.000942488,0.00397007,0,0,0,0,0.0283055,0.513928,-0.991217,34.375,1,37026,16953405
91,3,-0.667425,-0.0783553,9.78887,0.0678762,-0.620543,0.98455,-0.00667514,-0.00078988,0.0978886,1,3.09627e-05,-4.71244e-06,1.98503e-05,0.00619254,-0.000942488,0.00397007,0,0,0,0,0.0283055,0.513928,-0.991217,34.375,1,37026,16953405
91,4,-0.657366,-0.0829443,9.79454,0.0764611,-0.627919,0.987049,-0.00657682,-0.000839933,0.0979451,1,5.22043e-05,-1.6302e-05,2.00291e-05,0.0104409,-0.0032604,0.00400583,0,0,0,0,0.0297821,0.514855,-0.989183,34.375,1,37027,16953505
92,1,-0.657366,-0.0829443,9.79454,0.0764611,-0.627919,0.987049,-0.00657682,-0.000839933,0.0979451,1,5.22043e-05,-1.6302e-05,2.00291e-05,0.0104409,-0.0032604,0.00400583,0,0,0,0,0.0297821,0.514855,-0.989183,34.375,1,37027,16953505
92,2,-0.663639,-0.0725395,9.8028,0.0704847,-0.620665,1.00063,-0.00663697,-0.000733943,0.0980279,1,4.21982e-05,-3.10139e-06,2.07258e-05,0.00843963,-0.000620278,0.00414515,0,0,0,0,0.0306997,0.516807,-0.989649,34.375,1,37028,16953605
92,3,-0.663639,-0.0725395,9.8028,0.0704847,-0.620665,1.00063,-0.00663697,-0.000733943,0.0980279,1,4.21982e-05,-3.10139e-06,2.07258e-05,0.00843963,-0.000620278,0.00414515,0,0,0,0,0.0306997,0.516807,-0.989649,34.375,1,37028,16953605
92,4,-0.667779,-0.0849863,9.7939,0.0701395,-0.632384,0.988136,-0.00667654,-0.000860043,0.097939,1,5.01628e-05,6.14684e-06,2.65801e-05,0.0100326,0.00122937,0.00531602,0,0,0,0,0.0310868,0.5188,-0.992132,34.375,1,37029,16953705
93,1,-0.667779,-0.0849863,9.7939,0.0701395,-0.632384,0.988136,-0.00667654,-0.000860043,0.097939,1,5.01628e-05,6.14684e-06,2.65801e-05,0.0100326,0.00122937,0.00531602,0,0,0,0,0.0310868,0.5188,-0.992132,34.375,1,37029,16953705
93,2,-0.66637,-0.0887761,9.78165,0.0627979,-0.634263,0.9776,-0.00666429,-0.000896042,0.0978164,1,4.10787e-05,-3.17968e-06,1.83528e-05,0.00821574,-0.000635937,0.00367056,0,0,0,0,0.0305768,0.518343,-0.993655,34.375,1,37030,16953805
93,3,-0.66637,-0.0887761,9.78165,0.0627979,-0.634263,0.9776,-0.00666429,-0.000896042,0.0978164,1,4.10787e-05,-3.17968e-06,1.83528e-05,0.00821574,-0.000635937,0.00367056,0,0,0,0,0.0305768,0.518343,-0.993655,34.375,1,37030,16953805
93,4,-0.666785,-0.0741168,9.78788,0.0645509,-0.620488,0.979657,-0.00666846,-0.000749783,0.0978787,1,4.30625e-05,-3.23369e-06,1.38433e-05,0.0086125,-0.000646739,0.00276866,0,0,0,0,0.0296995,0.513952,-0.993243,34.375,1,37031,16953905
94,1,-0.666785,-0.0741168,9.78788,0.0645509,-0.620488,0.979657,-0.00666846,-0.000749783,0.0978787,1,4.30625e-05,-3.23369e-06,1.38433e-05,0.0086125,-0.000646739,0.00276866,0,0,0,0,0.0296995,0.513952,-0.993243,34.375,1,37031,16953905
94,2,-0.662324,-0.0820694,9.79083,0.0708742,-0.628925,0.982573,-0.00662261,-0.00082868,0.0979083,1,3.91509e-05,3.00584e-06,2.41288e-05,0.00783018,0.000601168,0.00482575,0,0,0,0,0.0287658,0.512975,-0.992756,34.375,1,37032,16954005
94,3,-0.662324,-0.0820694,9.79083,0.0708742,-0.628925,0.982573,-0.00662261,-0.00082868,0.0979083,1,3.91509e-05,3.00584e-06,2.41288e-05,0.00783018,0.000601168,0.00482575,0,0,0,0,0.0287658,0.512975,-0.992756,34.375,1,37032,16954005
94,4,-0.665569,-0.0807723,9.78342,0.0610551,-0.62605,0.976807,-0.00665953,-0.000818825,0.0978338,1,5.57526e-05,-1.97274e-05,1.45175e-05,0.0111505,-0.00394548,0.00290351,0,0,0,0,0.0282894,0.514903,-0.991196,34.375,1,37033,16954105
95,1,-0.665569,-0.0807723,9.78342,0.0610551,-0.62605,0.976807,-0.00665953,-0.000818825,0.0978338,1,5.57526e-05,-1.97274e-05,1.45175e-05,0.0111505,-0.00394548,0.00290351,0,0,0,0,0.0282894,0.514903,-0.991196,34.375,1,37033,16954105
95,2,-0.668851,-0.0895493,9.79592,0.0616836,-0.641345,0.990247,-0.00669216,-0.00090585,0.0979588,1,5.15822e-05,-1.87978e-05,1.8798e-05,0.0103164,-0.00375956,0.00375959,0,0,0,0,0.0297455,0.516328,-0.989655,34.375,1,37034,16954205
95,3,-0.668851,-0.0895493,9.79592,0.0616836,-0.641345,0.990247,-0.00669216,-0.00090585,0.0979588,1,5.15822e-05,-1.87978e-05,1.8798e-05,0.0103164,-0.00375956,0.00375959,0,0,0,0,0.0297455,0.516328,-0.989655,34.375,1,37034,16954205
95,4,-0.666699,-0.0890213,9.80405,0.0676029,-0.633028,0.997146,-0.00667106,-0.000898368,0.0980401,1,4.04155e-05,-2.08972e-05,1.72537e-05,0.00808311,-0.00417945,0.00345073,0,0,0,0,0.0311561,0.516822,-0.990661,34.375,1,37035,16954305
96,1,-0.666699,-0.0890213,9.80405,0.0676029,-0.633028,0.997146,-0.00667106,-0.000898368,0.0980401,1,4.04155e-05,-2.08972e-05,1.72537e-05,0.00808311,-0.00417945,0.00345073,0,0,0,0,0.0311561,0.516822,-0.990661,34.375,1,37035,16954305
96,2,-0.659764,-0.0866574,9.79418,0.0750809,-0.637425,0.987654,-0.00659913,-0.000876963,0.0979416,1,5.13513e-05,-7.83207e-06,2.49967e-05,0.0102703,-0.00156641,0.00499934,0,0,0,0,0.0286765,0.516896,-0.993678,34.375,1,37036,16954405
96,3,-0.659764,-0.0866574,9.79418,0.0750809,-0.637425,0.987654,-0.00659913,-0.000876963,0.0979416,1,5.13513e-05,-7.83207e-06,2.49967e-05,0.0102703,-0.00156641,0.00499934,0,0,0,0,0.0286765,0.516896,-0.993678,34.375,1,37036,16954405
96,4,-0.67808,-0.0823149,9.79875,0.0576846,-0.631997,0.99306,-0.00678272,-0.000831345,0.0979873,1,4.14346e-05,-9.84031e-06,5.54119e-06,0.00828692,-0.00196806,0.00110824,0,0,0,0,0.0272574,0.515444,-0.993704,34.375,1,37037,16954505
97,1,-0.67808,-0.0823149,9.79875,0.0576846,-0.631997,0.99306,-0.00678272,-0.000831345,0.0979873,1,4.14346e-05,-9.84031e-06,5.54119e-06,0.00828692,-0.00196806,0.00110824,0,0,0,0,0.0272574,0.515444,-0.993704,34.375,1,37037,16954505
97,2,-0.667332,-0.0834212,9.78849,0.0674732,-0.626417,0.981965,-0.00667552,-0.00084245,0.0978846,1,4.09596e-05,-1.13471e-05,1.64286e-05,0.00819191,-0.00226942,0.00328573,0,0,0,0,0.0283259,0.513431,-0.990723,34.375,1,37038,16954605
97,3,-0.667332,-0.0834212,9.78849,0.0674732,-0.626417,0.981965,-0.00667552,-0.00084245,0.0978846,1,4.09596e-05,-1.13471e-05,1.64286e-05,0.00819191,-0.00226942,0.00328573,0,0,0,0,0.0283259,0.513431,-0.990723,34.375,1,37038,16954605
97,4,-0.664861,-0.0868056,9.78404,0.0670198,-0.634541,0.981576,-0.00665186,-0.000875553,0.0978401,1,3.68486e-05,-1.68142e-05,2.15452e-05,0.00736973,-0.00336284,0.00430904,0,0,0,0,0.029831,0.513374,-0.988206,34.375,1,37039,16954705
98,1,-0.664861,-0.0868056,9.78404,0.0670198,-0.634541,0.981576,-0.00665186,-0.000875553,0.0978401,1,3.68486e-05,-1.68142e-05,2.15452e-05,0.00736973,-0.00336284,0.00430904,0,0,0,0,0.029831,0.513374,-0.988206,34.375,1,37039,16954705
98,2,-0.665445,-0.0817127,9.78953,0.0670423,-0.632089,0.983326,-0.00665905,-0.000824956,0.0978949,1,3.97864e-05,-2.3508e-05,2.995e-06,0.00795727,-0.0047016,0.000599001,0,0,0,0,0.029281,0.516801,-0.988633,34.375,1,37040,16954805
99,1,-0.665445,-0.0817127,9.78953,0.0670423,-0.632089,0.983326,-0.00665905,-0.000824956,0.0978949,1,3.97864e-05,-2.3508e-05,2.995e-06,0.00795727,-0.0047016,0.000599001,0,0,0,0,0.029281,0.516801,-0.988633,34.375,1,37040,16954805
99,2,-0.665483,-0.0820113,9.80105,0.068763,-0.63054,0.993781,-0.0066575,-0.000829022,0.0980102,1,4.49214e-05,-1.37054e-05,7.71705e-06,0.00898428,-0.00274108,0.00154341,0,0,0,0,0.0306342,0.517819,-0.991647,34.375,1,37041,16954905
99,3,-0.665483,-0.0820113,9.80105,0.068763,-0.63054,0.993781,-0.0066575,-0.000829022,0.0980102,1,4.49214e-05,-1.37054e-05,7.71705e-06,0.00898428,-0.00274108,0.00154341,0,0,0,0,0.0306342,0.517819,-0.991647,34.375,1,37041,16954905
99,4,-0.662252,-0.078613,9.79731,0.0721996,-0.629552,0.988924,-0.00662343,-0.000794247,0.097973,1,4.04939e-05,-4.77748e-06,1.37614e-05,0.00809878,-0.000955497,0.00275228,0,0,0,0,0.0301199,0.516884,-0.993685,34.375,1,37042,16955005
100,1,-0.662252,-0.078613,9.79731,0.0721996,-0.629552,0.988924,-0.00662343,-0.000794247,0.097973,1,4.04939e-05,-4.77748e-06,1.37614e-05,0.00809878,-0.000955497,0.00275228,0,0,0,0,0.0301199,0.516884,-0.993685,34.375,1,37042,16955005
100,2,-0.67507,-0.0757861,9.79201,0.0542096,-0.626304,0.986649,-0.00675372,-0.000764639,0.0979198,1,3.36859e-05,-1.55012e-05,1.3381e-05,0.00673719,-0.00310024,0.00267619,0,0,0,0,0.0282116,0.515924,-0.993698,34.375,1,37043,16955105
100,3,-0.67507,-0.0757861,9.79201,0.0542096,-0.626304,0.986649,-0.00675372,-0.000764639,0.0979198,1,3.36859e-05,-1.55012e-05,1.3381e-05,0.00673719,-0.00310024,0.00267619,0,0,0,0,0.0282116,0.515924,-0.993698,34.375,1,37043,16955105
100,4,-0.667999,-0.0855978,9.79221,0.0638685,-0.633324,0.987328,-0.00668137,-0.00086385,0.0979219,1,3.97153e-05,-7.10435e-06,7.04642e-06,0.00794305,-0.00142087,0.00140928,0,0,0,0,0.0273267,0.513466,-0.992233,34.375,1,37044,16955205
101,1,-0.667999,-0.0855978,9.79221,0.0638685,-0.633324,0.987328,-0.00668137,-0.00086385,0.0979219,1,3.97153e-05,-7.10435e-06,7.04642e-06,0.00794305,-0.00142087,0.00140928,0,0,0,0,0.0273267,0.513466,-0.992233,34.375,1,37044,16955205
101,2,-0.663393,-0.0823115,9.79527,0.0695362,-0.631767,0.990654,-0.00663741,-0.000831603,0.0979524,1,4.20548e-05,-1.79019e-05,1.87363e-05,0.00841097,-0.00358037,0.00374726,0,0,0,0,0.0293128,0.513405,-0.989718,34.375,1,37045,16955305
101,3,-0.663393,-0.0823115,9.79527,0.0695362,-0.631767,0.990654,-0.00663741,-0.000831603,0.0979524,1,4.20548e-05,-1.79019e-05,1.87363e-05,0.00841097,-0.00358037,0.00374726,0,0,0,0,0.0293128,0.513405,-0.989718,34.375,1,37045,16955305
101,4,-0.655245,-0.0865724,9.8006,0.0791229,-0.636568,0.994906,-0.00655535,-0.000874378,0.0980057,1,4.33456e-05,-1.48753e-05,1.20512e-05,0.00866911,-0.00297506,0.00241024,0,0,0,0,0.0306874,0.516816,-0.990154,34.375,1,37046,16955405
102,1,-0.655245,-0.0865724,9.8006,0.0791229,-0.636568,0.994906,-0.00655535,-0.000874378,0.0980057,1,4.33456e-05,-1.48753e-05,1.20512e-05,0.00866911,-0.00297506,0.00241024,0,0,0,0,0.0306874,0.516816,-0.990154,34.375,1,37046,16955405
102,2,-0.658356,-0.0900038,9.78261,0.0776383,-0.638362,0.972825,-0.00658633,-0.000911071,0.0978258,1,5.44191e-05,-1.43949e-05,2.92842e-05,0.0108838,-0.00287898,0.00585685,0,0,0,0,0.0311277,0.517806,-0.991144,34.375,1,37047,16955505
102,3,-0.658356,-0.0900038,9.78261,0.0776383,-0.638362,0.972825,-0.00658633,-0.000911071,0.0978258,1,5.44191e-05,-1.43949e-05,2.92842e-05,0.0108838,-0.00287898,0.00585685,0,0,0,0,0.0311277,0.517806,-0.991144,34.375,1,37047,16955505
102,4,-0.661199,-0.0731261,9.79261,0.0736178,-0.628058,0.990811,-0.00661431,-0.000744375,0.0979259,1,6.61258e-05,-1.19635e-05,1.23288e-05,0.0132252,-0.00239271,0.00246576,0,0,0,0,0.0306133,0.516871,-0.993183,34.375,1,37048,16955605
103,1,-0.661199,-0.0731261,9.79261,0.0736178,-0.628058,0.990811,-0.00661431,-0.000744375,0.0979259,1,6.61258e-05,-1.19635e-05,1.23288e-05,0.0132252,-0.00239271,0.00246576,0,0,0,0,0.0306133,0.516871,-0.993183,34.375,1,37048,16955605
103,2,-0.665019,-0.0850165,9.7871,0.0694016,-0.635249,0.981849,-0.00665097,-0.000860507,0.0978708,1,5.1422e-05,-4.17243e-06,2.08525e-05,0.0102844,-0.000834487,0.0041705,0,0,0,0,0.02824,0.514939,-0.993215,34.375,1,37049,16955705
103,3,-0.665019,-0.0850165,9.7871,0.0694016,-0.635249,0.981849,-0.00665097,-0.000860507,0.0978708,1,5.1422e-05,-4.17243e-06,2.08525e-05,0.0102844,-0.000834487,0.0041705,0,0,0,0,0.02824,0.514939,-0.993215,34.375,1,37049,16955705
103,4,-0.650772,-0.0879913,9.78595,0.0794941,-0.638514,0.980401,-0.00650792,-0.000888489,0.0978594,1,4.26843e-05,-1.13781e-06,1.6982e-05,0.00853685,-0.000227563,0.0033964,0,0,0,0,0.0278078,0.513462,-0.992236,34.375,1,37050,16955805
104,1,-0.650772,-0.0879913,9.78595,0.0794941,-0.638514,0.980401,-0.00650792,-0.000888489,0.0978594,1,4.26843e-05,-1.13781e-06,1.6982e-05,0.00853685,-0.000227563,0.0033964,0,0,0,0,0.0278078,0.513462,-0.992236,34.375,1,37050,16955805
104,2,-0.667186,-0.0816403,9.79631,0.0668801,-0.637087,0.992163,-0.00667496,-0.000826397,0.0979628,1,4.98239e-05,-1.59777e-05,1.74195e-05,0.00996478,-0.00319555,0.0034839,0,0,0,0,0.0288564,0.513391,-0.988706,34.375,1,37051,16955905
104,3,-0.667186,-0.0816403,9.79631,0.0668801,-0.637087,0.992163,-0.00667496,-0.000826397,0.0979628,1,4.98239e-05,-1.59777e-05,1.74195e-05,0.00996478,-0.00319555,0.0034839,0,0,0,0,0.0288564,0.513391,-0.988706,34.375,1,37051,16955905
104,4,-0.657499,-0.0788739,9.79219,0.073504,-0.63303,0.985153,-0.00657599,-0.000797259,0.0979218,1,4.1211e-05,-5.36069e-06,3.41274e-05,0.0082422,-0.00107214,0.00682548,0,0,0,0,0.0287956,0.516327,-0.989146,34.375,3,37052,16956005
105,1,-0.657499,-0.0788739,9.79219,0.073504,-0.63303,0.985153,-0.00657599,-0.000797259,0.0979218,1,4.1211e-05,-5.36069e-06,3.41274e-05,0.0082422,-0.00107214,0.00682548,0,0,0,0,0.0287956,0.516327,-0.989146,34.375,3,37052,16956005
105,2,-0.65498,-0.0853138,9.79111,0.0741746,-0.63752,0.984365,-0.00655154,-0.000862487,0.0979109,1,4.69611e-05,-9.01126e-06,1.16655e-05,0.00939222,-0.00180225,0.00233311,0,0,0,0,0.0291866,0.517352,-0.992155,34.375,3,37053,16956105
105,3,-0.65498,-0.0853138,9.79111,0.0741746,-0.63752,0.984365,-0.00655154,-0.000862487,0.0979109,1,4.69611e-05,-9.01126e-06,1.16655e-05,0.00939222,-0.00180225,0.00233311,0,0,0,0,0.0291866,0.517352,-0.992155,34.375,3,37053,16956105
105,4,-0.651689,-0.0773738,9.79217,0.0808458,-0.633983,0.983952,-0.00651948,-0.000778442,0.0979215,1,2.30725e-05,-1.33088e-05,1.42455e-05,0.00461449,-0.00266177,0.00284911,0,0,0,0,0.0291453,0.516901,-0.994185,34.375,3,37054,16956205
106,1,-0.651689,-0.0773738,9.79217,0.0808458,-0.633983,0.983952,-0.00651948,-0.000778442,0.0979215,1,2.30725e-05,-1.33088e-05,1.42455e-05,0.00461449,-0.00266177,0.00284911,0,0,0,0,0.0291453,0.516901,-0.994185,34.375,3,37054,16956205
106,2,-0.667121,-0.0918357,9.79419,0.0639942,-0.647662,0.986335,-0.00667393,-0.000929962,0.0979416,1,5.78184e-05,-1.40778e-05,2.09267e-05,0.0115637,-0.00281555,0.00418534,0,0,0,0,0.0296915,0.51444,-0.993233,34.375,3,37055,16956305
106,3,-0.667121,-0.0918357,9.79419,0.0639942,-0.647662,0.986335,-0.00667393,-0.000929962,0.0979416,1,5.78184e-05,-1.40778e-05,2.09267e-05,0.0115637,-0.00281555,0.00418534,0,0,0,0,0.0296915,0.51444,-0.993233,34.375,3,37055,16956305
106,4,-0.665609,-0.0912518,9.80233,0.0627091,-0.648722,0.9993,-0.00666036,-0.000922575,0.0980229,1,5.01742e-05,-2.1953e-05,1.6555e-05,0.0100348,-0.00439059,0.00331101,0,0,0,0,0.0288028,0.512948,-0.991241,34.375,3,37056,16956405
107,1,-0.665609,-0.0912518,9.80233,0.0627091,-0.648722,0.9993,-0.00666036,-0.000922575,0.0980229,1,5.01742e-05,-2.1953e-05,1.6555e-05,0.0100348,-0.00439059,0.00331101,0,0,0,0,0.0288028,0.512948,-0.991241,34.375,3,37056,16956405
107,2,-0.669509,-0.0871663,9.78645,0.0583326,-0.644877,0.98044,-0.00669962,-0.000879584,0.0978641,1,3.88643e-05,-2.33555e-05,2.34562e-05,0.00777286,-0.00467109,0.00469124,0,0,0,0,0.0278287,0.514411,-0.990699,34.375,3,37057,16956505
107,3,-0.669509,-0.0871663,9.78645,0.0583326,-0.644877,0.98044,-0.00669962,-0.000879584,0.0978641,1,3.88643e-05,-2.33555e-05,2.34562e-05,0.00777286,-0.00467109,0.00469124,0,0,0,0,0.0278287,0.514411,-0.990699,34.375,3,37057,16956505
107,4,-0.655325,-0.0839898,9.78807,0.0715102,-0.638887,0.981893,-0.00655568,-0.000849298,0.0978805,1,4.65066e-05,-1.26308e-05,2.26048e-05,0.00930133,-0.00252615,0.00452095,0,0,0,0,0.0273029,0.516375,-0.991158,34.375,3,37058,16956605
108,1,-0.655325,-0.0839898,9.78807,0.0715102,-0.638887,0.981893,-0.00655568,-0.000849298,0.0978805,1,4.65066e-05,-1.26308e-05,2.26048e-05,0.00930133,-0.00252615,0.00452095,0,0,0,0,0.0273029,0.516375,-0.991158,34.375,3,37058,16956605
108,2,-0.663309,-0.0817789,9.7844,0.0678948,-0.635006,0.977014,-0.00663436,-0.000828619,0.0978439,1,5.34764e-05,-6.70761e-06,2.75394e-05,0.0106953,-0.00134152,0.00550787,0,0,0,0,0.0287173,0.515902,-0.992691,34.375,3,37059,16956705
108,3,-0.663309,-0.0817789,9.7844,0.0678948,-0.635006,0.977014,-0.00663436,-0.000828619,0.0978439,1,5.34764e-05,-6.70761e-06,2.75394e-05,0.0106953,-0.00134152,0.00550787,0,0,0,0,0.0287173,0.515902,-0.992691,34.375,3,37059,16956705
108,4,-0.656085,-0.0777457,9.78473,0.0717977,-0.635943,0.97573,-0.00656362,-0.000787078,0.0978471,1,4.77491e-05,-1.43179e-05,2.10366e-05,0.00954982,-0.00286358,0.00420732,0,0,0,0,0.0296426,0.515921,-0.99421,34.375,3,37060,16956805
109,1,-0.656085,-0.0777457,9.78473,0.0717977,-0.635943,0.97573,-0.00656362,-0.000787078,0.0978471,1,4.77491e-05,-1.43179e-05,2.10366e-05,0.00954982,-0.00286358,0.00420732,0,0,0,0,0.0296426,0.515921,-0.99421,34.375,3,37060,16956805
109,2,-0.65854,-0.0853254,9.78773,0.0718929,-0.640734,0.981334,-0.00658502,-0.000863148,0.0978772,1,4.90472e-05,1.70955e-06,2.22138e-05,0.00980945,0.000341909,0.00444276,0,0,0,0,0.0301441,0.51542,-0.993718,34.375,3,37061,16956905
109,3,-0.65854,-0.0853254,9.78773,0.0718929,-0.640734,0.981334,-0.00658502,-0.000863148,0.0978772,1,4.90472e-05,1.70955e-06,2.22138e-05,0.00980945,0.000341909,0.00444276,0,0,0,0,0.0301441,0.51542,-0.993718,34.375,3,37061,16956905
109,4,-0.658111,-0.0765037,9.79663,0.0703636,-0.632316,0.9901,-0.00658338,-0.000773949,0.0979661,1,4.41354e-05,-1.1742e-05,2.00776e-05,0.00882708,-0.00234839,0.00401551,0,0,0,0,0.0292227,0.514435,-0.992725,34.375,3,37062,16957005
110,1,-0.658111,-0.0765037,9.79663,0.0703636,-0.632316,0.9901,-0.00658338,-0.000773949,0.0979661,1,4.41354e-05,-1.1742e-05,2.00776e-05,0.00882708,-0.00234839,0.00401551,0,0,0,0,0.0292227,0.514435,-0.992725,34.375,3,37062,16957005
110,2,-0.66249,-0.080615,9.79324,0.067092,-0.63933,0.987134,-0.00662869,-0.000814718,0.097932,1,4.21292e-05,-1.95447e-05,2.38813e-05,0.00842583,-0.00390894,0.00477626,0,0,0,0,0.0292886,0.514868,-0.989686,34.375,3,37063,16957105
110,3,-0.66249,-0.080615,9.79324,0.067092,-0.63933,0.987134,-0.00662869,-0.000814718,0.097932,1,4.21292e-05,-1.95447e-05,2.38813e-05,0.00842583,-0.00390894,0.00477626,0,0,0,0,0.0292886,0.514868,-0.989686,34.375,3,37063,16957105
110,4,-0.663524,-0.0846164,9.79422,0.0692929,-0.639046,0.986173,-0.00663623,-0.000856748,0.0979421,1,5.27334e-05,-5.20608e-06,1.91181e-05,0.0105467,-0.00104122,0.00382361,0,0,0,0,0.030239,0.516315,-0.989153,34.375,3,37064,16957205
110,5,-0.663524,-0.0846164,9.79422,0.0692929,-0.639046,0.986173,-0.00663623,-0.000856748,0.0979421,1,5.27334e-05,-5.20608e-06,1.91181e-05,0.0105467,-0.00104122,0.00382361,0,0,0,0,0.030239,0.516315,-0.989153,34.375,3,37064,16957205
110,6,-0.667393,-0.0854135,9.78712,0.0601575,-0.646254,0.983984,-0.00667534,-0.000862054,0.097871,1,3.90967e-05,-7.40801e-06,1.98896e-05,0.00781933,-0.0014816,0.00397792,0,0,0,0,0.0316164,0.515869,-0.9922,34.375,3,37065,16957305
110,7,-0.667393,-0.0854135,9.78712,0.0601575,-0.646254,0.983984,-0.00667534,-0.000862054,0.097871,1,3.90967e-05,-7.40801e-06,1.98896e-05,0.00781933,-0.0014816,0.00397792,0,0,0,0,0.0316164,0.515869,-0.9922,34.375,3,37065,16957305
110,8,-0.662378,-0.0796493,9.79563,0.067888,-0.64379,0.991492,-0.00662669,-0.000805655,0.097956,1,4.52047e-05,-1.50745e-05,2.30814e-05,0.00904094,-0.0030149,0.00461627,0,0,0,0,0.0310532,0.516415,-0.995215,34.375,3,37066,16957405
110,9,-0.662378,-0.0796493,9.79563,0.067888,-0.64379,0.991492,-0.00662669,-0.000805655,0.097956,1,4.52047e-05,-1.50745e-05,2.30814e-05,0.00904094,-0.0030149,0.00461627,0,0,0,0,0.0310532,0.516415,-0.995215,34.375,3,37066,16957405
110,10,-0.657507,-0.0708899,9.77904,0.0716552,-0.6287,0.971702,-0.00657917,-0.000716481,0.0977901,1,3.81881e-05,-2.10439e-05,8.58134e-06,0.00763761,-0.00420878,0.00171627,0,0,0,0,0.0301318,0.515429,-0.994223,34.375,3,37067,16957505
111,1,-0.657507,-0.0708899,9.77904,0.0716552,-0.6287,0.971702,-0.00657917,-0.000716481,0.0977901,1,3.81881e-05,-2.10439e-05,8.58134e-06,0.00763761,-0.00420878,0.00171627,0,0,0,0,0.0301318,0.515429,-0.994223,34.375,3,37067,16957505
111,2,-0.661859,-0.0797853,9.78645,0.0693418,-0.636855,0.980079,-0.00662073,-0.000808018,0.0978643,1,5.15133e-05,-1.09843e-05,6.15962e-06,0.0103027,-0.00219687,0.00123192,0,0,0,0,0.0278121,0.513941,-0.99172,34.375,3,37068,16957605
111,3,-0.661859,-0.0797853,9.78645,0.0693418,-0.636855,0.980079,-0.00662073,-0.000808018,0.0978643,1,5.15133e-05,-1.09843e-05,6.15962e-06,0.0103027,-0.00219687,0.00123192,0,0,0,0,0.0278121,0.513941,-0.99172,34.375,3,37068,16957605
111,4,-0.666651,-0.0734909,9.794,0.0625573,-0.627925,0.986768,-0.00666737,-0.00074233,0.0979399,1,3.5789e-05,-4.64899e-06,3.07987e-05,0.0071578,-0.000929797,0.00615974,0,0,0,0,0.0274007,0.513412,-0.989204,34.375,3,37069,16957705
112,1,-0.666651,-0.0734909,9.794,0.0625573,-0.627925,0.986768,-0.00666737,-0.00074233,0.0979399,1,3.5789e-05,-4.64899e-06,3.07987e-05,0.0071578,-0.000929797,0.00615974,0,0,0,0,0.0274007,0.513412,-0.989204,34.375,3,37069,16957705
112,2,-0.670369,-0.0778656,9.7984,0.059204,-0.638791,0.991168,-0.00670491,-0.00079035,0.0979838,1,5.83715e-05,-6.38913e-06,1.90102e-05,0.0116743,-0.00127783,0.00380204,0,0,0,0,0.0292725,0.515844,-0.989664,34.375,3,37070,16957805
112,3,-0.670369,-0.0778656,9.7984,0.059204,-0.638791,0.991168,-0.00670491,-0.00079035,0.0979838,1,5.83715e-05,-6.38913e-06,1.90102e-05,0.0116743,-0.00127783,0.00380204,0,0,0,0,0.0292725,0.515844,-0.989664,34.375,3,37070,16957805
112,4,-0.66422,-0.07584,9.78854,0.0617175,-0.634365,0.981393,-0.00664548,-0.00076785,0.0978851,1,4.72237e-05,-1.68793e-05,1.53778e-05,0.00944474,-0.00337587,0.00307556,0,0,0,0,0.0320937,0.516832,-0.991675,34.375,3,37071,16957905
113,1,-0.66422,-0.07584,9.78854,0.0617175,-0.634365,0.981393,-0.00664548,-0.00076785,0.0978851,1,4.72237e-05,-1.68793e-05,1.53778e-05,0.00944474,-0.00337587,0.00307556,0,0,0,0,0.0320937,0.516832,-0.991675,34.375,3,37071,16957905
113,2,-0.662954,-0.0813618,9.78746,0.0662414,-0.641808,0.978823,-0.00663043,-0.000820836,0.0978745,1,3.61502e-05,-4.64909e-06,1.06655e-05,0.00723004,-0.000929818,0.0021331,0,0,0,0,0.0310859,0.515909,-0.994216,34.375,3,37072,16958005
113,3,-0.662954,-0.0813618,9.78746,0.0662414,-0.641808,0.978823,-0.00663043,-0.000820836,0.0978745,1,3.61502e-05,-4.64909e-06,1.06655e-05,0.00723004,-0.000929818,0.0021331,0,0,0,0,0.0310859,0.515909,-0.994216,34.375,3,37072,16958005
113,4,-0.654654,-0.0873759,9.79007,0.0770501,-0.646914,0.981459,-0.00654833,-0.000881823,0.0979005,1,3.99501e-05,-9.34476e-06,1.84773e-05,0.00799002,-0.00186895,0.00369547,0,0,0,0,0.0292023,0.514931,-0.993219,34.375,3,37073,16958105
114,1,-0.654654,-0.0873759,9.79007,0.0770501,-0.646914,0.981459,-0.00654833,-0.000881823,0.0979005,1,3.99501e-05,-9.34476e-06,1.84773e-05,0.00799002,-0.00186895,0.00369547,0,0,0,0,0.0292023,0.514931,-0.993219,34.375,3,37073,16958105
114,2,-0.660855,-0.0734261,9.79295,0.0693266,-0.635552,0.985785,-0.00661103,-0.000742732,0.0979293,1,4.18723e-05,-1.28056e-05,2.04109e-05,0.00837445,-0.00256112,0.00408218,0,0,0,0,0.0283013,0.513449,-0.991733,34.375,3,37074,16958205
114,3,-0.660855,-0.0734261,9.79295,0.0693266,-0.635552,0.985785,-0.00661103,-0.000742732,0.0979293,1,4.18723e-05,-1.28056e-05,2.04109e-05,0.00837445,-0.00256112,0.00408218,0,0,0,0,0.0283013,0.513449,-0.991733,34.375,3,37074,16958205
114,4,-0.656834,-0.0847597,9.80536,0.0725439,-0.645718,0.99679,-0.00656742,-0.000857041,0.0980535,1,4.70745e-05,4.55619e-06,1.61867e-05,0.0094149,0.000911239,0.00323734,0,0,0,0,0.030267,0.513885,-0.989712,34.375,3,37075,16958305
114,5,-0.656834,-0.0847597,9.80536,0.0725439,-0.645718,0.99679,-0.00656742,-0.000857041,0.0980535,1,4.70745e-05,4.55619e-06,1.61867e-05,0.0094149,0.000911239,0.00323734,0,0,0,0,0.030267,0.513885,-0.989712,34.375,3,37075,16958305
114,6,-0.656261,-0.0920967,9.78835,0.072265,-0.656352,0.982408,-0.00656547,-0.000930804,0.0978832,1,4.91683e-05,-1.47652e-05,1.61303e-05,0.00983366,-0.00295303,0.00322606,0,0,0,0,0.0306916,0.517295,-0.989638,34.375,3,37076,16958405
115,1,-0.656261,-0.0920967,9.78835,0.072265,-0.656352,0.982408,-0.00656547,-0.000930804,0.0978832,1,4.91683e-05,-1.47652e-05,1.61303e-05,0.00983366,-0.00295303,0.00322606,0,0,0,0,0.0306916,0.517295,-0.989638,34.375,3,37076,16958405
115,2,-0.657721,-0.0866103,9.78739,0.0736057,-0.644865,0.978834,-0.00657965,-0.00087575,0.0978736,1,4.83505e-05,-1.25694e-05,1.38542e-05,0.0096701,-0.00251388,0.00277084,0,0,0,0,0.0296435,0.518812,-0.992125,34.375,3,37077,16958505
115,3,-0.657721,-0.0866103,9.78739,0.0736057,-0.644865,0.978834,-0.00657965,-0.00087575,0.0978736,1,4.83505e-05,-1.25694e-05,1.38542e-05,0.0096701,-0.00251388,0.00277084,0,0,0,0,0.0296435,0.518812,-0.992125,34.375,3,37077,16958505
115,4,-0.664409,-0.066287,9.78828,0.0635233,-0.630092,0.984124,-0.00664486,-0.000671443,0.0978827,1,4.22374e-05,-4.08292e-06,2.29253e-05,0.00844748,-0.000816584,0.00458506,0,0,0,0,0.0281831,0.516909,-0.994181,34.375,3,37078,16958605
116,1,-0.664409,-0.066287,9.78828,0.0635233,-0.630092,0.984124,-0.00664486,-0.000671443,0.0978827,1,4.22374e-05,-4.08292e-06,2.29253e-05,0.00844748,-0.000816584,0.00458506,0,0,0,0,0.0281831,0.516909,-0.994181,34.375,3,37078,16958605
116,2,-0.654072,-0.0807565,9.79521,0.0781073,-0.64292,0.986177,-0.0065408,-0.000818641,0.097952,1,5.52741e-05,-5.75535e-07,1.89075e-05,0.0110548,-0.000115107,0.0037815,0,0,0,0,0.0292474,0.514417,-0.991716,34.375,3,37079,16958705
116,3,-0.654072,-0.0807565,9.79521,0.0781073,-0.64292,0.986177,-0.0065408,-0.000818641,0.097952,1,5.52741e-05,-5.75535e-07,1.89075e-05,0.0110548,-0.000115107,0.0037815,0,0,0,0,0.0292474,0.514417,-0.991716,34.375,3,37079,16958705
116,4,-0.662916,-0.0747864,9.79261,0.064913,-0.641916,0.987675,-0.00663084,-0.00075611,0.0979259,1,4.14103e-05,-8.64085e-06,1.02911e-05,0.00828206,-0.00172817,0.00205823,0,0,0,0,0.0302423,0.513903,-0.990722,34.375,3,37080,16958805
117,1,-0.662916,-0.0747864,9.79261,0.064913,-0.641916,0.987675,-0.00663084,-0.00075611,0.0979259,1,4.14103e-05,-8.64085e-06,1.02911e-05,0.00828206,-0.00172817,0.00205823,0,0,0,0,0.0302423,0.513903,-0.990722,34.375,3,37080,16958805
117,2,-0.659539,-0.0838297,9.78436,0.0707956,-0.64882,0.977499,-0.00659764,-0.00084824,0.0978433,1,4.9753e-05,-1.16153e-05,1.57471e-05,0.00995061,-0.00232305,0.00314942,0,0,0,0,0.0293005,0.513414,-0.990223,34.375,3,37081,16958905
117,3,-0.659539,-0.0838297,9.78436,0.0707956,-0.64882,0.977499,-0.00659764,-0.00084824,0.0978433,1,4.9753e-05,-1.16153e-05,1.57471e-05,0.00995061,-0.00232305,0.00314942,0,0,0,0,0.0293005,0.513414,-0.990223,34.375,3,37081,16958905
117,4,-0.660769,-0.0860035,9.79419,0.0686454,-0.651305,0.988703,-0.00660882,-0.000870072,0.0979418,1,4.96079e-05,-5.98483e-06,2.41174e-05,0.00992157,-0.00119697,0.00482348,0,0,0,0,0.0287501,0.515396,-0.991692,34.375,3,37082,16959005
117,5,-0.660769,-0.0860035,9.79419,0.0686454,-0.651305,0.988703,-0.00660882,-0.000870072,0.0979418,1,4.96079e-05,-5.98483e-06,2.41174e-05,0.00992157,-0.00119697,0.00482348,0,0,0,0,0.0287501,0.515396,-0.991692,34.375,3,37082,16959005
117,6,-0.660614,-0.0864222,9.78739,0.0692291,-0.651257,0.979949,-0.0066062,-0.000872397,0.0978738,1,4.00542e-05,-5.60822e-07,2.53229e-05,0.00801084,-0.000112164,0.00506457,0,0,0,0,0.0287093,0.51639,-0.99268,34.375,3,37083,16959105
118,1,-0.660614,-0.0864222,9.78739,0.0692291,-0.651257,0.979949,-0.0066062,-0.000872397,0.0978738,1,4.00542e-05,-5.60822e-07,2.53229e-05,0.00801084,-0.000112164,0.00506457,0,0,0,0,0.0287093,0.51639,-0.99268,34.375,3,37083,16959105
118,2,-0.66392,-0.0882211,9.79012,0.0679486,-0.655488,0.983073,-0.00663974,-0.000889883,0.0979011,1,3.74298e-05,-3.00069e-06,2.58051e-05,0.00748597,-0.000600139,0.00516102,0,0,0,0,0.0281831,0.516909,-0.994181,34.375,3,37084,16959205
118,3,-0.66392,-0.0882211,9.79012,0.0679486,-0.655488,0.983073,-0.00663974,-0.000889883,0.0979011,1,3.74298e-05,-3.00069e-06,2.58051e-05,0.00748597,-0.000600139,0.00516102,0,0,0,0,0.0281831,0.516909,-0.994181,34.375,3,37084,16959205
118,4,-0.660629,-0.0826246,9.79557,0.0717396,-0.648905,0.98711,-0.00660556,-0.000836683,0.0979556,1,5.104e-05,3.44956e-06,3.31032e-05,0.010208,0.000689911,0.00662064,0,0,0,0,0.0296302,0.51593,-0.994714,34.375,3,37085,16959305
118,5,-0.660629,-0.0826246,9.79557,0.0717396,-0.648905,0.98711,-0.00660556,-0.000836683,0.0979556,1,5.104e-05,3.44956e-06,3.31032e-05,0.010208,0.000689911,0.00662064,0,0,0,0,0.0296302,0.51593,-0.994714,34.375,3,37085,16959305
118,6,-0.663509,-0.0809425,9.79425,0.0694885,-0.644352,0.986936,-0.00663715,-0.000818149,0.0979423,1,4.25932e-05,-1.07567e-05,2.86828e-05,0.00851863,-0.00215133,0.00573656,0,0,0,0,0.0292061,0.513965,-0.993746,34.375,3,37086,16959405
119,1,-0.663509,-0.0809425,9.79425,0.0694885,-0.644352,0.986936,-0.00663715,-0.000818149,0.0979423,1,4.25932e-05,-1.07567e-05,2.86828e-05,0.00851863,-0.00215133,0.00573656,0,0,0,0,0.0292061,0.513965,-0.993746,34.375,3,37086,16959405
119,2,-0.656396,-0.0909029,9.79004,0.076605,-0.656831,0.982112,-0.0065649,-0.000916303,0.0979003,1,3.53996e-05,-5.03481e-06,2.60584e-05,0.00707991,-0.00100696,0.00521168,0,0,0,0,0.029301,0.514859,-0.989181,34.375,3,37087,16959505
119,3,-0.656396,-0.0909029,9.79004,0.076605,-0.656831,0.982112,-0.0065649,-0.000916303,0.0979003,1,3.53996e-05,-5.03481e-06,2.60584e-05,0.00707991,-0.00100696,0.00521168,0,0,0,0,0.029301,0.514859,-0.989181,34.375,3,37087,16959505
119,4,-0.666693,-0.0785574,9.79022,0.0679359,-0.64641,0.985241,-0.00666892,-0.000793707,0.097902,1,4.06634e-05,-1.02835e-05,1.28245e-05,0.00813268,-0.00205671,0.0025649,0,0,0,0,0.0302067,0.518266,-0.989109,34.375,3,37088,16959605
120,1,-0.666693,-0.0785574,9.79022,0.0679359,-0.64641,0.985241,-0.00666892,-0.000793707,0.097902,1,4.06634e-05,-1.02835e-05,1.28245e-05,0.00813268,-0.00205671,0.0025649,0,0,0,0,0.0302067,0.518266,-0.989109,34.375,3,37088,16959605
120,2,-0.665305,-0.0761575,9.78753,0.0667099,-0.642313,0.979863,-0.00665541,-0.000770366,0.097875,1,4.37853e-05,-1.22149e-05,1.64845e-05,0.00875705,-0.00244298,0.00329689,0,0,0,0,0.0301327,0.51832,-0.992138,34.375,3,37089,16959705
120,3,-0.665305,-0.0761575,9.78753,0.0667099,-0.642313,0.979863,-0.00665541,-0.000770366,0.097875,1,4.37853e-05,-1.22149e-05,1.64845e-05,0.00875705,-0.00244298,0.00329689,0,0,0,0,0.0301327,0.51832,-0.992138,34.375,3,37089,16959705
120,4,-0.670994,-0.0873968,9.79662,0.0609337,-0.657636,0.991575,-0.00671133,-0.000885567,0.097966,1,5.76339e-05,-7.29573e-06,2.2784e-05,0.0115268,-0.00145915,0.00455681,0,0,0,0,0.0281873,0.517387,-0.993665,34.375,3,37090,16959805
121,1,-0.670994,-0.0873968,9.79662,0.0609337,-0.657636,0.991575,-0.00671133,-0.000885567,0.097966,1,5.76339e-05,-7.29573e-06,2.2784e-05,0.0115268,-0.00145915,0.00455681,0,0,0,0,0.0281873,0.517387,-0.993665,34.375,3,37090,16959805
121,2,-0.66151,-0.0828414,9.7888,0.0645514,-0.649379,0.981396,-0.00661693,-0.000837294,0.0978878,1,4.3692e-05,-9.57401e-06,2.4613e-05,0.00873841,-0.0019148,0.00492261,0,0,0,0,0.0286927,0.51592,-0.9937,34.375,3,37091,16959905
121,3,-0.66151,-0.0828414,9.7888,0.0645514,-0.649379,0.981396,-0.00661693,-0.000837294,0.0978878,1,4.3692e-05,-9.57401e-06,2.4613e-05,0.00873841,-0.0019148,0.00492261,0,0,0,0,0.0286927,0.51592,-0.9937,34.375,3,37091,16959905
121,4,-0.668837,-0.0954291,9.79756,0.0636207,-0.662511,0.989875,-0.00668849,-0.000963063,0.0979755,1,4.30198e-05,-8.30656e-07,2.55756e-05,0.00860396,-0.000166131,0.00511511,0,0,0,0,0.0292355,0.515871,-0.991178,34.375,3,37092,16960005
121,5,-0.668837,-0.0954291,9.79756,0.0636207,-0.662511,0.989875,-0.00668849,-0.000963063,0.0979755,1,4.30198e-05,-8.30656e-07,2.55756e-05,0.00860396,-0.000166131,0.00511511,0,0,0,0,0.0292355,0.515871,-0.991178,34.375,3,37092,16960005
121,6,-0.669995,-0.0856499,9.79765,0.0605897,-0.654805,0.990283,-0.00670116,-0.000863488,0.0979763,1,3.44589e-05,-6.35917e-06,1.76244e-05,0.00689178,-0.00127183,0.00352488,0,0,0,0,0.0297906,0.515813,-0.988152,34.375,3,37093,16960105
121,7,-0.669995,-0.0856499,9.79765,0.0605897,-0.654805,0.990283,-0.00670116,-0.000863488,0.0979763,1,3.44589e-05,-6.35917e-06,1.76244e-05,0.00689178,-0.00127183,0.00352488,0,0,0,0,0.0297906,0.515813,-0.988152,34.375,3,37093,16960105
121,8,-0.659255,-0.0910454,9.79618,0.0707634,-0.664079,0.987705,-0.0065965,-0.000916888,0.0979615,1,3.0944e-05,-2.04205e-05,2.81705e-05,0.0061888,-0.0040841,0.0056341,0,0,0,0,0.0307035,0.515841,-0.990176,34.375,3,37094,16960205
122,1,-0.659255,-0.0910454,9.79618,0.0707634,-0.664079,0.987705,-0.0065965,-0.000916888,0.0979615,1,3.0944e-05,-2.04205e-05,2.81705e-05,0.0061888,-0.0040841,0.0056341,0,0,0,0,0.0307035,0.515841,-0.990176,34.375,3,37094,16960205
122,2,-0.660433,-0.0764259,9.79428,0.073843,-0.646892,0.985526,-0.00660747,-0.000774538,0.0979425,1,5.20925e-05,-1.60487e-05,5.63626e-06,0.0104185,-0.00320975,0.00112725,0,0,0,0,0.0311149,0.51637,-0.992691,34.375,3,37095,16960305
122,3,-0.660433,-0.0764259,9.79428,0.073843,-0.646892,0.985526,-0.00660747,-0.000774538,0.0979425,1,5.20925e-05,-1.60487e-05,5.63626e-06,0.0104185,-0.00320975,0.00112725,0,0,0,0,0.0311149,0.51637,-0.992691,34.375,3,37095,16960305
122,4,-0.657294,-0.0840684,9.79216,0.0742548,-0.651778,0.980363,-0.00657595,-0.000848324,0.0979213,1,3.70798e-05,-1.56092e-05,2.87627e-05,0.00741595,-0.00312185,0.00575255,0,0,0,0,0.029606,0.517393,-0.994682,34.375,3,37096,16960405
123,1,-0.657294,-0.0840684,9.79216,0.0742548,-0.651778,0.980363,-0.00657595,-0.000848324,0.0979213,1,3.70798e-05,-1.56092e-05,2.87627e-05,0.00741595,-0.00312185,0.00575255,0,0,0,0,0.029606,0.517393,-0.994682,34.375,3,37096,16960405
123,2,-0.661102,-0.0857683,9.79284,0.0698179,-0.659103,0.98446,-0.00661408,-0.000865739,0.0979282,1,3.96482e-05,-1.58026e-05,2.19663e-05,0.00792964,-0.00316051,0.00439327,0,0,0,0,0.0296668,0.514458,-0.994242,34.375,3,37097,16960505
123,3,-0.661102,-0.0857683,9.79284,0.0698179,-0.659103,0.98446,-0.00661408,-0.000865739,0.0979282,1,3.96482e-05,-1.58026e-05,2.19663e-05,0.00792964,-0.00316051,0.00439327,0,0,0,0,0.0296668,0.514458,-0.994242,34.375,3,37097,16960505
123,4,-0.659783,-0.0909981,9.79516,0.071138,-0.663504,0.986088,-0.00659891,-0.000917496,0.0979514,1,3.69157e-05,-5.7072e-06,2.14615e-05,0.00738314,-0.00114144,0.00429229,0,0,0,0,0.0292635,0.513441,-0.991738,34.375,3,37098,16960605
123,5,-0.659783,-0.0909981,9.79516,0.071138,-0.663504,0.986088,-0.00659891,-0.000917496,0.0979514,1,3.69157e-05,-5.7072e-06,2.14615e-05,0.00738314,-0.00114144,0.00429229,0,0,0,0,0.0292635,0.513441,-0.991738,34.375,3,37098,16960605
123,6,-0.663565,-0.081526,9.79221,0.0648162,-0.657591,0.988432,-0.00663831,-0.000825877,0.0979219,1,5.26811e-05,-1.37833e-05,2.25868e-05,0.0105362,-0.00275667,0.00451735,0,0,0,0,0.0302713,0.514364,-0.989196,34.375,3,37099,16960705
124,1,-0.663565,-0.081526,9.79221,0.0648162,-0.657591,0.988432,-0.00663831,-0.000825877,0.0979219,1,5.26811e-05,-1.37833e-05,2.25868e-05,0.0105362,-0.00275667,0.00451735,0,0,0,0,0.0302713,0.514364,-0.989196,34.375,3,37099,16960705
124,2,-0.656484,-0.0784292,9.78338,0.0742889,-0.652625,0.976862,-0.00656695,-0.000793009,0.0978336,1,4.29898e-05,-1.09467e-05,2.3285e-05,0.00859796,-0.00218935,0.004657,0,0,0,0,0.0306916,0.517295,-0.989638,34.375,3,37100,16960805
124,3,-0.656484,-0.0784292,9.78338,0.0742889,-0.652625,0.976862,-0.00656695,-0.000793009,0.0978336,1,4.29898e-05,-1.09467e-05,2.3285e-05,0.00859796,-0.00218935,0.004657,0,0,0,0,0.0306916,0.517295,-0.989638,34.375,3,37100,16960805
124,4,-0.654186,-0.0737448,9.78441,0.0731829,-0.646009,0.98019,-0.00654311,-0.000749303,0.0978439,1,5.87757e-05,-6.56233e-06,2.70328e-05,0.0117551,-0.00131247,0.00540655,0,0,0,0,0.0316002,0.516845,-0.992178,34.375,3,37101,16960905
125,1,-0.654186,-0.0737448,9.78441,0.0731829,-0.646009,0.98019,-0.00654311,-0.000749303,0.0978439,1,5.87757e-05,-6.56233e-06,2.70328e-05,0.0117551,-0.00131247,0.00540655,0,0,0,0,0.0316002,0.516845,-0.992178,34.375,3,37101,16960905
125,2,-0.663133,-0.0854227,9.79998,0.0668343,-0.66065,0.992272,-0.00663164,-0.000864421,0.0979997,1,4.99619e-05,-1.86235e-06,3.02919e-05,0.00999238,-0.000372469,0.00605837,0,0,0,0,0.029626,0.515451,-0.99523,34.375,3,37102,16961005
125,3,-0.663133,-0.0854227,9.79998,0.0668343,-0.66065,0.992272,-0.00663164,-0.000864421,0.0979997,1,4.99619e-05,-1.86235e-06,3.02919e-05,0.00999238,-0.000372469,0.00605837,0,0,0,0,0.029626,0.515451,-0.99523,34.375,3,37102,16961005
125,4,-0.665796,-0.0957409,9.80093,0.0612373,-0.668161,0.994714,-0.00666005,-0.00096617,0.098009,1,4.32095e-05,-1.08405e-05,2.19068e-05,0.0086419,-0.00216811,0.00438137,0,0,0,0,0.0286799,0.514484,-0.995247,34.375,3,37103,16961105
125,5,-0.665796,-0.0957409,9.80093,0.0612373,-0.668161,0.994714,-0.00666005,-0.00096617,0.098009,1,4.32095e-05,-1.08405e-05,2.19068e-05,0.0086419,-0.00216811,0.00438137,0,0,0,0,0.0286799,0.514484,-0.995247,34.375,3,37103,16961105
125,6,-0.660866,-0.0881363,9.79383,0.0679779,-0.662229,0.986939,-0.00660754,-0.00089002,0.0979383,1,4.31464e-05,5.60284e-06,1.55678e-05,0.00862927,0.00112057,0.00311356,0,0,0,0,0.0277219,0.514971,-0.994727,34.375,3,37104,16961205
125,7,-0.660866,-0.0881363,9.79383,0.0679779,-0.662229,0.986939,-0.00660754,-0.00089002,0.0979383,1,4.31464e-05,5.60284e-06,1.55678e-05,0.00862927,0.00112057,0.00311356,0,0,0,0,0.0277219,0.514971,-0.994727,34.375,3,37104,16961205
125,8,-0.661264,-0.0721587,9.78515,0.0658535,-0.645619,0.976948,-0.00661507,-0.000733381,0.0978513,1,5.89545e-05,-1.25095e-05,1.93921e-05,0.0117909,-0.00250191,0.00387842,0,0,0,0,0.0277959,0.514916,-0.991698,34.375,3,37105,16961305
126,1,-0.661264,-0.0721587,9.78515,0.0658535,-0.645619,0.976948,-0.00661507,-0.000733381,0.0978513,1,5.89545e-05,-1.25095e-05,1.93921e-05,0.0117909,-0.00250191,0.00387842,0,0,0,0,0.0277959,0.514916,-0.991698,34.375,3,37105,16961305
126,2,-0.669255,-0.0873961,9.77932,0.0565456,-0.660671,0.969626,-0.00669612,-0.000882512,0.0977929,1,4.20381e-05,-1.84606e-05,2.45589e-05,0.00840763,-0.00369212,0.00491177,0,0,0,0,0.0302224,0.515845,-0.990173,34.375,3,37106,16961405
126,3,-0.669255,-0.0873961,9.77932,0.0565456,-0.660671,0.969626,-0.00669612,-0.000882512,0.0977929,1,4.20381e-05,-1.84606e-05,2.45589e-05,0.00840763,-0.00369212,0.00491177,0,0,0,0,0.0302224,0.515845,-0.990173,34.375,3,37106,16961405
126,4,-0.664168,-0.0735581,9.795,0.0687024,-0.649081,0.988901,-0.00664423,-0.000743015,0.0979498,1,3.68377e-05,-1.31297e-05,1.64059e-05,0.00736754,-0.00262595,0.00328118,0,0,0,0,0.0330479,0.517311,-0.991669,34.375,3,37107,16961505
127,1,-0.664168,-0.0735581,9.795,0.0687024,-0.649081,0.988901,-0.00664423,-0.000743015,0.0979498,1,3.68377e-05,-1.31297e-05,1.64059e-05,0.00736754,-0.00262595,0.00328118,0,0,0,0,0.0330479,0.517311,-0.991669,34.375,3,37107,16961505
127,2,-0.670039,-0.0804537,9.79125,0.0602283,-0.657681,0.985765,-0.00670205,-0.000811387,0.0979123,1,3.50811e-05,-8.4582e-06,-1.46218e-06,0.00701622,-0.00169164,-0.000292436,0,0,0,0,0.031074,0.517363,-0.993679,34.375,3,37108,16961605
127,3,-0.670039,-0.0804537,9.79125,0.0602283,-0.657681,0.985765,-0.00670205,-0.000811387,0.0979123,1,3.50811e-05,-8.4582e-06,-1.46218e-06,0.00701622,-0.00169164,-0.000292436,0,0,0,0,0.031074,0.517363,-0.993679,34.375,3,37108,16961605
127,4,-0.648951,-0.0849912,9.79175,0.0806977,-0.659311,0.982048,-0.00649141,-0.00085742,0.0979173,1,3.75248e-05,-9.79205e-06,1.22676e-05,0.00750495,-0.00195841,0.00245352,0,0,0,0,0.0286723,0.516417,-0.994194,34.375,3,37109,16961705
128,1,-0.648951,-0.0849912,9.79175,0.0806977,-0.659311,0.982048,-0.00649141,-0.00085742,0.0979173,1,3.75248e-05,-9.79205e-06,1.22676e-05,0.00750495,-0.00195841,0.00245352,0,0,0,0,0.0286723,0.516417,-0.994194,34.375,3,37109,16961705
128,2,-0.657578,-0.0874084,9.79417,0.0719454,-0.666066,0.988107,-0.00658002,-0.000882749,0.0979413,1,4.3597e-05,-2.17093e-05,9.46595e-06,0.0087194,-0.00434187,0.00189319,0,0,0,0,0.0272821,0.515426,-0.992694,34.375,3,37110,16961805
128,3,-0.657578,-0.0874084,9.79417,0.0719454,-0.666066,0.988107,-0.00658002,-0.000882749,0.0979413,1,4.3597e-05,-2.17093e-05,9.46595e-06,0.0087194,-0.00434187,0.00189319,0,0,0,0,0.0272821,0.515426,-0.992694,34.375,3,37110,16961805
128,4,-0.657815,-0.0855058,9.79078,0.0728092,-0.658812,0.98404,-0.00657953,-0.000860904,0.0979077,1,2.84854e-05,-7.21949e-06,2.04147e-05,0.00569708,-0.0014439,0.00408294,0,0,0,0,0.0283017,0.514894,-0.990691,34.375,3,37111,16961905
129,1,-0.657815,-0.0855058,9.79078,0.0728092,-0.658812,0.98404,-0.00657953,-0.000860904,0.0979077,1,2.84854e-05,-7.21949e-06,2.04147e-05,0.00569708,-0.0014439,0.00408294,0,0,0,0,0.0283017,0.514894,-0.990691,34.375,3,37111,16961905
