frame_id,imu_idx,accel_x,accel_y,accel_z,free_accel_x,free_accel_y,free_accel_z,delta_v_x,delta_v_y,delta_v_z,delta_q_w,delta_q_x,delta_q_y,delta_q_z,rate_x,rate_y,rate_z,quat_w,quat_x,quat_y,quat_z,mag_x,mag_y,mag_z,temperature,status_byte,packet_counter,time_fine
1360,1,-0.677718,-0.0783207,9.787,0.068256,-0.620004,0.981525,-0.00677814,-0.000793765,0.0978699,1,5.14387e-05,-5.22293e-06,3.6115e-05,0.0102877,-0.00104459,0.007223,0,0,0,0,0.0567431,0.520882,-0.984123,32.25,1,8835,932070
1360,2,-0.511055,-0.05267,7.34452,0.068256,-0.620004,0.981525,-0.00511132,-0.000530501,0.0734452,1,2.48384e-05,-5.37185e-06,1.48954e-05,0.00496769,-0.00107437,0.00297909,0,0,0,0,0.0571421,0.52142,-0.987143,32.5,1,13242,1374274
1360,3,-0.511055,-0.05267,7.34452,0.068256,-0.620004,0.981525,-0.00511132,-0.000530501,0.0734452,1,2.48384e-05,-5.37185e-06,1.48954e-05,0.00496769,-0.00107437,0.00297909,0,0,0,0,0.0571421,0.52142,-0.987143,32.5,1,13242,1374274
1360,4,-0.686352,-0.0719287,9.78208,0.0746128,-0.509318,0.98662,-0.00686537,-0.000726062,0.0978207,1,3.26131e-05,-9.63365e-06,2.87313e-05,0.00652261,-0.00192673,0.00574626,0,0,0,0,0.0571749,0.520914,-0.986145,32.5,1,13243,1374374
1,1,-0.686352,-0.0719287,9.78208,0.0746128,-0.509318,0.98662,-0.00686537,-0.000726062,0.0978207,1,3.26131e-05,-9.63365e-06,2.87313e-05,0.00652261,-0.00192673,0.00574626,0,0,0,0,0.0571749,0.520914,-0.986145,32.5,1,13243,1374374
1,2,-0.666952,-0.0610532,9.78951,0.0932578,-0.497981,0.99138,-0.00667077,-0.000618528,0.097895,1,3.9626e-05,-6.47076e-06,1.77694e-05,0.0079252,-0.00129415,0.00355388,0,0,0,0,0.0567141,0.520422,-0.985648,32.5,1,13244,1374474
1,3,-0.666952,-0.0610532,9.78951,0.0932578,-0.497981,0.99138,-0.00667077,-0.000618528,0.097895,1,3.9626e-05,-6.47076e-06,1.77694e-05,0.0079252,-0.00129415,0.00355388,0,0,0,0,0.0567141,0.520422,-0.985648,32.5,1,13244,1374474
1,4,-0.683763,-0.0743874,9.77797,0.0782753,-0.512473,0.982843,-0.00683704,-0.000754322,0.0977796,1,5.25135e-05,2.93772e-06,1.30647e-05,0.0105027,0.000587544,0.00261293,0,0,0,0,0.0576398,0.521886,-0.986125,32.5,1,13245,1374574
1,5,-0.683763,-0.0743874,9.77797,0.0782753,-0.512473,0.982843,-0.00683704,-0.000754322,0.0977796,1,5.25135e-05,2.93772e-06,1.30647e-05,0.0105027,0.000587544,0.00261293,0,0,0,0,0.0576398,0.521886,-0.986125,32.5,1,13245,1374574
1,6,-0.678604,-0.0632636,9.78686,0.0837833,-0.505306,0.98804,-0.00678654,-0.00063952,0.0978685,1,3.31849e-05,-2.77333e-06,2.86121e-05,0.00663699,-0.000554667,0.00572241,0,0,0,0,0.0590751,0.522362,-0.986121,32.5,1,13246,1374674
1,7,-0.678604,-0.0632636,9.78686,0.0837833,-0.505306,0.98804,-0.00678654,-0.00063952,0.0978685,1,3.31849e-05,-2.77333e-06,2.86121e-05,0.00663699,-0.000554667,0.00572241,0,0,0,0,0.0590751,0.522362,-0.986121,32.5,1,13246,1374674
1,8,-0.67824,-0.074634,9.78844,0.0828703,-0.518992,0.992269,-0.00678238,-0.000753949,0.0978844,1,3.68989e-05,-7.10218e-08,2.83831e-05,0.00737978,-1.42044e-05,0.00567662,0,0,0,0,0.0566325,0.522409,-0.987624,32.5,1,13247,1374774
2,1,-0.67824,-0.074634,9.78844,0.0828703,-0.518992,0.992269,-0.00678238,-0.000753949,0.0978844,1,3.68989e-05,-7.10218e-08,2.83831e-05,0.00737978,-1.42044e-05,0.00567662,0,0,0,0,0.0566325,0.522409,-0.987624,32.5,1,13247,1374774
2,2,-0.679601,-0.0648395,9.77634,0.0800644,-0.507312,0.978876,-0.00679892,-0.000657551,0.0977631,1,4.60762e-05,-1.49534e-05,1.07474e-05,0.00921525,-0.00299068,0.00214948,0,0,0,0,0.0562041,0.519965,-0.987171,32.5,1,13248,1374874
2,3,-0.679601,-0.0648395,9.77634,0.0800644,-0.507312,0.978876,-0.00679892,-0.000657551,0.0977631,1,4.60762e-05,-1.49534e-05,1.07474e-05,0.00921525,-0.00299068,0.00214948,0,0,0,0,0.0562041,0.519965,-0.987171,32.5,1,13248,1374874
2,4,-0.672052,-0.0765321,9.78262,0.0923564,-0.518955,0.984735,-0.00672287,-0.000772365,0.097826,1,3.52225e-05,-1.21109e-05,1.13698e-05,0.00704451,-0.00242217,0.00227396,0,0,0,0,0.0567303,0.519446,-0.98567,32.5,1,13249,1374974
2,5,-0.672052,-0.0765321,9.78262,0.0923564,-0.518955,0.984735,-0.00672287,-0.000772365,0.097826,1,3.52225e-05,-1.21109e-05,1.13698e-05,0.00704451,-0.00242217,0.00227396,0,0,0,0,0.0567303,0.519446,-0.98567,32.5,1,13249,1374974
2,6,-0.695515,-0.0828911,9.79394,0.0670179,-0.526915,0.996418,-0.00696,-0.000837465,0.097939,1,4.18184e-05,-2.49759e-05,2.6077e-05,0.00836369,-0.00499518,0.0052154,0,0,0,0,0.0562862,0.519423,-0.984154,32.5,1,13250,1375074
2,7,-0.695515,-0.0828911,9.79394,0.0670179,-0.526915,0.996418,-0.00696,-0.000837465,0.097939,1,4.18184e-05,-2.49759e-05,2.6077e-05,0.00836369,-0.00499518,0.0052154,0,0,0,0,0.0562862,0.519423,-0.984154,32.5,1,13250,1375074
2,8,-0.691621,-0.0763173,9.78786,0.069697,-0.520596,0.987641,-0.00691883,-0.000772572,0.0978783,1,4.74304e-05,-1.34727e-05,8.22886e-06,0.00948607,-0.00269454,0.00164577,0,0,0,0,0.0558297,0.519409,-0.983142,32.5,1,13251,1375174
3,1,-0.691621,-0.0763173,9.78786,0.069697,-0.520596,0.987641,-0.00691883,-0.000772572,0.0978783,1,4.74304e-05,-1.34727e-05,8.22886e-06,0.00948607,-0.00269454,0.00164577,0,0,0,0,0.0558297,0.519409,-0.983142,32.5,1,13251,1375174
3,2,-0.682479,-0.0759928,9.78746,0.0830183,-0.523664,0.991103,-0.00682853,-0.000768994,0.0978742,1,4.52307e-05,-1.9256e-05,1.55475e-05,0.00904613,-0.00385119,0.0031095,0,0,0,0,0.0567512,0.520394,-0.984134,32.5,1,13252,1375274
3,3,-0.682479,-0.0759928,9.78746,0.0830183,-0.523664,0.991103,-0.00682853,-0.000768994,0.0978742,1,4.52307e-05,-1.9256e-05,1.55475e-05,0.00904613,-0.00385119,0.0031095,0,0,0,0,0.0567512,0.520394,-0.984134,32.5,1,13252,1375274
3,4,-0.686184,-0.0719272,9.79023,0.073445,-0.514548,0.988859,-0.00686514,-0.000727053,0.097902,1,3.87337e-05,-1.6952e-05,1.43626e-05,0.00774674,-0.0033904,0.00287253,0,0,0,0,0.0556703,0.522417,-0.98762,32.5,1,13253,1375374
3,5,-0.686184,-0.0719272,9.79023,0.073445,-0.514548,0.988859,-0.00686514,-0.000727053,0.097902,1,3.87337e-05,-1.6952e-05,1.43626e-05,0.00774674,-0.0033904,0.00287253,0,0,0,0,0.0556703,0.522417,-0.98762,32.5,1,13253,1375374
3,6,-0.682906,-0.0784782,9.79862,0.0765144,-0.526458,0.999789,-0.00682862,-0.000792007,0.0979862,1,3.61204e-05,2.18676e-06,1.07382e-05,0.00722408,0.000437353,0.00214764,0,0,0,0,0.0561675,0.521437,-0.987644,32.5,1,13254,1375474
7,1,-0.682906,-0.0784782,9.79862,0.0765144,-0.526458,0.999789,-0.00682862,-0.000792007,0.0979862,1,3.61204e-05,2.18676e-06,1.07382e-05,0.00722408,0.000437353,0.00214764,0,0,0,0,0.0561675,0.521437,-0.987644,32.5,1,13254,1375474
7,2,-0.690004,-0.0765372,9.79224,0.0715096,-0.526957,0.995958,-0.00690068,-0.000775637,0.0979223,1,5.2277e-05,-3.31933e-06,1.98547e-06,0.0104554,-0.000663867,0.000397093,0,0,0,0,0.0557476,0.519951,-0.98616,32.5,1,13255,1375574
7,3,-0.690004,-0.0765372,9.79224,0.0715096,-0.526957,0.995958,-0.00690068,-0.000775637,0.0979223,1,5.2277e-05,-3.31933e-06,1.98547e-06,0.0104554,-0.000663867,0.000397093,0,0,0,0,0.0557476,0.519951,-0.98616,32.5,1,13255,1375574
7,4,-0.677139,-0.0703305,9.78543,0.083492,-0.522675,0.988134,-0.00677355,-0.000712583,0.0978541,1,4.55473e-05,-1.12335e-05,2.68836e-05,0.00910946,-0.00224669,0.00537672,0,0,0,0,0.05576,0.519942,-0.985655,32.5,1,13256,1375674
7,5,-0.677139,-0.0703305,9.78543,0.083492,-0.522675,0.988134,-0.00677355,-0.000712583,0.0978541,1,4.55473e-05,-1.12335e-05,2.68836e-05,0.00910946,-0.00224669,0.00537672,0,0,0,0,0.05576,0.519942,-0.985655,32.5,1,13256,1375674
7,6,-0.690584,-0.0830378,9.7888,0.0684941,-0.535256,0.990093,-0.00690789,-0.000838846,0.0978878,1,4.15333e-05,-1.06802e-05,2.43857e-05,0.00830666,-0.00213605,0.00487715,0,0,0,0,0.0561756,0.520949,-0.987655,32.5,1,13257,1375774
7,7,-0.690584,-0.0830378,9.7888,0.0684941,-0.535256,0.990093,-0.00690789,-0.000838846,0.0978878,1,4.15333e-05,-1.06802e-05,2.43857e-05,0.00830666,-0.00213605,0.00487715,0,0,0,0,0.0561756,0.520949,-0.987655,32.5,1,13257,1375774
7,8,-0.688606,-0.0805549,9.78034,0.0672449,-0.530343,0.983335,-0.00688952,-0.000809012,0.0978031,1,1.63353e-05,-1.78609e-05,1.94014e-05,0.00326706,-0.00357218,0.00388028,0,0,0,0,0.0561794,0.519983,-0.988181,32.5,1,13258,1375874
8,1,-0.688606,-0.0805549,9.78034,0.0672449,-0.530343,0.983335,-0.00688952,-0.000809012,0.0978031,1,1.63353e-05,-1.78609e-05,1.94014e-05,0.00326706,-0.00357218,0.00388028,0,0,0,0,0.0561794,0.519983,-0.988181,32.5,1,13258,1375874
8,2,-0.682449,-0.071252,9.79564,0.0736362,-0.523733,1.00053,-0.00682746,-0.000718568,0.0979562,1,2.9644e-05,-1.52456e-05,1.75779e-05,0.0059288,-0.00304913,0.00351557,0,0,0,0,0.0542673,0.51999,-0.987667,32.5,1,13259,1375974
8,3,-0.682449,-0.071252,9.79564,0.0736362,-0.523733,1.00053,-0.00682746,-0.000718568,0.0979562,1,2.9644e-05,-1.52456e-05,1.75779e-05,0.0059288,-0.00304913,0.00351557,0,0,0,0,0.0542673,0.51999,-0.987667,32.5,1,13259,1375974
8,4,-0.687117,-0.0713153,9.77937,0.0705668,-0.526027,0.989326,-0.00687243,-0.000721891,0.0977936,1,4.37125e-05,-6.50416e-06,1.36833e-05,0.0087425,-0.00130083,0.00273666,0,0,0,0,0.0552623,0.519476,-0.986673,32.5,1,13260,1376074
10,1,-0.687117,-0.0713153,9.77937,0.0705668,-0.526027,0.989326,-0.00687243,-0.000721891,0.0977936,1,4.37125e-05,-6.50416e-06,1.36833e-05,0.0087425,-0.00130083,0.00273666,0,0,0,0,0.0552623,0.519476,-0.986673,32.5,1,13260,1376074
10,2,-0.68711,-0.0689777,9.78313,0.0718284,-0.521298,0.984276,-0.00687244,-0.000698957,0.0978311,1,4.55714e-05,-6.9905e-06,1.91464e-05,0.00911427,-0.0013981,0.00382927,0,0,0,0,0.0557761,0.518966,-0.985676,32.5,1,13261,1376174
10,3,-0.68711,-0.0689777,9.78313,0.0718284,-0.521298,0.984276,-0.00687244,-0.000698957,0.0978311,1,4.55714e-05,-6.9905e-06,1.91464e-05,0.00911427,-0.0013981,0.00382927,0,0,0,0,0.0557761,0.518966,-0.985676,32.5,1,13261,1376174
10,4,-0.68009,-0.0769136,9.78879,0.0797647,-0.529345,0.99152,-0.00680411,-0.000777912,0.0978876,1,4.31983e-05,-1.65667e-05,2.34992e-05,0.00863966,-0.00331334,0.00469984,0,0,0,0,0.0562696,0.518953,-0.985174,32.5,1,13262,1376274
11,1,-0.68009,-0.0769136,9.78879,0.0797647,-0.529345,0.99152,-0.00680411,-0.000777912,0.0978876,1,4.31983e-05,-1.65667e-05,2.34992e-05,0.00863966,-0.00331334,0.00469984,0,0,0,0,0.0562696,0.518953,-0.985174,32.5,1,13262,1376274
11,2,-0.68196,-0.0718744,9.79393,0.0796121,-0.525333,0.9912,-0.00682017,-0.000727555,0.0979392,1,4.32002e-05,-3.08274e-06,2.56433e-05,0.00864003,-0.000616548,0.00512866,0,0,0,0,0.0557315,0.520926,-0.986138,32.5,1,13263,1376374
11,3,-0.68196,-0.0718744,9.79393,0.0796121,-0.525333,0.9912,-0.00682017,-0.000727555,0.0979392,1,4.32002e-05,-3.08274e-06,2.56433e-05,0.00864003,-0.000616548,0.00512866,0,0,0,0,0.0557315,0.520926,-0.986138,32.5,1,13263,1376374
11,4,-0.677407,-0.0802549,9.79281,0.0822037,-0.538226,0.992861,-0.00677622,-0.000812445,0.0979278,1,4.93917e-05,-1.10732e-05,1.64084e-05,0.00987834,-0.00221463,0.00328168,0,0,0,0,0.0557149,0.520456,-0.987158,32.5,1,13264,1376474
11,5,-0.677407,-0.0802549,9.79281,0.0822037,-0.538226,0.992861,-0.00677622,-0.000812445,0.0979278,1,4.93917e-05,-1.10732e-05,1.64084e-05,0.00987834,-0.00221463,0.00328168,0,0,0,0,0.0557149,0.520456,-0.987158,32.5,1,13264,1376474
11,6,-0.688625,-0.0708492,9.78958,0.0709855,-0.528623,0.987981,-0.00688939,-0.000716201,0.0978955,1,3.75415e-05,-1.62088e-05,2.60548e-05,0.0075083,-0.00324175,0.00521097,0,0,0,0,0.0556902,0.520475,-0.988168,32.5,1,13265,1376574
12,1,-0.688625,-0.0708492,9.78958,0.0709855,-0.528623,0.987981,-0.00688939,-0.000716201,0.0978955,1,3.75415e-05,-1.62088e-05,2.60548e-05,0.0075083,-0.00324175,0.00521097,0,0,0,0,0.0556902,0.520475,-0.988168,32.5,1,13265,1376574
12,2,-0.678648,-0.0790347,9.79284,0.0826087,-0.537359,0.997328,-0.00678939,-0.000797858,0.0979281,1,3.69214e-05,-1.50559e-05,2.05822e-05,0.00738427,-0.00301117,0.00411643,0,0,0,0,0.0561998,0.519486,-0.987687,32.5,1,13266,1376674
10,1,-0.678648,-0.0790347,9.79284,0.0826087,-0.537359,0.997328,-0.00678939,-0.000797858,0.0979281,1,3.69214e-05,-1.50559e-05,2.05822e-05,0.00738427,-0.00301117,0.00411643,0,0,0,0,0.0561998,0.519486,-0.987687,32.5,1,13266,1376674
10,2,-0.678356,-0.0796107,9.78605,0.0764877,-0.53926,0.990157,-0.00678752,-0.000804281,0.0978601,1,4.0181e-05,-2.03789e-05,2.28344e-05,0.0080362,-0.00407578,0.00456688,0,0,0,0,0.0567464,0.51847,-0.985692,32.5,1,13267,1376774
14,1,-0.678356,-0.0796107,9.78605,0.0764877,-0.53926,0.990157,-0.00678752,-0.000804281,0.0978601,1,4.0181e-05,-2.03789e-05,2.28344e-05,0.0080362,-0.00407578,0.00456688,0,0,0,0,0.0567464,0.51847,-0.985692,32.5,1,13267,1376774
14,2,-0.686672,-0.0788827,9.77761,0.0698726,-0.53827,0.979441,-0.006868,-0.000796559,0.097776,1,3.75714e-05,-6.7666e-06,2.8003e-05,0.00751429,-0.00135332,0.0056006,0,0,0,0,0.0553486,0.519413,-0.983139,32.5,1,13268,1376874
15,1,-0.686672,-0.0788827,9.77761,0.0698726,-0.53827,0.979441,-0.006868,-0.000796559,0.097776,1,3.75714e-05,-6.7666e-06,2.8003e-05,0.00751429,-0.00135332,0.0056006,0,0,0,0,0.0553486,0.519413,-0.983139,32.5,1,13268,1376874
15,2,-0.689736,-0.0733978,9.77599,0.0666156,-0.536324,0.976684,-0.00690036,-0.000744021,0.0977596,1,5.00772e-05,-1.54432e-05,1.82578e-05,0.0100154,-0.00308863,0.00365156,0,0,0,0,0.0542962,0.520451,-0.986142,32.5,1,13269,1376974
17,1,-0.689736,-0.0733978,9.77599,0.0666156,-0.536324,0.976684,-0.00690036,-0.000744021,0.0977596,1,5.00772e-05,-1.54432e-05,1.82578e-05,0.0100154,-0.00308863,0.00365156,0,0,0,0,0.0542962,0.520451,-0.986142,32.5,1,13269,1376974
17,2,-0.688091,-0.0824013,9.79728,0.0675643,-0.54335,0.994208,-0.00688453,-0.000833564,0.0979725,1,4.69926e-05,-1.87269e-05,2.49522e-05,0.00939853,-0.00374538,0.00499044,0,0,0,0,0.0576104,0.51998,-0.988693,32.5,1,13270,1377074
17,3,-0.688091,-0.0824013,9.79728,0.0675643,-0.54335,0.994208,-0.00688453,-0.000833564,0.0979725,1,4.69926e-05,-1.87269e-05,2.49522e-05,0.00939853,-0.00374538,0.00499044,0,0,0,0,0.0576104,0.51998,-0.988693,32.5,1,13270,1377074
17,4,-0.674052,-0.0628581,9.78039,0.0869743,-0.525825,0.980088,-0.00674495,-0.000637315,0.0978035,1,4.31537e-05,-2.27675e-05,2.17387e-05,0.00863073,-0.0045535,0.00434774,0,0,0,0,0.0581039,0.519967,-0.98819,32.5,1,13271,1377174
18,1,-0.674052,-0.0628581,9.78039,0.0869743,-0.525825,0.980088,-0.00674495,-0.000637315,0.0978035,1,4.31537e-05,-2.27675e-05,2.17387e-05,0.00863073,-0.0045535,0.00434774,0,0,0,0,0.0581039,0.519967,-0.98819,32.5,1,13271,1377174
18,2,-0.688283,-0.0758626,9.7936,0.0650366,-0.542278,0.998067,-0.00688501,-0.000769282,0.0979357,1,5.26159e-05,-1.13361e-05,2.53955e-05,0.0105232,-0.00226721,0.00507911,0,0,0,0,0.0571739,0.518024,-0.988229,32.5,1,13272,1377274
19,1,-0.688283,-0.0758626,9.7936,0.0650366,-0.542278,0.998067,-0.00688501,-0.000769282,0.0979357,1,5.26159e-05,-1.13361e-05,2.53955e-05,0.0105232,-0.00226721,0.00507911,0,0,0,0,0.0571739,0.518024,-0.988229,32.5,1,13272,1377274
19,2,-0.686126,-0.0832611,9.78403,0.0694102,-0.548514,0.98807,-0.00686341,-0.000838529,0.0978401,1,2.94336e-05,-1.11072e-05,1.15649e-05,0.00588672,-0.00222144,0.00231297,0,0,0,0,0.0567014,0.518985,-0.987196,32.5,1,13273,1377374
20,1,-0.686126,-0.0832611,9.78403,0.0694102,-0.548514,0.98807,-0.00686341,-0.000838529,0.0978401,1,2.94336e-05,-1.11072e-05,1.15649e-05,0.00588672,-0.00222144,0.00231297,0,0,0,0,0.0567014,0.518985,-0.987196,32.5,1,13273,1377374
20,2,-0.692494,-0.0698852,9.78757,0.0658953,-0.531809,0.991257,-0.00692539,-0.000706368,0.0978756,1,3.65172e-05,-2.48109e-06,2.65687e-05,0.00730345,-0.000496218,0.00531374,0,0,0,0,0.0567635,0.520385,-0.983629,32.5,1,13274,1377474
20,3,-0.692494,-0.0698852,9.78757,0.0658953,-0.531809,0.991257,-0.00692539,-0.000706368,0.0978756,1,3.65172e-05,-2.48109e-06,2.65687e-05,0.00730345,-0.000496218,0.00531374,0,0,0,0,0.0567635,0.520385,-0.983629,32.5,1,13274,1377474
20,4,-0.686685,-0.0789749,9.78541,0.064316,-0.548246,0.986997,-0.00686687,-0.000799111,0.0978541,1,4.67301e-05,-2.57216e-07,1.5771e-05,0.00934601,-5.14431e-05,0.00315419,0,0,0,0,0.0567307,0.520891,-0.984628,32.5,1,13275,1377574
20,5,-0.686685,-0.0789749,9.78541,0.064316,-0.548246,0.986997,-0.00686687,-0.000799111,0.0978541,1,4.67301e-05,-2.57216e-07,1.5771e-05,0.00934601,-5.14431e-05,0.00315419,0,0,0,0,0.0567307,0.520891,-0.984628,32.5,1,13275,1377574
20,6,-0.674919,-0.0828317,9.79549,0.0825879,-0.550256,0.991435,-0.00675101,-0.000836483,0.0979547,1,4.06932e-05,-9.4363e-06,1.43273e-05,0.00813865,-0.00188726,0.00286546,0,0,0,0,0.0575862,0.521443,-0.98866,32.5,1,13276,1377674
21,1,-0.674919,-0.0828317,9.79549,0.0825879,-0.550256,0.991435,-0.00675101,-0.000836483,0.0979547,1,4.06932e-05,-9.4363e-06,1.43273e-05,0.00813865,-0.00188726,0.00286546,0,0,0,0,0.0575862,0.521443,-0.98866,32.5,1,13276,1377674
21,2,-0.685621,-0.0687579,9.78923,0.0690775,-0.537386,0.989164,-0.00685859,-0.000696734,0.0978921,1,4.55137e-05,-1.23157e-05,1.7805e-05,0.00910275,-0.00246314,0.00356101,0,0,0,0,0.0580631,0.52096,-0.989178,32.5,1,13277,1377774
21,3,-0.685621,-0.0687579,9.78923,0.0690775,-0.537386,0.989164,-0.00685859,-0.000696734,0.0978921,1,4.55137e-05,-1.23157e-05,1.7805e-05,0.00910275,-0.00246314,0.00356101,0,0,0,0,0.0580631,0.52096,-0.989178,32.5,1,13277,1377774
21,4,-0.675467,-0.0772981,9.78739,0.0822705,-0.546372,0.989479,-0.00675555,-0.000780536,0.0978738,1,3.76254e-05,-4.60098e-06,1.4037e-05,0.00752508,-0.000920197,0.0028074,0,0,0,0,0.0571905,0.518493,-0.987209,32.5,1,13278,1377874
22,1,-0.675467,-0.0772981,9.78739,0.0822705,-0.546372,0.989479,-0.00675555,-0.000780536,0.0978738,1,3.76254e-05,-4.60098e-06,1.4037e-05,0.00752508,-0.000920197,0.0028074,0,0,0,0,0.0571905,0.518493,-0.987209,32.5,1,13278,1377874
22,2,-0.68464,-0.0684196,9.78447,0.0683744,-0.542329,0.992305,-0.00684801,-0.000691211,0.0978446,1,3.37792e-05,-8.41898e-06,2.95601e-05,0.00675583,-0.0016838,0.00591202,0,0,0,0,0.0557927,0.519436,-0.984656,32.5,1,13279,1377974
22,3,-0.68464,-0.0684196,9.78447,0.0683744,-0.542329,0.992305,-0.00684801,-0.000691211,0.0978446,1,3.37792e-05,-8.41898e-06,2.95601e-05,0.00675583,-0.0016838,0.00591202,0,0,0,0,0.0557927,0.519436,-0.984656,32.5,1,13279,1377974
22,4,-0.682553,-0.0801494,9.7847,0.0715712,-0.554646,0.987407,-0.00682762,-0.000811903,0.0978468,1,5.22359e-05,-1.08109e-05,1.37095e-05,0.0104472,-0.00216218,0.00274189,0,0,0,0,0.0553363,0.519422,-0.983644,32.5,1,13280,1378074
23,1,-0.682553,-0.0801494,9.7847,0.0715712,-0.554646,0.987407,-0.00682762,-0.000811903,0.0978468,1,5.22359e-05,-1.08109e-05,1.37095e-05,0.0104472,-0.00216218,0.00274189,0,0,0,0,0.0553363,0.519422,-0.983644,32.5,1,13280,1378074
23,2,-0.67756,-0.0636063,9.7821,0.078723,-0.541882,0.977453,-0.00677744,-0.000643326,0.0978208,1,3.57106e-05,-9.57601e-06,2.03866e-05,0.00714213,-0.0019152,0.00407731,0,0,0,0,0.0557642,0.52042,-0.985139,32.5,1,13281,1378174
23,3,-0.67756,-0.0636063,9.7821,0.078723,-0.541882,0.977453,-0.00677744,-0.000643326,0.0978208,1,3.57106e-05,-9.57601e-06,2.03866e-05,0.00714213,-0.0019152,0.00407731,0,0,0,0,0.0557642,0.52042,-0.985139,32.5,1,13281,1378174
23,4,-0.675774,-0.0775213,9.78298,0.0790351,-0.552204,0.980892,-0.00676021,-0.000784776,0.0978295,1,4.71004e-05,-1.28361e-05,2.57289e-05,0.00942009,-0.00256723,0.00514578,0,0,0,0,0.0561718,0.521916,-0.987128,32.5,1,13282,1378274
23,5,-0.675774,-0.0775213,9.78298,0.0790351,-0.552204,0.980892,-0.00676021,-0.000784776,0.0978295,1,4.71004e-05,-1.28361e-05,2.57289e-05,0.00942009,-0.00256723,0.00514578,0,0,0,0,0.0561718,0.521916,-0.987128,32.5,1,13282,1378274
23,6,-0.687081,-0.0698657,9.78855,0.0658337,-0.54643,0.988256,-0.00687139,-0.000707691,0.0978854,1,4.35262e-05,-3.22639e-06,3.73201e-05,0.00870523,-0.000645277,0.00746402,0,0,0,0,0.0557064,0.519499,-0.98819,32.5,1,13283,1378374
24,1,-0.687081,-0.0698657,9.78855,0.0658337,-0.54643,0.988256,-0.00687139,-0.000707691,0.0978854,1,4.35262e-05,-3.22639e-06,3.73201e-05,0.00870523,-0.000645277,0.00746402,0,0,0,0,0.0557064,0.519499,-0.98819,32.5,1,13283,1378374
24,2,-0.685558,-0.0847132,9.79045,0.0670582,-0.561364,0.994699,-0.0068563,-0.000858238,0.0979044,1,5.48381e-05,-3.89833e-06,2.68296e-05,0.0109676,-0.000779666,0.00536592,0,0,0,0,0.0557595,0.518496,-0.986697,32.5,1,13284,1378474
24,3,-0.685558,-0.0847132,9.79045,0.0670582,-0.561364,0.994699,-0.0068563,-0.000858238,0.0979044,1,5.48381e-05,-3.89833e-06,2.68296e-05,0.0109676,-0.000779666,0.00536592,0,0,0,0,0.0557595,0.518496,-0.986697,32.5,1,13284,1378474
24,4,-0.687594,-0.0809563,9.79083,0.0603587,-0.557842,0.99218,-0.00687798,-0.000815595,0.0979081,1,2.89323e-05,-1.06136e-05,2.66917e-05,0.00578647,-0.00212273,0.00533834,0,0,0,0,0.0552831,0.520424,-0.985137,32.5,1,13285,1378574
25,1,-0.687594,-0.0809563,9.79083,0.0603587,-0.557842,0.99218,-0.00687798,-0.000815595,0.0979081,1,2.89323e-05,-1.06136e-05,2.66917e-05,0.00578647,-0.00212273,0.00533834,0,0,0,0,0.0552831,0.520424,-0.985137,32.5,1,13285,1378574
25,2,-0.676098,-0.0699236,9.78305,0.0749522,-0.550045,0.982122,-0.0067631,-0.000708255,0.0978303,1,4.54039e-05,-1.09132e-05,9.95948e-06,0.00908077,-0.00218264,0.0019919,0,0,0,0,0.0562662,0.521365,-0.983605,32.5,1,13286,1378674
26,1,-0.676098,-0.0699236,9.78305,0.0749522,-0.550045,0.982122,-0.0067631,-0.000708255,0.0978303,1,4.54039e-05,-1.09132e-05,9.95948e-06,0.00908077,-0.00218264,0.0019919,0,0,0,0,0.0562662,0.521365,-0.983605,32.5,1,13286,1378674
26,2,-0.676439,-0.074861,9.78878,0.0779933,-0.555154,0.984093,-0.0067655,-0.000756033,0.0978877,1,3.63383e-05,-5.87104e-06,2.27802e-05,0.00726767,-0.00117421,0.00455603,0,0,0,0,0.0567023,0.521876,-0.985111,32.5,1,13287,1378774
26,3,-0.676439,-0.074861,9.78878,0.0779933,-0.555154,0.984093,-0.0067655,-0.000756033,0.0978877,1,3.63383e-05,-5.87104e-06,2.27802e-05,0.00726767,-0.00117421,0.00455603,0,0,0,0,0.0567023,0.521876,-0.985111,32.5,1,13287,1378774
26,4,-0.68416,-0.0775389,9.78339,0.0682207,-0.563053,0.980886,-0.00684478,-0.000785604,0.0978336,1,5.12674e-05,-1.63823e-05,1.3422e-05,0.0102535,-0.00327645,0.00268441,0,0,0,0,0.0581086,0.521891,-0.986632,32.5,1,13288,1378874
27,1,-0.68416,-0.0775389,9.78339,0.0682207,-0.563053,0.980886,-0.00684478,-0.000785604,0.0978336,1,5.12674e-05,-1.63823e-05,1.3422e-05,0.0102535,-0.00327645,0.00268441,0,0,0,0,0.0581086,0.521891,-0.986632,32.5,1,13288,1378874
27,2,-0.675784,-0.0672561,9.78918,0.0737457,-0.548976,0.986758,-0.00675905,-0.000682898,0.0978916,1,5.11614e-05,-6.33688e-06,2.37131e-05,0.0102323,-0.00126738,0.00474262,0,0,0,0,0.0566202,0.522418,-0.988129,32.5,1,13289,1378974
27,3,-0.675784,-0.0672561,9.78918,0.0737457,-0.548976,0.986758,-0.00675905,-0.000682898,0.0978916,1,5.11614e-05,-6.33688e-06,2.37131e-05,0.0102323,-0.00126738,0.00474262,0,0,0,0,0.0566202,0.522418,-0.988129,32.5,1,13289,1378974
27,4,-0.671533,-0.0669142,9.78812,0.0785953,-0.552667,0.987165,-0.00671534,-0.00067785,0.0978812,1,4.33082e-05,-1.39716e-07,1.71627e-05,0.00866165,-2.79432e-05,0.00343254,0,0,0,0,0.0566809,0.519482,-0.987689,32.5,1,13290,1379074
27,5,-0.671533,-0.0669142,9.78812,0.0785953,-0.552667,0.987165,-0.00671534,-0.00067785,0.0978812,1,4.33082e-05,-1.39716e-07,1.71627e-05,0.00866165,-2.79432e-05,0.00343254,0,0,0,0,0.0566809,0.519482,-0.987689,32.5,1,13290,1379074
27,6,-0.677654,-0.0757732,9.78845,0.0739703,-0.564915,0.990785,-0.0067787,-0.000767059,0.0978843,1,4.68977e-05,-1.11443e-05,1.0775e-05,0.00937955,-0.00222887,0.002155,0,0,0,0,0.0576593,0.518498,-0.987716,32.5,1,13291,1379174
27,7,-0.677654,-0.0757732,9.78845,0.0739703,-0.564915,0.990785,-0.0067787,-0.000767059,0.0978843,1,4.68977e-05,-1.11443e-05,1.0775e-05,0.00937955,-0.00222887,0.002155,0,0,0,0,0.0576593,0.518498,-0.987716,32.5,1,13291,1379174
27,8,-0.673325,-0.0750637,9.78875,0.0767906,-0.558108,0.988403,-0.00673562,-0.000760448,0.0978873,1,4.74193e-05,-1.24067e-05,3.91399e-05,0.00948386,-0.00248133,0.00782797,0,0,0,0,0.0576887,0.520404,-0.985148,32.5,1,13292,1379274
27,9,-0.673325,-0.0750637,9.78875,0.0767906,-0.558108,0.988403,-0.00673562,-0.000760448,0.0978873,1,4.74193e-05,-1.24067e-05,3.91399e-05,0.00948386,-0.00248133,0.00782797,0,0,0,0,0.0576887,0.520404,-0.985148,32.5,1,13292,1379274
27,10,-0.681218,-0.0661958,9.78549,0.0709194,-0.550113,0.987963,-0.00681452,-0.000671304,0.0978547,1,4.71211e-05,-1.20293e-05,9.12691e-06,0.00942423,-0.00240585,0.00182538,0,0,0,0,0.0572081,0.521854,-0.984104,32.5,1,13293,1379374
27,11,-0.681218,-0.0661958,9.78549,0.0709194,-0.550113,0.987963,-0.00681452,-0.000671304,0.0978547,1,4.71211e-05,-1.20293e-05,9.12691e-06,0.00942423,-0.00240585,0.00182538,0,0,0,0,0.0572081,0.521854,-0.984104,32.5,1,13293,1379374
27,12,-0.683293,-0.0682553,9.78752,0.0679033,-0.554366,0.986615,-0.00683445,-0.000693511,0.097875,1,5.45624e-05,-7.9036e-06,2.02619e-05,0.0109125,-0.00158072,0.00405238,0,0,0,0,0.0586552,0.520875,-0.984637,32.5,1,13294,1379474
28,1,-0.683293,-0.0682553,9.78752,0.0679033,-0.554366,0.986615,-0.00683445,-0.000693511,0.097875,1,5.45624e-05,-7.9036e-06,2.02619e-05,0.0109125,-0.00158072,0.00405238,0,0,0,0,0.0586552,0.520875,-0.984637,32.5,1,13294,1379474
28,2,-0.686702,-0.074582,9.78613,0.0569987,-0.562331,0.984801,-0.0068675,-0.000753359,0.0978612,1,3.65339e-05,-2.65598e-06,2.82769e-05,0.00730678,-0.000531196,0.00565537,0,0,0,0,0.0576313,0.520928,-0.987157,32.5,1,13295,1379574
30,1,-0.686702,-0.074582,9.78613,0.0569987,-0.562331,0.984801,-0.0068675,-0.000753359,0.0978612,1,3.65339e-05,-2.65598e-06,2.82769e-05,0.00730678,-0.000531196,0.00565537,0,0,0,0,0.0576313,0.520928,-0.987157,32.5,1,13295,1379574
30,2,-0.676922,-0.0748059,9.7786,0.072674,-0.56188,0.973193,-0.00676859,-0.000754472,0.097786,1,3.21791e-05,3.1237e-06,8.79532e-06,0.00643581,0.00062474,0.00175906,0,0,0,0,0.0557064,0.519499,-0.98819,32.5,1,13296,1379674
31,1,-0.676922,-0.0748059,9.7786,0.072674,-0.56188,0.973193,-0.00676859,-0.000754472,0.097786,1,3.21791e-05,3.1237e-06,8.79532e-06,0.00643581,0.00062474,0.00175906,0,0,0,0,0.0557064,0.519499,-0.98819,32.5,1,13296,1379674
31,2,-0.686853,-0.0796534,9.78576,0.0658079,-0.569738,0.983498,-0.00687181,-0.000806617,0.0978573,1,5.01668e-05,-1.69032e-05,1.93099e-05,0.0100334,-0.00338063,0.00386199,0,0,0,0,0.0566648,0.520458,-0.987668,32.5,1,13297,1379774
32,1,-0.686853,-0.0796534,9.78576,0.0658079,-0.569738,0.983498,-0.00687181,-0.000806617,0.0978573,1,5.01668e-05,-1.69032e-05,1.93099e-05,0.0100334,-0.00338063,0.00386199,0,0,0,0,0.0566648,0.520458,-0.987668,32.5,1,13297,1379774
32,2,-0.679886,-0.0701585,9.78545,0.0677936,-0.558553,0.983486,-0.00680064,-0.000706614,0.0978544,1,2.43187e-05,-9.24046e-06,1.98484e-05,0.00486374,-0.00184809,0.00396969,0,0,0,0,0.0576436,0.520919,-0.986652,32.5,1,13298,1379874
33,1,-0.679886,-0.0701585,9.78545,0.0677936,-0.558553,0.983486,-0.00680064,-0.000706614,0.0978544,1,2.43187e-05,-9.24046e-06,1.98484e-05,0.00486374,-0.00184809,0.00396969,0,0,0,0,0.0576436,0.520919,-0.986652,32.5,1,13298,1379874
33,2,-0.680881,-0.0710605,9.78342,0.0690506,-0.565293,0.9833,-0.00681195,-0.000719908,0.0978339,1,4.59886e-05,-1.62126e-05,2.23519e-05,0.00919772,-0.00324253,0.00447039,0,0,0,0,0.056233,0.520425,-0.985646,32.5,1,13299,1379974
33,3,-0.680881,-0.0710605,9.78342,0.0690506,-0.565293,0.9833,-0.00681195,-0.000719908,0.0978339,1,4.59886e-05,-1.62126e-05,2.23519e-05,0.00919772,-0.00324253,0.00447039,0,0,0,0,0.056233,0.520425,-0.985646,32.5,1,13299,1379974
33,4,-0.695794,-0.0846112,9.78848,0.0517477,-0.578043,0.987733,-0.00695837,-0.000855114,0.0978847,1,4.4927e-05,-2.29481e-06,1.48639e-05,0.0089854,-0.000458961,0.00297278,0,0,0,0,0.0572157,0.519921,-0.985157,32.5,1,13300,1380074
35,1,-0.695794,-0.0846112,9.78848,0.0517477,-0.578043,0.987733,-0.00695837,-0.000855114,0.0978847,1,4.4927e-05,-2.29481e-06,1.48639e-05,0.0089854,-0.000458961,0.00297278,0,0,0,0,0.0572157,0.519921,-0.985157,32.5,1,13300,1380074
35,2,-0.677931,-0.0601614,9.78688,0.0676902,-0.55521,0.984293,-0.00678074,-0.000610384,0.0978687,1,4.32096e-05,-7.43797e-06,2.30688e-05,0.00864191,-0.00148759,0.00461376,0,0,0,0,0.056726,0.518967,-0.986186,32.5,1,13301,1380174
36,1,-0.677931,-0.0601614,9.78688,0.0676902,-0.55521,0.984293,-0.00678074,-0.000610384,0.0978687,1,4.32096e-05,-7.43797e-06,2.30688e-05,0.00864191,-0.00148759,0.00461376,0,0,0,0,0.056726,0.518967,-0.986186,32.5,1,13301,1380174
36,2,-0.679706,-0.0758262,9.78541,0.068286,-0.569781,0.982541,-0.00680083,-0.000769429,0.0978537,1,5.50637e-05,-1.94926e-05,2.86826e-05,0.0110127,-0.00389851,0.00573651,0,0,0,0,0.0557676,0.518009,-0.986708,32.5,1,13302,1380274
36,3,-0.679706,-0.0758262,9.78541,0.068286,-0.569781,0.982541,-0.00680083,-0.000769429,0.0978537,1,5.50637e-05,-1.94926e-05,2.86826e-05,0.0110127,-0.00389851,0.00573651,0,0,0,0,0.0557676,0.518009,-0.986708,32.5,1,13302,1380274
36,4,-0.685948,-0.0754653,9.78917,0.0631723,-0.571759,0.987828,-0.00686159,-0.000766729,0.0978915,1,5.96157e-05,-1.09857e-05,2.94598e-05,0.0119231,-0.00219714,0.00589197,0,0,0,0,0.0567545,0.517983,-0.985703,32.5,1,13303,1380374
36,5,-0.685948,-0.0754653,9.78917,0.0631723,-0.571759,0.987828,-0.00686159,-0.000766729,0.0978915,1,5.96157e-05,-1.09857e-05,2.94598e-05,0.0119231,-0.00219714,0.00589197,0,0,0,0,0.0567545,0.517983,-0.985703,32.5,1,13303,1380374
36,6,-0.690741,-0.0837991,9.78574,0.0589301,-0.58123,0.985135,-0.00690777,-0.00084856,0.0978572,1,5.21056e-05,-2.06029e-06,2.68502e-05,0.0104211,-0.000412057,0.00537004,0,0,0,0,0.0567877,0.518922,-0.983662,32.5,1,13304,1380474
37,1,-0.690741,-0.0837991,9.78574,0.0589301,-0.58123,0.985135,-0.00690777,-0.00084856,0.0978572,1,5.21056e-05,-2.06029e-06,2.68502e-05,0.0104211,-0.000412057,0.00537004,0,0,0,0,0.0567877,0.518922,-0.983662,32.5,1,13304,1380474
37,2,-0.680463,-0.0777201,9.79115,0.0680411,-0.571779,0.988399,-0.00680626,-0.000789891,0.0979113,1,6.30449e-05,-8.52157e-06,2.53078e-05,0.012609,-0.00170431,0.00506156,0,0,0,0,0.0552589,0.521888,-0.985104,32.5,1,13305,1380574
38,1,-0.680463,-0.0777201,9.79115,0.0680411,-0.571779,0.988399,-0.00680626,-0.000789891,0.0979113,1,6.30449e-05,-8.52157e-06,2.53078e-05,0.012609,-0.00170431,0.00506156,0,0,0,0,0.0552589,0.521888,-0.985104,32.5,1,13305,1380574
38,2,-0.683486,-0.0790811,9.78845,0.0716808,-0.58023,0.988123,-0.00683679,-0.000798917,0.0978843,1,3.98588e-05,-1.0038e-05,2.21765e-05,0.00797176,-0.00200759,0.0044353,0,0,0,0,0.0571302,0.522874,-0.986606,32.5,1,13306,1380674
38,3,-0.683486,-0.0790811,9.78845,0.0716808,-0.58023,0.988123,-0.00683679,-0.000798917,0.0978843,1,3.98588e-05,-1.0038e-05,2.21765e-05,0.00797176,-0.00200759,0.0044353,0,0,0,0,0.0571302,0.522874,-0.986606,32.5,1,13306,1380674
38,4,-0.676641,-0.0782876,9.79181,0.0742051,-0.574644,0.988703,-0.00676925,-0.000790333,0.0979178,1,3.66793e-05,-1.46569e-05,2.02712e-05,0.00733586,-0.00293137,0.00405424,0,0,0,0,0.0585608,0.521426,-0.98816,32.5,1,13307,1380774
39,1,-0.676641,-0.0782876,9.79181,0.0742051,-0.574644,0.988703,-0.00676925,-0.000790333,0.0979178,1,3.66793e-05,-1.46569e-05,2.02712e-05,0.00733586,-0.00293137,0.00405424,0,0,0,0,0.0585608,0.521426,-0.98816,32.5,1,13307,1380774
39,2,-0.687577,-0.0710639,9.78652,0.0662887,-0.57477,0.98558,-0.00687824,-0.000720881,0.0978649,1,5.07964e-05,-1.27848e-05,2.17889e-05,0.0101593,-0.00255697,0.00435778,0,0,0,0,0.0566359,0.519997,-0.989193,32.5,1,13308,1380874
40,1,-0.687577,-0.0710639,9.78652,0.0662887,-0.57477,0.98558,-0.00687824,-0.000720881,0.0978649,1,5.07964e-05,-1.27848e-05,2.17889e-05,0.0101593,-0.00255697,0.00435778,0,0,0,0,0.0566359,0.519997,-0.989193,32.5,1,13308,1380874
40,2,-0.678273,-0.0758686,9.79454,0.0720783,-0.576841,0.99175,-0.00678167,-0.000766355,0.0979454,1,3.8037e-05,5.31781e-06,1.60692e-05,0.00760741,0.00106356,0.00321384,0,0,0,0,0.0557434,0.519472,-0.986675,32.5,1,13309,1380974
41,1,-0.678273,-0.0758686,9.79454,0.0720783,-0.576841,0.99175,-0.00678167,-0.000766355,0.0979454,1,3.8037e-05,5.31781e-06,1.60692e-05,0.00760741,0.00106356,0.00321384,0,0,0,0,0.0557434,0.519472,-0.986675,32.5,1,13309,1380974
41,2,-0.689961,-0.0767635,9.79394,0.0633665,-0.579859,0.986897,-0.00690158,-0.00077548,0.0979392,1,3.77446e-05,-1.03396e-05,3.27192e-05,0.00754892,-0.00206791,0.00654385,0,0,0,0,0.0567303,0.519446,-0.98567,32.5,1,13310,1381074
42,1,-0.689961,-0.0767635,9.79394,0.0633665,-0.579859,0.986897,-0.00690158,-0.00077548,0.0979392,1,3.77446e-05,-1.03396e-05,3.27192e-05,0.00754892,-0.00206791,0.00654385,0,0,0,0,0.0567303,0.519446,-0.98567,32.5,1,13310,1381074
42,2,-0.677726,-0.0746751,9.79184,0.0721839,-0.575425,0.99112,-0.0067808,-0.000753167,0.0979181,1,3.13965e-05,-1.82468e-05,1.96846e-05,0.00627931,-0.00364935,0.00393692,0,0,0,0,0.0561922,0.521419,-0.986634,32.5,1,13311,1381174
42,3,-0.677726,-0.0746751,9.79184,0.0721839,-0.575425,0.99112,-0.0067808,-0.000753167,0.0979181,1,3.13965e-05,-1.82468e-05,1.96846e-05,0.00627931,-0.00364935,0.00393692,0,0,0,0,0.0561922,0.521419,-0.986634,32.5,1,13311,1381174
42,4,-0.685352,-0.0837784,9.78638,0.0640623,-0.588798,0.989499,-0.00685422,-0.000846467,0.0978636,1,4.27158e-05,-3.79801e-06,2.35145e-05,0.00854315,-0.000759601,0.00470289,0,0,0,0,0.057656,0.52091,-0.986147,32.5,1,13312,1381274
43,1,-0.685352,-0.0837784,9.78638,0.0640623,-0.588798,0.989499,-0.00685422,-0.000846467,0.0978636,1,4.27158e-05,-3.79801e-06,2.35145e-05,0.00854315,-0.000759601,0.00470289,0,0,0,0,0.057656,0.52091,-0.986147,32.5,1,13312,1381274
43,2,-0.681102,-0.0765339,9.7888,0.0654054,-0.580418,0.987273,-0.00681406,-0.000775212,0.0978877,1,5.04628e-05,-1.55158e-05,-4.71237e-07,0.0100926,-0.00310316,-9.42475e-05,0,0,0,0,0.0581205,0.520437,-0.98717,32.5,1,13313,1381374
44,1,-0.681102,-0.0765339,9.7888,0.0654054,-0.580418,0.987273,-0.00681406,-0.000775212,0.0978877,1,5.04628e-05,-1.55158e-05,-4.71237e-07,0.0100926,-0.00310316,-9.42475e-05,0,0,0,0,0.0581205,0.520437,-0.98717,32.5,1,13313,1381374
44,2,-0.676175,-0.0699745,9.78576,0.0708256,-0.575136,0.982366,-0.00676143,-0.000709579,0.0978576,1,4.78106e-05,1.34501e-06,3.52316e-05,0.00956213,0.000269001,0.00704632,0,0,0,0,0.0571953,0.520417,-0.985651,32.5,1,13314,1381474
44,3,-0.676175,-0.0699745,9.78576,0.0708256,-0.575136,0.982366,-0.00676143,-0.000709579,0.0978576,1,4.78106e-05,1.34501e-06,3.52316e-05,0.00956213,0.000269001,0.00704632,0,0,0,0,0.0571953,0.520417,-0.985651,32.5,1,13314,1381474
44,4,-0.677701,-0.0682676,9.78749,0.0689179,-0.570089,0.988022,-0.00678143,-0.000692313,0.0978746,1,4.78738e-05,-2.27316e-05,1.96044e-05,0.00957475,-0.00454632,0.00392087,0,0,0,0,0.0562658,0.51992,-0.984647,32.5,1,13315,1381574
44,5,-0.677701,-0.0682676,9.78749,0.0689179,-0.570089,0.988022,-0.00678143,-0.000692313,0.0978746,1,4.78738e-05,-2.27316e-05,1.96044e-05,0.00957475,-0.00454632,0.00392087,0,0,0,0,0.0562658,0.51992,-0.984647,32.5,1,13315,1381574
44,6,-0.680452,-0.0780509,9.79115,0.068554,-0.581649,0.989109,-0.00680644,-0.000788639,0.0979113,1,3.98122e-05,-9.96523e-06,2.45478e-05,0.00796243,-0.00199305,0.00490956,0,0,0,0,0.0567796,0.51941,-0.983651,32.5,1,13316,1381674
44,7,-0.680452,-0.0780509,9.79115,0.068554,-0.581649,0.989109,-0.00680644,-0.000788639,0.0979113,1,3.98122e-05,-9.96523e-06,2.45478e-05,0.00796243,-0.00199305,0.00490956,0,0,0,0,0.0567796,0.51941,-0.983651,32.5,1,13316,1381674
44,8,-0.681433,-0.0762763,9.7844,0.0650716,-0.584138,0.982381,-0.00681631,-0.000771058,0.0978438,1,4.14775e-05,-1.02354e-05,1.30865e-05,0.0082955,-0.00204707,0.00261731,0,0,0,0,0.0577295,0.519411,-0.98416,32.5,1,13317,1381774
45,1,-0.681433,-0.0762763,9.7844,0.0650716,-0.584138,0.982381,-0.00681631,-0.000771058,0.0978438,1,4.14775e-05,-1.02354e-05,1.30865e-05,0.0082955,-0.00204707,0.00261731,0,0,0,0,0.0577295,0.519411,-0.98416,32.5,1,13317,1381774
45,2,-0.679796,-0.0720735,9.79561,0.0688818,-0.580268,0.993207,-0.00680034,-0.000730406,0.0979559,1,4.86932e-05,-1.21875e-05,9.6916e-06,0.00973863,-0.00243751,0.00193832,0,0,0,0,0.0586263,0.520415,-0.986162,32.5,1,13318,1381874
45,3,-0.679796,-0.0720735,9.79561,0.0688818,-0.580268,0.993207,-0.00680034,-0.000730406,0.0979559,1,4.86932e-05,-1.21875e-05,9.6916e-06,0.00973863,-0.00243751,0.00193832,0,0,0,0,0.0586263,0.520415,-0.986162,32.5,1,13318,1381874
45,4,-0.690069,-0.069778,9.78756,0.059679,-0.579254,0.978463,-0.00690184,-0.000707119,0.0978754,1,4.66165e-05,-5.9996e-06,1.5553e-05,0.00932329,-0.00119992,0.00311059,0,0,0,0,0.0570847,0.521944,-0.989152,32.5,1,13319,1381974
45,5,-0.690069,-0.069778,9.78756,0.059679,-0.579254,0.978463,-0.00690184,-0.000707119,0.0978754,1,4.66165e-05,-5.9996e-06,1.5553e-05,0.00932329,-0.00119992,0.00311059,0,0,0,0,0.0570847,0.521944,-0.989152,32.5,1,13319,1381974
45,6,-0.681595,-0.08549,9.79041,0.0684681,-0.589504,0.989398,-0.00681479,-0.000862913,0.0979041,1,4.01549e-05,5.83937e-06,1.10028e-05,0.00803098,0.00116787,0.00220055,0,0,0,0,0.0562164,0.519956,-0.986667,32.5,1,13320,1382074
46,1,-0.681595,-0.08549,9.79041,0.0684681,-0.589504,0.989398,-0.00681479,-0.000862913,0.0979041,1,4.01549e-05,5.83937e-06,1.10028e-05,0.00803098,0.00116787,0.00220055,0,0,0,0,0.0562164,0.519956,-0.986667,32.5,1,13320,1382074
46,2,-0.681159,-0.0822832,9.77959,0.0677863,-0.593682,0.977272,-0.0068124,-0.0008321,0.0977958,1,4.67468e-05,-4.20213e-06,9.10618e-06,0.00934937,-0.000840426,0.00182124,0,0,0,0,0.0563066,0.518926,-0.98366,32.5,1,13321,1382174
47,1,-0.681159,-0.0822832,9.77959,0.0677863,-0.593682,0.977272,-0.0068124,-0.0008321,0.0977958,1,4.67468e-05,-4.20213e-06,9.10618e-06,0.00934937,-0.000840426,0.00182124,0,0,0,0,0.0563066,0.518926,-0.98366,32.5,1,13321,1382174
47,2,-0.680407,-0.0827087,9.78331,0.068378,-0.595526,0.981779,-0.00680681,-0.000836838,0.0978329,1,4.85759e-05,-1.41562e-05,1.81104e-05,0.00971519,-0.00283124,0.00362207,0,0,0,0,0.0553078,0.520406,-0.984127,32.5,1,13322,1382274
48,1,-0.680407,-0.0827087,9.78331,0.068378,-0.595526,0.981779,-0.00680681,-0.000836838,0.0978329,1,4.85759e-05,-1.41562e-05,1.81104e-05,0.00971519,-0.00283124,0.00362207,0,0,0,0,0.0553078,0.520406,-0.984127,32.5,1,13322,1382274
48,2,-0.684677,-0.0619584,9.78691,0.0649801,-0.572905,0.984198,-0.00684946,-0.000627968,0.0978689,1,4.163e-05,-1.38751e-05,1.72351e-05,0.00832601,-0.00277501,0.00344703,0,0,0,0,0.0557073,0.52239,-0.986105,32.5,1,13323,1382374
48,3,-0.684677,-0.0619584,9.78691,0.0649801,-0.572905,0.984198,-0.00684946,-0.000627968,0.0978689,1,4.163e-05,-1.38751e-05,1.72351e-05,0.00832601,-0.00277501,0.00344703,0,0,0,0,0.0557073,0.52239,-0.986105,32.5,1,13323,1382374
48,4,-0.692818,-0.0791249,9.78273,0.0554586,-0.587527,0.980539,-0.00692983,-0.000802566,0.0978271,1,5.71534e-05,-8.47853e-06,9.71417e-06,0.0114307,-0.00169571,0.00194283,0,0,0,0,0.0586144,0.521869,-0.985625,32.5,1,13324,1382474
49,1,-0.692818,-0.0791249,9.78273,0.0554586,-0.587527,0.980539,-0.00692983,-0.000802566,0.0978271,1,5.71534e-05,-8.47853e-06,9.71417e-06,0.0114307,-0.00169571,0.00194283,0,0,0,0,0.0586144,0.521869,-0.985625,32.5,1,13324,1382474
49,2,-0.684663,-0.0736449,9.78375,0.0648639,-0.584909,0.983108,-0.00684737,-0.000748431,0.0978374,1,6.05508e-05,-3.85571e-06,9.80126e-06,0.0121102,-0.000771142,0.00196025,0,0,0,0,0.0576479,0.521398,-0.986136,32.5,1,13325,1382574
49,3,-0.684663,-0.0736449,9.78375,0.0648639,-0.584909,0.983108,-0.00684737,-0.000748431,0.0978374,1,6.05508e-05,-3.85571e-06,9.80126e-06,0.0121102,-0.000771142,0.00196025,0,0,0,0,0.0576479,0.521398,-0.986136,32.5,1,13325,1382574
49,4,-0.679536,-0.0727208,9.78474,0.0687087,-0.587379,0.979255,-0.00679706,-0.000736492,0.0978473,1,4.68529e-05,-8.7266e-06,8.50121e-06,0.00937059,-0.00174532,0.00170024,0,0,0,0,0.0557111,0.521423,-0.986632,32.5,1,13326,1382674
50,1,-0.679536,-0.0727208,9.78474,0.0687087,-0.587379,0.979255,-0.00679706,-0.000736492,0.0978473,1,4.68529e-05,-8.7266e-06,8.50121e-06,0.00937059,-0.00174532,0.00170024,0,0,0,0,0.0557111,0.521423,-0.986632,32.5,1,13326,1382674
50,2,-0.675719,-0.0813591,9.79109,0.0776632,-0.595449,0.985538,-0.00675753,-0.000822954,0.0979108,1,4.74062e-05,-1.7603e-06,5.84863e-06,0.00948124,-0.000352059,0.00116973,0,0,0,0,0.0557315,0.520926,-0.986138,32.5,1,13327,1382774
51,1,-0.675719,-0.0813591,9.79109,0.0776632,-0.595449,0.985538,-0.00675753,-0.000822954,0.0979108,1,4.74062e-05,-1.7603e-06,5.84863e-06,0.00948124,-0.000352059,0.00116973,0,0,0,0,0.0557315,0.520926,-0.986138,32.5,1,13327,1382774
51,2,-0.677717,-0.0731205,9.79017,0.0719492,-0.58886,0.987417,-0.00677965,-0.000741389,0.0979014,1,5.12712e-05,-1.27406e-05,1.06634e-05,0.0102542,-0.00254813,0.00213269,0,0,0,0,0.0571872,0.520905,-0.98564,32.5,1,13328,1382874
52,1,-0.677717,-0.0731205,9.79017,0.0719492,-0.58886,0.987417,-0.00677965,-0.000741389,0.0979014,1,5.12712e-05,-1.27406e-05,1.06634e-05,0.0102542,-0.00254813,0.00213269,0,0,0,0,0.0571872,0.520905,-0.98564,32.5,1,13328,1382874
52,2,-0.675085,-0.0690448,9.78848,0.0749694,-0.585842,0.984669,-0.00675251,-0.00069947,0.0978847,1,4.4603e-05,-8.63162e-06,2.15041e-05,0.00892059,-0.00172632,0.00430082,0,0,0,0,0.0581129,0.52237,-0.986117,32.5,1,13329,1382974
52,3,-0.675085,-0.0690448,9.78848,0.0749694,-0.585842,0.984669,-0.00675251,-0.00069947,0.0978847,1,4.4603e-05,-8.63162e-06,2.15041e-05,0.00892059,-0.00172632,0.00430082,0,0,0,0,0.0581129,0.52237,-0.986117,32.5,1,13329,1382974
52,4,-0.677792,-0.0695837,9.78307,0.0664792,-0.590477,0.981063,-0.00678097,-0.000707473,0.0978304,1,5.90998e-05,-1.56464e-05,5.30664e-06,0.01182,-0.00312928,0.00106133,0,0,0,0,0.0576602,0.521389,-0.985631,32.5,1,13330,1383074
52,5,-0.677792,-0.0695837,9.78307,0.0664792,-0.590477,0.981063,-0.00678097,-0.000707473,0.0978304,1,5.90998e-05,-1.56464e-05,5.30664e-06,0.01182,-0.00312928,0.00106133,0,0,0,0,0.0576602,0.521389,-0.985631,32.5,1,13330,1383074
52,6,-0.679489,-0.0754252,9.78812,0.0658872,-0.593466,0.98365,-0.00679664,-0.00076556,0.097881,1,5.65591e-05,-9.08841e-06,1.73841e-05,0.0113118,-0.00181768,0.00347683,0,0,0,0,0.0567018,0.520431,-0.986153,32.5,1,13331,1383174
53,1,-0.679489,-0.0754252,9.78812,0.0658872,-0.593466,0.98365,-0.00679664,-0.00076556,0.097881,1,5.65591e-05,-9.08841e-06,1.73841e-05,0.0113118,-0.00181768,0.00347683,0,0,0,0,0.0567018,0.520431,-0.986153,32.5,1,13331,1383174
53,2,-0.670051,-0.0730876,9.79112,0.0735821,-0.594858,0.989519,-0.00670147,-0.000739435,0.0979111,1,4.24309e-05,-5.08502e-06,1.8677e-05,0.00848619,-0.001017,0.0037354,0,0,0,0,0.0567303,0.519446,-0.98567,32.5,1,13332,1383274
54,1,-0.670051,-0.0730876,9.79112,0.0735821,-0.594858,0.989519,-0.00670147,-0.000739435,0.0979111,1,4.24309e-05,-5.08502e-06,1.8677e-05,0.00848619,-0.001017,0.0037354,0,0,0,0,0.0567303,0.519446,-0.98567,32.5,1,13332,1383274
54,2,-0.686222,-0.0807126,9.79151,0.0589871,-0.602893,0.992593,-0.00686317,-0.000817021,0.0979149,1,4.82854e-05,-5.09641e-06,3.20019e-05,0.00965709,-0.00101928,0.00640038,0,0,0,0,0.0552708,0.520434,-0.985642,32.5,1,13333,1383374
54,3,-0.686222,-0.0807126,9.79151,0.0589871,-0.602893,0.992593,-0.00686317,-0.000817021,0.0979149,1,4.82854e-05,-5.09641e-06,3.20019e-05,0.00965709,-0.00101928,0.00640038,0,0,0,0,0.0552708,0.520434,-0.985642,32.5,1,13333,1383374
54,4,-0.689807,-0.0759119,9.778,0.0521075,-0.593822,0.971974,-0.00689838,-0.000767678,0.0977799,1,4.19542e-05,-1.79949e-06,2.57343e-05,0.00839085,-0.000359898,0.00514686,0,0,0,0,0.0562539,0.521374,-0.98411,32.5,1,13334,1383474
54,5,-0.689807,-0.0759119,9.778,0.0521075,-0.593822,0.971974,-0.00689838,-0.000767678,0.0977799,1,4.19542e-05,-1.79949e-06,2.57343e-05,0.00839085,-0.000359898,0.00514686,0,0,0,0,0.0562539,0.521374,-0.98411,32.5,1,13334,1383474
54,6,-0.683265,-0.0751205,9.78373,0.063477,-0.595996,0.980195,-0.00683453,-0.000761406,0.0978371,1,5.04795e-05,-9.80678e-06,2.36128e-05,0.0100959,-0.00196136,0.00472257,0,0,0,0,0.0567023,0.521876,-0.985111,32.5,1,13335,1383574
55,1,-0.683265,-0.0751205,9.78373,0.063477,-0.595996,0.980195,-0.00683453,-0.000761406,0.0978371,1,5.04795e-05,-9.80678e-06,2.36128e-05,0.0100959,-0.00196136,0.00472257,0,0,0,0,0.0567023,0.521876,-0.985111,32.5,1,13335,1383574
55,2,-0.680921,-0.0759193,9.7932,0.0651593,-0.599639,0.983532,-0.00681011,-0.000768853,0.0979319,1,4.83691e-05,-4.69233e-06,1.36796e-05,0.00967381,-0.000938466,0.00273593,0,0,0,0,0.0566572,0.522391,-0.986615,32.5,1,13336,1383674
56,1,-0.680921,-0.0759193,9.7932,0.0651593,-0.599639,0.983532,-0.00681011,-0.000768853,0.0979319,1,4.83691e-05,-4.69233e-06,1.36796e-05,0.00967381,-0.000938466,0.00273593,0,0,0,0,0.0566572,0.522391,-0.986615,32.5,1,13336,1383674
56,2,-0.681073,-0.0838868,9.80331,0.0640741,-0.610804,0.999558,-0.00681254,-0.000848549,0.0980329,1,4.841e-05,-9.37479e-06,1.38938e-05,0.00968201,-0.00187496,0.00277876,0,0,0,0,0.0547242,0.521449,-0.987637,32.5,1,13337,1383774
56,3,-0.681073,-0.0838868,9.80331,0.0640741,-0.610804,0.999558,-0.00681254,-0.000848549,0.0980329,1,4.841e-05,-9.37479e-06,1.38938e-05,0.00968201,-0.00187496,0.00277876,0,0,0,0,0.0547242,0.521449,-0.987637,32.5,1,13337,1383774
56,4,-0.684193,-0.0759205,9.78645,0.064296,-0.601489,0.981118,-0.00684452,-0.000768645,0.0978642,1,4.81253e-05,-1.32711e-05,1.51799e-06,0.00962505,-0.00265422,0.000303598,0,0,0,0,0.0552499,0.519485,-0.987178,32.5,1,13338,1383874
57,1,-0.684193,-0.0759205,9.78645,0.064296,-0.601489,0.981118,-0.00684452,-0.000768645,0.0978642,1,4.81253e-05,-1.32711e-05,1.51799e-06,0.00962505,-0.00265422,0.000303598,0,0,0,0,0.0552499,0.519485,-0.987178,32.5,1,13338,1383874
57,2,-0.68358,-0.0736292,9.78952,0.0605214,-0.597044,0.983324,-0.00683678,-0.000744358,0.097895,1,3.99352e-05,-5.16516e-06,1.81085e-05,0.00798703,-0.00103303,0.00362171,0,0,0,0,0.0567222,0.519934,-0.985659,32.5,1,13339,1383974
59,1,-0.68358,-0.0736292,9.78952,0.0605214,-0.597044,0.983324,-0.00683678,-0.000744358,0.097895,1,3.99352e-05,-5.16516e-06,1.81085e-05,0.00798703,-0.00103303,0.00362171,0,0,0,0,0.0567222,0.519934,-0.985659,32.5,1,13339,1383974
59,2,-0.684205,-0.0796393,9.78777,0.0613877,-0.607402,0.983734,-0.00684463,-0.000806375,0.0978774,1,4.8749e-05,-1.34148e-05,3.20954e-05,0.0097498,-0.00268296,0.00641908,0,0,0,0,0.0572242,0.520878,-0.984125,32.5,1,13340,1384074
60,1,-0.684205,-0.0796393,9.78777,0.0613877,-0.607402,0.983734,-0.00684463,-0.000806375,0.0978774,1,4.8749e-05,-1.34148e-05,3.20954e-05,0.0097498,-0.00268296,0.00641908,0,0,0,0,0.0572242,0.520878,-0.984125,32.5,1,13340,1384074
60,2,-0.679098,-0.0805988,9.78875,0.0645784,-0.607856,0.984572,-0.00679323,-0.000816541,0.0978872,1,5.28115e-05,-1.16268e-05,1.57451e-05,0.0105623,-0.00232535,0.00314901,0,0,0,0,0.0577177,0.520865,-0.983623,32.5,1,13341,1384174
60,3,-0.679098,-0.0805988,9.78875,0.0645784,-0.607856,0.984572,-0.00679323,-0.000816541,0.0978872,1,5.28115e-05,-1.16268e-05,1.57451e-05,0.0105623,-0.00232535,0.00314901,0,0,0,0,0.0577177,0.520865,-0.983623,32.5,1,13341,1384174
60,4,-0.675476,-0.0775264,9.78535,0.0698138,-0.602737,0.979996,-0.00675518,-0.000784295,0.0978534,1,4.41111e-05,-2.36557e-06,2.94876e-05,0.00882223,-0.000473114,0.00589751,0,0,0,0,0.0581575,0.520409,-0.985655,32.5,1,13342,1384274
61,1,-0.675476,-0.0775264,9.78535,0.0698138,-0.602737,0.979996,-0.00675518,-0.000784295,0.0978534,1,4.41111e-05,-2.36557e-06,2.94876e-05,0.00882223,-0.000473114,0.00589751,0,0,0,0,0.0581575,0.520409,-0.985655,32.5,1,13342,1384274
61,2,-0.678718,-0.0776566,9.78505,0.06712,-0.609131,0.977395,-0.00679021,-0.000783513,0.0978502,1,3.43658e-05,-1.56203e-05,1.63483e-05,0.00687316,-0.00312405,0.00326967,0,0,0,0,0.0580835,0.520464,-0.988684,32.5,1,13343,1384374
61,3,-0.678718,-0.0776566,9.78505,0.06712,-0.609131,0.977395,-0.00679021,-0.000783513,0.0978502,1,3.43658e-05,-1.56203e-05,1.63483e-05,0.00687316,-0.00312405,0.00326967,0,0,0,0,0.0580835,0.520464,-0.988684,32.5,1,13343,1384374
61,4,-0.681133,-0.0701743,9.79225,0.0627517,-0.59845,0.98918,-0.00681398,-0.000709469,0.0979223,1,3.87244e-05,-1.36233e-05,1.04624e-05,0.00774489,-0.00272467,0.00209248,0,0,0,0,0.0562245,0.519468,-0.986678,32.5,1,13344,1384474
61,5,-0.681133,-0.0701743,9.79225,0.0627517,-0.59845,0.98918,-0.00681398,-0.000709469,0.0979223,1,3.87244e-05,-1.36233e-05,1.04624e-05,0.00774489,-0.00272467,0.00209248,0,0,0,0,0.0562245,0.519468,-0.986678,32.5,1,13344,1384474
61,6,-0.688348,-0.0774279,9.79359,0.0537347,-0.602796,0.989761,-0.00688365,-0.000781679,0.0979358,1,3.6342e-05,-1.00613e-06,2.0437e-05,0.00726841,-0.000201227,0.0040874,0,0,0,0,0.0567384,0.518958,-0.985681,32.5,1,13345,1384574
62,1,-0.688348,-0.0774279,9.79359,0.0537347,-0.602796,0.989761,-0.00688365,-0.000781679,0.0979358,1,3.6342e-05,-1.00613e-06,2.0437e-05,0.00726841,-0.000201227,0.0040874,0,0,0,0,0.0567384,0.518958,-0.985681,32.5,1,13345,1384574
62,2,-0.683605,-0.0753817,9.78645,0.0579862,-0.607682,0.987581,-0.0068373,-0.000761952,0.0978643,1,4.05871e-05,-6.52653e-06,1.40164e-05,0.00811742,-0.00130531,0.00280328,0,0,0,0,0.0581902,0.519904,-0.984657,32.5,1,13346,1384674
63,1,-0.683605,-0.0753817,9.78645,0.0579862,-0.607682,0.987581,-0.0068373,-0.000761952,0.0978643,1,4.05871e-05,-6.52653e-06,1.40164e-05,0.00811742,-0.00130531,0.00280328,0,0,0,0,0.0581902,0.519904,-0.984657,32.5,1,13346,1384674
63,2,-0.68941,-0.0730416,9.7882,0.0533217,-0.603555,0.986222,-0.00689506,-0.000736694,0.0978819,1,3.12067e-05,-5.04036e-06,1.2178e-05,0.00624135,-0.00100807,0.0024356,0,0,0,0,0.0571872,0.520905,-0.98564,32.5,1,13347,1384774
65,1,-0.68941,-0.0730416,9.7882,0.0533217,-0.603555,0.986222,-0.00689506,-0.000736694,0.0978819,1,3.12067e-05,-5.04036e-06,1.2178e-05,0.00624135,-0.00100807,0.0024356,0,0,0,0,0.0571872,0.520905,-0.98564,32.5,1,13347,1384774
65,2,-0.675012,-0.0748359,9.78165,0.0709012,-0.605052,0.97629,-0.00675303,-0.000756727,0.0978163,1,4.0762e-05,-1.50768e-05,2.91614e-05,0.0081524,-0.00301537,0.00583227,0,0,0,0,0.0576232,0.521416,-0.987146,32.5,1,13348,1384874
65,3,-0.675012,-0.0748359,9.78165,0.0709012,-0.605052,0.97629,-0.00675303,-0.000756727,0.0978163,1,4.0762e-05,-1.50768e-05,2.91614e-05,0.0081524,-0.00301537,0.00583227,0,0,0,0,0.0576232,0.521416,-0.987146,32.5,1,13348,1384874
65,4,-0.685583,-0.0787228,9.78338,0.055561,-0.612146,0.976716,-0.00685926,-0.000795467,0.0978335,1,4.04118e-05,-1.7712e-05,2.42424e-05,0.00808237,-0.0035424,0.00484848,0,0,0,0,0.0566771,0.520449,-0.987163,32.5,1,13349,1384974
65,5,-0.685583,-0.0787228,9.78338,0.055561,-0.612146,0.976716,-0.00685926,-0.000795467,0.0978335,1,4.04118e-05,-1.7712e-05,2.42424e-05,0.00808237,-0.0035424,0.00484848,0,0,0,0,0.0566771,0.520449,-0.987163,32.5,1,13349,1384974
65,6,-0.688865,-0.0746824,9.78887,0.0516252,-0.603398,0.982648,-0.00689259,-0.00075345,0.0978884,1,3.25626e-05,-2.02434e-05,1.81888e-05,0.00651252,-0.00404868,0.00363775,0,0,0,0,0.0557349,0.518514,-0.987707,32.5,1,13350,1385074
66,1,-0.688865,-0.0746824,9.78887,0.0516252,-0.603398,0.982648,-0.00689259,-0.00075345,0.0978884,1,3.25626e-05,-2.02434e-05,1.81888e-05,0.00651252,-0.00404868,0.00363775,0,0,0,0,0.0557349,0.518514,-0.987707,32.5,1,13350,1385074
66,2,-0.684949,-0.0707985,9.78582,0.0603351,-0.602433,0.97964,-0.00685051,-0.000716895,0.0978581,1,4.54914e-05,-5.21374e-06,4.3371e-07,0.00909827,-0.00104275,8.67419e-05,0,0,0,0,0.0572152,0.518475,-0.986199,32.5,1,13351,1385174
67,1,-0.684949,-0.0707985,9.78582,0.0603351,-0.602433,0.97964,-0.00685051,-0.000716895,0.0978581,1,4.54914e-05,-5.21374e-06,4.3371e-07,0.00909827,-0.00104275,8.67419e-05,0,0,0,0,0.0572152,0.518475,-0.986199,32.5,1,13351,1385174
67,2,-0.681933,-0.0727493,9.79425,0.060802,-0.604351,0.988564,-0.0068203,-0.00073905,0.0979424,1,5.77698e-05,-5.05361e-06,1.76564e-05,0.011554,-0.00101072,0.00353127,0,0,0,0,0.0572769,0.51843,-0.983675,32.5,1,13352,1385274
67,3,-0.681933,-0.0727493,9.79425,0.060802,-0.604351,0.988564,-0.0068203,-0.00073905,0.0979424,1,5.77698e-05,-5.05361e-06,1.76564e-05,0.011554,-0.00101072,0.00353127,0,0,0,0,0.0572769,0.51843,-0.983675,32.5,1,13352,1385274
67,4,-0.683392,-0.0774439,9.80102,0.0608713,-0.609482,0.996562,-0.00683536,-0.000782343,0.09801,1,3.86873e-05,-7.54166e-06,2.34187e-05,0.00773747,-0.00150833,0.00468375,0,0,0,0,0.0567635,0.520385,-0.983629,32.5,1,13353,1385374
68,1,-0.683392,-0.0774439,9.80102,0.0608713,-0.609482,0.996562,-0.00683536,-0.000782343,0.09801,1,3.86873e-05,-7.54166e-06,2.34187e-05,0.00773747,-0.00150833,0.00468375,0,0,0,0,0.0567635,0.520385,-0.983629,32.5,1,13353,1385374
68,2,-0.689541,-0.0722637,9.77769,0.0491145,-0.600514,0.971238,-0.0068957,-0.000733925,0.0977767,1,5.57731e-05,-1.71948e-06,2.76568e-05,0.0111546,-0.000343896,0.00553136,0,0,0,0,0.0562496,0.520895,-0.984626,32.5,1,13354,1385474
69,1,-0.689541,-0.0722637,9.77769,0.0491145,-0.600514,0.971238,-0.0068957,-0.000733925,0.0977767,1,5.57731e-05,-1.71948e-06,2.76568e-05,0.0111546,-0.000343896,0.00553136,0,0,0,0,0.0562496,0.520895,-0.984626,32.5,1,13354,1385474
69,2,-0.691605,-0.0871003,9.78776,0.0551498,-0.621798,0.983369,-0.00691957,-0.000882428,0.0978773,1,5.60392e-05,-1.82877e-05,3.28612e-05,0.0112078,-0.00365754,0.00657224,0,0,0,0,0.0542554,0.521444,-0.98713,32.5,1,13355,1385574
70,1,-0.691605,-0.0871003,9.78776,0.0551498,-0.621798,0.983369,-0.00691957,-0.000882428,0.0978773,1,5.60392e-05,-1.82877e-05,3.28612e-05,0.0112078,-0.00365754,0.00657224,0,0,0,0,0.0542554,0.521444,-0.98713,32.5,1,13355,1385574
70,2,-0.670203,-0.0938243,9.79162,0.0682265,-0.626561,0.982576,-0.00670213,-0.000948465,0.0979161,1,5.02467e-05,-7.87912e-07,2.84929e-05,0.0100493,-0.000157582,0.00569859,0,0,0,0,0.0552542,0.519964,-0.986662,32.5,1,13356,1385674
71,1,-0.670203,-0.0938243,9.79162,0.0682265,-0.626561,0.982576,-0.00670213,-0.000948465,0.0979161,1,5.02467e-05,-7.87912e-07,2.84929e-05,0.0100493,-0.000157582,0.00569859,0,0,0,0,0.0552542,0.519964,-0.986662,32.5,1,13356,1385674
71,2,-0.68594,-0.0773088,9.78916,0.053737,-0.614661,0.980453,-0.00686039,-0.000782286,0.0978914,1,4.51655e-05,-5.25057e-06,2.58795e-05,0.0090331,-0.00105011,0.00517591,0,0,0,0,0.0552784,0.5185,-0.986695,32.5,1,13357,1385774
72,1,-0.68594,-0.0773088,9.78916,0.053737,-0.614661,0.980453,-0.00686039,-0.000782286,0.0978914,1,4.51655e-05,-5.25057e-06,2.58795e-05,0.0090331,-0.00105011,0.00517591,0,0,0,0,0.0552784,0.5185,-0.986695,32.5,1,13357,1385774
72,2,-0.684404,-0.0886765,9.79821,0.0606403,-0.627223,0.995081,-0.00684502,-0.000895436,0.097982,1,4.33736e-05,-5.11481e-06,1.24739e-05,0.00867472,-0.00102296,0.00249478,0,0,0,0,0.0567588,0.518461,-0.985187,32.5,1,13358,1385874
104,1,-0.684404,-0.0886765,9.79821,0.0606403,-0.627223,0.995081,-0.00684502,-0.000895436,0.097982,1,4.33736e-05,-5.11481e-06,1.24739e-05,0.00867472,-0.00102296,0.00249478,0,0,0,0,0.0567588,0.518461,-0.985187,32.5,1,13358,1385874
104,2,-0.683387,-0.0690765,9.78819,0.059888,-0.605952,0.982903,-0.00683406,-0.000700049,0.0978818,1,4.72125e-05,-1.01327e-06,3.08286e-06,0.00944249,-0.000202654,0.000616572,0,0,0,0,0.0582192,0.520364,-0.983131,32.5,1,13359,1385974
107,1,-0.683387,-0.0690765,9.78819,0.059888,-0.605952,0.982903,-0.00683406,-0.000700049,0.0978818,1,4.72125e-05,-1.01327e-06,3.08286e-06,0.00944249,-0.000202654,0.000616572,0,0,0,0,0.0582192,0.520364,-0.983131,32.5,1,13359,1385974
107,2,-0.681526,-0.0774372,9.7915,0.0652486,-0.612656,0.985439,-0.0068165,-0.000786722,0.0979148,1,6.19124e-05,-6.46852e-06,1.64903e-05,0.0123825,-0.0012937,0.00329805,0,0,0,0,0.057228,0.519912,-0.984652,32.5,1,13360,1386074
109,1,-0.681526,-0.0774372,9.7915,0.0652486,-0.612656,0.985439,-0.0068165,-0.000786722,0.0979148,1,6.19124e-05,-6.46852e-06,1.64903e-05,0.0123825,-0.0012937,0.00329805,0,0,0,0,0.057228,0.519912,-0.984652,32.5,1,13360,1386074
109,2,-0.687279,-0.078566,9.78,0.0559673,-0.616794,0.975718,-0.00687526,-0.000794781,0.0977998,1,4.56274e-05,-1.27032e-05,1.4292e-05,0.00912548,-0.00254063,0.00285841,0,0,0,0,0.0542673,0.51999,-0.987667,32.5,1,13361,1386174
110,1,-0.687279,-0.078566,9.78,0.0559673,-0.616794,0.975718,-0.00687526,-0.000794781,0.0977998,1,4.56274e-05,-1.27032e-05,1.4292e-05,0.00912548,-0.00254063,0.00285841,0,0,0,0,0.0542673,0.51999,-0.987667,32.5,1,13361,1386174
110,2,-0.679472,-0.0754594,9.78778,0.065097,-0.6133,0.978647,-0.00679689,-0.000763145,0.0978775,1,4.24627e-05,-1.12149e-05,1.75761e-05,0.00849253,-0.00224298,0.00351522,0,0,0,0,0.054292,0.519972,-0.986657,32.5,1,13362,1386274
114,1,-0.679472,-0.0754594,9.78778,0.065097,-0.6133,0.978647,-0.00679689,-0.000763145,0.0978775,1,4.24627e-05,-1.12149e-05,1.75761e-05,0.00849253,-0.00224298,0.00351522,0,0,0,0,0.054292,0.519972,-0.986657,32.5,1,13362,1386274
114,2,-0.693995,-0.0861144,9.78744,0.0457193,-0.625793,0.982415,-0.00694214,-0.00087237,0.0978742,1,5.58309e-05,-1.13699e-05,2.13887e-05,0.0111662,-0.00227398,0.00427775,0,0,0,0,0.0562126,0.520922,-0.98614,32.5,1,13363,1386374
115,1,-0.693995,-0.0861144,9.78744,0.0457193,-0.625793,0.982415,-0.00694214,-0.00087237,0.0978742,1,5.58309e-05,-1.13699e-05,2.13887e-05,0.0111662,-0.00227398,0.00427775,0,0,0,0,0.0562126,0.520922,-0.98614,32.5,1,13363,1386374
115,2,-0.685301,-0.0830746,9.79419,0.0616382,-0.62281,0.987742,-0.00685404,-0.000841016,0.0979417,1,5.09579e-05,-5.43192e-06,2.10354e-05,0.0101916,-0.00108638,0.00420708,0,0,0,0,0.057664,0.520423,-0.986158,32.5,1,13364,1386474
116,1,-0.685301,-0.0830746,9.79419,0.0616382,-0.62281,0.987742,-0.00685404,-0.000841016,0.0979417,1,5.09579e-05,-5.43192e-06,2.10354e-05,0.0101916,-0.00108638,0.00420708,0,0,0,0,0.057664,0.520423,-0.986158,32.5,1,13364,1386474
116,2,-0.677777,-0.0745697,9.78607,0.0621207,-0.615766,0.978252,-0.0067796,-0.000754557,0.0978605,1,4.42191e-05,-9.4832e-06,1.51189e-05,0.00884382,-0.00189664,0.00302378,0,0,0,0,0.0581779,0.519913,-0.985161,32.5,1,13365,1386574
117,1,-0.677777,-0.0745697,9.78607,0.0621207,-0.615766,0.978252,-0.0067796,-0.000754557,0.0978605,1,4.42191e-05,-9.4832e-06,1.51189e-05,0.00884382,-0.00189664,0.00302378,0,0,0,0,0.0581779,0.519913,-0.985161,32.5,1,13365,1386574
117,2,-0.674995,-0.070003,9.78746,0.0666269,-0.611706,0.977576,-0.00675397,-0.000708298,0.0978742,1,4.09224e-05,-2.06694e-05,1.90662e-05,0.00818448,-0.00413388,0.00381324,0,0,0,0,0.0590951,0.52042,-0.98667,32.5,1,13366,1386674
117,3,-0.674995,-0.070003,9.78746,0.0666269,-0.611706,0.977576,-0.00675397,-0.000708298,0.0978742,1,4.09224e-05,-2.06694e-05,1.90662e-05,0.00818448,-0.00413388,0.00381324,0,0,0,0,0.0590951,0.52042,-0.98667,32.5,1,13366,1386674
117,4,-0.685601,-0.0845004,9.79248,0.0547538,-0.62447,0.986353,-0.00685523,-0.000853532,0.0979248,1,4.21461e-05,3.79783e-06,1.99861e-05,0.00842923,0.000759565,0.00399721,0,0,0,0,0.0576066,0.520946,-0.988166,32.5,1,13367,1386774
117,5,-0.685601,-0.0845004,9.79248,0.0547538,-0.62447,0.986353,-0.00685523,-0.000853532,0.0979248,1,4.21461e-05,3.79783e-06,1.99861e-05,0.00842923,0.000759565,0.00399721,0,0,0,0,0.0576066,0.520946,-0.988166,32.5,1,13367,1386774
117,6,-0.688435,-0.0676308,9.78078,0.0520275,-0.61085,0.976043,-0.00688653,-0.000685244,0.0978076,1,4.3366e-05,-1.13565e-05,3.28535e-05,0.0086732,-0.00227129,0.00657071,0,0,0,0,0.0576802,0.519447,-0.98618,32.5,1,13368,1386874
117,7,-0.688435,-0.0676308,9.78078,0.0520275,-0.61085,0.976043,-0.00688653,-0.000685244,0.0978076,1,4.3366e-05,-1.13565e-05,3.28535e-05,0.0086732,-0.00227129,0.00657071,0,0,0,0,0.0576802,0.519447,-0.98618,32.5,1,13368,1386874
117,8,-0.681903,-0.0782102,9.7803,0.0588797,-0.620965,0.977926,-0.0068207,-0.000791289,0.0978028,1,4.52585e-05,-8.72845e-06,2.44547e-05,0.0090517,-0.00174569,0.00489094,0,0,0,0,0.0567668,0.517974,-0.985198,32.5,1,13369,1386974
118,1,-0.681903,-0.0782102,9.7803,0.0588797,-0.620965,0.977926,-0.0068207,-0.000791289,0.0978028,1,4.52585e-05,-8.72845e-06,2.44547e-05,0.0090517,-0.00174569,0.00489094,0,0,0,0,0.0567668,0.517974,-0.985198,32.5,1,13369,1386974
118,2,-0.683549,-0.0822689,9.79249,0.0610227,-0.620543,0.986892,-0.00683512,-0.000829368,0.0979249,1,3.20692e-05,1.6671e-06,2.91447e-05,0.00641384,0.00033342,0.00582895,0,0,0,0,0.0558051,0.519427,-0.984151,32.5,1,13370,1387074
118,3,-0.683549,-0.0822689,9.79249,0.0610227,-0.620543,0.986892,-0.00683512,-0.000829368,0.0979249,1,3.20692e-05,1.6671e-06,2.91447e-05,0.00641384,0.00033342,0.00582895,0,0,0,0,0.0558051,0.519427,-0.984151,32.5,1,13370,1387074
118,4,-0.6822,-0.0694092,9.78649,0.054741,-0.608272,0.98095,-0.00682388,-0.000703105,0.0978647,1,4.51227e-05,-9.72094e-06,1.3327e-05,0.00902454,-0.00194419,0.0026654,0,0,0,0,0.0576849,0.521371,-0.984622,32.5,1,13371,1387174
119,1,-0.6822,-0.0694092,9.78649,0.054741,-0.608272,0.98095,-0.00682388,-0.000703105,0.0978647,1,4.51227e-05,-9.72094e-06,1.3327e-05,0.00902454,-0.00194419,0.0026654,0,0,0,0,0.0576849,0.521371,-0.984622,32.5,1,13371,1387174
119,2,-0.682937,-0.0707016,9.78919,0.0606839,-0.612387,0.983203,-0.00683159,-0.000717151,0.0978917,1,5.11742e-05,-1.14311e-05,8.47719e-06,0.0102348,-0.00228623,0.00169544,0,0,0,0,0.0590789,0.521395,-0.986648,32.5,1,13372,1387274
119,3,-0.682937,-0.0707016,9.78919,0.0606839,-0.612387,0.983203,-0.00683159,-0.000717151,0.0978917,1,5.11742e-05,-1.14311e-05,8.47719e-06,0.0102348,-0.00228623,0.00169544,0,0,0,0,0.0590789,0.521395,-0.986648,32.5,1,13372,1387274
119,4,-0.685805,-0.0736481,9.78717,0.0563594,-0.616578,0.980441,-0.00686165,-0.000749558,0.0978713,1,6.50678e-05,-1.85988e-05,2.48157e-05,0.0130136,-0.00371975,0.00496314,0,0,0,0,0.0566406,0.521921,-0.987635,32.5,1,13373,1387374
120,1,-0.685805,-0.0736481,9.78717,0.0563594,-0.616578,0.980441,-0.00686165,-0.000749558,0.0978713,1,6.50678e-05,-1.85988e-05,2.48157e-05,0.0130136,-0.00371975,0.00496314,0,0,0,0,0.0566406,0.521921,-0.987635,32.5,1,13373,1387374
120,2,-0.68692,-0.0722215,9.78888,0.0529613,-0.615676,0.985393,-0.00687146,-0.000728866,0.0978886,1,3.23338e-05,-1.17193e-05,2.33129e-05,0.00646676,-0.00234386,0.00466257,0,0,0,0,0.0552623,0.519476,-0.986673,32.5,1,13374,1387474
120,3,-0.68692,-0.0722215,9.78888,0.0529613,-0.615676,0.985393,-0.00687146,-0.000728866,0.0978886,1,3.23338e-05,-1.17193e-05,2.33129e-05,0.00646676,-0.00234386,0.00466257,0,0,0,0,0.0552623,0.519476,-0.986673,32.5,1,13374,1387474
120,4,-0.678972,-0.0833121,9.78737,0.0634587,-0.626814,0.981581,-0.00679331,-0.000843287,0.0978734,1,5.03101e-05,-1.8537e-05,2.33874e-05,0.010062,-0.0037074,0.00467747,0,0,0,0,0.0557761,0.518966,-0.985676,32.5,1,13375,1387574
121,1,-0.678972,-0.0833121,9.78737,0.0634587,-0.626814,0.981581,-0.00679331,-0.000843287,0.0978734,1,5.03101e-05,-1.8537e-05,2.33874e-05,0.010062,-0.0037074,0.00467747,0,0,0,0,0.0557761,0.518966,-0.985676,32.5,1,13375,1387574
121,2,-0.683925,-0.0819009,9.77994,0.0587509,-0.623236,0.974268,-0.00684116,-0.000829463,0.0977992,1,5.23309e-05,-9.92238e-06,1.59258e-05,0.0104662,-0.00198448,0.00318516,0,0,0,0,0.0572119,0.520887,-0.98463,32.5,1,13376,1387674
123,1,-0.683925,-0.0819009,9.77994,0.0587509,-0.623236,0.974268,-0.00684116,-0.000829463,0.0977992,1,5.23309e-05,-9.92238e-06,1.59258e-05,0.0104662,-0.00198448,0.00318516,0,0,0,0,0.0572119,0.520887,-0.98463,32.5,1,13376,1387674
123,2,-0.681878,-0.0747906,9.78678,0.0604718,-0.624377,0.978693,-0.00682,-0.000759368,0.0978676,1,5.77103e-05,-6.32224e-06,1.21703e-05,0.0115421,-0.00126445,0.00243407,0,0,0,0,0.0567307,0.520891,-0.984628,32.5,1,13377,1387774
123,3,-0.681878,-0.0747906,9.78678,0.0604718,-0.624377,0.978693,-0.00682,-0.000759368,0.0978676,1,5.77103e-05,-6.32224e-06,1.21703e-05,0.0115421,-0.00126445,0.00243407,0,0,0,0,0.0567307,0.520891,-0.984628,32.5,1,13377,1387774
123,4,-0.686117,-0.0717084,9.77902,0.0516041,-0.61878,0.971736,-0.00686173,-0.000726607,0.0977901,1,4.7652e-05,-3.00045e-06,1.47727e-05,0.00953041,-0.00060009,0.00295454,0,0,0,0,0.0567103,0.521388,-0.985122,32.5,1,13378,1387874
124,1,-0.686117,-0.0717084,9.77902,0.0516041,-0.61878,0.971736,-0.00686173,-0.000726607,0.0977901,1,4.7652e-05,-3.00045e-06,1.47727e-05,0.00953041,-0.00060009,0.00295454,0,0,0,0,0.0567103,0.521388,-0.985122,32.5,1,13378,1387874
124,2,-0.680186,-0.0772227,9.78336,0.0633724,-0.622909,0.976468,-0.00680308,-0.000779852,0.0978334,1,3.72175e-05,-6.42973e-06,2.52314e-05,0.00744351,-0.00128595,0.00504628,0,0,0,0,0.0566529,0.521912,-0.98713,32.5,1,13379,1387974
128,1,-0.680186,-0.0772227,9.78336,0.0633724,-0.622909,0.976468,-0.00680308,-0.000779852,0.0978334,1,3.72175e-05,-6.42973e-06,2.52314e-05,0.00744351,-0.00128595,0.00504628,0,0,0,0,0.0566529,0.521912,-0.98713,32.5,1,13379,1387974
128,2,-0.676836,-0.0825415,9.78362,0.0666672,-0.631011,0.978557,-0.00676783,-0.000834907,0.0978362,1,4.71398e-05,2.54283e-06,1.97832e-05,0.00942797,0.000508567,0.00395663,0,0,0,0,0.0571991,0.519451,-0.986177,32.5,1,13380,1388074
128,3,-0.676836,-0.0825415,9.78362,0.0666672,-0.631011,0.978557,-0.00676783,-0.000834907,0.0978362,1,4.71398e-05,2.54283e-06,1.97832e-05,0.00942797,0.000508567,0.00395663,0,0,0,0,0.0571991,0.519451,-0.986177,32.5,1,13380,1388074
128,4,-0.673353,-0.0772799,9.78975,0.0690726,-0.627864,0.98423,-0.00673411,-0.000781197,0.0978974,1,4.20903e-05,-3.03407e-06,1.16563e-05,0.00841805,-0.000606815,0.00233126,0,0,0,0,0.0557681,0.519454,-0.985666,32.5,1,13381,1388174
128,5,-0.673353,-0.0772799,9.78975,0.0690726,-0.627864,0.98423,-0.00673411,-0.000781197,0.0978974,1,4.20903e-05,-3.03407e-06,1.16563e-05,0.00841805,-0.000606815,0.00233126,0,0,0,0,0.0557681,0.519454,-0.985666,32.5,1,13381,1388174
128,6,-0.682269,-0.0793945,9.78843,0.0556168,-0.63157,0.982129,-0.00682237,-0.000801309,0.0978843,1,3.53791e-05,1.35955e-06,3.20766e-05,0.00707582,0.000271911,0.00641533,0,0,0,0,0.0562658,0.51992,-0.984647,32.5,1,13382,1388274
130,1,-0.682269,-0.0793945,9.78843,0.0556168,-0.63157,0.982129,-0.00682237,-0.000801309,0.0978843,1,3.53791e-05,1.35955e-06,3.20766e-05,0.00707582,0.000271911,0.00641533,0,0,0,0,0.0562658,0.51992,-0.984647,32.5,1,13382,1388274
130,2,-0.681773,-0.0765131,9.78948,0.0585252,-0.62339,0.981083,-0.00681964,-0.000775336,0.0978946,1,5.02171e-05,-9.99294e-06,2.73806e-05,0.0100434,-0.00199859,0.00547612,0,0,0,0,0.0567099,0.519943,-0.986164,32.5,1,13383,1388374
130,3,-0.681773,-0.0765131,9.78948,0.0585252,-0.62339,0.981083,-0.00681964,-0.000775336,0.0978946,1,5.02171e-05,-9.99294e-06,2.73806e-05,0.0100434,-0.00199859,0.00547612,0,0,0,0,0.0567099,0.519943,-0.986164,32.5,1,13383,1388374
130,4,-0.690276,-0.0765086,9.80039,0.0511769,-0.624821,0.992284,-0.00690543,-0.000772129,0.0980036,1,3.44905e-05,-1.37798e-05,2.04502e-05,0.0068981,-0.00275596,0.00409003,0,0,0,0,0.0581162,0.519958,-0.987686,32.5,1,13384,1388474
130,5,-0.690276,-0.0765086,9.80039,0.0511769,-0.624821,0.992284,-0.00690543,-0.000772129,0.0980036,1,3.44905e-05,-1.37798e-05,2.04502e-05,0.0068981,-0.00275596,0.00409003,0,0,0,0,0.0581162,0.519958,-0.987686,32.5,1,13384,1388474
130,6,-0.690932,-0.0710772,9.78722,0.0481076,-0.623977,0.982175,-0.00691278,-0.000722117,0.0978719,1,5.57156e-05,-1.78889e-05,3.17968e-05,0.0111431,-0.00357778,0.00635936,0,0,0,0,0.0581124,0.520924,-0.987159,32.5,1,13385,1388574
131,1,-0.690932,-0.0710772,9.78722,0.0481076,-0.623977,0.982175,-0.00691278,-0.000722117,0.0978719,1,5.57156e-05,-1.78889e-05,3.17968e-05,0.0111431,-0.00357778,0.00635936,0,0,0,0,0.0581124,0.520924,-0.987159,32.5,1,13385,1388574
131,2,-0.683529,-0.0792478,9.78506,0.0568353,-0.632125,0.979145,-0.00683802,-0.000803254,0.0978503,1,5.40018e-05,-1.4104e-05,1.51471e-05,0.0108004,-0.00282079,0.00302942,0,0,0,0,0.055723,0.519969,-0.987169,32.5,1,13386,1388674
131,3,-0.683529,-0.0792478,9.78506,0.0568353,-0.632125,0.979145,-0.00683802,-0.000803254,0.0978503,1,5.40018e-05,-1.4104e-05,1.51471e-05,0.0108004,-0.00282079,0.00302942,0,0,0,0,0.055723,0.519969,-0.987169,32.5,1,13386,1388674
131,4,-0.686158,-0.0867828,9.78637,0.0557478,-0.64114,0.978606,-0.00686402,-0.000877461,0.0978635,1,4.77433e-05,-1.26323e-05,2.09958e-05,0.00954867,-0.00252647,0.00419916,0,0,0,0,0.0557396,0.520438,-0.986149,32.5,1,13387,1388774
132,1,-0.686158,-0.0867828,9.78637,0.0557478,-0.64114,0.978606,-0.00686402,-0.000877461,0.0978635,1,4.77433e-05,-1.26323e-05,2.09958e-05,0.00954867,-0.00252647,0.00419916,0,0,0,0,0.0557396,0.520438,-0.986149,32.5,1,13387,1388774
132,2,-0.684128,-0.0735784,9.79258,0.0549897,-0.624982,0.987207,-0.00684481,-0.000744383,0.0979255,1,4.24031e-05,-1.8174e-05,2.15359e-05,0.00848061,-0.00363479,0.00430717,0,0,0,0,0.0567265,0.520412,-0.985144,32.5,1,13388,1388874
132,3,-0.684128,-0.0735784,9.79258,0.0549897,-0.624982,0.987207,-0.00684481,-0.000744383,0.0979255,1,4.24031e-05,-1.8174e-05,2.15359e-05,0.00848061,-0.00363479,0.00430717,0,0,0,0,0.0567265,0.520412,-0.985144,32.5,1,13388,1388874
132,4,-0.681339,-0.0680679,9.78276,0.0615139,-0.620666,0.976392,-0.00681212,-0.000688129,0.0978276,1,3.68153e-05,6.35363e-06,1.81158e-05,0.00736306,0.00127073,0.00362316,0,0,0,0,0.0561922,0.521419,-0.986634,32.5,1,13389,1388974
133,1,-0.681339,-0.0680679,9.78276,0.0615139,-0.620666,0.976392,-0.00681212,-0.000688129,0.0978276,1,3.68153e-05,6.35363e-06,1.81158e-05,0.00736306,0.00127073,0.00362316,0,0,0,0,0.0561922,0.521419,-0.986634,32.5,1,13389,1388974
133,2,-0.674744,-0.0692756,9.7878,0.0644803,-0.623713,0.984023,-0.00675024,-0.00070315,0.0978777,1,5.17163e-05,-1.44652e-05,1.9977e-05,0.0103433,-0.00289304,0.0039954,0,0,0,0,0.0571383,0.522387,-0.986617,32.5,1,13390,1389074
133,3,-0.674744,-0.0692756,9.7878,0.0644803,-0.623713,0.984023,-0.00675024,-0.00070315,0.0978777,1,5.17163e-05,-1.44652e-05,1.9977e-05,0.0103433,-0.00289304,0.0039954,0,0,0,0,0.0571383,0.522387,-0.986617,32.5,1,13390,1389074
133,4,-0.691239,-0.0890143,9.7952,0.0492806,-0.638333,0.984859,-0.00691417,-0.00090019,0.0979518,1,4.94886e-05,-9.34493e-06,2.5509e-05,0.00989771,-0.00186899,0.0051018,0,0,0,0,0.0552138,0.522403,-0.986608,32.5,1,13391,1389174
134,1,-0.691239,-0.0890143,9.7952,0.0492806,-0.638333,0.984859,-0.00691417,-0.00090019,0.0979518,1,4.94886e-05,-9.34493e-06,2.5509e-05,0.00989771,-0.00186899,0.0051018,0,0,0,0,0.0552138,0.522403,-0.986608,32.5,1,13391,1389174
134,2,-0.683468,-0.0762971,9.79018,0.0535583,-0.628655,0.981039,-0.00683698,-0.000770833,0.0979015,1,3.97432e-05,-1.18242e-05,5.88578e-06,0.00794864,-0.00236484,0.00117716,0,0,0,0,0.0552542,0.519964,-0.986662,32.5,1,13392,1389274
134,3,-0.683468,-0.0762971,9.79018,0.0535583,-0.628655,0.981039,-0.00683698,-0.000770833,0.0979015,1,3.97432e-05,-1.18242e-05,5.88578e-06,0.00794864,-0.00236484,0.00117716,0,0,0,0,0.0552542,0.519964,-0.986662,32.5,1,13392,1389274
134,4,-0.667731,-0.0700388,9.79556,0.0729873,-0.622207,0.98645,-0.00668268,-0.000708239,0.0979551,1,3.86573e-05,-2.75728e-05,2.0817e-05,0.00773145,-0.00551456,0.0041634,0,0,0,0,0.0557557,0.519463,-0.98617,32.5,1,13393,1389374
135,1,-0.667731,-0.0700388,9.79556,0.0729873,-0.622207,0.98645,-0.00668268,-0.000708239,0.0979551,1,3.86573e-05,-2.75728e-05,2.0817e-05,0.00773145,-0.00551456,0.0041634,0,0,0,0,0.0557557,0.519463,-0.98617,32.5,1,13393,1389374
135,2,-0.688582,-0.0831945,9.79252,0.0541515,-0.63889,0.985823,-0.00688895,-0.000840561,0.0979249,1,4.31387e-05,-1.61082e-05,1.21485e-05,0.00862775,-0.00322164,0.0024297,0,0,0,0,0.056755,0.519428,-0.984661,32.5,1,13394,1389474
135,3,-0.688582,-0.0831945,9.79252,0.0541515,-0.63889,0.985823,-0.00688895,-0.000840561,0.0979249,1,4.31387e-05,-1.61082e-05,1.21485e-05,0.00862775,-0.00322164,0.0024297,0,0,0,0,0.056755,0.519428,-0.984661,32.5,1,13394,1389474
135,4,-0.681014,-0.0690441,9.7858,0.0553356,-0.627799,0.977183,-0.00681135,-0.000700286,0.0978578,1,4.91197e-05,-6.31226e-06,1.70175e-05,0.00982395,-0.00126245,0.0034035,0,0,0,0,0.0562862,0.519423,-0.984154,32.5,1,13395,1389574
135,5,-0.681014,-0.0690441,9.7858,0.0553356,-0.627799,0.977183,-0.00681135,-0.000700286,0.0978578,1,4.91197e-05,-6.31226e-06,1.70175e-05,0.00982395,-0.00126245,0.0034035,0,0,0,0,0.0562862,0.519423,-0.984154,32.5,1,13395,1389574
135,6,-0.682204,-0.0705628,9.79903,0.059866,-0.625953,0.993099,-0.00682322,-0.00071313,0.0979901,1,3.6925e-05,-6.1691e-06,1.942e-05,0.00738501,-0.00123382,0.003884,0,0,0,0,0.0543779,0.518463,-0.984166,32.5,1,13396,1389674
136,1,-0.682204,-0.0705628,9.79903,0.059866,-0.625953,0.993099,-0.00682322,-0.00071313,0.0979901,1,3.6925e-05,-6.1691e-06,1.942e-05,0.00738501,-0.00123382,0.003884,0,0,0,0,0.0543779,0.518463,-0.984166,32.5,1,13396,1389674
136,2,-0.687767,-0.0711354,9.78243,0.0475182,-0.62874,0.976502,-0.00687854,-0.000719698,0.0978242,1,4.12725e-05,-4.59903e-06,1.95951e-05,0.00825449,-0.000919807,0.00391901,0,0,0,0,0.0548466,0.518468,-0.984673,32.5,1,13397,1389774
137,1,-0.687767,-0.0711354,9.78243,0.0475182,-0.62874,0.976502,-0.00687854,-0.000719698,0.0978242,1,4.12725e-05,-4.59903e-06,1.95951e-05,0.00825449,-0.000919807,0.00391901,0,0,0,0,0.0548466,0.518468,-0.984673,32.5,1,13397,1389774
137,2,-0.681616,-0.0778235,9.79047,0.0585066,-0.629327,0.983535,-0.006816,-0.000788682,0.0979047,1,5.29755e-05,7.82461e-07,5.36093e-06,0.0105951,0.000156492,0.00107219,0,0,0,0,0.056262,0.520886,-0.984121,32.5,1,13398,1389874
138,1,-0.681616,-0.0778235,9.79047,0.0585066,-0.629327,0.983535,-0.006816,-0.000788682,0.0979047,1,5.29755e-05,7.82461e-07,5.36093e-06,0.0105951,0.000156492,0.00107219,0,0,0,0,0.056262,0.520886,-0.984121,32.5,1,13398,1389874
138,2,-0.670266,-0.0760964,9.79178,0.0688548,-0.630988,0.981518,-0.00670444,-0.000771103,0.0979176,1,4.90099e-05,-9.43801e-06,4.0358e-05,0.00980197,-0.0018876,0.00807159,0,0,0,0,0.0562288,0.519947,-0.986162,32.5,1,13399,1389974
138,3,-0.670266,-0.0760964,9.79178,0.0688548,-0.630988,0.981518,-0.00670444,-0.000771103,0.0979176,1,4.90099e-05,-9.43801e-06,4.0358e-05,0.00980197,-0.0018876,0.00807159,0,0,0,0,0.0562288,0.519947,-0.986162,32.5,1,13399,1389974
138,4,-0.686679,-0.0808078,9.78913,0.0552926,-0.637811,0.98232,-0.00686703,-0.000815436,0.0978912,1,3.66065e-05,-1.32422e-06,1.3888e-05,0.0073213,-0.000264844,0.0027776,0,0,0,0,0.0567588,0.518461,-0.985187,32.5,1,13400,1390074
139,1,-0.686679,-0.0808078,9.78913,0.0552926,-0.637811,0.98232,-0.00686703,-0.000815436,0.0978912,1,3.66065e-05,-1.32422e-06,1.3888e-05,0.0073213,-0.000264844,0.0027776,0,0,0,0,0.0567588,0.518461,-0.985187,32.5,1,13400,1390074
139,2,-0.680317,-0.0661276,9.78107,0.061136,-0.622622,0.971654,-0.00680386,-0.000671209,0.0978106,1,4.9213e-05,-3.7029e-06,2.24914e-05,0.00984259,-0.00074058,0.00449828,0,0,0,0,0.0567716,0.519898,-0.98364,32.5,1,13401,1390174
139,3,-0.680317,-0.0661276,9.78107,0.061136,-0.622622,0.971654,-0.00680386,-0.000671209,0.0978106,1,4.9213e-05,-3.7029e-06,2.24914e-05,0.00984259,-0.00074058,0.00449828,0,0,0,0,0.0567716,0.519898,-0.98364,32.5,1,13401,1390174
139,4,-0.677088,-0.0792421,9.79383,0.0627426,-0.636177,0.98707,-0.00677161,-0.000803421,0.0979382,1,5.47878e-05,-3.89288e-06,1.98689e-05,0.0109576,-0.000778576,0.00397378,0,0,0,0,0.0571829,0.520427,-0.986156,32.5,1,13402,1390274
140,1,-0.677088,-0.0792421,9.79383,0.0627426,-0.636177,0.98707,-0.00677161,-0.000803421,0.0979382,1,5.47878e-05,-3.89288e-06,1.98689e-05,0.0109576,-0.000778576,0.00397378,0,0,0,0,0.0571829,0.520427,-0.986156,32.5,1,13402,1390274
140,2,-0.677035,-0.0788472,9.78028,0.061066,-0.635729,0.971015,-0.00677259,-0.000797916,0.0978025,1,4.69574e-05,-1.16135e-05,1.90974e-05,0.00939148,-0.0023227,0.00381947,0,0,0,0,0.0562207,0.520434,-0.986151,32.5,1,13403,1390374
140,3,-0.677035,-0.0788472,9.78028,0.061066,-0.635729,0.971015,-0.00677259,-0.000797916,0.0978025,1,4.69574e-05,-1.16135e-05,1.90974e-05,0.00939148,-0.0023227,0.00381947,0,0,0,0,0.0562207,0.520434,-0.986151,32.5,1,13403,1390374
140,4,-0.674813,-0.0677107,9.78544,0.0697609,-0.629385,0.97126,-0.00674832,-0.000682899,0.0978543,1,2.88618e-05,-1.03377e-06,1.06337e-05,0.00577236,-0.000206754,0.00212673,0,0,0,0,0.0562292,0.521392,-0.98512,32.5,1,13404,1390474
140,5,-0.674813,-0.0677107,9.78544,0.0697609,-0.629385,0.97126,-0.00674832,-0.000682899,0.0978543,1,2.88618e-05,-1.03377e-06,1.06337e-05,0.00577236,-0.000206754,0.00212673,0,0,0,0,0.0562292,0.521392,-0.98512,32.5,1,13404,1390474
140,6,-0.689033,-0.0774195,9.78816,0.0501856,-0.635536,0.977827,-0.00689226,-0.000781704,0.0978814,1,3.73143e-05,-9.95594e-06,1.4812e-05,0.00746285,-0.00199119,0.00296239,0,0,0,0,0.0557481,0.521396,-0.985117,32.5,1,13405,1390574
140,7,-0.689033,-0.0774195,9.78816,0.0501856,-0.635536,0.977827,-0.00689226,-0.000781704,0.0978814,1,3.73143e-05,-9.95594e-06,1.4812e-05,0.00746285,-0.00199119,0.00296239,0,0,0,0,0.0557481,0.521396,-0.985117,32.5,1,13405,1390574
140,8,-0.683315,-0.0758153,9.78576,0.0601457,-0.634452,0.977479,-0.0068324,-0.000766977,0.0978576,1,4.43272e-05,3.74787e-06,1.08795e-05,0.00886545,0.000749575,0.0021759,0,0,0,0,0.056755,0.519428,-0.984661,32.5,1,13406,1390674
140,9,-0.683315,-0.0758153,9.78576,0.0601457,-0.634452,0.977479,-0.0068324,-0.000766977,0.0978576,1,4.43272e-05,3.74787e-06,1.08795e-05,0.00886545,0.000749575,0.0021759,0,0,0,0,0.056755,0.519428,-0.984661,32.5,1,13406,1390674
140,10,-0.676772,-0.0767321,9.78198,0.0654293,-0.636446,0.971247,-0.00676945,-0.000778594,0.0978196,1,5.55068e-05,-9.1011e-06,3.0538e-05,0.0111014,-0.00182022,0.0061076,0,0,0,0,0.056225,0.520913,-0.985635,32.5,1,13407,1390774
141,1,-0.676772,-0.0767321,9.78198,0.0654293,-0.636446,0.971247,-0.00676945,-0.000778594,0.0978196,1,5.55068e-05,-9.1011e-06,3.0538e-05,0.0111014,-0.00182022,0.0061076,0,0,0,0,0.056225,0.520913,-0.985635,32.5,1,13407,1390774
141,2,-0.67568,-0.0864164,9.78698,0.0661104,-0.646533,0.978739,-0.00675709,-0.000872197,0.0978697,1,3.97787e-05,-1.64267e-06,1.82127e-05,0.00795573,-0.000328533,0.00364255,0,0,0,0,0.0581456,0.521864,-0.985118,32.5,1,13408,1390874
141,3,-0.67568,-0.0864164,9.78698,0.0661104,-0.646533,0.978739,-0.00675709,-0.000872197,0.0978697,1,3.97787e-05,-1.64267e-06,1.82127e-05,0.00795573,-0.000328533,0.00364255,0,0,0,0,0.0581456,0.521864,-0.985118,32.5,1,13408,1390874
141,4,-0.677106,-0.0788566,9.78468,0.0637875,-0.641731,0.972614,-0.00677208,-0.000799772,0.0978466,1,5.59594e-05,-5.34041e-06,1.87883e-05,0.0111919,-0.00106808,0.00375766,0,0,0,0,0.0576275,0.521895,-0.98663,32.5,1,13409,1390974
141,5,-0.677106,-0.0788566,9.78468,0.0637875,-0.641731,0.972614,-0.00677208,-0.000799772,0.0978466,1,5.59594e-05,-5.34041e-06,1.87883e-05,0.0111919,-0.00106808,0.00375766,0,0,0,0,0.0576275,0.521895,-0.98663,32.5,1,13409,1390974
141,6,-0.679168,-0.0656449,9.78888,0.0622276,-0.627469,0.982798,-0.00679482,-0.000665358,0.0978885,1,4.42583e-05,-1.6151e-05,1.79206e-05,0.00885166,-0.0032302,0.00358413,0,0,0,0,0.0552869,0.519458,-0.985663,32.5,1,13410,1391074
141,7,-0.679168,-0.0656449,9.78888,0.0622276,-0.627469,0.982798,-0.00679482,-0.000665358,0.0978885,1,4.42583e-05,-1.6151e-05,1.79206e-05,0.00885166,-0.0032302,0.00358413,0,0,0,0,0.0552869,0.519458,-0.985663,32.5,1,13410,1391074
141,8,-0.684395,-0.0669242,9.77771,0.0533922,-0.627761,0.969308,-0.00684559,-0.000678293,0.0977769,1,4.54411e-05,-8.43778e-06,1.20122e-05,0.00908822,-0.00168756,0.00240244,0,0,0,0,0.0567227,0.521379,-0.984617,32.5,1,13411,1391174
142,1,-0.684395,-0.0669242,9.77771,0.0533922,-0.627761,0.969308,-0.00684559,-0.000678293,0.0977769,1,4.54411e-05,-8.43778e-06,1.20122e-05,0.00908822,-0.00168756,0.00240244,0,0,0,0,0.0567227,0.521379,-0.984617,32.5,1,13411,1391174
142,2,-0.682531,-0.0731283,9.78782,0.0584619,-0.627774,0.981599,-0.00682712,-0.000739749,0.097878,1,4.19506e-05,-9.38755e-06,1.86413e-05,0.00839011,-0.00187751,0.00372826,0,0,0,0,0.0567393,0.521849,-0.983597,32.5,1,13412,1391274
142,3,-0.682531,-0.0731283,9.78782,0.0584619,-0.627774,0.981599,-0.00682712,-0.000739749,0.097878,1,4.19506e-05,-9.38755e-06,1.86413e-05,0.00839011,-0.00187751,0.00372826,0,0,0,0,0.0567393,0.521849,-0.983597,32.5,1,13412,1391274
142,4,-0.691842,-0.0888284,9.79352,0.048376,-0.646715,0.983578,-0.00692127,-0.000895495,0.0979349,1,3.61018e-05,-1.4633e-05,1.01326e-05,0.00722037,-0.00292659,0.00202653,0,0,0,0,0.0562454,0.520416,-0.985141,32.5,1,13413,1391374
142,5,-0.691842,-0.0888284,9.79352,0.048376,-0.646715,0.983578,-0.00692127,-0.000895495,0.0979349,1,3.61018e-05,-1.4633e-05,1.01326e-05,0.00722037,-0.00292659,0.00202653,0,0,0,0,0.0562454,0.520416,-0.985141,32.5,1,13413,1391374
142,6,-0.677485,-0.0748886,9.78505,0.0594041,-0.634208,0.977023,-0.00677671,-0.000754573,0.0978503,1,2.73044e-05,-9.67264e-06,2.5306e-05,0.00546088,-0.00193453,0.00506121,0,0,0,0,0.0571421,0.52142,-0.987143,32.5,1,13414,1391474
142,7,-0.677485,-0.0748886,9.78505,0.0594041,-0.634208,0.977023,-0.00677671,-0.000754573,0.0978503,1,2.73044e-05,-9.67264e-06,2.5306e-05,0.00546088,-0.00193453,0.00506121,0,0,0,0,0.0571421,0.52142,-0.987143,32.5,1,13414,1391474
142,8,-0.685196,-0.0773407,9.79865,0.0525624,-0.635308,0.986838,-0.00685485,-0.00078262,0.0979862,1,4.53383e-05,-1.49572e-05,2.39056e-05,0.00906767,-0.00299144,0.00478112,0,0,0,0,0.0552461,0.520452,-0.986651,32.5,1,13415,1391574
142,9,-0.685196,-0.0773407,9.79865,0.0525624,-0.635308,0.986838,-0.00685485,-0.00078262,0.0979862,1,4.53383e-05,-1.49572e-05,2.39056e-05,0.00906767,-0.00299144,0.00478112,0,0,0,0,0.0552461,0.520452,-0.986651,32.5,1,13415,1391574
142,10,-0.684576,-0.0756015,9.79391,0.0559201,-0.637701,0.9869,-0.0068452,-0.000765751,0.0979391,1,4.76206e-05,2.64092e-06,2.98188e-05,0.00952412,0.000528183,0.00596376,0,0,0,0,0.0562492,0.51945,-0.985668,32.5,1,13416,1391674
143,1,-0.684576,-0.0756015,9.79391,0.0559201,-0.637701,0.9869,-0.0068452,-0.000765751,0.0979391,1,4.76206e-05,2.64092e-06,2.98188e-05,0.00952412,0.000528183,0.00596376,0,0,0,0,0.0562492,0.51945,-0.985668,32.5,1,13416,1391674
143,2,-0.679129,-0.0760162,9.78845,0.0628157,-0.641125,0.981392,-0.0067936,-0.000767454,0.0978843,1,3.66233e-05,-1.18818e-05,8.99658e-06,0.00732467,-0.00237635,0.00179932,0,0,0,0,0.0567388,0.520403,-0.984639,32.5,1,13417,1391774
143,3,-0.679129,-0.0760162,9.78845,0.0628157,-0.641125,0.981392,-0.0067936,-0.000767454,0.0978843,1,3.66233e-05,-1.18818e-05,8.99658e-06,0.00732467,-0.00237635,0.00179932,0,0,0,0,0.0567388,0.520403,-0.984639,32.5,1,13417,1391774
143,4,-0.678573,-0.0771304,9.78605,0.0622738,-0.63822,0.980444,-0.00678589,-0.00077558,0.0978605,1,2.03344e-05,-9.89192e-07,2.17818e-05,0.00406688,-0.000197838,0.00435637,0,0,0,0,0.0563066,0.518926,-0.98366,32.5,1,13418,1391874
143,5,-0.678573,-0.0771304,9.78605,0.0622738,-0.63822,0.980444,-0.00678589,-0.00077558,0.0978605,1,2.03344e-05,-9.89192e-07,2.17818e-05,0.00406688,-0.000197838,0.00435637,0,0,0,0,0.0563066,0.518926,-0.98366,32.5,1,13418,1391874
143,6,-0.681918,-0.0731664,9.78205,0.0590865,-0.635587,0.975987,-0.00682031,-0.000739298,0.0978203,1,3.73852e-05,-5.95846e-06,2.34934e-05,0.00747704,-0.00119169,0.00469869,0,0,0,0,0.0567265,0.520412,-0.985144,32.5,1,13419,1391974
144,1,-0.681918,-0.0731664,9.78205,0.0590865,-0.635587,0.975987,-0.00682031,-0.000739298,0.0978203,1,3.73852e-05,-5.95846e-06,2.34934e-05,0.00747704,-0.00119169,0.00469869,0,0,0,0,0.0567265,0.520412,-0.985144,32.5,1,13419,1391974
144,2,-0.677377,-0.0734691,9.79287,0.0649215,-0.636412,0.981329,-0.00677584,-0.000743399,0.0979285,1,4.28185e-05,-1.07774e-05,2.36947e-05,0.00856369,-0.00215549,0.00473893,0,0,0,0,0.0571459,0.520454,-0.98767,32.5,1,13420,1392074
144,3,-0.677377,-0.0734691,9.79287,0.0649215,-0.636412,0.981329,-0.00677584,-0.000743399,0.0979285,1,4.28185e-05,-1.07774e-05,2.36947e-05,0.00856369,-0.00215549,0.00473893,0,0,0,0,0.0571459,0.520454,-0.98767,32.5,1,13420,1392074
144,4,-0.679544,-0.0713928,9.7973,0.0625468,-0.636889,0.987492,-0.00679502,-0.000724691,0.097973,1,5.36405e-05,2.00035e-06,1.86059e-05,0.0107281,0.00040007,0.00372119,0,0,0,0,0.0566767,0.519003,-0.988205,32.5,1,13421,1392174
145,1,-0.679544,-0.0713928,9.7973,0.0625468,-0.636889,0.987492,-0.00679502,-0.000724691,0.097973,1,5.36405e-05,2.00035e-06,1.86059e-05,0.0107281,0.00040007,0.00372119,0,0,0,0,0.0566767,0.519003,-0.988205,32.5,1,13421,1392174
145,2,-0.681162,-0.0788894,9.78538,0.0586709,-0.641738,0.976752,-0.00681303,-0.000798814,0.0978536,1,4.88908e-05,-7.42986e-06,2.58292e-05,0.00977816,-0.00148597,0.00516584,0,0,0,0,0.05576,0.519942,-0.985655,32.5,1,13422,1392274
146,1,-0.681162,-0.0788894,9.78538,0.0586709,-0.641738,0.976752,-0.00681303,-0.000798814,0.0978536,1,4.88908e-05,-7.42986e-06,2.58292e-05,0.00977816,-0.00148597,0.00516584,0,0,0,0,0.05576,0.519942,-0.985655,32.5,1,13422,1392274
146,2,-0.682518,-0.0763906,9.78508,0.0607085,-0.64033,0.978877,-0.00682822,-0.000774979,0.0978505,1,5.49294e-05,-1.56999e-05,2.37042e-05,0.0109859,-0.00313998,0.00474085,0,0,0,0,0.0562126,0.520922,-0.98614,32.5,1,13423,1392374
147,1,-0.682518,-0.0763906,9.78508,0.0607085,-0.64033,0.978877,-0.00682822,-0.000774979,0.0978505,1,5.49294e-05,-1.56999e-05,2.37042e-05,0.0109859,-0.00313998,0.00474085,0,0,0,0,0.0562126,0.520922,-0.98614,32.5,1,13423,1392374
147,2,-0.676834,-0.0756304,9.78063,0.0594648,-0.644647,0.974318,-0.00676861,-0.000768173,0.0978062,1,5.94259e-05,-1.49955e-06,1.80711e-05,0.0118852,-0.000299911,0.00361423,0,0,0,0,0.0557272,0.520447,-0.986654,32.5,1,13424,1392474
147,3,-0.676834,-0.0756304,9.78063,0.0594648,-0.644647,0.974318,-0.00676861,-0.000768173,0.0978062,1,5.94259e-05,-1.49955e-06,1.80711e-05,0.0118852,-0.000299911,0.00361423,0,0,0,0,0.0557272,0.520447,-0.986654,32.5,1,13424,1392474
147,4,-0.679478,-0.0703997,9.79189,0.0609163,-0.636842,0.980874,-0.00679638,-0.000712249,0.0979188,1,4.0792e-05,-8.34228e-06,1.93752e-05,0.00815841,-0.00166846,0.00387505,0,0,0,0,0.0557277,0.521893,-0.985611,32.5,1,13425,1392574
147,5,-0.679478,-0.0703997,9.79189,0.0609163,-0.636842,0.980874,-0.00679638,-0.000712249,0.0979188,1,4.0792e-05,-8.34228e-06,1.93752e-05,0.00815841,-0.00166846,0.00387505,0,0,0,0,0.0557277,0.521893,-0.985611,32.5,1,13425,1392574
147,6,-0.684891,-0.0776054,9.7939,0.0579751,-0.647671,0.989649,-0.00685063,-0.000784773,0.0979388,1,4.20081e-05,-9.05586e-06,3.58133e-05,0.00840162,-0.00181117,0.00716266,0,0,0,0,0.0576028,0.521913,-0.98764,32.5,1,13426,1392674
147,7,-0.684891,-0.0776054,9.7939,0.0579751,-0.647671,0.989649,-0.00685063,-0.000784773,0.0979388,1,4.20081e-05,-9.05586e-06,3.58133e-05,0.00840162,-0.00181117,0.00716266,0,0,0,0,0.0576028,0.521913,-0.98764,32.5,1,13426,1392674
147,8,-0.690351,-0.076618,9.78479,0.0546491,-0.641656,0.974699,-0.00690614,-0.000776281,0.0978476,1,5.01926e-05,-1.36143e-05,2.01408e-05,0.0100385,-0.00272285,0.00402816,0,0,0,0,0.0575943,0.520955,-0.988671,32.5,1,13427,1392774
147,9,-0.690351,-0.076618,9.78479,0.0546491,-0.641656,0.974699,-0.00690614,-0.000776281,0.0978476,1,5.01926e-05,-1.36143e-05,2.01408e-05,0.0100385,-0.00272285,0.00402816,0,0,0,0,0.0575943,0.520955,-0.988671,32.5,1,13427,1392774
147,10,-0.69034,-0.0729245,9.78279,0.0491109,-0.639724,0.97425,-0.00690676,-0.000737442,0.0978276,1,4.01457e-05,-1.73355e-05,2.48011e-05,0.00802914,-0.0034671,0.00496022,0,0,0,0,0.0566933,0.519473,-0.987185,32.5,1,13428,1392874
148,1,-0.69034,-0.0729245,9.78279,0.0491109,-0.639724,0.97425,-0.00690676,-0.000737442,0.0978276,1,4.01457e-05,-1.73355e-05,2.48011e-05,0.00802914,-0.0034671,0.00496022,0,0,0,0,0.0566933,0.519473,-0.987185,32.5,1,13428,1392874
148,2,-0.68282,-0.0829653,9.78469,0.056589,-0.648375,0.977124,-0.00683021,-0.000840569,0.0978466,1,5.39125e-05,-1.04734e-05,2.67755e-05,0.0107825,-0.00209469,0.0053551,0,0,0,0,0.0572114,0.519442,-0.985673,32.5,1,13429,1392974
148,3,-0.68282,-0.0829653,9.78469,0.056589,-0.648375,0.977124,-0.00683021,-0.000840569,0.0978466,1,5.39125e-05,-1.04734e-05,2.67755e-05,0.0107825,-0.00209469,0.0053551,0,0,0,0,0.0572114,0.519442,-0.985673,32.5,1,13429,1392974
148,4,-0.687686,-0.0737656,9.78717,0.0523684,-0.643874,0.979745,-0.00687842,-0.000749232,0.0978715,1,5.77736e-05,-8.0745e-06,1.94219e-05,0.0115547,-0.0016149,0.00388438,0,0,0,0,0.058223,0.519398,-0.983658,32.5,1,13430,1393074
149,1,-0.687686,-0.0737656,9.78717,0.0523684,-0.643874,0.979745,-0.00687842,-0.000749232,0.0978715,1,5.77736e-05,-8.0745e-06,1.94219e-05,0.0115547,-0.0016149,0.00388438,0,0,0,0,0.058223,0.519398,-0.983658,32.5,1,13430,1393074
149,2,-0.681926,-0.0696374,9.78648,0.0623784,-0.637547,0.977939,-0.00682039,-0.000706173,0.0978646,1,4.90584e-05,-5.92127e-06,1.43963e-05,0.00981168,-0.00118425,0.00287925,0,0,0,0,0.0567431,0.520882,-0.984123,32.5,1,13431,1393174
149,3,-0.681926,-0.0696374,9.78648,0.0623784,-0.637547,0.977939,-0.00682039,-0.000706173,0.0978646,1,4.90584e-05,-5.92127e-06,1.43963e-05,0.00981168,-0.00118425,0.00287925,0,0,0,0,0.0567431,0.520882,-0.984123,32.5,1,13431,1393174
149,4,-0.681827,-0.0751225,9.79424,0.0587743,-0.639901,0.98407,-0.00681999,-0.000761627,0.0979422,1,5.20516e-05,-8.90912e-06,1.50876e-05,0.0104103,-0.00178182,0.00301752,0,0,0,0,0.056225,0.520913,-0.985635,32.5,1,13432,1393274
149,5,-0.681827,-0.0751225,9.79424,0.0587743,-0.639901,0.98407,-0.00681999,-0.000761627,0.0979422,1,5.20516e-05,-8.90912e-06,1.50876e-05,0.0104103,-0.00178182,0.00301752,0,0,0,0,0.056225,0.520913,-0.985635,32.5,1,13432,1393274
149,6,-0.676792,-0.0736574,9.78132,0.0676712,-0.641378,0.97032,-0.00676924,-0.000746659,0.0978131,1,5.03473e-05,-6.90327e-06,1.74751e-05,0.0100695,-0.00138065,0.00349503,0,0,0,0,0.0557272,0.520447,-0.986654,32.5,1,13433,1393374
150,1,-0.676792,-0.0736574,9.78132,0.0676712,-0.641378,0.97032,-0.00676924,-0.000746659,0.0978131,1,5.03473e-05,-6.90327e-06,1.74751e-05,0.0100695,-0.00138065,0.00349503,0,0,0,0,0.0557272,0.520447,-0.986654,32.5,1,13433,1393374
150,2,-0.688882,-0.0772707,9.79461,0.0586357,-0.643594,0.985458,-0.006891,-0.000783999,0.0979459,1,5.6185e-05,-1.13192e-05,2.07088e-05,0.011237,-0.00226383,0.00414175,0,0,0,0,0.0562411,0.519938,-0.985657,32.5,1,13434,1393474
150,3,-0.688882,-0.0772707,9.79461,0.0586357,-0.643594,0.985458,-0.006891,-0.000783999,0.0979459,1,5.6185e-05,-1.13192e-05,2.07088e-05,0.011237,-0.00226383,0.00414175,0,0,0,0,0.0562411,0.519938,-0.985657,32.5,1,13434,1393474
150,4,-0.684227,-0.0793003,9.78302,0.0543851,-0.651167,0.970246,-0.00684455,-0.000801948,0.09783,1,4.47855e-05,-1.17625e-05,1.33049e-05,0.00895709,-0.0023525,0.00266098,0,0,0,0,0.0552993,0.519449,-0.985159,32.5,1,13435,1393574
150,5,-0.684227,-0.0793003,9.78302,0.0543851,-0.651167,0.970246,-0.00684455,-0.000801948,0.09783,1,4.47855e-05,-1.17625e-05,1.33049e-05,0.00895709,-0.0023525,0.00266098,0,0,0,0,0.0552993,0.519449,-0.985159,32.5,1,13435,1393574
150,6,-0.68669,-0.0748709,9.78511,0.0535652,-0.643673,0.975554,-0.00686769,-0.000758218,0.0978509,1,4.74193e-05,-4.16474e-06,1.66167e-05,0.00948385,-0.000832947,0.00332333,0,0,0,0,0.0552461,0.520452,-0.986651,32.5,1,13436,1393674
151,1,-0.68669,-0.0748709,9.78511,0.0535652,-0.643673,0.975554,-0.00686769,-0.000758218,0.0978509,1,4.74193e-05,-4.16474e-06,1.66167e-05,0.00948385,-0.000832947,0.00332333,0,0,0,0,0.0552461,0.520452,-0.986651,32.5,1,13436,1393674
151,2,-0.676732,-0.0808775,9.78533,0.0645115,-0.65331,0.974251,-0.00676877,-0.000819021,0.0978531,1,5.02002e-05,-7.69661e-06,3.11396e-05,0.01004,-0.00153932,0.00622793,0,0,0,0,0.0561514,0.522413,-0.987622,32.5,1,13437,1393774
151,3,-0.676732,-0.0808775,9.78533,0.0645115,-0.65331,0.974251,-0.00676877,-0.000819021,0.0978531,1,5.02002e-05,-7.69661e-06,3.11396e-05,0.01004,-0.00153932,0.00622793,0,0,0,0,0.0561514,0.522413,-0.987622,32.5,1,13437,1393774
151,4,-0.68375,-0.0888006,9.78566,0.0540938,-0.658975,0.976537,-0.00684037,-0.000897596,0.0978563,1,4.80749e-05,-1.47409e-05,1.32678e-05,0.00961497,-0.00294819,0.00265355,0,0,0,0,0.0557562,0.520908,-0.985128,32.5,1,13438,1393874
151,5,-0.68375,-0.0888006,9.78566,0.0540938,-0.658975,0.976537,-0.00684037,-0.000897596,0.0978563,1,4.80749e-05,-1.47409e-05,1.32678e-05,0.00961497,-0.00294819,0.00265355,0,0,0,0,0.0557562,0.520908,-0.985128,32.5,1,13438,1393874
151,6,-0.681393,-0.0669102,9.78717,0.0582163,-0.641215,0.976615,-0.00681287,-0.000679345,0.0978717,1,5.16437e-05,5.3273e-06,9.86835e-06,0.0103287,0.00106546,0.00197367,0,0,0,0,0.0557766,0.520411,-0.984634,32.5,1,13439,1393974
152,1,-0.681393,-0.0669102,9.78717,0.0582163,-0.641215,0.976615,-0.00681287,-0.000679345,0.0978717,1,5.16437e-05,5.3273e-06,9.86835e-06,0.0103287,0.00106546,0.00197367,0,0,0,0,0.0557766,0.520411,-0.984634,32.5,1,13439,1393974
152,2,-0.677278,-0.0662506,9.78003,0.0660406,-0.638174,0.969225,-0.00677507,-0.00067249,0.0978001,1,5.00269e-05,-1.18128e-05,1.46704e-05,0.0100054,-0.00236255,0.00293408,0,0,0,0,0.0576925,0.519438,-0.985675,32.5,1,13440,1394074
152,3,-0.677278,-0.0662506,9.78003,0.0660406,-0.638174,0.969225,-0.00677507,-0.00067249,0.0978001,1,5.00269e-05,-1.18128e-05,1.46704e-05,0.0100054,-0.00236255,0.00293408,0,0,0,0,0.0576925,0.519438,-0.985675,32.5,1,13440,1394074
152,4,-0.681258,-0.0788046,9.79386,0.0578516,-0.652036,0.982762,-0.00681203,-0.000800587,0.0979385,1,6.24898e-05,2.61359e-06,2.20241e-05,0.012498,0.000522718,0.00440482,0,0,0,0,0.0567426,0.519437,-0.985165,32.5,1,13441,1394174
152,5,-0.681258,-0.0788046,9.79386,0.0578516,-0.652036,0.982762,-0.00681203,-0.000800587,0.0979385,1,6.24898e-05,2.61359e-06,2.20241e-05,0.012498,0.000522718,0.00440482,0,0,0,0,0.0567426,0.519437,-0.985165,32.5,1,13441,1394174
152,6,-0.682686,-0.0622615,9.78384,0.0535115,-0.629205,0.97294,-0.00682828,-0.000630731,0.0978382,1,4.07511e-05,-7.33097e-06,1.03879e-05,0.00815022,-0.00146619,0.00207759,0,0,0,0,0.0577257,0.520377,-0.983634,32.5,3,13442,1394274
153,1,-0.682686,-0.0622615,9.78384,0.0535115,-0.629205,0.97294,-0.00682828,-0.000630731,0.0978382,1,4.07511e-05,-7.33097e-06,1.03879e-05,0.00815022,-0.00146619,0.00207759,0,0,0,0,0.0577257,0.520377,-0.983634,32.5,3,13442,1394274
153,2,-0.683091,-0.0835913,9.79723,0.055168,-0.66021,0.989214,-0.00683222,-0.000843929,0.0979721,1,4.00618e-05,-6.77849e-06,1.21313e-05,0.00801236,-0.0013557,0.00242626,0,0,0,0,0.0571791,0.521393,-0.985629,32.5,3,13443,1394374
153,3,-0.683091,-0.0835913,9.79723,0.055168,-0.66021,0.989214,-0.00683222,-0.000843929,0.0979721,1,4.00618e-05,-6.77849e-06,1.21313e-05,0.00801236,-0.0013557,0.00242626,0,0,0,0,0.0571791,0.521393,-0.985629,32.5,3,13443,1394374
153,4,-0.680088,-0.0759374,9.78744,0.0610919,-0.650754,0.979351,-0.00680205,-0.000766167,0.0978743,1,3.32317e-05,-6.14865e-06,2.12152e-05,0.00664633,-0.00122973,0.00424304,0,0,0,0,0.0567018,0.520431,-0.986153,32.5,3,13444,1394474
153,5,-0.680088,-0.0759374,9.78744,0.0610919,-0.650754,0.979351,-0.00680205,-0.000766167,0.0978743,1,3.32317e-05,-6.14865e-06,2.12152e-05,0.00664633,-0.00122973,0.00424304,0,0,0,0,0.0567018,0.520431,-0.986153,32.5,3,13444,1394474
153,6,-0.684284,-0.0814326,9.78097,0.0541026,-0.65522,0.970437,-0.00684392,-0.000821618,0.0978095,1,3.67853e-05,-5.56192e-06,7.06505e-06,0.00735707,-0.00111238,0.00141301,0,0,0,0,0.055686,0.519996,-0.988684,32.5,3,13445,1394574
154,1,-0.684284,-0.0814326,9.78097,0.0541026,-0.65522,0.970437,-0.00684392,-0.000821618,0.0978095,1,3.67853e-05,-5.56192e-06,7.06505e-06,0.00735707,-0.00111238,0.00141301,0,0,0,0,0.055686,0.519996,-0.988684,32.5,3,13445,1394574
154,2,-0.676141,-0.0689828,9.78883,0.061284,-0.642184,0.980113,-0.00676254,-0.000699351,0.0978881,1,4.78421e-05,-5.8412e-06,1.16079e-05,0.00956841,-0.00116824,0.00232159,0,0,0,0,0.0547522,0.519019,-0.988196,32.5,3,13446,1394674
154,3,-0.676141,-0.0689828,9.78883,0.061284,-0.642184,0.980113,-0.00676254,-0.000699351,0.0978881,1,4.78421e-05,-5.8412e-06,1.16079e-05,0.00956841,-0.00116824,0.00232159,0,0,0,0,0.0547522,0.519019,-0.988196,32.5,3,13446,1394674
154,4,-0.695714,-0.0853016,9.79255,0.0391584,-0.662187,0.98568,-0.0069591,-0.000862298,0.0979253,1,4.62252e-05,-1.01364e-05,1.64157e-05,0.00924504,-0.00202728,0.00328314,0,0,0,0,0.0548466,0.518468,-0.984673,32.5,3,13447,1394774
154,5,-0.695714,-0.0853016,9.79255,0.0391584,-0.662187,0.98568,-0.0069591,-0.000862298,0.0979253,1,4.62252e-05,-1.01364e-05,1.64157e-05,0.00924504,-0.00202728,0.00328314,0,0,0,0,0.0548466,0.518468,-0.984673,32.5,3,13447,1394774
154,6,-0.683541,-0.0615105,9.78386,0.0557029,-0.633439,0.973579,-0.00684012,-0.000622303,0.0978383,1,3.63011e-05,-2.41547e-05,6.93661e-06,0.00726022,-0.00483094,0.00138732,0,0,0,0,0.0553282,0.51991,-0.983633,32.5,3,13448,1394874
154,7,-0.683541,-0.0615105,9.78386,0.0557029,-0.633439,0.973579,-0.00684012,-0.000622303,0.0978383,1,3.63011e-05,-2.41547e-05,6.93661e-06,0.00726022,-0.00483094,0.00138732,0,0,0,0,0.0553282,0.51991,-0.983633,32.5,3,13448,1394874
154,8,-0.686125,-0.0732332,9.78037,0.0535761,-0.649286,0.970242,-0.00686118,-0.000739977,0.0978037,1,3.79421e-05,2.25496e-07,1.62759e-05,0.00758841,4.50991e-05,0.00325517,0,0,0,0,0.0547612,0.521422,-0.986122,32.5,3,13449,1394974
154,9,-0.686125,-0.0732332,9.78037,0.0535761,-0.649286,0.970242,-0.00686118,-0.000739977,0.0978037,1,3.79421e-05,2.25496e-07,1.62759e-05,0.00758841,4.50991e-05,0.00325517,0,0,0,0,0.0547612,0.521422,-0.986122,32.5,3,13449,1394974
154,10,-0.65615,-0.058511,9.78098,0.0838304,-0.628974,0.968061,-0.00656434,-0.000594266,0.0978096,1,4.67505e-05,-1.45286e-05,7.61815e-07,0.00935011,-0.00290571,0.000152363,0,0,0,0,0.0571459,0.520454,-0.98767,32.5,3,13450,1395074
155,1,-0.65615,-0.058511,9.78098,0.0838304,-0.628974,0.968061,-0.00656434,-0.000594266,0.0978096,1,4.67505e-05,-1.45286e-05,7.61815e-07,0.00935011,-0.00290571,0.000152363,0,0,0,0,0.0571459,0.520454,-0.98767,32.5,3,13450,1395074
155,2,-0.681802,-0.0754019,9.78203,0.059135,-0.644308,0.972091,-0.00682089,-0.000763689,0.09782,1,4.72257e-05,-1.48953e-05,3.15884e-05,0.00944513,-0.00297907,0.00631768,0,0,0,0,0.057154,0.519966,-0.987681,32.5,3,13451,1395174
155,3,-0.681802,-0.0754019,9.78203,0.059135,-0.644308,0.972091,-0.00682089,-0.000763689,0.09782,1,4.72257e-05,-1.48953e-05,3.15884e-05,0.00944513,-0.00297907,0.00631768,0,0,0,0,0.057154,0.519966,-0.987681,32.5,3,13451,1395174
155,4,-0.68401,-0.0971957,9.7978,0.0535336,-0.674834,0.991061,-0.00684152,-0.000979712,0.0979778,1,3.78136e-05,-7.50788e-06,2.52072e-05,0.00756271,-0.00150158,0.00504145,0,0,0,0,0.0552499,0.519485,-0.987178,32.5,3,13452,1395274
155,5,-0.68401,-0.0971957,9.7978,0.0535336,-0.674834,0.991061,-0.00684152,-0.000979712,0.0979778,1,3.78136e-05,-7.50788e-06,2.52072e-05,0.00756271,-0.00150158,0.00504145,0,0,0,0,0.0552499,0.519485,-0.987178,32.5,3,13452,1395274
155,6,-0.678146,-0.0888502,9.79546,0.0640433,-0.663364,0.985941,-0.00678541,-0.000898407,0.0979543,1,4.91533e-05,-2.03273e-05,2.03474e-05,0.00983066,-0.00406546,0.00406948,0,0,0,0,0.0562658,0.51992,-0.984647,32.5,3,13453,1395374
156,1,-0.678146,-0.0888502,9.79546,0.0640433,-0.663364,0.985941,-0.00678541,-0.000898407,0.0979543,1,4.91533e-05,-2.03273e-05,2.03474e-05,0.00983066,-0.00406546,0.00406948,0,0,0,0,0.0562658,0.51992,-0.984647,32.5,3,13453,1395374
156,2,-0.678049,-0.0841092,9.78804,0.0575605,-0.658726,0.98052,-0.00678189,-0.000849558,0.0978802,1,4.17475e-05,-7.30518e-06,2.16774e-05,0.0083495,-0.00146104,0.00433548,0,0,0,0,0.0567431,0.520882,-0.984123,32.5,3,13454,1395474
156,3,-0.678049,-0.0841092,9.78804,0.0575605,-0.658726,0.98052,-0.00678189,-0.000849558,0.0978802,1,4.17475e-05,-7.30518e-06,2.16774e-05,0.0083495,-0.00146104,0.00433548,0,0,0,0,0.0567431,0.520882,-0.984123,32.5,3,13454,1395474
156,4,-0.683853,-0.0808864,9.78572,0.0559568,-0.655655,0.976324,-0.00684016,-0.000819443,0.097857,1,5.23776e-05,-8.53131e-06,2.39405e-05,0.0104755,-0.00170626,0.0047881,0,0,0,0,0.0562212,0.52188,-0.985109,32.5,3,13455,1395574
156,5,-0.683853,-0.0808864,9.78572,0.0559568,-0.655655,0.976324,-0.00684016,-0.000819443,0.097857,1,5.23776e-05,-8.53131e-06,2.39405e-05,0.0104755,-0.00170626,0.0047881,0,0,0,0,0.0562212,0.52188,-0.985109,32.5,3,13455,1395574
156,6,-0.677356,-0.0830337,9.78905,0.0592152,-0.660664,0.975853,-0.00677462,-0.000839953,0.0978904,1,4.74435e-05,-5.57327e-06,2.41378e-05,0.00948871,-0.00111465,0.00482755,0,0,0,0,0.0566899,0.521885,-0.985616,32.5,3,13456,1395674
157,1,-0.677356,-0.0830337,9.78905,0.0592152,-0.660664,0.975853,-0.00677462,-0.000839953,0.0978904,1,4.74435e-05,-5.57327e-06,2.41378e-05,0.00948871,-0.00111465,0.00482755,0,0,0,0,0.0566899,0.521885,-0.985616,32.5,3,13456,1395674
157,2,-0.687239,-0.078746,9.78203,0.0514454,-0.656285,0.970468,-0.00687411,-0.00079889,0.0978201,1,5.67549e-05,-8.98165e-06,2.37484e-05,0.011351,-0.00179633,0.00474969,0,0,0,0,0.0557234,0.521414,-0.986127,32.5,3,13457,1395774
157,3,-0.687239,-0.078746,9.78203,0.0514454,-0.656285,0.970468,-0.00687411,-0.00079889,0.0978201,1,5.67549e-05,-8.98165e-06,2.37484e-05,0.011351,-0.00179633,0.00474969,0,0,0,0,0.0557234,0.521414,-0.986127,32.5,3,13457,1395774
157,4,-0.678372,-0.0724166,9.79085,0.0622673,-0.65082,0.983425,-0.00678762,-0.000736334,0.0979082,1,6.08209e-05,-2.00871e-05,1.90808e-05,0.0121642,-0.00401742,0.00381616,0,0,0,0,0.056233,0.520425,-0.985646,32.5,3,13458,1395874
157,5,-0.678372,-0.0724166,9.79085,0.0622673,-0.65082,0.983425,-0.00678762,-0.000736334,0.0979082,1,6.08209e-05,-2.00871e-05,1.90808e-05,0.0121642,-0.00401742,0.00381616,0,0,0,0,0.056233,0.520425,-0.985646,32.5,3,13458,1395874
157,6,-0.693432,-0.0756223,9.79058,0.0440214,-0.654584,0.982623,-0.006935,-0.000765901,0.0979057,1,4.83469e-05,-3.59107e-06,1.51525e-05,0.00966937,-0.000718214,0.0030305,0,0,0,0,0.05576,0.519942,-0.985655,32.5,3,13459,1395974
158,1,-0.693432,-0.0756223,9.79058,0.0440214,-0.654584,0.982623,-0.006935,-0.000765901,0.0979057,1,4.83469e-05,-3.59107e-06,1.51525e-05,0.00966937,-0.000718214,0.0030305,0,0,0,0,0.05576,0.519942,-0.985655,32.5,3,13459,1395974
158,2,-0.684309,-0.0727335,9.78817,0.058907,-0.653284,0.978476,-0.00684417,-0.000737246,0.0978815,1,4.97978e-05,-5.58262e-06,1.18633e-05,0.00995955,-0.00111652,0.00237266,0,0,0,0,0.0557766,0.520411,-0.984634,32.5,3,13460,1396074
158,3,-0.684309,-0.0727335,9.78817,0.058907,-0.653284,0.978476,-0.00684417,-0.000737246,0.0978815,1,4.97978e-05,-5.58262e-06,1.18633e-05,0.00995955,-0.00111652,0.00237266,0,0,0,0,0.0557766,0.520411,-0.984634,32.5,3,13460,1396074
158,4,-0.688316,-0.0851882,9.783,0.0516161,-0.663657,0.968614,-0.0068842,-0.000861169,0.0978298,1,4.61936e-05,-5.47629e-06,1.80881e-05,0.00923872,-0.00109526,0.00361762,0,0,0,0,0.0571877,0.522351,-0.984598,32.5,3,13461,1396174
158,5,-0.688316,-0.0851882,9.783,0.0516161,-0.663657,0.968614,-0.0068842,-0.000861169,0.0978298,1,4.61936e-05,-5.47629e-06,1.80881e-05,0.00923872,-0.00109526,0.00361762,0,0,0,0,0.0571877,0.522351,-0.984598,32.5,3,13461,1396174
158,6,-0.678717,-0.0799638,9.7874,0.0610151,-0.659756,0.973553,-0.00678966,-0.000809335,0.0978737,1,4.80209e-05,-1.29159e-05,2.18674e-05,0.00960417,-0.00258318,0.00437348,0,0,0,0,0.0581456,0.521864,-0.985118,32.5,3,13462,1396274
159,1,-0.678717,-0.0799638,9.7874,0.0610151,-0.659756,0.973553,-0.00678966,-0.000809335,0.0978737,1,4.80209e-05,-1.29159e-05,2.18674e-05,0.00960417,-0.00258318,0.00437348,0,0,0,0,0.0581456,0.521864,-0.985118,32.5,3,13462,1396274
159,2,-0.680906,-0.0722955,9.77933,0.0569414,-0.654957,0.972362,-0.00681032,-0.000733338,0.0977932,1,5.19548e-05,-6.56195e-06,1.62588e-05,0.010391,-0.00131239,0.00325176,0,0,0,0,0.0571421,0.52142,-0.987143,32.5,3,13463,1396374
159,3,-0.680906,-0.0722955,9.77933,0.0569414,-0.654957,0.972362,-0.00681032,-0.000733338,0.0977932,1,5.19548e-05,-6.56195e-06,1.62588e-05,0.010391,-0.00131239,0.00325176,0,0,0,0,0.0571421,0.52142,-0.987143,32.5,3,13463,1396374
159,4,-0.676619,-0.083048,9.79312,0.060732,-0.662074,0.980964,-0.00676939,-0.000839975,0.0979309,1,4.59011e-05,-1.66408e-05,3.73052e-05,0.00918022,-0.00332816,0.00746103,0,0,0,0,0.0572157,0.519921,-0.985157,32.5,3,13464,1396474
159,5,-0.676619,-0.083048,9.79312,0.060732,-0.662074,0.980964,-0.00676939,-0.000839975,0.0979309,1,4.59011e-05,-1.66408e-05,3.73052e-05,0.00918022,-0.00332816,0.00746103,0,0,0,0,0.0572157,0.519921,-0.985157,32.5,3,13464,1396474
159,6,-0.683879,-0.0785507,9.77794,0.0537002,-0.662159,0.966731,-0.00684105,-0.000794388,0.0977792,1,4.4141e-05,-1.17011e-05,1.81346e-05,0.00882821,-0.00234022,0.00362691,0,0,0,0,0.05627,0.520398,-0.984132,32.5,3,13465,1396574
160,1,-0.683879,-0.0785507,9.77794,0.0537002,-0.662159,0.966731,-0.00684105,-0.000794388,0.0977792,1,4.4141e-05,-1.17011e-05,1.81346e-05,0.00882821,-0.00234022,0.00362691,0,0,0,0,0.05627,0.520398,-0.984132,32.5,3,13465,1396574
160,2,-0.686218,-0.0735407,9.78852,0.0525159,-0.654555,0.977121,-0.00686499,-0.000743501,0.0978849,1,4.06299e-05,-1.44523e-05,1.01979e-05,0.00812597,-0.00289046,0.00203958,0,0,0,0,0.0571915,0.521384,-0.985124,32.5,3,13466,1396674
160,3,-0.686218,-0.0735407,9.78852,0.0525159,-0.654555,0.977121,-0.00686499,-0.000743501,0.0978849,1,4.06299e-05,-1.44523e-05,1.01979e-05,0.00812597,-0.00289046,0.00203958,0,0,0,0,0.0571915,0.521384,-0.985124,32.5,3,13466,1396674
160,4,-0.682545,-0.0769537,9.78643,0.054947,-0.661383,0.972582,-0.00682692,-0.000779251,0.0978641,1,4.78029e-05,-7.69106e-06,2.61608e-05,0.00956059,-0.00153821,0.00523216,0,0,0,0,0.0576645,0.521868,-0.985116,32.5,3,13467,1396774
160,5,-0.682545,-0.0769537,9.78643,0.054947,-0.661383,0.972582,-0.00682692,-0.000779251,0.0978641,1,4.78029e-05,-7.69106e-06,2.61608e-05,0.00956059,-0.00153821,0.00523216,0,0,0,0,0.0576645,0.521868,-0.985116,32.5,3,13467,1396774
160,6,-0.681081,-0.0819238,9.7874,0.055551,-0.668007,0.978089,-0.00681318,-0.000829497,0.0978737,1,5.07627e-05,-1.23362e-05,2.36686e-05,0.0101525,-0.00246723,0.00473371,0,0,0,0,0.056735,0.52137,-0.984112,32.5,3,13468,1396874
160,7,-0.681081,-0.0819238,9.7874,0.055551,-0.668007,0.978089,-0.00681318,-0.000829497,0.0978737,1,5.07627e-05,-1.23362e-05,2.36686e-05,0.0101525,-0.00246723,0.00473371,0,0,0,0,0.056735,0.52137,-0.984112,32.5,3,13468,1396874
160,8,-0.691295,-0.0795842,9.79461,0.0479948,-0.66402,0.984438,-0.00691497,-0.0008033,0.0979459,1,3.73274e-05,-1.0429e-05,1.05668e-05,0.00746548,-0.0020858,0.00211336,0,0,0,0,0.0566937,0.520918,-0.986142,32.5,3,13469,1396974
160,9,-0.691295,-0.0795842,9.79461,0.0479948,-0.66402,0.984438,-0.00691497,-0.0008033,0.0979459,1,3.73274e-05,-1.0429e-05,1.05668e-05,0.00746548,-0.0020858,0.00211336,0,0,0,0,0.0566937,0.520918,-0.986142,32.5,3,13469,1396974
160,10,-0.68474,-0.0867978,9.79315,0.054911,-0.673877,0.98701,-0.00684867,-0.000879119,0.0979313,1,5.5967e-05,-6.60677e-06,1.30623e-05,0.0111934,-0.00132135,0.00261247,0,0,0,0,0.0566937,0.520918,-0.986142,32.5,3,13470,1397074
161,1,-0.68474,-0.0867978,9.79315,0.054911,-0.673877,0.98701,-0.00684867,-0.000879119,0.0979313,1,5.5967e-05,-6.60677e-06,1.30623e-05,0.0111934,-0.00132135,0.00261247,0,0,0,0,0.0566937,0.520918,-0.986142,32.5,3,13470,1397074
161,2,-0.67548,-0.0553372,9.79505,0.0639595,-0.640248,0.986152,-0.00675648,-0.000563024,0.0979503,1,4.81066e-05,-8.69653e-06,1.68959e-05,0.00962132,-0.00173931,0.00337918,0,0,0,0,0.0547982,0.521395,-0.984608,32.5,3,13471,1397174
161,3,-0.67548,-0.0553372,9.79505,0.0639595,-0.640248,0.986152,-0.00675648,-0.000563024,0.0979503,1,4.81066e-05,-8.69653e-06,1.68959e-05,0.00962132,-0.00173931,0.00337918,0,0,0,0,0.0547982,0.521395,-0.984608,32.5,3,13471,1397174
161,4,-0.69118,-0.0642187,9.78761,0.0465996,-0.654515,0.979326,-0.00691267,-0.000651777,0.097876,1,4.72776e-05,-4.60828e-06,2.42182e-05,0.00945552,-0.000921655,0.00484364,0,0,0,0,0.0562496,0.520895,-0.984626,32.5,3,13472,1397274
162,1,-0.69118,-0.0642187,9.78761,0.0465996,-0.654515,0.979326,-0.00691267,-0.000651777,0.097876,1,4.72776e-05,-4.60828e-06,2.42182e-05,0.00945552,-0.000921655,0.00484364,0,0,0,0,0.0562496,0.520895,-0.984626,32.5,3,13472,1397274
162,2,-0.687137,-0.084488,9.78403,0.0508526,-0.666691,0.969509,-0.00687573,-0.000852904,0.0978399,1,4.05069e-05,-2.23369e-05,7.11351e-06,0.00810138,-0.00446738,0.0014227,0,0,0,0,0.0571829,0.520427,-0.986156,32.5,3,13473,1397374
162,3,-0.687137,-0.084488,9.78403,0.0508526,-0.666691,0.969509,-0.00687573,-0.000852904,0.0978399,1,4.05069e-05,-2.23369e-05,7.11351e-06,0.00810138,-0.00446738,0.0014227,0,0,0,0,0.0571829,0.520427,-0.986156,32.5,3,13473,1397374
162,4,-0.679141,-0.0755073,9.77997,0.0612557,-0.657323,0.967412,-0.0067942,-0.000763203,0.0977995,1,4.08031e-05,-1.43667e-05,1.09262e-05,0.00816062,-0.00287334,0.00218525,0,0,0,0,0.0566695,0.522382,-0.98611,32.5,3,13474,1397474
162,5,-0.679141,-0.0755073,9.77997,0.0612557,-0.657323,0.967412,-0.0067942,-0.000763203,0.0977995,1,4.08031e-05,-1.43667e-05,1.09262e-05,0.00816062,-0.00287334,0.00218525,0,0,0,0,0.0566695,0.522382,-0.98611,32.5,3,13474,1397474
162,6,-0.683587,-0.079931,9.77928,0.0553479,-0.66712,0.969494,-0.0068377,-0.000808637,0.0977926,1,4.61991e-05,-9.5352e-06,2.13218e-05,0.00923982,-0.00190704,0.00426435,0,0,0,0,0.0566695,0.522382,-0.98611,32.5,3,13475,1397574
162,7,-0.683587,-0.079931,9.77928,0.0553479,-0.66712,0.969494,-0.0068377,-0.000808637,0.0977926,1,4.61991e-05,-9.5352e-06,2.13218e-05,0.00923982,-0.00190704,0.00426435,0,0,0,0,0.0566695,0.522382,-0.98611,32.5,3,13475,1397574
162,8,-0.677427,-0.0719426,9.78169,0.0588471,-0.65506,0.967786,-0.00677724,-0.000728581,0.0978166,1,4.49103e-05,-1.53741e-05,2.72635e-05,0.00898206,-0.00307481,0.0054527,0,0,0,0,0.0562658,0.51992,-0.984647,32.5,3,13476,1397674
162,9,-0.677427,-0.0719426,9.78169,0.0588471,-0.65506,0.967786,-0.00677724,-0.000728581,0.0978166,1,4.49103e-05,-1.53741e-05,2.72635e-05,0.00898206,-0.00307481,0.0054527,0,0,0,0,0.0562658,0.51992,-0.984647,32.5,3,13476,1397674
162,10,-0.686886,-0.0819459,9.78506,0.0467569,-0.670502,0.974738,-0.00687138,-0.000830107,0.0978503,1,5.33201e-05,-1.30088e-05,1.54786e-05,0.010664,-0.00260175,0.00309572,0,0,0,0,0.0548267,0.52041,-0.984125,32.5,3,13477,1397774
163,1,-0.686886,-0.0819459,9.78506,0.0467569,-0.670502,0.974738,-0.00687138,-0.000830107,0.0978503,1,5.33201e-05,-1.30088e-05,1.54786e-05,0.010664,-0.00260175,0.00309572,0,0,0,0,0.0548267,0.52041,-0.984125,32.5,3,13477,1397774
163,2,-0.679169,-0.0741624,9.78541,0.0574661,-0.664823,0.971702,-0.00679291,-0.000749328,0.097854,1,3.84934e-05,-6.32194e-06,1.25467e-05,0.00769869,-0.00126439,0.00250934,0,0,0,0,0.0562824,0.520389,-0.983627,32.5,3,13478,1397874
163,3,-0.679169,-0.0741624,9.78541,0.0574661,-0.664823,0.971702,-0.00679291,-0.000749328,0.097854,1,3.84934e-05,-6.32194e-06,1.25467e-05,0.00769869,-0.00126439,0.00250934,0,0,0,0,0.0562824,0.520389,-0.983627,32.5,3,13478,1397874
163,4,-0.687285,-0.0721623,9.78786,0.0519167,-0.660695,0.972305,-0.00687491,-0.00073154,0.0978784,1,4.89784e-05,-1.06562e-05,2.39255e-05,0.00979567,-0.00213123,0.00478511,0,0,0,0,0.0572081,0.521854,-0.984104,32.5,3,13479,1397974
163,5,-0.687285,-0.0721623,9.78786,0.0519167,-0.660695,0.972305,-0.00687491,-0.00073154,0.0978784,1,4.89784e-05,-1.06562e-05,2.39255e-05,0.00979567,-0.00213123,0.00478511,0,0,0,0,0.0572081,0.521854,-0.984104,32.5,3,13479,1397974
163,6,-0.688638,-0.0797116,9.79187,0.0500854,-0.668263,0.98216,-0.00688771,-0.000806705,0.0979186,1,4.80264e-05,-6.89162e-06,1.33256e-05,0.00960529,-0.00137832,0.00266512,0,0,0,0,0.0586305,0.520893,-0.985647,32.5,3,13480,1398074
164,1,-0.688638,-0.0797116,9.79187,0.0500854,-0.668263,0.98216,-0.00688771,-0.000806705,0.0979186,1,4.80264e-05,-6.89162e-06,1.33256e-05,0.00960529,-0.00137832,0.00266512,0,0,0,0,0.0586305,0.520893,-0.985647,32.5,3,13480,1398074
164,2,-0.680456,-0.0751556,9.78406,0.0624679,-0.666949,0.970407,-0.00680643,-0.000761757,0.0978404,1,5.01239e-05,-9.77927e-06,2.88278e-05,0.0100248,-0.00195585,0.00576557,0,0,0,0,0.0576474,0.519953,-0.987178,32.5,3,13481,1398174
164,3,-0.680456,-0.0751556,9.78406,0.0624679,-0.666949,0.970407,-0.00680643,-0.000761757,0.0978404,1,5.01239e-05,-9.77927e-06,2.88278e-05,0.0100248,-0.00195585,0.00576557,0,0,0,0,0.0576474,0.519953,-0.987178,32.5,3,13481,1398174
164,4,-0.684624,-0.0755307,9.78645,0.0544727,-0.663062,0.972416,-0.00684709,-0.000765531,0.0978644,1,5.10254e-05,-4.459e-06,1.72647e-05,0.0102051,-0.000891799,0.00345295,0,0,0,0,0.056188,0.52094,-0.98715,32.5,3,13482,1398274
164,5,-0.684624,-0.0755307,9.78645,0.0544727,-0.663062,0.972416,-0.00684709,-0.000765531,0.0978644,1,5.10254e-05,-4.459e-06,1.72647e-05,0.0102051,-0.000891799,0.00345295,0,0,0,0,0.056188,0.52094,-0.98715,32.5,3,13482,1398274
164,6,-0.686423,-0.0811152,9.7949,0.0511709,-0.671064,0.984431,-0.00686875,-0.000819112,0.0979486,1,3.96612e-05,-2.31862e-05,1.38919e-05,0.00793224,-0.00463724,0.00277837,0,0,0,0,0.0557562,0.520908,-0.985128,32.5,3,13483,1398374
165,1,-0.686423,-0.0811152,9.7949,0.0511709,-0.671064,0.984431,-0.00686875,-0.000819112,0.0979486,1,3.96612e-05,-2.31862e-05,1.38919e-05,0.00793224,-0.00463724,0.00277837,0,0,0,0,0.0557562,0.520908,-0.985128,32.5,3,13483,1398374
165,2,-0.677823,-0.0705976,9.77831,0.0551784,-0.660547,0.966377,-0.00678112,-0.000715954,0.0977828,1,4.95874e-05,-1.49066e-05,2.06996e-05,0.00991748,-0.00298132,0.00413991,0,0,0,0,0.0558501,0.518912,-0.982648,32.5,3,13484,1398474
165,3,-0.677823,-0.0705976,9.77831,0.0551784,-0.660547,0.966377,-0.00678112,-0.000715954,0.0977828,1,4.95874e-05,-1.49066e-05,2.06996e-05,0.00991748,-0.00298132,0.00413991,0,0,0,0,0.0558501,0.518912,-0.982648,32.5,3,13484,1398474
165,4,-0.676566,-0.0766194,9.79556,0.0577002,-0.665294,0.982957,-0.00676993,-0.000775081,0.0979552,1,4.38856e-05,-2.19833e-05,2.14018e-05,0.00877713,-0.00439665,0.00428036,0,0,0,0,0.0553363,0.519422,-0.983644,32.5,3,13485,1398574
166,1,-0.676566,-0.0766194,9.79556,0.0577002,-0.665294,0.982957,-0.00676993,-0.000775081,0.0979552,1,4.38856e-05,-2.19833e-05,2.14018e-05,0.00877713,-0.00439665,0.00428036,0,0,0,0,0.0553363,0.519422,-0.983644,32.5,3,13485,1398574
166,2,-0.684268,-0.0817803,9.78978,0.0492709,-0.676598,0.980901,-0.00684254,-0.000826573,0.0978978,1,4.39715e-05,5.99637e-07,1.17663e-05,0.00879429,0.000119927,0.00235326,0,0,0,0,0.0572365,0.520869,-0.983621,32.5,3,13486,1398674
166,3,-0.684268,-0.0817803,9.78978,0.0492709,-0.676598,0.980901,-0.00684254,-0.000826573,0.0978978,1,4.39715e-05,5.99637e-07,1.17663e-05,0.00879429,0.000119927,0.00235326,0,0,0,0,0.0572365,0.520869,-0.983621,32.5,3,13486,1398674
166,4,-0.684682,-0.063733,9.78689,0.0538695,-0.65097,0.970281,-0.00684893,-0.000643684,0.0978688,1,3.05454e-05,-1.09525e-05,2.7407e-05,0.00610908,-0.00219051,0.00548141,0,0,0,0,0.0566857,0.521406,-0.986131,32.5,3,13487,1398774
166,5,-0.684682,-0.063733,9.78689,0.0538695,-0.65097,0.970281,-0.00684893,-0.000643684,0.0978688,1,3.05454e-05,-1.09525e-05,2.7407e-05,0.00610908,-0.00219051,0.00548141,0,0,0,0,0.0566857,0.521406,-0.986131,32.5,3,13487,1398774
166,6,-0.688985,-0.0826617,9.78744,0.0463518,-0.672666,0.977051,-0.00689188,-0.000837142,0.0978741,1,5.23532e-05,-1.05297e-05,2.0074e-05,0.0104706,-0.00210594,0.0040148,0,0,0,0,0.0556988,0.521432,-0.987137,32.5,3,13488,1398874
167,1,-0.688985,-0.0826617,9.78744,0.0463518,-0.672666,0.977051,-0.00689188,-0.000837142,0.0978741,1,5.23532e-05,-1.05297e-05,2.0074e-05,0.0104706,-0.00210594,0.0040148,0,0,0,0,0.0556988,0.521432,-0.987137,32.5,3,13488,1398874
167,2,-0.682564,-0.0738335,9.78611,0.0535757,-0.664174,0.976452,-0.006828,-0.000746944,0.0978609,1,4.26155e-05,-1.22094e-05,1.96808e-05,0.00852309,-0.00244188,0.00393617,0,0,0,0,0.0547403,0.520474,-0.987658,32.5,3,13489,1398974
167,3,-0.682564,-0.0738335,9.78611,0.0535757,-0.664174,0.976452,-0.006828,-0.000746944,0.0978609,1,4.26155e-05,-1.22094e-05,1.96808e-05,0.00852309,-0.00244188,0.00393617,0,0,0,0,0.0547403,0.520474,-0.987658,32.5,3,13489,1398974
167,4,-0.687976,-0.0859258,9.78537,0.0486196,-0.6784,0.974993,-0.00688052,-0.000865995,0.0978535,1,3.21138e-05,-4.1815e-06,3.28515e-05,0.00642276,-0.0008363,0.0065703,0,0,0,0,0.055295,0.51897,-0.985674,32.5,3,13490,1399074
168,1,-0.687976,-0.0859258,9.78537,0.0486196,-0.6784,0.974993,-0.00688052,-0.000865995,0.0978535,1,3.21138e-05,-4.1815e-06,3.28515e-05,0.00642276,-0.0008363,0.0065703,0,0,0,0,0.055295,0.51897,-0.985674,32.5,3,13490,1399074
168,2,-0.680878,-0.0758642,9.78574,0.0577851,-0.672551,0.977226,-0.00680964,-0.00076723,0.0978573,1,4.28185e-05,-4.51516e-06,1.52308e-05,0.0085637,-0.000903032,0.00304616,0,0,0,0,0.0562615,0.519441,-0.985163,32.5,3,13491,1399174
168,3,-0.680878,-0.0758642,9.78574,0.0577851,-0.672551,0.977226,-0.00680964,-0.00076723,0.0978573,1,4.28185e-05,-4.51516e-06,1.52308e-05,0.0085637,-0.000903032,0.00304616,0,0,0,0,0.0562615,0.519441,-0.985163,32.5,3,13491,1399174
168,4,-0.685654,-0.0726151,9.78411,0.0503904,-0.661948,0.970222,-0.00685886,-0.000732572,0.0978409,1,3.07894e-05,-1.20961e-05,2.88804e-05,0.00615788,-0.00241922,0.00577608,0,0,0,0,0.0566937,0.520918,-0.986142,32.5,3,13492,1399274
168,5,-0.685654,-0.0726151,9.78411,0.0503904,-0.661948,0.970222,-0.00685886,-0.000732572,0.0978409,1,3.07894e-05,-1.20961e-05,2.88804e-05,0.00615788,-0.00241922,0.00577608,0,0,0,0,0.0566937,0.520918,-0.986142,32.5,3,13492,1399274
168,6,-0.68389,-0.0820708,9.78944,0.0509669,-0.678455,0.979675,-0.00683971,-0.000830199,0.0978942,1,4.81289e-05,-4.18515e-06,5.01241e-06,0.00962578,-0.00083703,0.00100248,0,0,0,0,0.0566937,0.520918,-0.986142,32.5,3,13493,1399374
169,1,-0.68389,-0.0820708,9.78944,0.0509669,-0.678455,0.979675,-0.00683971,-0.000830199,0.0978942,1,4.81289e-05,-4.18515e-06,5.01241e-06,0.00962578,-0.00083703,0.00100248,0,0,0,0,0.0566937,0.520918,-0.986142,32.5,3,13493,1399374
169,2,-0.685798,-0.0743041,9.79903,0.0534396,-0.669333,0.98547,-0.00686137,-0.000751024,0.09799,1,3.9965e-05,-1.73653e-05,1.09804e-05,0.00799299,-0.00347305,0.00219609,0,0,0,0,0.0562368,0.519459,-0.986173,32.5,3,13494,1399474
169,3,-0.685798,-0.0743041,9.79903,0.0534396,-0.669333,0.98547,-0.00686137,-0.000751024,0.09799,1,3.9965e-05,-1.73653e-05,1.09804e-05,0.00799299,-0.00347305,0.00219609,0,0,0,0,0.0562368,0.519459,-0.986173,32.5,3,13494,1399474
169,4,-0.669997,-0.0702201,9.7881,0.0699449,-0.665789,0.977197,-0.00670157,-0.000712068,0.0978808,1,4.95128e-05,-8.26104e-06,1.29789e-05,0.00990256,-0.00165221,0.00259578,0,0,0,0,0.0558089,0.51846,-0.984678,32.5,3,13495,1399574
169,5,-0.669997,-0.0702201,9.7881,0.0699449,-0.665789,0.977197,-0.00670157,-0.000712068,0.0978808,1,4.95128e-05,-8.26104e-06,1.29789e-05,0.00990256,-0.00165221,0.00259578,0,0,0,0,0.0558089,0.51846,-0.984678,32.5,3,13495,1399574
169,6,-0.678118,-0.0758346,9.79319,0.0546771,-0.669705,0.981203,-0.00678175,-0.000767725,0.0979318,1,4.6391e-05,-3.06227e-06,2.16048e-05,0.00927821,-0.000612454,0.00432096,0,0,0,0,0.0572978,0.519379,-0.982139,32.5,3,13496,1399674
169,7,-0.678118,-0.0758346,9.79319,0.0546771,-0.669705,0.981203,-0.00678175,-0.000767725,0.0979318,1,4.6391e-05,-3.06227e-06,2.16048e-05,0.00927821,-0.000612454,0.00432096,0,0,0,0,0.0572978,0.519379,-0.982139,32.5,3,13496,1399674
169,8,-0.680367,-0.0786691,9.78403,0.0531715,-0.671988,0.971782,-0.00680751,-0.000795542,0.09784,1,4.40423e-05,-1.97795e-05,1.70969e-05,0.00880846,-0.0039559,0.00341938,0,0,0,0,0.05627,0.520398,-0.984132,32.5,3,13497,1399774
169,9,-0.680367,-0.0786691,9.78403,0.0531715,-0.671988,0.971782,-0.00680751,-0.000795542,0.09784,1,4.40423e-05,-1.97795e-05,1.70969e-05,0.00880846,-0.0039559,0.00341938,0,0,0,0,0.05627,0.520398,-0.984132,32.5,3,13497,1399774
169,10,-0.682336,-0.0680322,9.78209,0.0505865,-0.663554,0.969653,-0.00682583,-0.000687454,0.0978207,1,3.41495e-05,-1.28727e-05,3.30287e-05,0.0068299,-0.00257453,0.00660574,0,0,0,0,0.0553197,0.518952,-0.984665,32.5,3,13498,1399874
169,11,-0.682336,-0.0680322,9.78209,0.0505865,-0.663554,0.969653,-0.00682583,-0.000687454,0.0978207,1,3.41495e-05,-1.28727e-05,3.30287e-05,0.0068299,-0.00257453,0.00660574,0,0,0,0,0.0553197,0.518952,-0.984665,32.5,3,13498,1399874
169,12,-0.676003,-0.0798661,9.78738,0.0608834,-0.678452,0.972222,-0.00676352,-0.000807858,0.0978735,1,4.53683e-05,-1.8036e-05,2.33951e-05,0.00907367,-0.00360719,0.00467902,0,0,0,0,0.0567512,0.520394,-0.984134,32.5,3,13499,1399974
170,1,-0.676003,-0.0798661,9.78738,0.0608834,-0.678452,0.972222,-0.00676352,-0.000807858,0.0978735,1,4.53683e-05,-1.8036e-05,2.33951e-05,0.00907367,-0.00360719,0.00467902,0,0,0,0,0.0567512,0.520394,-0.984134,32.5,3,13499,1399974
170,2,-0.673593,-0.0815199,9.78837,0.0623601,-0.677048,0.973634,-0.00673806,-0.000826177,0.0978834,1,5.48438e-05,-1.10026e-05,1.79353e-05,0.0109688,-0.00220052,0.00358706,0,0,0,0,0.0567307,0.520891,-0.984628,32.5,3,13500,1400074
170,3,-0.673593,-0.0815199,9.78837,0.0623601,-0.677048,0.973634,-0.00673806,-0.000826177,0.0978834,1,5.48438e-05,-1.10026e-05,1.79353e-05,0.0109688,-0.00220052,0.00358706,0,0,0,0,0.0567307,0.520891,-0.984628,32.5,3,13500,1400074
170,4,-0.680461,-0.0766355,9.7871,0.0582553,-0.673851,0.970098,-0.00680741,-0.00077391,0.0978708,1,3.81917e-05,-1.43702e-05,5.85253e-06,0.00763834,-0.00287404,0.00117051,0,0,0,0,0.0552751,0.520912,-0.985126,32.5,3,13501,1400174
170,5,-0.680461,-0.0766355,9.7871,0.0582553,-0.673851,0.970098,-0.00680741,-0.00077391,0.0978708,1,3.81917e-05,-1.43702e-05,5.85253e-06,0.00763834,-0.00287404,0.00117051,0,0,0,0,0.0552751,0.520912,-0.985126,32.5,3,13501,1400174
170,6,-0.683424,-0.0875362,9.79346,0.054635,-0.681363,0.98237,-0.00683608,-0.000885976,0.0979344,1,5.34132e-05,-9.52388e-06,1.1174e-05,0.0106826,-0.00190478,0.00223481,0,0,0,0,0.0562658,0.51992,-0.984647,32.5,3,13502,1400274
170,7,-0.683424,-0.0875362,9.79346,0.054635,-0.681363,0.98237,-0.00683608,-0.000885976,0.0979344,1,5.34132e-05,-9.52388e-06,1.1174e-05,0.0106826,-0.00190478,0.00223481,0,0,0,0,0.0562658,0.51992,-0.984647,32.5,3,13502,1400274
170,8,-0.679609,-0.0853709,9.79685,0.0589833,-0.680489,0.981908,-0.00679896,-0.000863651,0.0979682,1,4.90249e-05,-1.48634e-05,2.4723e-05,0.00980499,-0.00297268,0.0049446,0,0,0,0,0.0572157,0.519921,-0.985157,32.5,3,13503,1400374
171,1,-0.679609,-0.0853709,9.79685,0.0589833,-0.680489,0.981908,-0.00679896,-0.000863651,0.0979682,1,4.90249e-05,-1.48634e-05,2.4723e-05,0.00980499,-0.00297268,0.0049446,0,0,0,0,0.0572157,0.519921,-0.985157,32.5,3,13503,1400374
171,2,-0.675057,-0.0863774,9.78493,0.0563585,-0.682299,0.974286,-0.00675183,-0.000873421,0.0978492,1,4.83523e-05,-6.5862e-06,1.36627e-05,0.00967047,-0.00131724,0.00273255,0,0,0,0,0.0576517,0.520432,-0.986663,32.5,3,13504,1400474
