frame_id,imu_idx,accel_x,accel_y,accel_z,free_accel_x,free_accel_y,free_accel_z,delta_v_x,delta_v_y,delta_v_z,delta_q_w,delta_q_x,delta_q_y,delta_q_z,rate_x,rate_y,rate_z,quat_w,quat_x,quat_y,quat_z,mag_x,mag_y,mag_z,temperature,status_byte,packet_counter,time_fine
1,1,-1.48884,-0.263318,9.88266,1.47392,0.158236,1.10905,-0.0148778,-0.00263162,0.0988283,1,-1.67151e-05,5.21618e-05,5.8419e-05,-0.00334303,0.0104323,0.0116838,0,0,0,0,0.441716,0.11508,-1.00856,34.3125,3,25153,55554102
1,2,-0.559478,-0.0506235,7.33565,1.47392,0.158236,1.10905,-0.00559379,-0.000514075,0.0733565,1,5.07963e-05,6.49327e-06,3.4632e-05,0.0101593,0.00129865,0.00692639,0,0,0,0,0.0991009,0.516795,-0.966227,34.5,1,44348,57475114
1,3,-0.559478,-0.0506235,7.33565,1.47392,0.158236,1.10905,-0.00559379,-0.000514075,0.0733565,1,5.07963e-05,6.49327e-06,3.4632e-05,0.0101593,0.00129865,0.00692639,0,0,0,0,0.0991009,0.516795,-0.966227,34.5,1,44348,57475114
1,4,-0.736232,-0.0710345,9.78111,0.0581894,-0.507384,0.973484,-0.00736411,-0.000723075,0.0978108,1,6.37359e-05,-9.24804e-06,1.78294e-05,0.0127472,-0.00184961,0.00356589,0,0,0,0,0.10008,0.518702,-0.964169,34.5,1,44349,57475214
1,5,-0.736232,-0.0710345,9.78111,0.0581894,-0.507384,0.973484,-0.00736411,-0.000723075,0.0978108,1,6.37359e-05,-9.24804e-06,1.78294e-05,0.0127472,-0.00184961,0.00356589,0,0,0,0,0.10008,0.518702,-0.964169,34.5,1,44349,57475214
1,6,-0.728748,-0.0648163,9.77535,0.064277,-0.50196,0.961532,-0.00729019,-0.000658541,0.0977532,1,5.08055e-05,-1.40909e-05,3.05976e-05,0.0101611,-0.00281819,0.00611953,0,0,0,0,0.101425,0.520208,-0.967172,34.5,1,44350,57475314
2,1,-0.728748,-0.0648163,9.77535,0.064277,-0.50196,0.961532,-0.00729019,-0.000658541,0.0977532,1,5.08055e-05,-1.40909e-05,3.05976e-05,0.0101611,-0.00281819,0.00611953,0,0,0,0,0.101425,0.520208,-0.967172,34.5,1,44350,57475314
2,2,-0.742248,-0.0723518,9.78962,0.0521212,-0.512318,0.982658,-0.00742489,-0.000736248,0.0978959,1,6.34081e-05,-1.2498e-05,2.12606e-05,0.0126816,-0.00249959,0.00425211,0,0,0,0,0.103206,0.520779,-0.972724,34.5,1,44351,57475414
2,3,-0.742248,-0.0723518,9.78962,0.0521212,-0.512318,0.982658,-0.00742489,-0.000736248,0.0978959,1,6.34081e-05,-1.2498e-05,2.12606e-05,0.0126816,-0.00249959,0.00425211,0,0,0,0,0.103206,0.520779,-0.972724,34.5,1,44351,57475414
2,4,-0.757734,-0.0780653,9.78256,0.0334326,-0.523373,0.982591,-0.0075814,-0.000791765,0.0978252,1,5.49834e-05,-2.09755e-05,2.3432e-05,0.0109967,-0.0041951,0.0046864,0,0,0,0,0.10217,0.520841,-0.975748,34.5,1,44352,57475514
2,5,-0.757734,-0.0780653,9.78256,0.0334326,-0.523373,0.982591,-0.0075814,-0.000791765,0.0978252,1,5.49834e-05,-2.09755e-05,2.3432e-05,0.0109967,-0.0041951,0.0046864,0,0,0,0,0.10217,0.520841,-0.975748,34.5,1,44352,57475514
2,6,-0.760949,-0.0791605,9.77476,0.0335999,-0.524925,0.977654,-0.00761179,-0.000801413,0.0977474,1,4.89559e-05,-1.19227e-05,1.55865e-05,0.00979119,-0.00238455,0.00311731,0,0,0,0,0.0998662,0.518377,-0.973267,34.5,1,44353,57475614
3,1,-0.760949,-0.0791605,9.77476,0.0335999,-0.524925,0.977654,-0.00761179,-0.000801413,0.0977474,1,4.89559e-05,-1.19227e-05,1.55865e-05,0.00979119,-0.00238455,0.00311731,0,0,0,0,0.0998662,0.518377,-0.973267,34.5,1,44353,57475614
3,2,-0.737782,-0.0811904,9.78545,0.0516009,-0.524585,0.986778,-0.00737978,-0.00082112,0.0978543,1,4.54299e-05,-1.02075e-05,2.20648e-05,0.00908598,-0.00204151,0.00441297,0,0,0,0,0.0981059,0.517309,-0.967221,34.5,1,44354,57475714
3,3,-0.737782,-0.0811904,9.78545,0.0516009,-0.524585,0.986778,-0.00737978,-0.00082112,0.0978543,1,4.54299e-05,-1.02075e-05,2.20648e-05,0.00908598,-0.00204151,0.00441297,0,0,0,0,0.0981059,0.517309,-0.967221,34.5,1,44354,57475714
3,4,-0.732101,-0.0705099,9.7838,0.0615093,-0.517879,0.981867,-0.00732276,-0.000714691,0.0978379,1,4.87137e-05,-8.97815e-06,4.05496e-06,0.00974275,-0.00179563,0.000810992,0,0,0,0,0.1001,0.51676,-0.964718,34.5,1,44355,57475814
3,5,-0.732101,-0.0705099,9.7838,0.0615093,-0.517879,0.981867,-0.00732276,-0.000714691,0.0978379,1,4.87137e-05,-8.97815e-06,4.05496e-06,0.00974275,-0.00179563,0.000810992,0,0,0,0,0.1001,0.51676,-0.964718,34.5,1,44355,57475814
3,6,-0.725589,-0.0505405,9.78462,0.067576,-0.495756,0.975572,-0.00726114,-0.000514076,0.0978458,1,4.30831e-05,-2.69485e-05,1.65309e-05,0.00861663,-0.00538969,0.00330619,0,0,0,0,0.101409,0.521183,-0.967151,34.5,1,44356,57475914
4,1,-0.725589,-0.0505405,9.78462,0.067576,-0.495756,0.975572,-0.00726114,-0.000514076,0.0978458,1,4.30831e-05,-2.69485e-05,1.65309e-05,0.00861663,-0.00538969,0.00330619,0,0,0,0,0.101409,0.521183,-0.967151,34.5,1,44356,57475914
4,2,-0.731138,-0.0693552,9.79024,0.0579667,-0.518317,0.982953,-0.0073121,-0.000704628,0.0979023,1,5.49945e-05,-3.81883e-06,2.10854e-05,0.0109989,-0.000763766,0.00421708,0,0,0,0,0.103195,0.523678,-0.971144,34.5,1,44357,57476014
4,3,-0.731138,-0.0693552,9.79024,0.0579667,-0.518317,0.982953,-0.0073121,-0.000704628,0.0979023,1,5.49945e-05,-3.81883e-06,2.10854e-05,0.0109989,-0.000763766,0.00421708,0,0,0,0,0.103195,0.523678,-0.971144,34.5,1,44357,57476014
4,4,-0.73529,-0.059741,9.77951,0.0485115,-0.513641,0.976427,-0.00735449,-0.000608417,0.0977949,1,5.45644e-05,-8.2865e-06,2.27801e-05,0.0109129,-0.0016573,0.00455603,0,0,0,0,0.100747,0.520356,-0.975247,34.5,1,44358,57476114
4,5,-0.73529,-0.059741,9.77951,0.0485115,-0.513641,0.976427,-0.00735449,-0.000608417,0.0977949,1,5.45644e-05,-8.2865e-06,2.27801e-05,0.0109129,-0.0016573,0.00455603,0,0,0,0,0.100747,0.520356,-0.975247,34.5,1,44358,57476114
4,6,-0.724847,-0.0628212,9.78722,0.0625688,-0.516569,0.986954,-0.0072517,-0.000638598,0.0978719,1,5.20853e-05,-1.65996e-05,1.31443e-05,0.0104171,-0.00331991,0.00262885,0,0,0,0,0.0984466,0.51548,-0.974335,34.5,1,44359,57476214
7,1,-0.724847,-0.0628212,9.78722,0.0625688,-0.516569,0.986954,-0.0072517,-0.000638598,0.0978719,1,5.20853e-05,-1.65996e-05,1.31443e-05,0.0104171,-0.00331991,0.00262885,0,0,0,0,0.0984466,0.51548,-0.974335,34.5,1,44359,57476214
7,2,-0.742819,-0.0550191,9.77485,0.0486548,-0.507792,0.978956,-0.00743083,-0.000560566,0.0977482,1,5.13252e-05,-1.36436e-05,2.29965e-05,0.010265,-0.00272872,0.00459929,0,0,0,0,0.0990549,0.51442,-0.969815,34.5,1,44360,57476314
7,3,-0.742819,-0.0550191,9.77485,0.0486548,-0.507792,0.978956,-0.00743083,-0.000560566,0.0977482,1,5.13252e-05,-1.36436e-05,2.29965e-05,0.010265,-0.00272872,0.00459929,0,0,0,0,0.0990549,0.51442,-0.969815,34.5,1,44360,57476314
7,4,-0.740363,-0.0603762,9.7775,0.0540384,-0.509583,0.977061,-0.00740645,-0.000615309,0.0977747,1,5.80867e-05,-1.45204e-05,1.27408e-05,0.0116173,-0.00290408,0.00254815,0,0,0,0,0.101042,0.517249,-0.965216,34.5,1,44361,57476414
7,5,-0.740363,-0.0603762,9.7775,0.0540384,-0.509583,0.977061,-0.00740645,-0.000615309,0.0977747,1,5.80867e-05,-1.45204e-05,1.27408e-05,0.0116173,-0.00290408,0.00254815,0,0,0,0,0.101042,0.517249,-0.965216,34.5,1,44361,57476414
7,6,-0.744643,-0.0618654,9.79008,0.0448889,-0.513078,0.986925,-0.0074483,-0.000625824,0.0979006,1,3.63756e-05,-9.60568e-06,3.1811e-06,0.00727512,-0.00192114,0.00063622,0,0,0,0,0.102351,0.521672,-0.967649,34.5,1,44362,57476514
8,1,-0.744643,-0.0618654,9.79008,0.0448889,-0.513078,0.986925,-0.0074483,-0.000625824,0.0979006,1,3.63756e-05,-9.60568e-06,3.1811e-06,0.00727512,-0.00192114,0.00063622,0,0,0,0,0.102351,0.521672,-0.967649,34.5,1,44362,57476514
8,2,-0.73171,-0.0732179,9.78344,0.0586156,-0.525417,0.971821,-0.00731931,-0.000740415,0.0978342,1,4.02444e-05,-1.14719e-05,2.47601e-05,0.00804888,-0.00229438,0.00495202,0,0,0,0,0.103651,0.522247,-0.973198,34.5,1,44363,57476614
8,3,-0.73171,-0.0732179,9.78344,0.0586156,-0.525417,0.971821,-0.00731931,-0.000740415,0.0978342,1,4.02444e-05,-1.14719e-05,2.47601e-05,0.00804888,-0.00229438,0.00495202,0,0,0,0,0.103651,0.522247,-0.973198,34.5,1,44363,57476614
8,4,-0.750886,-0.0702662,9.78494,0.0389072,-0.530821,0.98215,-0.00750885,-0.000712665,0.0978494,1,4.8358e-05,-2.16242e-07,3.59435e-05,0.0096716,-4.32484e-05,0.00718869,0,0,0,0,0.102639,0.520846,-0.976255,34.5,1,44364,57476714
8,5,-0.750886,-0.0702662,9.78494,0.0389072,-0.530821,0.98215,-0.00750885,-0.000712665,0.0978494,1,4.8358e-05,-2.16242e-07,3.59435e-05,0.0096716,-4.32484e-05,0.00718869,0,0,0,0,0.102639,0.520846,-0.976255,34.5,1,44364,57476714
8,6,-0.746022,-0.0685485,9.7873,0.0412818,-0.528378,0.986747,-0.00746234,-0.000694605,0.0978728,1,4.41e-05,-1.10697e-05,3.26112e-05,0.00882,-0.00221393,0.00652224,0,0,0,0,0.100368,0.517876,-0.972775,34.5,1,44365,57476814
9,1,-0.746022,-0.0685485,9.7873,0.0412818,-0.528378,0.986747,-0.00746234,-0.000694605,0.0978728,1,4.41e-05,-1.10697e-05,3.26112e-05,0.00882,-0.00221393,0.00652224,0,0,0,0,0.100368,0.517876,-0.972775,34.5,1,44365,57476814
9,2,-0.725171,-0.0643321,9.78821,0.0656482,-0.52476,0.985542,-0.00725063,-0.000652085,0.0978821,1,4.37368e-05,5.42756e-06,1.38974e-05,0.00874735,0.00108551,0.00277949,0,0,0,0,0.10054,0.51775,-0.965708,34.5,1,44366,57476914
9,3,-0.725171,-0.0643321,9.78821,0.0656482,-0.52476,0.985542,-0.00725063,-0.000652085,0.0978821,1,4.37368e-05,5.42756e-06,1.38974e-05,0.00874735,0.00108551,0.00277949,0,0,0,0,0.10054,0.51775,-0.965708,34.5,1,44366,57476914
9,4,-0.732427,-0.0645386,9.78793,0.0549755,-0.522603,0.983762,-0.0073267,-0.000656878,0.097879,1,5.73508e-05,-1.25282e-05,1.80807e-05,0.0114702,-0.00250564,0.00361615,0,0,0,0,0.102939,0.521108,-0.963624,34.5,1,44367,57477014
9,5,-0.732427,-0.0645386,9.78793,0.0549755,-0.522603,0.983762,-0.0073267,-0.000656878,0.097879,1,5.73508e-05,-1.25282e-05,1.80807e-05,0.0114702,-0.00250564,0.00361615,0,0,0,0,0.102939,0.521108,-0.963624,34.5,1,44367,57477014
9,6,-0.725027,-0.0580759,9.77844,0.0660068,-0.517249,0.961676,-0.00725224,-0.000589195,0.0977842,1,4.19301e-05,-1.02035e-05,1.62494e-05,0.00838602,-0.0020407,0.00324989,0,0,0,0,0.103256,0.523633,-0.96862,34.5,1,44368,57477114
10,1,-0.725027,-0.0580759,9.77844,0.0660068,-0.517249,0.961676,-0.00725224,-0.000589195,0.0977842,1,4.19301e-05,-1.02035e-05,1.62494e-05,0.00838602,-0.0020407,0.00324989,0,0,0,0,0.103256,0.523633,-0.96862,34.5,1,44368,57477114
10,2,-0.739691,-0.0789764,9.77091,0.0443008,-0.54472,0.960537,-0.0074019,-0.000797318,0.0977087,1,3.67706e-05,-2.57287e-05,2.4842e-05,0.00735411,-0.00514574,0.0049684,0,0,0,0,0.103153,0.523226,-0.973174,34.5,1,44369,57477214
10,3,-0.739691,-0.0789764,9.77091,0.0443008,-0.54472,0.960537,-0.0074019,-0.000797318,0.0977087,1,3.67706e-05,-2.57287e-05,2.4842e-05,0.00735411,-0.00514574,0.0049684,0,0,0,0,0.103153,0.523226,-0.973174,34.5,1,44369,57477214
10,4,-0.746985,-0.0792447,9.78112,0.0360509,-0.54576,0.97574,-0.00747163,-0.000798799,0.097811,1,3.10913e-05,-9.23502e-06,1.80192e-05,0.00621826,-0.001847,0.00360383,0,0,0,0,0.100734,0.520365,-0.975752,34.5,1,44370,57477314
10,5,-0.746985,-0.0792447,9.78112,0.0360509,-0.54576,0.97574,-0.00747163,-0.000798799,0.097811,1,3.10913e-05,-9.23502e-06,1.80192e-05,0.00621826,-0.001847,0.00360383,0,0,0,0,0.100734,0.520365,-0.975752,34.5,1,44370,57477314
10,6,-0.739616,-0.0619206,9.78529,0.0498491,-0.529272,0.986398,-0.00739675,-0.000630146,0.0978528,1,5.48885e-05,-3.14229e-06,1.34032e-05,0.0109777,-0.000628457,0.00268064,0,0,0,0,0.0998657,0.516932,-0.974309,34.5,1,44371,57477414
11,1,-0.739616,-0.0619206,9.78529,0.0498491,-0.529272,0.986398,-0.00739675,-0.000630146,0.0978528,1,5.48885e-05,-3.14229e-06,1.34032e-05,0.0109777,-0.000628457,0.00268064,0,0,0,0,0.0998657,0.516932,-0.974309,34.5,1,44371,57477414
11,2,-0.751754,-0.0708717,9.77512,0.0408142,-0.538119,0.977332,-0.00752039,-0.000717997,0.0977509,1,4.57169e-05,-1.47279e-05,2.27632e-05,0.00914338,-0.00294557,0.00455263,0,0,0,0,0.0995042,0.517812,-0.968732,34.5,1,44372,57477514
11,3,-0.751754,-0.0708717,9.77512,0.0408142,-0.538119,0.977332,-0.00752039,-0.000717997,0.0977509,1,4.57169e-05,-1.47279e-05,2.27632e-05,0.00914338,-0.00294557,0.00455263,0,0,0,0,0.0995042,0.517812,-0.968732,34.5,1,44372,57477514
11,4,-0.747426,-0.0818733,9.77973,0.040482,-0.54886,0.974484,-0.00747462,-0.000827426,0.0977972,1,4.23248e-05,-2.08408e-06,2.76902e-05,0.00846497,-0.000416815,0.00553804,0,0,0,0,0.100056,0.520166,-0.964137,34.5,1,44373,57477614
11,5,-0.747426,-0.0818733,9.77973,0.040482,-0.54886,0.974484,-0.00747462,-0.000827426,0.0977972,1,4.23248e-05,-2.08408e-06,2.76902e-05,0.00846497,-0.000416815,0.00553804,0,0,0,0,0.100056,0.520166,-0.964137,34.5,1,44373,57477614
11,6,-0.730901,-0.0583554,9.78017,0.0578652,-0.523595,0.972237,-0.00731035,-0.000592696,0.0978015,1,4.59775e-05,-6.91594e-06,1.01311e-05,0.0091955,-0.00138319,0.00202621,0,0,0,0,0.101393,0.522159,-0.967129,34.5,1,44374,57477714
12,1,-0.730901,-0.0583554,9.78017,0.0578652,-0.523595,0.972237,-0.00731035,-0.000592696,0.0978015,1,4.59775e-05,-6.91594e-06,1.01311e-05,0.0091955,-0.00138319,0.00202621,0,0,0,0,0.101393,0.522159,-0.967129,34.5,1,44374,57477714
12,2,-0.718813,-0.0690286,9.79051,0.0710661,-0.542148,0.97916,-0.00718973,-0.000698549,0.0979049,1,4.1252e-05,-8.25339e-06,1.29082e-05,0.0082504,-0.00165068,0.00258164,0,0,0,0,0.101262,0.522737,-0.972166,34.5,1,44375,57477814
12,3,-0.718813,-0.0690286,9.79051,0.0710661,-0.542148,0.97916,-0.00718973,-0.000698549,0.0979049,1,4.1252e-05,-8.25339e-06,1.29082e-05,0.0082504,-0.00165068,0.00258164,0,0,0,0,0.101262,0.522737,-0.972166,34.5,1,44375,57477814
12,4,-0.743417,-0.0637822,9.78054,0.0448673,-0.533705,0.97688,-0.00743435,-0.000645485,0.0978054,1,3.80856e-05,-9.90961e-07,1.43682e-05,0.00761712,-0.000198192,0.00287363,0,0,0,0,0.100232,0.519421,-0.977286,34.5,1,44376,57477914
12,5,-0.743417,-0.0637822,9.78054,0.0448673,-0.533705,0.97688,-0.00743435,-0.000645485,0.0978054,1,3.80856e-05,-9.90961e-07,1.43682e-05,0.00761712,-0.000198192,0.00287363,0,0,0,0,0.100232,0.519421,-0.977286,34.5,1,44376,57477914
12,6,-0.746367,-0.081814,9.77871,0.0404972,-0.537633,0.978329,-0.00746377,-0.000828334,0.097787,1,5.03027e-05,-7.19256e-07,2.38342e-05,0.0100605,-0.000143851,0.00476684,0,0,0,0,0.100363,0.515952,-0.974333,34.5,1,44377,57478014
10,1,-0.746367,-0.081814,9.77871,0.0404972,-0.537633,0.978329,-0.00746377,-0.000828334,0.097787,1,5.03027e-05,-7.19256e-07,2.38342e-05,0.0100605,-0.000143851,0.00476684,0,0,0,0,0.100363,0.515952,-0.974333,34.5,1,44377,57478014
10,2,-0.72119,-0.0916204,9.78084,0.0477747,-0.527062,0.991841,-0.00721133,-0.000926094,0.0978083,1,4.8656e-05,2.65997e-06,2.58106e-05,0.0097312,0.000531994,0.00516212,0,0,0,0,0.0995122,0.517324,-0.968743,34.5,1,44378,57478114
10,3,-0.72119,-0.0916204,9.78084,0.0477747,-0.527062,0.991841,-0.00721133,-0.000926094,0.0978083,1,4.8656e-05,2.65997e-06,2.58106e-05,0.0097312,0.000531994,0.00516212,0,0,0,0,0.0995122,0.517324,-0.968743,34.5,1,44378,57478114
10,4,-0.755267,-0.0912492,9.80109,0.0293119,-0.547184,0.982585,-0.00755537,-0.000923942,0.0980105,1,5.70453e-05,-1.39029e-05,1.77605e-05,0.0114091,-0.00278058,0.0035521,0,0,0,0,0.0995412,0.517785,-0.967218,34.5,1,44379,57478214
10,5,-0.755267,-0.0912492,9.80109,0.0293119,-0.547184,0.982585,-0.00755537,-0.000923942,0.0980105,1,5.70453e-05,-1.39029e-05,1.77605e-05,0.0114091,-0.00278058,0.0035521,0,0,0,0,0.0995412,0.517785,-0.967218,34.5,1,44379,57478214
10,6,-0.737464,-0.0680096,9.78421,0.0464636,-0.539415,0.979027,-0.00737805,-0.000691856,0.0978417,1,5.87329e-05,-1.75426e-05,1.81123e-05,0.0117466,-0.00350851,0.00362246,0,0,0,0,0.102351,0.520227,-0.968691,34.5,1,44380,57478314
14,1,-0.737464,-0.0680096,9.78421,0.0464636,-0.539415,0.979027,-0.00737805,-0.000691856,0.0978417,1,5.87329e-05,-1.75426e-05,1.81123e-05,0.0117466,-0.00350851,0.00362246,0,0,0,0,0.102351,0.520227,-0.968691,34.5,1,44380,57478314
14,2,-0.734992,-0.0643601,9.80152,0.0540329,-0.549653,0.990025,-0.0073536,-0.000653274,0.0980149,1,4.78961e-05,-1.8915e-05,1.92822e-05,0.00957921,-0.003783,0.00385644,0,0,0,0,0.104193,0.520753,-0.971719,34.5,1,44381,57478414
14,3,-0.734992,-0.0643601,9.80152,0.0540329,-0.549653,0.990025,-0.0073536,-0.000653274,0.0980149,1,4.78961e-05,-1.8915e-05,1.92822e-05,0.00957921,-0.003783,0.00385644,0,0,0,0,0.104193,0.520753,-0.971719,34.5,1,44381,57478414
14,4,-0.759637,-0.0684477,9.7718,0.0342786,-0.555243,0.959837,-0.00760073,-0.00069471,0.0977176,1,5.06712e-05,-2.246e-05,2.17187e-05,0.0101342,-0.00449201,0.00434373,0,0,0,0,0.101738,0.519363,-0.974769,34.5,1,44382,57478514
14,5,-0.759637,-0.0684477,9.7718,0.0342786,-0.555243,0.959837,-0.00760073,-0.00069471,0.0977176,1,5.06712e-05,-2.246e-05,2.17187e-05,0.0101342,-0.00449201,0.00434373,0,0,0,0,0.101738,0.519363,-0.974769,34.5,1,44382,57478514
14,6,-0.746362,-0.0841866,9.7753,0.0272014,-0.572562,0.980587,-0.00746435,-0.000851511,0.0977529,1,4.89205e-05,-3.79247e-06,5.40158e-06,0.00978411,-0.000758493,0.00108032,0,0,0,0,0.100857,0.517384,-0.972788,34.5,1,44383,57478614
15,1,-0.746362,-0.0841866,9.7753,0.0272014,-0.572562,0.980587,-0.00746435,-0.000851511,0.0977529,1,4.89205e-05,-3.79247e-06,5.40158e-06,0.00978411,-0.000758493,0.00108032,0,0,0,0,0.100857,0.517384,-0.972788,34.5,1,44383,57478614
15,2,-0.741491,-0.073292,9.78826,0.045085,-0.547789,0.988382,-0.00741953,-0.000743026,0.0978821,1,5.0729e-05,-2.3706e-05,1.18001e-05,0.0101458,-0.0047412,0.00236001,0,0,0,0,0.0995369,0.517306,-0.967733,34.5,1,44384,57478714
15,3,-0.741491,-0.073292,9.78826,0.045085,-0.547789,0.988382,-0.00741953,-0.000743026,0.0978821,1,5.0729e-05,-2.3706e-05,1.18001e-05,0.0101458,-0.0047412,0.00236001,0,0,0,0,0.0995369,0.517306,-0.967733,34.5,1,44384,57478714
15,4,-0.753769,-0.0838193,9.76993,0.0466522,-0.561453,0.976196,-0.00754176,-0.000849184,0.0976989,1,5.4704e-05,-2.09716e-05,2.0001e-05,0.0109408,-0.00419431,0.00400021,0,0,0,0,0.101042,0.518694,-0.964174,34.5,1,44385,57478814
15,5,-0.753769,-0.0838193,9.76993,0.0466522,-0.561453,0.976196,-0.00754176,-0.000849184,0.0976989,1,5.4704e-05,-2.09716e-05,2.0001e-05,0.0109408,-0.00419431,0.00400021,0,0,0,0,0.101042,0.518694,-0.964174,34.5,1,44385,57478814
15,6,-0.766549,-0.0739323,9.76602,0.0555684,-0.55132,0.970325,-0.00766762,-0.000749252,0.09766,1,4.93079e-05,-1.10455e-05,1.94424e-05,0.00986158,-0.0022091,0.00388848,0,0,0,0,0.102371,0.521175,-0.967155,34.5,1,44386,57478914
16,1,-0.766549,-0.0739323,9.76602,0.0555684,-0.55132,0.970325,-0.00766762,-0.000749252,0.09766,1,4.93079e-05,-1.10455e-05,1.94424e-05,0.00986158,-0.0022091,0.00388848,0,0,0,0,0.102371,0.521175,-0.967155,34.5,1,44386,57478914
16,2,-0.740395,-0.0511861,9.78301,0.0774048,-0.537548,0.997829,-0.00740673,-0.000522809,0.0978298,1,5.44991e-05,-1.43308e-05,1.9217e-05,0.0108998,-0.00286616,0.0038434,0,0,0,0,0.101767,0.521269,-0.972201,34.5,1,44387,57479014
16,3,-0.740395,-0.0511861,9.78301,0.0774048,-0.537548,0.997829,-0.00740673,-0.000522809,0.0978298,1,5.44991e-05,-1.43308e-05,1.9217e-05,0.0108998,-0.00286616,0.0038434,0,0,0,0,0.101767,0.521269,-0.972201,34.5,1,44387,57479014
16,4,-0.754989,-0.046414,9.77705,0.0583414,-0.525671,0.98643,-0.00755211,-0.000471781,0.0977703,1,3.84116e-05,-1.14033e-05,8.64395e-06,0.00768233,-0.00228066,0.00172879,0,0,0,0,0.101256,0.519367,-0.974766,34.5,1,44388,57479114
16,5,-0.754989,-0.046414,9.77705,0.0583414,-0.525671,0.98643,-0.00755211,-0.000471781,0.0977703,1,3.84116e-05,-1.14033e-05,8.64395e-06,0.00768233,-0.00228066,0.00172879,0,0,0,0,0.101256,0.519367,-0.974766,34.5,1,44388,57479114
16,6,-0.749694,-0.0569837,9.8105,0.066604,-0.531112,1.01373,-0.00749837,-0.000578567,0.0981049,1,4.29154e-05,-7.37996e-06,2.06136e-05,0.00858308,-0.00147599,0.00412273,0,0,0,0,0.0999312,0.51592,-0.972311,34.5,1,44389,57479214
17,1,-0.749694,-0.0569837,9.8105,0.066604,-0.531112,1.01373,-0.00749837,-0.000578567,0.0981049,1,4.29154e-05,-7.37996e-06,2.06136e-05,0.00858308,-0.00147599,0.00412273,0,0,0,0,0.0999312,0.51592,-0.972311,34.5,1,44389,57479214
17,2,-0.762088,-0.0807147,9.76764,0.0787032,-0.514953,0.984539,-0.00762187,-0.000815385,0.0976763,1,4.02071e-05,-5.31849e-06,2.51587e-05,0.00804141,-0.0010637,0.00503174,0,0,0,0,0.0990515,0.516831,-0.968247,34.5,1,44390,57479314
17,3,-0.762088,-0.0807147,9.76764,0.0787032,-0.514953,0.984539,-0.00762187,-0.000815385,0.0976763,1,4.02071e-05,-5.31849e-06,2.51587e-05,0.00804141,-0.0010637,0.00503174,0,0,0,0,0.0990515,0.516831,-0.968247,34.5,1,44390,57479314
17,4,-0.727464,-0.0835099,9.78876,0.107987,-0.511131,0.987499,-0.00727831,-0.000845745,0.0978873,1,5.35641e-05,-1.88315e-05,1.09356e-05,0.0107128,-0.00376631,0.00218711,0,0,0,0,0.100039,0.519696,-0.965157,34.5,1,44391,57479414
17,5,-0.727464,-0.0835099,9.78876,0.107987,-0.511131,0.987499,-0.00727831,-0.000845745,0.0978873,1,5.35641e-05,-1.88315e-05,1.09356e-05,0.0107128,-0.00376631,0.00218711,0,0,0,0,0.100039,0.519696,-0.965157,34.5,1,44391,57479414
17,6,-0.734402,-0.0722651,9.795,0.0858201,-0.524122,0.984448,-0.00734646,-0.000733947,0.0979497,1,5.65256e-05,-1.25359e-05,1.52067e-05,0.0113051,-0.00250717,0.00304133,0,0,0,0,0.100427,0.521688,-0.96764,34.5,1,44392,57479514
18,1,-0.734402,-0.0722651,9.795,0.0858201,-0.524122,0.984448,-0.00734646,-0.000733947,0.0979497,1,5.65256e-05,-1.25359e-05,1.52067e-05,0.0113051,-0.00250717,0.00304133,0,0,0,0,0.100427,0.521688,-0.96764,34.5,1,44392,57479514
18,2,-0.740926,-0.0447722,9.78238,0.0710525,-0.529176,0.961272,-0.00741014,-0.00045827,0.0978237,1,5.27407e-05,-4.54493e-06,1.54361e-05,0.0105481,-0.000908987,0.00308721,0,0,0,0,0.102713,0.520792,-0.973226,34.5,1,44393,57479614
18,3,-0.740926,-0.0447722,9.78238,0.0710525,-0.529176,0.961272,-0.00741014,-0.00045827,0.0978237,1,5.27407e-05,-4.54493e-06,1.54361e-05,0.0105481,-0.000908987,0.00308721,0,0,0,0,0.102713,0.520792,-0.973226,34.5,1,44393,57479614
18,4,-0.738385,-0.0494995,9.78539,0.0449839,-0.559341,0.958693,-0.00738602,-0.000505941,0.0978537,1,5.50765e-05,-1.11388e-05,1.13009e-05,0.0110153,-0.00222775,0.00226017,0,0,0,0,0.101712,0.517936,-0.97682,34.5,1,44394,57479714
18,5,-0.738385,-0.0494995,9.78539,0.0449839,-0.559341,0.958693,-0.00738602,-0.000505941,0.0978537,1,5.50765e-05,-1.11388e-05,1.13009e-05,0.0110153,-0.00222775,0.00226017,0,0,0,0,0.101712,0.517936,-0.97682,34.5,1,44394,57479714
18,6,-0.732319,-0.0473313,9.78096,0.026625,-0.553049,0.955308,-0.00732616,-0.000484888,0.0978093,1,5.79785e-05,-1.52677e-05,1.59224e-05,0.0115957,-0.00305355,0.00318449,0,0,0,0,0.0999104,0.514971,-0.973848,34.5,1,44395,57479814
19,1,-0.732319,-0.0473313,9.78096,0.026625,-0.553049,0.955308,-0.00732616,-0.000484888,0.0978093,1,5.79785e-05,-1.52677e-05,1.59224e-05,0.0115957,-0.00305355,0.00318449,0,0,0,0,0.0999104,0.514971,-0.973848,34.5,1,44395,57479814
19,2,-0.746041,-0.0595449,9.77621,0.000109722,-0.561087,0.961393,-0.00746289,-0.000606627,0.0977618,1,5.55871e-05,-1.28059e-05,2.0777e-05,0.0111174,-0.00256118,0.0041554,0,0,0,0,0.0995407,0.51634,-0.96826,34.5,1,44396,57479914
19,3,-0.746041,-0.0595449,9.77621,0.000109722,-0.561087,0.961393,-0.00746289,-0.000606627,0.0977618,1,5.55871e-05,-1.28059e-05,2.0777e-05,0.0111174,-0.00256118,0.0041554,0,0,0,0,0.0995407,0.51634,-0.96826,34.5,1,44396,57479914
19,4,-0.767333,-0.0765475,9.78061,-0.00385845,-0.566481,0.971959,-0.00767614,-0.000776288,0.0978058,1,5.3853e-05,-1.44949e-05,1.81715e-05,0.0107706,-0.00289898,0.0036343,0,0,0,0,0.101474,0.518726,-0.966195,34.5,1,44397,57480014
19,5,-0.767333,-0.0765475,9.78061,-0.00385845,-0.566481,0.971959,-0.00767614,-0.000776288,0.0978058,1,5.3853e-05,-1.44949e-05,1.81715e-05,0.0107706,-0.00289898,0.0036343,0,0,0,0,0.101474,0.518726,-0.966195,34.5,1,44397,57480014
19,6,-0.750752,-0.0817105,9.77196,0.0302981,-0.57708,0.97316,-0.00751055,-0.000828538,0.0977193,1,5.82021e-05,-1.55341e-05,3.81852e-06,0.0116404,-0.00310682,0.000763704,0,0,0,0,0.10277,0.521713,-0.970176,34.5,1,44398,57480114
20,1,-0.750752,-0.0817105,9.77196,0.0302981,-0.57708,0.97316,-0.00751055,-0.000828538,0.0977193,1,5.82021e-05,-1.55341e-05,3.81852e-06,0.0116404,-0.00310682,0.000763704,0,0,0,0,0.10277,0.521713,-0.970176,34.5,1,44398,57480114
20,2,-0.727072,-0.0671245,9.77431,0.070728,-0.561818,0.985813,-0.00727298,-0.000681095,0.0977428,1,4.88609e-05,-1.17082e-05,2.05562e-05,0.00977218,-0.00234163,0.00411124,0,0,0,0,0.103128,0.521799,-0.975226,34.5,1,44399,57480214
20,3,-0.727072,-0.0671245,9.77431,0.070728,-0.561818,0.985813,-0.00727298,-0.000681095,0.0977428,1,4.88609e-05,-1.17082e-05,2.05562e-05,0.00977218,-0.00234163,0.00411124,0,0,0,0,0.103128,0.521799,-0.975226,34.5,1,44399,57480214
20,4,-0.713272,-0.079492,9.80157,0.10125,-0.580633,1.0261,-0.00713313,-0.000806229,0.0980156,1,5.71403e-05,-2.14378e-06,7.58472e-06,0.0114281,-0.000428757,0.00151694,0,0,0,0,0.102621,0.518931,-0.978318,34.5,1,44400,57480314
20,5,-0.713272,-0.079492,9.80157,0.10125,-0.580633,1.0261,-0.00713313,-0.000806229,0.0980156,1,5.71403e-05,-2.14378e-06,7.58472e-06,0.0114281,-0.000428757,0.00151694,0,0,0,0,0.102621,0.518931,-0.978318,34.5,1,44400,57480314
20,6,-0.701717,-0.0672828,9.81177,0.101759,-0.561777,1.01735,-0.00701856,-0.000682038,0.0981176,1,4.58713e-05,-7.18421e-06,1.48567e-05,0.00917426,-0.00143684,0.00297133,0,0,0,0,0.0994131,0.515951,-0.973823,34.5,1,44401,57480414
21,1,-0.701717,-0.0672828,9.81177,0.101759,-0.561777,1.01735,-0.00701856,-0.000682038,0.0981176,1,4.58713e-05,-7.18421e-06,1.48567e-05,0.00917426,-0.00143684,0.00297133,0,0,0,0,0.0994131,0.515951,-0.973823,34.5,1,44401,57480414
21,2,-0.721243,-0.0553567,9.78081,0.0489292,-0.541707,0.972579,-0.00721711,-0.000563072,0.0978077,1,4.68846e-05,-2.40376e-05,2.3173e-05,0.00937692,-0.00480753,0.00463461,0,0,0,0,0.099109,0.516308,-0.966238,34.5,1,44402,57480514
21,3,-0.721243,-0.0553567,9.78081,0.0489292,-0.541707,0.972579,-0.00721711,-0.000563072,0.0978077,1,4.68846e-05,-2.40376e-05,2.3173e-05,0.00937692,-0.00480753,0.00463461,0,0,0,0,0.099109,0.516308,-0.966238,34.5,1,44402,57480514
21,4,-0.750304,-0.060683,9.76028,0.0207291,-0.544269,0.937239,-0.00750489,-0.00061427,0.0976026,1,3.71897e-05,-9.56707e-06,1.20212e-05,0.00743793,-0.00191341,0.00240424,0,0,0,0,0.101014,0.519679,-0.964657,34.5,1,44403,57480614
21,5,-0.750304,-0.060683,9.76028,0.0207291,-0.544269,0.937239,-0.00750489,-0.00061427,0.0976026,1,3.71897e-05,-9.56707e-06,1.20212e-05,0.00743793,-0.00191341,0.00240424,0,0,0,0,0.101014,0.519679,-0.964657,34.5,1,44403,57480614
21,6,-0.756326,-0.0647796,9.77046,0.0217142,-0.563582,0.952574,-0.00756523,-0.000658588,0.0977043,1,5.4162e-05,-1.01887e-05,1.3759e-05,0.0108324,-0.00203773,0.0027518,0,0,0,0,0.102286,0.522684,-0.969647,34.5,1,44404,57480714
22,1,-0.756326,-0.0647796,9.77046,0.0217142,-0.563582,0.952574,-0.00756523,-0.000658588,0.0977043,1,5.4162e-05,-1.01887e-05,1.3759e-05,0.0108324,-0.00203773,0.0027518,0,0,0,0,0.102286,0.522684,-0.969647,34.5,1,44404,57480714
22,2,-0.735452,-0.0769315,9.78004,0.0493495,-0.592289,0.969053,-0.00735646,-0.000778141,0.0978002,1,4.40739e-05,-1.00173e-05,1.39642e-05,0.00881479,-0.00200346,0.00279284,0,0,0,0,0.103601,0.522283,-0.975217,34.5,1,44405,57480814
22,3,-0.735452,-0.0769315,9.78004,0.0493495,-0.592289,0.969053,-0.00735646,-0.000778141,0.0978002,1,4.40739e-05,-1.00173e-05,1.39642e-05,0.00881479,-0.00200346,0.00279284,0,0,0,0,0.103601,0.522283,-0.975217,34.5,1,44405,57480814
22,4,-0.728433,-0.0773242,9.80035,0.05537,-0.595555,0.992523,-0.00728794,-0.000783126,0.0980031,1,4.93247e-05,-1.8563e-05,1.48658e-05,0.00986495,-0.0037126,0.00297316,0,0,0,0,0.10071,0.520383,-0.976761,34.5,1,44406,57480914
22,5,-0.728433,-0.0773242,9.80035,0.05537,-0.595555,0.992523,-0.00728794,-0.000783126,0.0980031,1,4.93247e-05,-1.8563e-05,1.48658e-05,0.00986495,-0.0037126,0.00297316,0,0,0,0,0.10071,0.520383,-0.976761,34.5,1,44406,57480914
22,6,-0.714776,-0.0686516,9.78946,0.0715333,-0.573107,0.981273,-0.00714872,-0.00069435,0.0978945,1,3.85084e-05,-5.06796e-06,2.05562e-05,0.00770168,-0.00101359,0.00411123,0,0,0,0,0.0994136,0.517396,-0.972781,34.5,1,44407,57481014
23,1,-0.714776,-0.0686516,9.78946,0.0715333,-0.573107,0.981273,-0.00714872,-0.00069435,0.0978945,1,3.85084e-05,-5.06796e-06,2.05562e-05,0.00770168,-0.00101359,0.00411123,0,0,0,0,0.0994136,0.517396,-0.972781,34.5,1,44407,57481014
23,2,-0.701781,-0.0632425,9.79621,0.0749161,-0.562759,0.988947,-0.00701927,-0.000638605,0.097962,1,3.15495e-05,-7.45428e-06,-7.64966e-08,0.00630989,-0.00149086,-1.52993e-05,0,0,0,0,0.0990928,0.517283,-0.966217,34.5,1,44408,57481114
23,3,-0.701781,-0.0632425,9.79621,0.0749161,-0.562759,0.988947,-0.00701927,-0.000638605,0.097962,1,3.15495e-05,-7.45428e-06,-7.64966e-08,0.00630989,-0.00149086,-1.52993e-05,0,0,0,0,0.0990928,0.517283,-0.966217,34.5,1,44408,57481114
23,4,-0.704598,-0.0568227,9.77797,0.0737133,-0.55787,0.970069,-0.00705015,-0.000578698,0.0977793,1,5.199e-05,-2.14153e-05,2.15357e-05,0.010398,-0.00428306,0.00430715,0,0,0,0,0.10251,0.518664,-0.963171,34.5,1,44409,57481214
23,5,-0.704598,-0.0568227,9.77797,0.0737133,-0.55787,0.970069,-0.00705015,-0.000578698,0.0977793,1,5.199e-05,-2.14153e-05,2.15357e-05,0.010398,-0.00428306,0.00430715,0,0,0,0,0.10251,0.518664,-0.963171,34.5,1,44409,57481214
23,6,-0.690206,-0.0746531,9.78993,0.0885609,-0.582616,0.975878,-0.00690387,-0.000756147,0.0978991,1,4.7747e-05,-9.37879e-06,1.94162e-05,0.00954939,-0.00187576,0.00388324,0,0,0,0,0.105205,0.522154,-0.968662,34.5,1,44410,57481314
24,1,-0.690206,-0.0746531,9.78993,0.0885609,-0.582616,0.975878,-0.00690387,-0.000756147,0.0978991,1,4.7747e-05,-9.37879e-06,1.94162e-05,0.00954939,-0.00187576,0.00388324,0,0,0,0,0.105205,0.522154,-0.968662,34.5,1,44410,57481314
24,2,-0.695496,-0.0719437,9.77641,0.0818849,-0.580747,0.964321,-0.00695522,-0.000732281,0.097764,1,6.36559e-05,-1.55167e-06,2.85917e-05,0.0127312,-0.000310333,0.00571833,0,0,0,0,0.103614,0.522274,-0.974712,34.5,1,44411,57481414
24,3,-0.695496,-0.0719437,9.77641,0.0818849,-0.580747,0.964321,-0.00695522,-0.000732281,0.097764,1,6.36559e-05,-1.55167e-06,2.85917e-05,0.0127312,-0.000310333,0.00571833,0,0,0,0,0.103614,0.522274,-0.974712,34.5,1,44411,57481414
24,4,-0.735912,-0.0762044,9.78275,0.0427601,-0.584406,0.976503,-0.00735759,-0.000773614,0.0978275,1,5.84145e-05,7.74256e-06,9.54388e-06,0.0116829,0.00154851,0.00190878,0,0,0,0,0.100237,0.519899,-0.97677,34.5,1,44412,57481514
24,5,-0.735912,-0.0762044,9.78275,0.0427601,-0.584406,0.976503,-0.00735759,-0.000773614,0.0978275,1,5.84145e-05,7.74256e-06,9.54388e-06,0.0116829,0.00154851,0.00190878,0,0,0,0,0.100237,0.519899,-0.97677,34.5,1,44412,57481514
24,6,-0.757246,-0.0729339,9.77785,0.0182186,-0.589932,0.973909,-0.00757557,-0.000738719,0.0977782,1,4.70597e-05,-1.5974e-05,1.1707e-05,0.00941193,-0.00319479,0.00234139,0,0,0,0,0.0984803,0.517865,-0.971251,34.5,1,44413,57481614
25,1,-0.757246,-0.0729339,9.77785,0.0182186,-0.589932,0.973909,-0.00757557,-0.000738719,0.0977782,1,4.70597e-05,-1.5974e-05,1.1707e-05,0.00941193,-0.00319479,0.00234139,0,0,0,0,0.0984803,0.517865,-0.971251,34.5,1,44413,57481614
25,2,-0.762116,-0.0726583,9.77923,0.0176849,-0.586835,0.975847,-0.0076212,-0.000736376,0.0977922,1,4.87306e-05,-3.66741e-07,1.72219e-05,0.00974611,-7.33482e-05,0.00344439,0,0,0,0,0.0976125,0.517322,-0.967724,34.5,1,44414,57481714
25,3,-0.762116,-0.0726583,9.77923,0.0176849,-0.586835,0.975847,-0.0076212,-0.000736376,0.0977922,1,4.87306e-05,-3.66741e-07,1.72219e-05,0.00974611,-7.33482e-05,0.00344439,0,0,0,0,0.0976125,0.517322,-0.967724,34.5,1,44414,57481714
25,4,-0.763567,-0.0724305,9.78875,0.0161427,-0.586702,0.979342,-0.00763929,-0.000734431,0.0978872,1,5.05597e-05,-1.86338e-05,1.48732e-05,0.0101119,-0.00372677,0.00297463,0,0,0,0,0.100981,0.518739,-0.966698,34.5,1,44415,57481814
25,5,-0.763567,-0.0724305,9.78875,0.0161427,-0.586702,0.979342,-0.00763929,-0.000734431,0.0978872,1,5.05597e-05,-1.86338e-05,1.48732e-05,0.0101119,-0.00372677,0.00297463,0,0,0,0,0.100981,0.518739,-0.966698,34.5,1,44415,57481814
25,6,-0.746522,-0.0743433,9.78896,0.0367945,-0.588965,0.979529,-0.00746948,-0.000754204,0.0978892,1,5.39999e-05,-2.18395e-05,1.32805e-05,0.0108,-0.0043679,0.0026561,0,0,0,0,0.104707,0.521688,-0.96968,34.5,1,44416,57481914
26,1,-0.746522,-0.0743433,9.78896,0.0367945,-0.588965,0.979529,-0.00746948,-0.000754204,0.0978892,1,5.39999e-05,-2.18395e-05,1.32805e-05,0.0108,-0.0043679,0.0026561,0,0,0,0,0.104707,0.521688,-0.96968,34.5,1,44416,57481914
26,2,-0.754385,-0.0689292,9.7911,0.0245589,-0.583839,0.983667,-0.00754796,-0.000700452,0.0979106,1,5.52199e-05,-2.11451e-05,2.30166e-05,0.011044,-0.00422901,0.00460332,0,0,0,0,0.104649,0.519321,-0.973773,34.5,1,44417,57482014
26,3,-0.754385,-0.0689292,9.7911,0.0245589,-0.583839,0.983667,-0.00754796,-0.000700452,0.0979106,1,5.52199e-05,-2.11451e-05,2.30166e-05,0.011044,-0.00422901,0.00460332,0,0,0,0,0.104649,0.519321,-0.973773,34.5,1,44417,57482014
26,4,-0.749059,-0.066769,9.77921,0.0309831,-0.587588,0.967944,-0.00749399,-0.000676873,0.0977918,1,4.55287e-05,-1.75517e-05,1.85668e-05,0.00910573,-0.00351034,0.00371336,0,0,0,0,0.101766,0.516934,-0.975328,34.5,1,44418,57482114
26,5,-0.749059,-0.066769,9.77921,0.0309831,-0.587588,0.967944,-0.00749399,-0.000676873,0.0977918,1,4.55287e-05,-1.75517e-05,1.85668e-05,0.00910573,-0.00351034,0.00371336,0,0,0,0,0.101766,0.516934,-0.975328,34.5,1,44418,57482114
26,6,-0.749278,-0.065461,9.77921,0.02576,-0.579284,0.971988,-0.00749441,-0.000664207,0.0977919,1,4.71079e-05,-8.50854e-06,2.55857e-05,0.00942159,-0.00170171,0.00511714,0,0,0,0,0.0999312,0.51592,-0.972311,34.5,1,44419,57482214
27,1,-0.749278,-0.065461,9.77921,0.02576,-0.579284,0.971988,-0.00749441,-0.000664207,0.0977919,1,4.71079e-05,-8.50854e-06,2.55857e-05,0.00942159,-0.00170171,0.00511714,0,0,0,0,0.0999312,0.51592,-0.972311,34.5,1,44419,57482214
27,2,-0.736115,-0.0697912,9.78554,0.038502,-0.587837,0.97902,-0.00736379,-0.00070701,0.0978551,1,4.59086e-05,-1.35395e-05,7.70378e-06,0.00918173,-0.0027079,0.00154076,0,0,0,0,0.100532,0.516792,-0.966739,34.5,1,44420,57482314
27,3,-0.736115,-0.0697912,9.78554,0.038502,-0.587837,0.97902,-0.00736379,-0.00070701,0.0978551,1,4.59086e-05,-1.35395e-05,7.70378e-06,0.00918173,-0.0027079,0.00154076,0,0,0,0,0.100532,0.516792,-0.966739,34.5,1,44420,57482314
27,4,-0.7223,-0.0576397,9.78453,0.054137,-0.571035,0.97578,-0.00722642,-0.000585364,0.097845,1,4.45692e-05,-1.75593e-05,1.70007e-05,0.00891384,-0.00351185,0.00340015,0,0,0,0,0.101968,0.520159,-0.964651,34.5,1,44421,57482414
27,5,-0.7223,-0.0576397,9.78453,0.054137,-0.571035,0.97578,-0.00722642,-0.000585364,0.097845,1,4.45692e-05,-1.75593e-05,1.70007e-05,0.00891384,-0.00351185,0.00340015,0,0,0,0,0.101968,0.520159,-0.964651,34.5,1,44421,57482414
27,6,-0.738282,-0.0591441,9.77987,0.0394445,-0.575585,0.970961,-0.0073853,-0.000600455,0.0977985,1,4.45695e-05,-1.27905e-05,2.00718e-05,0.0089139,-0.0025581,0.00401436,0,0,0,0,0.103244,0.525087,-0.968082,34.5,1,44422,57482514
28,1,-0.738282,-0.0591441,9.77987,0.0394445,-0.575585,0.970961,-0.0073853,-0.000600455,0.0977985,1,4.45695e-05,-1.27905e-05,2.00718e-05,0.0089139,-0.0025581,0.00401436,0,0,0,0,0.103244,0.525087,-0.968082,34.5,1,44422,57482514
28,2,-0.774435,-0.0631782,9.77126,0.00436703,-0.583006,0.960656,-0.00774555,-0.000640556,0.0977124,1,4.3748e-05,-6.2024e-06,1.44877e-05,0.0087496,-0.00124048,0.00289754,0,0,0,0,0.10363,0.522744,-0.973692,34.5,1,44423,57482614
28,3,-0.774435,-0.0631782,9.77126,0.00436703,-0.583006,0.960656,-0.00774555,-0.000640556,0.0977124,1,4.3748e-05,-6.2024e-06,1.44877e-05,0.0087496,-0.00124048,0.00289754,0,0,0,0,0.10363,0.522744,-0.973692,34.5,1,44423,57482614
28,4,-0.785581,-0.0609917,9.78221,-0.0091296,-0.584319,0.972796,-0.00785816,-0.000618316,0.0978218,1,4.21013e-05,-1.20327e-05,1.02857e-05,0.00842027,-0.00240655,0.00205714,0,0,0,0,0.101215,0.518916,-0.976796,34.5,1,44424,57482714
28,5,-0.785581,-0.0609917,9.78221,-0.0091296,-0.584319,0.972796,-0.00785816,-0.000618316,0.0978218,1,4.21013e-05,-1.20327e-05,1.02857e-05,0.00842027,-0.00240655,0.00205714,0,0,0,0,0.101215,0.518916,-0.976796,34.5,1,44424,57482714
28,6,-0.776092,-0.0578454,9.77912,-0.00627005,-0.580193,0.973484,-0.00776286,-0.00058688,0.097791,1,4.15035e-05,-1.00563e-05,1.98744e-05,0.0083007,-0.00201126,0.00397488,0,0,0,0,0.0999108,0.516417,-0.972805,34.5,1,44425,57482814
29,1,-0.776092,-0.0578454,9.77912,-0.00627005,-0.580193,0.973484,-0.00776286,-0.00058688,0.097791,1,4.15035e-05,-1.00563e-05,1.98744e-05,0.0083007,-0.00201126,0.00397488,0,0,0,0,0.0999108,0.516417,-0.972805,34.5,1,44425,57482814
29,2,-0.75329,-0.0699488,9.79004,0.0185265,-0.593013,0.985636,-0.00753239,-0.000709796,0.0979004,1,5.1232e-05,2.48308e-06,1.83677e-05,0.0102464,0.000496617,0.00367354,0,0,0,0,0.0991251,0.515332,-0.96626,34.5,1,44426,57482914
29,3,-0.75329,-0.0699488,9.79004,0.0185265,-0.593013,0.985636,-0.00753239,-0.000709796,0.0979004,1,5.1232e-05,2.48308e-06,1.83677e-05,0.0102464,0.000496617,0.00367354,0,0,0,0,0.0991251,0.515332,-0.96626,34.5,1,44426,57482914
29,4,-0.744785,-0.0662132,9.7846,0.0342587,-0.589887,0.981032,-0.00744772,-0.000670284,0.097846,1,4.11179e-05,5.99672e-07,7.09657e-06,0.00822358,0.000119934,0.00141931,0,0,0,0,0.102461,0.5187,-0.96519,34.5,1,44427,57483014
29,5,-0.744785,-0.0662132,9.7846,0.0342587,-0.589887,0.981032,-0.00744772,-0.000670284,0.097846,1,4.11179e-05,5.99672e-07,7.09657e-06,0.00822358,0.000119934,0.00141931,0,0,0,0,0.102461,0.5187,-0.96519,34.5,1,44427,57483014
29,6,-0.736794,-0.0651523,9.78796,0.041097,-0.589183,0.979877,-0.00737122,-0.000659437,0.0978793,1,3.95106e-05,-1.68379e-05,1.22058e-05,0.00790213,-0.00336758,0.00244116,0,0,0,0,0.103713,0.523647,-0.969632,34.5,1,44428,57483114
30,1,-0.736794,-0.0651523,9.78796,0.041097,-0.589183,0.979877,-0.00737122,-0.000659437,0.0978793,1,3.95106e-05,-1.68379e-05,1.22058e-05,0.00790213,-0.00336758,0.00244116,0,0,0,0,0.103713,0.523647,-0.969632,34.5,1,44428,57483114
30,2,-0.738,-0.0636585,9.78932,0.0382125,-0.590203,0.977246,-0.0073808,-0.000646071,0.0978931,1,4.74639e-05,-4.15151e-06,1.30909e-05,0.00949278,-0.000830301,0.00261818,0,0,0,0,0.102183,0.522277,-0.974201,34.5,1,44429,57483214
30,3,-0.738,-0.0636585,9.78932,0.0382125,-0.590203,0.977246,-0.0073808,-0.000646071,0.0978931,1,4.74639e-05,-4.15151e-06,1.30909e-05,0.00949278,-0.000830301,0.00261818,0,0,0,0,0.102183,0.522277,-0.974201,34.5,1,44429,57483214
30,4,-0.752747,-0.0689546,9.78193,0.0178068,-0.593113,0.973623,-0.00753074,-0.000697329,0.097819,1,3.77317e-05,-1.6911e-05,2.66263e-05,0.00754634,-0.0033822,0.00532527,0,0,0,0,0.100751,0.520835,-0.974731,34.5,1,44430,57483314
30,5,-0.752747,-0.0689546,9.78193,0.0178068,-0.593113,0.973623,-0.00753074,-0.000697329,0.097819,1,3.77317e-05,-1.6911e-05,2.66263e-05,0.00754634,-0.0033822,0.00532527,0,0,0,0,0.100751,0.520835,-0.974731,34.5,1,44430,57483314
30,6,-0.734804,-0.0617935,9.78017,0.04059,-0.589355,0.967847,-0.00735257,-0.000628591,0.0978013,1,5.31432e-05,-2.32325e-05,1.77698e-05,0.0106286,-0.0046465,0.00355396,0,0,0,0,0.101355,0.51785,-0.97177,34.5,1,44431,57483414
31,1,-0.734804,-0.0617935,9.78017,0.04059,-0.589355,0.967847,-0.00735257,-0.000628591,0.0978013,1,5.31432e-05,-2.32325e-05,1.77698e-05,0.0106286,-0.0046465,0.00355396,0,0,0,0,0.101355,0.51785,-0.97177,34.5,1,44431,57483414
31,2,-0.723053,-0.0607155,9.7862,0.04303,-0.589359,0.978881,-0.00723166,-0.000611577,0.0978618,1,2.19718e-05,-5.85052e-06,8.40428e-06,0.00439436,-0.0011701,0.00168086,0,0,0,0,0.0995616,0.517288,-0.966724,34.5,1,44432,57483514
31,3,-0.723053,-0.0607155,9.7862,0.04303,-0.589359,0.978881,-0.00723166,-0.000611577,0.0978618,1,2.19718e-05,-5.85052e-06,8.40428e-06,0.00439436,-0.0011701,0.00168086,0,0,0,0,0.0995616,0.517288,-0.966724,34.5,1,44432,57483514
31,4,-0.709438,-0.0630031,9.79357,0.0638069,-0.585974,0.985368,-0.00709887,-0.000636033,0.0979353,1,2.97967e-05,-2.29628e-05,1.16822e-05,0.00595935,-0.00459256,0.00233645,0,0,0,0,0.100052,0.519687,-0.964652,34.5,1,44433,57483614
31,5,-0.709438,-0.0630031,9.79357,0.0638069,-0.585974,0.985368,-0.00709887,-0.000636033,0.0979353,1,2.97967e-05,-2.29628e-05,1.16822e-05,0.00595935,-0.00459256,0.00233645,0,0,0,0,0.100052,0.519687,-0.964652,34.5,1,44433,57483614
31,6,-0.714169,-0.0605143,9.79258,0.0615984,-0.582649,0.976642,-0.00714212,-0.000613365,0.0979257,1,4.05125e-05,-2.30997e-06,2.01538e-05,0.00810251,-0.000461994,0.00403076,0,0,0,0,0.102787,0.520738,-0.970197,34.5,1,44434,57483714
32,1,-0.714169,-0.0605143,9.79258,0.0615984,-0.582649,0.976642,-0.00714212,-0.000613365,0.0979257,1,4.05125e-05,-2.30997e-06,2.01538e-05,0.00810251,-0.000461994,0.00403076,0,0,0,0,0.102787,0.520738,-0.970197,34.5,1,44434,57483714
32,2,-0.728375,-0.0787503,9.78099,0.0452582,-0.605595,0.969884,-0.00728541,-0.000794017,0.0978097,1,3.33544e-05,-8.48632e-06,-7.4112e-07,0.00667087,-0.00169726,-0.000148224,0,0,0,0,0.104115,0.520328,-0.975263,34.5,1,44435,57483814
32,3,-0.728375,-0.0787503,9.78099,0.0452582,-0.605595,0.969884,-0.00728541,-0.000794017,0.0978097,1,3.33544e-05,-8.48632e-06,-7.4112e-07,0.00667087,-0.00169726,-0.000148224,0,0,0,0,0.104115,0.520328,-0.975263,34.5,1,44435,57483814
32,4,-0.727452,-0.0647185,9.78348,0.0437015,-0.598287,0.968282,-0.00727588,-0.000655595,0.0978346,1,4.18275e-05,-7.05001e-06,1.55253e-05,0.0083655,-0.00141,0.00310507,0,0,0,0,0.0997884,0.519397,-0.975769,34.5,1,44436,57483914
32,5,-0.727452,-0.0647185,9.78348,0.0437015,-0.598287,0.968282,-0.00727588,-0.000655595,0.0978346,1,4.18275e-05,-7.05001e-06,1.55253e-05,0.0083655,-0.00141,0.00310507,0,0,0,0,0.0997884,0.519397,-0.975769,34.5,1,44436,57483914
32,6,-0.735619,-0.070399,9.79026,0.0342667,-0.603422,0.98263,-0.00735609,-0.000717363,0.0979025,1,6.72656e-05,4.10077e-07,1.37225e-05,0.0134531,8.20155e-05,0.00274449,0,0,0,0,0.0975422,0.51641,-0.971279,34.5,1,44437,57484014
33,1,-0.735619,-0.070399,9.79026,0.0342667,-0.603422,0.98263,-0.00735609,-0.000717363,0.0979025,1,6.72656e-05,4.10077e-07,1.37225e-05,0.0134531,8.20155e-05,0.00274449,0,0,0,0,0.0975422,0.51641,-0.971279,34.5,1,44437,57484014
33,2,-0.731873,-0.0512671,9.78803,0.0436228,-0.581539,0.979989,-0.00732076,-0.000523137,0.0978801,1,5.3186e-05,-1.03917e-05,3.6936e-06,0.0106372,-0.00207833,0.000738719,0,0,0,0,0.100042,0.515839,-0.967768,34.5,1,44438,57484114
33,3,-0.731873,-0.0512671,9.78803,0.0436228,-0.581539,0.979989,-0.00732076,-0.000523137,0.0978801,1,5.3186e-05,-1.03917e-05,3.6936e-06,0.0106372,-0.00207833,0.000738719,0,0,0,0,0.100042,0.515839,-0.967768,34.5,1,44438,57484114
33,4,-0.725716,-0.0521006,9.79477,0.0515852,-0.585079,0.983424,-0.00725891,-0.000528681,0.0979476,1,3.76162e-05,-9.03918e-06,2.10963e-05,0.00752323,-0.00180784,0.00421926,0,0,0,0,0.102901,0.51969,-0.966181,34.5,1,44439,57484214
33,5,-0.725716,-0.0521006,9.79477,0.0515852,-0.585079,0.983424,-0.00725891,-0.000528681,0.0979476,1,3.76162e-05,-9.03918e-06,2.10963e-05,0.00752323,-0.00180784,0.00421926,0,0,0,0,0.102901,0.51969,-0.966181,34.5,1,44439,57484214
33,6,-0.73378,-0.0705088,9.78178,0.0422063,-0.600439,0.967871,-0.00733971,-0.00071297,0.0978176,1,3.85717e-05,-9.93536e-06,2.28844e-05,0.00771434,-0.00198707,0.00457687,0,0,0,0,0.103725,0.522193,-0.970169,34.5,1,44440,57484314
34,1,-0.73378,-0.0705088,9.78178,0.0422063,-0.600439,0.967871,-0.00733971,-0.00071297,0.0978176,1,3.85717e-05,-9.93536e-06,2.28844e-05,0.00771434,-0.00198707,0.00457687,0,0,0,0,0.103725,0.522193,-0.970169,34.5,1,44440,57484314
34,2,-0.725164,-0.0749583,9.78949,0.0441477,-0.606932,0.976549,-0.00725428,-0.000755822,0.0978946,1,3.02344e-05,-1.36328e-05,2.19978e-05,0.00604689,-0.00272655,0.00439957,0,0,0,0,0.103625,0.52082,-0.97525,34.5,1,44441,57484414
34,3,-0.725164,-0.0749583,9.78949,0.0441477,-0.606932,0.976549,-0.00725428,-0.000755822,0.0978946,1,3.02344e-05,-1.36328e-05,2.19978e-05,0.00604689,-0.00272655,0.00439957,0,0,0,0,0.103625,0.52082,-0.97525,34.5,1,44441,57484414
34,4,-0.730083,-0.0812662,9.78403,0.0429084,-0.612272,0.969339,-0.00730125,-0.000824122,0.0978402,1,5.66708e-05,-2.37313e-06,2.54273e-05,0.0113342,-0.000474625,0.00508546,0,0,0,0,0.101215,0.518916,-0.976796,34.5,1,44442,57484514
34,5,-0.730083,-0.0812662,9.78403,0.0429084,-0.612272,0.969339,-0.00730125,-0.000824122,0.0978402,1,5.66708e-05,-2.37313e-06,2.54273e-05,0.0113342,-0.000474625,0.00508546,0,0,0,0,0.101215,0.518916,-0.976796,34.5,1,44442,57484514
34,6,-0.722184,-0.0754928,9.79014,0.0517601,-0.612644,0.980489,-0.00722351,-0.000765288,0.0979012,1,5.08837e-05,-8.74316e-06,2.74499e-05,0.0101767,-0.00174863,0.00548998,0,0,0,0,0.0999274,0.516886,-0.971785,34.5,1,44443,57484614
35,1,-0.722184,-0.0754928,9.79014,0.0517601,-0.612644,0.980489,-0.00722351,-0.000765288,0.0979012,1,5.08837e-05,-8.74316e-06,2.74499e-05,0.0101767,-0.00174863,0.00548998,0,0,0,0,0.0999274,0.516886,-0.971785,34.5,1,44443,57484614
35,2,-0.723989,-0.0534466,9.79237,0.0514291,-0.58781,0.983147,-0.00724282,-0.000541469,0.0979235,1,3.4621e-05,-1.50278e-05,1.54135e-05,0.00692419,-0.00300556,0.00308269,0,0,0,0,0.100503,0.517777,-0.967222,34.5,1,44444,57484714
35,3,-0.723989,-0.0534466,9.79237,0.0514291,-0.58781,0.983147,-0.00724282,-0.000541469,0.0979235,1,3.4621e-05,-1.50278e-05,1.54135e-05,0.00692419,-0.00300556,0.00308269,0,0,0,0,0.100503,0.517777,-0.967222,34.5,1,44444,57484714
35,4,-0.730107,-0.0600562,9.78117,0.0416643,-0.590921,0.971337,-0.00730356,-0.00061047,0.0978114,1,4.87119e-05,-1.28765e-05,2.59503e-05,0.00974238,-0.00257531,0.00519006,0,0,0,0,0.103354,0.519225,-0.967708,34.5,1,44445,57484814
35,5,-0.730107,-0.0600562,9.78117,0.0416643,-0.590921,0.971337,-0.00730356,-0.00061047,0.0978114,1,4.87119e-05,-1.28765e-05,2.59503e-05,0.00974238,-0.00257531,0.00519006,0,0,0,0,0.103354,0.519225,-0.967708,34.5,1,44445,57484814
35,6,-0.731193,-0.062818,9.77979,0.0425109,-0.595569,0.967433,-0.00731263,-0.000638696,0.0977978,1,5.32437e-05,-3.60447e-06,6.93446e-06,0.0106487,-0.000720893,0.00138689,0,0,0,0,0.103712,0.520757,-0.971716,34.5,1,44446,57484914
36,1,-0.731193,-0.062818,9.77979,0.0425109,-0.595569,0.967433,-0.00731263,-0.000638696,0.0977978,1,5.32437e-05,-3.60447e-06,6.93446e-06,0.0106487,-0.000720893,0.00138689,0,0,0,0,0.103712,0.520757,-0.971716,34.5,1,44446,57484914
36,2,-0.733841,-0.0660057,9.78351,0.033701,-0.60019,0.971732,-0.00734059,-0.000669374,0.0978349,1,4.61172e-05,-1.12486e-05,2.0003e-05,0.00922343,-0.00224973,0.00400061,0,0,0,0,0.101224,0.521318,-0.974723,34.5,1,44447,57485014
36,3,-0.733841,-0.0660057,9.78351,0.033701,-0.60019,0.971732,-0.00734059,-0.000669374,0.0978349,1,4.61172e-05,-1.12486e-05,2.0003e-05,0.00922343,-0.00224973,0.00400061,0,0,0,0,0.101224,0.521318,-0.974723,34.5,1,44447,57485014
36,4,-0.740301,-0.0707818,9.78317,0.0274936,-0.61211,0.97269,-0.00740363,-0.000718738,0.0978316,1,5.54026e-05,-3.18874e-06,5.38849e-06,0.0110805,-0.000637749,0.0010777,0,0,0,0,0.0998249,0.517925,-0.975297,34.5,1,44448,57485114
36,5,-0.740301,-0.0707818,9.78317,0.0274936,-0.61211,0.97269,-0.00740363,-0.000718738,0.0978316,1,5.54026e-05,-3.18874e-06,5.38849e-06,0.0110805,-0.000637749,0.0010777,0,0,0,0,0.0998249,0.517925,-0.975297,34.5,1,44448,57485114
36,6,-0.771836,-0.0685981,9.77324,0.000677945,-0.605567,0.967041,-0.00772158,-0.000696027,0.0977321,1,4.98966e-05,-1.66319e-05,1.89763e-05,0.00997932,-0.00332637,0.00379527,0,0,0,0,0.0995033,0.514921,-0.970816,34.5,1,44449,57485214
37,1,-0.771836,-0.0685981,9.77324,0.000677945,-0.605567,0.967041,-0.00772158,-0.000696027,0.0977321,1,4.98966e-05,-1.66319e-05,1.89763e-05,0.00997932,-0.00332637,0.00379527,0,0,0,0,0.0995033,0.514921,-0.970816,34.5,1,44449,57485214
37,2,-0.786824,-0.0688088,9.78385,-0.0145955,-0.615372,0.982166,-0.00787173,-0.000699228,0.0978382,1,5.55757e-05,-1.79465e-05,1.68386e-05,0.0111151,-0.00358931,0.00336771,0,0,0,0,0.0990724,0.51778,-0.96671,34.5,1,44450,57485314
37,3,-0.786824,-0.0688088,9.78385,-0.0145955,-0.615372,0.982166,-0.00787173,-0.000699228,0.0978382,1,5.55757e-05,-1.79465e-05,1.68386e-05,0.0111151,-0.00358931,0.00336771,0,0,0,0,0.0990724,0.51778,-0.96671,34.5,1,44450,57485314
37,4,-0.76562,-0.061969,9.78036,0.00478579,-0.597897,0.970808,-0.00765656,-0.000626496,0.0978036,1,3.42578e-05,-1.87209e-06,6.85089e-06,0.00685155,-0.000374419,0.00137018,0,0,0,0,0.10147,0.519693,-0.965669,34.5,1,44451,57485414
37,5,-0.76562,-0.061969,9.78036,0.00478579,-0.597897,0.970808,-0.00765656,-0.000626496,0.0978036,1,3.42578e-05,-1.87209e-06,6.85089e-06,0.00685155,-0.000374419,0.00137018,0,0,0,0,0.10147,0.519693,-0.965669,34.5,1,44451,57485414
37,6,-0.740864,-0.0697809,9.78828,0.0324528,-0.606925,0.975047,-0.00741297,-0.000701835,0.0978825,1,1.98351e-05,-2.21432e-05,9.68409e-06,0.00396702,-0.00442865,0.00193682,0,0,0,0,0.10275,0.52221,-0.970669,34.5,1,44452,57485514
38,1,-0.740864,-0.0697809,9.78828,0.0324528,-0.606925,0.975047,-0.00741297,-0.000701835,0.0978825,1,1.98351e-05,-2.21432e-05,9.68409e-06,0.00396702,-0.00442865,0.00193682,0,0,0,0,0.10275,0.52221,-0.970669,34.5,1,44452,57485514
38,2,-0.746335,-0.070096,9.7812,0.0231511,-0.608837,0.970389,-0.00746675,-0.000713118,0.0978116,1,6.01448e-05,-1.75649e-05,2.62205e-05,0.012029,-0.00351297,0.00524409,0,0,0,0,0.102655,0.521315,-0.975234,34.5,1,44453,57485614
38,3,-0.746335,-0.070096,9.7812,0.0231511,-0.608837,0.970389,-0.00746675,-0.000713118,0.0978116,1,6.01448e-05,-1.75649e-05,2.62205e-05,0.012029,-0.00351297,0.00524409,0,0,0,0,0.102655,0.521315,-0.975234,34.5,1,44453,57485614
38,4,-0.759378,-0.0667936,9.77893,0.0102671,-0.610571,0.970753,-0.00759427,-0.000680484,0.0977892,1,6.23466e-05,-2.6486e-06,2.32846e-05,0.0124693,-0.00052972,0.00465692,0,0,0,0,0.100759,0.518902,-0.975784,34.5,1,44454,57485714
38,5,-0.759378,-0.0667936,9.77893,0.0102671,-0.610571,0.970753,-0.00759427,-0.000680484,0.0977892,1,6.23466e-05,-2.6486e-06,2.32846e-05,0.0124693,-0.00052972,0.00465692,0,0,0,0,0.100759,0.518902,-0.975784,34.5,1,44454,57485714
38,6,-0.760922,-0.0682204,9.76094,0.00919369,-0.611988,0.951705,-0.00760998,-0.000690217,0.0976093,1,4.10434e-05,-3.90415e-06,2.06037e-08,0.00820868,-0.00078083,4.12074e-06,0,0,0,0,0.0989282,0.516922,-0.973295,34.5,1,44455,57485814
39,1,-0.760922,-0.0682204,9.76094,0.00919369,-0.611988,0.951705,-0.00760998,-0.000690217,0.0976093,1,4.10434e-05,-3.90415e-06,2.06037e-08,0.00820868,-0.00078083,4.12074e-06,0,0,0,0,0.0989282,0.516922,-0.973295,34.5,1,44455,57485814
39,2,-0.760925,-0.0531411,9.77091,0.00833714,-0.59056,0.961609,-0.00761051,-0.000540416,0.097709,1,4.44501e-05,-6.55859e-06,2.09455e-05,0.00889003,-0.00131172,0.00418909,0,0,0,0,0.0990359,0.519252,-0.967183,34.5,1,44456,57485914
39,3,-0.760925,-0.0531411,9.77091,0.00833714,-0.59056,0.961609,-0.00761051,-0.000540416,0.097709,1,4.44501e-05,-6.55859e-06,2.09455e-05,0.00889003,-0.00131172,0.00418909,0,0,0,0,0.0990359,0.519252,-0.967183,34.5,1,44456,57485914
39,4,-0.755758,-0.0625194,9.78744,0.017651,-0.602325,0.976831,-0.00756234,-0.000634289,0.0978739,1,4.53033e-05,-2.44063e-05,1.50015e-05,0.00906066,-0.00488126,0.0030003,0,0,0,0,0.102409,0.522593,-0.964599,34.5,1,44457,57486014
39,5,-0.755758,-0.0625194,9.78744,0.017651,-0.602325,0.976831,-0.00756234,-0.000634289,0.0978739,1,4.53033e-05,-2.44063e-05,1.50015e-05,0.00906066,-0.00488126,0.0030003,0,0,0,0,0.102409,0.522593,-0.964599,34.5,1,44457,57486014
39,6,-0.741955,-0.0717483,9.78284,0.0258734,-0.616805,0.972202,-0.00742175,-0.000728416,0.0978281,1,5.51231e-05,-1.12985e-05,9.99883e-06,0.0110246,-0.0022597,0.00199977,0,0,0,0,0.10465,0.523657,-0.970646,34.5,1,44458,57486114
40,1,-0.741955,-0.0717483,9.78284,0.0258734,-0.616805,0.972202,-0.00742175,-0.000728416,0.0978281,1,5.51231e-05,-1.12985e-05,9.99883e-06,0.0110246,-0.0022597,0.00199977,0,0,0,0,0.10465,0.523657,-0.970646,34.5,1,44458,57486114
40,2,-0.731387,-0.0663023,9.7913,0.0396229,-0.613326,0.976285,-0.00731569,-0.000674237,0.0979127,1,5.65351e-05,-9.34096e-06,9.73977e-06,0.011307,-0.00186819,0.00194795,0,0,0,0,0.104111,0.521294,-0.974737,34.5,1,44459,57486214
40,3,-0.731387,-0.0663023,9.7913,0.0396229,-0.613326,0.976285,-0.00731569,-0.000674237,0.0979127,1,5.65351e-05,-9.34096e-06,9.73977e-06,0.011307,-0.00186819,0.00194795,0,0,0,0,0.104111,0.521294,-0.974737,34.5,1,44459,57486214
40,4,-0.720437,-0.0724154,9.7949,0.0434778,-0.62228,0.984216,-0.00720734,-0.000735444,0.0979487,1,5.57451e-05,-1.53276e-05,2.5662e-05,0.011149,-0.00306552,0.0051324,0,0,0,0,0.100306,0.517921,-0.975299,34.5,1,44460,57486314
40,5,-0.720437,-0.0724154,9.7949,0.0434778,-0.62228,0.984216,-0.00720734,-0.000735444,0.0979487,1,5.57451e-05,-1.53276e-05,2.5662e-05,0.011149,-0.00306552,0.0051324,0,0,0,0,0.100306,0.517921,-0.975299,34.5,1,44460,57486314
40,6,-0.729979,-0.0728923,9.78988,0.0401808,-0.621286,0.983908,-0.00730227,-0.000737515,0.0978985,1,4.29265e-05,-1.27797e-05,1.27964e-05,0.0085853,-0.00255593,0.00255929,0,0,0,0,0.0994586,0.516881,-0.971278,34.5,1,44461,57486414
41,1,-0.729979,-0.0728923,9.78988,0.0401808,-0.621286,0.983908,-0.00730227,-0.000737515,0.0978985,1,4.29265e-05,-1.27797e-05,1.27964e-05,0.0085853,-0.00255593,0.00255929,0,0,0,0,0.0994586,0.516881,-0.971278,34.5,1,44461,57486414
41,2,-0.73323,-0.0719905,9.77429,0.0366112,-0.620167,0.965525,-0.00733376,-0.000731153,0.0977428,1,5.71534e-05,-7.54711e-06,5.184e-06,0.0114307,-0.00150942,0.0010368,0,0,0,0,0.100492,0.519231,-0.966685,34.5,1,44462,57486514
41,3,-0.73323,-0.0719905,9.77429,0.0366112,-0.620167,0.965525,-0.00733376,-0.000731153,0.0977428,1,5.71534e-05,-7.54711e-06,5.184e-06,0.0114307,-0.00150942,0.0010368,0,0,0,0,0.100492,0.519231,-0.966685,34.5,1,44462,57486514
41,4,-0.746158,-0.0691349,9.78187,0.0244711,-0.615584,0.969957,-0.0074621,-0.000702461,0.0978185,1,5.72857e-05,-2.63188e-06,-6.40173e-06,0.0114571,-0.000526376,-0.00128035,0,0,0,0,0.103815,0.521163,-0.967162,34.5,1,44463,57486614
41,5,-0.746158,-0.0691349,9.78187,0.0244711,-0.615584,0.969957,-0.0074621,-0.000702461,0.0978185,1,5.72857e-05,-2.63188e-06,-6.40173e-06,0.0114571,-0.000526376,-0.00128035,0,0,0,0,0.103815,0.521163,-0.967162,34.5,1,44463,57486614
41,6,-0.731559,-0.0755577,9.78273,0.0351462,-0.623213,0.966332,-0.00731415,-0.000765335,0.0978273,1,4.84585e-05,7.23452e-06,1.8973e-05,0.00969171,0.0014469,0.0037946,0,0,0,0,0.105119,0.523662,-0.971153,34.5,1,44464,57486714
42,1,-0.731559,-0.0755577,9.78273,0.0351462,-0.623213,0.966332,-0.00731415,-0.000765335,0.0978273,1,4.84585e-05,7.23452e-06,1.8973e-05,0.00969171,0.0014469,0.0037946,0,0,0,0,0.105119,0.523662,-0.971153,34.5,1,44464,57486714
42,2,-0.744241,-0.0837588,9.78547,0.0232253,-0.637708,0.973329,-0.00744398,-0.000849749,0.0978545,1,6.20298e-05,-8.05249e-06,1.40633e-06,0.012406,-0.0016105,0.000281267,0,0,0,0,0.104592,0.52129,-0.974739,34.5,1,44465,57486814
42,3,-0.744241,-0.0837588,9.78547,0.0232253,-0.637708,0.973329,-0.00744398,-0.000849749,0.0978545,1,6.20298e-05,-8.05249e-06,1.40633e-06,0.012406,-0.0016105,0.000281267,0,0,0,0,0.104592,0.52129,-0.974739,34.5,1,44465,57486814
42,4,-0.751497,-0.0675703,9.78464,0.0128155,-0.623494,0.972382,-0.00751605,-0.000684317,0.0978462,1,4.2554e-05,-5.67939e-06,1.9077e-05,0.00851081,-0.00113588,0.0038154,0,0,0,0,0.101754,0.518388,-0.97479,34.5,1,44466,57486914
42,5,-0.751497,-0.0675703,9.78464,0.0128155,-0.623494,0.972382,-0.00751605,-0.000684317,0.0978462,1,4.2554e-05,-5.67939e-06,1.9077e-05,0.00851081,-0.00113588,0.0038154,0,0,0,0,0.101754,0.518388,-0.97479,34.5,1,44466,57486914
42,6,-0.735319,-0.0553773,9.78497,0.0274434,-0.606197,0.975821,-0.00735417,-0.00056398,0.0978496,1,5.08055e-05,-5.12966e-06,1.79801e-05,0.0101611,-0.00102593,0.00359603,0,0,0,0,0.0995241,0.51587,-0.96928,34.5,1,44467,57487014
43,1,-0.735319,-0.0553773,9.78497,0.0274434,-0.606197,0.975821,-0.00735417,-0.00056398,0.0978496,1,5.08055e-05,-5.12966e-06,1.79801e-05,0.0101611,-0.00102593,0.00359603,0,0,0,0,0.0995241,0.51587,-0.96928,34.5,1,44467,57487014
43,2,-0.755926,-0.0368102,9.78424,0.0151767,-0.584151,0.975356,-0.00755961,-0.000376921,0.0978424,1,4.456e-05,-1.80493e-06,6.56405e-06,0.00891201,-0.000360987,0.00131281,0,0,0,0,0.100018,0.517302,-0.967736,34.5,1,44468,57487114
43,3,-0.755926,-0.0368102,9.78424,0.0151767,-0.584151,0.975356,-0.00755961,-0.000376921,0.0978424,1,4.456e-05,-1.80493e-06,6.56405e-06,0.00891201,-0.000360987,0.00131281,0,0,0,0,0.100018,0.517302,-0.967736,34.5,1,44468,57487114
43,4,-0.761495,-0.052963,9.78076,0.0107403,-0.604412,0.973913,-0.00761635,-0.000538758,0.0978075,1,4.51617e-05,-7.27192e-06,1.92839e-05,0.00903234,-0.00145438,0.00385677,0,0,0,0,0.101894,0.520213,-0.96768,34.5,1,44469,57487214
43,5,-0.761495,-0.052963,9.78076,0.0107403,-0.604412,0.973913,-0.00761635,-0.000538758,0.0978075,1,4.51617e-05,-7.27192e-06,1.92839e-05,0.00903234,-0.00145438,0.00385677,0,0,0,0,0.101894,0.520213,-0.96768,34.5,1,44469,57487214
43,6,-0.751401,-0.076955,9.78862,0.0165581,-0.62891,0.975837,-0.00751531,-0.000776485,0.0978861,1,3.45726e-05,-6.74444e-06,1.1146e-05,0.00691452,-0.00134889,0.0022292,0,0,0,0,0.103186,0.522721,-0.972175,34.5,1,44470,57487314
44,1,-0.751401,-0.076955,9.78862,0.0165581,-0.62891,0.975837,-0.00751531,-0.000776485,0.0978861,1,3.45726e-05,-6.74444e-06,1.1146e-05,0.00691452,-0.00134889,0.0022292,0,0,0,0,0.103186,0.522721,-0.972175,34.5,1,44470,57487314
44,2,-0.740454,-0.0825972,9.78986,0.0279204,-0.636922,0.978216,-0.00740661,-0.000834118,0.0978984,1,4.06411e-05,-1.06841e-05,1.2748e-05,0.00812821,-0.00213681,0.0025496,0,0,0,0,0.103095,0.52086,-0.977267,34.5,1,44471,57487414
44,3,-0.740454,-0.0825972,9.78986,0.0279204,-0.636922,0.978216,-0.00740661,-0.000834118,0.0978984,1,4.06411e-05,-1.06841e-05,1.2748e-05,0.00812821,-0.00213681,0.0025496,0,0,0,0,0.103095,0.52086,-0.977267,34.5,1,44471,57487414
44,4,-0.707118,-0.0864517,9.79435,0.0571665,-0.645315,0.978974,-0.00707137,-0.000873518,0.0979434,1,4.52288e-05,-1.02825e-06,9.99295e-06,0.00904576,-0.00020565,0.00199859,0,0,0,0,0.100257,0.517957,-0.977318,34.5,1,44472,57487514
44,5,-0.707118,-0.0864517,9.79435,0.0571665,-0.645315,0.978974,-0.00707137,-0.000873518,0.0979434,1,4.52288e-05,-1.02825e-06,9.99295e-06,0.00904576,-0.00020565,0.00199859,0,0,0,0,0.100257,0.517957,-0.977318,34.5,1,44472,57487514
44,6,-0.710747,-0.0736924,9.7921,0.0579115,-0.628596,0.980761,-0.0071079,-0.000747803,0.0979209,1,5.41563e-05,-2.36904e-06,1.92118e-05,0.0108313,-0.000473807,0.00384235,0,0,0,0,0.099479,0.516385,-0.970784,34.5,1,44473,57487614
44,7,-0.710747,-0.0736924,9.7921,0.0579115,-0.628596,0.980761,-0.0071079,-0.000747803,0.0979209,1,5.41563e-05,-2.36904e-06,1.92118e-05,0.0108313,-0.000473807,0.00384235,0,0,0,0,0.099479,0.516385,-0.970784,34.5,1,44473,57487614
44,8,-0.707653,-0.0731711,9.79209,0.0621752,-0.628448,0.985211,-0.00707636,-0.000739891,0.0979209,1,4.09316e-05,7.37321e-07,1.15802e-05,0.00818632,0.000147464,0.00231603,0,0,0,0,0.0995616,0.517288,-0.966724,34.5,1,44474,57487714
45,1,-0.707653,-0.0731711,9.79209,0.0621752,-0.628448,0.985211,-0.00707636,-0.000739891,0.0979209,1,4.09316e-05,7.37321e-07,1.15802e-05,0.00818632,0.000147464,0.00231603,0,0,0,0,0.0995616,0.517288,-0.966724,34.5,1,44474,57487714
45,2,-0.726364,-0.0570055,9.76623,0.0446441,-0.605626,0.956088,-0.00726176,-0.00057747,0.0976624,1,3.72511e-05,9.53678e-06,9.52735e-06,0.00745021,0.00190736,0.00190547,0,0,0,0,0.102889,0.519699,-0.966685,34.5,1,44475,57487814
45,3,-0.726364,-0.0570055,9.76623,0.0446441,-0.605626,0.956088,-0.00726176,-0.00057747,0.0976624,1,3.72511e-05,9.53678e-06,9.52735e-06,0.00745021,0.00190736,0.00190547,0,0,0,0,0.102889,0.519699,-0.966685,34.5,1,44475,57487814
45,4,-0.742496,-0.0816771,9.7685,0.023389,-0.633783,0.953969,-0.00742366,-0.000825161,0.097685,1,4.21871e-05,6.57692e-06,9.99872e-06,0.00843741,0.00131538,0.00199974,0,0,0,0,0.103235,0.521239,-0.971198,34.5,1,44476,57487914
45,5,-0.742496,-0.0816771,9.7685,0.023389,-0.633783,0.953969,-0.00742366,-0.000825161,0.097685,1,4.21871e-05,6.57692e-06,9.99872e-06,0.00843741,0.00131538,0.00199974,0,0,0,0,0.103235,0.521239,-0.971198,34.5,1,44476,57487914
45,6,-0.719834,-0.068653,9.78543,0.0465334,-0.622657,0.964908,-0.00720068,-0.000697248,0.0978541,1,5.34523e-05,-1.2074e-05,1.78385e-05,0.0106905,-0.0024148,0.0035677,0,0,0,0,0.101224,0.519873,-0.975765,34.5,1,44477,57488014
46,1,-0.719834,-0.068653,9.78543,0.0465334,-0.622657,0.964908,-0.00720068,-0.000697248,0.0978541,1,5.34523e-05,-1.2074e-05,1.78385e-05,0.0106905,-0.0024148,0.0035677,0,0,0,0,0.101224,0.519873,-0.975765,34.5,1,44477,57488014
46,2,-0.71478,-0.0789078,9.78768,0.0588174,-0.635292,0.970103,-0.00714832,-0.000797233,0.0978767,1,4.10061e-05,-2.7347e-06,8.93902e-06,0.00820122,-0.00054694,0.0017878,0,0,0,0,0.101721,0.518894,-0.975789,34.5,1,44478,57488114
46,3,-0.71478,-0.0789078,9.78768,0.0588174,-0.635292,0.970103,-0.00714832,-0.000797233,0.0978767,1,4.10061e-05,-2.7347e-06,8.93902e-06,0.00820122,-0.00054694,0.0017878,0,0,0,0,0.101721,0.518894,-0.975789,34.5,1,44478,57488114
46,4,-0.742492,-0.0610162,9.78191,0.0271844,-0.615909,0.9705,-0.00742643,-0.000617132,0.0978189,1,3.46134e-05,-7.80456e-06,1.33555e-05,0.00692267,-0.00156091,0.00267111,0,0,0,0,0.101416,0.51636,-0.970288,34.5,1,44479,57488214
46,5,-0.742492,-0.0610162,9.78191,0.0271844,-0.615909,0.9705,-0.00742643,-0.000617132,0.0978189,1,3.46134e-05,-7.80456e-06,1.33555e-05,0.00692267,-0.00156091,0.00267111,0,0,0,0,0.101416,0.51636,-0.970288,34.5,1,44479,57488214
46,6,-0.741999,-0.074292,9.79502,0.0286368,-0.630092,0.986202,-0.00741948,-0.000753726,0.0979501,1,5.4527e-05,2.54252e-06,8.36899e-06,0.0109054,0.000508503,0.0016738,0,0,0,0,0.100557,0.516774,-0.965729,34.5,1,44480,57488314
47,1,-0.741999,-0.074292,9.79502,0.0286368,-0.630092,0.986202,-0.00741948,-0.000753726,0.0979501,1,5.4527e-05,2.54252e-06,8.36899e-06,0.0109054,0.000508503,0.0016738,0,0,0,0,0.100557,0.516774,-0.965729,34.5,1,44480,57488314
47,2,-0.739802,-0.0596243,9.79852,0.0294964,-0.611975,0.986663,-0.00739554,-0.000602934,0.0979853,1,3.24044e-05,1.25185e-05,2.3071e-05,0.00648088,0.0025037,0.0046142,0,0,0,0,0.103354,0.52067,-0.966666,34.5,1,44481,57488414
47,3,-0.739802,-0.0596243,9.79852,0.0294964,-0.611975,0.986663,-0.00739554,-0.000602934,0.0979853,1,3.24044e-05,1.25185e-05,2.3071e-05,0.00648088,0.0025037,0.0046142,0,0,0,0,0.103354,0.52067,-0.966666,34.5,1,44481,57488414
47,4,-0.720917,-0.0764469,9.78164,0.0447517,-0.634453,0.968261,-0.00721028,-0.000774205,0.0978162,1,4.81511e-05,-5.82638e-06,2.19012e-05,0.00963023,-0.00116528,0.00438024,0,0,0,0,0.104618,0.524163,-0.971645,34.5,1,44482,57488514
47,5,-0.720917,-0.0764469,9.78164,0.0447517,-0.634453,0.968261,-0.00721028,-0.000774205,0.0978162,1,4.81511e-05,-5.82638e-06,2.19012e-05,0.00963023,-0.00116528,0.00438024,0,0,0,0,0.104618,0.524163,-0.971645,34.5,1,44482,57488514
47,6,-0.69051,-0.0830185,9.77969,0.0789582,-0.645903,0.958137,-0.00690695,-0.000841579,0.0977967,1,5.70715e-05,-9.61704e-06,1.66965e-05,0.0114143,-0.00192341,0.0033393,0,0,0,0,0.103124,0.522766,-0.974699,34.5,1,44483,57488614
48,1,-0.69051,-0.0830185,9.77969,0.0789582,-0.645903,0.958137,-0.00690695,-0.000841579,0.0977967,1,5.70715e-05,-9.61704e-06,1.66965e-05,0.0114143,-0.00192341,0.0033393,0,0,0,0,0.103124,0.522766,-0.974699,34.5,1,44483,57488614
48,2,-0.683066,-0.0679823,9.78249,0.0834232,-0.632321,0.96347,-0.00683383,-0.000688281,0.0978246,1,4.18593e-05,-1.63112e-05,1.96247e-05,0.00837185,-0.00326223,0.00392495,0,0,0,0,0.100783,0.518884,-0.974775,34.5,1,44484,57488714
48,3,-0.683066,-0.0679823,9.78249,0.0834232,-0.632321,0.96347,-0.00683383,-0.000688281,0.0978246,1,4.18593e-05,-1.63112e-05,1.96247e-05,0.00837185,-0.00326223,0.00392495,0,0,0,0,0.100783,0.518884,-0.974775,34.5,1,44484,57488714
48,4,-0.70523,-0.0509236,9.79259,0.0670362,-0.611323,0.97815,-0.00705082,-0.000516624,0.097926,1,3.69064e-05,7.49524e-06,1.13829e-05,0.00738128,0.00149905,0.00227658,0,0,0,0,0.10093,0.515885,-0.970802,34.5,1,44485,57488814
48,5,-0.70523,-0.0509236,9.79259,0.0670362,-0.611323,0.97815,-0.00705082,-0.000516624,0.097926,1,3.69064e-05,7.49524e-06,1.13829e-05,0.00738128,0.00149905,0.00227658,0,0,0,0,0.10093,0.515885,-0.970802,34.5,1,44485,57488814
48,6,-0.720794,-0.042414,9.79108,0.0531172,-0.598464,0.976872,-0.00720883,-0.000432834,0.0979107,1,4.30214e-05,-4.63228e-06,1.86434e-05,0.00860429,-0.000926457,0.00372868,0,0,0,0,0.101025,0.516779,-0.966237,34.5,1,44486,57488914
49,1,-0.720794,-0.042414,9.79108,0.0531172,-0.598464,0.976872,-0.00720883,-0.000432834,0.0979107,1,4.30214e-05,-4.63228e-06,1.86434e-05,0.00860429,-0.000926457,0.00372868,0,0,0,0,0.101025,0.516779,-0.966237,34.5,1,44486,57488914
49,2,-0.724528,-0.0611623,9.78653,0.0467014,-0.619292,0.973152,-0.00724357,-0.000622034,0.0978654,1,5.18933e-05,8.6276e-06,1.7496e-05,0.0103787,0.00172552,0.0034992,0,0,0,0,0.102396,0.519712,-0.967188,34.5,1,44487,57489014
49,3,-0.724528,-0.0611623,9.78653,0.0467014,-0.619292,0.973152,-0.00724357,-0.000622034,0.0978654,1,5.18933e-05,8.6276e-06,1.7496e-05,0.0103787,0.00172552,0.0034992,0,0,0,0,0.102396,0.519712,-0.967188,34.5,1,44487,57489014
49,4,-0.732862,-0.0744641,9.77766,0.0328502,-0.631512,0.95957,-0.00732863,-0.000755393,0.0977766,1,5.39981e-05,-1.56694e-07,1.31837e-05,0.0107996,-3.13387e-05,0.00263674,0,0,0,0,0.102762,0.520756,-0.971207,34.5,1,44488,57489114
49,5,-0.732862,-0.0744641,9.77766,0.0328502,-0.631512,0.95957,-0.00732863,-0.000755393,0.0977766,1,5.39981e-05,-1.56694e-07,1.31837e-05,0.0107996,-3.13387e-05,0.00263674,0,0,0,0,0.102762,0.520756,-0.971207,34.5,1,44488,57489114
49,6,-0.73982,-0.082881,9.79053,0.0243961,-0.650377,0.972241,-0.00739899,-0.000838097,0.0979051,1,4.62476e-05,-4.18529e-06,1.56388e-05,0.00924953,-0.000837058,0.00312775,0,0,0,0,0.10228,0.519314,-0.972247,34.5,1,44489,57489214
50,1,-0.73982,-0.082881,9.79053,0.0243961,-0.650377,0.972241,-0.00739899,-0.000838097,0.0979051,1,4.62476e-05,-4.18529e-06,1.56388e-05,0.00924953,-0.000837058,0.00312775,0,0,0,0,0.10228,0.519314,-0.972247,34.5,1,44489,57489214
50,2,-0.730608,-0.0635442,9.76995,0.0372495,-0.625998,0.954855,-0.00730585,-0.000644319,0.0976994,1,4.42528e-05,1.06013e-06,1.57466e-05,0.00885056,0.000212027,0.00314932,0,0,0,0,0.100384,0.5169,-0.972797,34.5,1,44490,57489314
50,3,-0.730608,-0.0635442,9.76995,0.0372495,-0.625998,0.954855,-0.00730585,-0.000644319,0.0976994,1,4.42528e-05,1.06013e-06,1.57466e-05,0.00885056,0.000212027,0.00314932,0,0,0,0,0.100384,0.5169,-0.972797,34.5,1,44490,57489314
50,4,-0.742446,-0.0677111,9.77609,0.0224832,-0.626446,0.961799,-0.00742512,-0.000685154,0.0977608,1,4.0859e-05,-3.43878e-06,3.61545e-06,0.00817179,-0.000687757,0.00072309,0,0,0,0,0.10093,0.515885,-0.970802,34.5,1,44491,57489414
50,5,-0.742446,-0.0677111,9.77609,0.0224832,-0.626446,0.961799,-0.00742512,-0.000685154,0.0977608,1,4.0859e-05,-3.43878e-06,3.61545e-06,0.00817179,-0.000687757,0.00072309,0,0,0,0,0.10093,0.515885,-0.970802,34.5,1,44491,57489414
50,6,-0.723187,-0.0609345,9.7767,0.0481073,-0.622628,0.965777,-0.00723063,-0.000620417,0.097767,1,5.53896e-05,6.2266e-06,1.67339e-05,0.0110779,0.00124532,0.00334678,0,0,0,0,0.100503,0.517777,-0.967222,34.5,1,44492,57489514
51,1,-0.723187,-0.0609345,9.7767,0.0481073,-0.622628,0.965777,-0.00723063,-0.000620417,0.097767,1,5.53896e-05,6.2266e-06,1.67339e-05,0.0110779,0.00124532,0.00334678,0,0,0,0,0.100503,0.517777,-0.967222,34.5,1,44492,57489514
51,2,-0.73784,-0.0612849,9.7873,0.0334974,-0.620297,0.972544,-0.00737548,-0.000621737,0.0978731,1,4.41018e-05,1.48061e-05,1.73227e-05,0.00882037,0.00296122,0.00346453,0,0,0,0,0.101886,0.5207,-0.967669,34.5,1,44493,57489614
51,3,-0.73784,-0.0612849,9.7873,0.0334974,-0.620297,0.972544,-0.00737548,-0.000621737,0.0978731,1,4.41018e-05,1.48061e-05,1.73227e-05,0.00882037,0.00296122,0.00346453,0,0,0,0,0.101886,0.5207,-0.967669,34.5,1,44493,57489614
51,4,-0.761951,-0.0756814,9.77173,0.00736492,-0.633307,0.961925,-0.00761655,-0.000766675,0.0977175,1,4.8969e-05,1.50034e-05,1.9038e-05,0.0097938,0.00300068,0.00380761,0,0,0,0,0.102697,0.523212,-0.972162,34.5,1,44494,57489714
51,5,-0.761951,-0.0756814,9.77173,0.00736492,-0.633307,0.961925,-0.00761655,-0.000766675,0.0977175,1,4.8969e-05,1.50034e-05,1.9038e-05,0.0097938,0.00300068,0.00380761,0,0,0,0,0.102697,0.523212,-0.972162,34.5,1,44494,57489714
51,6,-0.794665,-0.0888577,9.75897,-0.059083,-0.654641,0.935652,-0.00794721,-0.000899464,0.0975895,1,5.44397e-05,-3.06223e-06,1.64709e-05,0.0108879,-0.000612445,0.00329418,0,0,0,0,0.102622,0.521821,-0.976233,34.5,1,44495,57489814
52,1,-0.794665,-0.0888577,9.75897,-0.059083,-0.654641,0.935652,-0.00794721,-0.000899464,0.0975895,1,5.44397e-05,-3.06223e-06,1.64709e-05,0.0108879,-0.000612445,0.00329418,0,0,0,0,0.102622,0.521821,-0.976233,34.5,1,44495,57489814
52,2,-0.795807,-0.0778322,9.79401,-0.0565616,-0.644705,0.972088,-0.00796036,-0.000789465,0.0979399,1,5.55237e-05,-1.17942e-05,1.6728e-05,0.0111047,-0.00235884,0.0033456,0,0,0,0,0.101211,0.519882,-0.97627,34.5,1,44496,57489914
52,3,-0.795807,-0.0778322,9.79401,-0.0565616,-0.644705,0.972088,-0.00796036,-0.000789465,0.0979399,1,5.55237e-05,-1.17942e-05,1.6728e-05,0.0111047,-0.00235884,0.0033456,0,0,0,0,0.101211,0.519882,-0.97627,34.5,1,44496,57489914
52,4,-0.802357,-0.0801415,9.76996,-0.0556726,-0.644297,0.955225,-0.00802762,-0.000812044,0.0976992,1,5.30092e-05,-2.08242e-05,1.69255e-05,0.0106018,-0.00416483,0.0033851,0,0,0,0,0.0994221,0.518354,-0.97175,34.5,1,44497,57490014
52,5,-0.802357,-0.0801415,9.76996,-0.0556726,-0.644297,0.955225,-0.00802762,-0.000812044,0.0976992,1,5.30092e-05,-2.08242e-05,1.69255e-05,0.0106018,-0.00416483,0.0033851,0,0,0,0,0.0994221,0.518354,-0.97175,34.5,1,44497,57490014
52,6,-0.776605,-0.0693712,9.77971,-0.0263828,-0.637808,0.968653,-0.00776906,-0.00070426,0.0977968,1,5.2996e-05,-1.54616e-05,1.17793e-05,0.0105992,-0.00309231,0.00235586,0,0,0,0,0.0990069,0.518791,-0.968708,34.5,1,44498,57490114
53,1,-0.776605,-0.0693712,9.77971,-0.0263828,-0.637808,0.968653,-0.00776906,-0.00070426,0.0977968,1,5.2996e-05,-1.54616e-05,1.17793e-05,0.0105992,-0.00309231,0.00235586,0,0,0,0,0.0990069,0.518791,-0.968708,34.5,1,44498,57490114
53,2,-0.755218,-0.0440708,9.79912,-0.00607865,-0.61825,0.989444,-0.00755496,-0.000449551,0.097991,1,4.35768e-05,-1.42639e-05,2.00717e-05,0.00871536,-0.00285278,0.00401433,0,0,0,0,0.101861,0.520719,-0.968678,34.5,1,44499,57490214
53,3,-0.755218,-0.0440708,9.79912,-0.00607865,-0.61825,0.989444,-0.00755496,-0.000449551,0.097991,1,4.35768e-05,-1.42639e-05,2.00717e-05,0.00871536,-0.00285278,0.00401433,0,0,0,0,0.101861,0.520719,-0.968678,34.5,1,44499,57490214
53,4,-0.77005,-0.0499504,9.79474,0.0108451,-0.618114,0.992843,-0.00770139,-0.000509389,0.0979473,1,4.81529e-05,-4.65449e-06,2.9378e-05,0.00963058,-0.000930898,0.00587561,0,0,0,0,0.103667,0.522717,-0.972178,34.5,1,44500,57490314
53,5,-0.77005,-0.0499504,9.79474,0.0108451,-0.618114,0.992843,-0.00770139,-0.000509389,0.0979473,1,4.81529e-05,-4.65449e-06,2.9378e-05,0.00963058,-0.000930898,0.00587561,0,0,0,0,0.103667,0.522717,-0.972178,34.5,1,44500,57490314
53,6,-0.779083,-0.0593994,9.77812,0.0111113,-0.622311,0.979327,-0.00779375,-0.000604405,0.0977809,1,5.23683e-05,-1.4985e-05,1.08854e-05,0.0104737,-0.002997,0.00217707,0,0,0,0,0.103165,0.520327,-0.974754,34.5,1,44501,57490414
54,1,-0.779083,-0.0593994,9.77812,0.0111113,-0.622311,0.979327,-0.00779375,-0.000604405,0.0977809,1,5.23683e-05,-1.4985e-05,1.08854e-05,0.0104737,-0.002997,0.00217707,0,0,0,0,0.103165,0.520327,-0.974754,34.5,1,44501,57490414
54,2,-0.734194,-0.052646,9.78059,0.0284403,-0.63071,0.966409,-0.00734524,-0.000535285,0.0978056,1,4.3599e-05,-1.70265e-05,2.0204e-05,0.00871979,-0.00340529,0.0040408,0,0,0,0,0.100306,0.517921,-0.975299,34.5,1,44502,57490514
54,3,-0.734194,-0.052646,9.78059,0.0284403,-0.63071,0.966409,-0.00734524,-0.000535285,0.0978056,1,4.3599e-05,-1.70265e-05,2.0204e-05,0.00871979,-0.00340529,0.0040408,0,0,0,0,0.100306,0.517921,-0.975299,34.5,1,44502,57490514
54,4,-0.720836,-0.0403868,9.78297,0.0308047,-0.620095,0.969545,-0.00720946,-0.000409754,0.0978295,1,2.81315e-05,-5.76504e-06,2.64701e-05,0.00562629,-0.00115301,0.00529402,0,0,0,0,0.0989899,0.516876,-0.970771,34.5,1,44503,57490614
54,5,-0.720836,-0.0403868,9.78297,0.0308047,-0.620095,0.969545,-0.00720946,-0.000409754,0.0978295,1,2.81315e-05,-5.76504e-06,2.64701e-05,0.00562629,-0.00115301,0.00529402,0,0,0,0,0.0989899,0.516876,-0.970771,34.5,1,44503,57490614
54,6,-0.780138,-0.0768495,9.76677,0.0325631,-0.633076,0.966329,-0.00780329,-0.000777988,0.0976675,1,4.75105e-05,-9.92579e-06,1.3646e-05,0.00950209,-0.00198516,0.00272919,0,0,0,0,0.0999981,0.519244,-0.967187,34.5,1,44504,57490714
55,1,-0.780138,-0.0768495,9.76677,0.0325631,-0.633076,0.966329,-0.00780329,-0.000777988,0.0976675,1,4.75105e-05,-9.92579e-06,1.3646e-05,0.00950209,-0.00198516,0.00272919,0,0,0,0,0.0999981,0.519244,-0.967187,34.5,1,44504,57490714
55,2,-0.69958,-0.0317941,9.79713,0.116714,-0.599721,0.990533,-0.00699494,-0.000324986,0.0979714,1,3.38775e-05,4.29707e-06,2.91247e-05,0.00677549,0.000859414,0.00582495,0,0,0,0,0.102853,0.521171,-0.967158,34.5,1,44505,57490814
55,3,-0.69958,-0.0317941,9.79713,0.116714,-0.599721,0.990533,-0.00699494,-0.000324986,0.0979714,1,3.38775e-05,4.29707e-06,2.91247e-05,0.00677549,0.000859414,0.00582495,0,0,0,0,0.102853,0.521171,-0.967158,34.5,1,44505,57490814
55,4,-0.881327,-0.0920101,9.75136,-0.122091,-0.654327,0.938894,-0.00881018,-0.000927312,0.0975138,1,3.52787e-05,1.56383e-05,1.88145e-05,0.00705573,0.00312766,0.0037629,0,0,0,0,0.104621,0.523197,-0.972171,34.5,1,44506,57490914
55,5,-0.881327,-0.0920101,9.75136,-0.122091,-0.654327,0.938894,-0.00881018,-0.000927312,0.0975138,1,3.52787e-05,1.56383e-05,1.88145e-05,0.00705573,0.00312766,0.0037629,0,0,0,0,0.104621,0.523197,-0.972171,34.5,1,44506,57490914
55,6,-0.961259,-0.0650713,9.76472,-0.217742,-0.620991,0.959297,-0.00961621,-0.000661707,0.0976468,1,5.42349e-05,-1.86824e-05,2.09169e-05,0.010847,-0.00373647,0.00418338,0,0,0,0,0.103112,0.52133,-0.976246,34.5,1,44507,57491014
56,1,-0.961259,-0.0650713,9.76472,-0.217742,-0.620991,0.959297,-0.00961621,-0.000661707,0.0976468,1,5.42349e-05,-1.86824e-05,2.09169e-05,0.010847,-0.00373647,0.00418338,0,0,0,0,0.103112,0.52133,-0.976246,34.5,1,44507,57491014
56,2,-0.718864,-0.0738067,9.79148,0.0259098,-0.626099,0.978294,-0.00718872,-0.000746557,0.0979147,1,4.17624e-05,-5.58657e-07,2.16365e-05,0.00835247,-0.000111732,0.0043273,0,0,0,0,0.10031,0.5184,-0.974783,34.5,1,44508,57491114
56,3,-0.718864,-0.0738067,9.79148,0.0259098,-0.626099,0.978294,-0.00718872,-0.000746557,0.0979147,1,4.17624e-05,-5.58657e-07,2.16365e-05,0.00835247,-0.000111732,0.0043273,0,0,0,0,0.10031,0.5184,-0.974783,34.5,1,44508,57491114
56,4,-0.720248,-0.0764071,9.79486,0.0735894,-0.644307,0.988047,-0.00720106,-0.0007749,0.0979486,1,5.30611e-05,7.01311e-06,3.0173e-05,0.0106122,0.00140262,0.00603459,0,0,0,0,0.0994956,0.516854,-0.969763,34.5,1,44509,57491214
56,5,-0.720248,-0.0764071,9.79486,0.0735894,-0.644307,0.988047,-0.00720106,-0.0007749,0.0979486,1,5.30611e-05,7.01311e-06,3.0173e-05,0.0106122,0.00140262,0.00603459,0,0,0,0,0.0994956,0.516854,-0.969763,34.5,1,44509,57491214
56,6,-0.801724,-0.0382423,9.7876,-0.0267274,-0.618603,0.982028,-0.00801895,-0.000391985,0.0978758,1,4.73503e-05,-8.80832e-06,1.83062e-05,0.00947006,-0.00176166,0.00366124,0,0,0,0,0.0995739,0.517279,-0.966219,34.5,1,44510,57491314
57,1,-0.801724,-0.0382423,9.7876,-0.0267274,-0.618603,0.982028,-0.00801895,-0.000391985,0.0978758,1,4.73503e-05,-8.80832e-06,1.83062e-05,0.00947006,-0.00176166,0.00366124,0,0,0,0,0.0995739,0.517279,-0.966219,34.5,1,44510,57491314
57,2,-0.77011,-0.0518383,9.78285,-0.0064671,-0.626656,0.975482,-0.00770138,-0.00052761,0.0978285,1,4.62476e-05,-1.50468e-06,1.15764e-05,0.00924952,-0.000300936,0.00231528,0,0,0,0,0.101388,0.520235,-0.968687,34.5,1,44511,57491414
57,3,-0.77011,-0.0518383,9.78285,-0.0064671,-0.626656,0.975482,-0.00770138,-0.00052761,0.0978285,1,4.62476e-05,-1.50468e-06,1.15764e-05,0.00924952,-0.000300936,0.00231528,0,0,0,0,0.101388,0.520235,-0.968687,34.5,1,44511,57491414
57,4,-0.779402,-0.089656,9.76598,-0.00970982,-0.66565,0.950665,-0.00779284,-0.00090766,0.0976598,1,5.53449e-05,5.88595e-06,1.85627e-05,0.011069,0.00117719,0.00371254,0,0,0,0,0.103149,0.522748,-0.97369,34.5,1,44512,57491514
57,5,-0.779402,-0.089656,9.76598,-0.00970982,-0.66565,0.950665,-0.00779284,-0.00090766,0.0976598,1,5.53449e-05,5.88595e-06,1.85627e-05,0.011069,0.00117719,0.00371254,0,0,0,0,0.103149,0.522748,-0.97369,34.5,1,44512,57491514
57,6,-0.769703,-0.0830751,9.7748,-0.0075468,-0.662688,0.958618,-0.00770049,-0.000838531,0.0977476,1,3.86835e-05,-1.78217e-05,1.4184e-05,0.00773669,-0.00356434,0.0028368,0,0,0,0,0.10314,0.520345,-0.975763,34.5,1,44513,57491614
57,7,-0.769703,-0.0830751,9.7748,-0.0075468,-0.662688,0.958618,-0.00770049,-0.000838531,0.0977476,1,3.86835e-05,-1.78217e-05,1.4184e-05,0.00773669,-0.00356434,0.0028368,0,0,0,0,0.10314,0.520345,-0.975763,34.5,1,44513,57491614
57,8,-0.733112,-0.0747588,9.77394,0.0421526,-0.653555,0.964341,-0.00733335,-0.000759314,0.0977391,1,5.82748e-05,-1.16041e-05,2.28229e-05,0.011655,-0.00232082,0.00456458,0,0,0,0,0.100302,0.517442,-0.975815,34.5,1,44514,57491714
58,1,-0.733112,-0.0747588,9.77394,0.0421526,-0.653555,0.964341,-0.00733335,-0.000759314,0.0977391,1,5.82748e-05,-1.16041e-05,2.28229e-05,0.011655,-0.00232082,0.00456458,0,0,0,0,0.100302,0.517442,-0.975815,34.5,1,44514,57491714
58,2,-0.739839,-0.0709951,9.79064,0.0430446,-0.65047,0.987557,-0.00740017,-0.00071851,0.0979062,1,4.25373e-05,-9.24622e-06,1.55306e-05,0.00850745,-0.00184924,0.00310612,0,0,0,0,0.0999929,0.515875,-0.969787,34.5,1,44515,57491814
58,3,-0.739839,-0.0709951,9.79064,0.0430446,-0.65047,0.987557,-0.00740017,-0.00071851,0.0979062,1,4.25373e-05,-9.24622e-06,1.55306e-05,0.00850745,-0.00184924,0.00310612,0,0,0,0,0.0999929,0.515875,-0.969787,34.5,1,44515,57491814
58,4,-0.705808,-0.0327899,9.80193,0.0640045,-0.617816,0.986571,-0.00705928,-0.000335204,0.0980192,1,3.63924e-05,-6.14083e-06,1.20868e-05,0.00727847,-0.00122817,0.00241736,0,0,0,0,0.101515,0.517733,-0.965208,34.5,1,44516,57491914
58,5,-0.705808,-0.0327899,9.80193,0.0640045,-0.617816,0.986571,-0.00705928,-0.000335204,0.0980192,1,3.63924e-05,-6.14083e-06,1.20868e-05,0.00727847,-0.00122817,0.00241736,0,0,0,0,0.101515,0.517733,-0.965208,34.5,1,44516,57491914
58,6,-0.719397,-0.0935167,9.78284,0.0487058,-0.668778,0.961764,-0.00719539,-0.000943998,0.0978282,1,4.4072e-05,-7.38693e-06,1.44731e-05,0.0088144,-0.00147739,0.00289462,0,0,0,0,0.104822,0.52064,-0.965663,34.5,1,44517,57492014
59,1,-0.719397,-0.0935167,9.78284,0.0487058,-0.668778,0.961764,-0.00719539,-0.000943998,0.0978282,1,4.4072e-05,-7.38693e-06,1.44731e-05,0.0088144,-0.00147739,0.00289462,0,0,0,0,0.104822,0.52064,-0.965663,34.5,1,44517,57492014
59,2,-0.694367,-0.105805,9.7897,0.0868719,-0.691217,0.971915,-0.0069464,-0.00106682,0.0978967,1,4.22e-05,-1.43815e-05,3.65229e-05,0.00844,-0.00287629,0.00730458,0,0,0,0,0.105645,0.521698,-0.970694,34.5,1,44518,57492114
59,3,-0.694367,-0.105805,9.7897,0.0868719,-0.691217,0.971915,-0.0069464,-0.00106682,0.0978967,1,4.22e-05,-1.43815e-05,3.65229e-05,0.00844,-0.00287629,0.00730458,0,0,0,0,0.105645,0.521698,-0.970694,34.5,1,44518,57492114
59,4,-0.722323,-0.0483667,9.77308,0.0466704,-0.599973,0.95461,-0.00722846,-0.000493945,0.0977304,1,5.16288e-05,-2.6809e-05,1.29174e-05,0.0103258,-0.0053618,0.00258348,0,0,0,0,0.104628,0.519818,-0.974267,34.5,1,44519,57492214
59,5,-0.722323,-0.0483667,9.77308,0.0466704,-0.599973,0.95461,-0.00722846,-0.000493945,0.0977304,1,5.16288e-05,-2.6809e-05,1.29174e-05,0.0103258,-0.0053618,0.00258348,0,0,0,0,0.104628,0.519818,-0.974267,34.5,1,44519,57492214
59,6,-0.694477,-0.111613,9.80695,0.0638863,-0.672158,0.995333,-0.0069485,-0.00112841,0.098069,1,6.29035e-05,-1.89892e-05,-3.6675e-06,0.0125807,-0.00379784,-0.000733499,0,0,0,0,0.101297,0.518374,-0.973778,34.5,1,44520,57492314
59,7,-0.694477,-0.111613,9.80695,0.0638863,-0.672158,0.995333,-0.0069485,-0.00112841,0.098069,1,6.29035e-05,-1.89892e-05,-3.6675e-06,0.0125807,-0.00379784,-0.000733499,0,0,0,0,0.101297,0.518374,-0.973778,34.5,1,44520,57492314
59,8,-0.685322,-0.0275526,9.78455,0.0784243,-0.596193,0.969345,-0.00685887,-0.000287991,0.097845,1,6.29389e-05,-2.89212e-05,1.07956e-05,0.0125878,-0.00578424,0.00215913,0,0,0,0,0.100956,0.517312,-0.96875,34.5,1,44521,57492414
60,1,-0.685322,-0.0275526,9.78455,0.0784243,-0.596193,0.969345,-0.00685887,-0.000287991,0.097845,1,6.29389e-05,-2.89212e-05,1.07956e-05,0.0125878,-0.00578424,0.00215913,0,0,0,0,0.100956,0.517312,-0.96875,34.5,1,44521,57492414
60,2,-0.674593,-0.0421118,9.79589,0.0908126,-0.60487,0.980697,-0.00675184,-0.000429312,0.0979584,1,4.04193e-05,-3.02588e-05,2.04238e-05,0.00808387,-0.00605176,0.00408476,0,0,0,0,0.101976,0.519671,-0.964662,34.5,1,44522,57492514
60,3,-0.674593,-0.0421118,9.79589,0.0908126,-0.60487,0.980697,-0.00675184,-0.000429312,0.0979584,1,4.04193e-05,-3.02588e-05,2.04238e-05,0.00808387,-0.00605176,0.00408476,0,0,0,0,0.101976,0.519671,-0.964662,34.5,1,44522,57492514
60,4,-0.675146,-0.108953,9.80447,0.0914591,-0.694792,0.988372,-0.00675428,-0.00110012,0.0980443,1,5.22957e-05,-1.46662e-05,2.4941e-05,0.0104591,-0.00293323,0.00498819,0,0,0,0,0.102841,0.522626,-0.96662,34.5,1,44523,57492614
60,5,-0.675146,-0.108953,9.80447,0.0914591,-0.694792,0.988372,-0.00675428,-0.00110012,0.0980443,1,5.22957e-05,-1.46662e-05,2.4941e-05,0.0104591,-0.00293323,0.00498819,0,0,0,0,0.102841,0.522626,-0.96662,34.5,1,44523,57492614
60,6,-0.708418,-0.0556247,9.79428,0.0569697,-0.640536,0.971586,-0.00708418,-0.000566405,0.0979428,1,5.01518e-05,-9.86283e-08,2.35717e-05,0.0100303,-1.97257e-05,0.00471434,0,0,0,0,0.103194,0.522233,-0.972186,34.5,1,44524,57492714
61,1,-0.708418,-0.0556247,9.79428,0.0569697,-0.640536,0.971586,-0.00708418,-0.000566405,0.0979428,1,5.01518e-05,-9.86283e-08,2.35717e-05,0.0100303,-1.97257e-05,0.00471434,0,0,0,0,0.103194,0.522233,-0.972186,34.5,1,44524,57492714
61,2,-0.669904,-0.0450459,9.79412,0.0927479,-0.627865,0.970282,-0.00670301,-0.000459314,0.0979409,1,4.39231e-05,-2.03604e-05,1.87606e-05,0.00878462,-0.00407207,0.00375212,0,0,0,0,0.101252,0.518889,-0.975282,34.5,1,44525,57492814
61,3,-0.669904,-0.0450459,9.79412,0.0927479,-0.627865,0.970282,-0.00670301,-0.000459314,0.0979409,1,4.39231e-05,-2.03604e-05,1.87606e-05,0.00878462,-0.00407207,0.00375212,0,0,0,0,0.101252,0.518889,-0.975282,34.5,1,44525,57492814
61,4,-0.666557,-0.0781367,9.79416,0.106144,-0.656046,0.975696,-0.00666959,-0.000790905,0.0979412,1,4.73615e-05,-2.06717e-05,1.95019e-05,0.00947229,-0.00413433,0.00390038,0,0,0,0,0.0994131,0.515951,-0.973823,34.5,1,44526,57492914
61,5,-0.666557,-0.0781367,9.79416,0.106144,-0.656046,0.975696,-0.00666959,-0.000790905,0.0979412,1,4.73615e-05,-2.06717e-05,1.95019e-05,0.00947229,-0.00413433,0.00390038,0,0,0,0,0.0994131,0.515951,-0.973823,34.5,1,44526,57492914
61,6,-0.695412,-0.0642535,9.78768,0.0657975,-0.641017,0.972832,-0.00695536,-0.000653261,0.0978766,1,5.46165e-05,-6.3703e-06,2.48649e-06,0.0109233,-0.00127406,0.000497297,0,0,0,0,0.100499,0.515853,-0.96878,34.5,1,44527,57493014
62,1,-0.695412,-0.0642535,9.78768,0.0657975,-0.641017,0.972832,-0.00695536,-0.000653261,0.0978766,1,5.46165e-05,-6.3703e-06,2.48649e-06,0.0109233,-0.00127406,0.000497297,0,0,0,0,0.100499,0.515853,-0.96878,34.5,1,44527,57493014
62,2,-0.703988,-0.0622633,9.77893,0.0707498,-0.638601,0.962324,-0.00704197,-0.000631011,0.0977891,1,4.22205e-05,-1.06935e-05,8.55711e-06,0.00844411,-0.00213871,0.00171142,0,0,0,0,0.100524,0.518725,-0.965686,34.5,1,44528,57493114
62,3,-0.703988,-0.0622633,9.77893,0.0707498,-0.638601,0.962324,-0.00704197,-0.000631011,0.0977891,1,4.22205e-05,-1.06935e-05,8.55711e-06,0.00844411,-0.00213871,0.00171142,0,0,0,0,0.100524,0.518725,-0.965686,34.5,1,44528,57493114
62,4,-0.719761,-0.0800285,9.78601,0.0593128,-0.658126,0.969526,-0.00719982,-0.000809133,0.0978599,1,4.4832e-05,-1.13063e-05,5.10736e-06,0.0089664,-0.00226125,0.00102147,0,0,0,0,0.102367,0.520696,-0.967671,34.5,1,44529,57493214
62,5,-0.719761,-0.0800285,9.78601,0.0593128,-0.658126,0.969526,-0.00719982,-0.000809133,0.0978599,1,4.4832e-05,-1.13063e-05,5.10736e-06,0.0089664,-0.00226125,0.00102147,0,0,0,0,0.102367,0.520696,-0.967671,34.5,1,44529,57493214
62,6,-0.709514,-0.0678268,9.79621,0.0581049,-0.652272,0.976768,-0.00709276,-0.000688461,0.0979622,1,5.06955e-05,1.19863e-05,1.83379e-05,0.0101391,0.00239726,0.00366758,0,0,0,0,0.103659,0.523205,-0.972167,34.5,1,44530,57493314
63,1,-0.709514,-0.0678268,9.79621,0.0581049,-0.652272,0.976768,-0.00709276,-0.000688461,0.0979622,1,5.06955e-05,1.19863e-05,1.83379e-05,0.0101391,0.00239726,0.00366758,0,0,0,0,0.103659,0.523205,-0.972167,34.5,1,44530,57493314
63,2,-0.714565,-0.0466292,9.78457,0.0378481,-0.627552,0.958879,-0.00714824,-0.000474768,0.0978455,1,4.20381e-05,-1.33196e-05,1.74551e-05,0.00840761,-0.00266391,0.00349103,0,0,0,0,0.103092,0.523272,-0.975698,34.5,1,44531,57493414
63,3,-0.714565,-0.0466292,9.78457,0.0378481,-0.627552,0.958879,-0.00714824,-0.000474768,0.0978455,1,4.20381e-05,-1.33196e-05,1.74551e-05,0.00840761,-0.00266391,0.00349103,0,0,0,0,0.103092,0.523272,-0.975698,34.5,1,44531,57493414
63,4,-0.743211,-0.0687144,9.78184,0.043523,-0.646547,0.971074,-0.00742999,-0.000698613,0.0978185,1,5.85951e-05,1.08369e-05,3.35264e-07,0.011719,0.00216738,6.70528e-05,0,0,0,0,0.100763,0.51938,-0.975269,34.5,1,44532,57493514
63,5,-0.743211,-0.0687144,9.78184,0.043523,-0.646547,0.971074,-0.00742999,-0.000698613,0.0978185,1,5.85951e-05,1.08369e-05,3.35264e-07,0.011719,0.00216738,6.70528e-05,0,0,0,0,0.100763,0.51938,-0.975269,34.5,1,44532,57493514
63,6,-0.761206,-0.0737114,9.77175,0.0321468,-0.655899,0.958861,-0.00761234,-0.000747046,0.0977174,1,4.93805e-05,-1.60204e-06,1.84479e-05,0.00987609,-0.000320408,0.00368958,0,0,0,0,0.0999682,0.515893,-0.970797,34.5,1,44533,57493614
64,1,-0.761206,-0.0737114,9.77175,0.0321468,-0.655899,0.958861,-0.00761234,-0.000747046,0.0977174,1,4.93805e-05,-1.60204e-06,1.84479e-05,0.00987609,-0.000320408,0.00368958,0,0,0,0,0.0999682,0.515893,-0.970797,34.5,1,44533,57493614
64,2,-0.79758,-0.0559808,9.78606,0.00765593,-0.636803,0.984356,-0.007978,-0.000569013,0.0978604,1,4.6242e-05,-1.1282e-05,9.71792e-06,0.0092484,-0.0022564,0.00194358,0,0,0,0,0.10147,0.519693,-0.965669,34.5,1,44534,57493714
64,3,-0.79758,-0.0559808,9.78606,0.00765593,-0.636803,0.984356,-0.007978,-0.000569013,0.0978604,1,4.6242e-05,-1.1282e-05,9.71792e-06,0.0092484,-0.0022564,0.00194358,0,0,0,0,0.10147,0.519693,-0.965669,34.5,1,44534,57493714
64,4,-0.807397,-0.0386134,9.751,0.0035171,-0.619663,0.947191,-0.00807565,-0.000395132,0.0975098,1,4.46029e-05,-8.73743e-06,1.85687e-05,0.00892058,-0.00174749,0.00371375,0,0,0,0,0.102384,0.522611,-0.965608,34.5,1,44535,57493814
64,5,-0.807397,-0.0386134,9.751,0.0035171,-0.619663,0.947191,-0.00807565,-0.000395132,0.0975098,1,4.46029e-05,-8.73743e-06,1.85687e-05,0.00892058,-0.00174749,0.00371375,0,0,0,0,0.102384,0.522611,-0.965608,34.5,1,44535,57493814
64,6,-0.813114,-0.041976,9.77136,0.0194488,-0.622243,0.965662,-0.00813306,-0.000428787,0.0977134,1,4.3673e-05,-9.94112e-06,3.02684e-05,0.00873461,-0.00198822,0.00605368,0,0,0,0,0.102725,0.522228,-0.971679,34.5,1,44536,57493914
65,1,-0.813114,-0.041976,9.77136,0.0194488,-0.622243,0.965662,-0.00813306,-0.000428787,0.0977134,1,4.3673e-05,-9.94112e-06,3.02684e-05,0.00873461,-0.00198822,0.00605368,0,0,0,0,0.102725,0.522228,-0.971679,34.5,1,44536,57493914
65,2,-0.797665,-0.0550212,9.76776,0.0104725,-0.642818,0.961811,-0.00797839,-0.000555704,0.0976774,1,2.63656e-05,-9.05253e-06,2.14e-05,0.00527313,-0.00181051,0.00428,0,0,0,0,0.102231,0.51935,-0.974266,34.5,1,44537,57494014
65,3,-0.797665,-0.0550212,9.76776,0.0104725,-0.642818,0.961811,-0.00797839,-0.000555704,0.0976774,1,2.63656e-05,-9.05253e-06,2.14e-05,0.00527313,-0.00181051,0.00428,0,0,0,0,0.102231,0.51935,-0.974266,34.5,1,44537,57494014
65,4,-0.794341,-0.0665873,9.77206,-0.0250297,-0.646715,0.968078,-0.00794541,-0.000674112,0.0977204,1,4.04195e-05,-1.04046e-05,2.13567e-05,0.0080839,-0.00208092,0.00427133,0,0,0,0,0.0998743,0.517889,-0.973277,34.5,1,44538,57494114
65,5,-0.794341,-0.0665873,9.77206,-0.0250297,-0.646715,0.968078,-0.00794541,-0.000674112,0.0977204,1,4.04195e-05,-1.04046e-05,2.13567e-05,0.0080839,-0.00208092,0.00427133,0,0,0,0,0.0998743,0.517889,-0.973277,34.5,1,44538,57494114
65,6,-0.770164,-0.110384,9.80511,-0.0542111,-0.687178,0.983366,-0.00770599,-0.00111321,0.0980507,1,4.60074e-05,-2.24379e-05,2.2813e-05,0.00920148,-0.00448758,0.00456259,0,0,0,0,0.099035,0.516362,-0.969267,34.5,1,44539,57494214
66,1,-0.770164,-0.110384,9.80511,-0.0542111,-0.687178,0.983366,-0.00770599,-0.00111321,0.0980507,1,4.60074e-05,-2.24379e-05,2.2813e-05,0.00920148,-0.00448758,0.00456259,0,0,0,0,0.099035,0.516362,-0.969267,34.5,1,44539,57494214
66,2,-0.783456,-0.0960391,9.79209,-0.0485454,-0.644373,0.969375,-0.00783738,-0.000969635,0.0979206,1,4.53237e-05,-1.46017e-05,2.34372e-05,0.00906474,-0.00292034,0.00468744,0,0,0,0,0.101453,0.517778,-0.967732,34.5,1,44540,57494314
66,3,-0.783456,-0.0960391,9.79209,-0.0485454,-0.644373,0.969375,-0.00783738,-0.000969635,0.0979206,1,4.53237e-05,-1.46017e-05,2.34372e-05,0.00906474,-0.00292034,0.00468744,0,0,0,0,0.101453,0.517778,-0.967732,34.5,1,44540,57494314
66,4,-0.869491,-0.0915266,9.76251,-0.0405028,-0.581566,0.973494,-0.00869841,-0.00092314,0.0976247,1,3.72263e-05,-1.82304e-05,3.48424e-05,0.00744526,-0.00364608,0.00696849,0,0,0,0,0.104271,0.521177,-0.968174,34.5,1,44541,57494414
66,5,-0.869491,-0.0915266,9.76251,-0.0405028,-0.581566,0.973494,-0.00869841,-0.00092314,0.0976247,1,3.72263e-05,-1.82304e-05,3.48424e-05,0.00744526,-0.00364608,0.00696849,0,0,0,0,0.104271,0.521177,-0.968174,34.5,1,44541,57494414
66,6,-0.795379,-0.063831,9.79348,-0.0203571,-0.589986,0.978845,-0.00796118,-0.000649876,0.0979341,1,5.79561e-05,-3.78437e-05,1.3428e-05,0.0115912,-0.00756874,0.0026856,0,0,0,0,0.103153,0.523226,-0.973174,34.5,1,44542,57494514
67,1,-0.795379,-0.063831,9.79348,-0.0203571,-0.589986,0.978845,-0.00796118,-0.000649876,0.0979341,1,5.79561e-05,-3.78437e-05,1.3428e-05,0.0115912,-0.00756874,0.0026856,0,0,0,0,0.103153,0.523226,-0.973174,34.5,1,44542,57494514
67,2,-0.735574,-0.00528554,9.78169,-0.0094843,-0.594445,0.964661,-0.00735883,-6.41631e-05,0.0978167,1,5.63135e-05,-1.58063e-05,1.97703e-05,0.0112627,-0.00316127,0.00395407,0,0,0,0,0.10122,0.52084,-0.975238,34.5,1,44543,57494614
67,3,-0.735574,-0.00528554,9.78169,-0.0094843,-0.594445,0.964661,-0.00735883,-6.41631e-05,0.0978167,1,5.63135e-05,-1.58063e-05,1.97703e-05,0.0112627,-0.00316127,0.00395407,0,0,0,0,0.10122,0.52084,-0.975238,34.5,1,44543,57494614
67,4,-0.845527,-0.0689641,9.77067,-0.0601806,-0.677148,0.970589,-0.00845453,-0.000696094,0.0977068,1,3.11248e-05,3.62311e-06,2.19159e-05,0.00622497,0.000724622,0.00438319,0,0,0,0,0.0994178,0.517875,-0.972266,34.5,1,44544,57494714
67,5,-0.845527,-0.0689641,9.77067,-0.0601806,-0.677148,0.970589,-0.00845453,-0.000696094,0.0977068,1,3.11248e-05,3.62311e-06,2.19159e-05,0.00622497,0.000724622,0.00438319,0,0,0,0,0.0994178,0.517875,-0.972266,34.5,1,44544,57494714
67,6,-0.787851,-0.0714745,9.77909,-0.0184639,-0.683177,0.972124,-0.00788129,-0.000723414,0.0977906,1,4.29768e-05,-1.43384e-05,1.67303e-05,0.00859537,-0.00286768,0.00334606,0,0,0,0,0.0995246,0.517315,-0.968238,34.5,1,44545,57494814
68,1,-0.787851,-0.0714745,9.77909,-0.0184639,-0.683177,0.972124,-0.00788129,-0.000723414,0.0977906,1,4.29768e-05,-1.43384e-05,1.67303e-05,0.00859537,-0.00286768,0.00334606,0,0,0,0,0.0995246,0.517315,-0.968238,34.5,1,44545,57494814
68,2,-0.752752,-0.0605309,9.79286,-0.00701565,-0.663716,0.985719,-0.00753177,-0.000614125,0.0979282,1,4.43495e-05,-2.17446e-05,8.64067e-06,0.00886991,-0.00434893,0.00172813,0,0,0,0,0.100483,0.519719,-0.966674,34.5,1,44546,57494914
68,3,-0.752752,-0.0605309,9.79286,-0.00701565,-0.663716,0.985719,-0.00753177,-0.000614125,0.0979282,1,4.43495e-05,-2.17446e-05,8.64067e-06,0.00886991,-0.00434893,0.00172813,0,0,0,0,0.100483,0.519719,-0.966674,34.5,1,44546,57494914
68,4,-0.801273,-0.099319,9.78606,-0.0333,-0.672359,0.977093,-0.00801355,-0.00100168,0.0978604,1,4.20361e-05,-4.32168e-06,1.64974e-05,0.00840723,-0.000864336,0.00329948,0,0,0,0,0.102828,0.522635,-0.967125,34.5,1,44547,57495014
68,5,-0.801273,-0.099319,9.78606,-0.0333,-0.672359,0.977093,-0.00801355,-0.00100168,0.0978604,1,4.20361e-05,-4.32168e-06,1.64974e-05,0.00840723,-0.000864336,0.00329948,0,0,0,0,0.102828,0.522635,-0.967125,34.5,1,44547,57495014
68,6,-0.77354,-0.0821911,9.78127,-0.0102705,-0.655318,0.966437,-0.00773622,-0.000829962,0.0978126,1,3.88455e-05,-4.46848e-06,2.91708e-05,0.00776911,-0.000893696,0.00583416,0,0,0,0,0.104156,0.522225,-0.972191,34.5,3,44548,57495114
68,7,-0.77354,-0.0821911,9.78127,-0.0102705,-0.655318,0.966437,-0.00773622,-0.000829962,0.0978126,1,3.88455e-05,-4.46848e-06,2.91708e-05,0.00776911,-0.000893696,0.00583416,0,0,0,0,0.104156,0.522225,-0.972191,34.5,3,44548,57495114
68,8,-0.77604,-0.0742239,9.78304,-0.0187864,-0.657276,0.980028,-0.00776033,-0.000752198,0.0978303,1,5.01201e-05,3.09074e-07,9.86828e-06,0.010024,6.18149e-05,0.00197366,0,0,0,0,0.102667,0.519861,-0.975772,34.5,3,44549,57495214
69,1,-0.77604,-0.0742239,9.78304,-0.0187864,-0.657276,0.980028,-0.00776033,-0.000752198,0.0978303,1,5.01201e-05,3.09074e-07,9.86828e-06,0.010024,6.18149e-05,0.00197366,0,0,0,0,0.102667,0.519861,-0.975772,34.5,3,44549,57495214
69,2,-0.762715,-0.0746622,9.7738,-0.00145088,-0.673459,0.970533,-0.00762924,-0.000755766,0.0977377,1,4.51263e-05,-1.08683e-05,2.11672e-05,0.00902527,-0.00217366,0.00423343,0,0,0,0,0.0998823,0.517401,-0.973288,34.5,3,44550,57495314
69,3,-0.762715,-0.0746622,9.7738,-0.00145088,-0.673459,0.970533,-0.00762924,-0.000755766,0.0977377,1,4.51263e-05,-1.08683e-05,2.11672e-05,0.00902527,-0.00217366,0.00423343,0,0,0,0,0.0998823,0.517401,-0.973288,34.5,3,44550,57495314
69,4,-0.736353,-0.0630632,9.771,0.0264414,-0.662126,0.965286,-0.00736505,-0.000641562,0.0977098,1,5.49257e-05,-7.86021e-06,1.33758e-05,0.0109851,-0.00157204,0.00267515,0,0,0,0,0.100984,0.516328,-0.968267,34.5,3,44551,57495414
69,5,-0.736353,-0.0630632,9.771,0.0264414,-0.662126,0.965286,-0.00736505,-0.000641562,0.0977098,1,5.49257e-05,-7.86021e-06,1.33758e-05,0.0109851,-0.00157204,0.00267515,0,0,0,0,0.100984,0.516328,-0.968267,34.5,3,44551,57495414
69,6,-0.78015,-0.0631326,9.77741,-0.00407566,-0.650335,0.960447,-0.00780209,-0.000642817,0.097774,1,5.75577e-05,-3.14614e-06,1.51281e-05,0.0115115,-0.000629228,0.00302562,0,0,0,0,0.101931,0.51874,-0.967207,34.5,3,44552,57495514
69,7,-0.78015,-0.0631326,9.77741,-0.00407566,-0.650335,0.960447,-0.00780209,-0.000642817,0.097774,1,5.75577e-05,-3.14614e-06,1.51281e-05,0.0115115,-0.000629228,0.00302562,0,0,0,0,0.101931,0.51874,-0.967207,34.5,3,44552,57495514
69,8,-0.71166,-0.076288,9.78396,0.0374554,-0.662592,0.956846,-0.00711688,-0.000769164,0.0978395,1,3.03278e-05,-1.61489e-06,2.45364e-05,0.00606556,-0.000322979,0.00490728,0,0,0,0,0.104251,0.521674,-0.968668,34.5,3,44553,57495614
70,1,-0.71166,-0.076288,9.78396,0.0374554,-0.662592,0.956846,-0.00711688,-0.000769164,0.0978395,1,3.03278e-05,-1.61489e-06,2.45364e-05,0.00606556,-0.000322979,0.00490728,0,0,0,0,0.104251,0.521674,-0.968668,34.5,3,44553,57495614
70,2,-0.719369,-0.0866283,9.77172,0.0470604,-0.664908,0.957648,-0.00719762,-0.000877039,0.0977168,1,5.37296e-05,-2.02718e-05,1.77992e-05,0.0107459,-0.00405436,0.00355984,0,0,0,0,0.105102,0.521747,-0.973216,34.5,3,44554,57495714
70,3,-0.719369,-0.0866283,9.77172,0.0470604,-0.664908,0.957648,-0.00719762,-0.000877039,0.0977168,1,5.37296e-05,-2.02718e-05,1.77992e-05,0.0107459,-0.00405436,0.00355984,0,0,0,0,0.105102,0.521747,-0.973216,34.5,3,44554,57495714
70,4,-0.722665,-0.0672337,9.77936,0.0333657,-0.643671,0.964245,-0.00722872,-0.000682489,0.0977933,1,5.09415e-05,-1.06375e-05,1.30293e-05,0.0101883,-0.00212749,0.00260587,0,0,0,0,0.10314,0.5189,-0.976806,34.5,3,44555,57495814
70,5,-0.722665,-0.0672337,9.77936,0.0333657,-0.643671,0.964245,-0.00722872,-0.000682489,0.0977933,1,5.09415e-05,-1.06375e-05,1.30293e-05,0.0101883,-0.00212749,0.00260587,0,0,0,0,0.10314,0.5189,-0.976806,34.5,3,44555,57495814
70,6,-0.677608,-0.0667734,9.79059,0.0847311,-0.652849,0.964708,-0.00677913,-0.000679634,0.0979057,1,5.90292e-05,-1.57444e-05,2.5237e-05,0.0118058,-0.00314889,0.0050474,0,0,0,0,0.0998615,0.516453,-0.974825,34.5,3,44556,57495914
70,7,-0.677608,-0.0667734,9.79059,0.0847311,-0.652849,0.964708,-0.00677913,-0.000679634,0.0979057,1,5.90292e-05,-1.57444e-05,2.5237e-05,0.0118058,-0.00314889,0.0050474,0,0,0,0,0.0998615,0.516453,-0.974825,34.5,3,44556,57495914
70,8,-0.673543,-0.074286,9.78982,0.08873,-0.674196,0.973992,-0.00673824,-0.000754202,0.0978979,1,5.7064e-05,-1.44131e-05,1.2564e-05,0.0114128,-0.00288262,0.00251279,0,0,0,0,0.0990758,0.515368,-0.968279,34.5,3,44557,57496014
71,1,-0.673543,-0.074286,9.78982,0.08873,-0.674196,0.973992,-0.00673824,-0.000754202,0.0978979,1,5.7064e-05,-1.44131e-05,1.2564e-05,0.0114128,-0.00288262,0.00251279,0,0,0,0,0.0990758,0.515368,-0.968279,34.5,3,44557,57496014
71,2,-0.6937,-0.0607754,9.7877,0.0766537,-0.65556,0.970342,-0.00693963,-0.000619174,0.0978767,1,5.75836e-05,-1.35045e-05,1.06042e-05,0.0115167,-0.00270091,0.00212084,0,0,0,0,0.10147,0.518248,-0.966711,34.5,3,44558,57496114
71,3,-0.6937,-0.0607754,9.7877,0.0766537,-0.65556,0.970342,-0.00693963,-0.000619174,0.0978767,1,5.75836e-05,-1.35045e-05,1.06042e-05,0.0115167,-0.00270091,0.00212084,0,0,0,0,0.10147,0.518248,-0.966711,34.5,3,44558,57496114
71,4,-0.697187,-0.0546693,9.78641,0.0666912,-0.652458,0.967197,-0.00697447,-0.000558616,0.0978639,1,5.92227e-05,-1.33924e-05,2.36986e-05,0.0118445,-0.00267849,0.00473973,0,0,0,0,0.105246,0.52116,-0.967674,34.5,3,44559,57496214
71,5,-0.697187,-0.0546693,9.78641,0.0666912,-0.652458,0.967197,-0.00697447,-0.000558616,0.0978639,1,5.92227e-05,-1.33924e-05,2.36986e-05,0.0118445,-0.00267849,0.00473973,0,0,0,0,0.105246,0.52116,-0.967674,34.5,3,44559,57496214
71,6,-0.693064,-0.058503,9.78466,0.076086,-0.650019,0.960998,-0.00693392,-0.000595257,0.0978463,1,5.15803e-05,-1.68609e-05,9.62629e-06,0.0103161,-0.00337217,0.00192526,0,0,0,0,0.105592,0.522701,-0.972187,34.5,3,44560,57496314
72,1,-0.693064,-0.058503,9.78466,0.076086,-0.650019,0.960998,-0.00693392,-0.000595257,0.0978463,1,5.15803e-05,-1.68609e-05,9.62629e-06,0.0103161,-0.00337217,0.00192526,0,0,0,0,0.105592,0.522701,-0.972187,34.5,3,44560,57496314
72,2,-0.680658,-0.0579122,9.79951,0.0796692,-0.643915,0.975745,-0.00680975,-0.000586161,0.0979948,1,3.49992e-05,-1.62552e-05,1.31837e-05,0.00699984,-0.00325103,0.00263675,0,0,0,0,0.103654,0.519835,-0.974767,34.5,3,44561,57496414
72,3,-0.680658,-0.0579122,9.79951,0.0796692,-0.643915,0.975745,-0.00680975,-0.000586161,0.0979948,1,3.49992e-05,-1.62552e-05,1.31837e-05,0.00699984,-0.00325103,0.00263675,0,0,0,0,0.103654,0.519835,-0.974767,34.5,3,44561,57496414
72,4,-0.660555,-0.0586826,9.8031,0.102669,-0.644182,0.982361,-0.00660857,-0.000595781,0.0980308,1,4.46867e-05,-1.54807e-05,1.46347e-05,0.00893734,-0.00309614,0.00292695,0,0,0,0,0.100861,0.517863,-0.972273,34.5,3,44562,57496514
72,5,-0.660555,-0.0586826,9.8031,0.102669,-0.644182,0.982361,-0.00660857,-0.000595781,0.0980308,1,4.46867e-05,-1.54807e-05,1.46347e-05,0.00893734,-0.00309614,0.00292695,0,0,0,0,0.100861,0.517863,-0.972273,34.5,3,44562,57496514
72,6,-0.667715,-0.0725441,9.79251,0.0929077,-0.666737,0.976981,-0.0066807,-0.000735575,0.0979248,1,4.99931e-05,-1.83304e-05,2.56547e-05,0.00999862,-0.00366609,0.00513094,0,0,0,0,0.100988,0.516806,-0.967751,34.5,3,44563,57496614
73,1,-0.667715,-0.0725441,9.79251,0.0929077,-0.666737,0.976981,-0.0066807,-0.000735575,0.0979248,1,4.99931e-05,-1.83304e-05,2.56547e-05,0.00999862,-0.00366609,0.00513094,0,0,0,0,0.100988,0.516806,-0.967751,34.5,3,44563,57496614
73,2,-0.688728,-0.0566666,9.79007,0.0786491,-0.650645,0.970353,-0.00688738,-0.000576475,0.0979006,1,4.86989e-05,-5.80938e-07,1.98912e-05,0.00973977,-0.000116188,0.00397825,0,0,0,0,0.10145,0.518744,-0.967205,34.5,3,44564,57496714
73,3,-0.688728,-0.0566666,9.79007,0.0786491,-0.650645,0.970353,-0.00688738,-0.000576475,0.0979006,1,4.86989e-05,-5.80938e-07,1.98912e-05,0.00973977,-0.000116188,0.00397825,0,0,0,0,0.10145,0.518744,-0.967205,34.5,3,44564,57496714
73,4,-0.696884,-0.0532659,9.77829,0.0686965,-0.655628,0.95858,-0.00697184,-0.000542056,0.0977826,1,4.66965e-05,-1.54766e-05,1.89788e-05,0.00933929,-0.00309531,0.00379575,0,0,0,0,0.103777,0.519745,-0.969719,34.5,3,44565,57496814
73,5,-0.696884,-0.0532659,9.77829,0.0686965,-0.655628,0.95858,-0.00697184,-0.000542056,0.0977826,1,4.66965e-05,-1.54766e-05,1.89788e-05,0.00933929,-0.00309531,0.00379575,0,0,0,0,0.103777,0.519745,-0.969719,34.5,3,44565,57496814
73,6,-0.726715,-0.0560885,9.77915,0.0334807,-0.656976,0.959846,-0.00727079,-0.000567107,0.0977912,1,3.07952e-05,-1.87157e-05,1.36887e-05,0.00615905,-0.00374314,0.00273774,0,0,0,0,0.104152,0.520301,-0.973749,34.5,3,44566,57496914
74,1,-0.726715,-0.0560885,9.77915,0.0334807,-0.656976,0.959846,-0.00727079,-0.000567107,0.0977912,1,3.07952e-05,-1.87157e-05,1.36887e-05,0.00615905,-0.00374314,0.00273774,0,0,0,0,0.104152,0.520301,-0.973749,34.5,3,44566,57496914
74,2,-0.72662,-0.0609663,9.7886,0.0374201,-0.664648,0.972336,-0.00726956,-0.000616596,0.0978857,1,3.33151e-05,-1.73843e-05,2.82545e-05,0.00666303,-0.00347686,0.0056509,0,0,0,0,0.102178,0.520353,-0.975759,34.5,3,44567,57497014
74,3,-0.72662,-0.0609663,9.7886,0.0374201,-0.664648,0.972336,-0.00726956,-0.000616596,0.0978857,1,3.33151e-05,-1.73843e-05,2.82545e-05,0.00666303,-0.00347686,0.0056509,0,0,0,0,0.102178,0.520353,-0.975759,34.5,3,44567,57497014
74,4,-0.744957,-0.0808871,9.78617,0.0209936,-0.679306,0.973098,-0.00745159,-0.000818013,0.0978615,1,4.47127e-05,-1.05759e-05,2.6243e-05,0.00894255,-0.00211518,0.00524859,0,0,0,0,0.100352,0.518852,-0.972753,34.5,3,44568,57497114
74,5,-0.744957,-0.0808871,9.78617,0.0209936,-0.679306,0.973098,-0.00745159,-0.000818013,0.0978615,1,4.47127e-05,-1.05759e-05,2.6243e-05,0.00894255,-0.00211518,0.00524859,0,0,0,0,0.100352,0.518852,-0.972753,34.5,3,44568,57497114
74,6,-0.74963,-0.0791241,9.7842,0.0184396,-0.674065,0.968526,-0.00749917,-0.000800466,0.0978417,1,4.53424e-05,-1.48546e-05,2.34953e-05,0.00906848,-0.00297091,0.00469907,0,0,0,0,0.100976,0.516815,-0.968256,34.5,3,44569,57497214
75,1,-0.74963,-0.0791241,9.7842,0.0184396,-0.674065,0.968526,-0.00749917,-0.000800466,0.0978417,1,4.53424e-05,-1.48546e-05,2.34953e-05,0.00906848,-0.00297091,0.00469907,0,0,0,0,0.100976,0.516815,-0.968256,34.5,3,44569,57497214
75,2,-0.749785,-0.0772269,9.7842,0.00723878,-0.673214,0.968067,-0.00749888,-0.000785784,0.0978418,1,6.74146e-05,-5.45971e-06,2.15509e-05,0.0134829,-0.00109194,0.00431019,0,0,0,0,0.101923,0.519228,-0.967196,34.5,3,44570,57497314
75,3,-0.749785,-0.0772269,9.7842,0.00723878,-0.673214,0.968067,-0.00749888,-0.000785784,0.0978418,1,6.74146e-05,-5.45971e-06,2.15509e-05,0.0134829,-0.00109194,0.00431019,0,0,0,0,0.101923,0.519228,-0.967196,34.5,3,44570,57497314
75,4,-0.785301,-0.0465363,9.7657,-0.0230588,-0.646544,0.961645,-0.00785207,-0.000471445,0.097657,1,2.95247e-05,4.72378e-06,2.01036e-05,0.00590494,0.000944756,0.00402073,0,0,0,0,0.102326,0.520245,-0.969701,34.5,3,44571,57497414
75,5,-0.785301,-0.0465363,9.7657,-0.0230588,-0.646544,0.961645,-0.00785207,-0.000471445,0.097657,1,2.95247e-05,4.72378e-06,2.01036e-05,0.00590494,0.000944756,0.00402073,0,0,0,0,0.102326,0.520245,-0.969701,34.5,3,44571,57497414
75,6,-0.749398,-0.0567586,9.77182,0.0188396,-0.66795,0.964418,-0.00749462,-0.000577783,0.0977181,1,5.08744e-05,-3.37117e-06,1.70174e-05,0.0101749,-0.000674235,0.00340348,0,0,0,0,0.100743,0.521322,-0.97472,34.5,3,44572,57497514
76,1,-0.749398,-0.0567586,9.77182,0.0188396,-0.66795,0.964418,-0.00749462,-0.000577783,0.0977181,1,5.08744e-05,-3.37117e-06,1.70174e-05,0.0101749,-0.000674235,0.00340348,0,0,0,0,0.100743,0.521322,-0.97472,34.5,3,44572,57497514
76,2,-0.759201,-0.0789956,9.78425,0.00740745,-0.684177,0.97037,-0.0075938,-0.000797036,0.0978423,1,3.4364e-05,-9.33767e-06,2.34152e-05,0.00687279,-0.00186753,0.00468304,0,0,0,0,0.10124,0.520343,-0.974744,34.5,3,44573,57497614
76,3,-0.759201,-0.0789956,9.78425,0.00740745,-0.684177,0.97037,-0.0075938,-0.000797036,0.0978423,1,3.4364e-05,-9.33767e-06,2.34152e-05,0.00687279,-0.00186753,0.00468304,0,0,0,0,0.10124,0.520343,-0.974744,34.5,3,44573,57497614
76,4,-0.781277,-0.0683241,9.7879,-0.0186143,-0.66151,0.972767,-0.00781597,-0.000690523,0.0978787,1,3.62974e-05,-1.64621e-05,1.12576e-05,0.00725948,-0.00329242,0.00225151,0,0,0,0,0.100368,0.517876,-0.972775,34.5,3,44574,57497714
76,5,-0.781277,-0.0683241,9.7879,-0.0186143,-0.66151,0.972767,-0.00781597,-0.000690523,0.0978787,1,3.62974e-05,-1.64621e-05,1.12576e-05,0.00725948,-0.00329242,0.00225151,0,0,0,0,0.100368,0.517876,-0.972775,34.5,3,44574,57497714
76,6,-0.792401,-0.0894426,9.78914,-0.0267528,-0.676324,0.971339,-0.00792599,-0.000905525,0.0978911,1,5.48214e-05,-1.03195e-05,2.31171e-05,0.0109643,-0.0020639,0.00462342,0,0,0,0,0.0995122,0.517324,-0.968743,34.5,3,44575,57497814
77,1,-0.792401,-0.0894426,9.78914,-0.0267528,-0.676324,0.971339,-0.00792599,-0.000905525,0.0978911,1,5.48214e-05,-1.03195e-05,2.31171e-05,0.0109643,-0.0020639,0.00462342,0,0,0,0,0.0995122,0.517324,-0.968743,34.5,3,44575,57497814
77,2,-0.776186,-0.0785106,9.77217,-0.0166621,-0.671973,0.956089,-0.00776586,-0.000795069,0.0977213,1,4.91217e-05,-2.06456e-05,2.33092e-05,0.00982433,-0.00412911,0.00466183,0,0,0,0,0.10147,0.518248,-0.966711,34.5,3,44576,57497914
77,3,-0.776186,-0.0785106,9.77217,-0.0166621,-0.671973,0.956089,-0.00776586,-0.000795069,0.0977213,1,4.91217e-05,-2.06456e-05,2.33092e-05,0.00982433,-0.00412911,0.00466183,0,0,0,0,0.10147,0.518248,-0.966711,34.5,3,44576,57497914
77,4,-0.762843,-0.0552523,9.78854,0.00029658,-0.652082,0.971879,-0.00762849,-0.000562697,0.0978854,1,5.15599e-05,-3.20044e-07,5.26917e-06,0.010312,-6.40088e-05,0.00105383,0,0,0,0,0.103313,0.520219,-0.968696,34.5,3,44577,57498014
77,5,-0.762843,-0.0552523,9.78854,0.00029658,-0.652082,0.971879,-0.00762849,-0.000562697,0.0978854,1,5.15599e-05,-3.20044e-07,5.26917e-06,0.010312,-6.40088e-05,0.00105383,0,0,0,0,0.103313,0.520219,-0.968696,34.5,3,44577,57498014
77,6,-0.765201,-0.063067,9.78409,-0.00240954,-0.667226,0.967863,-0.00765376,-0.000642443,0.0978407,1,5.86006e-05,-9.08038e-06,1.9994e-05,0.0117201,-0.00181608,0.00399879,0,0,0,0,0.102215,0.521771,-0.973202,34.5,3,44578,57498114
78,1,-0.765201,-0.063067,9.78409,-0.00240954,-0.667226,0.967863,-0.00765376,-0.000642443,0.0978407,1,5.86006e-05,-9.08038e-06,1.9994e-05,0.0117201,-0.00181608,0.00399879,0,0,0,0,0.102215,0.521771,-0.973202,34.5,3,44578,57498114
78,2,-0.76797,-0.0562387,9.774,-0.011171,-0.6593,0.958221,-0.00768275,-0.000572231,0.0977397,1,4.98164e-05,-1.56276e-05,6.87162e-06,0.00996329,-0.00312553,0.00137432,0,0,0,0,0.101733,0.518885,-0.975284,34.5,3,44579,57498214
78,3,-0.76797,-0.0562387,9.774,-0.011171,-0.6593,0.958221,-0.00768275,-0.000572231,0.0977397,1,4.98164e-05,-1.56276e-05,6.87162e-06,0.00996329,-0.00312553,0.00137432,0,0,0,0,0.101733,0.518885,-0.975284,34.5,3,44579,57498214
78,4,-0.759738,-0.0557415,9.78819,-0.00205995,-0.65307,0.973665,-0.00759883,-0.000564778,0.0978817,1,3.59603e-05,-7.52693e-06,2.12993e-05,0.00719205,-0.00150539,0.00425986,0,0,0,0,0.100392,0.516413,-0.972808,34.5,3,44580,57498314
78,5,-0.759738,-0.0557415,9.78819,-0.00205995,-0.65307,0.973665,-0.00759883,-0.000564778,0.0978817,1,3.59603e-05,-7.52693e-06,2.12993e-05,0.00719205,-0.00150539,0.00425986,0,0,0,0,0.100392,0.516413,-0.972808,34.5,3,44580,57498314
78,6,-0.733408,-0.0734965,9.77837,0.0264167,-0.665567,0.964069,-0.00733622,-0.000744426,0.0977834,1,4.67655e-05,-1.11218e-05,2.14835e-05,0.00935311,-0.00222437,0.00429669,0,0,0,0,0.10003,0.517293,-0.967231,34.5,3,44581,57498414
79,1,-0.733408,-0.0734965,9.77837,0.0264167,-0.665567,0.964069,-0.00733622,-0.000744426,0.0977834,1,4.67655e-05,-1.11218e-05,2.14835e-05,0.00935311,-0.00222437,0.00429669,0,0,0,0,0.10003,0.517293,-0.967231,34.5,3,44581,57498414
79,2,-0.735132,-0.0773737,9.78105,0.0266828,-0.672643,0.966308,-0.00735295,-0.000782062,0.0978103,1,4.10174e-05,-8.48027e-06,2.0463e-05,0.00820347,-0.00169605,0.0040926,0,0,0,0,0.100945,0.521657,-0.966128,34.5,3,44582,57498514
79,3,-0.735132,-0.0773737,9.78105,0.0266828,-0.672643,0.966308,-0.00735295,-0.000782062,0.0978103,1,4.10174e-05,-8.48027e-06,2.0463e-05,0.00820347,-0.00169605,0.0040926,0,0,0,0,0.100945,0.521657,-0.966128,34.5,3,44582,57498514
79,4,-0.746129,-0.0632393,9.78769,0.0198141,-0.659645,0.968454,-0.0074616,-0.000644101,0.0978767,1,5.89807e-05,-1.65958e-06,1.08721e-05,0.0117961,-0.000331915,0.00217443,0,0,0,0,0.102261,0.524147,-0.969614,34.5,3,44583,57498614
79,5,-0.746129,-0.0632393,9.78769,0.0198141,-0.659645,0.968454,-0.0074616,-0.000644101,0.0978767,1,5.89807e-05,-1.65958e-06,1.08721e-05,0.0117961,-0.000331915,0.00217443,0,0,0,0,0.102261,0.524147,-0.969614,34.5,3,44583,57498614
79,6,-0.766686,-0.0589953,9.7692,-0.00202808,-0.656978,0.948363,-0.00766802,-0.000599277,0.0976918,1,4.54857e-05,-6.12839e-06,2.84818e-05,0.00909714,-0.00122568,0.00569635,0,0,0,0,0.102627,0.523745,-0.974675,34.5,3,44584,57498714
80,1,-0.766686,-0.0589953,9.7692,-0.00202808,-0.656978,0.948363,-0.00766802,-0.000599277,0.0976918,1,4.54857e-05,-6.12839e-06,2.84818e-05,0.00909714,-0.00122568,0.00569635,0,0,0,0,0.102627,0.523745,-0.974675,34.5,3,44584,57498714
80,2,-0.767586,-0.0669364,9.7861,-0.00680931,-0.675326,0.970518,-0.00767674,-0.000680908,0.0978608,1,5.70508e-05,-4.64912e-06,2.46152e-05,0.0114102,-0.000929823,0.00492303,0,0,0,0,0.102166,0.520362,-0.976263,34.5,3,44585,57498814
80,3,-0.767586,-0.0669364,9.7861,-0.00680931,-0.675326,0.970518,-0.00767674,-0.000680908,0.0978608,1,5.70508e-05,-4.64912e-06,2.46152e-05,0.0114102,-0.000929823,0.00492303,0,0,0,0,0.102166,0.520362,-0.976263,34.5,3,44585,57498814
80,4,-0.740931,-0.068081,9.78761,0.020314,-0.677491,0.974191,-0.00741215,-0.000691963,0.0978758,1,5.55701e-05,-1.46719e-05,1.85634e-05,0.011114,-0.00293437,0.00371268,0,0,0,0,0.0989035,0.51694,-0.974304,34.5,3,44586,57498914
80,5,-0.740931,-0.068081,9.78761,0.020314,-0.677491,0.974191,-0.00741215,-0.000691963,0.0978758,1,5.55701e-05,-1.46719e-05,1.85634e-05,0.011114,-0.00293437,0.00371268,0,0,0,0,0.0989035,0.51694,-0.974304,34.5,3,44586,57498914
80,6,-0.739368,-0.0718431,9.77942,0.0218167,-0.67185,0.970807,-0.00739421,-0.000727919,0.0977941,1,4.89335e-05,-2.64349e-06,-5.5505e-06,0.0097867,-0.000528698,-0.0011101,0,0,0,0,0.0985296,0.517829,-0.969232,34.5,3,44587,57499014
81,1,-0.739368,-0.0718431,9.77942,0.0218167,-0.67185,0.970807,-0.00739421,-0.000727919,0.0977941,1,4.89335e-05,-2.64349e-06,-5.5505e-06,0.0097867,-0.000528698,-0.0011101,0,0,0,0,0.0985296,0.517829,-0.969232,34.5,3,44587,57499014
81,2,-0.753697,-0.071425,9.7663,0.00824256,-0.673288,0.951209,-0.00753772,-0.000723879,0.0976628,1,4.8181e-05,-3.94715e-06,1.44169e-05,0.0096362,-0.00078943,0.00288339,0,0,0,0,0.0995051,0.520702,-0.966647,34.5,3,44588,57499114
81,3,-0.753697,-0.071425,9.7663,0.00824256,-0.673288,0.951209,-0.00753772,-0.000723879,0.0976628,1,4.8181e-05,-3.94715e-06,1.44169e-05,0.0096362,-0.00078943,0.00288339,0,0,0,0,0.0995051,0.520702,-0.966647,34.5,3,44588,57499114
81,4,-0.745313,-0.0456962,9.77664,0.0161186,-0.646901,0.959248,-0.00745521,-0.000469505,0.0977662,1,6.23929e-05,-1.07643e-05,2.29929e-05,0.0124786,-0.00215285,0.00459857,0,0,0,0,0.102322,0.521211,-0.969174,34.5,3,44589,57499214
81,5,-0.745313,-0.0456962,9.77664,0.0161186,-0.646901,0.959248,-0.00745521,-0.000469505,0.0977662,1,6.23929e-05,-1.07643e-05,2.29929e-05,0.0124786,-0.00215285,0.00459857,0,0,0,0,0.102322,0.521211,-0.969174,34.5,3,44589,57499214
81,6,-0.729545,-0.0569427,9.77169,0.0339354,-0.66303,0.952818,-0.00729815,-0.000579724,0.0977166,1,5.20125e-05,-1.3845e-05,9.00961e-06,0.0104025,-0.00276901,0.00180192,0,0,0,0,0.103683,0.520296,-0.973242,34.5,3,44590,57499314
82,1,-0.729545,-0.0569427,9.77169,0.0339354,-0.66303,0.952818,-0.00729815,-0.000579724,0.0977166,1,5.20125e-05,-1.3845e-05,9.00961e-06,0.0104025,-0.00276901,0.00180192,0,0,0,0,0.103683,0.520296,-0.973242,34.5,3,44590,57499314
82,2,-0.729683,-0.0762862,9.79052,0.030512,-0.688965,0.968654,-0.00729695,-0.00077193,0.0979051,1,4.47222e-05,-7.7851e-07,2.13197e-05,0.00894444,-0.000155702,0.00426394,0,0,0,0,0.101778,0.51837,-0.973781,34.5,3,44591,57499414
82,3,-0.729683,-0.0762862,9.79052,0.030512,-0.688965,0.968654,-0.00729695,-0.00077193,0.0979051,1,4.47222e-05,-7.7851e-07,2.13197e-05,0.00894444,-0.000155702,0.00426394,0,0,0,0,0.101778,0.51837,-0.973781,34.5,3,44591,57499414
82,4,-0.747355,-0.0811801,9.78923,0.0187837,-0.689162,0.971529,-0.00747339,-0.00082261,0.0978923,1,5.31451e-05,5.62345e-07,2.70324e-05,0.010629,0.000112469,0.00540649,0,0,0,0,0.100384,0.518346,-0.971755,34.5,3,44592,57499514
82,5,-0.747355,-0.0811801,9.78923,0.0187837,-0.689162,0.971529,-0.00747339,-0.00082261,0.0978923,1,5.31451e-05,5.62345e-07,2.70324e-05,0.010629,0.000112469,0.00540649,0,0,0,0,0.100384,0.518346,-0.971755,34.5,3,44592,57499514
82,6,-0.756307,-0.0582848,9.7817,0.00346767,-0.658934,0.967882,-0.00756571,-0.000591761,0.0978167,1,4.38336e-05,-1.36385e-05,2.22959e-05,0.00876671,-0.00272769,0.00445918,0,0,0,0,0.100524,0.51728,-0.966728,34.5,3,44593,57499614
83,1,-0.756307,-0.0582848,9.7817,0.00346767,-0.658934,0.967882,-0.00756571,-0.000591761,0.0978167,1,4.38336e-05,-1.36385e-05,2.22959e-05,0.00876671,-0.00272769,0.00445918,0,0,0,0,0.100524,0.51728,-0.966728,34.5,3,44593,57499614
83,2,-0.73828,-0.0666732,9.79574,0.0202558,-0.66706,0.978724,-0.00738311,-0.000678874,0.0979573,1,6.01615e-05,-1.72643e-06,2.41233e-05,0.0120323,-0.000345285,0.00482467,0,0,0,0,0.101963,0.518235,-0.966209,34.5,3,44594,57499714
83,3,-0.73828,-0.0666732,9.79574,0.0202558,-0.66706,0.978724,-0.00738311,-0.000678874,0.0979573,1,6.01615e-05,-1.72643e-06,2.41233e-05,0.0120323,-0.000345285,0.00482467,0,0,0,0,0.101963,0.518235,-0.966209,34.5,3,44594,57499714
83,4,-0.740167,-0.0679844,9.78796,0.0211483,-0.669174,0.971824,-0.00740509,-0.000691921,0.0978792,1,5.95525e-05,-1.76856e-05,2.83421e-05,0.0119105,-0.00353712,0.00566841,0,0,0,0,0.104736,0.520704,-0.969197,34.5,3,44595,57499814
83,5,-0.740167,-0.0679844,9.78796,0.0211483,-0.669174,0.971824,-0.00740509,-0.000691921,0.0978792,1,5.95525e-05,-1.76856e-05,2.83421e-05,0.0119105,-0.00353712,0.00566841,0,0,0,0,0.104736,0.520704,-0.969197,34.5,3,44595,57499814
83,6,-0.73725,-0.0663528,9.78183,0.0222538,-0.674643,0.964931,-0.00737361,-0.000672652,0.0978182,1,4.55696e-05,-5.79844e-06,1.41448e-05,0.00911393,-0.00115969,0.00282896,0,0,0,0,0.104609,0.52176,-0.973718,34.5,3,44596,57499914
84,1,-0.73725,-0.0663528,9.78183,0.0222538,-0.674643,0.964931,-0.00737361,-0.000672652,0.0978182,1,4.55696e-05,-5.79844e-06,1.41448e-05,0.00911393,-0.00115969,0.00282896,0,0,0,0,0.104609,0.52176,-0.973718,34.5,3,44596,57499914
84,2,-0.740659,-0.070165,9.78454,0.0167968,-0.688009,0.966436,-0.00740749,-0.000712627,0.0978452,1,5.3972e-05,-4.79252e-06,2.80478e-05,0.0107944,-0.000958505,0.00560956,0,0,0,0,0.101199,0.519891,-0.976775,34.5,3,44597,57500014
84,3,-0.740659,-0.070165,9.78454,0.0167968,-0.688009,0.966436,-0.00740749,-0.000712627,0.0978452,1,5.3972e-05,-4.79252e-06,2.80478e-05,0.0107944,-0.000958505,0.00560956,0,0,0,0,0.101199,0.519891,-0.976775,34.5,3,44597,57500014
84,4,-0.720532,-0.0514609,9.78356,0.0380329,-0.664396,0.966439,-0.00720953,-0.000524347,0.0978352,1,4.80992e-05,-2.16306e-05,2.26088e-05,0.00961985,-0.00432612,0.00452176,0,0,0,0,0.0993481,0.518408,-0.974779,34.5,3,44598,57500114
84,5,-0.720532,-0.0514609,9.78356,0.0380329,-0.664396,0.966439,-0.00720953,-0.000524347,0.0978352,1,4.80992e-05,-2.16306e-05,2.26088e-05,0.00961985,-0.00432612,0.00452176,0,0,0,0,0.0993481,0.518408,-0.974779,34.5,3,44598,57500114
84,6,-0.720827,-0.0665837,9.78783,0.0423344,-0.674915,0.970825,-0.00721136,-0.000675602,0.097878,1,4.94811e-05,-1.58086e-05,5.46876e-06,0.00989622,-0.00316172,0.00109375,0,0,0,0,0.100474,0.517316,-0.968747,34.5,3,44599,57500214
84,7,-0.720827,-0.0665837,9.78783,0.0423344,-0.674915,0.970825,-0.00721136,-0.000675602,0.097878,1,4.94811e-05,-1.58086e-05,5.46876e-06,0.00989622,-0.00316172,0.00109375,0,0,0,0,0.100474,0.517316,-0.968747,34.5,3,44599,57500214
84,8,-0.732,-0.0748376,9.78309,0.0301041,-0.681598,0.968354,-0.0073236,-0.000757575,0.0978306,1,4.54801e-05,-1.85632e-05,2.0521e-05,0.00909602,-0.00371264,0.00410419,0,0,0,0,0.100496,0.51971,-0.966169,34.5,3,44600,57500314
85,1,-0.732,-0.0748376,9.78309,0.0301041,-0.681598,0.968354,-0.0073236,-0.000757575,0.0978306,1,4.54801e-05,-1.85632e-05,2.0521e-05,0.00909602,-0.00371264,0.00410419,0,0,0,0,0.100496,0.51971,-0.966169,34.5,3,44600,57500314
85,2,-0.7327,-0.0703861,9.7811,0.0303453,-0.678306,0.963545,-0.00732992,-0.000713278,0.0978107,1,4.65457e-05,-1.50836e-05,2.12862e-05,0.00930914,-0.00301673,0.00425724,0,0,0,0,0.102795,0.521695,-0.969166,34.5,3,44601,57500414
85,3,-0.7327,-0.0703861,9.7811,0.0303453,-0.678306,0.963545,-0.00732992,-0.000713278,0.0978107,1,4.65457e-05,-1.50836e-05,2.12862e-05,0.00930914,-0.00301673,0.00425724,0,0,0,0,0.102795,0.521695,-0.969166,34.5,3,44601,57500414
85,4,-0.735683,-0.0702834,9.78994,0.0255245,-0.681488,0.968954,-0.00736059,-0.000711201,0.0978991,1,4.23212e-05,-1.92541e-05,5.4853e-06,0.00846425,-0.00385081,0.00109706,0,0,0,0,0.103215,0.521736,-0.971692,34.5,3,44602,57500514
85,5,-0.735683,-0.0702834,9.78994,0.0255245,-0.681488,0.968954,-0.00736059,-0.000711201,0.0978991,1,4.23212e-05,-1.92541e-05,5.4853e-06,0.00846425,-0.00385081,0.00109706,0,0,0,0,0.103215,0.521736,-0.971692,34.5,3,44602,57500514
85,6,-0.725465,-0.0781721,9.78777,0.0332226,-0.689642,0.968956,-0.00725816,-0.000792548,0.0978774,1,5.2817e-05,-1.81797e-05,3.35929e-05,0.0105634,-0.00363594,0.00671858,0,0,0,0,0.100335,0.519827,-0.972731,34.5,3,44603,57500614
86,1,-0.725465,-0.0781721,9.78777,0.0332226,-0.689642,0.968956,-0.00725816,-0.000792548,0.0978774,1,5.2817e-05,-1.81797e-05,3.35929e-05,0.0105634,-0.00363594,0.00671858,0,0,0,0,0.100335,0.519827,-0.972731,34.5,3,44603,57500614
86,2,-0.717868,-0.0557528,9.79299,0.04421,-0.672722,0.971447,-0.00718168,-0.000566241,0.0979296,1,4.34368e-05,-1.53985e-05,1.43146e-05,0.00868736,-0.0030797,0.00286293,0,0,0,0,0.0989695,0.517373,-0.971264,34.5,3,44604,57500714
86,3,-0.717868,-0.0557528,9.79299,0.04421,-0.672722,0.971447,-0.00718168,-0.000566241,0.0979296,1,4.34368e-05,-1.53985e-05,1.43146e-05,0.00868736,-0.0030797,0.00286293,0,0,0,0,0.0989695,0.517373,-0.971264,34.5,3,44604,57500714
86,4,-0.720726,-0.0567563,9.78621,0.0394552,-0.669113,0.964784,-0.00720675,-0.000575719,0.0978621,1,4.06281e-05,2.54223e-06,1.41225e-05,0.00812561,0.000508446,0.0028245,0,0,0,0,0.0995697,0.5168,-0.966735,34.5,3,44605,57500814
86,5,-0.720726,-0.0567563,9.78621,0.0394552,-0.669113,0.964784,-0.00720675,-0.000575719,0.0978621,1,4.06281e-05,2.54223e-06,1.41225e-05,0.00812561,0.000508446,0.0028245,0,0,0,0,0.0995697,0.5168,-0.966735,34.5,3,44605,57500814
86,6,-0.727993,-0.072203,9.78715,0.0357029,-0.687394,0.968546,-0.00728093,-0.000730844,0.0978714,1,4.36399e-05,-5.22304e-06,1.86487e-05,0.00872799,-0.00104461,0.00372973,0,0,0,0,0.101927,0.519707,-0.966681,34.5,3,44606,57500914
87,1,-0.727993,-0.072203,9.78715,0.0357029,-0.687394,0.968546,-0.00728093,-0.000730844,0.0978714,1,4.36399e-05,-5.22304e-06,1.86487e-05,0.00872799,-0.00104461,0.00372973,0,0,0,0,0.101927,0.519707,-0.966681,34.5,3,44606,57500914
87,2,-0.752815,-0.0736168,9.7846,0.0114026,-0.680186,0.963678,-0.00752911,-0.000747457,0.0978458,1,5.61383e-05,-5.05358e-06,2.01815e-05,0.0112277,-0.00101072,0.00403631,0,0,0,0,0.105649,0.522177,-0.970178,34.5,3,44607,57501014
87,3,-0.752815,-0.0736168,9.7846,0.0114026,-0.680186,0.963678,-0.00752911,-0.000747457,0.0978458,1,5.61383e-05,-5.05358e-06,2.01815e-05,0.0112277,-0.00101072,0.00403631,0,0,0,0,0.105649,0.522177,-0.970178,34.5,3,44607,57501014
87,4,-0.770137,-0.0739471,9.77589,-0.0115215,-0.679802,0.955889,-0.00770477,-0.000750675,0.0977585,1,5.6969e-05,-1.744e-05,4.2265e-06,0.0113938,-0.003488,0.0008453,0,0,0,0,0.104543,0.522772,-0.975716,34.5,3,44608,57501114
87,5,-0.770137,-0.0739471,9.77589,-0.0115215,-0.679802,0.955889,-0.00770477,-0.000750675,0.0977585,1,5.6969e-05,-1.744e-05,4.2265e-06,0.0113938,-0.003488,0.0008453,0,0,0,0,0.104543,0.522772,-0.975716,34.5,3,44608,57501114
87,6,-0.76699,-0.0778343,9.78398,-0.010514,-0.697461,0.968338,-0.00767297,-0.000788978,0.0978395,1,5.26476e-05,-1.58456e-05,2.1685e-05,0.0105295,-0.00316911,0.00433699,0,0,0,0,0.102162,0.521328,-0.975737,34.5,3,44609,57501214
88,1,-0.76699,-0.0778343,9.78398,-0.010514,-0.697461,0.968338,-0.00767297,-0.000788978,0.0978395,1,5.26476e-05,-1.58456e-05,2.1685e-05,0.0105295,-0.00316911,0.00433699,0,0,0,0,0.102162,0.521328,-0.975737,34.5,3,44609,57501214
88,2,-0.757183,-0.0666292,9.78639,-0.000606931,-0.686062,0.972947,-0.00757479,-0.000675504,0.0978636,1,4.65196e-05,-1.5188e-05,7.05172e-06,0.00930391,-0.00303761,0.00141034,0,0,0,0,0.099406,0.519329,-0.971728,34.5,3,44610,57501314
88,3,-0.757183,-0.0666292,9.78639,-0.000606931,-0.686062,0.972947,-0.00757479,-0.000675504,0.0978636,1,4.65196e-05,-1.5188e-05,7.05172e-06,0.00930391,-0.00303761,0.00141034,0,0,0,0,0.099406,0.519329,-0.971728,34.5,3,44610,57501314
