frame_id,imu_idx,accel_x,accel_y,accel_z,free_accel_x,free_accel_y,free_accel_z,delta_v_x,delta_v_y,delta_v_z,delta_q_w,delta_q_x,delta_q_y,delta_q_z,rate_x,rate_y,rate_z,quat_w,quat_x,quat_y,quat_z,mag_x,mag_y,mag_z,temperature,status_byte,packet_counter,time_fine
1,1,-0.691809,-0.0305887,9.79177,0.369523,-1.17329,1.03034,-0.00691928,-0.000316218,0.0979176,1,5.16642e-05,-6.09237e-06,1.53744e-05,0.0103328,-0.00121847,0.00307489,0,0,0,0,0.0472364,0.315119,-1.12502,34.125,3,19239,48398776
1,2,-0.499304,-0.0609367,7.34606,0.369523,-1.17329,1.03034,-0.00499422,-0.00061395,0.0734605,1,2.9981e-05,-8.20672e-06,1.7889e-05,0.00599621,-0.00164134,0.00357781,0,0,0,0,0.0479464,0.518163,-0.991719,34.0625,1,24541,48930444
2,1,-0.499304,-0.0609367,7.34606,0.369523,-1.17329,1.03034,-0.00499422,-0.00061395,0.0734605,1,2.9981e-05,-8.20672e-06,1.7889e-05,0.00599621,-0.00164134,0.00357781,0,0,0,0,0.0479464,0.518163,-0.991719,34.0625,1,24541,48930444
2,2,-0.677541,-0.0793013,9.78759,0.0747599,-0.500122,0.99619,-0.00677651,-0.000800998,0.0978758,1,3.97338e-05,-5.74995e-06,1.52424e-05,0.00794676,-0.00114999,0.00304849,0,0,0,0,0.0464655,0.516757,-0.994269,34.0625,1,24542,48930544
3,1,-0.677541,-0.0793013,9.78759,0.0747599,-0.500122,0.99619,-0.00677651,-0.000800998,0.0978758,1,3.97338e-05,-5.74995e-06,1.52424e-05,0.00794676,-0.00114999,0.00304849,0,0,0,0,0.0464655,0.516757,-0.994269,34.0625,1,24542,48930544
3,2,-0.672393,-0.0758564,9.79065,0.0805449,-0.497484,1.00216,-0.00672432,-0.000768431,0.0979064,1,4.87044e-05,-2.17724e-06,2.44845e-05,0.00974089,-0.000435447,0.0048969,0,0,0,0,0.0465054,0.512872,-0.995365,34.0625,1,24543,48930644
4,1,-0.672393,-0.0758564,9.79065,0.0805449,-0.497484,1.00216,-0.00672432,-0.000768431,0.0979064,1,4.87044e-05,-2.17724e-06,2.44845e-05,0.00974089,-0.000435447,0.0048969,0,0,0,0,0.0465054,0.512872,-0.995365,34.0625,1,24543,48930644
4,2,-0.66846,-0.0766478,9.80148,0.0861103,-0.499047,1.01492,-0.00668666,-0.000776131,0.0980146,1,4.82613e-05,-1.06261e-05,1.43553e-05,0.00965225,-0.00212522,0.00287106,0,0,0,0,0.0451845,0.509904,-0.992395,34.0625,1,24544,48930744
7,1,-0.66846,-0.0766478,9.80148,0.0861103,-0.499047,1.01492,-0.00668666,-0.000776131,0.0980146,1,4.82613e-05,-1.06261e-05,1.43553e-05,0.00965225,-0.00212522,0.00287106,0,0,0,0,0.0451845,0.509904,-0.992395,34.0625,1,24544,48930744
7,2,-0.677512,-0.0709745,9.79378,0.080434,-0.487735,1.00445,-0.00677604,-0.000716942,0.0979377,1,3.56007e-05,-4.82437e-06,1.6572e-05,0.00712014,-0.000964874,0.00331441,0,0,0,0,0.0462986,0.508821,-0.986868,34.0625,1,24545,48930844
8,1,-0.677512,-0.0709745,9.79378,0.080434,-0.487735,1.00445,-0.00677604,-0.000716942,0.0979377,1,3.56007e-05,-4.82437e-06,1.6572e-05,0.00712014,-0.000964874,0.00331441,0,0,0,0,0.0462986,0.508821,-0.986868,34.0625,1,24545,48930844
8,2,-0.666272,-0.0723731,9.78759,0.0891267,-0.488163,0.988963,-0.00666325,-0.000731965,0.0978758,1,4.08981e-05,-2.84039e-06,1.71288e-05,0.00817963,-0.000568079,0.00342576,0,0,0,0,0.0486932,0.513146,-0.984258,34.0625,1,24546,48930944
9,1,-0.666272,-0.0723731,9.78759,0.0891267,-0.488163,0.988963,-0.00666325,-0.000731965,0.0978758,1,4.08981e-05,-2.84039e-06,1.71288e-05,0.00817963,-0.000568079,0.00342576,0,0,0,0,0.0486932,0.513146,-0.984258,34.0625,1,24546,48930944
9,2,-0.664272,-0.0647281,9.78493,0.0877625,-0.48163,0.983924,-0.00664571,-0.000657354,0.097849,1,5.01478e-05,-1.54078e-05,1.94761e-05,0.0100296,-0.00308157,0.00389522,0,0,0,0,0.0494595,0.517618,-0.989213,34.0625,1,24547,48931044
9,3,-0.664272,-0.0647281,9.78493,0.0877625,-0.48163,0.983924,-0.00664571,-0.000657354,0.097849,1,5.01478e-05,-1.54078e-05,1.94761e-05,0.0100296,-0.00308157,0.00389522,0,0,0,0,0.0494595,0.517618,-0.989213,34.0625,1,24547,48931044
9,4,-0.676167,-0.0793498,9.7981,0.0740166,-0.502962,1.00089,-0.00676048,-0.000803726,0.097981,1,4.97977e-05,5.79636e-06,3.46826e-05,0.00995954,0.00115927,0.00693652,0,0,0,0,0.0483407,0.516777,-0.996297,34.0625,1,24548,48931144
10,1,-0.676167,-0.0793498,9.7981,0.0740166,-0.502962,1.00089,-0.00676048,-0.000803726,0.097981,1,4.97977e-05,5.79636e-06,3.46826e-05,0.00995954,0.00115927,0.00693652,0,0,0,0,0.0483407,0.516777,-0.996297,34.0625,1,24548,48931144
10,2,-0.663179,-0.0785999,9.77903,0.0863284,-0.508812,0.985357,-0.00663354,-0.000793157,0.0977902,1,3.59304e-05,-8.99114e-06,9.90169e-06,0.00718608,-0.00179823,0.00198034,0,0,0,0,0.0469984,0.511414,-0.995905,34.0625,1,24549,48931244
11,1,-0.663179,-0.0785999,9.77903,0.0863284,-0.508812,0.985357,-0.00663354,-0.000793157,0.0977902,1,3.59304e-05,-8.99114e-06,9.90169e-06,0.00718608,-0.00179823,0.00198034,0,0,0,0,0.0469984,0.511414,-0.995905,34.0625,1,24549,48931244
11,2,-0.676465,-0.0742076,9.78628,0.0743327,-0.503422,0.998497,-0.00676647,-0.000751483,0.0978626,1,4.66033e-05,-9.46062e-06,2.10926e-05,0.00932066,-0.00189213,0.00421852,0,0,0,0,0.0447115,0.50942,-0.992403,34.0625,1,24550,48931344
12,1,-0.676465,-0.0742076,9.78628,0.0743327,-0.503422,0.998497,-0.00676647,-0.000751483,0.0978626,1,4.66033e-05,-9.46062e-06,2.10926e-05,0.00932066,-0.00189213,0.00421852,0,0,0,0,0.0447115,0.50942,-0.992403,34.0625,1,24550,48931344
12,2,-0.672092,-0.069358,9.78493,0.0820884,-0.489334,0.995153,-0.00672349,-0.000701707,0.0978491,1,3.98176e-05,-1.33159e-05,2.49243e-05,0.00796353,-0.00266318,0.00498487,0,0,0,0,0.0448064,0.510314,-0.987838,34.0625,1,24551,48931444
10,1,-0.672092,-0.069358,9.78493,0.0820884,-0.489334,0.995153,-0.00672349,-0.000701707,0.0978491,1,3.98176e-05,-1.33159e-05,2.49243e-05,0.00796353,-0.00266318,0.00498487,0,0,0,0,0.0448064,0.510314,-0.987838,34.0625,1,24551,48931444
10,2,-0.67776,-0.0650991,9.78095,0.0761769,-0.489701,0.991217,-0.00678117,-0.000663797,0.0978092,1,6.37455e-05,-1.84084e-05,2.48137e-05,0.0127491,-0.00368168,0.00496274,0,0,0,0,0.0471882,0.513203,-0.986775,34.0625,1,24552,48931544
14,1,-0.67776,-0.0650991,9.78095,0.0761769,-0.489701,0.991217,-0.00678117,-0.000663797,0.0978092,1,6.37455e-05,-1.84084e-05,2.48137e-05,0.0127491,-0.00368168,0.00496274,0,0,0,0,0.0471882,0.513203,-0.986775,34.0625,1,24552,48931544
14,2,-0.675806,-0.0749496,9.78932,0.076405,-0.499284,0.989916,-0.00675978,-0.00075723,0.097893,1,3.77054e-05,-8.96098e-06,2.60158e-05,0.00754109,-0.0017922,0.00520317,0,0,0,0,0.0489413,0.517649,-0.990725,34.0625,1,24553,48931644
15,1,-0.675806,-0.0749496,9.78932,0.076405,-0.499284,0.989916,-0.00675978,-0.00075723,0.097893,1,3.77054e-05,-8.96098e-06,2.60158e-05,0.00754109,-0.0017922,0.00520317,0,0,0,0,0.0489413,0.517649,-0.990725,34.0625,1,24553,48931644
15,2,-0.677411,-0.0665807,9.80094,0.0741799,-0.499101,1.00652,-0.00677617,-0.000673457,0.0980092,1,3.74466e-05,-1.06547e-05,2.2903e-05,0.00748932,-0.00213094,0.00458061,0,0,0,0,0.0473908,0.516776,-0.995788,34.0625,1,24554,48931744
16,1,-0.677411,-0.0665807,9.80094,0.0741799,-0.499101,1.00652,-0.00677617,-0.000673457,0.0980092,1,3.74466e-05,-1.06547e-05,2.2903e-05,0.00748932,-0.00213094,0.00458061,0,0,0,0,0.0473908,0.516776,-0.995788,34.0625,1,24554,48931744
16,2,-0.675716,-0.0750038,9.79441,0.0707147,-0.509942,1.00123,-0.00675865,-0.00075774,0.0979439,1,3.81935e-05,-7.70394e-06,1.62963e-05,0.00763871,-0.00154079,0.00325925,0,0,0,0,0.0469861,0.511423,-0.99641,34.0625,1,24555,48931844
17,1,-0.675716,-0.0750038,9.79441,0.0707147,-0.509942,1.00123,-0.00675865,-0.00075774,0.0979439,1,3.81935e-05,-7.70394e-06,1.62963e-05,0.00763871,-0.00154079,0.00325925,0,0,0,0,0.0469861,0.511423,-0.99641,34.0625,1,24555,48931844
17,2,-0.670105,-0.0679313,9.78866,0.0819077,-0.496872,0.998303,-0.00670095,-0.000688917,0.0978865,1,4.7436e-05,3.27717e-07,2.36854e-05,0.00948719,6.55435e-05,0.00473708,0,0,0,0,0.0452742,0.507429,-0.99043,34.0625,1,24556,48931944
18,1,-0.670105,-0.0679313,9.78866,0.0819077,-0.496872,0.998303,-0.00670095,-0.000688917,0.0978865,1,4.7436e-05,3.27717e-07,2.36854e-05,0.00948719,6.55435e-05,0.00473708,0,0,0,0,0.0452742,0.507429,-0.99043,34.0625,1,24556,48931944
18,2,-0.672112,-0.0840392,9.77972,0.0783905,-0.515622,0.985564,-0.00672001,-0.00084975,0.0977972,1,4.70113e-05,5.54541e-06,1.20997e-05,0.00940226,0.00110908,0.00241994,0,0,0,0,0.0453976,0.507339,-0.985382,34.0625,1,24557,48932044
19,1,-0.672112,-0.0840392,9.77972,0.0783905,-0.515622,0.985564,-0.00672001,-0.00084975,0.0977972,1,4.70113e-05,5.54541e-06,1.20997e-05,0.00940226,0.00110908,0.00241994,0,0,0,0,0.0453976,0.507339,-0.985382,34.0625,1,24557,48932044
19,2,-0.679395,-0.0752587,9.79037,0.0699522,-0.503174,0.99613,-0.00679743,-0.000762497,0.0979034,1,4.92986e-05,-1.79114e-05,1.89039e-05,0.00985972,-0.00358228,0.00378078,0,0,0,0,0.0466947,0.513216,-0.987278,34.0625,1,24558,48932144
20,1,-0.679395,-0.0752587,9.79037,0.0699522,-0.503174,0.99613,-0.00679743,-0.000762497,0.0979034,1,4.92986e-05,-1.79114e-05,1.89039e-05,0.00985972,-0.00358228,0.00378078,0,0,0,0,0.0466947,0.513216,-0.987278,34.0625,1,24558,48932144
20,2,-0.673932,-0.0628453,9.78364,0.0803738,-0.492349,0.985535,-0.00673975,-0.00063825,0.0978363,1,4.88571e-05,-2.30803e-06,1.76152e-05,0.00977143,-0.000461606,0.00352303,0,0,0,0,0.047033,0.516689,-0.990737,34.0625,1,24559,48932244
21,1,-0.673932,-0.0628453,9.78364,0.0803738,-0.492349,0.985535,-0.00673975,-0.00063825,0.0978363,1,4.88571e-05,-2.30803e-06,1.76152e-05,0.00977143,-0.000461606,0.00352303,0,0,0,0,0.047033,0.516689,-0.990737,34.0625,1,24559,48932244
21,2,-0.675892,-0.0741246,9.79136,0.0775327,-0.508541,0.994461,-0.00675725,-0.000750338,0.0979137,1,4.44017e-05,8.28919e-06,2.93981e-05,0.00888034,0.00165784,0.00587962,0,0,0,0,0.046885,0.516798,-0.996795,34.0625,1,24560,48932344
22,1,-0.675892,-0.0741246,9.79136,0.0775327,-0.508541,0.994461,-0.00675725,-0.000750338,0.0979137,1,4.44017e-05,8.28919e-06,2.93981e-05,0.00888034,0.00165784,0.00587962,0,0,0,0,0.046885,0.516798,-0.996795,34.0625,1,24560,48932344
22,2,-0.690995,-0.0762474,9.78705,0.0601264,-0.512672,0.992565,-0.00691261,-0.00077251,0.0978702,1,4.91701e-05,-1.3845e-05,2.98135e-05,0.00983402,-0.002769,0.0059627,0,0,0,0,0.0459788,0.511946,-0.997909,34.0625,1,24561,48932444
23,1,-0.690995,-0.0762474,9.78705,0.0601264,-0.512672,0.992565,-0.00691261,-0.00077251,0.0978702,1,4.91701e-05,-1.3845e-05,2.98135e-05,0.00983402,-0.002769,0.0059627,0,0,0,0,0.0459788,0.511946,-0.997909,34.0625,1,24561,48932444
23,2,-0.67517,-0.0792522,9.78182,0.0779127,-0.519019,0.994304,-0.00675165,-0.000801191,0.0978181,1,4.37275e-05,2.05059e-07,8.40985e-06,0.00874549,4.10117e-05,0.00168197,0,0,0,0,0.0437578,0.510386,-0.991367,34.0625,1,24562,48932544
24,1,-0.67517,-0.0792522,9.78182,0.0779127,-0.519019,0.994304,-0.00675165,-0.000801191,0.0978181,1,4.37275e-05,2.05059e-07,8.40985e-06,0.00874549,4.10117e-05,0.00168197,0,0,0,0,0.0437578,0.510386,-0.991367,34.0625,1,24562,48932544
24,2,-0.666256,-0.0771513,9.78687,0.0849603,-0.517382,0.999458,-0.00666418,-0.000781167,0.0978685,1,4.79817e-05,-8.38741e-06,1.96194e-05,0.00959633,-0.00167748,0.00392388,0,0,0,0,0.0448438,0.511733,-0.985282,34.0625,1,24563,48932644
25,1,-0.666256,-0.0771513,9.78687,0.0849603,-0.517382,0.999458,-0.00666418,-0.000781167,0.0978685,1,4.79817e-05,-8.38741e-06,1.96194e-05,0.00959633,-0.00167748,0.00392388,0,0,0,0,0.0448438,0.511733,-0.985282,34.0625,1,24563,48932644
25,2,-0.68152,-0.0799873,9.79169,0.0716268,-0.520256,1.00148,-0.00681638,-0.000809939,0.0979168,1,5.00791e-05,-6.18363e-06,1.89805e-05,0.0100158,-0.00123673,0.00379611,0,0,0,0,0.0467156,0.514164,-0.985741,34.0625,1,24564,48932744
26,1,-0.68152,-0.0799873,9.79169,0.0716268,-0.520256,1.00148,-0.00681638,-0.000809939,0.0979168,1,5.00791e-05,-6.18363e-06,1.89805e-05,0.0100158,-0.00123673,0.00379611,0,0,0,0,0.0467156,0.514164,-0.985741,34.0625,1,24564,48932744
26,2,-0.667301,-0.0649285,9.79207,0.0820577,-0.504115,0.988893,-0.0066745,-0.000657809,0.0979205,1,4.14812e-05,-7.8325e-06,2.99419e-05,0.00829624,-0.0015665,0.00598838,0,0,0,0,0.0479872,0.517169,-0.990731,34.0625,1,24565,48932844
27,1,-0.667301,-0.0649285,9.79207,0.0820577,-0.504115,0.988893,-0.0066745,-0.000657809,0.0979205,1,4.14812e-05,-7.8325e-06,2.99419e-05,0.00829624,-0.0015665,0.00598838,0,0,0,0,0.0479872,0.517169,-0.990731,34.0625,1,24565,48932844
27,2,-0.665501,-0.0713742,9.78658,0.0866688,-0.514306,0.986748,-0.0066577,-0.000721702,0.0978655,1,3.96315e-05,-1.38339e-05,1.52587e-05,0.00792631,-0.00276679,0.00305173,0,0,0,0,0.0483734,0.516271,-0.995298,34.0625,1,24566,48932944
28,1,-0.665501,-0.0713742,9.78658,0.0866688,-0.514306,0.986748,-0.0066577,-0.000721702,0.0978655,1,3.96315e-05,-1.38339e-05,1.52587e-05,0.00792631,-0.00276679,0.00305173,0,0,0,0,0.0483734,0.516271,-0.995298,34.0625,1,24566,48932944
28,2,-0.677079,-0.074723,9.79578,0.0719493,-0.519088,1.00423,-0.00677174,-0.000753723,0.0979577,1,3.20003e-05,-4.99739e-06,1.65085e-05,0.00640006,-0.000999479,0.00330171,0,0,0,0,0.0474919,0.511401,-0.995403,34.0625,1,24567,48933044
29,1,-0.677079,-0.074723,9.79578,0.0719493,-0.519088,1.00423,-0.00677174,-0.000753723,0.0979577,1,3.20003e-05,-4.99739e-06,1.65085e-05,0.00640006,-0.000999479,0.00330171,0,0,0,0,0.0474919,0.511401,-0.995403,34.0625,1,24567,48933044
29,2,-0.675866,-0.0740503,9.79068,0.0712124,-0.524273,1.00257,-0.00675876,-0.00075101,0.0979068,1,5.25731e-05,-6.54053e-07,1.5721e-05,0.0105146,-0.000130811,0.00314419,0,0,0,0,0.0461918,0.509381,-0.990896,34.0625,1,24568,48933144
30,1,-0.675866,-0.0740503,9.79068,0.0712124,-0.524273,1.00257,-0.00675876,-0.00075101,0.0979068,1,5.25731e-05,-6.54053e-07,1.5721e-05,0.0105146,-0.000130811,0.00314419,0,0,0,0,0.0461918,0.509381,-0.990896,34.0625,1,24568,48933144
30,2,-0.676457,-0.0861317,9.78686,0.0722583,-0.532536,0.996201,-0.0067649,-0.000870714,0.0978684,1,4.76166e-05,-1.76746e-06,5.67569e-06,0.00952333,-0.000353492,0.00113514,0,0,0,0,0.045789,0.50981,-0.987349,34.0625,1,24569,48933244
31,1,-0.676457,-0.0861317,9.78686,0.0722583,-0.532536,0.996201,-0.0067649,-0.000870714,0.0978684,1,4.76166e-05,-1.76746e-06,5.67569e-06,0.00952333,-0.000353492,0.00113514,0,0,0,0,0.045789,0.50981,-0.987349,34.0625,1,24569,48933244
31,2,-0.680601,-0.0773373,9.78696,0.0689972,-0.516151,0.992725,-0.00680606,-0.000780628,0.0978695,1,3.62713e-05,-3.36839e-07,1.13678e-05,0.00725425,-6.73679e-05,0.00227355,0,0,0,0,0.0457529,0.512727,-0.986779,34.0625,1,24570,48933344
32,1,-0.680601,-0.0773373,9.78696,0.0689972,-0.516151,0.992725,-0.00680606,-0.000780628,0.0978695,1,3.62713e-05,-3.36839e-07,1.13678e-05,0.00725425,-6.73679e-05,0.00227355,0,0,0,0,0.0457529,0.512727,-0.986779,34.0625,1,24570,48933344
32,2,-0.670029,-0.0696399,9.78492,0.075962,-0.514094,0.986071,-0.00670176,-0.000706159,0.0978491,1,4.82667e-05,-7.68585e-06,2.34637e-05,0.00965333,-0.00153717,0.00469273,0,0,0,0,0.046597,0.516179,-0.989231,34.0625,1,24571,48933444
33,1,-0.670029,-0.0696399,9.78492,0.075962,-0.514094,0.986071,-0.00670176,-0.000706159,0.0978491,1,4.82667e-05,-7.68585e-06,2.34637e-05,0.00965333,-0.00153717,0.00469273,0,0,0,0,0.046597,0.516179,-0.989231,34.0625,1,24571,48933444
33,2,-0.677369,-0.0695873,9.78634,0.0694963,-0.521516,0.985661,-0.00677754,-0.000705358,0.0978631,1,4.83338e-05,-1.96957e-05,1.78634e-06,0.00966675,-0.00393914,0.000357267,0,0,0,0,0.0459597,0.516779,-0.995276,34.0625,1,24572,48933544
34,1,-0.677369,-0.0695873,9.78634,0.0694963,-0.521516,0.985661,-0.00677754,-0.000705358,0.0978631,1,4.83338e-05,-1.96957e-05,1.78634e-06,0.00966675,-0.00393914,0.000357267,0,0,0,0,0.0459597,0.516779,-0.995276,34.0625,1,24572,48933544
34,2,-0.664234,-0.071979,9.78452,0.0837448,-0.526899,0.989807,-0.00664491,-0.000730514,0.097845,1,5.38881e-05,-1.32586e-05,1.34185e-05,0.0107776,-0.00265172,0.00268371,0,0,0,0,0.0450497,0.512893,-0.995863,34.0625,1,24573,48933644
35,1,-0.664234,-0.071979,9.78452,0.0837448,-0.526899,0.989807,-0.00664491,-0.000730514,0.097845,1,5.38881e-05,-1.32586e-05,1.34185e-05,0.0107776,-0.00265172,0.00268371,0,0,0,0,0.0450497,0.512893,-0.995863,34.0625,1,24573,48933644
35,2,-0.684105,-0.0779707,9.78801,0.0674812,-0.536216,0.997723,-0.00684455,-0.000789639,0.0978798,1,5.02505e-05,-1.79353e-05,6.94384e-06,0.0100501,-0.00358707,0.00138877,0,0,0,0,0.0441853,0.509939,-0.993905,34.0625,1,24574,48933744
36,1,-0.684105,-0.0779707,9.78801,0.0674812,-0.536216,0.997723,-0.00684455,-0.000789639,0.0978798,1,5.02505e-05,-1.79353e-05,6.94384e-06,0.0100501,-0.00358707,0.00138877,0,0,0,0,0.0441853,0.509939,-0.993905,34.0625,1,24574,48933744
36,2,-0.674534,-0.0807895,9.79538,0.0776715,-0.535043,1.00401,-0.00674873,-0.000816889,0.0979535,1,4.52716e-05,-1.74138e-05,9.33166e-06,0.00905432,-0.00348276,0.00186633,0,0,0,0,0.0443172,0.510806,-0.987825,34.0625,1,24575,48933844
37,1,-0.674534,-0.0807895,9.79538,0.0776715,-0.535043,1.00401,-0.00674873,-0.000816889,0.0979535,1,4.52716e-05,-1.74138e-05,9.33166e-06,0.00905432,-0.00348276,0.00186633,0,0,0,0,0.0443172,0.510806,-0.987825,34.0625,1,24575,48933844
37,2,-0.668771,-0.0738238,9.78114,0.0836749,-0.523338,0.987038,-0.00668753,-0.000744125,0.0978114,1,2.85282e-05,7.71225e-07,2.29236e-05,0.00570565,0.000154245,0.00458473,0,0,0,0,0.0457695,0.513197,-0.985759,34.0625,1,24576,48933944
38,1,-0.668771,-0.0738238,9.78114,0.0836749,-0.523338,0.987038,-0.00668753,-0.000744125,0.0978114,1,2.85282e-05,7.71225e-07,2.29236e-05,0.00570565,0.000154245,0.00458473,0,0,0,0,0.0457695,0.513197,-0.985759,34.0625,1,24576,48933944
38,2,-0.674105,-0.0740555,9.78559,0.0750393,-0.52935,0.984646,-0.00674305,-0.000750798,0.0978557,1,5.17014e-05,-1.03283e-05,9.20729e-06,0.0103403,-0.00206565,0.00184146,0,0,0,0,0.0475421,0.514256,-0.991299,34.0625,1,24577,48934044
38,3,-0.674105,-0.0740555,9.78559,0.0750393,-0.52935,0.984646,-0.00674305,-0.000750798,0.0978557,1,5.17014e-05,-1.03283e-05,9.20729e-06,0.0103403,-0.00206565,0.00184146,0,0,0,0,0.0475421,0.514256,-0.991299,34.0625,1,24577,48934044
38,4,-0.676701,-0.0688556,9.79346,0.0687633,-0.526017,0.995103,-0.00676911,-0.0006981,0.0979344,1,4.65328e-05,-1.096e-05,3.17018e-05,0.00930656,-0.00219201,0.00634037,0,0,0,0,0.0469377,0.51435,-0.996345,34.0625,1,24578,48934144
39,1,-0.676701,-0.0688556,9.79346,0.0687633,-0.526017,0.995103,-0.00676911,-0.0006981,0.0979344,1,4.65328e-05,-1.096e-05,3.17018e-05,0.00930656,-0.00219201,0.00634037,0,0,0,0,0.0469377,0.51435,-0.996345,34.0625,1,24578,48934144
39,2,-0.670463,-0.069668,9.79545,0.0770896,-0.525903,0.999352,-0.00670937,-0.000707156,0.0979541,1,5.12433e-05,-2.44379e-05,3.25813e-05,0.0102487,-0.00488757,0.00651626,0,0,0,0,0.0460405,0.511901,-0.995385,34.0625,1,24579,48934244
40,1,-0.670463,-0.069668,9.79545,0.0770896,-0.525903,0.999352,-0.00670937,-0.000707156,0.0979541,1,5.12433e-05,-2.44379e-05,3.25813e-05,0.0102487,-0.00488757,0.00651626,0,0,0,0,0.0460405,0.511901,-0.995385,34.0625,1,24579,48934244
40,2,-0.680701,-0.0680335,9.78195,0.0617577,-0.526213,0.989948,-0.00680717,-0.000687849,0.0978194,1,3.65543e-05,-9.68368e-07,2.66508e-05,0.00731086,-0.000193674,0.00533017,0,0,0,0,0.0447281,0.50989,-0.991383,34.0625,1,24580,48934344
41,1,-0.680701,-0.0680335,9.78195,0.0617577,-0.526213,0.989948,-0.00680717,-0.000687849,0.0978194,1,3.65543e-05,-9.68368e-07,2.66508e-05,0.00731086,-0.000193674,0.00533017,0,0,0,0,0.0447281,0.50989,-0.991383,34.0625,1,24580,48934344
41,2,-0.68396,-0.0765298,9.78834,0.0646454,-0.532443,0.995538,-0.00684024,-0.000776214,0.0978833,1,5.48214e-05,-3.37287e-06,1.34223e-05,0.0109643,-0.000674573,0.00268446,0,0,0,0,0.0452837,0.511277,-0.987314,34.0625,1,24581,48934444
42,1,-0.68396,-0.0765298,9.78834,0.0646454,-0.532443,0.995538,-0.00684024,-0.000776214,0.0978833,1,5.48214e-05,-3.37287e-06,1.34223e-05,0.0109643,-0.000674573,0.00268446,0,0,0,0,0.0452837,0.511277,-0.987314,34.0625,1,24581,48934444
42,2,-0.666405,-0.0675731,9.78389,0.0824174,-0.52665,0.987265,-0.00666396,-0.000684898,0.0978389,1,4.53033e-05,3.18356e-07,2.27149e-05,0.00906066,6.36712e-05,0.00454298,0,0,0,0,0.0481343,0.514171,-0.986758,34.0625,1,24582,48934544
43,1,-0.666405,-0.0675731,9.78389,0.0824174,-0.52665,0.987265,-0.00666396,-0.000684898,0.0978389,1,4.53033e-05,3.18356e-07,2.27149e-05,0.00906066,6.36712e-05,0.00454298,0,0,0,0,0.0481343,0.514171,-0.986758,34.0625,1,24582,48934544
43,2,-0.682662,-0.0666739,9.78572,0.068533,-0.522319,0.984201,-0.00682741,-0.000674856,0.097857,1,4.01568e-05,-4.14629e-06,1.89355e-05,0.00803137,-0.000829259,0.00378711,0,0,0,0,0.0484887,0.516668,-0.990239,34.0625,1,24583,48934644
44,1,-0.682662,-0.0666739,9.78572,0.068533,-0.522319,0.984201,-0.00682741,-0.000674856,0.097857,1,4.01568e-05,-4.14629e-06,1.89355e-05,0.00803137,-0.000829259,0.00378711,0,0,0,0,0.0484887,0.516668,-0.990239,34.0625,1,24583,48934644
44,2,-0.684215,-0.0798211,9.78968,0.058355,-0.542189,0.988782,-0.00684398,-0.000806235,0.0978966,1,4.04995e-05,-9.42697e-06,6.87875e-06,0.00809989,-0.00188539,0.00137575,0,0,0,0,0.0464205,0.517271,-0.995772,34.0625,1,24584,48934744
44,3,-0.684215,-0.0798211,9.78968,0.058355,-0.542189,0.988782,-0.00684398,-0.000806235,0.0978966,1,4.04995e-05,-9.42697e-06,6.87875e-06,0.00809989,-0.00188539,0.00137575,0,0,0,0,0.0464205,0.517271,-0.995772,34.0625,1,24584,48934744
44,4,-0.661791,-0.0669556,9.79235,0.0902337,-0.529731,0.998891,-0.00661999,-0.000678162,0.0979233,1,4.24981e-05,-1.07848e-05,2.13216e-05,0.00849963,-0.00215697,0.00426431,0,0,0,0,0.0459954,0.512416,-0.996888,34.0625,1,24585,48934844
45,1,-0.661791,-0.0669556,9.79235,0.0902337,-0.529731,0.998891,-0.00661999,-0.000678162,0.0979233,1,4.24981e-05,-1.07848e-05,2.13216e-05,0.00849963,-0.00215697,0.00426431,0,0,0,0,0.0459954,0.512416,-0.996888,34.0625,1,24585,48934844
45,2,-0.663604,-0.0611793,9.78699,0.0873865,-0.527011,0.998584,-0.00663787,-0.000619193,0.0978697,1,3.69195e-05,-9.40473e-06,1.30906e-05,0.00738389,-0.00188095,0.00261812,0,0,0,0,0.04474,0.508435,-0.99192,34.0625,1,24586,48934944
46,1,-0.663604,-0.0611793,9.78699,0.0873865,-0.527011,0.998584,-0.00663787,-0.000619193,0.0978697,1,3.69195e-05,-9.40473e-06,1.30906e-05,0.00738389,-0.00188095,0.00261812,0,0,0,0,0.04474,0.508435,-0.99192,34.0625,1,24586,48934944
46,2,-0.672846,-0.0671972,9.78055,0.0730468,-0.529607,0.986912,-0.00672823,-0.000682374,0.0978055,1,5.15023e-05,1.00036e-06,2.43278e-05,0.0103005,0.000200072,0.00486555,0,0,0,0,0.0467921,0.508808,-0.986366,34.0625,1,24587,48935044
47,1,-0.672846,-0.0671972,9.78055,0.0730468,-0.529607,0.986912,-0.00672823,-0.000682374,0.0978055,1,5.15023e-05,1.00036e-06,2.43278e-05,0.0103005,0.000200072,0.00486555,0,0,0,0,0.0467921,0.508808,-0.986366,34.0625,1,24587,48935044
47,2,-0.675337,-0.071297,9.78766,0.0744533,-0.531486,0.99085,-0.00675736,-0.000718345,0.0978763,1,2.58833e-05,-2.05245e-05,2.27857e-05,0.00517666,-0.0041049,0.00455715,0,0,0,0,0.048167,0.513665,-0.985759,34.0625,1,24588,48935144
48,1,-0.675337,-0.071297,9.78766,0.0744533,-0.531486,0.99085,-0.00675736,-0.000718345,0.0978763,1,2.58833e-05,-2.05245e-05,2.27857e-05,0.00517666,-0.0041049,0.00455715,0,0,0,0,0.048167,0.513665,-0.985759,34.0625,1,24588,48935144
48,2,-0.662257,-0.0783335,9.79903,0.0828725,-0.542695,0.994611,-0.00662147,-0.000790969,0.0979903,1,3.80574e-05,5.48738e-06,1.32679e-05,0.00761149,0.00109748,0.00265358,0,0,0,0,0.049459,0.516173,-0.990255,34.0625,1,24589,48935244
49,1,-0.662257,-0.0783335,9.79903,0.0828725,-0.542695,0.994611,-0.00662147,-0.000790969,0.0979903,1,3.80574e-05,5.48738e-06,1.32679e-05,0.00761149,0.00109748,0.00265358,0,0,0,0,0.049459,0.516173,-0.990255,34.0625,1,24589,48935244
49,2,-0.674671,-0.07596,9.7927,0.0738194,-0.544541,0.989128,-0.00674896,-0.000768429,0.0979268,1,4.41242e-05,-1.16118e-05,1.37966e-05,0.00882483,-0.00232237,0.00275933,0,0,0,0,0.0474316,0.515782,-0.9948,34.0625,1,24590,48935344
50,1,-0.674671,-0.07596,9.7927,0.0738194,-0.544541,0.989128,-0.00674896,-0.000768429,0.0979268,1,4.41242e-05,-1.16118e-05,1.37966e-05,0.00882483,-0.00232237,0.00275933,0,0,0,0,0.0474316,0.515782,-0.9948,34.0625,1,24590,48935344
50,2,-0.679725,-0.0855393,9.79062,0.065953,-0.555646,0.995692,-0.00679879,-0.000864496,0.097906,1,4.50369e-05,-8.00393e-06,2.08653e-05,0.00900738,-0.00160079,0.00417306,0,0,0,0,0.0451067,0.510924,-0.994897,34.0625,1,24591,48935444
51,1,-0.679725,-0.0855393,9.79062,0.065953,-0.555646,0.995692,-0.00679879,-0.000864496,0.097906,1,4.50369e-05,-8.00393e-06,2.08653e-05,0.00900738,-0.00160079,0.00417306,0,0,0,0,0.0451067,0.510924,-0.994897,34.0625,1,24591,48935444
51,2,-0.68213,-0.0832365,9.79811,0.0656308,-0.559921,1.00577,-0.00682232,-0.000842276,0.0979809,1,4.90825e-05,-5.39235e-06,2.14391e-05,0.00981651,-0.00107847,0.00428782,0,0,0,0,0.0447196,0.508932,-0.992414,34.0625,1,24592,48935544
52,1,-0.68213,-0.0832365,9.79811,0.0656308,-0.559921,1.00577,-0.00682232,-0.000842276,0.0979809,1,4.90825e-05,-5.39235e-06,2.14391e-05,0.00981651,-0.00107847,0.00428782,0,0,0,0,0.0447196,0.508932,-0.992414,34.0625,1,24592,48935544
52,2,-0.678451,-0.076479,9.78356,0.0676831,-0.547218,0.992274,-0.00678691,-0.000774827,0.0978354,1,4.96432e-05,-1.24351e-05,2.38382e-05,0.00992863,-0.00248703,0.00476764,0,0,0,0,0.0457567,0.511761,-0.987306,34.0625,1,24593,48935644
53,1,-0.678451,-0.076479,9.78356,0.0676831,-0.547218,0.992274,-0.00678691,-0.000774827,0.0978354,1,4.96432e-05,-1.24351e-05,2.38382e-05,0.00992863,-0.00248703,0.00476764,0,0,0,0,0.0457567,0.511761,-0.987306,34.0625,1,24593,48935644
53,2,-0.665838,-0.080834,9.78175,0.0804119,-0.549852,0.982507,-0.00666089,-0.000818772,0.0978173,1,5.20033e-05,-1.29656e-05,1.93286e-05,0.0104007,-0.00259312,0.00386572,0,0,0,0,0.0486239,0.515124,-0.985729,34.0625,1,24594,48935744
54,1,-0.665838,-0.080834,9.78175,0.0804119,-0.549852,0.982507,-0.00666089,-0.000818772,0.0978173,1,5.20033e-05,-1.29656e-05,1.93286e-05,0.0104007,-0.00259312,0.00386572,0,0,0,0,0.0486239,0.515124,-0.985729,34.0625,1,24594,48935744
54,2,-0.668809,-0.0687812,9.79714,0.0741061,-0.54257,1.00297,-0.006691,-0.000696181,0.0979712,1,4.19245e-05,-1.49459e-05,1.14903e-05,0.0083849,-0.00298918,0.00229806,0,0,0,0,0.0504502,0.516625,-0.988734,34.0625,1,24595,48935844
55,1,-0.668809,-0.0687812,9.79714,0.0741061,-0.54257,1.00297,-0.006691,-0.000696181,0.0979712,1,4.19245e-05,-1.49459e-05,1.14903e-05,0.0083849,-0.00298918,0.00229806,0,0,0,0,0.0504502,0.516625,-0.988734,34.0625,1,24595,48935844
55,2,-0.668867,-0.077983,9.78926,0.0779048,-0.551319,0.989088,-0.00669056,-0.000786254,0.0978924,1,3.19258e-05,-9.7639e-06,1.29472e-05,0.00638516,-0.00195278,0.00258943,0,0,0,0,0.0478923,0.516275,-0.995296,34.0625,1,24596,48935944
56,1,-0.668867,-0.077983,9.78926,0.0779048,-0.551319,0.989088,-0.00669056,-0.000786254,0.0978924,1,3.19258e-05,-9.7639e-06,1.29472e-05,0.00638516,-0.00195278,0.00258943,0,0,0,0,0.0478923,0.516275,-0.995296,34.0625,1,24596,48935944
56,2,-0.676824,-0.0738798,9.77578,0.0632814,-0.554505,0.976485,-0.00676994,-0.000745096,0.0977576,1,3.14805e-05,-8.79188e-06,1.05834e-05,0.00629611,-0.00175838,0.00211668,0,0,0,0,0.0450331,0.512424,-0.996884,34.0625,1,24597,48936044
57,1,-0.676824,-0.0738798,9.77578,0.0632814,-0.554505,0.976485,-0.00676994,-0.000745096,0.0977576,1,3.14805e-05,-8.79188e-06,1.05834e-05,0.00629611,-0.00175838,0.00211668,0,0,0,0,0.0450331,0.512424,-0.996884,34.0625,1,24597,48936044
57,2,-0.679068,-0.0750218,9.79579,0.0663384,-0.556417,1.00097,-0.00679348,-0.000757911,0.0979577,1,3.90765e-05,-1.42751e-05,2.75306e-06,0.0078153,-0.00285501,0.000550612,0,0,0,0,0.0437654,0.508452,-0.992421,34.0625,1,24598,48936144
58,1,-0.679068,-0.0750218,9.79579,0.0663384,-0.556417,1.00097,-0.00679348,-0.000757911,0.0979577,1,3.90765e-05,-1.42751e-05,2.75306e-06,0.0078153,-0.00285501,0.000550612,0,0,0,0,0.0437654,0.508452,-0.992421,34.0625,1,24598,48936144
58,2,-0.678668,-0.0728821,9.7931,0.065363,-0.551681,1.00204,-0.00679062,-0.000737259,0.0979307,1,4.22242e-05,-2.01874e-05,1.23456e-05,0.00844485,-0.00403749,0.00246913,0,0,0,0,0.045353,0.509299,-0.985843,34.0625,1,24599,48936244
59,1,-0.678668,-0.0728821,9.7931,0.065363,-0.551681,1.00204,-0.00679062,-0.000737259,0.0979307,1,4.22242e-05,-2.01874e-05,1.23456e-05,0.00844485,-0.00403749,0.00246913,0,0,0,0,0.045353,0.509299,-0.985843,34.0625,1,24599,48936244
59,2,-0.672998,-0.0710815,9.79206,0.0761157,-0.54876,0.996423,-0.00673241,-0.000719754,0.0979203,1,4.50052e-05,-1.24947e-05,9.28349e-06,0.00900104,-0.00249894,0.0018567,0,0,0,0,0.0481879,0.514613,-0.984223,34.0625,1,24600,48936344
60,1,-0.672998,-0.0710815,9.79206,0.0761157,-0.54876,0.996423,-0.00673241,-0.000719754,0.0979203,1,4.50052e-05,-1.24947e-05,9.28349e-06,0.00900104,-0.00249894,0.0018567,0,0,0,0,0.0481879,0.514613,-0.984223,34.0625,1,24600,48936344
60,2,-0.678239,-0.0595779,9.79219,0.0658507,-0.534368,0.993779,-0.00678304,-0.000605254,0.0979218,1,4.74863e-05,-3.42356e-06,1.28595e-05,0.00949726,-0.000684713,0.0025719,0,0,0,0,0.0480361,0.515688,-0.989754,34.0625,1,24601,48936444
61,1,-0.678239,-0.0595779,9.79219,0.0658507,-0.534368,0.993779,-0.00678304,-0.000605254,0.0979218,1,4.74863e-05,-3.42356e-06,1.28595e-05,0.00949726,-0.000684713,0.0025719,0,0,0,0,0.0480361,0.515688,-0.989754,34.0625,1,24601,48936444
61,2,-0.680077,-0.074446,9.79242,0.06347,-0.551286,0.993148,-0.00680337,-0.000755383,0.0979239,1,5.39086e-05,-1.34764e-05,2.68407e-05,0.0107817,-0.00269528,0.00536814,0,0,0,0,0.0464447,0.515808,-0.995805,34.0625,1,24602,48936544
62,1,-0.680077,-0.074446,9.79242,0.06347,-0.551286,0.993148,-0.00680337,-0.000755383,0.0979239,1,5.39086e-05,-1.34764e-05,2.68407e-05,0.0107817,-0.00269528,0.00536814,0,0,0,0,0.0464447,0.515808,-0.995805,34.0625,1,24602,48936544
62,2,-0.679894,-0.0735401,9.78971,0.064013,-0.557667,0.991919,-0.00679892,-0.000744728,0.097897,1,4.6622e-05,3.91178e-08,1.46012e-05,0.0093244,7.82357e-06,0.00292024,0,0,0,0,0.0464808,0.512891,-0.996375,34.0625,1,24603,48936644
63,1,-0.679894,-0.0735401,9.78971,0.064013,-0.557667,0.991919,-0.00679892,-0.000744728,0.097897,1,4.6622e-05,3.91178e-08,1.46012e-05,0.0093244,7.82357e-06,0.00292024,0,0,0,0,0.0464808,0.512891,-0.996375,34.0625,1,24603,48936644
63,2,-0.670998,-0.0710345,9.78289,0.0718565,-0.551089,0.986037,-0.00671297,-0.000717856,0.0978286,1,3.69045e-05,-1.54227e-05,2.15677e-05,0.00738091,-0.00308454,0.00431353,0,0,0,0,0.0451684,0.510879,-0.992373,34.0625,1,24604,48936744
63,3,-0.670998,-0.0710345,9.78289,0.0718565,-0.551089,0.986037,-0.00671297,-0.000717856,0.0978286,1,3.69045e-05,-1.54227e-05,2.15677e-05,0.00738091,-0.00308454,0.00431353,0,0,0,0,0.0451684,0.510879,-0.992373,34.0625,1,24604,48936744
63,4,-0.679153,-0.0782334,9.78728,0.0640785,-0.557529,0.989524,-0.00679294,-0.00079308,0.0978726,1,5.39832e-05,-7.34255e-06,1.31466e-05,0.0107966,-0.00146851,0.00262932,0,0,0,0,0.0462582,0.51126,-0.986814,34.0625,1,24605,48936844
64,1,-0.679153,-0.0782334,9.78728,0.0640785,-0.557529,0.989524,-0.00679294,-0.00079308,0.0978726,1,5.39832e-05,-7.34255e-06,1.31466e-05,0.0107966,-0.00146851,0.00262932,0,0,0,0,0.0462582,0.51126,-0.986814,34.0625,1,24605,48936844
64,2,-0.674758,-0.0689864,9.79073,0.0718076,-0.548585,0.99469,-0.00674889,-0.000699886,0.0979071,1,5.0243e-05,-6.81173e-06,1.36475e-05,0.0100486,-0.00136234,0.00272949,0,0,0,0,0.046699,0.513695,-0.986762,34.0625,1,24606,48936944
65,1,-0.674758,-0.0689864,9.79073,0.0718076,-0.548585,0.99469,-0.00674889,-0.000699886,0.0979071,1,5.0243e-05,-6.81173e-06,1.36475e-05,0.0100486,-0.00136234,0.00272949,0,0,0,0,0.046699,0.513695,-0.986762,34.0625,1,24606,48936944
65,2,-0.68049,-0.0793117,9.7927,0.0641141,-0.561165,0.995437,-0.00680648,-0.000801727,0.0979269,1,4.28054e-05,-8.16931e-06,1.66934e-05,0.00856107,-0.00163386,0.00333868,0,0,0,0,0.0484882,0.515223,-0.991282,34.0625,1,24607,48937044
66,1,-0.68049,-0.0793117,9.7927,0.0641141,-0.561165,0.995437,-0.00680648,-0.000801727,0.0979269,1,4.28054e-05,-8.16931e-06,1.66934e-05,0.00856107,-0.00163386,0.00333868,0,0,0,0,0.0484882,0.515223,-0.991282,34.0625,1,24607,48937044
66,2,-0.665969,-0.0587014,9.78635,0.0803834,-0.542735,0.98875,-0.00666288,-0.000595887,0.0978632,1,4.33344e-05,-1.64601e-05,2.93889e-05,0.00866689,-0.00329202,0.00587777,0,0,0,0,0.0478591,0.515335,-0.997337,34.0625,1,24608,48937144
67,1,-0.665969,-0.0587014,9.78635,0.0803834,-0.542735,0.98875,-0.00666288,-0.000595887,0.0978632,1,4.33344e-05,-1.64601e-05,2.93889e-05,0.00866689,-0.00329202,0.00587777,0,0,0,0,0.0478591,0.515335,-0.997337,34.0625,1,24608,48937144
67,2,-0.667506,-0.0714693,9.79236,0.0795249,-0.558255,0.994282,-0.00667731,-0.000722684,0.0979234,1,3.9179e-05,-1.17049e-05,2.3784e-05,0.00783579,-0.00234098,0.00475679,0,0,0,0,0.0469291,0.513392,-0.997376,34.0625,1,24609,48937244
68,1,-0.667506,-0.0714693,9.79236,0.0795249,-0.558255,0.994282,-0.00667731,-0.000722684,0.0979234,1,3.9179e-05,-1.17049e-05,2.3784e-05,0.00783579,-0.00234098,0.00475679,0,0,0,0,0.0469291,0.513392,-0.997376,34.0625,1,24609,48937244
68,2,-0.677859,-0.0721714,9.79004,0.0613533,-0.558343,0.993136,-0.00677958,-0.000729928,0.0979002,1,4.10266e-05,-5.16876e-06,1.3359e-05,0.00820532,-0.00103375,0.00267181,0,0,0,0,0.0442185,0.510878,-0.991864,34.0625,1,24610,48937344
69,1,-0.677859,-0.0721714,9.79004,0.0613533,-0.558343,0.993136,-0.00677958,-0.000729928,0.0979002,1,4.10266e-05,-5.16876e-06,1.3359e-05,0.00820532,-0.00103375,0.00267181,0,0,0,0,0.0442185,0.510878,-0.991864,34.0625,1,24610,48937344
69,2,-0.670018,-0.0658434,9.78496,0.0731866,-0.548943,0.986069,-0.00670347,-0.000668761,0.0978493,1,5.13456e-05,-1.69408e-05,2.07761e-05,0.0102691,-0.00338817,0.00415522,0,0,0,0,0.0448353,0.510775,-0.986313,34.0625,1,24611,48937444
70,1,-0.670018,-0.0658434,9.78496,0.0731866,-0.548943,0.986069,-0.00670347,-0.000668761,0.0978493,1,5.13456e-05,-1.69408e-05,2.07761e-05,0.0102691,-0.00338817,0.00415522,0,0,0,0,0.0448353,0.510775,-0.986313,34.0625,1,24611,48937444
70,2,-0.674495,-0.0641823,9.77923,0.0698449,-0.553775,0.981128,-0.00674701,-0.000651196,0.0977921,1,4.83821e-05,-1.05167e-05,-6.66839e-06,0.00967643,-0.00210334,-0.00133368,0,0,0,0,0.0471967,0.514161,-0.985744,34.0625,1,24612,48937544
71,1,-0.674495,-0.0641823,9.77923,0.0698449,-0.553775,0.981128,-0.00674701,-0.000651196,0.0977921,1,4.83821e-05,-1.05167e-05,-6.66839e-06,0.00967643,-0.00210334,-0.00133368,0,0,0,0,0.0471967,0.514161,-0.985744,34.0625,1,24612,48937544
71,2,-0.664456,-0.0717411,9.79132,0.0798483,-0.557868,0.988779,-0.0066472,-0.0007258,0.0979129,1,4.20883e-05,-1.35656e-05,1.10752e-05,0.00841767,-0.00271312,0.00221505,0,0,0,0,0.0489779,0.516177,-0.990253,34.0625,1,24613,48937644
72,1,-0.664456,-0.0717411,9.79132,0.0798483,-0.557868,0.988779,-0.0066472,-0.0007258,0.0979129,1,4.20883e-05,-1.35656e-05,1.10752e-05,0.00841767,-0.00271312,0.00221505,0,0,0,0,0.0489779,0.516177,-0.990253,34.0625,1,24613,48937644
72,2,-0.679673,-0.072128,9.78837,0.0636806,-0.562795,0.991266,-0.00680126,-0.000730706,0.0978833,1,4.75029e-05,-2.32145e-05,9.28327e-06,0.00950057,-0.0046429,0.00185665,0,0,0,0,0.0469419,0.514829,-0.995829,34.0625,1,24614,48937744
73,1,-0.679673,-0.072128,9.78837,0.0636806,-0.562795,0.991266,-0.00680126,-0.000730706,0.0978833,1,4.75029e-05,-2.32145e-05,9.28327e-06,0.00950057,-0.0046429,0.00185665,0,0,0,0,0.0469419,0.514829,-0.995829,34.0625,1,24614,48937744
73,2,-0.672726,-0.0804141,9.79163,0.0660072,-0.569353,0.992633,-0.00672734,-0.000812228,0.0979162,1,4.01716e-05,-5.82978e-07,1.63374e-05,0.00803433,-0.000116596,0.00326747,0,0,0,0,0.0450455,0.512415,-0.996379,34.0625,1,24615,48937844
74,1,-0.672726,-0.0804141,9.79163,0.0660072,-0.569353,0.992633,-0.00672734,-0.000812228,0.0979162,1,4.01716e-05,-5.82978e-07,1.63374e-05,0.00803433,-0.000116596,0.00326747,0,0,0,0,0.0450455,0.512415,-0.996379,34.0625,1,24615,48937844
74,2,-0.673702,-0.0707688,9.78562,0.0653642,-0.55964,0.99176,-0.0067392,-0.000715189,0.097856,1,3.69382e-05,-1.12967e-05,2.01947e-05,0.00738765,-0.00225933,0.00403895,0,0,0,0,0.0437046,0.511388,-0.99286,34.0625,1,24616,48937944
75,1,-0.673702,-0.0707688,9.78562,0.0653642,-0.55964,0.99176,-0.0067392,-0.000715189,0.097856,1,3.69382e-05,-1.12967e-05,2.01947e-05,0.00738765,-0.00225933,0.00403895,0,0,0,0,0.0437046,0.511388,-0.99286,34.0625,1,24616,48937944
75,2,-0.670607,-0.0710935,9.79136,0.0757784,-0.560526,0.989404,-0.00670783,-0.000719737,0.0979134,1,4.31035e-05,-9.17571e-06,2.6902e-05,0.00862071,-0.00183514,0.00538039,0,0,0,0,0.0443053,0.51226,-0.987288,34.0625,1,24617,48938044
76,1,-0.670607,-0.0710935,9.79136,0.0757784,-0.560526,0.989404,-0.00670783,-0.000719737,0.0979134,1,4.31035e-05,-9.17571e-06,2.6902e-05,0.00862071,-0.00183514,0.00538039,0,0,0,0,0.0443053,0.51226,-0.987288,34.0625,1,24617,48938044
76,2,-0.673876,-0.0755123,9.78966,0.0679867,-0.566602,0.991398,-0.00674228,-0.000764532,0.0978963,1,4.61434e-05,-1.82245e-05,2.77271e-05,0.00922867,-0.0036449,0.00554541,0,0,0,0,0.0466791,0.515637,-0.986214,34.0625,1,24618,48938144
77,1,-0.673876,-0.0755123,9.78966,0.0679867,-0.566602,0.991398,-0.00674228,-0.000764532,0.0978963,1,4.61434e-05,-1.82245e-05,2.77271e-05,0.00922867,-0.0036449,0.00554541,0,0,0,0,0.0466791,0.515637,-0.986214,34.0625,1,24618,48938144
77,2,-0.672981,-0.0751661,9.77607,0.0745914,-0.568023,0.977721,-0.00672768,-0.000759089,0.0977608,1,3.68692e-05,1.08052e-05,1.6274e-05,0.00737383,0.00216103,0.0032548,0,0,0,0,0.0485257,0.516641,-0.988725,34.0625,1,24619,48938244
78,1,-0.672981,-0.0751661,9.77607,0.0745914,-0.568023,0.977721,-0.00672768,-0.000759089,0.0977608,1,3.68692e-05,1.08052e-05,1.6274e-05,0.00737383,0.00216103,0.0032548,0,0,0,0,0.0485257,0.516641,-0.988725,34.0625,1,24619,48938244
78,2,-0.679188,-0.0751569,9.79409,0.063361,-0.573063,0.992283,-0.00679236,-0.000762776,0.0979408,1,5.53149e-05,-2.63221e-06,2.73196e-05,0.011063,-0.000526442,0.00546392,0,0,0,0,0.0479331,0.515281,-0.994308,34.0625,1,24620,48938344
79,1,-0.679188,-0.0751569,9.79409,0.063361,-0.573063,0.992283,-0.00679236,-0.000762776,0.0979408,1,5.53149e-05,-2.63221e-06,2.73196e-05,0.011063,-0.000526442,0.00546392,0,0,0,0,0.0479331,0.515281,-0.994308,34.0625,1,24620,48938344
79,2,-0.681296,-0.0795016,9.78863,0.0640657,-0.57401,0.991748,-0.0068125,-0.000803224,0.0978863,1,4.06336e-05,2.17173e-06,1.85727e-05,0.00812671,0.000434346,0.00371453,0,0,0,0,0.047443,0.512883,-0.99638,34.0625,1,24621,48938444
80,1,-0.681296,-0.0795016,9.78863,0.0640657,-0.57401,0.991748,-0.0068125,-0.000803224,0.0978863,1,4.06336e-05,2.17173e-06,1.85727e-05,0.00812671,0.000434346,0.00371453,0,0,0,0,0.047443,0.512883,-0.99638,34.0625,1,24621,48938444
80,2,-0.676862,-0.0724834,9.78732,0.0641293,-0.573613,0.988476,-0.00676991,-0.000734163,0.097873,1,4.72646e-05,-6.62381e-06,5.72045e-06,0.00945291,-0.00132476,0.00114409,0,0,0,0,0.0451845,0.509904,-0.992395,34.0625,1,24622,48938544
81,1,-0.676862,-0.0724834,9.78732,0.0641293,-0.573613,0.988476,-0.00676991,-0.000734163,0.097873,1,4.72646e-05,-6.62381e-06,5.72045e-06,0.00945291,-0.00132476,0.00114409,0,0,0,0,0.0451845,0.509904,-0.992395,34.0625,1,24622,48938544
81,2,-0.669701,-0.0692457,9.78526,0.0696689,-0.56625,0.98498,-0.00669932,-0.000703728,0.0978524,1,5.62854e-05,-1.19712e-05,1.90662e-05,0.0112571,-0.00239423,0.00381325,0,0,0,0,0.0444031,0.509298,-0.985334,34.0625,1,24623,48938644
82,1,-0.669701,-0.0692457,9.78526,0.0696689,-0.56625,0.98498,-0.00669932,-0.000703728,0.0978524,1,5.62854e-05,-1.19712e-05,1.90662e-05,0.0112571,-0.00239423,0.00381325,0,0,0,0,0.0444031,0.509298,-0.985334,34.0625,1,24623,48938644
82,2,-0.66829,-0.0754885,9.78384,0.0771509,-0.573144,0.985854,-0.00668425,-0.000762046,0.0978383,1,3.55822e-05,-6.99414e-06,1.48322e-05,0.00711643,-0.00139883,0.00296644,0,0,0,0,0.0467237,0.513677,-0.985752,34.0625,1,24624,48938744
83,1,-0.66829,-0.0754885,9.78384,0.0771509,-0.573144,0.985854,-0.00668425,-0.000762046,0.0978383,1,3.55822e-05,-6.99414e-06,1.48322e-05,0.00711643,-0.00139883,0.00296644,0,0,0,0,0.0467237,0.513677,-0.985752,34.0625,1,24624,48938744
83,2,-0.67785,-0.0721204,9.78359,0.0629317,-0.572459,0.985896,-0.00678046,-0.000730317,0.0978357,1,4.59365e-05,-1.00474e-05,9.22204e-06,0.0091873,-0.00200948,0.00184441,0,0,0,0,0.0470245,0.515732,-0.991769,34.0625,1,24625,48938844
84,1,-0.67785,-0.0721204,9.78359,0.0629317,-0.572459,0.985896,-0.00678046,-0.000730317,0.0978357,1,4.59365e-05,-1.00474e-05,9.22204e-06,0.0091873,-0.00200948,0.00184441,0,0,0,0,0.0470245,0.515732,-0.991769,34.0625,1,24625,48938844
84,2,-0.678831,-0.073706,9.788,0.0623626,-0.571702,0.987131,-0.00679068,-0.000748157,0.0978798,1,5.58904e-05,-1.21838e-05,1.14612e-05,0.0111781,-0.00243677,0.00229224,0,0,0,0,0.0459431,0.516309,-0.996296,34.0625,1,24626,48938944
85,1,-0.678831,-0.073706,9.788,0.0623626,-0.571702,0.987131,-0.00679068,-0.000748157,0.0978798,1,5.58904e-05,-1.21838e-05,1.14612e-05,0.0111781,-0.00243677,0.00229224,0,0,0,0,0.0459431,0.516309,-0.996296,34.0625,1,24626,48938944
85,2,-0.676507,-0.0740105,9.79069,0.0739437,-0.572965,0.990349,-0.00676487,-0.000746809,0.0979069,1,3.33395e-05,9.25325e-07,1.30012e-05,0.00666791,0.000185065,0.00260024,0,0,0,0,0.0464765,0.512412,-0.996891,34.0625,1,24627,48939044
86,1,-0.676507,-0.0740105,9.79069,0.0739437,-0.572965,0.990349,-0.00676487,-0.000746809,0.0979069,1,3.33395e-05,9.25325e-07,1.30012e-05,0.00666791,0.000185065,0.00260024,0,0,0,0,0.0464765,0.512412,-0.996891,34.0625,1,24627,48939044
86,2,-0.657705,-0.0700236,9.79874,0.0867655,-0.568305,0.998726,-0.00657902,-0.000707708,0.0979872,1,3.68411e-05,-1.01608e-05,1.92189e-05,0.00736823,-0.00203217,0.00384379,0,0,0,0,0.0461302,0.509426,-0.99342,34.0625,1,24628,48939144
87,1,-0.657705,-0.0700236,9.79874,0.0867655,-0.568305,0.998726,-0.00657902,-0.000707708,0.0979872,1,3.68411e-05,-1.01608e-05,1.92189e-05,0.00736823,-0.00203217,0.00384379,0,0,0,0,0.0461302,0.509426,-0.99342,34.0625,1,24628,48939144
87,2,-0.670978,-0.0753967,9.78488,0.0739139,-0.575306,0.984129,-0.00671013,-0.000764214,0.0978487,1,5.21895e-05,-1.80891e-06,2.46384e-06,0.0104379,-0.000361782,0.000492767,0,0,0,0,0.0462701,0.509806,-0.987351,34.0625,1,24629,48939244
88,1,-0.670978,-0.0753967,9.78488,0.0739139,-0.575306,0.984129,-0.00671013,-0.000764214,0.0978487,1,5.21895e-05,-1.80891e-06,2.46384e-06,0.0104379,-0.000361782,0.000492767,0,0,0,0,0.0462701,0.509806,-0.987351,34.0625,1,24629,48939244
88,2,-0.67615,-0.0660354,9.78669,0.0644716,-0.569417,0.986529,-0.00676278,-0.000668716,0.0978668,1,4.22094e-05,-6.59386e-06,7.3722e-06,0.00844188,-0.00131877,0.00147444,0,0,0,0,0.0467237,0.513677,-0.985752,34.0625,1,24630,48939344
89,1,-0.67615,-0.0660354,9.78669,0.0644716,-0.569417,0.986529,-0.00676278,-0.000668716,0.0978668,1,4.22094e-05,-6.59386e-06,7.3722e-06,0.00844188,-0.00131877,0.00147444,0,0,0,0,0.0467237,0.513677,-0.985752,34.0625,1,24630,48939344
89,2,-0.67135,-0.0710539,9.80018,0.0763731,-0.567775,0.999208,-0.00671336,-0.00071612,0.0980018,1,2.73511e-05,6.27605e-07,1.63856e-05,0.00547022,0.000125521,0.00327713,0,0,0,0,0.0479995,0.51716,-0.990226,34.0625,1,24631,48939444
90,1,-0.67135,-0.0710539,9.80018,0.0763731,-0.567775,0.999208,-0.00671336,-0.00071612,0.0980018,1,2.73511e-05,6.27605e-07,1.63856e-05,0.00547022,0.000125521,0.00327713,0,0,0,0,0.0479995,0.51716,-0.990226,34.0625,1,24631,48939444
90,2,-0.672062,-0.0700549,9.78697,0.0715999,-0.573448,0.988032,-0.00672074,-0.000709323,0.0978697,1,4.35599e-05,-7.34328e-07,1.84474e-05,0.00871198,-0.000146866,0.00368947,0,0,0,0,0.046922,0.516771,-0.995281,34.0625,1,24632,48939544
91,1,-0.672062,-0.0700549,9.78697,0.0715999,-0.573448,0.988032,-0.00672074,-0.000709323,0.0978697,1,4.35599e-05,-7.34328e-07,1.84474e-05,0.00871198,-0.000146866,0.00368947,0,0,0,0,0.046922,0.516771,-0.995281,34.0625,1,24632,48939544
91,2,-0.669341,-0.0775277,9.78044,0.0745615,-0.58409,0.979693,-0.00669428,-0.000784686,0.0978043,1,4.71194e-05,-4.56709e-06,1.43273e-05,0.00942388,-0.000913418,0.00286547,0,0,0,0,0.04697,0.512399,-0.996388,34.0625,1,24633,48939644
92,1,-0.669341,-0.0775277,9.78044,0.0745615,-0.58409,0.979693,-0.00669428,-0.000784686,0.0978043,1,4.71194e-05,-4.56709e-06,1.43273e-05,0.00942388,-0.000913418,0.00286547,0,0,0,0,0.04697,0.512399,-0.996388,34.0625,1,24633,48939644
92,2,-0.673347,-0.0825427,9.78415,0.0717774,-0.5904,0.983137,-0.0067347,-0.000836708,0.0978413,1,5.58682e-05,-6.49877e-06,2.59038e-05,0.0111736,-0.00129975,0.00518076,0,0,0,0,0.0451926,0.509416,-0.992406,34.0625,1,24634,48939744
93,1,-0.673347,-0.0825427,9.78415,0.0717774,-0.5904,0.983137,-0.0067347,-0.000836708,0.0978413,1,5.58682e-05,-6.49877e-06,2.59038e-05,0.0111736,-0.00129975,0.00518076,0,0,0,0,0.0451926,0.509416,-0.992406,34.0625,1,24634,48939744
93,2,-0.669941,-0.0790938,9.794,0.0704914,-0.583757,0.992025,-0.00670109,-0.000798925,0.0979398,1,3.97358e-05,-8.67256e-06,1.52291e-05,0.00794715,-0.00173451,0.00304582,0,0,0,0,0.0443252,0.510318,-0.987836,34.0625,1,24635,48939844
94,1,-0.669941,-0.0790938,9.794,0.0704914,-0.583757,0.992025,-0.00670109,-0.000798925,0.0979398,1,3.97358e-05,-8.67256e-06,1.52291e-05,0.00794715,-0.00173451,0.00304582,0,0,0,0,0.0443252,0.510318,-0.987836,34.0625,1,24635,48939844
94,2,-0.660211,-0.0685542,9.78256,0.0826918,-0.57349,0.980696,-0.00660256,-0.000692178,0.0978255,1,3.26484e-05,-2.42502e-06,1.87922e-05,0.00652969,-0.000485004,0.00375844,0,0,0,0,0.0466786,0.514192,-0.987256,34,1,24636,48939944
95,1,-0.660211,-0.0685542,9.78256,0.0826918,-0.57349,0.980696,-0.00660256,-0.000692178,0.0978255,1,3.26484e-05,-2.42502e-06,1.87922e-05,0.00652969,-0.000485004,0.00375844,0,0,0,0,0.0466786,0.514192,-0.987256,34,1,24636,48939944
95,2,-0.671529,-0.0784238,9.79952,0.0757261,-0.582746,1.00002,-0.00671587,-0.000789421,0.0979951,1,2.53563e-05,-3.10865e-06,1.58733e-05,0.00507126,-0.00062173,0.00317466,0,0,0,0,0.0475141,0.516685,-0.99074,34,1,24637,48940044
96,1,-0.671529,-0.0784238,9.79952,0.0757261,-0.582746,1.00002,-0.00671587,-0.000789421,0.0979951,1,2.53563e-05,-3.10865e-06,1.58733e-05,0.00507126,-0.00062173,0.00317466,0,0,0,0,0.0475141,0.516685,-0.99074,34,1,24637,48940044
96,2,-0.672768,-0.0698711,9.79179,0.0638529,-0.579826,0.990918,-0.00672849,-0.000708781,0.0979178,1,5.02671e-05,-4.24339e-06,1.68553e-05,0.0100534,-0.000848678,0.00337106,0,0,0,0,0.0463958,0.517289,-0.996782,34,1,24638,48940144
97,1,-0.672768,-0.0698711,9.79179,0.0638529,-0.579826,0.990918,-0.00672849,-0.000708781,0.0979178,1,5.02671e-05,-4.24339e-06,1.68553e-05,0.0100534,-0.000848678,0.00337106,0,0,0,0,0.0463958,0.517289,-0.996782,34,1,24638,48940144
97,2,-0.662721,-0.0717124,9.79715,0.0810638,-0.583809,0.996587,-0.00662905,-0.000726096,0.0979713,1,4.39622e-05,-9.58725e-06,2.69709e-05,0.00879244,-0.00191745,0.00539419,0,0,0,0,0.0464727,0.513378,-0.996364,34,1,24639,48940244
98,1,-0.662721,-0.0717124,9.79715,0.0810638,-0.583809,0.996587,-0.00662905,-0.000726096,0.0979713,1,4.39622e-05,-9.58725e-06,2.69709e-05,0.00879244,-0.00191745,0.00539419,0,0,0,0,0.0464727,0.513378,-0.996364,34,1,24639,48940244
98,2,-0.683399,-0.0737015,9.7871,0.0535854,-0.583703,0.98972,-0.00683883,-0.00074801,0.0978705,1,5.46295e-05,-2.4928e-05,2.21001e-05,0.0109259,-0.00498559,0.00442003,0,0,0,0,0.0437535,0.509907,-0.991883,34,1,24640,48940344
99,1,-0.683399,-0.0737015,9.7871,0.0535854,-0.583703,0.98972,-0.00683883,-0.00074801,0.0978705,1,5.46295e-05,-2.4928e-05,2.21001e-05,0.0109259,-0.00498559,0.00442003,0,0,0,0,0.0437535,0.509907,-0.991883,34,1,24640,48940344
99,2,-0.682132,-0.0737388,9.78573,0.0629861,-0.584474,0.984687,-0.00682494,-0.000745927,0.097857,1,4.1969e-05,-1.87158e-05,2.38141e-05,0.00839381,-0.00374316,0.00476281,0,0,0,0,0.0448391,0.509809,-0.98684,34,1,24641,48940444
100,1,-0.682132,-0.0737388,9.78573,0.0629861,-0.584474,0.984687,-0.00682494,-0.000745927,0.097857,1,4.1969e-05,-1.87158e-05,2.38141e-05,0.00839381,-0.00374316,0.00476281,0,0,0,0,0.0448391,0.509809,-0.98684,34,1,24641,48940444
100,2,-0.664435,-0.0759716,9.79474,0.0780833,-0.586745,0.997669,-0.0066465,-0.000768549,0.0979472,1,4.44669e-05,-1.10361e-05,9.20727e-06,0.00889338,-0.00220721,0.00184145,0,0,0,0,0.0476574,0.514653,-0.98624,34,1,24642,48940544
101,1,-0.664435,-0.0759716,9.79474,0.0780833,-0.586745,0.997669,-0.0066465,-0.000768549,0.0979472,1,4.44669e-05,-1.10361e-05,9.20727e-06,0.00889338,-0.00220721,0.00184145,0,0,0,0,0.0476574,0.514653,-0.98624,34,1,24642,48940544
101,2,-0.669553,-0.0764847,9.79579,0.0744663,-0.591034,0.996797,-0.00669758,-0.000774321,0.0979577,1,4.78532e-05,-1.05111e-05,7.32406e-06,0.00957064,-0.00210222,0.00146481,0,0,0,0,0.0484764,0.516677,-0.990744,34,1,24643,48940644
102,1,-0.669553,-0.0764847,9.79579,0.0744663,-0.591034,0.996797,-0.00669758,-0.000774321,0.0979577,1,4.78532e-05,-1.05111e-05,7.32406e-06,0.00957064,-0.00210222,0.00146481,0,0,0,0,0.0484764,0.516677,-0.990744,34,1,24643,48940644
102,2,-0.666448,-0.0753071,9.79036,0.0704123,-0.588536,0.988867,-0.00666669,-0.00076263,0.0979033,1,4.71399e-05,-1.14907e-05,2.46668e-05,0.00942799,-0.00229813,0.00493336,0,0,0,0,0.047415,0.515312,-0.99582,34,1,24644,48940744
103,1,-0.666448,-0.0753071,9.79036,0.0704123,-0.588536,0.988867,-0.00666669,-0.00076263,0.0979033,1,4.71399e-05,-1.14907e-05,2.46668e-05,0.00942799,-0.00229813,0.00493336,0,0,0,0,0.047415,0.515312,-0.99582,34,1,24644,48940744
103,2,-0.673296,-0.0725697,9.78805,0.0685532,-0.587921,0.985229,-0.0067356,-0.000735164,0.0978802,1,4.67524e-05,-1.36642e-05,2.33464e-05,0.00935049,-0.00273284,0.00466928,0,0,0,0,0.0460077,0.512407,-0.996384,34,1,24645,48940844
104,1,-0.673296,-0.0725697,9.78805,0.0685532,-0.587921,0.985229,-0.0067356,-0.000735164,0.0978802,1,4.67524e-05,-1.36642e-05,2.33464e-05,0.00935049,-0.00273284,0.00466928,0,0,0,0,0.0460077,0.512407,-0.996384,34,1,24645,48940844
104,2,-0.672719,-0.0739934,9.78498,0.0706497,-0.589005,0.983878,-0.00672839,-0.000749746,0.0978496,1,4.88237e-05,-6.26771e-06,1.91462e-05,0.00976473,-0.00125354,0.00382923,0,0,0,0,0.0441933,0.509451,-0.993916,34,1,24646,48940944
105,1,-0.672719,-0.0739934,9.78498,0.0706497,-0.589005,0.983878,-0.00672839,-0.000749746,0.0978496,1,4.88237e-05,-6.26771e-06,1.91462e-05,0.00976473,-0.00125354,0.00382923,0,0,0,0,0.0441933,0.509451,-0.993916,34,1,24646,48940944
105,2,-0.673722,-0.0752779,9.79786,0.0683136,-0.591326,0.997774,-0.00673795,-0.000759234,0.0979785,1,3.14394e-05,-3.90058e-06,2.18323e-05,0.00628789,-0.000780116,0.00436645,0,0,0,0,0.0447689,0.508896,-0.990395,34,1,24647,48941044
106,1,-0.673722,-0.0752779,9.79786,0.0683136,-0.591326,0.997774,-0.00673795,-0.000759234,0.0979785,1,3.14394e-05,-3.90058e-06,2.18323e-05,0.00628789,-0.000780116,0.00436645,0,0,0,0,0.0447689,0.508896,-0.990395,34,1,24647,48941044
106,2,-0.672865,-0.062001,9.7905,0.069867,-0.582625,0.98939,-0.00672817,-0.000629887,0.097905,1,4.91515e-05,2.30402e-06,1.87829e-05,0.0098303,0.000460805,0.00375658,0,0,0,0,0.0461885,0.511793,-0.989327,34,1,24648,48941144
107,1,-0.672865,-0.062001,9.7905,0.069867,-0.582625,0.98939,-0.00672817,-0.000629887,0.097905,1,4.91515e-05,2.30402e-06,1.87829e-05,0.0098303,0.000460805,0.00375658,0,0,0,0,0.0461885,0.511793,-0.989327,34,1,24648,48941144
107,2,-0.672565,-0.0716989,9.78908,0.068077,-0.586422,0.99139,-0.00672835,-0.000724528,0.0978905,1,3.71059e-05,-1.39606e-05,2.03473e-05,0.00742117,-0.00279212,0.00406946,0,0,0,0,0.0475056,0.515728,-0.991771,34,1,24649,48941244
108,1,-0.672565,-0.0716989,9.78908,0.068077,-0.586422,0.99139,-0.00672835,-0.000724528,0.0978905,1,3.71059e-05,-1.39606e-05,2.03473e-05,0.00742117,-0.00279212,0.00406946,0,0,0,0,0.0475056,0.515728,-0.991771,34,1,24649,48941244
108,2,-0.674674,-0.0708968,9.78367,0.0687319,-0.58797,0.982716,-0.00675091,-0.000720013,0.0978363,1,5.53708e-05,-2.14262e-05,1.56537e-05,0.0110742,-0.00428523,0.00313073,0,0,0,0,0.0469177,0.516292,-0.995796,34,1,24650,48941344
109,1,-0.674674,-0.0708968,9.78367,0.0687319,-0.58797,0.982716,-0.00675091,-0.000720013,0.0978363,1,5.53708e-05,-2.14262e-05,1.56537e-05,0.0110742,-0.00428523,0.00313073,0,0,0,0,0.0469177,0.516292,-0.995796,34,1,24650,48941344
109,2,-0.677743,-0.0751746,9.79958,0.0634341,-0.58853,1.00081,-0.00677786,-0.000759913,0.0979958,1,4.06932e-05,-2.26305e-06,1.41282e-05,0.00813864,-0.000452609,0.00282563,0,0,0,0,0.0464722,0.511933,-0.997406,34,1,24651,48941444
110,1,-0.677743,-0.0751746,9.79958,0.0634341,-0.58853,1.00081,-0.00677786,-0.000759913,0.0979958,1,4.06932e-05,-2.26305e-06,1.41282e-05,0.00813864,-0.000452609,0.00282563,0,0,0,0,0.0464722,0.511933,-0.997406,34,1,24651,48941444
110,2,-0.680007,-0.0792796,9.7894,0.0620288,-0.598304,0.989962,-0.00680314,-0.000801249,0.0978937,1,4.18034e-05,-1.58679e-05,1.96675e-05,0.00836068,-0.00317357,0.0039335,0,0,0,0,0.0446787,0.509926,-0.993402,34,1,24652,48941544
111,1,-0.680007,-0.0792796,9.7894,0.0620288,-0.598304,0.989962,-0.00680314,-0.000801249,0.0978937,1,4.18034e-05,-1.58679e-05,1.96675e-05,0.00836068,-0.00317357,0.0039335,0,0,0,0,0.0446787,0.509926,-0.993402,34,1,24652,48941544
111,2,-0.667702,-0.0699279,9.78802,0.0748413,-0.588335,0.989241,-0.00667658,-0.000706983,0.0978802,1,3.83351e-05,2.16814e-06,1.49794e-05,0.00766702,0.000433628,0.00299588,0,0,0,0,0.0457563,0.510315,-0.988348,34,1,24653,48941644
112,1,-0.667702,-0.0699279,9.78802,0.0748413,-0.588335,0.989241,-0.00667658,-0.000706983,0.0978802,1,3.83351e-05,2.16814e-06,1.49794e-05,0.00766702,0.000433628,0.00299588,0,0,0,0,0.0457563,0.510315,-0.988348,34,1,24653,48941644
112,2,-0.66955,-0.0688138,9.78975,0.0750214,-0.58595,0.987072,-0.00669933,-0.000698362,0.0978972,1,5.15431e-05,-1.96435e-05,9.87399e-06,0.0103086,-0.00392869,0.0019748,0,0,0,0,0.0466867,0.513704,-0.987267,34,1,24654,48941744
113,1,-0.66955,-0.0688138,9.78975,0.0750214,-0.58595,0.987072,-0.00669933,-0.000698362,0.0978972,1,5.15431e-05,-1.96435e-05,9.87399e-06,0.0103086,-0.00392869,0.0019748,0,0,0,0,0.0466867,0.513704,-0.987267,34,1,24654,48941744
113,2,-0.668204,-0.0729288,9.78259,0.0725411,-0.588153,0.984447,-0.00668481,-0.000737313,0.0978256,1,3.98086e-05,-1.42695e-05,1.76391e-05,0.00796172,-0.00285389,0.00352782,0,0,0,0,0.0480323,0.516654,-0.989228,34,1,24655,48941844
114,1,-0.668204,-0.0729288,9.78259,0.0725411,-0.588153,0.984447,-0.00668481,-0.000737313,0.0978256,1,3.98086e-05,-1.42695e-05,1.76391e-05,0.00796172,-0.00285389,0.00352782,0,0,0,0,0.0480323,0.516654,-0.989228,34,1,24655,48941844
114,2,-0.675706,-0.0838169,9.78491,0.0667299,-0.60692,0.982605,-0.00675753,-0.000848889,0.097849,1,5.26831e-05,-2.66188e-06,3.02865e-05,0.0105366,-0.000532377,0.0060573,0,0,0,0,0.0474278,0.516749,-0.994273,34,1,24656,48941944
114,3,-0.675706,-0.0838169,9.78491,0.0667299,-0.60692,0.982605,-0.00675753,-0.000848889,0.097849,1,5.26831e-05,-2.66188e-06,3.02865e-05,0.0105366,-0.000532377,0.0060573,0,0,0,0,0.0474278,0.516749,-0.994273,34,1,24656,48941944
114,4,-0.679627,-0.0826261,9.79174,0.0604829,-0.608242,0.987922,-0.00679918,-0.000835689,0.0979171,1,4.7652e-05,-1.49609e-05,7.1338e-06,0.0095304,-0.00299218,0.00142676,0,0,0,0,0.0469661,0.513365,-0.995862,34,1,24657,48942044
115,1,-0.679627,-0.0826261,9.79174,0.0604829,-0.608242,0.987922,-0.00679918,-0.000835689,0.0979171,1,4.7652e-05,-1.49609e-05,7.1338e-06,0.0095304,-0.00299218,0.00142676,0,0,0,0,0.0469661,0.513365,-0.995862,34,1,24657,48942044
115,2,-0.673748,-0.0767008,9.78224,0.0663744,-0.60732,0.980816,-0.00673872,-0.000775676,0.0978223,1,4.37033e-05,-6.42411e-06,8.68742e-06,0.00874065,-0.00128482,0.00173748,0,0,0,0,0.0451722,0.509913,-0.9929,34,1,24658,48942144
115,3,-0.673748,-0.0767008,9.78224,0.0663744,-0.60732,0.980816,-0.00673872,-0.000775676,0.0978223,1,4.37033e-05,-6.42411e-06,8.68742e-06,0.00874065,-0.00128482,0.00173748,0,0,0,0,0.0451722,0.509913,-0.9929,34,1,24658,48942144
115,4,-0.674799,-0.0643802,9.78677,0.0659555,-0.585873,0.985973,-0.00674972,-0.000653845,0.0978675,1,5.08111e-05,-8.88097e-06,7.24575e-06,0.0101622,-0.00177619,0.00144915,0,0,0,0,0.0448225,0.509339,-0.98786,34,1,24659,48942244
116,1,-0.674799,-0.0643802,9.78677,0.0659555,-0.585873,0.985973,-0.00674972,-0.000653845,0.0978675,1,5.08111e-05,-8.88097e-06,7.24575e-06,0.0101622,-0.00177619,0.00144915,0,0,0,0,0.0448225,0.509339,-0.98786,34,1,24659,48942244
116,2,-0.665622,-0.0659375,9.79246,0.0727249,-0.592555,0.992745,-0.00665781,-0.000666034,0.0979244,1,3.32202e-05,-8.20688e-06,1.14778e-05,0.00664404,-0.00164138,0.00229555,0,0,0,0,0.046189,0.513238,-0.988285,34,1,24660,48942344
116,3,-0.665622,-0.0659375,9.79246,0.0727249,-0.592555,0.992745,-0.00665781,-0.000666034,0.0979244,1,3.32202e-05,-8.20688e-06,1.14778e-05,0.00664404,-0.00164138,0.00229555,0,0,0,0,0.046189,0.513238,-0.988285,34,1,24660,48942344
116,4,-0.675196,-0.0657362,9.78336,0.0712918,-0.58722,0.980973,-0.00675286,-0.000666715,0.0978335,1,4.65457e-05,-4.74782e-06,1.81701e-05,0.00930913,-0.000949564,0.00363403,0,0,0,0,0.048427,0.516714,-0.992763,34,1,24661,48942444
117,1,-0.675196,-0.0657362,9.78336,0.0712918,-0.58722,0.980973,-0.00675286,-0.000666715,0.0978335,1,4.65457e-05,-4.74782e-06,1.81701e-05,0.00930913,-0.000949564,0.00363403,0,0,0,0,0.048427,0.516714,-0.992763,34,1,24661,48942444
117,2,-0.666845,-0.0734761,9.78732,0.0675931,-0.600831,0.983741,-0.00667134,-0.000744979,0.0978729,1,5.04516e-05,-1.49551e-05,2.5699e-05,0.0100903,-0.00299102,0.00513981,0,0,0,0,0.0468522,0.517303,-0.997794,34,1,24662,48942544
117,3,-0.666845,-0.0734761,9.78732,0.0675931,-0.600831,0.983741,-0.00667134,-0.000744979,0.0978729,1,5.04516e-05,-1.49551e-05,2.5699e-05,0.0100903,-0.00299102,0.00513981,0,0,0,0,0.0468522,0.517303,-0.997794,34,1,24662,48942544
117,4,-0.666827,-0.0745833,9.78324,0.072291,-0.600659,0.983167,-0.00667107,-0.000754412,0.0978322,1,4.28986e-05,-1.43852e-05,1.38543e-05,0.00857972,-0.00287703,0.00277086,0,0,0,0,0.0450497,0.512893,-0.995863,34,1,24663,48942644
118,1,-0.666827,-0.0745833,9.78324,0.072291,-0.600659,0.983167,-0.00667107,-0.000754412,0.0978322,1,4.28986e-05,-1.43852e-05,1.38543e-05,0.00857972,-0.00287703,0.00277086,0,0,0,0,0.0450497,0.512893,-0.995863,34,1,24663,48942644
118,2,-0.685291,-0.0663259,9.78818,0.0512599,-0.59318,0.988661,-0.00685513,-0.000672514,0.0978816,1,4.53182e-05,-1.1515e-05,2.80234e-05,0.00906363,-0.002303,0.00560468,0,0,0,0,0.0442346,0.509903,-0.991885,34,1,24664,48942744
118,3,-0.685291,-0.0663259,9.78818,0.0512599,-0.59318,0.988661,-0.00685513,-0.000672514,0.0978816,1,4.53182e-05,-1.1515e-05,2.80234e-05,0.00906363,-0.002303,0.00560468,0,0,0,0,0.0442346,0.509903,-0.991885,34,1,24664,48942744
118,4,-0.671283,-0.0688495,9.79112,0.0672586,-0.596871,0.990896,-0.00671476,-0.000697917,0.097911,1,4.66313e-05,-1.00212e-05,2.16532e-05,0.00932627,-0.00200424,0.00433063,0,0,0,0,0.0453202,0.509805,-0.986842,34,1,24665,48942844
119,1,-0.671283,-0.0688495,9.79112,0.0672586,-0.596871,0.990896,-0.00671476,-0.000697917,0.097911,1,4.66313e-05,-1.00212e-05,2.16532e-05,0.00932627,-0.00200424,0.00433063,0,0,0,0,0.0453202,0.509805,-0.986842,34,1,24665,48942844
119,2,-0.678052,-0.0746695,9.78637,0.0632496,-0.608325,0.985894,-0.00678189,-0.000756734,0.0978635,1,4.88798e-05,-7.23619e-06,3.47547e-05,0.00977596,-0.00144724,0.00695094,0,0,0,0,0.0462549,0.513672,-0.985245,34,1,24666,48942944
119,3,-0.678052,-0.0746695,9.78637,0.0632496,-0.608325,0.985894,-0.00678189,-0.000756734,0.0978635,1,4.88798e-05,-7.23619e-06,3.47547e-05,0.00977596,-0.00144724,0.00695094,0,0,0,0,0.0462549,0.513672,-0.985245,34,1,24666,48942944
119,4,-0.664508,-0.0691361,9.787,0.075043,-0.59924,0.981869,-0.0066479,-0.000700106,0.0978697,1,4.39416e-05,-1.44504e-05,1.08239e-05,0.00878833,-0.00289008,0.00216478,0,0,0,0,0.047033,0.516689,-0.990737,34,1,24667,48943044
120,1,-0.664508,-0.0691361,9.787,0.075043,-0.59924,0.981869,-0.0066479,-0.000700106,0.0978697,1,4.39416e-05,-1.44504e-05,1.08239e-05,0.00878833,-0.00289008,0.00216478,0,0,0,0,0.047033,0.516689,-0.990737,34,1,24667,48943044
120,2,-0.679321,-0.0795098,9.79244,0.0637612,-0.607977,0.989195,-0.00679543,-0.000806115,0.0979241,1,5.51511e-05,-1.14777e-05,1.58937e-05,0.0110302,-0.00229555,0.00317874,0,0,0,0,0.0463707,0.515862,-0.998834,34,1,24668,48943144
120,3,-0.679321,-0.0795098,9.79244,0.0637612,-0.607977,0.989195,-0.00679543,-0.000806115,0.0979241,1,5.51511e-05,-1.14777e-05,1.58937e-05,0.0110302,-0.00229555,0.00317874,0,0,0,0,0.0463707,0.515862,-0.998834,34,1,24668,48943144
120,4,-0.678408,-0.0756395,9.78534,0.0578521,-0.604375,0.986812,-0.00678704,-0.000766657,0.0978531,1,5.21987e-05,-1.51471e-05,3.34924e-06,0.0104397,-0.00302942,0.000669849,0,0,0,0,0.0459584,0.512443,-0.998403,34,1,24669,48943244
121,1,-0.678408,-0.0756395,9.78534,0.0578521,-0.604375,0.986812,-0.00678704,-0.000766657,0.0978531,1,5.21987e-05,-1.51471e-05,3.34924e-06,0.0104397,-0.00302942,0.000669849,0,0,0,0,0.0459584,0.512443,-0.998403,34,1,24669,48943244
121,2,-0.665642,-0.0659677,9.78296,0.0757194,-0.599504,0.983445,-0.00665736,-0.000668528,0.0978295,1,4.44334e-05,-4.89127e-06,1.17998e-05,0.00888669,-0.000978253,0.00235996,0,0,0,0,0.0446953,0.510396,-0.992382,34,1,24670,48943344
121,3,-0.665642,-0.0659677,9.78296,0.0757194,-0.599504,0.983445,-0.00665736,-0.000668528,0.0978295,1,4.44334e-05,-4.89127e-06,1.17998e-05,0.00888669,-0.000978253,0.00235996,0,0,0,0,0.0446953,0.510396,-0.992382,34,1,24670,48943344
121,4,-0.673288,-0.0761887,9.79717,0.0652482,-0.612112,0.996761,-0.00673405,-0.000770353,0.0979716,1,4.29526e-05,-5.99963e-06,3.69173e-06,0.00859052,-0.00119993,0.000738346,0,0,0,0,0.0448144,0.509827,-0.987849,34,1,24671,48943444
122,1,-0.673288,-0.0761887,9.79717,0.0652482,-0.612112,0.996761,-0.00673405,-0.000770353,0.0979716,1,4.29526e-05,-5.99963e-06,3.69173e-06,0.00859052,-0.00119993,0.000738346,0,0,0,0,0.0448144,0.509827,-0.987849,34,1,24671,48943444
122,2,-0.668944,-0.07127,9.78091,0.073718,-0.599369,0.977017,-0.00669251,-0.00071974,0.0978088,1,3.46247e-05,-1.58456e-05,1.99322e-05,0.00692493,-0.00316912,0.00398644,0,0,0,0,0.0462383,0.513202,-0.986266,34,1,24672,48943544
122,3,-0.668944,-0.07127,9.78091,0.073718,-0.599369,0.977017,-0.00669251,-0.00071974,0.0978088,1,3.46247e-05,-1.58456e-05,1.99322e-05,0.00692493,-0.00316912,0.00398644,0,0,0,0,0.0462383,0.513202,-0.986266,34,1,24672,48943544
122,4,-0.674455,-0.0753257,9.79006,0.0634145,-0.607754,0.986206,-0.00674384,-0.000762709,0.0979006,1,4.66295e-05,3.39757e-06,2.38735e-05,0.00932589,0.000679515,0.0047747,0,0,0,0,0.048028,0.516176,-0.989743,34,1,24673,48943644
123,1,-0.674455,-0.0753257,9.79006,0.0634145,-0.607754,0.986206,-0.00674384,-0.000762709,0.0979006,1,4.66295e-05,3.39757e-06,2.38735e-05,0.00932589,0.000679515,0.0047747,0,0,0,0,0.048028,0.516176,-0.989743,34,1,24673,48943644
123,2,-0.673505,-0.0753346,9.79075,0.0661838,-0.609894,0.986439,-0.00674041,-0.000764398,0.097907,1,5.53448e-05,-2.74832e-05,1.59462e-05,0.011069,-0.00549665,0.00318923,0,0,0,0,0.0483729,0.514826,-0.996341,34,1,24674,48943744
123,3,-0.673505,-0.0753346,9.79075,0.0661838,-0.609894,0.986439,-0.00674041,-0.000764398,0.097907,1,5.53448e-05,-2.74832e-05,1.59462e-05,0.011069,-0.00549665,0.00318923,0,0,0,0,0.0483729,0.514826,-0.996341,34,1,24674,48943744
123,4,-0.670813,-0.0826111,9.791,0.0692022,-0.615139,0.987103,-0.00671112,-0.000835244,0.0979097,1,4.5441e-05,-1.54267e-05,1.74529e-05,0.0090882,-0.00308534,0.00349057,0,0,0,0,0.0455266,0.512411,-0.996381,34,1,24675,48943844
123,5,-0.670813,-0.0826111,9.791,0.0692022,-0.615139,0.987103,-0.00671112,-0.000835244,0.0979097,1,4.5441e-05,-1.54267e-05,1.74529e-05,0.0090882,-0.00308534,0.00349057,0,0,0,0,0.0455266,0.512411,-0.996381,34,1,24675,48943844
123,6,-0.673672,-0.0634796,9.7939,0.0656302,-0.600248,0.993139,-0.00673993,-0.000643484,0.0979387,1,4.35878e-05,-1.64565e-05,1.11461e-05,0.00871755,-0.00329129,0.00222922,0,0,0,0,0.043252,0.510408,-0.992375,34,1,24676,48943944
124,1,-0.673672,-0.0634796,9.7939,0.0656302,-0.600248,0.993139,-0.00673993,-0.000643484,0.0979387,1,4.35878e-05,-1.64565e-05,1.11461e-05,0.00871755,-0.00329129,0.00222922,0,0,0,0,0.043252,0.510408,-0.992375,34,1,24676,48943944
124,2,-0.678049,-0.0804528,9.77852,0.0599898,-0.616317,0.975305,-0.00678204,-0.000813617,0.097785,1,4.49812e-05,-8.08361e-06,2.15859e-05,0.00899624,-0.00161672,0.00431718,0,0,0,0,0.043828,0.511298,-0.987812,34,1,24677,48944044
124,3,-0.678049,-0.0804528,9.77852,0.0599898,-0.616317,0.975305,-0.00678204,-0.000813617,0.097785,1,4.49812e-05,-8.08361e-06,2.15859e-05,0.00899624,-0.00161672,0.00431718,0,0,0,0,0.043828,0.511298,-0.987812,34,1,24677,48944044
124,4,-0.67877,-0.0791479,9.78972,0.0588898,-0.616965,0.987443,-0.00678896,-0.000801637,0.0978971,1,4.98909e-05,-6.71288e-06,2.87128e-05,0.00997818,-0.00134258,0.00574255,0,0,0,0,0.0451987,0.515676,-0.987721,34,1,24678,48944144
124,5,-0.67877,-0.0791479,9.78972,0.0588898,-0.616965,0.987443,-0.00678896,-0.000801637,0.0978971,1,4.98909e-05,-6.71288e-06,2.87128e-05,0.00997818,-0.00134258,0.00574255,0,0,0,0,0.0451987,0.515676,-0.987721,34,1,24678,48944144
124,6,-0.668438,-0.0818631,9.79574,0.0696707,-0.614673,0.990965,-0.00668693,-0.000828797,0.0979571,1,5.00734e-05,-1.32585e-05,2.66117e-05,0.0100147,-0.00265169,0.00532234,0,0,0,0,0.0465519,0.516693,-0.990735,34,1,24679,48944244
125,1,-0.668438,-0.0818631,9.79574,0.0696707,-0.614673,0.990965,-0.00668693,-0.000828797,0.0979571,1,5.00734e-05,-1.32585e-05,2.66117e-05,0.0100147,-0.00265169,0.00532234,0,0,0,0,0.0465519,0.516693,-0.990735,34,1,24679,48944244
125,2,-0.679159,-0.0794672,9.78464,0.0583404,-0.617189,0.980927,-0.0067925,-0.000803405,0.0978462,1,4.42694e-05,-4.70694e-06,5.09631e-06,0.00885389,-0.000941388,0.00101926,0,0,0,0,0.0450383,0.515793,-0.994283,34,1,24680,48944344
126,1,-0.679159,-0.0794672,9.78464,0.0583404,-0.617189,0.980927,-0.0067925,-0.000803405,0.0978462,1,4.42694e-05,-4.70694e-06,5.09631e-06,0.00885389,-0.000941388,0.00101926,0,0,0,0,0.0450383,0.515793,-0.994283,34,1,24680,48944344
126,2,-0.662577,-0.071933,9.79139,0.0782766,-0.606304,0.984916,-0.00663217,-0.000728055,0.0979134,1,4.44426e-05,-3.26728e-05,1.61488e-06,0.00888853,-0.00653456,0.000322977,0,0,0,0,0.0455432,0.51288,-0.995361,34,1,24681,48944444
127,1,-0.662577,-0.071933,9.79139,0.0782766,-0.606304,0.984916,-0.00663217,-0.000728055,0.0979134,1,4.44426e-05,-3.26728e-05,1.61488e-06,0.00888853,-0.00653456,0.000322977,0,0,0,0,0.0455432,0.51288,-0.995361,34,1,24681,48944444
127,2,-0.671579,-0.0838909,9.79336,0.0676852,-0.623345,0.987785,-0.00671565,-0.000850535,0.0979335,1,5.87851e-05,6.25838e-07,8.36304e-06,0.011757,0.000125168,0.00167261,0,0,0,0,0.044218,0.509433,-0.992906,34,1,24682,48944544
128,1,-0.671579,-0.0838909,9.79336,0.0676852,-0.623345,0.987785,-0.00671565,-0.000850535,0.0979335,1,5.87851e-05,6.25838e-07,8.36304e-06,0.011757,0.000125168,0.00167261,0,0,0,0,0.044218,0.509433,-0.992906,34,1,24682,48944544
128,2,-0.670329,-0.0785205,9.79204,0.0688377,-0.614877,0.991938,-0.00670286,-0.000794176,0.0979204,1,4.48134e-05,2.04325e-06,1.45361e-05,0.00896267,0.000408649,0.00290722,0,0,0,0,0.0443533,0.507889,-0.988395,34,1,24683,48944644
129,1,-0.670329,-0.0785205,9.79204,0.0688377,-0.614877,0.991938,-0.00670286,-0.000794176,0.0979204,1,4.48134e-05,2.04325e-06,1.45361e-05,0.00896267,0.000408649,0.00290722,0,0,0,0,0.0443533,0.507889,-0.988395,34,1,24683,48944644
129,2,-0.668815,-0.0747522,9.78393,0.0686905,-0.614,0.985797,-0.00669284,-0.000754396,0.097839,1,3.44159e-05,-2.40414e-05,1.04624e-05,0.00688318,-0.00480828,0.00209249,0,0,0,0,0.0471877,0.511758,-0.987817,34,1,24684,48944744
130,1,-0.668815,-0.0747522,9.78393,0.0686905,-0.614,0.985797,-0.00669284,-0.000754396,0.097839,1,3.44159e-05,-2.40414e-05,1.04624e-05,0.00688318,-0.00480828,0.00209249,0,0,0,0,0.0471877,0.511758,-0.987817,34,1,24684,48944744
130,2,-0.672429,-0.0757762,9.78428,0.0665349,-0.611633,0.978482,-0.00672465,-0.000764628,0.0978427,1,3.46601e-05,-1.86249e-06,6.21198e-06,0.00693202,-0.000372498,0.0012424,0,0,0,0,0.0479948,0.515236,-0.991784,34,1,24685,48944844
131,1,-0.672429,-0.0757762,9.78428,0.0665349,-0.611633,0.978482,-0.00672465,-0.000764628,0.0978427,1,3.46601e-05,-1.86249e-06,6.21198e-06,0.00693202,-0.000372498,0.0012424,0,0,0,0,0.0479948,0.515236,-0.991784,34,1,24685,48944844
131,2,-0.664999,-0.078106,9.78454,0.0717902,-0.616,0.978507,-0.00664919,-0.000787401,0.0978454,1,3.09106e-05,3.93756e-06,2.19662e-05,0.00618211,0.000787512,0.00439325,0,0,0,0,0.0454701,0.515825,-0.996305,34,1,24686,48944944
132,1,-0.664999,-0.078106,9.78454,0.0717902,-0.616,0.978507,-0.00664919,-0.000787401,0.0978454,1,3.09106e-05,3.93756e-06,2.19662e-05,0.00618211,0.000787512,0.00439325,0,0,0,0,0.0454701,0.515825,-0.996305,34,1,24686,48944944
132,2,-0.667765,-0.0804029,9.78252,0.0717774,-0.620822,0.979132,-0.00668062,-0.000813112,0.0978249,1,4.44206e-05,-1.54095e-05,2.93122e-05,0.00888412,-0.0030819,0.00586245,0,0,0,0,0.0450455,0.512415,-0.996379,34,1,24687,48945044
133,1,-0.667765,-0.0804029,9.78252,0.0717774,-0.620822,0.979132,-0.00668062,-0.000813112,0.0978249,1,4.44206e-05,-1.54095e-05,2.93122e-05,0.00888412,-0.0030819,0.00586245,0,0,0,0,0.0450455,0.512415,-0.996379,34,1,24687,48945044
133,2,-0.660088,-0.0673885,9.7914,0.0803475,-0.610695,0.989156,-0.00660244,-0.000682377,0.0979138,1,4.15985e-05,-8.14166e-06,2.61775e-05,0.0083197,-0.00162833,0.0052355,0,0,0,0,0.0432397,0.510417,-0.992879,34,1,24688,48945144
133,3,-0.660088,-0.0673885,9.7914,0.0803475,-0.610695,0.989156,-0.00660244,-0.000682377,0.0979138,1,4.15985e-05,-8.14166e-06,2.61775e-05,0.0083197,-0.00162833,0.0052355,0,0,0,0,0.0432397,0.510417,-0.992879,34,1,24688,48945144
133,4,-0.683861,-0.0792615,9.79179,0.056864,-0.61672,0.991523,-0.00683987,-0.000801194,0.0979177,1,4.29116e-05,-6.52851e-06,1.2858e-05,0.00858231,-0.0013057,0.0025716,0,0,0,0,0.0433754,0.510317,-0.987327,34,1,24689,48945244
134,1,-0.683861,-0.0792615,9.79179,0.056864,-0.61672,0.991523,-0.00683987,-0.000801194,0.0979177,1,4.29116e-05,-6.52851e-06,1.2858e-05,0.00858231,-0.0013057,0.0025716,0,0,0,0,0.0433754,0.510317,-0.987327,34,1,24689,48945244
134,2,-0.67006,-0.0712496,9.78633,0.0749922,-0.613941,0.982625,-0.00670057,-0.000721835,0.0978633,1,4.6961e-05,5.20778e-08,1.10063e-05,0.0093922,1.04156e-05,0.00220127,0,0,0,0,0.0462506,0.513193,-0.985761,34,1,24690,48945344
135,1,-0.67006,-0.0712496,9.78633,0.0749922,-0.613941,0.982625,-0.00670057,-0.000721835,0.0978633,1,4.6961e-05,5.20778e-08,1.10063e-05,0.0093922,1.04156e-05,0.00220127,0,0,0,0,0.0462506,0.513193,-0.985761,34,1,24690,48945344
135,2,-0.675099,-0.073029,9.79008,0.0609994,-0.614242,0.98961,-0.00675191,-0.000738458,0.0979007,1,4.11161e-05,-4.74587e-06,8.7005e-06,0.00822321,-0.000949174,0.0017401,0,0,0,0,0.0480199,0.516663,-0.989732,34,1,24691,48945444
135,3,-0.675099,-0.073029,9.79008,0.0609994,-0.614242,0.98961,-0.00675191,-0.000738458,0.0979007,1,4.11161e-05,-4.74587e-06,8.7005e-06,0.00822321,-0.000949174,0.0017401,0,0,0,0,0.0480199,0.516663,-0.989732,34,1,24691,48945444
135,4,-0.681501,-0.0682721,9.7956,0.0578383,-0.608534,0.991659,-0.00681655,-0.0006926,0.0979558,1,4.92148e-05,-7.96826e-06,1.74027e-05,0.00984296,-0.00159365,0.00348055,0,0,0,0,0.0474154,0.516758,-0.994778,34,1,24692,48945544
136,1,-0.681501,-0.0682721,9.7956,0.0578383,-0.608534,0.991659,-0.00681655,-0.0006926,0.0979558,1,4.92148e-05,-7.96826e-06,1.74027e-05,0.00984296,-0.00159365,0.00348055,0,0,0,0,0.0474154,0.516758,-0.994778,34,1,24692,48945544
136,2,-0.673363,-0.0703627,9.79078,0.0644315,-0.614022,0.987825,-0.00673645,-0.000711516,0.0979076,1,3.91117e-05,-1.45046e-05,1.71495e-05,0.00782235,-0.00290091,0.0034299,0,0,0,0,0.0465216,0.511897,-0.995387,34,1,24693,48945644
137,1,-0.673363,-0.0703627,9.79078,0.0644315,-0.614022,0.987825,-0.00673645,-0.000711516,0.0979076,1,3.91117e-05,-1.45046e-05,1.71495e-05,0.00782235,-0.00290091,0.0034299,0,0,0,0,0.0465216,0.511897,-0.995387,34,1,24693,48945644
137,2,-0.686131,-0.0774907,9.78437,0.0512981,-0.624524,0.978367,-0.00686573,-0.000784183,0.0978434,1,4.65903e-05,-2.26777e-05,1.15876e-05,0.00931806,-0.00453554,0.00231751,0,0,0,0,0.0442138,0.508954,-0.993422,34,1,24694,48945744
137,3,-0.686131,-0.0774907,9.78437,0.0512981,-0.624524,0.978367,-0.00686573,-0.000784183,0.0978434,1,4.65903e-05,-2.26777e-05,1.15876e-05,0.00931806,-0.00453554,0.00231751,0,0,0,0,0.0442138,0.508954,-0.993422,34,1,24694,48945744
137,4,-0.663895,-0.0667842,9.79346,0.0756968,-0.611535,0.991081,-0.00663996,-0.000678827,0.0979344,1,5.48176e-05,-5.26578e-06,1.86395e-05,0.0109635,-0.00105316,0.0037279,0,0,0,0,0.0457316,0.510333,-0.989357,34,1,24695,48945844
138,1,-0.663895,-0.0667842,9.79346,0.0756968,-0.611535,0.991081,-0.00663996,-0.000678827,0.0979344,1,5.48176e-05,-5.26578e-06,1.86395e-05,0.0109635,-0.00105316,0.0037279,0,0,0,0,0.0457316,0.510333,-0.989357,34,1,24695,48945844
138,2,-0.673067,-0.0714528,9.78873,0.0665711,-0.61589,0.987601,-0.00673187,-0.000720682,0.0978872,1,3.06256e-05,-6.20997e-06,1.17459e-05,0.00612512,-0.00124199,0.00234918,0,0,0,0,0.0462136,0.51322,-0.987275,34,1,24696,48945944
138,3,-0.673067,-0.0714528,9.78873,0.0665711,-0.61589,0.987601,-0.00673187,-0.000720682,0.0978872,1,3.06256e-05,-6.20997e-06,1.17459e-05,0.00612512,-0.00124199,0.00234918,0,0,0,0,0.0462136,0.51322,-0.987275,34,1,24696,48945944
138,4,-0.676436,-0.0701861,9.78097,0.0599851,-0.616869,0.97418,-0.00676607,-0.000711861,0.0978095,1,4.87977e-05,-9.00783e-06,3.35144e-05,0.00975955,-0.00180157,0.00670287,0,0,0,0,0.0470572,0.515226,-0.99077,34,1,24697,48946044
138,5,-0.676436,-0.0701861,9.78097,0.0599851,-0.616869,0.97418,-0.00676607,-0.000711861,0.0978095,1,4.87977e-05,-9.00783e-06,3.35144e-05,0.00975955,-0.00180157,0.00670287,0,0,0,0,0.0470572,0.515226,-0.99077,34,1,24697,48946044
138,6,-0.678255,-0.0765015,9.79417,0.0586836,-0.62223,0.989792,-0.00678717,-0.000775742,0.0979413,1,5.32231e-05,-2.38031e-05,2.22753e-05,0.0106446,-0.00476063,0.00445506,0,0,0,0,0.0478961,0.515308,-0.995823,34,1,24698,48946144
139,1,-0.678255,-0.0765015,9.79417,0.0586836,-0.62223,0.989792,-0.00678717,-0.000775742,0.0979413,1,5.32231e-05,-2.38031e-05,2.22753e-05,0.0106446,-0.00476063,0.00445506,0,0,0,0,0.0478961,0.515308,-0.995823,34,1,24698,48946144
139,2,-0.680717,-0.0837974,9.79106,0.0549484,-0.634382,0.989808,-0.00680803,-0.00084648,0.0979104,1,4.27701e-05,-4.48718e-06,9.60535e-06,0.00855402,-0.000897437,0.00192107,0,0,0,0,0.0469372,0.512905,-0.997387,34,1,24699,48946244
140,1,-0.680717,-0.0837974,9.79106,0.0549484,-0.634382,0.989808,-0.00680803,-0.00084648,0.0979104,1,4.27701e-05,-4.48718e-06,9.60535e-06,0.00855402,-0.000897437,0.00192107,0,0,0,0,0.0469372,0.512905,-0.997387,34,1,24699,48946244
140,2,-0.66863,-0.0641005,9.7891,0.0674291,-0.610074,0.985902,-0.00668782,-0.000648604,0.0978909,1,3.71319e-05,-7.92537e-06,2.46297e-05,0.00742638,-0.00158507,0.00492594,0,0,0,0,0.0446707,0.510414,-0.993391,34,1,24700,48946344
140,3,-0.66863,-0.0641005,9.7891,0.0674291,-0.610074,0.985902,-0.00668782,-0.000648604,0.0978909,1,3.71319e-05,-7.92537e-06,2.46297e-05,0.00742638,-0.00158507,0.00492594,0,0,0,0,0.0446707,0.510414,-0.993391,34,1,24700,48946344
140,4,-0.678029,-0.0718857,9.78673,0.0611545,-0.620811,0.983498,-0.00678404,-0.000729501,0.097867,1,5.40559e-05,-1.91963e-05,4.64168e-06,0.0108112,-0.00383925,0.000928336,0,0,0,0,0.0438356,0.509365,-0.988865,34,1,24701,48946444
141,1,-0.678029,-0.0718857,9.78673,0.0611545,-0.620811,0.983498,-0.00678404,-0.000729501,0.097867,1,5.40559e-05,-1.91963e-05,4.64168e-06,0.0108112,-0.00383925,0.000928336,0,0,0,0,0.0438356,0.509365,-0.988865,34,1,24701,48946444
141,2,-0.671117,-0.0702439,9.78601,0.0703049,-0.614801,0.984442,-0.00671131,-0.0007114,0.09786,1,4.31667e-05,-9.81348e-07,3.8175e-05,0.00863334,-0.00019627,0.007635,0,0,0,0,0.0462094,0.512741,-0.987791,34,1,24702,48946544
141,3,-0.671117,-0.0702439,9.78601,0.0703049,-0.614801,0.984442,-0.00671131,-0.0007114,0.09786,1,4.31667e-05,-9.81348e-07,3.8175e-05,0.00863334,-0.00019627,0.007635,0,0,0,0,0.0462094,0.512741,-0.987791,34,1,24702,48946544
141,4,-0.677341,-0.0791427,9.79412,0.061952,-0.625792,0.991374,-0.006774,-0.000800449,0.0979411,1,4.52046e-05,-3.11261e-06,1.23808e-05,0.00904092,-0.000622522,0.00247616,0,0,0,0,0.0494955,0.5147,-0.989783,34,1,24703,48946644
142,1,-0.677341,-0.0791427,9.79412,0.061952,-0.625792,0.991374,-0.006774,-0.000800449,0.0979411,1,4.52046e-05,-3.11261e-06,1.23808e-05,0.00904092,-0.000622522,0.00247616,0,0,0,0,0.0494955,0.5147,-0.989783,34,1,24703,48946644
142,2,-0.68206,-0.075389,9.79148,0.0556072,-0.625632,0.989555,-0.00682383,-0.000764702,0.0979145,1,5.41677e-05,-1.65679e-05,1.4957e-05,0.0108335,-0.00331358,0.0029914,0,0,0,0,0.047423,0.514825,-0.995831,34,1,24704,48946744
143,1,-0.68206,-0.075389,9.79148,0.0556072,-0.625632,0.989555,-0.00682383,-0.000764702,0.0979145,1,5.41677e-05,-1.65679e-05,1.4957e-05,0.0108335,-0.00331358,0.0029914,0,0,0,0,0.047423,0.514825,-0.995831,34,1,24704,48946744
143,2,-0.675727,-0.0721711,9.78434,0.0561803,-0.625928,0.981586,-0.00675953,-0.000733054,0.0978432,1,5.59409e-05,-1.17755e-05,2.93086e-05,0.0111882,-0.0023551,0.00586173,0,0,0,0,0.0459707,0.512434,-0.997898,34,1,24705,48946844
144,1,-0.675727,-0.0721711,9.78434,0.0561803,-0.625928,0.981586,-0.00675953,-0.000733054,0.0978432,1,5.59409e-05,-1.17755e-05,2.93086e-05,0.0111882,-0.0023551,0.00586173,0,0,0,0,0.0459707,0.512434,-0.997898,34,1,24705,48946844
144,2,-0.667262,-0.0745956,9.78866,0.0684425,-0.621826,0.988467,-0.0066732,-0.000754854,0.0978865,1,4.25503e-05,-3.27059e-06,4.24887e-05,0.00851007,-0.000654119,0.00849775,0,0,0,0,0.0461221,0.509914,-0.993409,34,1,24706,48946944
145,1,-0.667262,-0.0745956,9.78866,0.0684425,-0.621826,0.988467,-0.0066732,-0.000754854,0.0978865,1,4.25503e-05,-3.27059e-06,4.24887e-05,0.00851007,-0.000654119,0.00849775,0,0,0,0,0.0461221,0.509914,-0.993409,34,1,24706,48946944
145,2,-0.679253,-0.0754114,9.78195,0.0525,-0.628671,0.983722,-0.00679151,-0.000760634,0.0978195,1,3.26969e-05,5.15392e-06,9.04109e-06,0.00653939,0.00103078,0.00180822,0,0,0,0,0.0452832,0.509832,-0.988356,34,1,24707,48947044
146,1,-0.679253,-0.0754114,9.78195,0.0525,-0.628671,0.983722,-0.00679151,-0.000760634,0.0978195,1,3.26969e-05,5.15392e-06,9.04109e-06,0.00653939,0.00103078,0.00180822,0,0,0,0,0.0452832,0.509832,-0.988356,34,1,24707,48947044
146,2,-0.675851,-0.066639,9.79083,0.0595341,-0.614973,0.98595,-0.00675774,-0.000673399,0.0979083,1,3.47347e-05,3.83886e-06,1.53219e-05,0.00694694,0.000767773,0.00306439,0,0,0,0,0.0466781,0.512746,-0.988298,34,1,24708,48947144
146,3,-0.675851,-0.066639,9.79083,0.0595341,-0.614973,0.98595,-0.00675774,-0.000673399,0.0979083,1,3.47347e-05,3.83886e-06,1.53219e-05,0.00694694,0.000767773,0.00306439,0,0,0,0,0.0466781,0.512746,-0.988298,34,1,24708,48947144
146,4,-0.674339,-0.0770784,9.79174,0.0651341,-0.626864,0.989388,-0.00674462,-0.000780613,0.0979173,1,4.86448e-05,-6.45043e-06,2.24114e-05,0.00972896,-0.00129009,0.00448228,0,0,0,0,0.0484517,0.516695,-0.991754,34,1,24709,48947244
147,1,-0.674339,-0.0770784,9.79174,0.0651341,-0.626864,0.989388,-0.00674462,-0.000780613,0.0979173,1,4.86448e-05,-6.45043e-06,2.24114e-05,0.00972896,-0.00129009,0.00448228,0,0,0,0,0.0484517,0.516695,-0.991754,34,1,24709,48947244
147,2,-0.680845,-0.0724712,9.78979,0.0577663,-0.624102,0.981987,-0.00681085,-0.000732585,0.0978977,1,3.8756e-05,-1.24201e-05,2.09213e-05,0.0077512,-0.00248402,0.00418427,0,0,0,0,0.0478634,0.515814,-0.996821,34,1,24710,48947344
147,3,-0.680845,-0.0724712,9.78979,0.0577663,-0.624102,0.981987,-0.00681085,-0.000732585,0.0978977,1,3.8756e-05,-1.24201e-05,2.09213e-05,0.0077512,-0.00248402,0.00418427,0,0,0,0,0.0478634,0.515814,-0.996821,34,1,24710,48947344
147,4,-0.687834,-0.0807608,9.79486,0.0440542,-0.630345,0.992007,-0.00688099,-0.000816085,0.0979484,1,4.23975e-05,-1.3659e-05,1.24871e-05,0.00847949,-0.00273181,0.00249743,0,0,0,0,0.0455223,0.511932,-0.996897,34,1,24711,48947444
148,1,-0.687834,-0.0807608,9.79486,0.0440542,-0.630345,0.992007,-0.00688099,-0.000816085,0.0979484,1,4.23975e-05,-1.3659e-05,1.24871e-05,0.00847949,-0.00273181,0.00249743,0,0,0,0,0.0455223,0.511932,-0.996897,34,1,24711,48947444
148,2,-0.672521,-0.0708649,9.78432,0.0628415,-0.623389,0.983154,-0.00672415,-0.000718141,0.0978431,1,4.72571e-05,5.28444e-06,1.81479e-05,0.00945142,0.00105689,0.00362957,0,0,0,0,0.04275,0.509463,-0.993909,34,1,24712,48947544
148,3,-0.672521,-0.0708649,9.78432,0.0628415,-0.623389,0.983154,-0.00672415,-0.000718141,0.0978431,1,4.72571e-05,5.28444e-06,1.81479e-05,0.00945142,0.00105689,0.00362957,0,0,0,0,0.04275,0.509463,-0.993909,34,1,24712,48947544
148,4,-0.673335,-0.0804248,9.79239,0.0636514,-0.633246,0.992107,-0.00673449,-0.000816406,0.0979237,1,6.07706e-05,-5.9569e-06,1.90197e-05,0.0121541,-0.00119138,0.00380395,0,0,0,0,0.0438233,0.509374,-0.98937,34,1,24713,48947644
149,1,-0.673335,-0.0804248,9.79239,0.0636514,-0.633246,0.992107,-0.00673449,-0.000816406,0.0979237,1,6.07706e-05,-5.9569e-06,1.90197e-05,0.0121541,-0.00119138,0.00380395,0,0,0,0,0.0438233,0.509374,-0.98937,34,1,24713,48947644
149,2,-0.670344,-0.0769952,9.7897,0.0670447,-0.626521,0.984467,-0.00670861,-0.000774832,0.0978967,1,2.33503e-05,-2.6606e-05,2.29959e-05,0.00467007,-0.00532121,0.00459919,0,0,0,0,0.0466701,0.513234,-0.988287,34,1,24714,48947744
149,3,-0.670344,-0.0769952,9.7897,0.0670447,-0.626521,0.984467,-0.00670861,-0.000774832,0.0978967,1,2.33503e-05,-2.6606e-05,2.29959e-05,0.00467007,-0.00532121,0.00459919,0,0,0,0,0.0466701,0.513234,-0.988287,34,1,24714,48947744
149,4,-0.681463,-0.0725048,9.79523,0.0640971,-0.620107,0.991537,-0.00681602,-0.000733161,0.0979521,1,4.02257e-05,-7.20109e-06,1.70375e-05,0.00804514,-0.00144022,0.00340749,0,0,0,0,0.0470572,0.515226,-0.99077,34,1,24715,48947844
150,1,-0.681463,-0.0725048,9.79523,0.0640971,-0.620107,0.991537,-0.00681602,-0.000733161,0.0979521,1,4.02257e-05,-7.20109e-06,1.70375e-05,0.00804514,-0.00144022,0.00340749,0,0,0,0,0.0470572,0.515226,-0.99077,34,1,24715,48947844
150,2,-0.672,-0.0682649,9.79486,0.0648922,-0.617189,0.990903,-0.00672195,-0.000691377,0.0979484,1,4.25838e-05,-1.01604e-05,2.86886e-05,0.00851676,-0.00203208,0.00573772,0,0,0,0,0.0469543,0.51482,-0.995324,34,1,24716,48947944
150,3,-0.672,-0.0682649,9.79486,0.0648922,-0.617189,0.990903,-0.00672195,-0.000691377,0.0979484,1,4.25838e-05,-1.01604e-05,2.86886e-05,0.00851676,-0.00203208,0.00573772,0,0,0,0,0.0469543,0.51482,-0.995324,34,1,24716,48947944
150,4,-0.67224,-0.0819005,9.78966,0.0673593,-0.635219,0.983805,-0.00672383,-0.00082809,0.0978964,1,4.56813e-05,-7.38748e-06,1.0468e-05,0.00913627,-0.0014775,0.00209359,0,0,0,0,0.0469491,0.51145,-0.997924,34,1,24717,48948044
151,1,-0.67224,-0.0819005,9.78966,0.0673593,-0.635219,0.983805,-0.00672383,-0.00082809,0.0978964,1,4.56813e-05,-7.38748e-06,1.0468e-05,0.00913627,-0.0014775,0.00209359,0,0,0,0,0.0469491,0.51145,-0.997924,34,1,24717,48948044
151,2,-0.670746,-0.0660882,9.78299,0.0705086,-0.617855,0.977605,-0.0067083,-0.00066935,0.0978298,1,4.11627e-05,-4.51658e-06,3.08695e-05,0.00823253,-0.000903316,0.00617391,0,0,0,0,0.0441525,0.510445,-0.994903,34,1,24718,48948144
152,1,-0.670746,-0.0660882,9.78299,0.0705086,-0.617855,0.977605,-0.0067083,-0.00066935,0.0978298,1,4.11627e-05,-4.51658e-06,3.08695e-05,0.00823253,-0.000903316,0.00617391,0,0,0,0,0.0441525,0.510445,-0.994903,34,1,24718,48948144
152,2,-0.660958,-0.0773322,9.78759,0.0730538,-0.630428,0.984837,-0.00661393,-0.000781757,0.0978756,1,4.13153e-05,-2.24522e-05,2.6323e-05,0.00826306,-0.00449045,0.0052646,0,0,0,0,0.0457358,0.510812,-0.988842,34,1,24719,48948244
152,3,-0.660958,-0.0773322,9.78759,0.0730538,-0.630428,0.984837,-0.00661393,-0.000781757,0.0978756,1,4.13153e-05,-2.24522e-05,2.6323e-05,0.00826306,-0.00449045,0.0052646,0,0,0,0,0.0457358,0.510812,-0.988842,34,1,24719,48948244
152,4,-0.674259,-0.0794792,9.78596,0.0658429,-0.635504,0.982022,-0.00674495,-0.000803779,0.0978594,1,4.47185e-05,-1.22058e-05,1.73913e-05,0.0089437,-0.00244116,0.00347826,0,0,0,0,0.0481424,0.513683,-0.986769,34,1,24720,48948344
152,5,-0.674259,-0.0794792,9.78596,0.0658429,-0.635504,0.982022,-0.00674495,-0.000803779,0.0978594,1,4.47185e-05,-1.22058e-05,1.73913e-05,0.0089437,-0.00244116,0.00347826,0,0,0,0,0.0481424,0.513683,-0.986769,34,1,24720,48948344
152,6,-0.661789,-0.076591,9.78658,0.0770705,-0.630335,0.980301,-0.00661915,-0.000775142,0.0978656,1,4.49494e-05,-6.68107e-06,3.28068e-05,0.00898988,-0.00133621,0.00656135,0,0,0,0,0.0480977,0.515643,-0.98723,34,1,24721,48948444
153,1,-0.661789,-0.076591,9.78658,0.0770705,-0.630335,0.980301,-0.00661915,-0.000775142,0.0978656,1,4.49494e-05,-6.68107e-06,3.28068e-05,0.00898988,-0.00133621,0.00656135,0,0,0,0,0.0480977,0.515643,-0.98723,34,1,24721,48948444
153,2,-0.682152,-0.0792491,9.79245,0.0543936,-0.636181,0.987387,-0.00682345,-0.000801506,0.0979243,1,4.43103e-05,-1.00509e-05,2.47026e-05,0.00886207,-0.00201018,0.00494052,0,0,0,0,0.0460495,0.514304,-0.993311,34,1,24722,48948544
154,1,-0.682152,-0.0792491,9.79245,0.0543936,-0.636181,0.987387,-0.00682345,-0.000801506,0.0979243,1,4.43103e-05,-1.00509e-05,2.47026e-05,0.00886207,-0.00201018,0.00494052,0,0,0,0,0.0460495,0.514304,-0.993311,34,1,24722,48948544
154,2,-0.67216,-0.08093,9.79171,0.0614604,-0.635961,0.985931,-0.0067243,-0.00081731,0.0979168,1,3.99892e-05,-1.39102e-05,1.33047e-05,0.00799784,-0.00278203,0.00266094,0,0,0,0,0.0460115,0.51144,-0.99691,34,1,24723,48948644
155,1,-0.67216,-0.08093,9.79171,0.0614604,-0.635961,0.985931,-0.0067243,-0.00081731,0.0979168,1,3.99892e-05,-1.39102e-05,1.33047e-05,0.00799784,-0.00278203,0.00266094,0,0,0,0,0.0460115,0.51144,-0.99691,34,1,24723,48948644
155,2,-0.669775,-0.0662977,9.77688,0.0641306,-0.626298,0.976016,-0.0067,-0.000671958,0.0977686,1,4.51151e-05,-1.15986e-05,1.18244e-05,0.00902301,-0.00231972,0.00236488,0,0,0,0,0.0451599,0.509922,-0.993404,34,1,24724,48948744
155,3,-0.669775,-0.0662977,9.77688,0.0641306,-0.626298,0.976016,-0.0067,-0.000671958,0.0977686,1,4.51151e-05,-1.15986e-05,1.18244e-05,0.00902301,-0.00231972,0.00236488,0,0,0,0,0.0451599,0.509922,-0.993404,34,1,24724,48948744
155,4,-0.672709,-0.064838,9.79014,0.0653042,-0.622189,0.983916,-0.00672897,-0.000656316,0.0979013,1,3.92571e-05,-9.73774e-06,1.84831e-05,0.00785143,-0.00194755,0.00369661,0,0,0,0,0.0438403,0.511289,-0.987307,34,1,24725,48948844
156,1,-0.672709,-0.064838,9.79014,0.0653042,-0.622189,0.983916,-0.00672897,-0.000656316,0.0979013,1,3.92571e-05,-9.73774e-06,1.84831e-05,0.00785143,-0.00194755,0.00369661,0,0,0,0,0.0438403,0.511289,-0.987307,34,1,24725,48948844
156,2,-0.674105,-0.0718329,9.77789,0.0640431,-0.627524,0.976801,-0.00674362,-0.000727889,0.0977786,1,4.82257e-05,-1.31911e-05,9.59473e-06,0.00964515,-0.00263823,0.00191895,0,0,0,0,0.0448077,0.51465,-0.984712,34,1,24726,48948944
156,3,-0.674105,-0.0718329,9.77789,0.0640431,-0.627524,0.976801,-0.00674362,-0.000727889,0.0977786,1,4.82257e-05,-1.31911e-05,9.59473e-06,0.00964515,-0.00263823,0.00191895,0,0,0,0,0.0448077,0.51465,-0.984712,34,1,24726,48948944
156,4,-0.671861,-0.0805193,9.78357,0.0650399,-0.633844,0.98141,-0.00672296,-0.000811728,0.0978353,1,3.32744e-05,-2.22417e-05,1.8126e-06,0.00665488,-0.00444834,0.00036252,0,0,0,0,0.0480076,0.516672,-0.990237,34,1,24727,48949044
157,1,-0.671861,-0.0805193,9.78357,0.0650399,-0.633844,0.98141,-0.00672296,-0.000811728,0.0978353,1,3.32744e-05,-2.22417e-05,1.8126e-06,0.00665488,-0.00444834,0.00036252,0,0,0,0,0.0480076,0.516672,-0.990237,34,1,24727,48949044
157,2,-0.672936,-0.0845353,9.78997,0.0637367,-0.638859,0.980236,-0.00673121,-0.000854579,0.0978995,1,4.6337e-05,-9.56074e-06,1.14313e-05,0.0092674,-0.00191215,0.00228627,0,0,0,0,0.04788,0.516284,-0.995801,34,1,24728,48949144
157,3,-0.672936,-0.0845353,9.78997,0.0637367,-0.638859,0.980236,-0.00673121,-0.000854579,0.0978995,1,4.6337e-05,-9.56074e-06,1.14313e-05,0.0092674,-0.00191215,0.00228627,0,0,0,0,0.04788,0.516284,-0.995801,34,1,24728,48949144
157,4,-0.677383,-0.0771167,9.79279,0.0601881,-0.638806,0.99012,-0.00677422,-0.00078118,0.0979278,1,4.99488e-05,-2.14217e-06,1.70318e-05,0.00998976,-0.000428434,0.00340636,0,0,0,0,0.0459954,0.512416,-0.996888,34,1,24729,48949244
158,1,-0.677383,-0.0771167,9.79279,0.0601881,-0.638806,0.99012,-0.00677422,-0.00078118,0.0979278,1,4.99488e-05,-2.14217e-06,1.70318e-05,0.00998976,-0.000428434,0.00340636,0,0,0,0,0.0459954,0.512416,-0.996888,34,1,24729,48949244
158,2,-0.678529,-0.0688776,9.77929,0.0622682,-0.630709,0.97354,-0.00678815,-0.000698144,0.0977927,1,4.66201e-05,-1.47728e-05,1.84347e-05,0.00932401,-0.00295456,0.00368695,0,0,0,0,0.044218,0.509433,-0.992906,34,1,24730,48949344
159,1,-0.678529,-0.0688776,9.77929,0.0622682,-0.630709,0.97354,-0.00678815,-0.000698144,0.0977927,1,4.66201e-05,-1.47728e-05,1.84347e-05,0.00932401,-0.00295456,0.00368695,0,0,0,0,0.044218,0.509433,-0.992906,34,1,24730,48949344
159,2,-0.674238,-0.0732889,9.78704,0.062086,-0.63408,0.984809,-0.00674547,-0.000742272,0.0978701,1,4.65682e-05,-1.5933e-05,1.98909e-05,0.00931363,-0.00318659,0.00397817,0,0,0,0,0.0462663,0.510772,-0.986825,34,1,24731,48949444
160,1,-0.674238,-0.0732889,9.78704,0.062086,-0.63408,0.984809,-0.00674547,-0.000742272,0.0978701,1,4.65682e-05,-1.5933e-05,1.98909e-05,0.00931363,-0.00318659,0.00397817,0,0,0,0,0.0462663,0.510772,-0.986825,34,1,24731,48949444
160,2,-0.67772,-0.0595733,9.78106,0.056987,-0.620482,0.983151,-0.00677768,-0.000604329,0.0978105,1,4.25632e-05,-2.58911e-06,1.98375e-05,0.00851264,-0.000517822,0.00396749,0,0,0,0,0.0481466,0.514161,-0.986253,34,1,24732,48949544
161,1,-0.67772,-0.0595733,9.78106,0.056987,-0.620482,0.983151,-0.00677768,-0.000604329,0.0978105,1,4.25632e-05,-2.58911e-06,1.98375e-05,0.00851264,-0.000517822,0.00396749,0,0,0,0,0.0481466,0.514161,-0.986253,34,1,24732,48949544
161,2,-0.676077,-0.0777556,9.787,0.060414,-0.637036,0.983648,-0.00676118,-0.000786993,0.0978699,1,4.71902e-05,-2.21467e-06,1.48396e-05,0.00943803,-0.000442933,0.00296791,0,0,0,0,0.0465884,0.515221,-0.990263,34,1,24733,48949644
162,1,-0.676077,-0.0777556,9.787,0.060414,-0.637036,0.983648,-0.00676118,-0.000786993,0.0978699,1,4.71902e-05,-2.21467e-06,1.48396e-05,0.00943803,-0.000442933,0.00296791,0,0,0,0,0.0465884,0.515221,-0.990263,34,1,24733,48949644
162,2,-0.671701,-0.078479,9.78493,0.0630391,-0.642082,0.975657,-0.00671747,-0.000794518,0.0978491,1,4.90658e-05,-2.43655e-06,9.35048e-06,0.00981316,-0.000487309,0.0018701,0,0,0,0,0.0464361,0.514851,-0.996836,34,1,24734,48949744
162,3,-0.671701,-0.078479,9.78493,0.0630391,-0.642082,0.975657,-0.00671747,-0.000794518,0.0978491,1,4.90658e-05,-2.43655e-06,9.35048e-06,0.00981316,-0.000487309,0.0018701,0,0,0,0,0.0464361,0.514851,-0.996836,34,1,24734,48949744
162,4,-0.67164,-0.0712558,9.78907,0.0635864,-0.638143,0.984112,-0.00671739,-0.000722195,0.0978905,1,4.80973e-05,-5.13546e-06,1.64339e-05,0.00961945,-0.00102709,0.00328679,0,0,0,0,0.0455304,0.511444,-0.996908,34,1,24735,48949844
163,1,-0.67164,-0.0712558,9.78907,0.0635864,-0.638143,0.984112,-0.00671739,-0.000722195,0.0978905,1,4.80973e-05,-5.13546e-06,1.64339e-05,0.00961945,-0.00102709,0.00328679,0,0,0,0,0.0455304,0.511444,-0.996908,34,1,24735,48949844
163,2,-0.667885,-0.0737935,9.78455,0.0673385,-0.635858,0.978385,-0.00668158,-0.00074539,0.0978452,1,3.76795e-05,-1.3977e-05,6.10573e-06,0.0075359,-0.00279541,0.00122115,0,0,0,0,0.0432885,0.508935,-0.991903,34.0625,1,24736,48949944
164,1,-0.667885,-0.0737935,9.78455,0.0673385,-0.635858,0.978385,-0.00668158,-0.00074539,0.0978452,1,3.76795e-05,-1.3977e-05,6.10573e-06,0.0075359,-0.00279541,0.00122115,0,0,0,0,0.0432885,0.508935,-0.991903,34.0625,1,24736,48949944
164,2,-0.679527,-0.0730782,9.78428,0.0579127,-0.636538,0.982258,-0.00679617,-0.000740333,0.0978426,1,4.75255e-05,-4.75506e-06,1.84214e-05,0.0095051,-0.000951011,0.00368428,0,0,0,0,0.0452875,0.51031,-0.987841,34.0625,1,24737,48950044
164,3,-0.679527,-0.0730782,9.78428,0.0579127,-0.636538,0.982258,-0.00679617,-0.000740333,0.0978426,1,4.75255e-05,-4.75506e-06,1.84214e-05,0.0095051,-0.000951011,0.00368428,0,0,0,0,0.0452875,0.51031,-0.987841,34.0625,1,24737,48950044
164,4,-0.65909,-0.060946,9.78561,0.0774995,-0.620748,0.978617,-0.00659521,-0.00061922,0.0978557,1,4.90659e-05,-2.21019e-05,1.18987e-05,0.00981318,-0.00442038,0.00237974,0,0,0,0,0.0466743,0.513713,-0.987772,34.0625,1,24738,48950144
165,1,-0.65909,-0.060946,9.78561,0.0774995,-0.620748,0.978617,-0.00659521,-0.00061922,0.0978557,1,4.90659e-05,-2.21019e-05,1.18987e-05,0.00981318,-0.00442038,0.00237974,0,0,0,0,0.0466743,0.513713,-0.987772,34.0625,1,24738,48950144
165,2,-0.670285,-0.0754319,9.79268,0.0624943,-0.636172,0.987184,-0.00670507,-0.000763554,0.0979266,1,4.65865e-05,-1.1433e-05,8.31146e-06,0.0093173,-0.0022866,0.00166229,0,0,0,0,0.0485006,0.515214,-0.990777,34.0625,1,24739,48950244
165,3,-0.670285,-0.0754319,9.79268,0.0624943,-0.636172,0.987184,-0.00670507,-0.000763554,0.0979266,1,4.65865e-05,-1.1433e-05,8.31146e-06,0.0093173,-0.0022866,0.00166229,0,0,0,0,0.0485006,0.515214,-0.990777,34.0625,1,24739,48950244
165,4,-0.675152,-0.0757953,9.78694,0.0611494,-0.638053,0.978426,-0.00675209,-0.000766639,0.0978693,1,4.30811e-05,-3.07855e-06,1.87627e-05,0.00861622,-0.00061571,0.00375254,0,0,0,0,0.0474112,0.516279,-0.995294,34.0625,1,24740,48950344
165,5,-0.675152,-0.0757953,9.78694,0.0611494,-0.638053,0.978426,-0.00675209,-0.000766639,0.0978693,1,4.30811e-05,-3.07855e-06,1.87627e-05,0.00861622,-0.00061571,0.00375254,0,0,0,0,0.0474112,0.516279,-0.995294,34.0625,1,24740,48950344
165,6,-0.691088,-0.0722574,9.80064,0.0459931,-0.630449,0.993754,-0.00691092,-0.000727922,0.0980064,1,2.5684e-05,-3.89341e-07,2.26982e-05,0.0051368,-7.78682e-05,0.00453965,0,0,0,0,0.0450213,0.513878,-0.996346,34.0625,3,24741,48950444
165,7,-0.691088,-0.0722574,9.80064,0.0459931,-0.630449,0.993754,-0.00691092,-0.000727922,0.0980064,1,2.5684e-05,-3.89341e-07,2.26982e-05,0.0051368,-7.78682e-05,0.00453965,0,0,0,0,0.0450213,0.513878,-0.996346,34.0625,3,24741,48950444
165,8,-0.681435,-0.0739293,9.79853,0.0535202,-0.641513,0.995822,-0.00681638,-0.00074903,0.0979851,1,4.88963e-05,-1.0442e-05,1.1336e-05,0.00977926,-0.0020884,0.0022672,0,0,0,0,0.0432397,0.510417,-0.992879,34.0625,3,24742,48950544
166,1,-0.681435,-0.0739293,9.79853,0.0535202,-0.641513,0.995822,-0.00681638,-0.00074903,0.0979851,1,4.88963e-05,-1.0442e-05,1.1336e-05,0.00977926,-0.0020884,0.0022672,0,0,0,0,0.0432397,0.510417,-0.992879,34.0625,3,24742,48950544
166,2,-0.672602,-0.0768955,9.78726,0.063184,-0.642688,0.987077,-0.00672958,-0.000777694,0.0978723,1,4.36809e-05,-1.83358e-05,1.39941e-05,0.00873618,-0.00366716,0.00279883,0,0,0,0,0.0443134,0.511773,-0.987299,34.0625,3,24743,48950644
166,3,-0.672602,-0.0768955,9.78726,0.063184,-0.642688,0.987077,-0.00672958,-0.000777694,0.0978723,1,4.36809e-05,-1.83358e-05,1.39941e-05,0.00873618,-0.00366716,0.00279883,0,0,0,0,0.0443134,0.511773,-0.987299,34.0625,3,24743,48950644
166,4,-0.677068,-0.0782653,9.79236,0.0638163,-0.638663,0.983207,-0.00677038,-0.000791798,0.0979235,1,4.59106e-05,1.41574e-06,1.13394e-05,0.00918211,0.000283148,0.00226788,0,0,0,0,0.0461856,0.51565,-0.986716,34.0625,3,24744,48950744
166,5,-0.677068,-0.0782653,9.79236,0.0638163,-0.638663,0.983207,-0.00677038,-0.000791798,0.0979235,1,4.59106e-05,1.41574e-06,1.13394e-05,0.00918211,0.000283148,0.00226788,0,0,0,0,0.0461856,0.51565,-0.986716,34.0625,3,24744,48950744
166,6,-0.66597,-0.0663222,9.79069,0.0746817,-0.628504,0.984225,-0.00666061,-0.000670723,0.0979068,1,3.83854e-05,-4.64913e-06,-1.10832e-06,0.00767708,-0.000929825,-0.000221665,0,0,0,0,0.0479952,0.516681,-0.990742,34.0625,3,24745,48950844
167,1,-0.66597,-0.0663222,9.79069,0.0746817,-0.628504,0.984225,-0.00666061,-0.000670723,0.0979068,1,3.83854e-05,-4.64913e-06,-1.10832e-06,0.00767708,-0.000929825,-0.000221665,0,0,0,0,0.0479952,0.516681,-0.990742,34.0625,3,24745,48950844
167,2,-0.676176,-0.0679945,9.78735,0.058645,-0.636584,0.981774,-0.00676333,-0.000689073,0.0978733,1,4.63501e-05,-8.01695e-06,4.08117e-06,0.00927001,-0.00160339,0.000816235,0,0,0,0,0.0469424,0.516274,-0.994787,34.0625,3,24746,48950944
167,3,-0.676176,-0.0679945,9.78735,0.058645,-0.636584,0.981774,-0.00676333,-0.000689073,0.0978733,1,4.63501e-05,-8.01695e-06,4.08117e-06,0.00927001,-0.00160339,0.000816235,0,0,0,0,0.0469424,0.516274,-0.994787,34.0625,3,24746,48950944
167,4,-0.677923,-0.0680747,9.7799,0.059244,-0.634767,0.971298,-0.00678309,-0.000688354,0.0977986,1,3.8307e-05,-1.97982e-05,8.36181e-06,0.0076614,-0.00395964,0.00167236,0,0,0,0,0.0450255,0.514357,-0.995831,34.0625,3,24747,48951044
168,1,-0.677923,-0.0680747,9.7799,0.059244,-0.634767,0.971298,-0.00678309,-0.000688354,0.0977986,1,3.8307e-05,-1.97982e-05,8.36181e-06,0.0076614,-0.00395964,0.00167236,0,0,0,0,0.0450255,0.514357,-0.995831,34.0625,3,24747,48951044
168,2,-0.674608,-0.0756352,9.7978,0.060641,-0.647765,0.99489,-0.00674753,-0.000765258,0.0979778,1,4.42584e-05,-7.5198e-06,1.7341e-05,0.00885168,-0.00150396,0.00346819,0,0,0,0,0.0432154,0.51188,-0.992847,34.0625,3,24748,48951144
168,3,-0.674608,-0.0756352,9.7978,0.060641,-0.647765,0.99489,-0.00674753,-0.000765258,0.0979778,1,4.42584e-05,-7.5198e-06,1.7341e-05,0.00885168,-0.00150396,0.00346819,0,0,0,0,0.0432154,0.51188,-0.992847,34.0625,3,24748,48951144
168,4,-0.675385,-0.0669006,9.78668,0.0599982,-0.636011,0.984396,-0.00675668,-0.000679399,0.0978666,1,5.22195e-05,-1.45523e-05,1.26881e-05,0.0104439,-0.00291047,0.00253762,0,0,0,0,0.044794,0.510323,-0.988343,34.0625,3,24749,48951244
169,1,-0.675385,-0.0669006,9.78668,0.0599982,-0.636011,0.984396,-0.00675668,-0.000679399,0.0978666,1,5.22195e-05,-1.45523e-05,1.26881e-05,0.0104439,-0.00291047,0.00253762,0,0,0,0,0.044794,0.510323,-0.988343,34.0625,3,24749,48951244
169,2,-0.675101,-0.0762094,9.78355,0.05766,-0.646766,0.977049,-0.00675249,-0.000769263,0.0978353,1,3.47141e-05,-7.78762e-06,2.79211e-05,0.00694281,-0.00155753,0.00558423,0,0,0,0,0.0476242,0.513714,-0.988281,34.0625,3,24750,48951344
169,3,-0.675101,-0.0762094,9.78355,0.05766,-0.646766,0.977049,-0.00675249,-0.000769263,0.0978353,1,3.47141e-05,-7.78762e-06,2.79211e-05,0.00694281,-0.00155753,0.00558423,0,0,0,0,0.0476242,0.513714,-0.988281,34.0625,3,24750,48951344
169,4,-0.669125,-0.0571544,9.78604,0.0679092,-0.622856,0.977493,-0.00669382,-0.00057791,0.0978602,1,3.19964e-05,-1.31356e-05,7.68357e-06,0.00639928,-0.00262711,0.00153671,0,0,0,0,0.049895,0.516684,-0.991761,34.0625,3,24751,48951444
170,1,-0.669125,-0.0571544,9.78604,0.0679092,-0.622856,0.977493,-0.00669382,-0.00057791,0.0978602,1,3.19964e-05,-1.31356e-05,7.68357e-06,0.00639928,-0.00262711,0.00153671,0,0,0,0,0.049895,0.516684,-0.991761,34.0625,3,24751,48951444
170,2,-0.660895,-0.0687029,9.7947,0.0723123,-0.636304,0.989684,-0.00660913,-0.00070079,0.0979469,1,6.90389e-05,-1.05617e-06,1.78872e-05,0.0138078,-0.000211234,0.00357743,0,0,0,0,0.0493437,0.515775,-0.995314,34.0625,3,24752,48951544
170,3,-0.660895,-0.0687029,9.7947,0.0723123,-0.636304,0.989684,-0.00660913,-0.00070079,0.0979469,1,6.90389e-05,-1.05617e-06,1.78872e-05,0.0138078,-0.000211234,0.00357743,0,0,0,0,0.0493437,0.515775,-0.995314,34.0625,3,24752,48951544
170,4,-0.66963,-0.0767476,9.78316,0.0635816,-0.648102,0.976997,-0.00669796,-0.000778905,0.0978314,1,5.66208e-05,-8.6984e-06,2.61365e-05,0.0113242,-0.00173968,0.0052273,0,0,0,0,0.0470193,0.512363,-0.994369,34.0625,3,24753,48951644
171,1,-0.66963,-0.0767476,9.78316,0.0635816,-0.648102,0.976997,-0.00669796,-0.000778905,0.0978314,1,5.66208e-05,-8.6984e-06,2.61365e-05,0.0113242,-0.00173968,0.0052273,0,0,0,0,0.0470193,0.512363,-0.994369,34.0625,3,24753,48951644
171,2,-0.675948,-0.0717293,9.79852,0.0609814,-0.644076,0.991735,-0.00676347,-0.000729323,0.0979849,1,5.96027e-05,-2.056e-05,2.58797e-05,0.0119205,-0.00411201,0.00517594,0,0,0,0,0.0447119,0.510865,-0.991361,34.0625,3,24754,48951744
171,3,-0.675948,-0.0717293,9.79852,0.0609814,-0.644076,0.991735,-0.00676347,-0.000729323,0.0979849,1,5.96027e-05,-2.056e-05,2.58797e-05,0.0119205,-0.00411201,0.00517594,0,0,0,0,0.0447119,0.510865,-0.991361,34.0625,3,24754,48951744
171,4,-0.68758,-0.0797249,9.79039,0.0470712,-0.648828,0.98509,-0.00687745,-0.000805621,0.0979037,1,4.16525e-05,-8.58111e-06,1.57188e-05,0.0083305,-0.00171622,0.00314376,0,0,0,0,0.0452794,0.510798,-0.98783,34.0625,3,24755,48951844
172,1,-0.68758,-0.0797249,9.79039,0.0470712,-0.648828,0.98509,-0.00687745,-0.000805621,0.0979037,1,4.16525e-05,-8.58111e-06,1.57188e-05,0.0083305,-0.00171622,0.00314376,0,0,0,0,0.0452794,0.510798,-0.98783,34.0625,3,24755,48951844
172,2,-0.675958,-0.0715013,9.79513,0.0579676,-0.644873,0.990665,-0.00676189,-0.000725365,0.0979511,1,5.17015e-05,-1.19102e-05,1.6551e-05,0.0103403,-0.00238204,0.00331021,0,0,0,0,0.0462179,0.513699,-0.98676,34.0625,3,24756,48951944
172,3,-0.675958,-0.0715013,9.79513,0.0579676,-0.644873,0.990665,-0.00676189,-0.000725365,0.0979511,1,5.17015e-05,-1.19102e-05,1.6551e-05,0.0103403,-0.00238204,0.00331021,0,0,0,0,0.0462179,0.513699,-0.98676,34.0625,3,24756,48951944
172,4,-0.672626,-0.070016,9.78799,0.0632513,-0.638359,0.982196,-0.00672944,-0.000710211,0.0978796,1,5.04292e-05,-1.63598e-05,1.33382e-05,0.0100859,-0.00327195,0.00266764,0,0,0,0,0.0475303,0.51571,-0.990761,34.0625,3,24757,48952044
173,1,-0.672626,-0.070016,9.78799,0.0632513,-0.638359,0.982196,-0.00672944,-0.000710211,0.0978796,1,5.04292e-05,-1.63598e-05,1.33382e-05,0.0100859,-0.00327195,0.00266764,0,0,0,0,0.0475303,0.51571,-0.990761,34.0625,3,24757,48952044
173,2,-0.667605,-0.0809059,9.78752,0.0673489,-0.647828,0.980248,-0.00667695,-0.000817923,0.097875,1,4.40161e-05,-4.77751e-06,1.85931e-05,0.00880323,-0.000955501,0.00371861,0,0,0,0,0.0473908,0.516776,-0.995788,34.0625,3,24758,48952144
173,3,-0.667605,-0.0809059,9.78752,0.0673489,-0.647828,0.980248,-0.00667695,-0.000817923,0.097875,1,4.40161e-05,-4.77751e-06,1.85931e-05,0.00880323,-0.000955501,0.00371861,0,0,0,0,0.0473908,0.516776,-0.995788,34.0625,3,24758,48952144
173,4,-0.679697,-0.0735118,9.79073,0.0562941,-0.648951,0.985435,-0.00680091,-0.000743636,0.097907,1,4.23174e-05,-2.02339e-05,1.70135e-05,0.00846348,-0.00404678,0.0034027,0,0,0,0,0.0454858,0.513404,-0.997369,34.0625,3,24759,48952244
173,5,-0.679697,-0.0735118,9.79073,0.0562941,-0.648951,0.985435,-0.00680091,-0.000743636,0.097907,1,4.23174e-05,-2.02339e-05,1.70135e-05,0.00846348,-0.00404678,0.0034027,0,0,0,0,0.0454858,0.513404,-0.997369,34.0625,3,24759,48952244
173,6,-0.673781,-0.071757,9.79578,0.0605406,-0.645765,0.989358,-0.00673816,-0.000726266,0.0979577,1,4.42602e-05,-1.78052e-06,1.83117e-06,0.00885204,-0.000356104,0.000366235,0,0,0,0,0.0451437,0.510897,-0.993383,34.0625,3,24760,48952344
174,1,-0.673781,-0.071757,9.79578,0.0605406,-0.645765,0.989358,-0.00673816,-0.000726266,0.0979577,1,4.42602e-05,-1.78052e-06,1.83117e-06,0.00885204,-0.000356104,0.000366235,0,0,0,0,0.0451437,0.510897,-0.993383,34.0625,3,24760,48952344
174,2,-0.676058,-0.0782724,9.78388,0.0626572,-0.655577,0.977862,-0.0067627,-0.000792111,0.0978385,1,4.63147e-05,-1.10139e-05,2.40243e-05,0.00926294,-0.00220277,0.00480486,0,0,0,0,0.0457648,0.511273,-0.987316,34.0625,3,24761,48952444
174,3,-0.676058,-0.0782724,9.78388,0.0626572,-0.655577,0.977862,-0.0067627,-0.000792111,0.0978385,1,4.63147e-05,-1.10139e-05,2.40243e-05,0.00926294,-0.00220277,0.00480486,0,0,0,0,0.0457648,0.511273,-0.987316,34.0625,3,24761,48952444
174,4,-0.673149,-0.0780987,9.8032,0.0637218,-0.655244,0.997413,-0.00673343,-0.000790494,0.0980318,1,4.69947e-05,-1.01088e-05,2.18056e-05,0.00939894,-0.00202176,0.00436112,0,0,0,0,0.0457652,0.512718,-0.986274,34.0625,3,24762,48952544
175,1,-0.673149,-0.0780987,9.8032,0.0637218,-0.655244,0.997413,-0.00673343,-0.000790494,0.0980318,1,4.69947e-05,-1.01088e-05,2.18056e-05,0.00939894,-0.00202176,0.00436112,0,0,0,0,0.0457652,0.512718,-0.986274,34.0625,3,24762,48952544
175,2,-0.671101,-0.0687061,9.79036,0.0621339,-0.645194,0.984705,-0.00671133,-0.000696103,0.0979035,1,4.513e-05,-1.76184e-06,1.52495e-05,0.00902601,-0.000352369,0.0030499,0,0,0,0,0.0480484,0.515679,-0.989249,34.0625,3,24763,48952644
176,1,-0.671101,-0.0687061,9.79036,0.0621339,-0.645194,0.984705,-0.00671133,-0.000696103,0.0979035,1,4.513e-05,-1.76184e-06,1.52495e-05,0.00902601,-0.000352369,0.0030499,0,0,0,0,0.0480484,0.515679,-0.989249,34.0625,3,24763,48952644
176,2,-0.6758,-0.0710159,9.78359,0.0605312,-0.644643,0.975026,-0.0067602,-0.000718666,0.0978357,1,4.31184e-05,-1.12746e-05,5.20995e-06,0.00862367,-0.00225493,0.00104199,0,0,0,0,0.0474316,0.515782,-0.9948,34.0625,3,24764,48952744
176,3,-0.6758,-0.0710159,9.78359,0.0605312,-0.644643,0.975026,-0.0067602,-0.000718666,0.0978357,1,4.31184e-05,-1.12746e-05,5.20995e-06,0.00862367,-0.00225493,0.00104199,0,0,0,0,0.0474316,0.515782,-0.9948,34.0625,3,24764,48952744
176,4,-0.669034,-0.0762588,9.79028,0.0628334,-0.649105,0.980994,-0.0066899,-0.000776089,0.0979027,1,6.73644e-05,2.06624e-06,2.3231e-05,0.0134729,0.000413249,0.00464621,0,0,0,0,0.0450455,0.512415,-0.996379,34.0625,3,24765,48952844
177,1,-0.669034,-0.0762588,9.79028,0.0628334,-0.649105,0.980994,-0.0066899,-0.000776089,0.0979027,1,6.73644e-05,2.06624e-06,2.3231e-05,0.0134729,0.000413249,0.00464621,0,0,0,0,0.0450455,0.512415,-0.996379,34.0625,3,24765,48952844
177,2,-0.682469,-0.0753211,9.79683,0.0547906,-0.653289,0.990705,-0.00682706,-0.00076228,0.0979681,1,4.55995e-05,-1.21647e-05,9.87582e-06,0.00911989,-0.00243293,0.00197516,0,0,0,0,0.0427547,0.511387,-0.992351,34.0625,3,24766,48952944
177,3,-0.682469,-0.0753211,9.79683,0.0547906,-0.653289,0.990705,-0.00682706,-0.00076228,0.0979681,1,4.55995e-05,-1.21647e-05,9.87582e-06,0.00911989,-0.00243293,0.00197516,0,0,0,0,0.0427547,0.511387,-0.992351,34.0625,3,24766,48952944
177,4,-0.678443,-0.0724229,9.78801,0.0616201,-0.648469,0.983752,-0.00678698,-0.000733484,0.0978799,1,4.65475e-05,-1.31315e-05,1.05109e-05,0.0093095,-0.00262631,0.00210219,0,0,0,0,0.0433796,0.510796,-0.986811,34.0625,3,24767,48953044
178,1,-0.678443,-0.0724229,9.78801,0.0616201,-0.648469,0.983752,-0.00678698,-0.000733484,0.0978799,1,4.65475e-05,-1.31315e-05,1.05109e-05,0.0093095,-0.00262631,0.00210219,0,0,0,0,0.0433796,0.510796,-0.986811,34.0625,3,24767,48953044
178,2,-0.675326,-0.0725355,9.79377,0.058356,-0.650028,0.988133,-0.00675501,-0.000734358,0.0979375,1,4.45416e-05,-9.07479e-06,2.06024e-05,0.00890831,-0.00181496,0.00412048,0,0,0,0,0.0452433,0.513716,-0.98726,34.0625,3,24768,48953144
178,3,-0.675326,-0.0725355,9.79377,0.058356,-0.650028,0.988133,-0.00675501,-0.000734358,0.0979375,1,4.45416e-05,-9.07479e-06,2.06024e-05,0.00890831,-0.00181496,0.00412048,0,0,0,0,0.0452433,0.513716,-0.98726,34.0625,3,24768,48953144
178,4,-0.675758,-0.0806467,9.7808,0.0564526,-0.655307,0.972522,-0.00676033,-0.000815081,0.0978077,1,4.21589e-05,-1.42996e-05,2.71278e-05,0.00843179,-0.00285992,0.00542556,0,0,0,0,0.0465353,0.516224,-0.991755,34.0625,3,24769,48953244
178,5,-0.675758,-0.0806467,9.7808,0.0564526,-0.655307,0.972522,-0.00676033,-0.000815081,0.0978077,1,4.21589e-05,-1.42996e-05,2.71278e-05,0.00843179,-0.00285992,0.00542556,0,0,0,0,0.0465353,0.516224,-0.991755,34.0625,3,24769,48953244
178,6,-0.675097,-0.0681195,9.79006,0.0607079,-0.643722,0.979953,-0.00675223,-0.000688319,0.0979005,1,3.59137e-05,-6.4876e-06,6.81712e-06,0.00718274,-0.00129752,0.00136342,0,0,0,0,0.0459517,0.517266,-0.995265,34.0625,3,24770,48953344
179,1,-0.675097,-0.0681195,9.79006,0.0607079,-0.643722,0.979953,-0.00675223,-0.000688319,0.0979005,1,3.59137e-05,-6.4876e-06,6.81712e-06,0.00718274,-0.00129752,0.00136342,0,0,0,0,0.0459517,0.517266,-0.995265,34.0625,3,24770,48953344
179,2,-0.679284,-0.0713458,9.787,0.0593386,-0.649024,0.981648,-0.00679296,-0.000724433,0.0978699,1,5.52945e-05,-7.15183e-07,1.11407e-05,0.0110589,-0.000143037,0.00222813,0,0,0,0,0.0459754,0.514358,-0.99634,34.0625,3,24771,48953444
179,3,-0.679284,-0.0713458,9.787,0.0593386,-0.649024,0.981648,-0.00679296,-0.000724433,0.0978699,1,5.52945e-05,-7.15183e-07,1.11407e-05,0.0110589,-0.000143037,0.00222813,0,0,0,0,0.0459754,0.514358,-0.99634,34.0625,3,24771,48953444
179,4,-0.677046,-0.0687787,9.78838,0.0597852,-0.649609,0.985803,-0.00677333,-0.000695578,0.0978835,1,3.90113e-05,-1.47259e-05,1.13321e-05,0.00780227,-0.00294518,0.00226643,0,0,0,0,0.0451437,0.510897,-0.993383,34.0625,3,24772,48953544
179,5,-0.677046,-0.0687787,9.78838,0.0597852,-0.649609,0.985803,-0.00677333,-0.000695578,0.0978835,1,3.90113e-05,-1.47259e-05,1.13321e-05,0.00780227,-0.00294518,0.00226643,0,0,0,0,0.0451437,0.510897,-0.993383,34.0625,3,24772,48953544
179,6,-0.667398,-0.0841566,9.79395,0.0688818,-0.662539,0.989881,-0.00667548,-0.00085028,0.0979393,1,4.37928e-05,-7.73563e-06,1.02237e-05,0.00875855,-0.00154713,0.00204473,0,0,0,0,0.043363,0.510326,-0.987831,34.0625,3,24773,48953644
180,1,-0.667398,-0.0841566,9.79395,0.0688818,-0.662539,0.989881,-0.00667548,-0.00085028,0.0979393,1,4.37928e-05,-7.73563e-06,1.02237e-05,0.00875855,-0.00154713,0.00204473,0,0,0,0,0.043363,0.510326,-0.987831,34.0625,3,24773,48953644
180,2,-0.677535,-0.0775989,9.78999,0.059081,-0.658544,0.987317,-0.00677679,-0.000783802,0.0978997,1,3.86497e-05,-7.48217e-06,1.8096e-05,0.00772994,-0.00149643,0.00361921,0,0,0,0,0.0462013,0.513229,-0.98778,34.0625,3,24774,48953744
180,3,-0.677535,-0.0775989,9.78999,0.059081,-0.658544,0.987317,-0.00677679,-0.000783802,0.0978997,1,3.86497e-05,-7.48217e-06,1.8096e-05,0.00772994,-0.00149643,0.00361921,0,0,0,0,0.0462013,0.513229,-0.98778,34.0625,3,24774,48953744
180,4,-0.674209,-0.0704929,9.79615,0.0654986,-0.642484,0.989108,-0.00674644,-0.00071391,0.0979612,1,4.42827e-05,-2.23497e-05,2.26329e-05,0.00885653,-0.00446994,0.00452658,0,0,0,0,0.0489774,0.514731,-0.991295,34.0625,3,24775,48953844
180,5,-0.674209,-0.0704929,9.79615,0.0654986,-0.642484,0.989108,-0.00674644,-0.00071391,0.0979612,1,4.42827e-05,-2.23497e-05,2.26329e-05,0.00885653,-0.00446994,0.00452658,0,0,0,0,0.0489774,0.514731,-0.991295,34.0625,3,24775,48953844
180,6,-0.666396,-0.0641852,9.79003,0.0635613,-0.643616,0.981925,-0.00666324,-0.000651887,0.0979003,1,5.0826e-05,3.65255e-06,6.19316e-06,0.0101652,0.00073051,0.00123863,0,0,0,0,0.0459631,0.514367,-0.996845,34.0625,3,24776,48953944
180,7,-0.666396,-0.0641852,9.79003,0.0635613,-0.643616,0.981925,-0.00666324,-0.000651887,0.0979003,1,5.0826e-05,3.65255e-06,6.19316e-06,0.0101652,0.00073051,0.00123863,0,0,0,0,0.0459631,0.514367,-0.996845,34.0625,3,24776,48953944
180,8,-0.669371,-0.0777093,9.78247,0.0606443,-0.656941,0.972922,-0.00669467,-0.000783038,0.0978246,1,3.00333e-05,-4.96396e-06,5.22298e-06,0.00600665,-0.000992792,0.0010446,0,0,0,0,0.0459745,0.511467,-0.998424,34.0625,3,24777,48954044
180,9,-0.669371,-0.0777093,9.78247,0.0606443,-0.656941,0.972922,-0.00669467,-0.000783038,0.0978246,1,3.00333e-05,-4.96396e-06,5.22298e-06,0.00600665,-0.000992792,0.0010446,0,0,0,0,0.0459745,0.511467,-0.998424,34.0625,3,24777,48954044
180,10,-0.673777,-0.0728975,9.79678,0.0644871,-0.651792,0.994494,-0.00673894,-0.000737542,0.0979677,1,4.23378e-05,-6.16178e-06,2.0143e-05,0.00846755,-0.00123236,0.0040286,0,0,0,0,0.0446621,0.509456,-0.994423,34.0625,3,24778,48954144
181,1,-0.673777,-0.0728975,9.79678,0.0644871,-0.651792,0.994494,-0.00673894,-0.000737542,0.0979677,1,4.23378e-05,-6.16178e-06,2.0143e-05,0.00846755,-0.00123236,0.0040286,0,0,0,0,0.0446621,0.509456,-0.994423,34.0625,3,24778,48954144
181,2,-0.669385,-0.0691536,9.78085,0.0671426,-0.649259,0.978071,-0.006696,-0.000702507,0.0978083,1,5.43743e-05,-1.12111e-05,2.49727e-05,0.0108749,-0.00224223,0.00499453,0,0,0,0,0.0442764,0.5118,-0.988813,34.0625,3,24779,48954244
181,3,-0.669385,-0.0691536,9.78085,0.0671426,-0.649259,0.978071,-0.006696,-0.000702507,0.0978083,1,5.43743e-05,-1.12111e-05,2.49727e-05,0.0108749,-0.00224223,0.00499453,0,0,0,0,0.0442764,0.5118,-0.988813,34.0625,3,24779,48954244
181,4,-0.673138,-0.0839201,9.78857,0.0640088,-0.662192,0.983233,-0.00673464,-0.00085071,0.0978853,1,5.77886e-05,-1.67936e-05,1.45413e-05,0.0115577,-0.00335873,0.00290826,0,0,0,0,0.0451987,0.515676,-0.987721,34.0625,3,24780,48954344
181,5,-0.673138,-0.0839201,9.78857,0.0640088,-0.662192,0.983233,-0.00673464,-0.00085071,0.0978853,1,5.77886e-05,-1.67936e-05,1.45413e-05,0.0115577,-0.00335873,0.00290826,0,0,0,0,0.0451987,0.515676,-0.987721,34.0625,3,24780,48954344
181,6,-0.66884,-0.0833062,9.79023,0.0663333,-0.666034,0.984388,-0.00669041,-0.000843278,0.0979021,1,5.01313e-05,-1.05295e-05,2.99084e-05,0.0100263,-0.0021059,0.00598169,0,0,0,0,0.0484683,0.517165,-0.990733,34.0625,3,24781,48954444
182,1,-0.66884,-0.0833062,9.79023,0.0663333,-0.666034,0.984388,-0.00669041,-0.000843278,0.0979021,1,5.01313e-05,-1.05295e-05,2.99084e-05,0.0100263,-0.0021059,0.00598169,0,0,0,0,0.0484683,0.517165,-0.990733,34.0625,3,24781,48954444
182,2,-0.672504,-0.0620945,9.77652,0.0613068,-0.644899,0.966503,-0.00672749,-0.000629511,0.097765,1,4.28502e-05,-1.26063e-05,1.39568e-05,0.00857004,-0.00252125,0.00279136,0,0,0,0,0.0488256,0.515806,-0.996826,34.0625,3,24782,48954544
182,3,-0.672504,-0.0620945,9.77652,0.0613068,-0.644899,0.966503,-0.00672749,-0.000629511,0.097765,1,4.28502e-05,-1.26063e-05,1.39568e-05,0.00857004,-0.00252125,0.00279136,0,0,0,0,0.0488256,0.515806,-0.996826,34.0625,3,24782,48954544
182,4,-0.679391,-0.075304,9.79342,0.0568779,-0.658221,0.987711,-0.00679628,-0.000762095,0.097934,1,4.54616e-05,-1.21686e-05,1.109e-05,0.00909232,-0.00243373,0.00221801,0,0,0,0,0.0445435,0.51147,-0.997913,34.0625,3,24783,48954644
182,5,-0.679391,-0.075304,9.79342,0.0568779,-0.658221,0.987711,-0.00679628,-0.000762095,0.097934,1,4.54616e-05,-1.21686e-05,1.109e-05,0.00909232,-0.00243373,0.00221801,0,0,0,0,0.0445435,0.51147,-0.997913,34.0625,3,24783,48954644
182,6,-0.667347,-0.074428,9.78418,0.0620876,-0.65939,0.982966,-0.00667386,-0.00075424,0.0978417,1,5.10011e-05,-1.97995e-06,-1.54409e-06,0.0102002,-0.000395991,-0.000308817,0,0,0,0,0.0432762,0.508944,-0.992407,34.0625,3,24784,48954744
183,1,-0.667347,-0.074428,9.78418,0.0620876,-0.65939,0.982966,-0.00667386,-0.00075424,0.0978417,1,5.10011e-05,-1.97995e-06,-1.54409e-06,0.0102002,-0.000395991,-0.000308817,0,0,0,0,0.0432762,0.508944,-0.992407,34.0625,3,24784,48954744
183,2,-0.670623,-0.0764318,9.79301,0.0663638,-0.659278,0.990233,-0.00670634,-0.000775832,0.09793,1,5.86771e-05,-5.6995e-07,1.63136e-06,0.0117354,-0.00011399,0.000326272,0,0,0,0,0.0458013,0.509801,-0.986844,34.0625,3,24785,48954844
183,3,-0.670623,-0.0764318,9.79301,0.0663638,-0.659278,0.990233,-0.00670634,-0.000775832,0.09793,1,5.86771e-05,-5.6995e-07,1.63136e-06,0.0117354,-0.00011399,0.000326272,0,0,0,0,0.0458013,0.509801,-0.986844,34.0625,3,24785,48954844
183,4,-0.668384,-0.075173,9.7852,0.0645563,-0.657509,0.981066,-0.00668414,-0.000764588,0.0978519,1,6.45741e-05,-1.63168e-06,1.65014e-05,0.0129148,-0.000326337,0.00330029,0,0,0,0,0.0471797,0.512245,-0.987806,34.0625,3,24786,48954944
183,5,-0.668384,-0.075173,9.7852,0.0645563,-0.657509,0.981066,-0.00668414,-0.000764588,0.0978519,1,6.45741e-05,-1.63168e-06,1.65014e-05,0.0129148,-0.000326337,0.00330029,0,0,0,0,0.0471797,0.512245,-0.987806,34.0625,3,24786,48954944
183,6,-0.669991,-0.0731038,9.78523,0.0640584,-0.660295,0.977638,-0.00670234,-0.000740608,0.0978521,1,4.80488e-05,-1.24927e-05,1.23922e-05,0.00960977,-0.00249854,0.00247844,0,0,0,0,0.0479905,0.514757,-0.9923,34.0625,3,24787,48955044
184,1,-0.669991,-0.0731038,9.78523,0.0640584,-0.660295,0.977638,-0.00670234,-0.000740608,0.0978521,1,4.80488e-05,-1.24927e-05,1.23922e-05,0.00960977,-0.00249854,0.00247844,0,0,0,0,0.0479905,0.514757,-0.9923,34.0625,3,24787,48955044
184,2,-0.678903,-0.0879331,9.80111,0.0562225,-0.676167,0.994346,-0.00679167,-0.000890616,0.0980109,1,5.62016e-05,-1.36757e-05,1.97235e-05,0.0112403,-0.00273513,0.00394469,0,0,0,0,0.0463873,0.516332,-0.997813,34.0625,3,24788,48955144
184,3,-0.678903,-0.0879331,9.80111,0.0562225,-0.676167,0.994346,-0.00679167,-0.000890616,0.0980109,1,5.62016e-05,-1.36757e-05,1.97235e-05,0.0112403,-0.00273513,0.00394469,0,0,0,0,0.0463873,0.516332,-0.997813,34.0625,3,24788,48955144
184,4,-0.676119,-0.0742288,9.78763,0.0597278,-0.65926,0.981968,-0.00676319,-0.000750191,0.0978762,1,3.9339e-05,-1.03676e-05,1.4959e-05,0.0078678,-0.00207352,0.0029918,0,0,0,0,0.0455347,0.511923,-0.996392,34.0625,3,24789,48955244
184,5,-0.676119,-0.0742288,9.78763,0.0597278,-0.65926,0.981968,-0.00676319,-0.000750191,0.0978762,1,3.9339e-05,-1.03676e-05,1.4959e-05,0.0078678,-0.00207352,0.0029918,0,0,0,0,0.0455347,0.511923,-0.996392,34.0625,3,24789,48955244
184,6,-0.674071,-0.0745877,9.78932,0.0614645,-0.66074,0.983464,-0.00674191,-0.00075313,0.097893,1,3.62173e-05,-6.25284e-06,1.19768e-05,0.00724345,-0.00125057,0.00239536,0,0,0,0,0.0456694,0.508933,-0.992924,34.0625,3,24790,48955344
184,7,-0.674071,-0.0745877,9.78932,0.0614645,-0.66074,0.983464,-0.00674191,-0.00075313,0.097893,1,3.62173e-05,-6.25284e-06,1.19768e-05,0.00724345,-0.00125057,0.00239536,0,0,0,0,0.0456694,0.508933,-0.992924,34.0625,3,24790,48955344
184,8,-0.675873,-0.0683572,9.79006,0.0589935,-0.656782,0.987804,-0.0067593,-0.000693229,0.0979005,1,4.75961e-05,-3.08669e-06,2.49708e-05,0.00951921,-0.000617339,0.00499415,0,0,0,0,0.0457154,0.511309,-0.989336,34.0625,3,24791,48955444
184,9,-0.675873,-0.0683572,9.79006,0.0589935,-0.656782,0.987804,-0.0067593,-0.000693229,0.0979005,1,4.75961e-05,-3.08669e-06,2.49708e-05,0.00951921,-0.000617339,0.00499415,0,0,0,0,0.0457154,0.511309,-0.989336,34.0625,3,24791,48955444
184,10,-0.671448,-0.0725005,9.78965,0.0591249,-0.659066,0.983842,-0.00671425,-0.000732766,0.0978964,1,3.88864e-05,1.12339e-06,1.09469e-05,0.00777728,0.000224677,0.00218938,0,0,0,0,0.0466582,0.514688,-0.98775,34.0625,3,24792,48955544
185,1,-0.671448,-0.0725005,9.78965,0.0591249,-0.659066,0.983842,-0.00671425,-0.000732766,0.0978964,1,3.88864e-05,1.12339e-06,1.09469e-05,0.00777728,0.000224677,0.00218938,0,0,0,0,0.0466582,0.514688,-0.98775,34.0625,3,24792,48955544
185,2,-0.67747,-0.0701694,9.79277,0.0546994,-0.654614,0.987626,-0.00677619,-0.000710073,0.0979275,1,4.14736e-05,-7.70201e-06,1.88984e-05,0.00829472,-0.0015404,0.00377969,0,0,0,0,0.0494547,0.515694,-0.990771,34.0625,3,24793,48955644
185,3,-0.67747,-0.0701694,9.79277,0.0546994,-0.654614,0.987626,-0.00677619,-0.000710073,0.0979275,1,4.14736e-05,-7.70201e-06,1.88984e-05,0.00829472,-0.0015404,0.00377969,0,0,0,0,0.0494547,0.515694,-0.990771,34.0625,3,24793,48955644
185,4,-0.671045,-0.0719009,9.78525,0.0620851,-0.661794,0.977393,-0.00671294,-0.000729873,0.0978523,1,5.38955e-05,-1.29045e-05,2.35759e-05,0.0107791,-0.00258089,0.00471518,0,0,0,0,0.0479208,0.51529,-0.994813,34.0625,3,24794,48955744
185,5,-0.671045,-0.0719009,9.78525,0.0620851,-0.661794,0.977393,-0.00671294,-0.000729873,0.0978523,1,5.38955e-05,-1.29045e-05,2.35759e-05,0.0107791,-0.00258089,0.00471518,0,0,0,0,0.0479208,0.51529,-0.994813,34.0625,3,24794,48955744
185,6,-0.670703,-0.0710032,9.79339,0.0630133,-0.659097,0.98442,-0.00670855,-0.000720456,0.0979338,1,5.18652e-05,-7.88501e-06,1.97667e-05,0.010373,-0.001577,0.00395333,0,0,0,0,0.046077,0.510429,-0.994913,34.0625,3,24795,48955844
185,7,-0.670703,-0.0710032,9.79339,0.0630133,-0.659097,0.98442,-0.00670855,-0.000720456,0.0979338,1,5.18652e-05,-7.88501e-06,1.97667e-05,0.010373,-0.001577,0.00395333,0,0,0,0,0.046077,0.510429,-0.994913,34.0625,3,24795,48955844
185,8,-0.669626,-0.0771756,9.7896,0.0689741,-0.67442,0.989176,-0.00669821,-0.000780445,0.0978958,1,4.35095e-05,-1.00953e-05,1.27482e-05,0.0087019,-0.00201907,0.00254963,0,0,0,0,0.0437659,0.509898,-0.991378,34.0625,3,24796,48955944
185,9,-0.669626,-0.0771756,9.7896,0.0689741,-0.67442,0.989176,-0.00669821,-0.000780445,0.0978958,1,4.35095e-05,-1.00953e-05,1.27482e-05,0.0087019,-0.00201907,0.00254963,0,0,0,0,0.0437659,0.509898,-0.991378,34.0625,3,24796,48955944
185,10,-0.676531,-0.0726174,9.7863,0.0591413,-0.661804,0.981135,-0.00676575,-0.000732985,0.0978629,1,3.41237e-05,-2.29455e-06,9.80682e-06,0.00682474,-0.00045891,0.00196136,0,0,0,0,0.0438607,0.510792,-0.986813,34.0625,3,24797,48956044
186,1,-0.676531,-0.0726174,9.7863,0.0591413,-0.661804,0.981135,-0.00676575,-0.000732985,0.0978629,1,3.41237e-05,-2.29455e-06,9.80682e-06,0.00682474,-0.00045891,0.00196136,0,0,0,0,0.0438607,0.510792,-0.986813,34.0625,3,24797,48956044
186,2,-0.68279,-0.0691627,9.80096,0.0539436,-0.654778,0.992117,-0.00683027,-0.000700297,0.0980093,1,4.24479e-05,-1.22653e-05,2.55797e-05,0.00848957,-0.00245306,0.00511595,0,0,0,0,0.0457487,0.512248,-0.987295,34.0625,3,24798,48956144
186,3,-0.68279,-0.0691627,9.80096,0.0539436,-0.654778,0.992117,-0.00683027,-0.000700297,0.0980093,1,4.24479e-05,-1.22653e-05,2.55797e-05,0.00848957,-0.00245306,0.00511595,0,0,0,0,0.0457487,0.512248,-0.987295,34.0625,3,24798,48956144
186,4,-0.670138,-0.0799918,9.78959,0.0645175,-0.671076,0.980409,-0.00670479,-0.000807954,0.0978956,1,3.97471e-05,-1.75869e-05,1.90045e-05,0.00794943,-0.00351737,0.0038009,0,0,0,0,0.0470449,0.515235,-0.991275,34.0625,3,24799,48956244
186,5,-0.670138,-0.0799918,9.78959,0.0645175,-0.671076,0.980409,-0.00670479,-0.000807954,0.0978956,1,3.97471e-05,-1.75869e-05,1.90045e-05,0.00794943,-0.00351737,0.0038009,0,0,0,0,0.0470449,0.515235,-0.991275,34.0625,3,24799,48956244
186,6,-0.673399,-0.0677715,9.78836,0.0624623,-0.65754,0.977919,-0.00673497,-0.000685349,0.0978835,1,3.68452e-05,-5.20805e-06,3.12847e-05,0.00736904,-0.00104161,0.00625694,0,0,0,0,0.0469096,0.51678,-0.995785,34.0625,3,24800,48956344
186,7,-0.673399,-0.0677715,9.78836,0.0624623,-0.65754,0.977919,-0.00673497,-0.000685349,0.0978835,1,3.68452e-05,-5.20805e-06,3.12847e-05,0.00736904,-0.00104161,0.00625694,0,0,0,0,0.0469096,0.51678,-0.995785,34.0625,3,24800,48956344
