frame_id,imu_idx,accel_x,accel_y,accel_z,free_accel_x,free_accel_y,free_accel_z,delta_v_x,delta_v_y,delta_v_z,delta_q_w,delta_q_x,delta_q_y,delta_q_z,rate_x,rate_y,rate_z,quat_w,quat_x,quat_y,quat_z,mag_x,mag_y,mag_z,temperature,status_byte,packet_counter,time_fine
1,1,-0.697218,-0.0518003,9.79646,0.113446,-0.30862,1.11723,-0.00697389,-0.000524106,0.0979645,1,2.98527e-05,-8.80667e-06,1.81998e-05,0.00597053,-0.00176133,0.00363996,0,0,0,0,0.0130733,0.303493,-1.1135,33.1875,3,27233,29132737
1,2,-0.506968,-0.0592432,7.34283,0.113446,-0.30862,1.11723,-0.00507121,-0.000601976,0.0734281,1,6.33521e-05,-1.06081e-05,2.36819e-05,0.0126704,-0.00212162,0.00473639,0,0,0,0,0.0469613,0.52397,-0.988555,33.5625,1,3524,33316879
2,1,-0.506968,-0.0592432,7.34283,0.113446,-0.30862,1.11723,-0.00507121,-0.000601976,0.0734281,1,6.33521e-05,-1.06081e-05,2.36819e-05,0.0126704,-0.00212162,0.00473639,0,0,0,0,0.0469613,0.52397,-0.988555,33.5625,1,3524,33316879
2,2,-0.671449,-0.0816695,9.78168,0.093522,-0.510113,0.986379,-0.00671653,-0.000823321,0.0978166,1,3.2071e-05,-1.06803e-05,2.61572e-05,0.00641421,-0.00213606,0.00523143,0,0,0,0,0.0469898,0.522985,-0.988072,33.5625,1,3525,33316979
3,1,-0.671449,-0.0816695,9.78168,0.093522,-0.510113,0.986379,-0.00671653,-0.000823321,0.0978166,1,3.2071e-05,-1.06803e-05,2.61572e-05,0.00641421,-0.00213606,0.00523143,0,0,0,0,0.0469898,0.522985,-0.988072,33.5625,1,3525,33316979
3,2,-0.666429,-0.0793866,9.78472,0.0944579,-0.50437,0.988331,-0.00666458,-0.000803355,0.0978471,1,4.85927e-05,-1.47341e-06,-1.4733e-06,0.00971854,-0.000294683,-0.000294659,0,0,0,0,0.0465945,0.521481,-0.985578,33.5625,1,3526,33317079
4,1,-0.666429,-0.0793866,9.78472,0.0944579,-0.50437,0.988331,-0.00666458,-0.000803355,0.0978471,1,4.85927e-05,-1.47341e-06,-1.4733e-06,0.00971854,-0.000294683,-0.000294659,0,0,0,0,0.0465945,0.521481,-0.985578,33.5625,1,3526,33317079
4,2,-0.675237,-0.0750227,9.78346,0.0906344,-0.504815,0.988168,-0.0067546,-0.000760121,0.0978344,1,5.03585e-05,-1.14255e-05,3.02697e-06,0.0100717,-0.00228511,0.000605394,0,0,0,0,0.0476346,0.520452,-0.983081,33.5625,1,3527,33317179
7,1,-0.675237,-0.0750227,9.78346,0.0906344,-0.504815,0.988168,-0.0067546,-0.000760121,0.0978344,1,5.03585e-05,-1.14255e-05,3.02697e-06,0.0100717,-0.00228511,0.000605394,0,0,0,0,0.0476346,0.520452,-0.983081,33.5625,1,3527,33317179
7,2,-0.662534,-0.0730253,9.79188,0.101993,-0.501579,0.991581,-0.00662752,-0.000738842,0.0979186,1,4.30532e-05,-1.1202e-05,1.18854e-05,0.00861064,-0.00224041,0.00237707,0,0,0,0,0.0481081,0.522381,-0.98203,33.5625,1,3528,33317279
8,1,-0.662534,-0.0730253,9.79188,0.101993,-0.501579,0.991581,-0.00662752,-0.000738842,0.0979186,1,4.30532e-05,-1.1202e-05,1.18854e-05,0.00861064,-0.00224041,0.00237707,0,0,0,0,0.0481081,0.522381,-0.98203,33.5625,1,3528,33317279
8,2,-0.676748,-0.0814447,9.79767,0.0887478,-0.510678,0.996264,-0.00676893,-0.000822616,0.0979765,1,4.12968e-05,-7.45206e-06,5.62504e-06,0.00825936,-0.00149041,0.00112501,0,0,0,0,0.0480673,0.523375,-0.983018,33.5625,1,3529,33317379
9,1,-0.676748,-0.0814447,9.79767,0.0887478,-0.510678,0.996264,-0.00676893,-0.000822616,0.0979765,1,4.12968e-05,-7.45206e-06,5.62504e-06,0.00825936,-0.00149041,0.00112501,0,0,0,0,0.0480673,0.523375,-0.983018,33.5625,1,3529,33317379
9,2,-0.67527,-0.0663993,9.79473,0.0849052,-0.497553,0.993868,-0.00675354,-0.000671301,0.0979472,1,3.65302e-05,-4.36228e-06,1.1297e-05,0.00730604,-0.000872456,0.0022594,0,0,0,0,0.048454,0.523922,-0.986543,33.5625,1,3530,33317479
10,1,-0.67527,-0.0663993,9.79473,0.0849052,-0.497553,0.993868,-0.00675354,-0.000671301,0.0979472,1,3.65302e-05,-4.36228e-06,1.1297e-05,0.00730604,-0.000872456,0.0022594,0,0,0,0,0.048454,0.523922,-0.986543,33.5625,1,3530,33317479
10,2,-0.680262,-0.0811713,9.78514,0.0821806,-0.515694,0.986059,-0.00680343,-0.000822956,0.0978512,1,5.533e-05,-4.3957e-06,3.04727e-05,0.011066,-0.000879141,0.00609454,0,0,0,0,0.0474832,0.522972,-0.987569,33.5625,1,3531,33317579
11,1,-0.680262,-0.0811713,9.78514,0.0821806,-0.515694,0.986059,-0.00680343,-0.000822956,0.0978512,1,5.533e-05,-4.3957e-06,3.04727e-05,0.011066,-0.000879141,0.00609454,0,0,0,0,0.0474832,0.522972,-0.987569,33.5625,1,3531,33317579
11,2,-0.672554,-0.0786749,9.78239,0.0880732,-0.515141,0.985688,-0.00672666,-0.000798262,0.0978237,1,5.80064e-05,-5.83017e-06,1.22099e-05,0.0116013,-0.00116603,0.00244198,0,0,0,0,0.0451308,0.52199,-0.986065,33.5625,1,3532,33317679
12,1,-0.672554,-0.0786749,9.78239,0.0880732,-0.515141,0.985688,-0.00672666,-0.000798262,0.0978237,1,5.80064e-05,-5.83017e-06,1.22099e-05,0.0116013,-0.00116603,0.00244198,0,0,0,0,0.0451308,0.52199,-0.986065,33.5625,1,3532,33317679
12,2,-0.680815,-0.0809327,9.78821,0.0820595,-0.517409,0.989117,-0.00681059,-0.000819743,0.0978818,1,5.20238e-05,-1.25955e-05,1.7013e-05,0.0104048,-0.00251909,0.0034026,0,0,0,0,0.0456859,0.521932,-0.983039,33.5625,1,3533,33317779
10,1,-0.680815,-0.0809327,9.78821,0.0820595,-0.517409,0.989117,-0.00681059,-0.000819743,0.0978818,1,5.20238e-05,-1.25955e-05,1.7013e-05,0.0104048,-0.00251909,0.0034026,0,0,0,0,0.0456859,0.521932,-0.983039,33.5625,1,3533,33317779
10,2,-0.677631,-0.0673271,9.79135,0.0865587,-0.500468,0.991196,-0.00677772,-0.00068082,0.0979133,1,3.73907e-05,-7.28856e-06,1.66819e-05,0.00747814,-0.00145771,0.00333638,0,0,0,0,0.046669,0.522872,-0.981507,33.5625,1,3534,33317879
14,1,-0.677631,-0.0673271,9.79135,0.0865587,-0.500468,0.991196,-0.00677772,-0.00068082,0.0979133,1,3.73907e-05,-7.28856e-06,1.66819e-05,0.00747814,-0.00145771,0.00333638,0,0,0,0,0.046669,0.522872,-0.981507,33.5625,1,3534,33317879
14,2,-0.683312,-0.0805106,9.795,0.0807076,-0.519292,0.992904,-0.00683394,-0.000811779,0.0979499,1,3.28458e-05,-4.33076e-06,1.74549e-05,0.00656917,-0.000866153,0.00349098,0,0,0,0,0.0485403,0.523859,-0.983009,33.5625,1,3535,33317979
15,1,-0.683312,-0.0805106,9.795,0.0807076,-0.519292,0.992904,-0.00683394,-0.000811779,0.0979499,1,3.28458e-05,-4.33076e-06,1.74549e-05,0.00656917,-0.000866153,0.00349098,0,0,0,0,0.0485403,0.523859,-0.983009,33.5625,1,3535,33317979
15,2,-0.678215,-0.0742461,9.79265,0.0825036,-0.517883,0.989693,-0.00678516,-0.000749956,0.0979262,1,3.64127e-05,-1.55811e-05,2.67608e-05,0.00728253,-0.00311622,0.00535217,0,0,0,0,0.0479729,0.523926,-0.98654,33.5625,1,3536,33318079
16,1,-0.678215,-0.0742461,9.79265,0.0825036,-0.517883,0.989693,-0.00678516,-0.000749956,0.0979262,1,3.64127e-05,-1.55811e-05,2.67608e-05,0.00728253,-0.00311622,0.00535217,0,0,0,0,0.0479729,0.523926,-0.98654,33.5625,1,3536,33318079
16,2,-0.664244,-0.0808073,9.78437,0.0976402,-0.521342,0.982729,-0.00664603,-0.000815998,0.0978433,1,3.88937e-05,-1.85407e-05,2.36224e-05,0.00777874,-0.00370814,0.00472448,0,0,0,0,0.0475155,0.521021,-0.987613,33.5625,1,3537,33318179
17,1,-0.664244,-0.0808073,9.78437,0.0976402,-0.521342,0.982729,-0.00664603,-0.000815998,0.0978433,1,3.88937e-05,-1.85407e-05,2.36224e-05,0.00777874,-0.00370814,0.00472448,0,0,0,0,0.0475155,0.521021,-0.987613,33.5625,1,3537,33318179
17,2,-0.672915,-0.0773423,9.79258,0.0861504,-0.52226,0.997273,-0.0067285,-0.000785388,0.0979258,1,5.94704e-05,3.10547e-06,2.36409e-05,0.0118941,0.000621094,0.00472818,0,0,0,0,0.0456893,0.51952,-0.984608,33.5625,1,3538,33318279
18,1,-0.672915,-0.0773423,9.79258,0.0861504,-0.52226,0.997273,-0.0067285,-0.000785388,0.0979258,1,5.94704e-05,3.10547e-06,2.36409e-05,0.0118941,0.000621094,0.00472818,0,0,0,0,0.0456893,0.51952,-0.984608,33.5625,1,3538,33318279
18,2,-0.68115,-0.0812983,9.78956,0.0793547,-0.518725,0.987374,-0.00681329,-0.000821962,0.0978954,1,4.40109e-05,-9.39677e-06,2.65443e-05,0.00880218,-0.00187935,0.00530886,0,0,0,0,0.0457552,0.519954,-0.981568,33.5625,1,3539,33318379
19,1,-0.68115,-0.0812983,9.78956,0.0793547,-0.518725,0.987374,-0.00681329,-0.000821962,0.0978954,1,4.40109e-05,-9.39677e-06,2.65443e-05,0.00880218,-0.00187935,0.00530886,0,0,0,0,0.0457552,0.519954,-0.981568,33.5625,1,3539,33318379
19,2,-0.668811,-0.0771509,9.78306,0.0950404,-0.518602,0.979998,-0.00668762,-0.00077862,0.0978305,1,3.54108e-05,2.41417e-06,1.36381e-05,0.00708216,0.000482833,0.00272762,0,0,0,0,0.0480834,0.522399,-0.983039,33.5625,1,3540,33318479
20,1,-0.668811,-0.0771509,9.78306,0.0950404,-0.518602,0.979998,-0.00668762,-0.00077862,0.0978305,1,3.54108e-05,2.41417e-06,1.36381e-05,0.00708216,0.000482833,0.00272762,0,0,0,0,0.0480834,0.522399,-0.983039,33.5625,1,3540,33318479
20,2,-0.68311,-0.0718907,9.79405,0.0820982,-0.513767,0.992972,-0.00683045,-0.000726365,0.0979405,1,3.73833e-05,3.26328e-06,9.8869e-06,0.00747666,0.000652656,0.00197738,0,0,0,0,0.0490006,0.522906,-0.984548,33.5625,1,3541,33318579
21,1,-0.68311,-0.0718907,9.79405,0.0820982,-0.513767,0.992972,-0.00683045,-0.000726365,0.0979405,1,3.73833e-05,3.26328e-06,9.8869e-06,0.00747666,0.000652656,0.00197738,0,0,0,0,0.0490006,0.522906,-0.984548,33.5625,1,3541,33318579
21,2,-0.670723,-0.0848316,9.7786,0.0904966,-0.527903,0.976422,-0.00670934,-0.000858454,0.0977858,1,4.97587e-05,-1.1066e-05,3.03611e-05,0.00995174,-0.00221321,0.00607222,0,0,0,0,0.0485067,0.521474,-0.986092,33.5625,1,3542,33318679
22,1,-0.670723,-0.0848316,9.7786,0.0904966,-0.527903,0.976422,-0.00670934,-0.000858454,0.0977858,1,4.97587e-05,-1.1066e-05,3.03611e-05,0.00995174,-0.00221321,0.00607222,0,0,0,0,0.0485067,0.521474,-0.986092,33.5625,1,3542,33318679
22,2,-0.680658,-0.0803242,9.79057,0.0804509,-0.524298,0.992847,-0.00680712,-0.000812662,0.0979056,1,4.77359e-05,-2.79946e-06,5.39621e-06,0.00954717,-0.000559891,0.00107924,0,0,0,0,0.0475482,0.520516,-0.986614,33.5625,1,3543,33318779
23,1,-0.680658,-0.0803242,9.79057,0.0804509,-0.524298,0.992847,-0.00680712,-0.000812662,0.0979056,1,4.77359e-05,-2.79946e-06,5.39621e-06,0.00954717,-0.000559891,0.00107924,0,0,0,0,0.0475482,0.520516,-0.986614,33.5625,1,3543,33318779
23,2,-0.669284,-0.0760673,9.79054,0.0942756,-0.520356,0.987839,-0.00669569,-0.000769439,0.0979052,1,4.36791e-05,-1.4683e-05,1.58623e-05,0.00873582,-0.00293661,0.00317245,0,0,0,0,0.0471122,0.520005,-0.985108,33.5625,1,3544,33318879
24,1,-0.669284,-0.0760673,9.79054,0.0942756,-0.520356,0.987839,-0.00669569,-0.000769439,0.0979052,1,4.36791e-05,-1.4683e-05,1.58623e-05,0.00873582,-0.00293661,0.00317245,0,0,0,0,0.0471122,0.520005,-0.985108,33.5625,1,3544,33318879
24,2,-0.681086,-0.0820693,9.80245,0.0824361,-0.526153,1.00549,-0.00681269,-0.000828778,0.0980242,1,4.04623e-05,-9.4213e-06,1.11794e-05,0.00809246,-0.00188426,0.00223588,0,0,0,0,0.0481523,0.518976,-0.982611,33.5625,1,3545,33318979
25,1,-0.681086,-0.0820693,9.80245,0.0824361,-0.526153,1.00549,-0.00681269,-0.000828778,0.0980242,1,4.04623e-05,-9.4213e-06,1.11794e-05,0.00809246,-0.00188426,0.00223588,0,0,0,0,0.0481523,0.518976,-0.982611,33.5625,1,3545,33318979
25,2,-0.665516,-0.0727394,9.79053,0.0973966,-0.519325,0.986611,-0.00665424,-0.000734713,0.0979053,1,3.6994e-05,4.638e-06,5.63471e-06,0.00739879,0.0009276,0.00112694,0,0,0,0,0.0495757,0.520906,-0.982069,33.5625,1,3546,33319079
26,1,-0.665516,-0.0727394,9.79053,0.0973966,-0.519325,0.986611,-0.00665424,-0.000734713,0.0979053,1,3.6994e-05,4.638e-06,5.63471e-06,0.00739879,0.0009276,0.00112694,0,0,0,0,0.0495757,0.520906,-0.982069,33.5625,1,3546,33319079
26,2,-0.679066,-0.0881602,9.7905,0.0799534,-0.536948,0.984481,-0.00679499,-0.000889942,0.0979047,1,4.20007e-05,-2.21804e-05,8.53863e-06,0.00840015,-0.00443607,0.00170773,0,0,0,0,0.051427,0.523835,-0.983023,33.5625,1,3547,33319179
27,1,-0.679066,-0.0881602,9.7905,0.0799534,-0.536948,0.984481,-0.00679499,-0.000889942,0.0979047,1,4.20007e-05,-2.21804e-05,8.53863e-06,0.00840015,-0.00443607,0.00170773,0,0,0,0,0.051427,0.523835,-0.983023,33.5625,1,3547,33319179
27,2,-0.670735,-0.0780385,9.78985,0.0923244,-0.530069,0.986634,-0.00670958,-0.000792141,0.0978983,1,5.92097e-05,-1.14927e-05,1.20906e-05,0.0118419,-0.00229854,0.00241812,0,0,0,0,0.0503376,0.5249,-0.98754,33.5625,1,3548,33319279
28,1,-0.670735,-0.0780385,9.78985,0.0923244,-0.530069,0.986634,-0.00670958,-0.000792141,0.0978983,1,5.92097e-05,-1.14927e-05,1.20906e-05,0.0118419,-0.00229854,0.00241812,0,0,0,0,0.0503376,0.5249,-0.98754,33.5625,1,3548,33319279
28,2,-0.673456,-0.0716869,9.79061,0.0798546,-0.528895,0.989928,-0.00673629,-0.000727274,0.0979059,1,5.13961e-05,-9.01688e-06,2.53783e-05,0.0102792,-0.00180338,0.00507565,0,0,0,0,0.0479805,0.521993,-0.987593,33.5625,1,3549,33319379
29,1,-0.673456,-0.0716869,9.79061,0.0798546,-0.528895,0.989928,-0.00673629,-0.000727274,0.0979059,1,5.13961e-05,-9.01688e-06,2.53783e-05,0.0102792,-0.00180338,0.00507565,0,0,0,0,0.0479805,0.521993,-0.987593,33.5625,1,3549,33319379
29,2,-0.675581,-0.074991,9.79363,0.0809693,-0.532159,0.995846,-0.00675595,-0.000757778,0.0979363,1,3.89237e-05,-8.13985e-07,1.80267e-05,0.00778473,-0.000162797,0.00360535,0,0,0,0,0.0456774,0.520974,-0.98407,33.5625,1,3550,33319479
30,1,-0.675581,-0.074991,9.79363,0.0809693,-0.532159,0.995846,-0.00675595,-0.000757778,0.0979363,1,3.89237e-05,-8.13985e-07,1.80267e-05,0.00778473,-0.000162797,0.00360535,0,0,0,0,0.0456774,0.520974,-0.98407,33.5625,1,3550,33319479
30,2,-0.678534,-0.081567,9.79496,0.0810982,-0.535995,0.998418,-0.00678753,-0.000826895,0.0979493,1,5.64157e-05,-1.12652e-05,1.27539e-05,0.0112831,-0.00225303,0.00255079,0,0,0,0,0.0461955,0.520943,-0.982558,33.5625,1,3551,33319579
31,1,-0.678534,-0.081567,9.79496,0.0810982,-0.535995,0.998418,-0.00678753,-0.000826895,0.0979493,1,5.64157e-05,-1.12652e-05,1.27539e-05,0.0112831,-0.00225303,0.00255079,0,0,0,0,0.0461955,0.520943,-0.982558,33.5625,1,3551,33319579
31,2,-0.670487,-0.071596,9.78312,0.0924677,-0.523049,0.980169,-0.00670704,-0.000724348,0.097831,1,4.14475e-05,-1.12409e-05,2.08078e-05,0.0082895,-0.00224819,0.00416155,0,0,0,0,0.0471909,0.521875,-0.980522,33.5625,1,3552,33319679
32,1,-0.670487,-0.071596,9.78312,0.0924677,-0.523049,0.980169,-0.00670704,-0.000724348,0.097831,1,4.14475e-05,-1.12409e-05,2.08078e-05,0.0082895,-0.00224819,0.00416155,0,0,0,0,0.0471909,0.521875,-0.980522,33.5625,1,3552,33319679
32,2,-0.675141,-0.0755118,9.78889,0.0824934,-0.529931,0.98336,-0.00675336,-0.000763842,0.0978887,1,4.38206e-05,-1.0047e-05,1.0671e-05,0.00876413,-0.00200941,0.0021342,0,0,0,0,0.049058,0.522382,-0.982539,33.5625,1,3553,33319779
33,1,-0.675141,-0.0755118,9.78889,0.0824934,-0.529931,0.98336,-0.00675336,-0.000763842,0.0978887,1,4.38206e-05,-1.0047e-05,1.0671e-05,0.00876413,-0.00200941,0.0021342,0,0,0,0,0.049058,0.522382,-0.982539,33.5625,1,3553,33319779
33,2,-0.678101,-0.0765469,9.78416,0.0783284,-0.534065,0.977685,-0.00678486,-0.000773698,0.0978413,1,4.16394e-05,-1.97535e-05,6.02725e-06,0.00832788,-0.00395071,0.00120545,0,0,0,0,0.04889,0.524433,-0.988048,33.5625,1,3554,33319879
34,1,-0.678101,-0.0765469,9.78416,0.0783284,-0.534065,0.977685,-0.00678486,-0.000773698,0.0978413,1,4.16394e-05,-1.97535e-05,6.02725e-06,0.00832788,-0.00395071,0.00120545,0,0,0,0,0.04889,0.524433,-0.988048,33.5625,1,3554,33319879
34,2,-0.68676,-0.0693324,9.79275,0.0692305,-0.529858,0.992565,-0.00686989,-0.000703605,0.0979272,1,5.14537e-05,-1.17939e-05,1.48119e-05,0.0102908,-0.00235877,0.00296239,0,0,0,0,0.0475198,0.5215,-0.987097,33.5625,1,3555,33319979
35,1,-0.68676,-0.0693324,9.79275,0.0692305,-0.529858,0.992565,-0.00686989,-0.000703605,0.0979272,1,5.14537e-05,-1.17939e-05,1.48119e-05,0.0102908,-0.00235877,0.00296239,0,0,0,0,0.0475198,0.5215,-0.987097,33.5625,1,3555,33319979
35,2,-0.66534,-0.081394,9.78978,0.0937479,-0.543865,0.990392,-0.00665485,-0.000819872,0.0978977,1,2.92005e-05,-7.51222e-06,1.61214e-05,0.00584011,-0.00150244,0.00322428,0,0,0,0,0.0461989,0.518531,-0.984127,33.5625,1,3556,33320079
36,1,-0.66534,-0.081394,9.78978,0.0937479,-0.543865,0.990392,-0.00665485,-0.000819872,0.0978977,1,2.92005e-05,-7.51222e-06,1.61214e-05,0.00584011,-0.00150244,0.00322428,0,0,0,0,0.0461989,0.518531,-0.984127,33.5625,1,3556,33320079
36,2,-0.676755,-0.0782263,9.79702,0.0789506,-0.535197,0.997422,-0.00676911,-0.000792011,0.09797,1,4.88981e-05,-8.07674e-06,1.2297e-05,0.00977963,-0.00161535,0.00245939,0,0,0,0,0.0462325,0.520916,-0.981044,33.5625,1,3557,33320179
38,1,-0.676755,-0.0782263,9.79702,0.0789506,-0.535197,0.997422,-0.00676911,-0.000792011,0.09797,1,4.88981e-05,-8.07674e-06,1.2297e-05,0.00977963,-0.00161535,0.00245939,0,0,0,0,0.0462325,0.520916,-0.981044,33.5625,1,3557,33320179
38,2,-0.680194,-0.0871717,9.7878,0.0787242,-0.548504,0.983752,-0.00680383,-0.000880428,0.0978778,1,4.40031e-05,-9.70812e-06,7.15449e-06,0.00880062,-0.00194162,0.0014309,0,0,0,0,0.0471544,0.523347,-0.980994,33.5625,1,3558,33320279
39,1,-0.680194,-0.0871717,9.7878,0.0787242,-0.548504,0.983752,-0.00680383,-0.000880428,0.0978778,1,4.40031e-05,-9.70812e-06,7.15449e-06,0.00880062,-0.00194162,0.0014309,0,0,0,0,0.0471544,0.523347,-0.980994,33.5625,1,3558,33320279
39,2,-0.677875,-0.074631,9.78858,0.0813888,-0.537361,0.98169,-0.0067816,-0.00075771,0.0978855,1,5.7498e-05,-1.46457e-05,1.05931e-05,0.0114996,-0.00292913,0.00211861,0,0,0,0,0.047627,0.522385,-0.982027,33.5625,1,3559,33320379
40,1,-0.677875,-0.074631,9.78858,0.0813888,-0.537361,0.98169,-0.0067816,-0.00075771,0.0978855,1,5.7498e-05,-1.46457e-05,1.05931e-05,0.0114996,-0.00292913,0.00211861,0,0,0,0,0.047627,0.522385,-0.982027,33.5625,1,3559,33320379
40,2,-0.6726,-0.0795556,9.80004,0.0884412,-0.551691,0.998465,-0.0067289,-0.000806196,0.0980001,1,5.39347e-05,-1.4812e-05,5.12961e-06,0.0107869,-0.00296239,0.00102592,0,0,0,0,0.0480464,0.522427,-0.984554,33.5625,1,3560,33320479
41,1,-0.6726,-0.0795556,9.80004,0.0884412,-0.551691,0.998465,-0.0067289,-0.000806196,0.0980001,1,5.39347e-05,-1.4812e-05,5.12961e-06,0.0107869,-0.00296239,0.00102592,0,0,0,0,0.0480464,0.522427,-0.984554,33.5625,1,3560,33320479
41,2,-0.682614,-0.0762814,9.79334,0.0774583,-0.542085,0.987034,-0.00682668,-0.000771788,0.0979333,1,4.50705e-05,-2.84597e-06,1.07229e-05,0.0090141,-0.000569193,0.00214458,0,0,0,0,0.0480094,0.522454,-0.986068,33.5625,1,3561,33320579
42,1,-0.682614,-0.0762814,9.79334,0.0774583,-0.542085,0.987034,-0.00682668,-0.000771788,0.0979333,1,4.50705e-05,-2.84597e-06,1.07229e-05,0.0090141,-0.000569193,0.00214458,0,0,0,0,0.0480094,0.522454,-0.986068,33.5625,1,3561,33320579
42,2,-0.666035,-0.0743638,9.78747,0.0889306,-0.545074,0.98518,-0.00666184,-0.000753201,0.0978746,1,4.79538e-05,-7.68718e-06,1.32173e-05,0.00959076,-0.00153744,0.00264345,0,0,0,0,0.0470757,0.521477,-0.985581,33.5625,1,3562,33320679
43,1,-0.666035,-0.0743638,9.78747,0.0889306,-0.545074,0.98518,-0.00666184,-0.000753201,0.0978746,1,4.79538e-05,-7.68718e-06,1.32173e-05,0.00959076,-0.00153744,0.00264345,0,0,0,0,0.0470757,0.521477,-0.985581,33.5625,1,3562,33320679
43,2,-0.668953,-0.0727247,9.79193,0.0849564,-0.539032,0.991274,-0.00669239,-0.000734584,0.097919,1,3.56251e-05,-1.47875e-05,2.68574e-05,0.00712502,-0.00295749,0.00537147,0,0,0,0,0.0457229,0.521905,-0.981524,33.5625,1,3563,33320779
44,1,-0.668953,-0.0727247,9.79193,0.0849564,-0.539032,0.991274,-0.00669239,-0.000734584,0.097919,1,3.56251e-05,-1.47875e-05,2.68574e-05,0.00712502,-0.00295749,0.00537147,0,0,0,0,0.0457229,0.521905,-0.981524,33.5625,1,3563,33320779
44,2,-0.677442,-0.0757957,9.79196,0.0808261,-0.546893,0.990001,-0.00677644,-0.000767785,0.0979193,1,4.90398e-05,-1.0442e-05,1.6538e-05,0.00980796,-0.00208841,0.00330761,0,0,0,0,0.0456906,0.523856,-0.981481,33.5625,1,3564,33320879
45,1,-0.677442,-0.0757957,9.79196,0.0808261,-0.546893,0.990001,-0.00677644,-0.000767785,0.0979193,1,4.90398e-05,-1.0442e-05,1.6538e-05,0.00980796,-0.00208841,0.00330761,0,0,0,0,0.0456906,0.523856,-0.981481,33.5625,1,3564,33320879
45,2,-0.673034,-0.0790561,9.79529,0.0851554,-0.549289,0.986624,-0.00673328,-0.000797051,0.0979526,1,3.1786e-05,-1.51843e-05,1.95728e-05,0.00635719,-0.00303685,0.00391456,0,0,0,0,0.0479814,0.524883,-0.985509,33.5625,1,3565,33320979
46,1,-0.673034,-0.0790561,9.79529,0.0851554,-0.549289,0.986624,-0.00673328,-0.000797051,0.0979526,1,3.1786e-05,-1.51843e-05,1.95728e-05,0.00635719,-0.00303685,0.00391456,0,0,0,0,0.0479814,0.524883,-0.985509,33.5625,1,3565,33320979
46,2,-0.684586,-0.0822987,9.78788,0.0769346,-0.551828,0.984228,-0.00684864,-0.000834336,0.0978785,1,5.64624e-05,-1.43777e-05,2.16494e-05,0.0112925,-0.00287554,0.00432989,0,0,0,0,0.0474343,0.524454,-0.988546,33.5625,1,3566,33321079
47,1,-0.684586,-0.0822987,9.78788,0.0769346,-0.551828,0.984228,-0.00684864,-0.000834336,0.0978785,1,5.64624e-05,-1.43777e-05,2.16494e-05,0.0112925,-0.00287554,0.00432989,0,0,0,0,0.0474343,0.524454,-0.988546,33.5625,1,3566,33321079
47,2,-0.673365,-0.0761998,9.79226,0.0821733,-0.554881,0.99314,-0.00673671,-0.000770124,0.0979224,1,4.05498e-05,-1.57393e-05,1.37462e-05,0.00810997,-0.00314785,0.00274925,0,0,0,0,0.0465409,0.521038,-0.988113,33.5625,1,3567,33321179
48,1,-0.673365,-0.0761998,9.79226,0.0821733,-0.554881,0.99314,-0.00673671,-0.000770124,0.0979224,1,4.05498e-05,-1.57393e-05,1.37462e-05,0.00810997,-0.00314785,0.00274925,0,0,0,0,0.0465409,0.521038,-0.988113,33.5625,1,3567,33321179
48,2,-0.667746,-0.0757927,9.79493,0.0889516,-0.549683,0.99263,-0.00667769,-0.000766177,0.0979492,1,4.09427e-05,-1.29486e-06,1.71923e-05,0.00818855,-0.000258972,0.00343847,0,0,0,0,0.0461661,0.519037,-0.985125,33.5625,1,3568,33321279
49,1,-0.667746,-0.0757927,9.79493,0.0889516,-0.549683,0.99263,-0.00667769,-0.000766177,0.0979492,1,4.09427e-05,-1.29486e-06,1.71923e-05,0.00818855,-0.000258972,0.00343847,0,0,0,0,0.0461661,0.519037,-0.985125,33.5625,1,3568,33321279
49,2,-0.666473,-0.0798184,9.78505,0.0904812,-0.551257,0.985415,-0.00666462,-0.000806064,0.0978504,1,3.96501e-05,5.14396e-07,9.0359e-06,0.00793002,0.000102879,0.00180718,0,0,0,0,0.0476797,0.519938,-0.981577,33.5625,1,3569,33321379
50,1,-0.666473,-0.0798184,9.78505,0.0904812,-0.551257,0.985415,-0.00666462,-0.000806064,0.0978504,1,3.96501e-05,5.14396e-07,9.0359e-06,0.00793002,0.000102879,0.00180718,0,0,0,0,0.0476797,0.519938,-0.981577,33.5625,1,3569,33321379
50,2,-0.674187,-0.0714246,9.78824,0.0810375,-0.544146,0.987114,-0.00674401,-0.000722107,0.0978822,1,3.85306e-05,-1.11126e-05,2.35923e-05,0.00770612,-0.00222253,0.00471847,0,0,0,0,0.0485977,0.523335,-0.981001,33.5625,1,3570,33321479
51,1,-0.674187,-0.0714246,9.78824,0.0810375,-0.544146,0.987114,-0.00674401,-0.000722107,0.0978822,1,3.85306e-05,-1.11126e-05,2.35923e-05,0.00770612,-0.00222253,0.00471847,0,0,0,0,0.0485977,0.523335,-0.981001,33.5625,1,3570,33321479
51,2,-0.671476,-0.0716027,9.77974,0.0840004,-0.547167,0.972439,-0.00671738,-0.000724182,0.0977971,1,4.12242e-05,-1.34424e-05,6.80609e-06,0.00824483,-0.00268849,0.00136122,0,0,0,0,0.0485693,0.524319,-0.981484,33.5625,1,3571,33321579
52,1,-0.671476,-0.0716027,9.77974,0.0840004,-0.547167,0.972439,-0.00671738,-0.000724182,0.0977971,1,4.12242e-05,-1.34424e-05,6.80609e-06,0.00824483,-0.00268849,0.00136122,0,0,0,0,0.0485693,0.524319,-0.981484,33.5625,1,3571,33321579
52,2,-0.669759,-0.0764072,9.78206,0.0848304,-0.55624,0.976305,-0.00669978,-0.000772656,0.0978204,1,4.27253e-05,-1.12952e-05,1.67973e-05,0.00854507,-0.00225905,0.00335947,0,0,0,0,0.0484459,0.52441,-0.986532,33.5625,1,3572,33321679
53,1,-0.669759,-0.0764072,9.78206,0.0848304,-0.55624,0.976305,-0.00669978,-0.000772656,0.0978204,1,4.27253e-05,-1.12952e-05,1.67973e-05,0.00854507,-0.00225905,0.00335947,0,0,0,0,0.0484459,0.52441,-0.986532,33.5625,1,3572,33321679
53,2,-0.677616,-0.0737957,9.79536,0.0769095,-0.554935,0.991551,-0.00677633,-0.000746443,0.0979535,1,4.15183e-05,-1.08042e-06,2.60473e-05,0.00830367,-0.000216084,0.00520945,0,0,0,0,0.047479,0.522494,-0.988085,33.5625,1,3573,33321779
54,1,-0.677616,-0.0737957,9.79536,0.0769095,-0.554935,0.991551,-0.00677633,-0.000746443,0.0979535,1,4.15183e-05,-1.08042e-06,2.60473e-05,0.00830367,-0.000216084,0.00520945,0,0,0,0,0.047479,0.522494,-0.988085,33.5625,1,3573,33321779
54,2,-0.666621,-0.0800644,9.78201,0.0881065,-0.56074,0.980316,-0.00666879,-0.000811469,0.0978198,1,5.39348e-05,-1.33363e-05,2.04312e-05,0.010787,-0.00266727,0.00408623,0,0,0,0,0.0456323,0.521489,-0.985574,33.5625,1,3574,33321879
55,1,-0.666621,-0.0800644,9.78201,0.0881065,-0.56074,0.980316,-0.00666879,-0.000811469,0.0978198,1,5.39348e-05,-1.33363e-05,2.04312e-05,0.010787,-0.00266727,0.00408623,0,0,0,0,0.0456323,0.521489,-0.985574,33.5625,1,3574,33321879
55,2,-0.680658,-0.0784108,9.7994,0.0753573,-0.55514,0.997485,-0.00680576,-0.000792621,0.097994,1,4.29023e-05,4.11464e-06,7.74493e-06,0.00858046,0.000822929,0.00154899,0,0,0,0,0.0457149,0.522392,-0.981513,33.5625,1,3575,33321979
56,1,-0.680658,-0.0784108,9.7994,0.0753573,-0.55514,0.997485,-0.00680576,-0.000792621,0.097994,1,4.29023e-05,4.11464e-06,7.74493e-06,0.00858046,0.000822929,0.00154899,0,0,0,0,0.0457149,0.522392,-0.981513,33.5625,1,3575,33321979
56,2,-0.671254,-0.082781,9.79084,0.0848948,-0.561067,0.985769,-0.00671553,-0.000834571,0.0979081,1,3.39895e-05,-1.53576e-05,7.87697e-06,0.00679791,-0.00307151,0.00157539,0,0,0,0,0.0476151,0.52384,-0.98149,33.5625,1,3576,33322079
57,1,-0.671254,-0.082781,9.79084,0.0848948,-0.561067,0.985769,-0.00671553,-0.000834571,0.0979081,1,3.39895e-05,-1.53576e-05,7.87697e-06,0.00679791,-0.00307151,0.00157539,0,0,0,0,0.0476151,0.52384,-0.98149,33.5625,1,3576,33322079
57,2,-0.667036,-0.071556,9.78852,0.08603,-0.556387,0.981289,-0.00667243,-0.000724826,0.097885,1,4.6363e-05,-1.06993e-05,1.42512e-05,0.0092726,-0.00213986,0.00285024,0,0,0,0,0.0494736,0.52339,-0.984539,33.5625,1,3577,33322179
58,1,-0.667036,-0.071556,9.78852,0.08603,-0.556387,0.981289,-0.00667243,-0.000724826,0.097885,1,4.6363e-05,-1.06993e-05,1.42512e-05,0.0092726,-0.00213986,0.00285024,0,0,0,0,0.0494736,0.52339,-0.984539,33.5625,1,3577,33322179
58,2,-0.669319,-0.0676046,9.78924,0.086589,-0.549836,0.981959,-0.00669188,-0.000683158,0.0978924,1,3.54517e-05,6.61427e-06,1.2763e-05,0.00709034,0.00132285,0.0025526,0,0,0,0,0.0498845,0.522474,-0.988097,33.5625,1,3578,33322279
59,1,-0.669319,-0.0676046,9.78924,0.086589,-0.549836,0.981959,-0.00669188,-0.000683158,0.0978924,1,3.54517e-05,6.61427e-06,1.2763e-05,0.00709034,0.00132285,0.0025526,0,0,0,0,0.0498845,0.522474,-0.988097,33.5625,1,3578,33322279
59,2,-0.675088,-0.0792209,9.79259,0.0780987,-0.564431,0.990645,-0.00675313,-0.000802199,0.0979256,1,4.95762e-05,-1.16789e-05,2.07778e-05,0.00991523,-0.00233577,0.00415555,0,0,0,0,0.0489465,0.521018,-0.988125,33.5625,1,3579,33322379
60,1,-0.675088,-0.0792209,9.79259,0.0780987,-0.564431,0.990645,-0.00675313,-0.000802199,0.0979256,1,4.95762e-05,-1.16789e-05,2.07778e-05,0.00991523,-0.00233577,0.00415555,0,0,0,0,0.0489465,0.521018,-0.988125,33.5625,1,3579,33322379
60,2,-0.67435,-0.067258,9.78962,0.0801271,-0.55274,0.983955,-0.00674283,-0.000680975,0.0978962,1,4.18331e-05,3.33611e-06,1.51676e-05,0.00836662,0.000667222,0.00303352,0,0,0,0,0.0461623,0.520004,-0.984599,33.5625,1,3580,33322479
61,1,-0.67435,-0.067258,9.78962,0.0801271,-0.55274,0.983955,-0.00674283,-0.000680975,0.0978962,1,4.18331e-05,3.33611e-06,1.51676e-05,0.00836662,0.000667222,0.00303352,0,0,0,0,0.0461623,0.520004,-0.984599,33.5625,1,3580,33322479
61,2,-0.677217,-0.081672,9.79291,0.0779679,-0.566949,0.990054,-0.00677251,-0.000826338,0.097929,1,4.80283e-05,-1.8687e-06,1.56202e-05,0.00960566,-0.00037374,0.00312404,0,0,0,0,0.0467094,0.520433,-0.981562,33.5625,1,3581,33322579
62,1,-0.677217,-0.081672,9.79291,0.0779679,-0.566949,0.990054,-0.00677251,-0.000826338,0.097929,1,4.80283e-05,-1.8687e-06,1.56202e-05,0.00960566,-0.00037374,0.00312404,0,0,0,0,0.0467094,0.520433,-0.981562,33.5625,1,3581,33322579
62,2,-0.667677,-0.079669,9.79558,0.0885048,-0.566924,0.994284,-0.00667842,-0.000804244,0.0979556,1,3.69362e-05,-8.62023e-06,2.37954e-05,0.00738723,-0.00172405,0.00475909,0,0,0,0,0.0451891,0.524357,-0.981972,33.5625,1,3582,33322679
63,1,-0.667677,-0.079669,9.79558,0.0885048,-0.566924,0.994284,-0.00667842,-0.000804244,0.0979556,1,3.69362e-05,-8.62023e-06,2.37954e-05,0.00738723,-0.00172405,0.00475909,0,0,0,0,0.0451891,0.524357,-0.981972,33.5625,1,3582,33322679
63,2,-0.665424,-0.0783946,9.7837,0.0888269,-0.564043,0.978011,-0.00665354,-0.000792779,0.097837,1,4.3232e-05,3.36788e-06,2.80998e-05,0.00864641,0.000673576,0.00561995,0,0,0,0,0.044141,0.525873,-0.984459,33.5625,1,3583,33322779
64,1,-0.665424,-0.0783946,9.7837,0.0888269,-0.564043,0.978011,-0.00665354,-0.000792779,0.097837,1,4.3232e-05,3.36788e-06,2.80998e-05,0.00864641,0.000673576,0.00561995,0,0,0,0,0.044141,0.525873,-0.984459,33.5625,1,3583,33322779
64,2,-0.667025,-0.0962407,9.78764,0.0865379,-0.581045,0.979089,-0.00667489,-0.000970617,0.097876,1,4.0589e-05,-2.38548e-05,1.9826e-05,0.0081178,-0.00477095,0.0039652,0,0,0,0,0.0460152,0.523002,-0.988572,33.5625,1,3584,33322879
65,1,-0.667025,-0.0962407,9.78764,0.0865379,-0.581045,0.979089,-0.00667489,-0.000970617,0.097876,1,4.0589e-05,-2.38548e-05,1.9826e-05,0.0081178,-0.00477095,0.0039652,0,0,0,0,0.0460152,0.523002,-0.988572,33.5625,1,3584,33322879
65,2,-0.676081,-0.0813264,9.79223,0.0819938,-0.573696,0.98844,-0.00676283,-0.000821806,0.0979221,1,4.30104e-05,-1.03656e-05,8.78786e-06,0.00860207,-0.00207312,0.00175757,0,0,0,0,0.0484531,0.521031,-0.988627,33.5625,1,3585,33322979
66,1,-0.676081,-0.0813264,9.79223,0.0819938,-0.573696,0.98844,-0.00676283,-0.000821806,0.0979221,1,4.30104e-05,-1.03656e-05,8.78786e-06,0.00860207,-0.00207312,0.00175757,0,0,0,0,0.0484531,0.521031,-0.988627,33.5625,1,3585,33322979
66,2,-0.675509,-0.0838805,9.79593,0.077478,-0.574652,0.989824,-0.00675617,-0.000844404,0.0979592,1,2.83923e-05,-5.50223e-06,2.64891e-06,0.00567846,-0.00110045,0.000529781,0,0,0,0,0.0475568,0.521473,-0.985583,33.5625,1,3586,33323079
67,1,-0.675509,-0.0838805,9.79593,0.077478,-0.574652,0.989824,-0.00675617,-0.000844404,0.0979592,1,2.83923e-05,-5.50223e-06,2.64891e-06,0.00567846,-0.00110045,0.000529781,0,0,0,0,0.0475568,0.521473,-0.985583,33.5625,1,3586,33323079
67,2,-0.669246,-0.081717,9.79457,0.0873585,-0.573696,0.993724,-0.00669451,-0.000824764,0.0979454,1,3.74429e-05,-1.06267e-05,1.93564e-05,0.00748859,-0.00212534,0.00387128,0,0,0,0,0.0466686,0.521427,-0.982549,33.5625,1,3587,33323179
68,1,-0.669246,-0.081717,9.79457,0.0873585,-0.573696,0.993724,-0.00669451,-0.000824764,0.0979454,1,3.74429e-05,-1.06267e-05,1.93564e-05,0.00748859,-0.00212534,0.00387128,0,0,0,0,0.0466686,0.521427,-0.982549,33.5625,1,3587,33323179
68,2,-0.673526,-0.0770189,9.78682,0.0827011,-0.566342,0.986074,-0.00673582,-0.000775689,0.0978681,1,2.70493e-05,-2.99522e-06,1.52625e-05,0.00540987,-0.000599045,0.00305249,0,0,0,0,0.0466648,0.522394,-0.982023,33.5625,1,3588,33323279
69,1,-0.673526,-0.0770189,9.78682,0.0827011,-0.566342,0.986074,-0.00673582,-0.000775689,0.0978681,1,2.70493e-05,-2.99522e-06,1.52625e-05,0.00540987,-0.000599045,0.00305249,0,0,0,0,0.0466648,0.522394,-0.982023,33.5625,1,3588,33323279
69,2,-0.67173,-0.0808232,9.77864,0.0827078,-0.573016,0.972714,-0.00671966,-0.000816576,0.0977862,1,4.05667e-05,-1.23438e-05,3.05398e-05,0.00811333,-0.00246877,0.00610795,0,0,0,0,0.0485199,0.524356,-0.983503,33.5625,1,3589,33323379
70,1,-0.67173,-0.0808232,9.77864,0.0827078,-0.573016,0.972714,-0.00671966,-0.000816576,0.0977862,1,4.05667e-05,-1.23438e-05,3.05398e-05,0.00811333,-0.00246877,0.00610795,0,0,0,0,0.0485199,0.524356,-0.983503,33.5625,1,3589,33323379
70,2,-0.675842,-0.0780512,9.78853,0.0795586,-0.568481,0.984047,-0.00675931,-0.000786881,0.0978852,1,3.10988e-05,-4.68462e-06,2.07236e-05,0.00621976,-0.000936923,0.00414473,0,0,0,0,0.0489593,0.522455,-0.986578,33.5625,1,3590,33323479
71,1,-0.675842,-0.0780512,9.78853,0.0795586,-0.568481,0.984047,-0.00675931,-0.000786881,0.0978852,1,3.10988e-05,-4.68462e-06,2.07236e-05,0.00621976,-0.000936923,0.00414473,0,0,0,0,0.0489593,0.522455,-0.986578,33.5625,1,3590,33323479
71,2,-0.68881,-0.0842367,9.78991,0.0643274,-0.578888,0.988758,-0.00688868,-0.00084938,0.097899,1,3.45035e-05,-3.10135e-06,1.86881e-05,0.00690071,-0.000620271,0.00373762,0,0,0,0,0.0480455,0.519536,-0.986638,33.5625,1,3591,33323579
72,1,-0.68881,-0.0842367,9.78991,0.0643274,-0.578888,0.988758,-0.00688868,-0.00084938,0.097899,1,3.45035e-05,-3.10135e-06,1.86881e-05,0.00690071,-0.000620271,0.00373762,0,0,0,0,0.0480455,0.519536,-0.986638,33.5625,1,3591,33323579
72,2,-0.67369,-0.0740307,9.79297,0.0810772,-0.566672,0.98796,-0.00674049,-0.000750365,0.0979293,1,4.9148e-05,-1.8598e-05,3.21008e-05,0.0098296,-0.00371959,0.00642015,0,0,0,0,0.0476095,0.519025,-0.985132,33.5625,1,3592,33323679
73,1,-0.67369,-0.0740307,9.79297,0.0810772,-0.566672,0.98796,-0.00674049,-0.000750365,0.0979293,1,4.9148e-05,-1.8598e-05,3.21008e-05,0.0098296,-0.00371959,0.00642015,0,0,0,0,0.0476095,0.519025,-0.985132,33.5625,1,3592,33323679
73,2,-0.664944,-0.0770661,9.79185,0.0869917,-0.569583,0.985344,-0.00665102,-0.000780488,0.0979184,1,4.99599e-05,-8.11736e-06,3.21308e-06,0.00999198,-0.00162347,0.000642616,0,0,0,0,0.0467298,0.519937,-0.981068,33.5625,1,3593,33323779
74,1,-0.664944,-0.0770661,9.79185,0.0869917,-0.569583,0.985344,-0.00665102,-0.000780488,0.0979184,1,4.99599e-05,-8.11736e-06,3.21308e-06,0.00999198,-0.00162347,0.000642616,0,0,0,0,0.0467298,0.519937,-0.981068,33.5625,1,3593,33323779
74,2,-0.677237,-0.0788217,9.79429,0.0760866,-0.569514,0.989922,-0.00677238,-0.000799258,0.0979428,1,5.58179e-05,-9.31826e-08,7.9255e-06,0.0111636,-1.86365e-05,0.0015851,0,0,0,0,0.0471871,0.522841,-0.979995,33.5625,1,3594,33323879
75,1,-0.677237,-0.0788217,9.79429,0.0760866,-0.569514,0.989922,-0.00677238,-0.000799258,0.0979428,1,5.58179e-05,-9.31826e-08,7.9255e-06,0.0111636,-1.86365e-05,0.0015851,0,0,0,0,0.0471871,0.522841,-0.979995,33.5625,1,3594,33323879
75,2,-0.669139,-0.0797463,9.77693,0.0830225,-0.577325,0.969331,-0.00669308,-0.000806388,0.0977692,1,4.34406e-05,-8.92719e-06,3.21867e-05,0.00868812,-0.00178544,0.00643733,0,0,0,0,0.0480673,0.523375,-0.983018,33.5625,1,3595,33323979
76,1,-0.669139,-0.0797463,9.77693,0.0830225,-0.577325,0.969331,-0.00669308,-0.000806388,0.0977692,1,4.34406e-05,-8.92719e-06,3.21867e-05,0.00868812,-0.00178544,0.00643733,0,0,0,0,0.0480673,0.523375,-0.983018,33.5625,1,3595,33323979
76,2,-0.693311,-0.0828603,9.79063,0.0609772,-0.579431,0.986293,-0.00693156,-0.000836244,0.0979063,1,3.7495e-05,7.73196e-06,2.15285e-05,0.007499,0.00154639,0.00430571,0,0,0,0,0.0484497,0.523443,-0.987058,33.5625,1,3596,33324079
77,1,-0.693311,-0.0828603,9.79063,0.0609772,-0.579431,0.986293,-0.00693156,-0.000836244,0.0979063,1,3.7495e-05,7.73196e-06,2.15285e-05,0.007499,0.00154639,0.00430571,0,0,0,0,0.0484497,0.523443,-0.987058,33.5625,1,3596,33324079
77,2,-0.669429,-0.0736852,9.7953,0.08904,-0.569577,0.988155,-0.00669485,-0.000746716,0.0979529,1,4.96786e-05,-2.96542e-06,9.80314e-06,0.00993572,-0.000593084,0.00196063,0,0,0,0,0.0469936,0.522019,-0.988598,33.5625,1,3597,33324179
78,1,-0.669429,-0.0736852,9.7953,0.08904,-0.569577,0.988155,-0.00669485,-0.000746716,0.0979529,1,4.96786e-05,-2.96542e-06,9.80314e-06,0.00993572,-0.000593084,0.00196063,0,0,0,0,0.0469936,0.522019,-0.988598,33.5625,1,3597,33324179
78,2,-0.665684,-0.0698459,9.78582,0.0870936,-0.565769,0.977353,-0.00665978,-0.000707624,0.0978579,1,4.5916e-05,-1.51397e-05,1.34e-05,0.0091832,-0.00302794,0.00267999,0,0,0,0,0.0461215,0.520997,-0.985587,33.5625,1,3598,33324279
79,1,-0.665684,-0.0698459,9.78582,0.0870936,-0.565769,0.977353,-0.00665978,-0.000707624,0.0978579,1,4.5916e-05,-1.51397e-05,1.34e-05,0.0091832,-0.00302794,0.00267999,0,0,0,0,0.0461215,0.520997,-0.985587,33.5625,1,3598,33324279
79,2,-0.682152,-0.0848965,9.79123,0.0708136,-0.584353,0.986789,-0.00682441,-0.000854693,0.0979121,1,2.80813e-05,-1.48619e-05,1.68253e-05,0.00561626,-0.00297238,0.00336506,0,0,0,0,0.0481366,0.521397,-0.981547,33.5625,1,3599,33324379
80,1,-0.682152,-0.0848965,9.79123,0.0708136,-0.584353,0.986789,-0.00682441,-0.000854693,0.0979121,1,2.80813e-05,-1.48619e-05,1.68253e-05,0.00561626,-0.00297238,0.00336506,0,0,0,0,0.0481366,0.521397,-0.981547,33.5625,1,3599,33324379
80,2,-0.67647,-0.0765641,9.78855,0.0712252,-0.578594,0.983557,-0.00676688,-0.000774098,0.0978853,1,4.23566e-05,-1.12709e-05,1.22336e-05,0.00847132,-0.00225418,0.00244672,0,0,0,0,0.0480882,0.524323,-0.981481,33.5625,1,3600,33324479
81,1,-0.67647,-0.0765641,9.78855,0.0712252,-0.578594,0.983557,-0.00676688,-0.000774098,0.0978853,1,4.23566e-05,-1.12709e-05,1.22336e-05,0.00847132,-0.00225418,0.00244672,0,0,0,0,0.0480882,0.524323,-0.981481,33.5625,1,3600,33324479
81,2,-0.672196,-0.0761036,9.79123,0.0775973,-0.580627,0.984456,-0.00672212,-0.000771507,0.0979122,1,5.2249e-05,-9.75995e-07,1.78275e-05,0.0104498,-0.000195199,0.0035655,0,0,0,0,0.0484872,0.524861,-0.984502,33.5625,1,3601,33324579
82,1,-0.672196,-0.0761036,9.79123,0.0775973,-0.580627,0.984456,-0.00672212,-0.000771507,0.0979122,1,5.2249e-05,-9.75995e-07,1.78275e-05,0.0104498,-0.000195199,0.0035655,0,0,0,0,0.0484872,0.524861,-0.984502,33.5625,1,3601,33324579
82,2,-0.66548,-0.089895,9.7887,0.0898698,-0.590632,0.97935,-0.0066572,-0.000906339,0.0978868,1,3.70387e-05,-1.23495e-05,1.03468e-05,0.00740773,-0.00246991,0.00206935,0,0,0,0,0.0474998,0.523442,-0.986549,33.5625,1,3602,33324679
83,1,-0.66548,-0.089895,9.7887,0.0898698,-0.590632,0.97935,-0.0066572,-0.000906339,0.0978868,1,3.70387e-05,-1.23495e-05,1.03468e-05,0.00740773,-0.00246991,0.00206935,0,0,0,0,0.0474998,0.523442,-0.986549,33.5625,1,3602,33324679
83,2,-0.672717,-0.0808413,9.79052,0.0811242,-0.584545,0.98535,-0.00673028,-0.000818821,0.0979049,1,5.22398e-05,-1.59848e-05,1.33051e-05,0.010448,-0.00319697,0.00266101,0,0,0,0,0.0466311,0.520009,-0.985106,33.5625,1,3603,33324779
84,1,-0.672717,-0.0808413,9.79052,0.0811242,-0.584545,0.98535,-0.00673028,-0.000818821,0.0979049,1,5.22398e-05,-1.59848e-05,1.33051e-05,0.010448,-0.00319697,0.00266101,0,0,0,0,0.0466311,0.520009,-0.985106,33.5625,1,3603,33324779
84,2,-0.678135,-0.0690577,9.78999,0.0737048,-0.575643,0.986126,-0.00678377,-0.000699611,0.0978996,1,4.49253e-05,-1.25038e-05,1.75195e-05,0.00898507,-0.00250076,0.00350389,0,0,0,0,0.047182,0.519472,-0.982595,33.5625,1,3604,33324879
85,1,-0.678135,-0.0690577,9.78999,0.0737048,-0.575643,0.986126,-0.00678377,-0.000699611,0.0978996,1,4.49253e-05,-1.25038e-05,1.75195e-05,0.00898507,-0.00250076,0.00350389,0,0,0,0,0.047182,0.519472,-0.982595,33.5625,1,3604,33324879
85,2,-0.672426,-0.0775904,9.78105,0.0770009,-0.582988,0.976313,-0.0067269,-0.000787632,0.0978102,1,5.89434e-05,-1.36031e-05,1.46944e-05,0.0117887,-0.00272062,0.00293887,0,0,0,0,0.0477452,0.518926,-0.97958,33.5625,1,3605,33324979
86,1,-0.672426,-0.0775904,9.78105,0.0770009,-0.582988,0.976313,-0.0067269,-0.000787632,0.0978102,1,5.89434e-05,-1.36031e-05,1.46944e-05,0.0117887,-0.00272062,0.00293887,0,0,0,0,0.0477452,0.518926,-0.97958,33.5625,1,3605,33324979
86,2,-0.668764,-0.0794567,9.77728,0.081533,-0.587314,0.970614,-0.00668892,-0.000803406,0.0977726,1,4.37666e-05,-6.6944e-06,2.09938e-05,0.00875332,-0.00133888,0.00419876,0,0,0,0,0.0481736,0.52137,-0.980032,33.5625,1,3606,33325079
87,1,-0.668764,-0.0794567,9.77728,0.081533,-0.587314,0.970614,-0.00668892,-0.000803406,0.0977726,1,4.37666e-05,-6.6944e-06,2.09938e-05,0.00875332,-0.00133888,0.00419876,0,0,0,0,0.0481736,0.52137,-0.980032,33.5625,1,3606,33325079
87,2,-0.671884,-0.0753029,9.78649,0.0837873,-0.581742,0.976175,-0.00671811,-0.000761324,0.0978649,1,4.12744e-05,3.57284e-06,1.60875e-05,0.00825488,0.000714569,0.0032175,0,0,0,0,0.049959,0.523865,-0.984026,33.5625,1,3607,33325179
88,1,-0.671884,-0.0753029,9.78649,0.0837873,-0.581742,0.976175,-0.00671811,-0.000761324,0.0978649,1,4.12744e-05,3.57284e-06,1.60875e-05,0.00825488,0.000714569,0.0032175,0,0,0,0,0.049959,0.523865,-0.984026,33.5625,1,3607,33325179
88,2,-0.681652,-0.0776415,9.79467,0.0714643,-0.583676,0.987689,-0.0068176,-0.000784768,0.0979466,1,4.09781e-05,-5.67915e-06,2.38905e-05,0.00819562,-0.00113583,0.0047781,0,0,0,0,0.0483762,0.524943,-0.989045,33.5625,1,3608,33325279
89,1,-0.681652,-0.0776415,9.79467,0.0714643,-0.583676,0.987689,-0.0068176,-0.000784768,0.0979466,1,4.09781e-05,-5.67915e-06,2.38905e-05,0.00819562,-0.00113583,0.0047781,0,0,0,0,0.0483762,0.524943,-0.989045,33.5625,1,3608,33325279
89,2,-0.679561,-0.0749014,9.78519,0.067305,-0.583205,0.977533,-0.00679776,-0.000755964,0.0978517,1,3.41033e-05,-1.11237e-05,2.03399e-05,0.00682066,-0.00222474,0.00406799,0,0,0,0,0.0464963,0.522998,-0.988574,33.5625,1,3609,33325379
90,1,-0.679561,-0.0749014,9.78519,0.067305,-0.583205,0.977533,-0.00679776,-0.000755964,0.0978517,1,3.41033e-05,-1.11237e-05,2.03399e-05,0.00682066,-0.00222474,0.00406799,0,0,0,0,0.0464963,0.522998,-0.988574,33.5625,1,3609,33325379
90,2,-0.672138,-0.0762403,9.79293,0.0749327,-0.58468,0.987919,-0.00672345,-0.000770358,0.0979291,1,3.85266e-05,-1.08167e-05,3.03893e-05,0.00770533,-0.00216334,0.00607785,0,0,0,0,0.045685,0.519041,-0.985123,33.5625,1,3610,33325479
91,1,-0.672138,-0.0762403,9.79293,0.0749327,-0.58468,0.987919,-0.00672345,-0.000770358,0.0979291,1,3.85266e-05,-1.08167e-05,3.03893e-05,0.00770533,-0.00216334,0.00607785,0,0,0,0,0.045685,0.519041,-0.985123,33.5625,1,3610,33325479
91,2,-0.676439,-0.0766823,9.79974,0.0768583,-0.588109,0.993499,-0.00676622,-0.000775832,0.0979972,1,4.43589e-05,-9.53691e-06,2.32718e-05,0.00887178,-0.00190738,0.00465435,0,0,0,0,0.0477409,0.518447,-0.980095,33.5625,1,3611,33325579
92,1,-0.676439,-0.0766823,9.79974,0.0768583,-0.588109,0.993499,-0.00676622,-0.000775832,0.0979972,1,4.43589e-05,-9.53691e-06,2.32718e-05,0.00887178,-0.00190738,0.00465435,0,0,0,0,0.0477409,0.518447,-0.980095,33.5625,1,3611,33325579
92,2,-0.677978,-0.0641581,9.78697,0.072906,-0.574905,0.978856,-0.00678302,-0.000650888,0.0978694,1,4.55024e-05,-1.6749e-05,2.95139e-05,0.00910047,-0.0033498,0.00590277,0,0,0,0,0.0491278,0.52185,-0.980026,33.5625,1,3612,33325679
93,1,-0.677978,-0.0641581,9.78697,0.072906,-0.574905,0.978856,-0.00678302,-0.000650888,0.0978694,1,4.55024e-05,-1.6749e-05,2.95139e-05,0.00910047,-0.0033498,0.00590277,0,0,0,0,0.0491278,0.52185,-0.980026,33.5625,1,3612,33325679
93,2,-0.679108,-0.0851518,9.79766,0.070993,-0.594985,0.992404,-0.00679297,-0.000860235,0.0979763,1,4.27384e-05,-9.87372e-06,2.5237e-05,0.00854768,-0.00197474,0.0050474,0,0,0,0,0.0490257,0.524334,-0.982496,33.5625,1,3613,33325779
94,1,-0.679108,-0.0851518,9.79766,0.070993,-0.594985,0.992404,-0.00679297,-0.000860235,0.0979763,1,4.27384e-05,-9.87372e-06,2.5237e-05,0.00854768,-0.00197474,0.0050474,0,0,0,0,0.0490257,0.524334,-0.982496,33.5625,1,3613,33325779
94,2,-0.675379,-0.0717836,9.78147,0.0704063,-0.582266,0.972807,-0.00675909,-0.000724266,0.0978143,1,3.21531e-05,-2.71853e-05,1.03282e-05,0.00643061,-0.00543705,0.00206564,0,0,0,0,0.047496,0.524409,-0.986022,33.5625,1,3614,33325879
95,1,-0.675379,-0.0717836,9.78147,0.0704063,-0.582266,0.972807,-0.00675909,-0.000724266,0.0978143,1,3.21531e-05,-2.71853e-05,1.03282e-05,0.00643061,-0.00543705,0.00206564,0,0,0,0,0.047496,0.524409,-0.986022,33.5625,1,3614,33325879
95,2,-0.675326,-0.08148,9.79393,0.0715289,-0.595834,0.985704,-0.00675699,-0.000821878,0.097939,1,3.57088e-05,-1.91368e-05,6.20988e-06,0.00714177,-0.00382736,0.00124198,0,0,0,0,0.0470344,0.521025,-0.987611,33.5625,1,3615,33325979
96,1,-0.675326,-0.08148,9.79393,0.0715289,-0.595834,0.985704,-0.00675699,-0.000821878,0.097939,1,3.57088e-05,-1.91368e-05,6.20988e-06,0.00714177,-0.00382736,0.00124198,0,0,0,0,0.0470344,0.521025,-0.987611,33.5625,1,3615,33325979
96,2,-0.67816,-0.0836413,9.79019,0.0731779,-0.596204,0.985988,-0.0067847,-0.000847427,0.0979016,1,5.51529e-05,-1.59682e-05,1.58403e-05,0.0110306,-0.00319365,0.00316805,0,0,0,0,0.0456812,0.520008,-0.984597,33.5625,1,3616,33326079
97,1,-0.67816,-0.0836413,9.79019,0.0731779,-0.596204,0.985988,-0.0067847,-0.000847427,0.0979016,1,5.51529e-05,-1.59682e-05,1.58403e-05,0.0110306,-0.00319365,0.00316805,0,0,0,0,0.0456812,0.520008,-0.984597,33.5625,1,3616,33326079
97,2,-0.681677,-0.0814625,9.78548,0.067031,-0.589777,0.977549,-0.00681693,-0.000822192,0.0978547,1,3.77633e-05,-9.52022e-07,1.29658e-05,0.00755265,-0.000190404,0.00259316,0,0,0,0,0.0462449,0.520907,-0.980539,33.5625,1,3617,33326179
98,1,-0.681677,-0.0814625,9.78548,0.067031,-0.589777,0.977549,-0.00681693,-0.000822192,0.0978547,1,3.77633e-05,-9.52022e-07,1.29658e-05,0.00755265,-0.000190404,0.00259316,0,0,0,0,0.0462449,0.520907,-0.980539,33.5625,1,3617,33326179
98,2,-0.67619,-0.084837,9.7861,0.0723287,-0.598683,0.979814,-0.00676355,-0.000854703,0.0978608,1,3.06236e-05,-8.66328e-06,2.51235e-05,0.00612472,-0.00173266,0.00502471,0,0,0,0,0.048129,0.52333,-0.980494,33.5625,1,3618,33326279
99,1,-0.67619,-0.084837,9.7861,0.0723287,-0.598683,0.979814,-0.00676355,-0.000854703,0.0978608,1,3.06236e-05,-8.66328e-06,2.51235e-05,0.00612472,-0.00173266,0.00502471,0,0,0,0,0.048129,0.52333,-0.980494,33.5625,1,3618,33326279
99,2,-0.683714,-0.0754248,9.78318,0.0691453,-0.588199,0.972654,-0.0068385,-0.00076398,0.0978316,1,4.79557e-05,-7.1727e-06,2.55703e-05,0.00959115,-0.00143454,0.00511407,0,0,0,0,0.0480184,0.524856,-0.983995,33.5625,1,3619,33326379
100,1,-0.683714,-0.0754248,9.78318,0.0691453,-0.588199,0.972654,-0.0068385,-0.00076398,0.0978316,1,4.79557e-05,-7.1727e-06,2.55703e-05,0.00959115,-0.00143454,0.00511407,0,0,0,0,0.0480184,0.524856,-0.983995,33.5625,1,3619,33326379
100,2,-0.682847,-0.0781927,9.79096,0.0644078,-0.591714,0.979969,-0.00683197,-0.000792834,0.0979092,1,5.49555e-05,-1.79709e-05,1.06672e-05,0.0109911,-0.00359419,0.00213343,0,0,0,0,0.0470149,0.524413,-0.98602,33.5625,1,3620,33326479
101,1,-0.682847,-0.0781927,9.79096,0.0644078,-0.591714,0.979969,-0.00683197,-0.000792834,0.0979092,1,5.49555e-05,-1.79709e-05,1.06672e-05,0.0109911,-0.00359419,0.00213343,0,0,0,0,0.0470149,0.524413,-0.98602,33.5625,1,3620,33326479
101,2,-0.669533,-0.0757161,9.78852,0.0814782,-0.594494,0.979338,-0.00670033,-0.000766461,0.0978848,1,4.56257e-05,-2.57993e-05,2.73994e-05,0.00912514,-0.00515985,0.00547988,0,0,0,0,0.0470714,0.520998,-0.986096,33.5625,1,3621,33326579
102,1,-0.669533,-0.0757161,9.78852,0.0814782,-0.594494,0.979338,-0.00670033,-0.000766461,0.0978848,1,4.56257e-05,-2.57993e-05,2.73994e-05,0.00912514,-0.00515985,0.00547988,0,0,0,0,0.0470714,0.520998,-0.986096,33.5625,1,3621,33326579
102,2,-0.675785,-0.0766331,9.7994,0.0744248,-0.596262,0.989555,-0.00676038,-0.000774607,0.0979937,1,4.07713e-05,-1.31076e-05,2.1048e-05,0.00815426,-0.00262152,0.00420961,0,0,0,0,0.0466472,0.519033,-0.985128,33.5625,1,3622,33326679
103,1,-0.675785,-0.0766331,9.7994,0.0744248,-0.596262,0.989555,-0.00676038,-0.000774607,0.0979937,1,4.07713e-05,-1.31076e-05,2.1048e-05,0.00815426,-0.00262152,0.00420961,0,0,0,0,0.0466472,0.519033,-0.985128,33.5625,1,3622,33326679
103,2,-0.677762,-0.0842407,9.79155,0.0682412,-0.607036,0.983638,-0.00677987,-0.000849297,0.0979152,1,3.29428e-05,-1.17592e-05,3.2367e-05,0.00658856,-0.00235185,0.00647341,0,0,0,0,0.0477124,0.519432,-0.980578,33.5625,1,3623,33326779
104,1,-0.677762,-0.0842407,9.79155,0.0682412,-0.607036,0.983638,-0.00677987,-0.000849297,0.0979152,1,3.29428e-05,-1.17592e-05,3.2367e-05,0.00658856,-0.00235185,0.00647341,0,0,0,0,0.0477124,0.519432,-0.980578,33.5625,1,3623,33326779
104,2,-0.676876,-0.0668709,9.78965,0.0693532,-0.582953,0.983928,-0.00677232,-0.000676614,0.0978962,1,3.83389e-05,-1.84153e-05,2.94319e-05,0.00766778,-0.00368307,0.00588638,0,0,0,0,0.0481736,0.52137,-0.980032,33.5625,1,3624,33326879
105,1,-0.676876,-0.0668709,9.78965,0.0693532,-0.582953,0.983928,-0.00677232,-0.000676614,0.0978962,1,3.83389e-05,-1.84153e-05,2.94319e-05,0.00766778,-0.00368307,0.00588638,0,0,0,0,0.0481736,0.52137,-0.980032,33.5625,1,3624,33326879
105,2,-0.664976,-0.0735125,9.7885,0.0837202,-0.591443,0.97848,-0.00665244,-0.000747241,0.0978847,1,6.0899e-05,-1.38398e-05,1.45939e-05,0.0121798,-0.00276797,0.00291879,0,0,0,0,0.048063,0.522896,-0.983533,33.5625,1,3625,33326979
106,1,-0.664976,-0.0735125,9.7885,0.0837202,-0.591443,0.97848,-0.00665244,-0.000747241,0.0978847,1,6.0899e-05,-1.38398e-05,1.45939e-05,0.0121798,-0.00276797,0.00291879,0,0,0,0,0.048063,0.522896,-0.983533,33.5625,1,3625,33326979
106,2,-0.668174,-0.0888131,9.78364,0.079103,-0.606578,0.975646,-0.00668409,-0.000896641,0.0978362,1,4.18893e-05,-1.2234e-05,2.34968e-05,0.00837786,-0.00244679,0.00469935,0,0,0,0,0.0474547,0.523957,-0.988052,33.5625,1,3626,33327079
107,1,-0.668174,-0.0888131,9.78364,0.079103,-0.606578,0.975646,-0.00668409,-0.000896641,0.0978362,1,4.18893e-05,-1.2234e-05,2.34968e-05,0.00837786,-0.00244679,0.00469935,0,0,0,0,0.0474547,0.523957,-0.988052,33.5625,1,3626,33327079
107,2,-0.671485,-0.070106,9.79535,0.0738161,-0.588513,0.982793,-0.00671646,-0.000708185,0.0979533,1,3.54237e-05,-8.33353e-06,1.38079e-05,0.00708474,-0.00166671,0.00276158,0,0,0,0,0.0469978,0.522498,-0.988083,33.5625,1,3627,33327179
108,1,-0.671485,-0.070106,9.79535,0.0738161,-0.588513,0.982793,-0.00671646,-0.000708185,0.0979533,1,3.54237e-05,-8.33353e-06,1.38079e-05,0.00708474,-0.00166671,0.00276158,0,0,0,0,0.0469978,0.522498,-0.988083,33.5625,1,3627,33327179
108,2,-0.679267,-0.0730258,9.78758,0.0642884,-0.594159,0.979606,-0.00679486,-0.000740095,0.0978756,1,4.8792e-05,-1.13529e-05,2.10405e-05,0.00975839,-0.00227057,0.0042081,0,0,0,0,0.0456119,0.521986,-0.986067,33.5625,1,3628,33327279
109,1,-0.679267,-0.0730258,9.78758,0.0642884,-0.594159,0.979606,-0.00679486,-0.000740095,0.0978756,1,4.8792e-05,-1.13529e-05,2.10405e-05,0.00975839,-0.00227057,0.0042081,0,0,0,0,0.0456119,0.521986,-0.986067,33.5625,1,3628,33327279
109,2,-0.674238,-0.0758489,9.79091,0.072076,-0.598089,0.981286,-0.00674332,-0.000767319,0.0979089,1,4.34684e-05,-5.01652e-06,2.35496e-05,0.00869367,-0.0010033,0.00470993,0,0,0,0,0.0476877,0.51945,-0.981588,33.5625,1,3629,33327379
110,1,-0.674238,-0.0758489,9.79091,0.072076,-0.598089,0.981286,-0.00674332,-0.000767319,0.0979089,1,4.34684e-05,-5.01652e-06,2.35496e-05,0.00869367,-0.0010033,0.00470993,0,0,0,0,0.0476877,0.51945,-0.981588,33.5625,1,3629,33327379
110,2,-0.674013,-0.0776044,9.80039,0.0741808,-0.59912,0.996153,-0.00674226,-0.000785801,0.0980037,1,4.83879e-05,-1.10231e-05,2.0217e-05,0.00967758,-0.00220461,0.0040434,0,0,0,0,0.049152,0.520386,-0.980059,33.5625,1,3630,33327479
111,1,-0.674013,-0.0776044,9.80039,0.0741808,-0.59912,0.996153,-0.00674226,-0.000785801,0.0980037,1,4.83879e-05,-1.10231e-05,2.0217e-05,0.00967758,-0.00220461,0.0040434,0,0,0,0,0.049152,0.520386,-0.980059,33.5625,1,3630,33327479
111,2,-0.675266,-0.0706573,9.79164,0.0689366,-0.593219,0.982593,-0.00675354,-0.000717133,0.0979163,1,5.25489e-05,-4.6175e-06,1.99267e-05,0.0105098,-0.000923501,0.00398534,0,0,0,0,0.0480018,0.524387,-0.985015,33.5625,1,3631,33327579
112,1,-0.675266,-0.0706573,9.79164,0.0689366,-0.593219,0.982593,-0.00675354,-0.000717133,0.0979163,1,5.25489e-05,-4.6175e-06,1.99267e-05,0.0105098,-0.000923501,0.00398534,0,0,0,0,0.0480018,0.524387,-0.985015,33.5625,1,3631,33327579
112,2,-0.674112,-0.078906,9.78376,0.0669166,-0.606338,0.974999,-0.00674277,-0.00079626,0.0978375,1,3.54072e-05,-8.62177e-06,2.01853e-05,0.00708144,-0.00172435,0.00403705,0,0,0,0,0.0464925,0.523965,-0.988048,33.5625,1,3632,33327679
113,1,-0.674112,-0.078906,9.78376,0.0669166,-0.606338,0.974999,-0.00674277,-0.00079626,0.0978375,1,3.54072e-05,-8.62177e-06,2.01853e-05,0.00708144,-0.00172435,0.00403705,0,0,0,0,0.0464925,0.523965,-0.988048,33.5625,1,3632,33327679
113,2,-0.691541,-0.0700175,9.7904,0.0534204,-0.593626,0.982846,-0.0069166,-0.000711482,0.0979038,1,5.61756e-05,-6.22455e-06,2.21933e-05,0.0112351,-0.00124491,0.00443866,0,0,0,0,0.0460683,0.522,-0.987079,33.5625,1,3633,33327779
114,1,-0.691541,-0.0700175,9.7904,0.0534204,-0.593626,0.982846,-0.0069166,-0.000711482,0.0979038,1,5.61756e-05,-6.22455e-06,2.21933e-05,0.0112351,-0.00124491,0.00443866,0,0,0,0,0.0460683,0.522,-0.987079,33.5625,1,3633,33327779
114,2,-0.676797,-0.0757917,9.78856,0.0697733,-0.603394,0.980165,-0.00677151,-0.000765706,0.0978853,1,3.94321e-05,-1.81347e-05,5.14484e-06,0.00788643,-0.00362695,0.00102897,0,0,0,0,0.0461462,0.520979,-0.984577,33.5625,1,3634,33327879
115,1,-0.676797,-0.0757917,9.78856,0.0697733,-0.603394,0.980165,-0.00677151,-0.000765706,0.0978853,1,3.94321e-05,-1.81347e-05,5.14484e-06,0.00788643,-0.00362695,0.00102897,0,0,0,0,0.0461462,0.520979,-0.984577,33.5625,1,3634,33327879
115,2,-0.674755,-0.0761463,9.78786,0.0668325,-0.600649,0.982513,-0.00675065,-0.000771047,0.0978784,1,4.78981e-05,-1.59438e-05,1.53537e-05,0.00957963,-0.00318876,0.00307074,0,0,0,0,0.0467136,0.520912,-0.981046,33.5625,1,3635,33327979
116,1,-0.674755,-0.0761463,9.78786,0.0668325,-0.600649,0.982513,-0.00675065,-0.000771047,0.0978784,1,4.78981e-05,-1.59438e-05,1.53537e-05,0.00957963,-0.00318876,0.00307074,0,0,0,0,0.0467136,0.520912,-0.981046,33.5625,1,3635,33327979
116,2,-0.679537,-0.0705258,9.79676,0.0691551,-0.593102,0.988751,-0.00679708,-0.000714177,0.0979674,1,4.38951e-05,-8.89642e-06,2.34244e-05,0.00877903,-0.00177928,0.00468487,0,0,0,0,0.0467141,0.522357,-0.980004,33.5625,1,3636,33328079
117,1,-0.679537,-0.0705258,9.79676,0.0691551,-0.593102,0.988751,-0.00679708,-0.000714177,0.0979674,1,4.38951e-05,-8.89642e-06,2.34244e-05,0.00877903,-0.00177928,0.00468487,0,0,0,0,0.0467141,0.522357,-0.980004,33.5625,1,3636,33328079
117,2,-0.686279,-0.0744901,9.79779,0.061598,-0.599919,0.991521,-0.00686549,-0.000755547,0.0979776,1,5.33964e-05,-1.38731e-05,1.33123e-05,0.0106793,-0.00277462,0.00266246,0,0,0,0,0.049449,0.523408,-0.985549,33.5625,1,3637,33328179
118,1,-0.686279,-0.0744901,9.79779,0.061598,-0.599919,0.991521,-0.00686549,-0.000755547,0.0979776,1,5.33964e-05,-1.38731e-05,1.33123e-05,0.0106793,-0.00277462,0.00266246,0,0,0,0,0.049449,0.523408,-0.985549,33.5625,1,3637,33328179
118,2,-0.668121,-0.0797708,9.78134,0.0746216,-0.609905,0.970878,-0.00668204,-0.000807048,0.0978132,1,4.62476e-05,-4.42015e-06,2.19141e-05,0.00924951,-0.00088403,0.00438282,0,0,0,0,0.0478989,0.52398,-0.989569,33.5625,1,3638,33328279
119,1,-0.668121,-0.0797708,9.78134,0.0746216,-0.609905,0.970878,-0.00668204,-0.000807048,0.0978132,1,4.62476e-05,-4.42015e-06,2.19141e-05,0.00924951,-0.00088403,0.00438282,0,0,0,0,0.0478989,0.52398,-0.989569,33.5625,1,3638,33328279
119,2,-0.671422,-0.0757658,9.78682,0.0721573,-0.601333,0.981584,-0.00671551,-0.000768014,0.0978681,1,5.14911e-05,-6.73155e-06,2.06434e-05,0.0102982,-0.00134631,0.00412868,0,0,0,0,0.0450691,0.522035,-0.988589,33.5625,1,3639,33328379
120,1,-0.671422,-0.0757658,9.78682,0.0721573,-0.601333,0.981584,-0.00671551,-0.000768014,0.0978681,1,5.14911e-05,-6.73155e-06,2.06434e-05,0.0102982,-0.00134631,0.00412868,0,0,0,0,0.0450691,0.522035,-0.988589,33.5625,1,3639,33328379
120,2,-0.663642,-0.0734848,9.78645,0.0796707,-0.605568,0.980566,-0.00663821,-0.000745724,0.0978643,1,5.43539e-05,-9.29437e-06,1.78367e-05,0.0108708,-0.00185887,0.00356735,0,0,0,0,0.0451142,0.52152,-0.987086,33.5625,1,3640,33328479
121,1,-0.663642,-0.0734848,9.78645,0.0796707,-0.605568,0.980566,-0.00663821,-0.000745724,0.0978643,1,5.43539e-05,-9.29437e-06,1.78367e-05,0.0108708,-0.00185887,0.00356735,0,0,0,0,0.0451142,0.52152,-0.987086,33.5625,1,3640,33328479
121,2,-0.671968,-0.0846701,9.79422,0.0748334,-0.619814,0.989104,-0.00672238,-0.000856716,0.0979419,1,5.05354e-05,-1.3875e-05,8.58496e-06,0.0101071,-0.00277499,0.00171699,0,0,0,0,0.0462117,0.519968,-0.98258,33.5625,1,3641,33328579
122,1,-0.671968,-0.0846701,9.79422,0.0748334,-0.619814,0.989104,-0.00672238,-0.000856716,0.0979419,1,5.05354e-05,-1.3875e-05,8.58496e-06,0.0101071,-0.00277499,0.00171699,0,0,0,0,0.0462117,0.519968,-0.98258,33.5625,1,3641,33328579
122,2,-0.676058,-0.0879088,9.79015,0.0692583,-0.616091,0.984828,-0.00676298,-0.000887274,0.0979012,1,4.109e-05,-1.23305e-05,1.04196e-05,0.008218,-0.0024661,0.00208392,0,0,0,0,0.0472114,0.521378,-0.980028,33.5625,1,3642,33328679
123,1,-0.676058,-0.0879088,9.79015,0.0692583,-0.616091,0.984828,-0.00676298,-0.000887274,0.0979012,1,4.109e-05,-1.23305e-05,1.04196e-05,0.008218,-0.0024661,0.00208392,0,0,0,0,0.0472114,0.521378,-0.980028,33.5625,1,3642,33328679
123,2,-0.671455,-0.0857608,9.78368,0.0734378,-0.617002,0.978802,-0.00671599,-0.000863724,0.0978366,1,3.05212e-05,-7.46548e-06,1.07327e-05,0.00610425,-0.0014931,0.00214655,0,0,0,0,0.0490053,0.52483,-0.98299,33.5625,1,3643,33328779
124,1,-0.671455,-0.0857608,9.78368,0.0734378,-0.617002,0.978802,-0.00671599,-0.000863724,0.0978366,1,3.05212e-05,-7.46548e-06,1.07327e-05,0.00610425,-0.0014931,0.00214655,0,0,0,0,0.0490053,0.52483,-0.98299,33.5625,1,3643,33328779
124,2,-0.669425,-0.073797,9.7875,0.0736506,-0.60715,0.976333,-0.00669676,-0.000744644,0.0978748,1,3.2911e-05,-1.29808e-05,1.73023e-05,0.0065822,-0.00259616,0.00346045,0,0,0,0,0.0493588,0.524438,-0.988556,33.5625,1,3644,33328879
125,1,-0.669425,-0.073797,9.7875,0.0736506,-0.60715,0.976333,-0.00669676,-0.000744644,0.0978748,1,3.2911e-05,-1.29808e-05,1.73023e-05,0.0065822,-0.00259616,0.00346045,0,0,0,0,0.0493588,0.524438,-0.988556,33.5625,1,3644,33328879
125,2,-0.678827,-0.0746905,9.78926,0.0666975,-0.604199,0.97958,-0.00679137,-0.000756609,0.0978923,1,4.92427e-05,-1.58848e-05,4.63056e-06,0.00984854,-0.00317695,0.000926113,0,0,0,0,0.0484531,0.521031,-0.988627,33.5625,1,3645,33328979
126,1,-0.678827,-0.0746905,9.78926,0.0666975,-0.604199,0.97958,-0.00679137,-0.000756609,0.0978923,1,4.92427e-05,-1.58848e-05,4.63056e-06,0.00984854,-0.00317695,0.000926113,0,0,0,0,0.0484531,0.521031,-0.988627,33.5625,1,3645,33328979
126,2,-0.681091,-0.084225,9.80005,0.0601434,-0.617369,0.994256,-0.00681379,-0.000850364,0.0980002,1,4.05144e-05,-1.4767e-05,1.26901e-05,0.00810289,-0.0029534,0.00253803,0,0,0,0,0.0461215,0.520997,-0.985587,33.5625,1,3646,33329079
127,1,-0.681091,-0.084225,9.80005,0.0601434,-0.617369,0.994256,-0.00681379,-0.000850364,0.0980002,1,4.05144e-05,-1.4767e-05,1.26901e-05,0.00810289,-0.0029534,0.00253803,0,0,0,0,0.0461215,0.520997,-0.985587,33.5625,1,3646,33329079
127,2,-0.673067,-0.0819751,9.78713,0.0747556,-0.611728,0.979128,-0.00673229,-0.000827875,0.0978711,1,4.07603e-05,-8.38376e-06,1.0846e-05,0.00815206,-0.00167675,0.00216921,0,0,0,0,0.0452864,0.519949,-0.981061,33.5625,1,3647,33329179
128,1,-0.673067,-0.0819751,9.78713,0.0747556,-0.611728,0.979128,-0.00673229,-0.000827875,0.0978711,1,4.07603e-05,-8.38376e-06,1.0846e-05,0.00815206,-0.00167675,0.00216921,0,0,0,0,0.0452864,0.519949,-0.981061,33.5625,1,3647,33329179
128,2,-0.670463,-0.0864255,9.79011,0.0732016,-0.618459,0.980889,-0.00670451,-0.000872997,0.097901,1,4.23154e-05,3.48159e-07,3.40642e-05,0.00846309,6.96319e-05,0.00681284,0,0,0,0,0.0467056,0.5214,-0.981035,33.5625,1,3648,33329279
129,1,-0.670463,-0.0864255,9.79011,0.0732016,-0.618459,0.980889,-0.00670451,-0.000872997,0.097901,1,4.23154e-05,3.48159e-07,3.40642e-05,0.00846309,6.96319e-05,0.00681284,0,0,0,0,0.0467056,0.5214,-0.981035,33.5625,1,3648,33329279
129,2,-0.66208,-0.0864138,9.79312,0.0823558,-0.620513,0.980322,-0.00662398,-0.000872036,0.0979309,1,3.87207e-05,-1.64526e-05,2.37171e-05,0.00774415,-0.00329052,0.00474342,0,0,0,0,0.0484668,0.525358,-0.984996,33.5625,1,3649,33329379
130,1,-0.66208,-0.0864138,9.79312,0.0823558,-0.620513,0.980322,-0.00662398,-0.000872036,0.0979309,1,3.87207e-05,-1.64526e-05,2.37171e-05,0.00774415,-0.00329052,0.00474342,0,0,0,0,0.0484668,0.525358,-0.984996,33.5625,1,3649,33329379
130,2,-0.669455,-0.0779729,9.79628,0.0789109,-0.610299,0.984702,-0.00669448,-0.000786846,0.0979627,1,3.52896e-05,2.19762e-07,1.51751e-05,0.00705792,4.39523e-05,0.00303503,0,0,0,0,0.0483762,0.524943,-0.989045,33.5625,1,3650,33329479
130,3,-0.669455,-0.0779729,9.79628,0.0789109,-0.610299,0.984702,-0.00669448,-0.000786846,0.0979627,1,3.52896e-05,2.19762e-07,1.51751e-05,0.00705792,4.39523e-05,0.00303503,0,0,0,0,0.0483762,0.524943,-0.989045,33.5625,1,3650,33329479
130,4,-0.679952,-0.0773483,9.78415,0.0618357,-0.615139,0.979783,-0.00680123,-0.000779387,0.0978414,1,2.87779e-05,-8.89049e-06,2.00531e-05,0.00575558,-0.0017781,0.00401063,0,0,0,0,0.0475032,0.52103,-0.988118,33.5625,1,3651,33329579
130,5,-0.679952,-0.0773483,9.78415,0.0618357,-0.615139,0.979783,-0.00680123,-0.000779387,0.0978414,1,2.87779e-05,-8.89049e-06,2.00531e-05,0.00575558,-0.0017781,0.00401063,0,0,0,0,0.0475032,0.52103,-0.988118,33.5625,1,3651,33329579
130,6,-0.663224,-0.080074,9.78843,0.0803183,-0.616784,0.983929,-0.00663281,-0.000810697,0.0978842,1,4.96955e-05,-3.08658e-06,1.72458e-05,0.0099391,-0.000617316,0.00344917,0,0,0,0,0.0457666,0.517054,-0.983148,33.5625,1,3652,33329679
131,1,-0.663224,-0.080074,9.78843,0.0803183,-0.616784,0.983929,-0.00663281,-0.000810697,0.0978842,1,4.96955e-05,-3.08658e-06,1.72458e-05,0.0099391,-0.000617316,0.00344917,0,0,0,0,0.0457666,0.517054,-0.983148,33.5625,1,3652,33329679
131,2,-0.672241,-0.066208,9.78216,0.0682316,-0.601826,0.972301,-0.00672462,-0.000671044,0.0978214,1,4.44725e-05,-1.14684e-05,1.9569e-05,0.00889449,-0.00229367,0.0039138,0,0,0,0,0.0458041,0.518472,-0.980591,33.5625,1,3653,33329779
131,3,-0.672241,-0.066208,9.78216,0.0682316,-0.601826,0.972301,-0.00672462,-0.000671044,0.0978214,1,4.44725e-05,-1.14684e-05,1.9569e-05,0.00889449,-0.00229367,0.0039138,0,0,0,0,0.0458041,0.518472,-0.980591,33.5625,1,3653,33329779
131,4,-0.682312,-0.0736235,9.79302,0.0662591,-0.608091,0.986641,-0.0068246,-0.000743054,0.09793,1,3.40287e-05,-7.61448e-06,1.12932e-05,0.00680574,-0.0015229,0.00225864,0,0,0,0,0.0471174,0.523374,-0.982508,33.5625,1,3654,33329879
131,5,-0.682312,-0.0736235,9.79302,0.0662591,-0.608091,0.986641,-0.0068246,-0.000743054,0.09793,1,3.40287e-05,-7.61448e-06,1.12932e-05,0.00680574,-0.0015229,0.00225864,0,0,0,0,0.0471174,0.523374,-0.982508,33.5625,1,3654,33329879
131,6,-0.669429,-0.0693255,9.79738,0.0740388,-0.604598,0.990184,-0.00669497,-0.000702548,0.0979736,1,4.5335e-05,-3.70854e-06,3.0592e-05,0.00906699,-0.000741708,0.00611841,0,0,0,0,0.048964,0.524379,-0.98502,33.5625,1,3655,33329979
132,1,-0.669429,-0.0693255,9.79738,0.0740388,-0.604598,0.990184,-0.00669497,-0.000702548,0.0979736,1,4.5335e-05,-3.70854e-06,3.0592e-05,0.00906699,-0.000741708,0.00611841,0,0,0,0,0.048964,0.524379,-0.98502,33.5625,1,3655,33329979
132,2,-0.672687,-0.0748278,9.79939,0.0714014,-0.610369,0.991596,-0.00672977,-0.000757363,0.0979937,1,4.58993e-05,-1.48379e-05,6.62181e-06,0.00917986,-0.00296757,0.00132436,0,0,0,0,0.0479074,0.524938,-0.988538,33.5625,1,3656,33330079
133,1,-0.672687,-0.0748278,9.79939,0.0714014,-0.610369,0.991596,-0.00672977,-0.000757363,0.0979937,1,4.58993e-05,-1.48379e-05,6.62181e-06,0.00917986,-0.00296757,0.00132436,0,0,0,0,0.0479074,0.524938,-0.988538,33.5625,1,3656,33330079
133,2,-0.680375,-0.0627041,9.78497,0.0598914,-0.601194,0.976227,-0.00680509,-0.000631329,0.0978495,1,2.08896e-05,-6.94597e-06,1.46868e-05,0.00417792,-0.00138919,0.00293736,0,0,0,0,0.0469855,0.522507,-0.988588,33.5625,1,3657,33330179
133,3,-0.680375,-0.0627041,9.78497,0.0598914,-0.601194,0.976227,-0.00680509,-0.000631329,0.0978495,1,2.08896e-05,-6.94597e-06,1.46868e-05,0.00417792,-0.00138919,0.00293736,0,0,0,0,0.0469855,0.522507,-0.988588,33.5625,1,3657,33330179
133,4,-0.667032,-0.0773177,9.79053,0.0766035,-0.612216,0.983994,-0.00667729,-0.000778617,0.0979048,1,2.77276e-05,-3.56135e-05,8.06293e-07,0.00554553,-0.00712271,0.000161259,0,0,0,0,0.0461419,0.5205,-0.985093,33.5625,1,3658,33330279
134,1,-0.667032,-0.0773177,9.79053,0.0766035,-0.612216,0.983994,-0.00667729,-0.000778617,0.0979048,1,2.77276e-05,-3.56135e-05,8.06293e-07,0.00554553,-0.00712271,0.000161259,0,0,0,0,0.0461419,0.5205,-0.985093,33.5625,1,3658,33330279
134,2,-0.677105,-0.0789481,9.78989,0.0708192,-0.614559,0.980011,-0.00677412,-0.000797981,0.0978987,1,4.25448e-05,-1.57708e-05,1.25206e-05,0.00850895,-0.00315417,0.00250413,0,0,0,0,0.0476512,0.520922,-0.98206,33.5625,1,3659,33330379
135,1,-0.677105,-0.0789481,9.78989,0.0708192,-0.614559,0.980011,-0.00677412,-0.000797981,0.0978987,1,4.25448e-05,-1.57708e-05,1.25206e-05,0.00850895,-0.00315417,0.00250413,0,0,0,0,0.0476512,0.520922,-0.98206,33.5625,1,3659,33330379
135,2,-0.681745,-0.0672053,9.78289,0.061205,-0.607514,0.976462,-0.00681954,-0.000682032,0.0978287,1,4.98872e-05,-1.08051e-05,1.60524e-05,0.00997744,-0.00216103,0.00321047,0,0,0,0,0.0495106,0.523363,-0.983025,33.5625,1,3660,33330479
135,3,-0.681745,-0.0672053,9.78289,0.061205,-0.607514,0.976462,-0.00681954,-0.000682032,0.0978287,1,4.98872e-05,-1.08051e-05,1.60524e-05,0.00997744,-0.00216103,0.00321047,0,0,0,0,0.0495106,0.523363,-0.983025,33.5625,1,3660,33330479
135,4,-0.674767,-0.0713207,9.78214,0.0673022,-0.606339,0.976019,-0.00675169,-0.000721227,0.0978211,1,3.96856e-05,-2.06772e-05,1.89524e-05,0.00793711,-0.00413544,0.00379048,0,0,0,0,0.0489356,0.525363,-0.985503,33.5625,1,3661,33330579
136,1,-0.674767,-0.0713207,9.78214,0.0673022,-0.606339,0.976019,-0.00675169,-0.000721227,0.0978211,1,3.96856e-05,-2.06772e-05,1.89524e-05,0.00793711,-0.00413544,0.00379048,0,0,0,0,0.0489356,0.525363,-0.985503,33.5625,1,3661,33330579
136,2,-0.691474,-0.0710846,9.79039,0.0501094,-0.61066,0.978542,-0.00691737,-0.000722187,0.0979036,1,5.65108e-05,-1.35991e-05,1.99321e-05,0.0113022,-0.00271981,0.00398642,0,0,0,0,0.0474348,0.525899,-0.987504,33.5625,1,3662,33330679
136,3,-0.691474,-0.0710846,9.79039,0.0501094,-0.61066,0.978542,-0.00691737,-0.000722187,0.0979036,1,5.65108e-05,-1.35991e-05,1.99321e-05,0.0113022,-0.00271981,0.00398642,0,0,0,0,0.0474348,0.525899,-0.987504,33.5625,1,3662,33330679
136,4,-0.668281,-0.0810913,9.78981,0.0734539,-0.623489,0.983682,-0.0066856,-0.000821722,0.0978978,1,5.32101e-05,-1.44819e-05,2.92586e-05,0.010642,-0.00289638,0.00585172,0,0,0,0,0.0465129,0.523468,-0.987554,33.5625,1,3663,33330779
136,5,-0.668281,-0.0810913,9.78981,0.0734539,-0.623489,0.983682,-0.0066856,-0.000821722,0.0978978,1,5.32101e-05,-1.44819e-05,2.92586e-05,0.010642,-0.00289638,0.00585172,0,0,0,0,0.0465129,0.523468,-0.987554,33.5625,1,3663,33330779
136,6,-0.682551,-0.0807736,9.79432,0.0610276,-0.625801,0.986976,-0.00682734,-0.000816882,0.097943,1,4.48022e-05,-9.59097e-06,2.71069e-05,0.00896045,-0.00191819,0.00542139,0,0,0,0,0.0461134,0.521485,-0.985576,33.5625,1,3664,33330879
136,7,-0.682551,-0.0807736,9.79432,0.0610276,-0.625801,0.986976,-0.00682734,-0.000816882,0.097943,1,4.48022e-05,-9.59097e-06,2.71069e-05,0.00896045,-0.00191819,0.00542139,0,0,0,0,0.0461134,0.521485,-0.985576,33.5625,1,3664,33330879
136,8,-0.676291,-0.0695027,9.7971,0.0687709,-0.610054,0.985833,-0.00676957,-0.000703026,0.0979705,1,3.976e-05,-3.40697e-05,1.54189e-05,0.00795201,-0.00681394,0.00308377,0,0,0,0,0.0472109,0.519933,-0.98107,33.5625,1,3665,33330979
137,1,-0.676291,-0.0695027,9.7971,0.0687709,-0.610054,0.985833,-0.00676957,-0.000703026,0.0979705,1,3.976e-05,-3.40697e-05,1.54189e-05,0.00795201,-0.00681394,0.00308377,0,0,0,0,0.0472109,0.519933,-0.98107,33.5625,1,3665,33330979
137,2,-0.673479,-0.07582,9.79192,0.0675278,-0.618389,0.986802,-0.0067359,-0.000767409,0.0979191,1,4.58733e-05,-5.82628e-06,1.66669e-05,0.00917465,-0.00116526,0.00333338,0,0,0,0,0.04863,0.521384,-0.981044,33.5625,1,3666,33331079
137,3,-0.673479,-0.07582,9.79192,0.0675278,-0.618389,0.986802,-0.0067359,-0.000767409,0.0979191,1,4.58733e-05,-5.82628e-06,1.66669e-05,0.00917465,-0.00116526,0.00333338,0,0,0,0,0.04863,0.521384,-0.981044,33.5625,1,3666,33331079
137,4,-0.67517,-0.0774388,9.7926,0.0665859,-0.625008,0.987555,-0.0067524,-0.000786365,0.0979258,1,6.0117e-05,-3.68767e-06,1.50966e-05,0.0120234,-0.000737534,0.00301931,0,0,0,0,0.0480345,0.523881,-0.984016,33.5625,1,3667,33331179
138,1,-0.67517,-0.0774388,9.7926,0.0665859,-0.625008,0.987555,-0.0067524,-0.000786365,0.0979258,1,6.0117e-05,-3.68767e-06,1.50966e-05,0.0120234,-0.000737534,0.00301931,0,0,0,0,0.0480345,0.523881,-0.984016,33.5625,1,3667,33331179
138,2,-0.672202,-0.0740158,9.78447,0.0642574,-0.618109,0.972937,-0.00672469,-0.000749536,0.0978444,1,4.71862e-05,-1.3713e-05,1.07293e-05,0.00943725,-0.00274261,0.00214586,0,0,0,0,0.0474509,0.524924,-0.987526,33.5625,1,3668,33331279
138,3,-0.672202,-0.0740158,9.78447,0.0642574,-0.618109,0.972937,-0.00672469,-0.000749536,0.0978444,1,4.71862e-05,-1.3713e-05,1.07293e-05,0.00943725,-0.00274261,0.00214586,0,0,0,0,0.0474509,0.524924,-0.987526,33.5625,1,3668,33331279
138,4,-0.670738,-0.066615,9.7886,0.0719905,-0.610974,0.981342,-0.00670976,-0.000673741,0.0978858,1,3.76591e-05,-1.2258e-05,1.63091e-05,0.00753181,-0.00245161,0.00326181,0,0,0,0,0.0484659,0.522468,-0.98708,33.5625,1,3669,33331379
139,1,-0.670738,-0.066615,9.7886,0.0719905,-0.610974,0.981342,-0.00670976,-0.000673741,0.0978858,1,3.76591e-05,-1.2258e-05,1.63091e-05,0.00753181,-0.00245161,0.00326181,0,0,0,0,0.0484659,0.522468,-0.98708,33.5625,1,3669,33331379
139,2,-0.682619,-0.074527,9.78996,0.0565374,-0.619619,0.983157,-0.0068285,-0.0007545,0.0978994,1,4.59329e-05,-1.19582e-05,1.72797e-05,0.00918657,-0.00239164,0.00345594,0,0,0,0,0.0456565,0.520026,-0.985606,33.5625,1,3670,33331479
139,3,-0.682619,-0.074527,9.78996,0.0565374,-0.619619,0.983157,-0.0068285,-0.0007545,0.0978994,1,4.59329e-05,-1.19582e-05,1.72797e-05,0.00918657,-0.00239164,0.00345594,0,0,0,0,0.0456565,0.520026,-0.985606,33.5625,1,3670,33331479
139,4,-0.681955,-0.0773927,9.79095,0.0550675,-0.624201,0.985669,-0.00682177,-0.000781389,0.0979093,1,3.70032e-05,-1.14687e-05,1.584e-05,0.00740064,-0.00229374,0.003168,0,0,0,0,0.0452209,0.52096,-0.983058,33.5625,1,3671,33331579
139,5,-0.681955,-0.0773927,9.79095,0.0550675,-0.624201,0.985669,-0.00682177,-0.000781389,0.0979093,1,3.70032e-05,-1.14687e-05,1.584e-05,0.00740064,-0.00229374,0.003168,0,0,0,0,0.0452209,0.52096,-0.983058,33.5625,1,3671,33331579
139,6,-0.673212,-0.0697734,9.79163,0.0624821,-0.613696,0.980937,-0.00673254,-0.000705018,0.0979162,1,3.50382e-05,-2.40647e-06,3.13595e-05,0.00700765,-0.000481294,0.0062719,0,0,0,0,0.0485688,0.522874,-0.982526,33.5625,1,3672,33331679
140,1,-0.673212,-0.0697734,9.79163,0.0624821,-0.613696,0.980937,-0.00673254,-0.000705018,0.0979162,1,3.50382e-05,-2.40647e-06,3.13595e-05,0.00700765,-0.000481294,0.0062719,0,0,0,0,0.0485688,0.522874,-0.982526,33.5625,1,3672,33331679
140,2,-0.685393,-0.0792552,9.78078,0.0554064,-0.624353,0.969507,-0.00685611,-0.000800363,0.0978076,1,3.854e-05,-1.13044e-05,1.98577e-05,0.00770799,-0.00226088,0.00397154,0,0,0,0,0.0485071,0.522919,-0.98505,33.5625,1,3673,33331779
140,3,-0.685393,-0.0792552,9.78078,0.0554064,-0.624353,0.969507,-0.00685611,-0.000800363,0.0978076,1,3.854e-05,-1.13044e-05,1.98577e-05,0.00770799,-0.00226088,0.00397154,0,0,0,0,0.0485071,0.522919,-0.98505,33.5625,1,3673,33331779
140,4,-0.670609,-0.0789662,9.78714,0.0712351,-0.624688,0.977228,-0.00671069,-0.00079738,0.097871,1,3.76998e-05,-2.37043e-05,2.52332e-05,0.00753996,-0.00474086,0.00504664,0,0,0,0,0.0460195,0.523481,-0.988056,33.5625,1,3674,33331879
141,1,-0.670609,-0.0789662,9.78714,0.0712351,-0.624688,0.977228,-0.00671069,-0.00079738,0.097871,1,3.76998e-05,-2.37043e-05,2.52332e-05,0.00753996,-0.00474086,0.00504664,0,0,0,0,0.0460195,0.523481,-0.988056,33.5625,1,3674,33331879
141,2,-0.67307,-0.082367,9.78746,0.0689139,-0.62941,0.976956,-0.00673341,-0.000831135,0.0978743,1,3.74949e-05,-1.39328e-05,9.276e-06,0.00749898,-0.00278657,0.0018552,0,0,0,0,0.0469855,0.522507,-0.988588,33.5625,1,3675,33331979
141,3,-0.67307,-0.082367,9.78746,0.0689139,-0.62941,0.976956,-0.00673341,-0.000831135,0.0978743,1,3.74949e-05,-1.39328e-05,9.276e-06,0.00749898,-0.00278657,0.0018552,0,0,0,0,0.0469855,0.522507,-0.988588,33.5625,1,3675,33331979
141,4,-0.671691,-0.0810122,9.79424,0.0723025,-0.624615,0.98533,-0.00671888,-0.000819004,0.0979422,1,4.4331e-05,-1.01868e-05,1.47577e-05,0.00886619,-0.00203737,0.00295155,0,0,0,0,0.0456366,0.521968,-0.985058,33.5625,1,3676,33332079
141,5,-0.671691,-0.0810122,9.79424,0.0723025,-0.624615,0.98533,-0.00671888,-0.000819004,0.0979422,1,4.4331e-05,-1.01868e-05,1.47577e-05,0.00886619,-0.00203737,0.00295155,0,0,0,0,0.0456366,0.521968,-0.985058,33.5625,1,3676,33332079
141,6,-0.67924,-0.0754253,9.78044,0.0582363,-0.62099,0.974941,-0.00679622,-0.000762712,0.097804,1,4.21498e-05,-1.9662e-05,1.57582e-05,0.00842995,-0.00393239,0.00315164,0,0,0,0,0.046204,0.521901,-0.981527,33.5625,1,3677,33332179
142,1,-0.67924,-0.0754253,9.78044,0.0582363,-0.62099,0.974941,-0.00679622,-0.000762712,0.097804,1,4.21498e-05,-1.9662e-05,1.57582e-05,0.00842995,-0.00393239,0.00315164,0,0,0,0,0.046204,0.521901,-0.981527,33.5625,1,3677,33332179
142,2,-0.677184,-0.0778361,9.78786,0.0633115,-0.617782,0.978777,-0.00677382,-0.000789338,0.0978784,1,5.54826e-05,-1.01667e-05,8.52142e-06,0.0110965,-0.00203334,0.00170428,0,0,0,0,0.0470889,0.524359,-0.982991,33.5625,1,3678,33332279
143,1,-0.677184,-0.0778361,9.78786,0.0633115,-0.617782,0.978777,-0.00677382,-0.000789338,0.0978784,1,5.54826e-05,-1.01667e-05,8.52142e-06,0.0110965,-0.00203334,0.00170428,0,0,0,0,0.0470889,0.524359,-0.982991,33.5625,1,3678,33332279
143,2,-0.674989,-0.0803764,9.79665,0.0696913,-0.629146,0.989692,-0.00675278,-0.000811744,0.0979663,1,3.98811e-05,-1.48192e-05,1.22877e-05,0.00797623,-0.00296384,0.00245755,0,0,0,0,0.0479691,0.524892,-0.986014,33.5625,1,3679,33332379
143,3,-0.674989,-0.0803764,9.79665,0.0696913,-0.629146,0.989692,-0.00675278,-0.000811744,0.0979663,1,3.98811e-05,-1.48192e-05,1.22877e-05,0.00797623,-0.00296384,0.00245755,0,0,0,0,0.0479691,0.524892,-0.986014,33.5625,1,3679,33332379
143,4,-0.675481,-0.0807105,9.78918,0.0696596,-0.626887,0.978036,-0.00675644,-0.000813556,0.0978916,1,3.10558e-05,-8.55332e-06,2.74908e-05,0.00621117,-0.00171066,0.00549816,0,0,0,0,0.0479397,0.522986,-0.988581,33.5625,1,3680,33332479
144,1,-0.675481,-0.0807105,9.78918,0.0696596,-0.626887,0.978036,-0.00675644,-0.000813556,0.0978916,1,3.10558e-05,-8.55332e-06,2.74908e-05,0.00621117,-0.00171066,0.00549816,0,0,0,0,0.0479397,0.522986,-0.988581,33.5625,1,3680,33332479
144,2,-0.671257,-0.0700064,9.79399,0.0639535,-0.62081,0.986399,-0.00671147,-0.000709397,0.0979399,1,4.64897e-05,5.50024e-06,1.69036e-05,0.00929795,0.00110005,0.00338071,0,0,0,0,0.0455996,0.521995,-0.986572,33.5625,1,3681,33332579
144,3,-0.671257,-0.0700064,9.79399,0.0639535,-0.62081,0.986399,-0.00671147,-0.000709397,0.0979399,1,4.64897e-05,5.50024e-06,1.69036e-05,0.00929795,0.00110005,0.00338071,0,0,0,0,0.0455996,0.521995,-0.986572,33.5625,1,3681,33332579
144,4,-0.669729,-0.0771328,9.78578,0.0638088,-0.628811,0.977163,-0.00669901,-0.000778873,0.0978576,1,3.6277e-05,-9.03913e-06,3.32761e-05,0.0072554,-0.00180783,0.00665523,0,0,0,0,0.0447441,0.521443,-0.98254,33.5625,1,3682,33332679
145,1,-0.669729,-0.0771328,9.78578,0.0638088,-0.628811,0.977163,-0.00669901,-0.000778873,0.0978576,1,3.6277e-05,-9.03913e-06,3.32761e-05,0.0072554,-0.00180783,0.00665523,0,0,0,0,0.0447441,0.521443,-0.98254,33.5625,1,3682,33332679
145,2,-0.669567,-0.0787018,9.78815,0.0707412,-0.630539,0.979938,-0.00670066,-0.000798805,0.0978811,1,5.9709e-05,-2.55852e-05,7.33143e-06,0.0119418,-0.00511704,0.00146629,0,0,0,0,0.046726,0.520903,-0.980541,33.5625,1,3683,33332779
145,3,-0.669567,-0.0787018,9.78815,0.0707412,-0.630539,0.979938,-0.00670066,-0.000798805,0.0978811,1,5.9709e-05,-2.55852e-05,7.33143e-06,0.0119418,-0.00511704,0.00146629,0,0,0,0,0.046726,0.520903,-0.980541,33.5625,1,3683,33332779
145,4,-0.669656,-0.0765059,9.79156,0.0700503,-0.625909,0.981135,-0.00669878,-0.000773729,0.0979154,1,4.23864e-05,-1.15615e-05,2.75968e-05,0.00847728,-0.0023123,0.00551937,0,0,0,0,0.0471459,0.522389,-0.982025,33.5625,1,3684,33332879
145,5,-0.669656,-0.0765059,9.79156,0.0700503,-0.625909,0.981135,-0.00669878,-0.000773729,0.0979154,1,4.23864e-05,-1.15615e-05,2.75968e-05,0.00847728,-0.0023123,0.00551937,0,0,0,0,0.0471459,0.522389,-0.982025,33.5625,1,3684,33332879
145,6,-0.67448,-0.0794178,9.78512,0.0640459,-0.628865,0.975773,-0.00674616,-0.000804151,0.097851,1,4.91944e-05,-7.12982e-06,2.56486e-05,0.00983888,-0.00142596,0.00512971,0,0,0,0,0.0489802,0.523403,-0.985041,33.5625,1,3685,33332979
146,1,-0.67448,-0.0794178,9.78512,0.0640459,-0.628865,0.975773,-0.00674616,-0.000804151,0.097851,1,4.91944e-05,-7.12982e-06,2.56486e-05,0.00983888,-0.00142596,0.00512971,0,0,0,0,0.0489802,0.523403,-0.985041,33.5625,1,3685,33332979
146,2,-0.677495,-0.0696403,9.78862,0.0587833,-0.619797,0.975529,-0.00677773,-0.000705861,0.0978859,1,4.77211e-05,-1.42639e-05,8.58468e-06,0.00954421,-0.00285279,0.00171694,0,0,0,0,0.0493792,0.523941,-0.988062,33.5625,1,3686,33333079
146,3,-0.677495,-0.0696403,9.78862,0.0587833,-0.619797,0.975529,-0.00677773,-0.000705861,0.0978859,1,4.77211e-05,-1.42639e-05,8.58468e-06,0.00954421,-0.00285279,0.00171694,0,0,0,0,0.0493792,0.523941,-0.988062,33.5625,1,3686,33333079
146,4,-0.669664,-0.0820059,9.78744,0.0641209,-0.638262,0.978518,-0.00669985,-0.000827121,0.0978741,1,3.44198e-05,-1.66035e-05,2.42406e-05,0.00688396,-0.00332069,0.00484811,0,0,0,0,0.0479397,0.522986,-0.988581,33.5625,1,3687,33333179
146,5,-0.669664,-0.0820059,9.78744,0.0641209,-0.638262,0.978518,-0.00669985,-0.000827121,0.0978741,1,3.44198e-05,-1.66035e-05,2.42406e-05,0.00688396,-0.00332069,0.00484811,0,0,0,0,0.0479397,0.522986,-0.988581,33.5625,1,3687,33333179
146,6,-0.666576,-0.0763813,9.79222,0.0702822,-0.627827,0.986065,-0.00666841,-0.000772359,0.0979219,1,4.25764e-05,-1.36771e-05,1.55587e-05,0.00851529,-0.00273542,0.00311174,0,0,0,0,0.0461338,0.520988,-0.985082,33.5625,1,3688,33333279
147,1,-0.666576,-0.0763813,9.79222,0.0702822,-0.627827,0.986065,-0.00666841,-0.000772359,0.0979219,1,4.25764e-05,-1.36771e-05,1.55587e-05,0.00851529,-0.00273542,0.00311174,0,0,0,0,0.0461338,0.520988,-0.985082,33.5625,1,3688,33333279
147,2,-0.674012,-0.0879642,9.78505,0.0676721,-0.641179,0.977511,-0.00674331,-0.000889444,0.0978502,1,4.91943e-05,-1.64528e-05,1.29865e-05,0.00983886,-0.00329055,0.0025973,0,0,0,0,0.0461794,0.521919,-0.982536,33.5625,1,3689,33333379
147,3,-0.674012,-0.0879642,9.78505,0.0676721,-0.641179,0.977511,-0.00674331,-0.000889444,0.0978502,1,4.91943e-05,-1.64528e-05,1.29865e-05,0.00983886,-0.00329055,0.0025973,0,0,0,0,0.0461794,0.521919,-0.982536,33.5625,1,3689,33333379
147,4,-0.678488,-0.0791886,9.78074,0.054862,-0.632667,0.97121,-0.006788,-0.000801228,0.0978071,1,4.69779e-05,-1.60522e-05,1.11942e-05,0.00939557,-0.00321044,0.00223884,0,0,0,0,0.0475534,0.523885,-0.984014,33.5625,1,3690,33333479
148,1,-0.678488,-0.0791886,9.78074,0.054862,-0.632667,0.97121,-0.006788,-0.000801228,0.0978071,1,4.69779e-05,-1.60522e-05,1.11942e-05,0.00939557,-0.00321044,0.00223884,0,0,0,0,0.0475534,0.523885,-0.984014,33.5625,1,3690,33333479
148,2,-0.676596,-0.0782349,9.78412,0.0654077,-0.625551,0.969308,-0.00676745,-0.000790681,0.097841,1,4.06484e-05,-7.84918e-06,2.79529e-05,0.00812968,-0.00156984,0.00559057,0,0,0,0,0.0489555,0.523421,-0.986051,33.5625,1,3691,33333579
149,1,-0.676596,-0.0782349,9.78412,0.0654077,-0.625551,0.969308,-0.00676745,-0.000790681,0.097841,1,4.06484e-05,-7.84918e-06,2.79529e-05,0.00812968,-0.00156984,0.00559057,0,0,0,0,0.0489555,0.523421,-0.986051,33.5625,1,3691,33333579
149,2,-0.673633,-0.0877531,9.78335,0.0568725,-0.641482,0.974555,-0.00674087,-0.000885669,0.0978331,1,3.98009e-05,-2.34544e-05,2.59691e-05,0.00796018,-0.00469089,0.00519382,0,0,0,0,0.0474547,0.523957,-0.988052,33.5625,1,3692,33333679
149,3,-0.673633,-0.0877531,9.78335,0.0568725,-0.641482,0.974555,-0.00674087,-0.000885669,0.0978331,1,3.98009e-05,-2.34544e-05,2.59691e-05,0.00796018,-0.00469089,0.00519382,0,0,0,0,0.0474547,0.523957,-0.988052,33.5625,1,3692,33333679
149,4,-0.674487,-0.0778923,9.7892,0.063934,-0.631564,0.982333,-0.00674623,-0.000788542,0.0978918,1,4.73206e-05,-7.15434e-06,2.63097e-05,0.00946411,-0.00143087,0.00526195,0,0,0,0,0.0455834,0.52297,-0.986551,33.5625,1,3693,33333779
150,1,-0.674487,-0.0778923,9.7892,0.063934,-0.631564,0.982333,-0.00674623,-0.000788542,0.0978918,1,4.73206e-05,-7.15434e-06,2.63097e-05,0.00946411,-0.00143087,0.00526195,0,0,0,0,0.0455834,0.52297,-0.986551,33.5625,1,3693,33333779
150,2,-0.667693,-0.0754765,9.79325,0.0698409,-0.628222,0.98406,-0.00667771,-0.000762877,0.0979323,1,3.9598e-05,-4.21138e-06,2.66674e-05,0.0079196,-0.000842276,0.00533349,0,0,0,0,0.045657,0.521471,-0.984564,33.5625,1,3694,33333879
150,3,-0.667693,-0.0754765,9.79325,0.0698409,-0.628222,0.98406,-0.00667771,-0.000762877,0.0979323,1,3.9598e-05,-4.21138e-06,2.66674e-05,0.0079196,-0.000842276,0.00533349,0,0,0,0,0.045657,0.521471,-0.984564,33.5625,1,3694,33333879
150,4,-0.669843,-0.0626263,9.78794,0.0707374,-0.617252,0.980929,-0.00670116,-0.000637822,0.0978792,1,5.75556e-05,-1.40948e-05,2.18063e-05,0.0115111,-0.00281895,0.00436126,0,0,0,0,0.047162,0.521414,-0.982047,33.5625,1,3695,33333979
151,1,-0.669843,-0.0626263,9.78794,0.0707374,-0.617252,0.980929,-0.00670116,-0.000637822,0.0978792,1,5.75556e-05,-1.40948e-05,2.18063e-05,0.0115111,-0.00281895,0.00436126,0,0,0,0,0.047162,0.521414,-0.982047,33.5625,1,3695,33333979
151,2,-0.675328,-0.0817443,9.78715,0.0588885,-0.63451,0.975589,-0.00675763,-0.000824081,0.0978711,1,3.31978e-05,-2.22905e-05,1.03711e-05,0.00663956,-0.0044581,0.00207422,0,0,0,0,0.0476312,0.522864,-0.981512,33.5625,1,3696,33334079
151,3,-0.675328,-0.0817443,9.78715,0.0588885,-0.63451,0.975589,-0.00675763,-0.000824081,0.0978711,1,3.31978e-05,-2.22905e-05,1.03711e-05,0.00663956,-0.0044581,0.00207422,0,0,0,0,0.0476312,0.522864,-0.981512,33.5625,1,3696,33334079
151,4,-0.672325,-0.0811983,9.79018,0.0640825,-0.641314,0.982516,-0.0067267,-0.000822674,0.0979015,1,5.28655e-05,-1.7865e-05,2.53115e-05,0.0105731,-0.00357299,0.0050623,0,0,0,0,0.0480507,0.522905,-0.984038,33.5625,1,3697,33334179
152,1,-0.672325,-0.0811983,9.79018,0.0640825,-0.641314,0.982516,-0.0067267,-0.000822674,0.0979015,1,5.28655e-05,-1.7865e-05,2.53115e-05,0.0105731,-0.00357299,0.0050623,0,0,0,0,0.0480507,0.522905,-0.984038,33.5625,1,3697,33334179
152,2,-0.681534,-0.0889365,9.79187,0.0510056,-0.643726,0.979354,-0.00681615,-0.000896446,0.0979186,1,3.53437e-05,-4.2597e-06,1.16508e-05,0.00706875,-0.00085194,0.00233016,0,0,0,0,0.0469694,0.523482,-0.988566,33.5625,1,3698,33334279
152,3,-0.681534,-0.0889365,9.79187,0.0510056,-0.643726,0.979354,-0.00681615,-0.000896446,0.0979186,1,3.53437e-05,-4.2597e-06,1.16508e-05,0.00706875,-0.00085194,0.00233016,0,0,0,0,0.0469694,0.523482,-0.988566,33.5625,1,3698,33334279
152,4,-0.675827,-0.0806172,9.7841,0.0582959,-0.63422,0.973106,-0.00676097,-0.000814505,0.0978407,1,4.15499e-05,-1.39346e-05,1.49925e-05,0.00830999,-0.00278692,0.00299849,0,0,0,0,0.0460313,0.522027,-0.988594,33.5625,1,3699,33334379
153,1,-0.675827,-0.0806172,9.7841,0.0582959,-0.63422,0.973106,-0.00676097,-0.000814505,0.0978407,1,4.15499e-05,-1.39346e-05,1.49925e-05,0.00830999,-0.00278692,0.00299849,0,0,0,0,0.0460313,0.522027,-0.988594,33.5625,1,3699,33334379
153,2,-0.672904,-0.0744475,9.78921,0.0618812,-0.633437,0.980087,-0.00673014,-0.000752989,0.097892,1,4.20379e-05,-5.79473e-06,2.10966e-05,0.00840758,-0.00115895,0.00421932,0,0,0,0,0.0456484,0.520514,-0.985595,33.5625,1,3700,33334479
153,3,-0.672904,-0.0744475,9.78921,0.0618812,-0.633437,0.980087,-0.00673014,-0.000752989,0.097892,1,4.20379e-05,-5.79473e-06,2.10966e-05,0.00840758,-0.00115895,0.00421932,0,0,0,0,0.0456484,0.520514,-0.985595,33.5625,1,3700,33334479
153,4,-0.677521,-0.0717225,9.79165,0.0622611,-0.630188,0.980661,-0.00677716,-0.00072755,0.0979163,1,5.10104e-05,-1.01051e-05,2.47189e-05,0.0102021,-0.00202103,0.00494378,0,0,0,0,0.0476389,0.520931,-0.982565,33.5625,1,3701,33334579
154,1,-0.677521,-0.0717225,9.79165,0.0622611,-0.630188,0.980661,-0.00677716,-0.00072755,0.0979163,1,5.10104e-05,-1.01051e-05,2.47189e-05,0.0102021,-0.00202103,0.00494378,0,0,0,0,0.0476389,0.520931,-0.982565,33.5625,1,3701,33334579
154,2,-0.676604,-0.0662979,9.78795,0.0585145,-0.623078,0.97856,-0.00676832,-0.000670455,0.0978793,1,3.61668e-05,-1.18486e-05,2.92548e-05,0.00723337,-0.00236972,0.00585095,0,0,0,0,0.0471174,0.523374,-0.982508,33.5625,1,3702,33334679
155,1,-0.676604,-0.0662979,9.78795,0.0585145,-0.623078,0.97856,-0.00676832,-0.000670455,0.0978793,1,3.61668e-05,-1.18486e-05,2.92548e-05,0.00723337,-0.00236972,0.00585095,0,0,0,0,0.0471174,0.523374,-0.982508,33.5625,1,3702,33334679
155,2,-0.685206,-0.090769,9.79561,0.0569288,-0.648573,0.984448,-0.00685427,-0.000919083,0.0979558,1,5.79917e-05,-1.13302e-05,2.37138e-06,0.0115983,-0.00226603,0.000474275,0,0,0,0,0.0484787,0.523904,-0.985533,33.5625,1,3703,33334779
156,1,-0.685206,-0.090769,9.79561,0.0569288,-0.648573,0.984448,-0.00685427,-0.000919083,0.0979558,1,5.79917e-05,-1.13302e-05,2.37138e-06,0.0115983,-0.00226603,0.000474275,0,0,0,0,0.0484787,0.523904,-0.985533,33.5625,1,3703,33334779
156,2,-0.682686,-0.0960133,9.78604,0.0550964,-0.653712,0.976487,-0.00682706,-0.00096943,0.0978602,1,4.71714e-05,-1.06537e-06,4.69059e-06,0.00943429,-0.000213074,0.000938118,0,0,0,0,0.0493915,0.523932,-0.987557,33.5625,1,3704,33334879
157,1,-0.682686,-0.0960133,9.78604,0.0550964,-0.653712,0.976487,-0.00682706,-0.00096943,0.0978602,1,4.71714e-05,-1.06537e-06,4.69059e-06,0.00943429,-0.000213074,0.000938118,0,0,0,0,0.0493915,0.523932,-0.987557,33.5625,1,3704,33334879
157,2,-0.683261,-0.0724569,9.78694,0.048946,-0.629846,0.977201,-0.00683674,-0.000732996,0.097869,1,4.18611e-05,-2.12118e-05,1.70637e-05,0.00837222,-0.00424236,0.00341274,0,0,0,0,0.0470306,0.521992,-0.987084,33.5625,1,3705,33334979
158,1,-0.683261,-0.0724569,9.78694,0.048946,-0.629846,0.977201,-0.00683674,-0.000732996,0.097869,1,4.18611e-05,-2.12118e-05,1.70637e-05,0.00837222,-0.00424236,0.00341274,0,0,0,0,0.0470306,0.521992,-0.987084,33.5625,1,3705,33334979
158,2,-0.678522,-0.0784948,9.7821,0.0563196,-0.634843,0.9745,-0.00678797,-0.000793938,0.0978207,1,4.52997e-05,-1.41147e-05,9.40998e-06,0.00905994,-0.00282294,0.001882,0,0,0,0,0.0446781,0.521009,-0.98558,33.5625,1,3706,33335079
158,3,-0.678522,-0.0784948,9.7821,0.0563196,-0.634843,0.9745,-0.00678797,-0.000793938,0.0978207,1,4.52997e-05,-1.41147e-05,9.40998e-06,0.00905994,-0.00282294,0.001882,0,0,0,0,0.0446781,0.521009,-0.98558,33.5625,1,3706,33335079
158,4,-0.673429,-0.075992,9.79226,0.0624805,-0.636114,0.98087,-0.00673656,-0.000770944,0.0979224,1,5.57286e-05,-1.16988e-05,8.16595e-06,0.0111457,-0.00233977,0.00163319,0,0,0,0,0.046196,0.522388,-0.981516,33.5625,1,3707,33335179
159,1,-0.673429,-0.075992,9.79226,0.0624805,-0.636114,0.98087,-0.00673656,-0.000770944,0.0979224,1,5.57286e-05,-1.16988e-05,8.16595e-06,0.0111457,-0.00233977,0.00163319,0,0,0,0,0.046196,0.522388,-0.981516,33.5625,1,3707,33335179
159,2,-0.671129,-0.0712235,9.78652,0.0641786,-0.628842,0.976128,-0.00671184,-0.000723489,0.0978651,1,5.64551e-05,-2.91499e-06,1.51727e-05,0.011291,-0.000582999,0.00303454,0,0,0,0,0.0471383,0.524322,-0.980972,33.5625,1,3708,33335279
160,1,-0.671129,-0.0712235,9.78652,0.0641786,-0.628842,0.976128,-0.00671184,-0.000723489,0.0978651,1,5.64551e-05,-2.91499e-06,1.51727e-05,0.011291,-0.000582999,0.00303454,0,0,0,0,0.0471383,0.524322,-0.980972,33.5625,1,3708,33335279
160,2,-0.671069,-0.0813759,9.79016,0.0616737,-0.641546,0.980114,-0.00671067,-0.000820691,0.0979016,1,3.37531e-05,-1.24684e-07,2.41024e-05,0.00675063,-2.49368e-05,0.00482049,0,0,0,0,0.0480307,0.524847,-0.98349,33.5625,1,3709,33335379
161,1,-0.671069,-0.0813759,9.79016,0.0616737,-0.641546,0.980114,-0.00671067,-0.000820691,0.0979016,1,3.37531e-05,-1.24684e-07,2.41024e-05,0.00675063,-2.49368e-05,0.00482049,0,0,0,0,0.0480307,0.524847,-0.98349,33.5625,1,3709,33335379
161,2,-0.684917,-0.0873517,9.79733,0.05267,-0.649166,0.983442,-0.00685023,-0.000881865,0.0979732,1,4.10304e-05,-5.63628e-06,2.25081e-05,0.00820608,-0.00112726,0.00450163,0,0,0,0,0.0465295,0.523938,-0.986533,33.5625,1,3710,33335479
162,1,-0.684917,-0.0873517,9.79733,0.05267,-0.649166,0.983442,-0.00685023,-0.000881865,0.0979732,1,4.10304e-05,-5.63628e-06,2.25081e-05,0.00820608,-0.00112726,0.00450163,0,0,0,0,0.0465295,0.523938,-0.986533,33.5625,1,3710,33335479
162,2,-0.674465,-0.0812767,9.779,0.0625379,-0.643484,0.965714,-0.00674654,-0.000821048,0.0977898,1,4.23342e-05,-9.64482e-06,4.26141e-08,0.00846683,-0.00192896,8.52283e-06,0,0,0,0,0.0456034,0.521028,-0.987099,33.5625,1,3711,33335579
162,3,-0.674465,-0.0812767,9.779,0.0625379,-0.643484,0.965714,-0.00674654,-0.000821048,0.0977898,1,4.23342e-05,-9.64482e-06,4.26141e-08,0.00846683,-0.00192896,8.52283e-06,0,0,0,0,0.0456034,0.521028,-0.987099,33.5625,1,3711,33335579
162,4,-0.680036,-0.0848653,9.7841,0.0611621,-0.652629,0.972287,-0.00680536,-0.000860463,0.0978406,1,5.92656e-05,-2.56991e-05,1.56013e-05,0.0118531,-0.00513983,0.00312025,0,0,0,0,0.0451754,0.52003,-0.985604,33.5625,1,3712,33335679
163,1,-0.680036,-0.0848653,9.7841,0.0611621,-0.652629,0.972287,-0.00680536,-0.000860463,0.0978406,1,5.92656e-05,-2.56991e-05,1.56013e-05,0.0118531,-0.00513983,0.00312025,0,0,0,0,0.0451754,0.52003,-0.985604,33.5625,1,3712,33335679
163,2,-0.681003,-0.0750194,9.78757,0.0552668,-0.63367,0.9795,-0.0068115,-0.000760879,0.0978755,1,5.20608e-05,-7.80452e-06,3.61951e-05,0.0104122,-0.0015609,0.00723901,0,0,0,0,0.0452209,0.52096,-0.983058,33.5625,1,3713,33335779
163,3,-0.681003,-0.0750194,9.78757,0.0552668,-0.63367,0.9795,-0.0068115,-0.000760879,0.0978755,1,5.20608e-05,-7.80452e-06,3.61951e-05,0.0104122,-0.0015609,0.00723901,0,0,0,0,0.0452209,0.52096,-0.983058,33.5625,1,3713,33335779
163,4,-0.676922,-0.072783,9.78417,0.0609166,-0.636656,0.974152,-0.00677013,-0.000737197,0.0978416,1,4.49421e-05,-4.97938e-06,4.22725e-05,0.00898842,-0.000995875,0.00845449,0,0,0,0,0.0471051,0.523383,-0.983013,33.5625,1,3714,33335879
164,1,-0.676922,-0.072783,9.78417,0.0609166,-0.636656,0.974152,-0.00677013,-0.000737197,0.0978416,1,4.49421e-05,-4.97938e-06,4.22725e-05,0.00898842,-0.000995875,0.00845449,0,0,0,0,0.0471051,0.523383,-0.983013,33.5625,1,3714,33335879
164,2,-0.674174,-0.0775279,9.78275,0.0625116,-0.640199,0.969732,-0.00674411,-0.000784352,0.0978273,1,4.47574e-05,-1.23253e-05,2.34209e-05,0.00895149,-0.00246506,0.00468419,0,0,0,0,0.0480018,0.524387,-0.985015,33.5625,1,3715,33335979
165,1,-0.674174,-0.0775279,9.78275,0.0625116,-0.640199,0.969732,-0.00674411,-0.000784352,0.0978273,1,4.47574e-05,-1.23253e-05,2.34209e-05,0.00895149,-0.00246506,0.00468419,0,0,0,0,0.0480018,0.524387,-0.985015,33.5625,1,3715,33335979
165,2,-0.671687,-0.0804723,9.7895,0.0657574,-0.64068,0.974891,-0.00671844,-0.000815069,0.0978948,1,5.17277e-05,-8.12824e-06,1.62234e-05,0.0103455,-0.00162565,0.00324468,0,0,0,0,0.0474585,0.52299,-0.988579,33.5625,1,3716,33336079
165,3,-0.671687,-0.0804723,9.7895,0.0657574,-0.64068,0.974891,-0.00671844,-0.000815069,0.0978948,1,5.17277e-05,-8.12824e-06,1.62234e-05,0.0103455,-0.00162565,0.00324468,0,0,0,0,0.0474585,0.52299,-0.988579,33.5625,1,3716,33336079
165,4,-0.682389,-0.0810646,9.7821,0.0556722,-0.645911,0.97224,-0.00682434,-0.000818058,0.0978209,1,3.63942e-05,-2.42709e-06,2.13925e-05,0.00727885,-0.000485418,0.0042785,0,0,0,0,0.0480047,0.52053,-0.987626,33.5625,1,3717,33336179
166,1,-0.682389,-0.0810646,9.7821,0.0556722,-0.645911,0.97224,-0.00682434,-0.000818058,0.0978209,1,3.63942e-05,-2.42709e-06,2.13925e-05,0.00727885,-0.000485418,0.0042785,0,0,0,0,0.0480047,0.52053,-0.987626,33.5625,1,3717,33336179
166,2,-0.67143,-0.0687094,9.79164,0.0609617,-0.634308,0.980985,-0.00671736,-0.000694782,0.0979161,1,3.78172e-05,-1.57655e-05,2.10368e-05,0.00756344,-0.0031531,0.00420736,0,0,0,0,0.0456731,0.520495,-0.984586,33.5625,1,3718,33336279
167,1,-0.67143,-0.0687094,9.79164,0.0609617,-0.634308,0.980985,-0.00671736,-0.000694782,0.0979161,1,3.78172e-05,-1.57655e-05,2.10368e-05,0.00756344,-0.0031531,0.00420736,0,0,0,0,0.0456731,0.520495,-0.984586,33.5625,1,3718,33336279
167,2,-0.681723,-0.0700709,9.79643,0.0546938,-0.633697,0.985955,-0.0068174,-0.000709828,0.0979642,1,4.57186e-05,-9.50141e-07,1.18689e-05,0.00914372,-0.000190028,0.00237377,0,0,0,0,0.0462159,0.520446,-0.982064,33.5625,1,3719,33336379
168,1,-0.681723,-0.0700709,9.79643,0.0546938,-0.633697,0.985955,-0.0068174,-0.000709828,0.0979642,1,4.57186e-05,-9.50141e-07,1.18689e-05,0.00914372,-0.000190028,0.00237377,0,0,0,0,0.0462159,0.520446,-0.982064,33.5625,1,3719,33336379
168,2,-0.672811,-0.0721809,9.795,0.0652637,-0.63478,0.988549,-0.00673006,-0.000729257,0.0979498,1,3.68672e-05,-1.00865e-05,1.67434e-05,0.00737344,-0.00201731,0.00334868,0,0,0,0,0.048565,0.523841,-0.981999,33.5625,1,3720,33336479
168,3,-0.672811,-0.0721809,9.795,0.0652637,-0.63478,0.988549,-0.00673006,-0.000729257,0.0979498,1,3.68672e-05,-1.00865e-05,1.67434e-05,0.00737344,-0.00201731,0.00334868,0,0,0,0,0.048565,0.523841,-0.981999,33.5625,1,3720,33336479
168,4,-0.677612,-0.0771762,9.78075,0.0593448,-0.640752,0.966597,-0.00677812,-0.000780926,0.0978072,1,4.52863e-05,-1.03809e-05,2.25232e-05,0.00905727,-0.00207617,0.00450464,0,0,0,0,0.0499225,0.525337,-0.984498,33.5625,1,3721,33336579
168,5,-0.677612,-0.0771762,9.78075,0.0593448,-0.640752,0.966597,-0.00677812,-0.000780926,0.0978072,1,4.52863e-05,-1.03809e-05,2.25232e-05,0.00905727,-0.00207617,0.00450464,0,0,0,0,0.0499225,0.525337,-0.984498,33.5625,1,3721,33336579
168,6,-0.684487,-0.0718115,9.78118,0.0458757,-0.636284,0.968817,-0.00684524,-0.000725895,0.0978117,1,3.91863e-05,-1.95214e-06,8.28869e-06,0.00783726,-0.000390429,0.00165774,0,0,0,0,0.0479197,0.524929,-0.988033,33.5625,1,3722,33336679
169,1,-0.684487,-0.0718115,9.78118,0.0458757,-0.636284,0.968817,-0.00684524,-0.000725895,0.0978117,1,3.91863e-05,-1.95214e-06,8.28869e-06,0.00783726,-0.000390429,0.00165774,0,0,0,0,0.0479197,0.524929,-0.988033,33.5625,1,3722,33336679
169,2,-0.684972,-0.0782798,9.78927,0.0499972,-0.649246,0.9781,-0.00685122,-0.000791889,0.0978925,1,4.49439e-05,-7.86765e-06,2.13178e-05,0.00898878,-0.00157353,0.00426355,0,0,0,0,0.0474956,0.522963,-0.987065,33.5625,1,3723,33336779
169,3,-0.684972,-0.0782798,9.78927,0.0499972,-0.649246,0.9781,-0.00685122,-0.000791889,0.0978925,1,4.49439e-05,-7.86765e-06,2.13178e-05,0.00898878,-0.00157353,0.00426355,0,0,0,0,0.0474956,0.522963,-0.987065,33.5625,1,3723,33336779
169,4,-0.676254,-0.080508,9.77833,0.0589381,-0.650428,0.968471,-0.00676556,-0.000814606,0.0977831,1,4.75085e-05,-1.55959e-05,1.73416e-05,0.0095017,-0.00311918,0.00346832,0,0,0,0,0.0480664,0.520484,-0.985102,33.5625,3,3724,33336879
169,5,-0.676254,-0.080508,9.77833,0.0589381,-0.650428,0.968471,-0.00676556,-0.000814606,0.0977831,1,4.75085e-05,-1.55959e-05,1.73416e-05,0.0095017,-0.00311918,0.00346832,0,0,0,0,0.0480664,0.520484,-0.985102,33.5625,3,3724,33336879
169,6,-0.676386,-0.0809705,9.79869,0.0622233,-0.650122,0.9882,-0.00676628,-0.000818929,0.0979866,1,4.56012e-05,-1.24778e-05,2.11988e-05,0.00912025,-0.00249556,0.00423977,0,0,0,0,0.046697,0.520442,-0.982066,33.5625,3,3725,33336979
169,7,-0.676386,-0.0809705,9.79869,0.0622233,-0.650122,0.9882,-0.00676628,-0.000818929,0.0979866,1,4.56012e-05,-1.24778e-05,2.11988e-05,0.00912025,-0.00249556,0.00423977,0,0,0,0,0.046697,0.520442,-0.982066,33.5625,3,3725,33336979
169,8,-0.693084,-0.0759224,9.79308,0.0417202,-0.645498,0.984564,-0.00693302,-0.000768788,0.0979305,1,4.74473e-05,-1.13116e-05,1.95706e-05,0.00948946,-0.00226233,0.00391413,0,0,0,0,0.0475985,0.52337,-0.982511,33.5625,3,3726,33337079
170,1,-0.693084,-0.0759224,9.79308,0.0417202,-0.645498,0.984564,-0.00693302,-0.000768788,0.0979305,1,4.74473e-05,-1.13116e-05,1.95706e-05,0.00948946,-0.00226233,0.00391413,0,0,0,0,0.0475985,0.52337,-0.982511,33.5625,3,3726,33337079
170,2,-0.681483,-0.0799964,9.78754,0.054842,-0.644557,0.976275,-0.00681872,-0.000807633,0.0978751,1,3.76273e-05,-2.00421e-05,2.22362e-05,0.00752546,-0.00400842,0.00444725,0,0,0,0,0.0480056,0.52342,-0.985542,33.5625,3,3727,33337179
170,3,-0.681483,-0.0799964,9.78754,0.054842,-0.644557,0.976275,-0.00681872,-0.000807633,0.0978751,1,3.76273e-05,-2.00421e-05,2.22362e-05,0.00752546,-0.00400842,0.00444725,0,0,0,0,0.0480056,0.52342,-0.985542,33.5625,3,3727,33337179
170,4,-0.678664,-0.0765924,9.79263,0.0541215,-0.644509,0.981259,-0.00678716,-0.000773359,0.0979262,1,3.63493e-05,-2.84056e-06,2.3259e-05,0.00726987,-0.000568111,0.00465181,0,0,0,0,0.0474177,0.523984,-0.989567,33.5625,3,3728,33337279
170,5,-0.678664,-0.0765924,9.79263,0.0541215,-0.644509,0.981259,-0.00678716,-0.000773359,0.0979262,1,3.63493e-05,-2.84056e-06,2.3259e-05,0.00726987,-0.000568111,0.00465181,0,0,0,0,0.0474177,0.523984,-0.989567,33.5625,3,3728,33337279
170,6,-0.677778,-0.0837456,9.78782,0.0575348,-0.651932,0.977208,-0.00678198,-0.000844861,0.0978778,1,3.70367e-05,-2.15361e-05,1.13568e-05,0.00740733,-0.00430722,0.00227136,0,0,0,0,0.0474543,0.522512,-0.989095,33.5625,3,3729,33337379
171,1,-0.677778,-0.0837456,9.78782,0.0575348,-0.651932,0.977208,-0.00678198,-0.000844861,0.0978778,1,3.70367e-05,-2.15361e-05,1.13568e-05,0.00740733,-0.00430722,0.00227136,0,0,0,0,0.0474543,0.522512,-0.989095,33.5625,3,3729,33337379
171,2,-0.685854,-0.0888882,9.80106,0.0518273,-0.655582,0.993339,-0.00686038,-0.000899616,0.0980103,1,5.38864e-05,-9.54008e-06,1.24555e-05,0.0107773,-0.00190802,0.0024911,0,0,0,0,0.046623,0.520496,-0.985095,33.5625,3,3730,33337479
171,3,-0.685854,-0.0888882,9.80106,0.0518273,-0.655582,0.993339,-0.00686038,-0.000899616,0.0980103,1,5.38864e-05,-9.54008e-06,1.24555e-05,0.0107773,-0.00190802,0.0024911,0,0,0,0,0.046623,0.520496,-0.985095,33.5625,3,3730,33337479
171,4,-0.677153,-0.0803121,9.78649,0.0568414,-0.649345,0.975617,-0.00677381,-0.000810699,0.0978646,1,3.75007e-05,-1.17867e-05,1.75572e-05,0.00750014,-0.00235735,0.00351144,0,0,0,0,0.0481119,0.521415,-0.982556,33.5625,3,3731,33337579
171,5,-0.677153,-0.0803121,9.78649,0.0568414,-0.649345,0.975617,-0.00677381,-0.000810699,0.0978646,1,3.75007e-05,-1.17867e-05,1.75572e-05,0.00750014,-0.00235735,0.00351144,0,0,0,0,0.0481119,0.521415,-0.982556,33.5625,3,3731,33337579
171,6,-0.665848,-0.0860438,9.78942,0.0685716,-0.652495,0.980139,-0.00666086,-0.000868338,0.0978939,1,3.84209e-05,-1.23996e-05,2.84201e-05,0.00768417,-0.00247993,0.00568403,0,0,0,0,0.0494741,0.524835,-0.983497,33.5625,3,3732,33337679
172,1,-0.665848,-0.0860438,9.78942,0.0685716,-0.652495,0.980139,-0.00666086,-0.000868338,0.0978939,1,3.84209e-05,-1.23996e-05,2.84201e-05,0.00768417,-0.00247993,0.00568403,0,0,0,0,0.0494741,0.524835,-0.983497,33.5625,3,3732,33337679
172,2,-0.667101,-0.0827367,9.79487,0.0621839,-0.652718,0.985363,-0.00667031,-0.000833969,0.0979486,1,3.24155e-05,3.45522e-06,1.89024e-05,0.00648309,0.000691043,0.00378047,0,0,0,0,0.0494413,0.525341,-0.984495,33.5625,3,3733,33337779
172,3,-0.667101,-0.0827367,9.79487,0.0621839,-0.652718,0.985363,-0.00667031,-0.000833969,0.0979486,1,3.24155e-05,3.45522e-06,1.89024e-05,0.00648309,0.000691043,0.00378047,0,0,0,0,0.0494413,0.525341,-0.984495,33.5625,3,3733,33337779
172,4,-0.672732,-0.0712715,9.79095,0.0572477,-0.641935,0.978908,-0.00672941,-0.000722488,0.0979093,1,4.84047e-05,-1.08386e-05,2.18486e-05,0.00968094,-0.00216772,0.00436971,0,0,0,0,0.047459,0.524436,-0.987537,33.5625,3,3734,33337879
172,5,-0.672732,-0.0712715,9.79095,0.0572477,-0.641935,0.978908,-0.00672941,-0.000722488,0.0979093,1,4.84047e-05,-1.08386e-05,2.18486e-05,0.00968094,-0.00216772,0.00436971,0,0,0,0,0.047459,0.524436,-0.987537,33.5625,3,3734,33337879
172,6,-0.668233,-0.0823757,9.79082,0.0642347,-0.652149,0.978792,-0.00668457,-0.000830723,0.097908,1,3.44515e-05,-1.1558e-05,1.64879e-05,0.00689029,-0.0023116,0.00329759,0,0,0,0,0.0465291,0.522493,-0.987576,33.5625,3,3735,33337979
173,1,-0.668233,-0.0823757,9.79082,0.0642347,-0.652149,0.978792,-0.00668457,-0.000830723,0.097908,1,3.44515e-05,-1.1558e-05,1.64879e-05,0.00689029,-0.0023116,0.00329759,0,0,0,0,0.0465291,0.522493,-0.987576,33.5625,3,3735,33337979
173,2,-0.677698,-0.0704863,9.79676,0.0549476,-0.639224,0.985405,-0.00678158,-0.000714003,0.0979672,1,4.50165e-05,-2.36389e-05,2.35714e-05,0.00900331,-0.00472778,0.00471429,0,0,0,0,0.0461134,0.521485,-0.985576,33.5625,3,3736,33338079
173,3,-0.677698,-0.0704863,9.79676,0.0549476,-0.639224,0.985405,-0.00678158,-0.000714003,0.0979672,1,4.50165e-05,-2.36389e-05,2.35714e-05,0.00900331,-0.00472778,0.00471429,0,0,0,0,0.0461134,0.521485,-0.985576,33.5625,3,3736,33338079
173,4,-0.674237,-0.0763959,9.79022,0.0578769,-0.647183,0.98144,-0.00674343,-0.000773743,0.0979021,1,4.83113e-05,-5.5916e-06,2.40247e-05,0.00966225,-0.00111832,0.00480495,0,0,0,0,0.0466562,0.521436,-0.983054,33.5625,3,3737,33338179
174,1,-0.674237,-0.0763959,9.79022,0.0578769,-0.647183,0.98144,-0.00674343,-0.000773743,0.0979021,1,4.83113e-05,-5.5916e-06,2.40247e-05,0.00966225,-0.00111832,0.00480495,0,0,0,0,0.0466562,0.521436,-0.983054,33.5625,3,3737,33338179
174,2,-0.679186,-0.0865496,9.78814,0.0536278,-0.656918,0.979233,-0.00679325,-0.000872231,0.0978812,1,3.32482e-05,-7.28116e-06,1.66241e-05,0.00664964,-0.00145623,0.00332482,0,0,0,0,0.0476023,0.522403,-0.983037,33.5625,3,3738,33338279
174,3,-0.679186,-0.0865496,9.78814,0.0536278,-0.656918,0.979233,-0.00679325,-0.000872231,0.0978812,1,3.32482e-05,-7.28116e-06,1.66241e-05,0.00664964,-0.00145623,0.00332482,0,0,0,0,0.0476023,0.522403,-0.983037,33.5625,3,3738,33338279
174,4,-0.67009,-0.0689085,9.79027,0.0629039,-0.641442,0.982024,-0.00670369,-0.000699183,0.0979024,1,5.10514e-05,-1.43274e-05,7.59962e-06,0.0102103,-0.00286547,0.00151992,0,0,0,0,0.0489351,0.523918,-0.986545,33.5625,3,3739,33338379
175,1,-0.67009,-0.0689085,9.79027,0.0629039,-0.641442,0.982024,-0.00670369,-0.000699183,0.0979024,1,5.10514e-05,-1.43274e-05,7.59962e-06,0.0102103,-0.00286547,0.00151992,0,0,0,0,0.0489351,0.523918,-0.986545,33.5625,3,3739,33338379
175,2,-0.689705,-0.0776383,9.78897,0.041689,-0.649796,0.977662,-0.00689952,-0.000785642,0.0978895,1,4.6352e-05,-1.27571e-05,1.33494e-05,0.0092704,-0.00255142,0.00266988,0,0,0,0,0.0479154,0.52445,-0.988549,33.5625,3,3740,33338479
176,1,-0.689705,-0.0776383,9.78897,0.041689,-0.649796,0.977662,-0.00689952,-0.000785642,0.0978895,1,4.6352e-05,-1.27571e-05,1.33494e-05,0.0092704,-0.00255142,0.00266988,0,0,0,0,0.0479154,0.52445,-0.988549,33.5625,3,3740,33338479
176,2,-0.677757,-0.0798929,9.79938,0.0562789,-0.649532,0.989179,-0.00677942,-0.000809418,0.0979936,1,5.26497e-05,-9.55475e-06,1.25393e-05,0.0105299,-0.00191095,0.00250786,0,0,0,0,0.0465252,0.523459,-0.987049,33.5625,3,3741,33338579
177,1,-0.677757,-0.0798929,9.79938,0.0562789,-0.649532,0.989179,-0.00677942,-0.000809418,0.0979936,1,5.26497e-05,-9.55475e-06,1.25393e-05,0.0105299,-0.00191095,0.00250786,0,0,0,0,0.0465252,0.523459,-0.987049,33.5625,3,3741,33338579
177,2,-0.675077,-0.080476,9.78885,0.0621397,-0.653775,0.980104,-0.0067533,-0.000814769,0.0978882,1,4.94606e-05,-1.31115e-05,2.41268e-05,0.00989213,-0.0026223,0.00482536,0,0,0,0,0.045657,0.521471,-0.984564,33.5625,3,3742,33338679
178,1,-0.675077,-0.080476,9.78885,0.0621397,-0.653775,0.980104,-0.0067533,-0.000814769,0.0978882,1,4.94606e-05,-1.31115e-05,2.41268e-05,0.00989213,-0.0026223,0.00482536,0,0,0,0,0.045657,0.521471,-0.984564,33.5625,3,3742,33338679
178,2,-0.681658,-0.0757241,9.78078,0.0552716,-0.65046,0.969705,-0.00682082,-0.000766379,0.0978075,1,4.56665e-05,-2.1813e-05,1.50098e-05,0.0091333,-0.0043626,0.00300196,0,0,0,0,0.0471616,0.519969,-0.983089,33.5625,3,3743,33338779
179,1,-0.681658,-0.0757241,9.78078,0.0552716,-0.65046,0.969705,-0.00682082,-0.000766379,0.0978075,1,4.56665e-05,-2.1813e-05,1.50098e-05,0.0091333,-0.0043626,0.00300196,0,0,0,0,0.0471616,0.519969,-0.983089,33.5625,3,3743,33338779
179,2,-0.684649,-0.07866,9.79503,0.0473217,-0.649119,0.983053,-0.00684797,-0.000794673,0.0979501,1,4.03691e-05,-7.61068e-06,1.2016e-05,0.00807382,-0.00152214,0.00240321,0,0,0,0,0.0485441,0.522892,-0.983536,33.5625,3,3744,33338879
180,1,-0.684649,-0.07866,9.79503,0.0473217,-0.649119,0.983053,-0.00684797,-0.000794673,0.0979501,1,4.03691e-05,-7.61068e-06,1.2016e-05,0.00807382,-0.00152214,0.00240321,0,0,0,0,0.0485441,0.522892,-0.983536,33.5625,3,3744,33338879
180,2,-0.660306,-0.0736332,9.78947,0.0745374,-0.647578,0.979676,-0.00660343,-0.000743582,0.0978947,1,3.57255e-05,-2.02634e-06,1.93362e-05,0.0071451,-0.000405269,0.00386723,0,0,0,0,0.0489844,0.523882,-0.984526,33.5625,3,3745,33338979
180,3,-0.660306,-0.0736332,9.78947,0.0745374,-0.647578,0.979676,-0.00660343,-0.000743582,0.0978947,1,3.57255e-05,-2.02634e-06,1.93362e-05,0.0071451,-0.000405269,0.00386723,0,0,0,0,0.0489844,0.523882,-0.984526,33.5625,3,3745,33338979
180,4,-0.681848,-0.0806675,9.79398,0.0503431,-0.653787,0.979372,-0.00682202,-0.000815676,0.0979395,1,4.39378e-05,-1.83451e-05,2.88638e-05,0.00878756,-0.00366903,0.00577275,0,0,0,0,0.0469656,0.524449,-0.988039,33.5625,3,3746,33339079
181,1,-0.681848,-0.0806675,9.79398,0.0503431,-0.653787,0.979372,-0.00682202,-0.000815676,0.0979395,1,4.39378e-05,-1.83451e-05,2.88638e-05,0.00878756,-0.00366903,0.00577275,0,0,0,0,0.0469656,0.524449,-0.988039,33.5625,3,3746,33339079
181,2,-0.663419,-0.0826972,9.79316,0.074418,-0.657812,0.981355,-0.00663811,-0.00083379,0.0979313,1,3.38555e-05,-2.0124e-05,1.40611e-05,0.00677109,-0.00402479,0.00281222,0,0,0,0,0.0459986,0.522533,-0.989593,33.5625,3,3747,33339179
182,1,-0.663419,-0.0826972,9.79316,0.074418,-0.657812,0.981355,-0.00663811,-0.00083379,0.0979313,1,3.38555e-05,-2.0124e-05,1.40611e-05,0.00677109,-0.00402479,0.00281222,0,0,0,0,0.0459986,0.522533,-0.989593,33.5625,3,3747,33339179
182,2,-0.676869,-0.079692,9.7909,0.0583436,-0.653615,0.979987,-0.00676991,-0.000804039,0.0979088,1,3.63793e-05,-6.21219e-06,-3.14752e-07,0.00727586,-0.00124244,-6.29504e-05,0,0,0,0,0.0455868,0.520559,-0.988119,33.5625,3,3748,33339279
183,1,-0.676869,-0.079692,9.7909,0.0583436,-0.653615,0.979987,-0.00676991,-0.000804039,0.0979088,1,3.63793e-05,-6.21219e-06,-3.14752e-07,0.00727586,-0.00124244,-6.29504e-05,0,0,0,0,0.0455868,0.520559,-0.988119,33.5625,3,3748,33339279
183,2,-0.688779,-0.0663451,9.78601,0.0502093,-0.643931,0.979643,-0.00689085,-0.000672583,0.0978598,1,4.50872e-05,-1.57937e-05,2.23255e-05,0.00901743,-0.00315874,0.00446511,0,0,0,0,0.0471454,0.520944,-0.983067,33.5625,3,3749,33339379
184,1,-0.688779,-0.0663451,9.78601,0.0502093,-0.643931,0.979643,-0.00689085,-0.000672583,0.0978598,1,4.50872e-05,-1.57937e-05,2.23255e-05,0.00901743,-0.00315874,0.00446511,0,0,0,0,0.0471454,0.520944,-0.983067,33.5625,3,3749,33339379
184,2,-0.683333,-0.0690047,9.78832,0.0506938,-0.647228,0.980088,-0.00683634,-0.000699817,0.0978829,1,4.84867e-05,-1.55228e-05,2.03606e-05,0.00969733,-0.00310457,0.00407212,0,0,0,0,0.0480834,0.522399,-0.983039,33.5625,3,3750,33339479
184,3,-0.683333,-0.0690047,9.78832,0.0506938,-0.647228,0.980088,-0.00683634,-0.000699817,0.0978829,1,4.84867e-05,-1.55228e-05,2.03606e-05,0.00969733,-0.00310457,0.00407212,0,0,0,0,0.0480834,0.522399,-0.983039,33.5625,3,3750,33339479
184,4,-0.672669,-0.0703174,9.78788,0.0609407,-0.646497,0.979289,-0.0067267,-0.000711333,0.0978788,1,3.97375e-05,-2.62433e-07,2.82622e-05,0.0079475,-5.24867e-05,0.00565244,0,0,0,0,0.0494694,0.522911,-0.985055,33.5625,3,3751,33339579
185,1,-0.672669,-0.0703174,9.78788,0.0609407,-0.646497,0.979289,-0.0067267,-0.000711333,0.0978788,1,3.97375e-05,-2.62433e-07,2.82622e-05,0.0079475,-5.24867e-05,0.00565244,0,0,0,0,0.0494694,0.522911,-0.985055,33.5625,3,3751,33339579
185,2,-0.664506,-0.078053,9.78914,0.0673089,-0.653738,0.974345,-0.00664833,-0.000792399,0.0978911,1,5.88057e-05,-1.69408e-05,2.67772e-05,0.0117611,-0.00338817,0.00535543,0,0,0,0,0.0484863,0.521971,-0.986586,33.5625,3,3752,33339679
185,3,-0.664506,-0.078053,9.78914,0.0673089,-0.653738,0.974345,-0.00664833,-0.000792399,0.0978911,1,5.88057e-05,-1.69408e-05,2.67772e-05,0.0117611,-0.00338817,0.00535543,0,0,0,0,0.0484863,0.521971,-0.986586,33.5625,3,3752,33339679
185,4,-0.668649,-0.0777993,9.79018,0.0650359,-0.654135,0.977488,-0.0066896,-0.000786957,0.0979016,1,4.43085e-05,-1.60392e-05,2.15062e-05,0.00886171,-0.00320784,0.00430125,0,0,0,0,0.0470344,0.521025,-0.987611,33.5625,3,3753,33339779
185,5,-0.668649,-0.0777993,9.79018,0.0650359,-0.654135,0.977488,-0.0066896,-0.000786957,0.0979016,1,4.43085e-05,-1.60392e-05,2.15062e-05,0.00886171,-0.00320784,0.00430125,0,0,0,0,0.0470344,0.521025,-0.987611,33.5625,3,3753,33339779
185,6,-0.68258,-0.0809317,9.78279,0.0457922,-0.6582,0.974552,-0.00682926,-0.00081877,0.0978275,1,4.68641e-05,-1.78591e-05,2.08412e-05,0.00937283,-0.00357181,0.00416823,0,0,0,0,0.0451555,0.521972,-0.985056,33.5625,3,3754,33339879
185,7,-0.68258,-0.0809317,9.78279,0.0457922,-0.6582,0.974552,-0.00682926,-0.00081877,0.0978275,1,4.68641e-05,-1.78591e-05,2.08412e-05,0.00937283,-0.00357181,0.00416823,0,0,0,0,0.0451555,0.521972,-0.985056,33.5625,3,3754,33339879
185,8,-0.675959,-0.0718033,9.79333,0.0550078,-0.648785,0.98269,-0.00675881,-0.000725896,0.0979333,1,3.88884e-05,3.84605e-06,1.82278e-05,0.00777768,0.00076921,0.00364555,0,0,0,0,0.0456982,0.521923,-0.982534,33.5625,3,3755,33339979
186,1,-0.675959,-0.0718033,9.79333,0.0550078,-0.648785,0.98269,-0.00675881,-0.000725896,0.0979333,1,3.88884e-05,3.84605e-06,1.82278e-05,0.00777768,0.00076921,0.00364555,0,0,0,0,0.0456982,0.521923,-0.982534,33.5625,3,3755,33339979
186,2,-0.678309,-0.0746678,9.79027,0.0579078,-0.652689,0.979217,-0.00678319,-0.000757219,0.0979026,1,5.19734e-05,-7.09529e-07,2.6904e-05,0.0103947,-0.000141906,0.0053808,0,0,0,0,0.049058,0.522382,-0.982539,33.5625,3,3756,33340079
186,3,-0.678309,-0.0746678,9.79027,0.0579078,-0.652689,0.979217,-0.00678319,-0.000757219,0.0979026,1,5.19734e-05,-7.09529e-07,2.6904e-05,0.0103947,-0.000141906,0.0053808,0,0,0,0,0.049058,0.522382,-0.982539,33.5625,3,3756,33340079
186,4,-0.677434,-0.0785435,9.78685,0.0569697,-0.65693,0.973525,-0.00677782,-0.000794538,0.0978682,1,4.42846e-05,-1.80003e-05,3.21212e-05,0.00885692,-0.00360006,0.00642425,0,0,0,0,0.0494656,0.523878,-0.984528,33.5625,3,3757,33340179
186,5,-0.677434,-0.0785435,9.78685,0.0569697,-0.65693,0.973525,-0.00677782,-0.000794538,0.0978682,1,4.42846e-05,-1.80003e-05,3.21212e-05,0.00885692,-0.00360006,0.00642425,0,0,0,0,0.0494656,0.523878,-0.984528,33.5625,3,3757,33340179
186,6,-0.66943,-0.0771474,9.78985,0.0651867,-0.655298,0.979356,-0.00669554,-0.000779098,0.0978983,1,3.80277e-05,-6.40766e-06,1.33311e-05,0.00760554,-0.00128153,0.00266621,0,0,0,0,0.046464,0.52495,-0.988531,33.5625,3,3758,33340279
187,1,-0.66943,-0.0771474,9.78985,0.0651867,-0.655298,0.979356,-0.00669554,-0.000779098,0.0978983,1,3.80277e-05,-6.40766e-06,1.33311e-05,0.00760554,-0.00128153,0.00266621,0,0,0,0,0.046464,0.52495,-0.988531,33.5625,3,3758,33340279
187,2,-0.681206,-0.0625053,9.77852,0.0476082,-0.64376,0.964259,-0.00681225,-0.000633355,0.0977851,1,4.17084e-05,-1.02642e-06,1.06506e-05,0.00834167,-0.000205283,0.00213012,0,0,0,0,0.0460437,0.522018,-0.988089,33.5625,3,3759,33340379
187,3,-0.681206,-0.0625053,9.77852,0.0476082,-0.64376,0.964259,-0.00681225,-0.000633355,0.0977851,1,4.17084e-05,-1.02642e-06,1.06506e-05,0.00834167,-0.000205283,0.00213012,0,0,0,0,0.0460437,0.522018,-0.988089,33.5625,3,3759,33340379
187,4,-0.676877,-0.0763114,9.78821,0.0561024,-0.654545,0.976892,-0.00676995,-0.000768985,0.097882,1,2.83439e-05,-6.20068e-06,2.38269e-05,0.00566879,-0.00124014,0.00476538,0,0,0,0,0.0461457,0.519534,-0.985619,33.5625,3,3760,33340479
188,1,-0.676877,-0.0763114,9.78821,0.0561024,-0.654545,0.976892,-0.00676995,-0.000768985,0.097882,1,2.83439e-05,-6.20068e-06,2.38269e-05,0.00566879,-0.00124014,0.00476538,0,0,0,0,0.0461457,0.519534,-0.985619,33.5625,3,3760,33340479
188,2,-0.672898,-0.0803726,9.77797,0.0593208,-0.662047,0.969986,-0.00672911,-0.000814726,0.0977796,1,5.58365e-05,-7.41329e-07,5.97152e-06,0.0111673,-0.000148266,0.0011943,0,0,0,0,0.0466928,0.519964,-0.982582,33.5625,3,3761,33340579
188,3,-0.672898,-0.0803726,9.77797,0.0593208,-0.662047,0.969986,-0.00672911,-0.000814726,0.0977796,1,5.58365e-05,-7.41329e-07,5.97152e-06,0.0111673,-0.000148266,0.0011943,0,0,0,0,0.0466928,0.519964,-0.982582,33.5625,3,3761,33340579
188,4,-0.677774,-0.084514,9.79357,0.0547161,-0.664569,0.981909,-0.00678126,-0.000852808,0.0979354,1,3.76791e-05,-1.81557e-05,2.12642e-05,0.00753583,-0.00363114,0.00425284,0,0,0,0,0.0471378,0.522877,-0.982014,33.5625,3,3762,33340679
188,5,-0.677774,-0.084514,9.79357,0.0547161,-0.664569,0.981909,-0.00678126,-0.000852808,0.0979354,1,3.76791e-05,-1.81557e-05,2.12642e-05,0.00753583,-0.00363114,0.00425284,0,0,0,0,0.0471378,0.522877,-0.982014,33.5625,3,3762,33340679
188,6,-0.686171,-0.073825,9.78965,0.0470382,-0.655439,0.979281,-0.00686157,-0.000748516,0.0978964,1,5.1029e-05,5.40038e-07,2.00403e-05,0.0102058,0.000108008,0.00400805,0,0,0,0,0.048026,0.522923,-0.985048,33.5625,3,3763,33340779
189,1,-0.686171,-0.073825,9.78965,0.0470382,-0.655439,0.979281,-0.00686157,-0.000748516,0.0978964,1,5.1029e-05,5.40038e-07,2.00403e-05,0.0102058,0.000108008,0.00400805,0,0,0,0,0.048026,0.522923,-0.985048,33.5625,3,3763,33340779
189,2,-0.678273,-0.0758643,9.7872,0.0569931,-0.654073,0.973597,-0.00678375,-0.000767061,0.0978719,1,4.18798e-05,-5.3382e-06,1.62739e-05,0.00837595,-0.00106764,0.00325477,0,0,0,0,0.0479273,0.522995,-0.989086,33.5625,3,3764,33340879
189,3,-0.678273,-0.0758643,9.7872,0.0569931,-0.654073,0.973597,-0.00678375,-0.000767061,0.0978719,1,4.18798e-05,-5.3382e-06,1.62739e-05,0.00837595,-0.00106764,0.00325477,0,0,0,0,0.0479273,0.522995,-0.989086,33.5625,3,3764,33340879
189,4,-0.673064,-0.0813829,9.78951,0.063494,-0.663753,0.975359,-0.00673375,-0.000821111,0.0978948,1,3.59769e-05,-1.60523e-05,1.76915e-05,0.00719538,-0.00321046,0.00353831,0,0,0,0,0.0469855,0.522507,-0.988588,33.5625,3,3765,33340979
189,5,-0.673064,-0.0813829,9.78951,0.063494,-0.663753,0.975359,-0.00673375,-0.000821111,0.0978948,1,3.59769e-05,-1.60523e-05,1.76915e-05,0.00719538,-0.00321046,0.00353831,0,0,0,0,0.0469855,0.522507,-0.988588,33.5625,3,3765,33340979
189,6,-0.679566,-0.0754776,9.78621,0.0489175,-0.659831,0.977354,-0.00679833,-0.000763346,0.0978618,1,4.20512e-05,-1.38578e-05,2.4965e-05,0.00841024,-0.00277155,0.00499301,0,0,0,0,0.0451673,0.520517,-0.985593,33.5625,3,3766,33341079
189,7,-0.679566,-0.0754776,9.78621,0.0489175,-0.659831,0.977354,-0.00679833,-0.000763346,0.0978618,1,4.20512e-05,-1.38578e-05,2.4965e-05,0.00841024,-0.00277155,0.00499301,0,0,0,0,0.0451673,0.520517,-0.985593,33.5625,3,3766,33341079
189,8,-0.669415,-0.0678902,9.78349,0.0651525,-0.652244,0.971946,-0.0066967,-0.00068807,0.0978347,1,4.50334e-05,-1.32042e-05,2.65965e-05,0.00900667,-0.00264085,0.00531929,0,0,0,0,0.0457514,0.52092,-0.981041,33.5625,3,3767,33341179
189,9,-0.669415,-0.0678902,9.78349,0.0651525,-0.652244,0.971946,-0.0066967,-0.00068807,0.0978347,1,4.50334e-05,-1.32042e-05,2.65965e-05,0.00900667,-0.00264085,0.00531929,0,0,0,0,0.0457514,0.52092,-0.981041,33.5625,3,3767,33341179
189,10,-0.677442,-0.0768904,9.79059,0.0552921,-0.658818,0.977865,-0.00677765,-0.000779765,0.0979056,1,5.39163e-05,-1.66763e-05,2.2452e-05,0.0107832,-0.00333526,0.00449039,0,0,0,0,0.0476274,0.523831,-0.980985,33.5625,3,3768,33341279
189,11,-0.677442,-0.0768904,9.79059,0.0552921,-0.658818,0.977865,-0.00677765,-0.000779765,0.0979056,1,5.39163e-05,-1.66763e-05,2.2452e-05,0.0107832,-0.00333526,0.00449039,0,0,0,0,0.0476274,0.523831,-0.980985,33.5625,3,3768,33341279
189,12,-0.674074,-0.0564513,9.78327,0.059806,-0.638121,0.973265,-0.00674092,-0.000576067,0.0978326,1,5.71348e-05,-1.07812e-06,2.77906e-05,0.011427,-0.000215623,0.00555812,0,0,0,0,0.050395,0.524376,-0.985531,33.5625,3,3769,33341379
190,1,-0.674074,-0.0564513,9.78327,0.059806,-0.638121,0.973265,-0.00674092,-0.000576067,0.0978326,1,5.71348e-05,-1.07812e-06,2.77906e-05,0.011427,-0.000215623,0.00555812,0,0,0,0,0.050395,0.524376,-0.985531,33.5625,3,3769,33341379
190,2,-0.675573,-0.0786229,9.79055,0.0578179,-0.662559,0.975853,-0.00675682,-0.000794035,0.0979054,1,3.96259e-05,-5.61955e-06,3.43301e-06,0.00792518,-0.00112391,0.000686603,0,0,0,0,0.0493669,0.52395,-0.988566,33.5625,3,3770,33341479
190,3,-0.675573,-0.0786229,9.79055,0.0578179,-0.662559,0.975853,-0.00675682,-0.000794035,0.0979054,1,3.96259e-05,-5.61955e-06,3.43301e-06,0.00792518,-0.00112391,0.000686603,0,0,0,0,0.0493669,0.52395,-0.988566,33.5625,3,3770,33341479
190,4,-0.681607,-0.0795206,9.79262,0.0532409,-0.663326,0.978247,-0.00681686,-0.000806033,0.0979261,1,5.37411e-05,-4.23745e-06,2.213e-05,0.0107482,-0.00084749,0.00442601,0,0,0,0,0.0479928,0.521984,-0.987089,33.5625,3,3771,33341579
191,1,-0.681607,-0.0795206,9.79262,0.0532409,-0.663326,0.978247,-0.00681686,-0.000806033,0.0979261,1,5.37411e-05,-4.23745e-06,2.213e-05,0.0107482,-0.00084749,0.00442601,0,0,0,0,0.0479928,0.521984,-0.987089,33.5625,3,3771,33341579
191,2,-0.674438,-0.0767238,9.78887,0.0539927,-0.663324,0.97914,-0.00674747,-0.000777321,0.0978884,1,5.09861e-05,-1.58198e-05,7.49913e-06,0.0101972,-0.00316395,0.00149983,0,0,0,0,0.0475691,0.521464,-0.985078,33.5625,3,3772,33341679
191,3,-0.674438,-0.0767238,9.78887,0.0539927,-0.663324,0.97914,-0.00674747,-0.000777321,0.0978884,1,5.09861e-05,-1.58198e-05,7.49913e-06,0.0101972,-0.00316395,0.00149983,0,0,0,0,0.0475691,0.521464,-0.985078,33.5625,3,3772,33341679
191,4,-0.668013,-0.0778014,9.79085,0.0630385,-0.666172,0.97943,-0.00668193,-0.000786765,0.0979083,1,4.33642e-05,-9.38949e-06,1.94256e-05,0.00867285,-0.0018779,0.00388512,0,0,0,0,0.0490457,0.522391,-0.983044,33.5625,3,3773,33341779
191,5,-0.668013,-0.0778014,9.79085,0.0630385,-0.666172,0.97943,-0.00668193,-0.000786765,0.0979083,1,4.33642e-05,-9.38949e-06,1.94256e-05,0.00867285,-0.0018779,0.00388512,0,0,0,0,0.0490457,0.522391,-0.983044,33.5625,3,3773,33341779
191,6,-0.674825,-0.067885,9.79133,0.0577946,-0.655523,0.975034,-0.00675087,-0.000689727,0.097913,1,5.37113e-05,-1.35488e-05,2.66358e-05,0.0107423,-0.00270976,0.00532715,0,0,0,0,0.0504363,0.524827,-0.983501,33.5625,3,3774,33341879
192,1,-0.674825,-0.067885,9.79133,0.0577946,-0.655523,0.975034,-0.00675087,-0.000689727,0.097913,1,5.37113e-05,-1.35488e-05,2.66358e-05,0.0107423,-0.00270976,0.00532715,0,0,0,0,0.0504363,0.524827,-0.983501,33.5625,3,3774,33341879
192,2,-0.672899,-0.0621089,9.7917,0.0594312,-0.646877,0.977672,-0.00673133,-0.000630283,0.0979167,1,4.59607e-05,-1.20178e-05,1.43277e-05,0.00919214,-0.00240355,0.00286554,0,0,0,0,0.0494247,0.524871,-0.985516,33.5625,3,3775,33341979
193,1,-0.672899,-0.0621089,9.7917,0.0594312,-0.646877,0.977672,-0.00673133,-0.000630283,0.0979167,1,4.59607e-05,-1.20178e-05,1.43277e-05,0.00919214,-0.00240355,0.00286554,0,0,0,0,0.0494247,0.524871,-0.985516,33.5625,3,3775,33341979
193,2,-0.678505,-0.0742237,9.79841,0.0533472,-0.66305,0.985038,-0.00678706,-0.000751718,0.0979839,1,4.73633e-05,-1.0375e-05,1.46608e-05,0.00947267,-0.002075,0.00293217,0,0,0,0,0.0474709,0.522981,-0.988074,33.5625,3,3776,33342079
193,3,-0.678505,-0.0742237,9.79841,0.0533472,-0.66305,0.985038,-0.00678706,-0.000751718,0.0979839,1,4.73633e-05,-1.0375e-05,1.46608e-05,0.00947267,-0.002075,0.00293217,0,0,0,0,0.0474709,0.522981,-0.988074,33.5625,3,3776,33342079
193,4,-0.680425,-0.0782878,9.79569,0.0502017,-0.666482,0.983051,-0.00680833,-0.00079151,0.0979566,1,4.31407e-05,-2.091e-05,1.32137e-05,0.00862815,-0.004182,0.00264274,0,0,0,0,0.0465613,0.520542,-0.987619,33.5625,3,3777,33342179
194,1,-0.680425,-0.0782878,9.79569,0.0502017,-0.666482,0.983051,-0.00680833,-0.00079151,0.0979566,1,4.31407e-05,-2.091e-05,1.32137e-05,0.00862815,-0.004182,0.00264274,0,0,0,0,0.0465613,0.520542,-0.987619,33.5625,3,3777,33342179
194,2,-0.666652,-0.0855798,9.78094,0.0657029,-0.672048,0.969946,-0.00666876,-0.000864821,0.0978092,1,4.47873e-05,-1.16357e-05,1.96548e-05,0.00895746,-0.00232715,0.00393095,0,0,0,0,0.0442255,0.520029,-0.985094,33.5625,3,3778,33342279
194,3,-0.666652,-0.0855798,9.78094,0.0657029,-0.672048,0.969946,-0.00666876,-0.000864821,0.0978092,1,4.47873e-05,-1.16357e-05,1.96548e-05,0.00895746,-0.00232715,0.00393095,0,0,0,0,0.0442255,0.520029,-0.985094,33.5625,3,3778,33342279
194,4,-0.684872,-0.0792045,9.79435,0.0478977,-0.666196,0.984662,-0.0068514,-0.000803926,0.0979432,1,5.87908e-05,-1.39139e-05,2.663e-05,0.0117582,-0.00278278,0.00532599,0,0,0,0,0.0457429,0.519963,-0.982073,33.5625,3,3779,33342379
195,1,-0.684872,-0.0792045,9.79435,0.0478977,-0.666196,0.984662,-0.0068514,-0.000803926,0.0979432,1,5.87908e-05,-1.39139e-05,2.663e-05,0.0117582,-0.00278278,0.00532599,0,0,0,0,0.0457429,0.519963,-0.982073,33.5625,3,3779,33342379
195,2,-0.683786,-0.0710985,9.79203,0.0501085,-0.659739,0.978501,-0.00683894,-0.000720077,0.0979202,1,4.48542e-05,-5.66271e-06,2.25569e-05,0.00897084,-0.00113254,0.00451139,0,0,0,0,0.0481081,0.522381,-0.98203,33.5625,3,3780,33342479
195,3,-0.683786,-0.0710985,9.79203,0.0501085,-0.659739,0.978501,-0.00683894,-0.000720077,0.0979202,1,4.48542e-05,-5.66271e-06,2.25569e-05,0.00897084,-0.00113254,0.00451139,0,0,0,0,0.0481081,0.522381,-0.98203,33.5625,3,3780,33342479
195,4,-0.669108,-0.0727081,9.78853,0.0643231,-0.661573,0.972728,-0.00669292,-0.000734561,0.0978851,1,3.68785e-05,-9.50315e-06,1.94536e-05,0.00737569,-0.00190063,0.00389072,0,0,0,0,0.0499794,0.523368,-0.983532,33.5625,3,3781,33342579
196,1,-0.669108,-0.0727081,9.78853,0.0643231,-0.661573,0.972728,-0.00669292,-0.000734561,0.0978851,1,3.68785e-05,-9.50315e-06,1.94536e-05,0.00737569,-0.00190063,0.00389072,0,0,0,0,0.0499794,0.523368,-0.983532,33.5625,3,3781,33342579
196,2,-0.686262,-0.0853105,9.79939,0.0512203,-0.676085,0.983978,-0.00686346,-0.000860853,0.0979938,1,3.90299e-05,-4.34009e-06,7.12447e-06,0.00780597,-0.000868019,0.00142489,0,0,0,0,0.0489508,0.521497,-0.987609,33.5625,3,3782,33342679
196,3,-0.686262,-0.0853105,9.79939,0.0512203,-0.676085,0.983978,-0.00686346,-0.000860853,0.0979938,1,3.90299e-05,-4.34009e-06,7.12447e-06,0.00780597,-0.000868019,0.00142489,0,0,0,0,0.0489508,0.521497,-0.987609,33.5625,3,3782,33342679
