frame_id,subframe_id,acc_x,acc_y,acc_z,gyro_x,gyro_y,gyro_z,mag_x,mag_y,mag_z,roll,pitch,yaw
1,0,-1.0118136405944824,-0.17489171028137207,9.754655838012695,0.009147089906036856,-0.00812448374927044,0.0050242627039551735,-0.47934618592262274,0.653979003429413,-0.8725069761276245,-0.016735590753635954,3.1739286477476507,0.13670217555052175,,,,,,
1,1,-1.0118136405944824,-0.17489171028137207,9.754655838012695,0.009147089906036856,-0.00812448374927044,0.0050242627039551735,-0.47934618592262274,0.653979003429413,-0.8725069761276245,-0.016735590753635954,3.1739286477476507,0.13670217555052175,,,,,,
1,2,-1.0118136405944824,-0.17489171028137207,9.754655838012695,0.009147089906036856,-0.00812448374927044,0.0050242627039551735,-0.47934618592262274,0.653979003429413,-0.8725069761276245,-0.016735590753635954,3.1739286477476507,0.13670217555052175,,,,,,
1,3,-1.0118136405944824,-0.17489171028137207,9.754655838012695,0.009147089906036856,-0.00812448374927044,0.0050242627039551735,-0.47934618592262274,0.653979003429413,-0.8725069761276245,-0.016735590753635954,3.1739286477476507,0.13670217555052175,,,,,,
1,4,-1.0118136405944824,-0.17489171028137207,9.754655838012695,0.009147089906036856,-0.00812448374927044,0.0050242627039551735,-0.47934618592262274,0.653979003429413,-0.8725069761276245,-0.016735590753635954,3.1739286477476507,0.13670217555052175,,,,,,
1,5,-0.981752097606659,-0.16550105810165405,9.782356262207031,0.0125590730458498,-0.009247669018805029,0.004300089552998543,-0.48023486137390137,0.6524876356124878,-0.8705158233642578,-0.011222834544739466,3.178793937339932,0.1390978378852821,,,,,,
1,6,-0.8852380514144897,-0.015652989968657497,9.761595726013185,0.010966858826577665,-0.006764013320207596,0.00508954143151641,-0.48115155100822454,0.6534261107444764,-0.8679654002189637,-0.0007764279804101623,3.1925536472358718,0.14161025566118476,,,,,,
1,7,-0.8852380514144897,-0.015652989968657497,9.761595726013185,0.010966858826577665,-0.006764013320207596,0.00508954143151641,-0.48115155100822454,0.6534261107444764,-0.8679654002189637,-0.0007764279804101623,3.1925536472358718,0.14161025566118476,,,,,,
1,8,-0.8253004550933838,-0.08369205147027971,9.780265808105469,0.0065036225132644185,-0.0022139144130051136,0.001195833319798112,-0.4806827902793884,0.6534311175346376,-0.8684725165367128,0.0010450051518261785,3.2019500940849888,0.14221147077810184,,,,,,
1,9,-0.8638227581977845,-0.05638230964541436,9.785177230834961,0.01156444288790226,-0.0022686847951263194,0.006968499161303043,-0.4792764186859131,0.6534461975097656,-0.8699938654899598,0.005912211503285822,3.211373864965747,0.1461183116358068,,,,,,
1,10,-0.8324437737464906,-0.028079153969883922,9.772319793701172,0.0095162782818079,-0.003984516020864249,0.0016126231057569387,-0.4816080033779145,0.6534120440483094,-0.8669534921646118,0.013782840953354369,3.238429907534029,0.1514105132655041,,,,,,
1,11,-0.8324437737464906,-0.028079153969883922,9.772319793701172,0.0095162782818079,-0.003984516020864249,0.0016126231057569387,-0.4816080033779145,0.6534120440483094,-0.8669534921646118,0.013782840953354369,3.238429907534029,0.1514105132655041,,,,,,
1,12,-0.8324437737464906,-0.028079153969883922,9.772319793701172,0.0095162782818079,-0.003984516020864249,0.0016126231057569387,-0.4816080033779145,0.6534120440483094,-0.8669534921646118,0.013782840953354369,3.238429907534029,0.1514105132655041,,,,,,
1,13,-0.8320508599281312,-0.11521326005458832,9.797714233398438,0.008064130321145058,-0.008240337483584883,0.005320102907717228,-0.4788361191749573,0.6544357538223267,-0.8709840178489686,0.022664144837073713,3.2589646066538016,0.15607540299763947,,,,,,
1,14,-0.8320508599281312,-0.11521326005458832,9.797714233398438,0.008064130321145058,-0.008240337483584883,0.005320102907717228,-0.4788361191749573,0.6544357538223267,-0.8709840178489686,0.022664144837073713,3.2589646066538016,0.15607540299763947,,,,,,
1,15,-0.8320508599281312,-0.11521326005458832,9.797714233398438,0.008064130321145058,-0.008240337483584883,0.005320102907717228,-0.4788361191749573,0.6544357538223267,-0.8709840178489686,0.022664144837073713,3.2589646066538016,0.15607540299763947,,,,,,
1,16,-0.7675279378890991,-0.11373044550418854,9.790507316589357,0.012726725079119207,-0.009411148726940155,0.0024814954958856106,-0.4802471995353699,0.652496635913849,-0.8710206151008607,0.027884920685309303,3.264720496280393,0.15737881121364725,,,,,,
1,17,-0.6973297595977783,-0.03230629488825799,9.799209594726562,0.009637764655053617,-0.00865455809980631,0.004740359261631966,-0.47964364290237427,0.6495119929313661,-0.8680593371391297,0.033692179840476275,3.277215138789629,0.1614056659403302,,,,,,
1,18,-0.6973297595977783,-0.03230629488825799,9.799209594726562,0.009637764655053617,-0.00865455809980631,0.004740359261631966,-0.47964364290237427,0.6495119929313661,-0.8680593371391297,0.033692179840476275,3.277215138789629,0.1614056659403302,,,,,,
1,19,-0.757839560508728,-0.08548377454280853,9.801531791687013,0.009228695183992386,-0.007737755309790374,0.0024523939937353134,-0.48256644606590277,0.6524536013603212,-0.86747545003891,0.03683603825535907,3.283764456286899,0.1626703291828005,,,,,,
1,20,-0.739781677722931,-0.08667203038930894,9.760005950927734,0.009096815250813963,-0.00636649876832962,0.0017914765048772097,-0.4826276600360871,0.6539438962936401,-0.8689571619033813,0.03984477020873016,3.291063569978775,0.16354639405587013,,,,,,
1,21,-0.7784792184829712,-0.029355609789490703,9.813024520874023,0.009451459161937239,-0.01176965981721878,0.0016682170098647477,-0.4811316132545471,0.6514840126037598,-0.8685137033462524,0.05583873920708863,3.32301504086569,0.16999349996591287,,,,,,
1,22,-0.7784792184829712,-0.029355609789490703,9.813024520874023,0.009451459161937239,-0.01176965981721878,0.0016682170098647477,-0.4811316132545471,0.6514840126037598,-0.8685137033462524,0.05583873920708863,3.32301504086569,0.16999349996591287,,,,,,
2,0,-1.0118136405944824,-0.17489171028137207,9.754655838012695,0.009147089906036856,-0.00812448374927044,0.0050242627039551735,-0.47934618592262274,0.653979003429413,-0.8725069761276245,-0.016735590753635954,3.1739286477476507,0.13670217555052175,,,,,,
2,1,-1.0118136405944824,-0.17489171028137207,9.754655838012695,0.009147089906036856,-0.00812448374927044,0.0050242627039551735,-0.47934618592262274,0.653979003429413,-0.8725069761276245,-0.016735590753635954,3.1739286477476507,0.13670217555052175,,,,,,
2,2,-1.0118136405944824,-0.17489171028137207,9.754655838012695,0.009147089906036856,-0.00812448374927044,0.0050242627039551735,-0.47934618592262274,0.653979003429413,-0.8725069761276245,-0.016735590753635954,3.1739286477476507,0.13670217555052175,,,,,,
2,3,-1.0118136405944824,-0.17489171028137207,9.754655838012695,0.009147089906036856,-0.00812448374927044,0.0050242627039551735,-0.47934618592262274,0.653979003429413,-0.8725069761276245,-0.016735590753635954,3.1739286477476507,0.13670217555052175,,,,,,
2,4,-1.0118136405944824,-0.17489171028137207,9.754655838012695,0.009147089906036856,-0.00812448374927044,0.0050242627039551735,-0.47934618592262274,0.653979003429413,-0.8725069761276245,-0.016735590753635954,3.1739286477476507,0.13670217555052175,,,,,,
2,5,-0.981752097606659,-0.16550105810165405,9.782356262207031,0.0125590730458498,-0.009247669018805029,0.004300089552998543,-0.48023486137390137,0.6524876356124878,-0.8705158233642578,-0.011222834544739466,3.178793937339932,0.1390978378852821,,,,,,
2,6,-0.8852380514144897,-0.015652989968657497,9.761595726013185,0.010966858826577665,-0.006764013320207596,0.00508954143151641,-0.48115155100822454,0.6534261107444764,-0.8679654002189637,-0.0007764279804101623,3.1925536472358718,0.14161025566118476,,,,,,
2,7,-0.8852380514144897,-0.015652989968657497,9.761595726013185,0.010966858826577665,-0.006764013320207596,0.00508954143151641,-0.48115155100822454,0.6534261107444764,-0.8679654002189637,-0.0007764279804101623,3.1925536472358718,0.14161025566118476,,,,,,
2,8,-0.8253004550933838,-0.08369205147027971,9.780265808105469,0.0065036225132644185,-0.0022139144130051136,0.001195833319798112,-0.4806827902793884,0.6534311175346376,-0.8684725165367128,0.0010450051518261785,3.2019500940849888,0.14221147077810184,,,,,,
2,9,-0.8638227581977845,-0.05638230964541436,9.785177230834961,0.01156444288790226,-0.0022686847951263194,0.006968499161303043,-0.4792764186859131,0.6534461975097656,-0.8699938654899598,0.005912211503285822,3.211373864965747,0.1461183116358068,,,,,,
2,10,-0.8324437737464906,-0.028079153969883922,9.772319793701172,0.0095162782818079,-0.003984516020864249,0.0016126231057569387,-0.4816080033779145,0.6534120440483094,-0.8669534921646118,0.013782840953354369,3.238429907534029,0.1514105132655041,,,,,,
2,11,-0.8324437737464906,-0.028079153969883922,9.772319793701172,0.0095162782818079,-0.003984516020864249,0.0016126231057569387,-0.4816080033779145,0.6534120440483094,-0.8669534921646118,0.013782840953354369,3.238429907534029,0.1514105132655041,,,,,,
2,12,-0.8324437737464906,-0.028079153969883922,9.772319793701172,0.0095162782818079,-0.003984516020864249,0.0016126231057569387,-0.4816080033779145,0.6534120440483094,-0.8669534921646118,0.013782840953354369,3.238429907534029,0.1514105132655041,,,,,,
2,13,-0.8320508599281312,-0.11521326005458832,9.797714233398438,0.008064130321145058,-0.008240337483584883,0.005320102907717228,-0.4788361191749573,0.6544357538223267,-0.8709840178489686,0.022664144837073713,3.2589646066538016,0.15607540299763947,,,,,,
2,14,-0.8320508599281312,-0.11521326005458832,9.797714233398438,0.008064130321145058,-0.008240337483584883,0.005320102907717228,-0.4788361191749573,0.6544357538223267,-0.8709840178489686,0.022664144837073713,3.2589646066538016,0.15607540299763947,,,,,,
2,15,-0.8320508599281312,-0.11521326005458832,9.797714233398438,0.008064130321145058,-0.008240337483584883,0.005320102907717228,-0.4788361191749573,0.6544357538223267,-0.8709840178489686,0.022664144837073713,3.2589646066538016,0.15607540299763947,,,,,,
2,16,-0.7675279378890991,-0.11373044550418854,9.790507316589357,0.012726725079119207,-0.009411148726940155,0.0024814954958856106,-0.4802471995353699,0.652496635913849,-0.8710206151008607,0.027884920685309303,3.264720496280393,0.15737881121364725,,,,,,
2,17,-0.6973297595977783,-0.03230629488825799,9.799209594726562,0.009637764655053617,-0.00865455809980631,0.004740359261631966,-0.47964364290237427,0.6495119929313661,-0.8680593371391297,0.033692179840476275,3.277215138789629,0.1614056659403302,,,,,,
2,18,-0.6973297595977783,-0.03230629488825799,9.799209594726562,0.009637764655053617,-0.00865455809980631,0.004740359261631966,-0.47964364290237427,0.6495119929313661,-0.8680593371391297,0.033692179840476275,3.277215138789629,0.1614056659403302,,,,,,
2,19,-0.757839560508728,-0.08548377454280853,9.801531791687013,0.009228695183992386,-0.007737755309790374,0.0024523939937353134,-0.48256644606590277,0.6524536013603212,-0.86747545003891,0.03683603825535907,3.283764456286899,0.1626703291828005,,,,,,
2,20,-0.739781677722931,-0.08667203038930894,9.760005950927734,0.009096815250813963,-0.00636649876832962,0.0017914765048772097,-0.4826276600360871,0.6539438962936401,-0.8689571619033813,0.03984477020873016,3.291063569978775,0.16354639405587013,,,,,,
2,21,-0.7784792184829712,-0.029355609789490703,9.813024520874023,0.009451459161937239,-0.01176965981721878,0.0016682170098647477,-0.4811316132545471,0.6514840126037598,-0.8685137033462524,0.05583873920708863,3.32301504086569,0.16999349996591287,,,,,,
2,22,-0.7784792184829712,-0.029355609789490703,9.813024520874023,0.009451459161937239,-0.01176965981721878,0.0016682170098647477,-0.4811316132545471,0.6514840126037598,-0.8685137033462524,0.05583873920708863,3.32301504086569,0.16999349996591287,,,,,,
3,0,-1.0118136405944824,-0.17489171028137207,9.754655838012695,0.009147089906036856,-0.00812448374927044,0.0050242627039551735,-0.47934618592262274,0.653979003429413,-0.8725069761276245,-0.016735590753635954,3.1739286477476507,0.13670217555052175,,,,,,
3,1,-1.0118136405944824,-0.17489171028137207,9.754655838012695,0.009147089906036856,-0.00812448374927044,0.0050242627039551735,-0.47934618592262274,0.653979003429413,-0.8725069761276245,-0.016735590753635954,3.1739286477476507,0.13670217555052175,,,,,,
3,2,-1.0118136405944824,-0.17489171028137207,9.754655838012695,0.009147089906036856,-0.00812448374927044,0.0050242627039551735,-0.47934618592262274,0.653979003429413,-0.8725069761276245,-0.016735590753635954,3.1739286477476507,0.13670217555052175,,,,,,
3,3,-1.0118136405944824,-0.17489171028137207,9.754655838012695,0.009147089906036856,-0.00812448374927044,0.0050242627039551735,-0.47934618592262274,0.653979003429413,-0.8725069761276245,-0.016735590753635954,3.1739286477476507,0.13670217555052175,,,,,,
3,4,-1.0118136405944824,-0.17489171028137207,9.754655838012695,0.009147089906036856,-0.00812448374927044,0.0050242627039551735,-0.47934618592262274,0.653979003429413,-0.8725069761276245,-0.016735590753635954,3.1739286477476507,0.13670217555052175,,,,,,
3,5,-0.981752097606659,-0.16550105810165405,9.782356262207031,0.0125590730458498,-0.009247669018805029,0.004300089552998543,-0.48023486137390137,0.6524876356124878,-0.8705158233642578,-0.011222834544739466,3.178793937339932,0.1390978378852821,,,,,,
3,6,-0.8852380514144897,-0.015652989968657497,9.761595726013185,0.010966858826577665,-0.006764013320207596,0.00508954143151641,-0.48115155100822454,0.6534261107444764,-0.8679654002189637,-0.0007764279804101623,3.1925536472358718,0.14161025566118476,,,,,,
3,7,-0.8852380514144897,-0.015652989968657497,9.761595726013185,0.010966858826577665,-0.006764013320207596,0.00508954143151641,-0.48115155100822454,0.6534261107444764,-0.8679654002189637,-0.0007764279804101623,3.1925536472358718,0.14161025566118476,,,,,,
3,8,-0.8253004550933838,-0.08369205147027971,9.780265808105469,0.0065036225132644185,-0.0022139144130051136,0.001195833319798112,-0.4806827902793884,0.6534311175346376,-0.8684725165367128,0.0010450051518261785,3.2019500940849888,0.14221147077810184,,,,,,
3,9,-0.8638227581977845,-0.05638230964541436,9.785177230834961,0.01156444288790226,-0.0022686847951263194,0.006968499161303043,-0.4792764186859131,0.6534461975097656,-0.8699938654899598,0.005912211503285822,3.211373864965747,0.1461183116358068,,,,,,
3,10,-0.8324437737464906,-0.028079153969883922,9.772319793701172,0.0095162782818079,-0.003984516020864249,0.0016126231057569387,-0.4816080033779145,0.6534120440483094,-0.8669534921646118,0.013782840953354369,3.238429907534029,0.1514105132655041,,,,,,
3,11,-0.8324437737464906,-0.028079153969883922,9.772319793701172,0.0095162782818079,-0.003984516020864249,0.0016126231057569387,-0.4816080033779145,0.6534120440483094,-0.8669534921646118,0.013782840953354369,3.238429907534029,0.1514105132655041,,,,,,
3,12,-0.8324437737464906,-0.028079153969883922,9.772319793701172,0.0095162782818079,-0.003984516020864249,0.0016126231057569387,-0.4816080033779145,0.6534120440483094,-0.8669534921646118,0.013782840953354369,3.238429907534029,0.1514105132655041,,,,,,
3,13,-0.8320508599281312,-0.11521326005458832,9.797714233398438,0.008064130321145058,-0.008240337483584883,0.005320102907717228,-0.4788361191749573,0.6544357538223267,-0.8709840178489686,0.022664144837073713,3.2589646066538016,0.15607540299763947,,,,,,
3,14,-0.8320508599281312,-0.11521326005458832,9.797714233398438,0.008064130321145058,-0.008240337483584883,0.005320102907717228,-0.4788361191749573,0.6544357538223267,-0.8709840178489686,0.022664144837073713,3.2589646066538016,0.15607540299763947,,,,,,
3,15,-0.8320508599281312,-0.11521326005458832,9.797714233398438,0.008064130321145058,-0.008240337483584883,0.005320102907717228,-0.4788361191749573,0.6544357538223267,-0.8709840178489686,0.022664144837073713,3.2589646066538016,0.15607540299763947,,,,,,
3,16,-0.7675279378890991,-0.11373044550418854,9.790507316589357,0.012726725079119207,-0.009411148726940155,0.0024814954958856106,-0.4802471995353699,0.652496635913849,-0.8710206151008607,0.027884920685309303,3.264720496280393,0.15737881121364725,,,,,,
3,17,-0.6973297595977783,-0.03230629488825799,9.799209594726562,0.009637764655053617,-0.00865455809980631,0.004740359261631966,-0.47964364290237427,0.6495119929313661,-0.8680593371391297,0.033692179840476275,3.277215138789629,0.1614056659403302,,,,,,
3,18,-0.6973297595977783,-0.03230629488825799,9.799209594726562,0.009637764655053617,-0.00865455809980631,0.004740359261631966,-0.47964364290237427,0.6495119929313661,-0.8680593371391297,0.033692179840476275,3.277215138789629,0.1614056659403302,,,,,,
3,19,-0.757839560508728,-0.08548377454280853,9.801531791687013,0.009228695183992386,-0.007737755309790374,0.0024523939937353134,-0.48256644606590277,0.6524536013603212,-0.86747545003891,0.03683603825535907,3.283764456286899,0.1626703291828005,,,,,,
3,20,-0.739781677722931,-0.08667203038930894,9.760005950927734,0.009096815250813963,-0.00636649876832962,0.0017914765048772097,-0.4826276600360871,0.6539438962936401,-0.8689571619033813,0.03984477020873016,3.291063569978775,0.16354639405587013,,,,,,
3,21,-0.7784792184829712,-0.029355609789490703,9.813024520874023,0.009451459161937239,-0.01176965981721878,0.0016682170098647477,-0.4811316132545471,0.6514840126037598,-0.8685137033462524,0.05583873920708863,3.32301504086569,0.16999349996591287,,,,,,
3,22,-0.7784792184829712,-0.029355609789490703,9.813024520874023,0.009451459161937239,-0.01176965981721878,0.0016682170098647477,-0.4811316132545471,0.6514840126037598,-0.8685137033462524,0.05583873920708863,3.32301504086569,0.16999349996591287,,,,,,
4,0,-1.0118136405944824,-0.17489171028137207,9.754655838012695,0.009147089906036856,-0.00812448374927044,0.0050242627039551735,-0.47934618592262274,0.653979003429413,-0.8725069761276245,-0.016735590753635954,3.1739286477476507,0.13670217555052175,,,,,,
4,1,-1.0118136405944824,-0.17489171028137207,9.754655838012695,0.009147089906036856,-0.00812448374927044,0.0050242627039551735,-0.47934618592262274,0.653979003429413,-0.8725069761276245,-0.016735590753635954,3.1739286477476507,0.13670217555052175,,,,,,
4,2,-1.0118136405944824,-0.17489171028137207,9.754655838012695,0.009147089906036856,-0.00812448374927044,0.0050242627039551735,-0.47934618592262274,0.653979003429413,-0.8725069761276245,-0.016735590753635954,3.1739286477476507,0.13670217555052175,,,,,,
4,3,-1.0118136405944824,-0.17489171028137207,9.754655838012695,0.009147089906036856,-0.00812448374927044,0.0050242627039551735,-0.47934618592262274,0.653979003429413,-0.8725069761276245,-0.016735590753635954,3.1739286477476507,0.13670217555052175,,,,,,
4,4,-1.0118136405944824,-0.17489171028137207,9.754655838012695,0.009147089906036856,-0.00812448374927044,0.0050242627039551735,-0.47934618592262274,0.653979003429413,-0.8725069761276245,-0.016735590753635954,3.1739286477476507,0.13670217555052175,,,,,,
4,5,-0.981752097606659,-0.16550105810165405,9.782356262207031,0.0125590730458498,-0.009247669018805029,0.004300089552998543,-0.48023486137390137,0.6524876356124878,-0.8705158233642578,-0.011222834544739466,3.178793937339932,0.1390978378852821,,,,,,
4,6,-0.8852380514144897,-0.015652989968657497,9.761595726013185,0.010966858826577665,-0.006764013320207596,0.00508954143151641,-0.48115155100822454,0.6534261107444764,-0.8679654002189637,-0.0007764279804101623,3.1925536472358718,0.14161025566118476,,,,,,
4,7,-0.8852380514144897,-0.015652989968657497,9.761595726013185,0.010966858826577665,-0.006764013320207596,0.00508954143151641,-0.48115155100822454,0.6534261107444764,-0.8679654002189637,-0.0007764279804101623,3.1925536472358718,0.14161025566118476,,,,,,
4,8,-0.8253004550933838,-0.08369205147027971,9.780265808105469,0.0065036225132644185,-0.0022139144130051136,0.001195833319798112,-0.4806827902793884,0.6534311175346376,-0.8684725165367128,0.0010450051518261785,3.2019500940849888,0.14221147077810184,,,,,,
4,9,-0.8638227581977845,-0.05638230964541436,9.785177230834961,0.01156444288790226,-0.0022686847951263194,0.006968499161303043,-0.4792764186859131,0.6534461975097656,-0.8699938654899598,0.005912211503285822,3.211373864965747,0.1461183116358068,,,,,,
4,10,-0.8324437737464906,-0.028079153969883922,9.772319793701172,0.0095162782818079,-0.003984516020864249,0.0016126231057569387,-0.4816080033779145,0.6534120440483094,-0.8669534921646118,0.013782840953354369,3.238429907534029,0.1514105132655041,,,,,,
4,11,-0.8324437737464906,-0.028079153969883922,9.772319793701172,0.0095162782818079,-0.003984516020864249,0.0016126231057569387,-0.4816080033779145,0.6534120440483094,-0.8669534921646118,0.013782840953354369,3.238429907534029,0.1514105132655041,,,,,,
4,12,-0.8324437737464906,-0.028079153969883922,9.772319793701172,0.0095162782818079,-0.003984516020864249,0.0016126231057569387,-0.4816080033779145,0.6534120440483094,-0.8669534921646118,0.013782840953354369,3.238429907534029,0.1514105132655041,,,,,,
4,13,-0.8320508599281312,-0.11521326005458832,9.797714233398438,0.008064130321145058,-0.008240337483584883,0.005320102907717228,-0.4788361191749573,0.6544357538223267,-0.8709840178489686,0.022664144837073713,3.2589646066538016,0.15607540299763947,,,,,,
4,14,-0.8320508599281312,-0.11521326005458832,9.797714233398438,0.008064130321145058,-0.008240337483584883,0.005320102907717228,-0.4788361191749573,0.6544357538223267,-0.8709840178489686,0.022664144837073713,3.2589646066538016,0.15607540299763947,,,,,,
4,15,-0.8320508599281312,-0.11521326005458832,9.797714233398438,0.008064130321145058,-0.008240337483584883,0.005320102907717228,-0.4788361191749573,0.6544357538223267,-0.8709840178489686,0.022664144837073713,3.2589646066538016,0.15607540299763947,,,,,,
4,16,-0.7675279378890991,-0.11373044550418854,9.790507316589357,0.012726725079119207,-0.009411148726940155,0.0024814954958856106,-0.4802471995353699,0.652496635913849,-0.8710206151008607,0.027884920685309303,3.264720496280393,0.15737881121364725,,,,,,
4,17,-0.6973297595977783,-0.03230629488825799,9.799209594726562,0.009637764655053617,-0.00865455809980631,0.004740359261631966,-0.47964364290237427,0.6495119929313661,-0.8680593371391297,0.033692179840476275,3.277215138789629,0.1614056659403302,,,,,,
4,18,-0.6973297595977783,-0.03230629488825799,9.799209594726562,0.009637764655053617,-0.00865455809980631,0.004740359261631966,-0.47964364290237427,0.6495119929313661,-0.8680593371391297,0.033692179840476275,3.277215138789629,0.1614056659403302,,,,,,
4,19,-0.757839560508728,-0.08548377454280853,9.801531791687013,0.009228695183992386,-0.007737755309790374,0.0024523939937353134,-0.48256644606590277,0.6524536013603212,-0.86747545003891,0.03683603825535907,3.283764456286899,0.1626703291828005,,,,,,
4,20,-0.739781677722931,-0.08667203038930894,9.760005950927734,0.009096815250813963,-0.00636649876832962,0.0017914765048772097,-0.4826276600360871,0.6539438962936401,-0.8689571619033813,0.03984477020873016,3.291063569978775,0.16354639405587013,,,,,,
4,21,-0.7784792184829712,-0.029355609789490703,9.813024520874023,0.009451459161937239,-0.01176965981721878,0.0016682170098647477,-0.4811316132545471,0.6514840126037598,-0.8685137033462524,0.05583873920708863,3.32301504086569,0.16999349996591287,,,,,,
4,22,-0.7784792184829712,-0.029355609789490703,9.813024520874023,0.009451459161937239,-0.01176965981721878,0.0016682170098647477,-0.4811316132545471,0.6514840126037598,-0.8685137033462524,0.05583873920708863,3.32301504086569,0.16999349996591287,,,,,,
5,0,-1.0118136405944824,-0.17489171028137207,9.754655838012695,0.009147089906036856,-0.00812448374927044,0.0050242627039551735,-0.47934618592262274,0.653979003429413,-0.8725069761276245,-0.016735590753635954,3.1739286477476507,0.13670217555052175,,,,,,
5,1,-1.0118136405944824,-0.17489171028137207,9.754655838012695,0.009147089906036856,-0.00812448374927044,0.0050242627039551735,-0.47934618592262274,0.653979003429413,-0.8725069761276245,-0.016735590753635954,3.1739286477476507,0.13670217555052175,,,,,,
5,2,-1.0118136405944824,-0.17489171028137207,9.754655838012695,0.009147089906036856,-0.00812448374927044,0.0050242627039551735,-0.47934618592262274,0.653979003429413,-0.8725069761276245,-0.016735590753635954,3.1739286477476507,0.13670217555052175,,,,,,
5,3,-1.0118136405944824,-0.17489171028137207,9.754655838012695,0.009147089906036856,-0.00812448374927044,0.0050242627039551735,-0.47934618592262274,0.653979003429413,-0.8725069761276245,-0.016735590753635954,3.1739286477476507,0.13670217555052175,,,,,,
5,4,-1.0118136405944824,-0.17489171028137207,9.754655838012695,0.009147089906036856,-0.00812448374927044,0.0050242627039551735,-0.47934618592262274,0.653979003429413,-0.8725069761276245,-0.016735590753635954,3.1739286477476507,0.13670217555052175,,,,,,
5,5,-0.981752097606659,-0.16550105810165405,9.782356262207031,0.0125590730458498,-0.009247669018805029,0.004300089552998543,-0.48023486137390137,0.6524876356124878,-0.8705158233642578,-0.011222834544739466,3.178793937339932,0.1390978378852821,,,,,,
5,6,-0.8852380514144897,-0.015652989968657497,9.761595726013185,0.010966858826577665,-0.006764013320207596,0.00508954143151641,-0.48115155100822454,0.6534261107444764,-0.8679654002189637,-0.0007764279804101623,3.1925536472358718,0.14161025566118476,,,,,,
5,7,-0.8852380514144897,-0.015652989968657497,9.761595726013185,0.010966858826577665,-0.006764013320207596,0.00508954143151641,-0.48115155100822454,0.6534261107444764,-0.8679654002189637,-0.0007764279804101623,3.1925536472358718,0.14161025566118476,,,,,,
5,8,-0.8253004550933838,-0.08369205147027971,9.780265808105469,0.0065036225132644185,-0.0022139144130051136,0.001195833319798112,-0.4806827902793884,0.6534311175346376,-0.8684725165367128,0.0010450051518261785,3.2019500940849888,0.14221147077810184,,,,,,
5,9,-0.8638227581977845,-0.05638230964541436,9.785177230834961,0.01156444288790226,-0.0022686847951263194,0.006968499161303043,-0.4792764186859131,0.6534461975097656,-0.8699938654899598,0.005912211503285822,3.211373864965747,0.1461183116358068,,,,,,
5,10,-0.8324437737464906,-0.028079153969883922,9.772319793701172,0.0095162782818079,-0.003984516020864249,0.0016126231057569387,-0.4816080033779145,0.6534120440483094,-0.8669534921646118,0.013782840953354369,3.238429907534029,0.1514105132655041,,,,,,
5,11,-0.8324437737464906,-0.028079153969883922,9.772319793701172,0.0095162782818079,-0.003984516020864249,0.0016126231057569387,-0.4816080033779145,0.6534120440483094,-0.8669534921646118,0.013782840953354369,3.238429907534029,0.1514105132655041,,,,,,
5,12,-0.8324437737464906,-0.028079153969883922,9.772319793701172,0.0095162782818079,-0.003984516020864249,0.0016126231057569387,-0.4816080033779145,0.6534120440483094,-0.8669534921646118,0.013782840953354369,3.238429907534029,0.1514105132655041,,,,,,
5,13,-0.8320508599281312,-0.11521326005458832,9.797714233398438,0.008064130321145058,-0.008240337483584883,0.005320102907717228,-0.4788361191749573,0.6544357538223267,-0.8709840178489686,0.022664144837073713,3.2589646066538016,0.15607540299763947,,,,,,
5,14,-0.8320508599281312,-0.11521326005458832,9.797714233398438,0.008064130321145058,-0.008240337483584883,0.005320102907717228,-0.4788361191749573,0.6544357538223267,-0.8709840178489686,0.022664144837073713,3.2589646066538016,0.15607540299763947,,,,,,
5,15,-0.8320508599281312,-0.11521326005458832,9.797714233398438,0.008064130321145058,-0.008240337483584883,0.005320102907717228,-0.4788361191749573,0.6544357538223267,-0.8709840178489686,0.022664144837073713,3.2589646066538016,0.15607540299763947,,,,,,
5,16,-0.7675279378890991,-0.11373044550418854,9.790507316589357,0.012726725079119207,-0.009411148726940155,0.0024814954958856106,-0.4802471995353699,0.652496635913849,-0.8710206151008607,0.027884920685309303,3.264720496280393,0.15737881121364725,,,,,,
5,17,-0.6973297595977783,-0.03230629488825799,9.799209594726562,0.009637764655053617,-0.00865455809980631,0.004740359261631966,-0.47964364290237427,0.6495119929313661,-0.8680593371391297,0.033692179840476275,3.277215138789629,0.1614056659403302,,,,,,
5,18,-0.6973297595977783,-0.03230629488825799,9.799209594726562,0.009637764655053617,-0.00865455809980631,0.004740359261631966,-0.47964364290237427,0.6495119929313661,-0.8680593371391297,0.033692179840476275,3.277215138789629,0.1614056659403302,,,,,,
5,19,-0.757839560508728,-0.08548377454280853,9.801531791687013,0.009228695183992386,-0.007737755309790374,0.0024523939937353134,-0.48256644606590277,0.6524536013603212,-0.86747545003891,0.03683603825535907,3.283764456286899,0.1626703291828005,,,,,,
5,20,-0.739781677722931,-0.08667203038930894,9.760005950927734,0.009096815250813963,-0.00636649876832962,0.0017914765048772097,-0.4826276600360871,0.6539438962936401,-0.8689571619033813,0.03984477020873016,3.291063569978775,0.16354639405587013,,,,,,
5,21,-0.7784792184829712,-0.029355609789490703,9.813024520874023,0.009451459161937239,-0.01176965981721878,0.0016682170098647477,-0.4811316132545471,0.6514840126037598,-0.8685137033462524,0.05583873920708863,3.32301504086569,0.16999349996591287,,,,,,
5,22,-0.7784792184829712,-0.029355609789490703,9.813024520874023,0.009451459161937239,-0.01176965981721878,0.0016682170098647477,-0.4811316132545471,0.6514840126037598,-0.8685137033462524,0.05583873920708863,3.32301504086569,0.16999349996591287,,,,,,
6,0,-1.0118136405944824,-0.17489171028137207,9.754655838012695,0.009147089906036856,-0.00812448374927044,0.0050242627039551735,-0.47934618592262274,0.653979003429413,-0.8725069761276245,-0.016735590753635954,3.1739286477476507,0.13670217555052175,,,,,,
6,1,-1.0118136405944824,-0.17489171028137207,9.754655838012695,0.009147089906036856,-0.00812448374927044,0.0050242627039551735,-0.47934618592262274,0.653979003429413,-0.8725069761276245,-0.016735590753635954,3.1739286477476507,0.13670217555052175,,,,,,
6,2,-1.0118136405944824,-0.17489171028137207,9.754655838012695,0.009147089906036856,-0.00812448374927044,0.0050242627039551735,-0.47934618592262274,0.653979003429413,-0.8725069761276245,-0.016735590753635954,3.1739286477476507,0.13670217555052175,,,,,,
6,3,-1.0118136405944824,-0.17489171028137207,9.754655838012695,0.009147089906036856,-0.00812448374927044,0.0050242627039551735,-0.47934618592262274,0.653979003429413,-0.8725069761276245,-0.016735590753635954,3.1739286477476507,0.13670217555052175,,,,,,
6,4,-1.0118136405944824,-0.17489171028137207,9.754655838012695,0.009147089906036856,-0.00812448374927044,0.0050242627039551735,-0.47934618592262274,0.653979003429413,-0.8725069761276245,-0.016735590753635954,3.1739286477476507,0.13670217555052175,,,,,,
6,5,-0.981752097606659,-0.16550105810165405,9.782356262207031,0.0125590730458498,-0.009247669018805029,0.004300089552998543,-0.48023486137390137,0.6524876356124878,-0.8705158233642578,-0.011222834544739466,3.178793937339932,0.1390978378852821,,,,,,
6,6,-0.8852380514144897,-0.015652989968657497,9.761595726013185,0.010966858826577665,-0.006764013320207596,0.00508954143151641,-0.48115155100822454,0.6534261107444764,-0.8679654002189637,-0.0007764279804101623,3.1925536472358718,0.14161025566118476,,,,,,
6,7,-0.8852380514144897,-0.015652989968657497,9.761595726013185,0.010966858826577665,-0.006764013320207596,0.00508954143151641,-0.48115155100822454,0.6534261107444764,-0.8679654002189637,-0.0007764279804101623,3.1925536472358718,0.14161025566118476,,,,,,
6,8,-0.8253004550933838,-0.08369205147027971,9.780265808105469,0.0065036225132644185,-0.0022139144130051136,0.001195833319798112,-0.4806827902793884,0.6534311175346376,-0.8684725165367128,0.0010450051518261785,3.2019500940849888,0.14221147077810184,,,,,,
6,9,-0.8638227581977845,-0.05638230964541436,9.785177230834961,0.01156444288790226,-0.0022686847951263194,0.006968499161303043,-0.4792764186859131,0.6534461975097656,-0.8699938654899598,0.005912211503285822,3.211373864965747,0.1461183116358068,,,,,,
6,10,-0.8324437737464906,-0.028079153969883922,9.772319793701172,0.0095162782818079,-0.003984516020864249,0.0016126231057569387,-0.4816080033779145,0.6534120440483094,-0.8669534921646118,0.013782840953354369,3.238429907534029,0.1514105132655041,,,,,,
6,11,-0.8324437737464906,-0.028079153969883922,9.772319793701172,0.0095162782818079,-0.003984516020864249,0.0016126231057569387,-0.4816080033779145,0.6534120440483094,-0.8669534921646118,0.013782840953354369,3.238429907534029,0.1514105132655041,,,,,,
6,12,-0.8324437737464906,-0.028079153969883922,9.772319793701172,0.0095162782818079,-0.003984516020864249,0.0016126231057569387,-0.4816080033779145,0.6534120440483094,-0.8669534921646118,0.013782840953354369,3.238429907534029,0.1514105132655041,,,,,,
6,13,-0.8320508599281312,-0.11521326005458832,9.797714233398438,0.008064130321145058,-0.008240337483584883,0.005320102907717228,-0.4788361191749573,0.6544357538223267,-0.8709840178489686,0.022664144837073713,3.2589646066538016,0.15607540299763947,,,,,,
6,14,-0.8320508599281312,-0.11521326005458832,9.797714233398438,0.008064130321145058,-0.008240337483584883,0.005320102907717228,-0.4788361191749573,0.6544357538223267,-0.8709840178489686,0.022664144837073713,3.2589646066538016,0.15607540299763947,,,,,,
6,15,-0.8320508599281312,-0.11521326005458832,9.797714233398438,0.008064130321145058,-0.008240337483584883,0.005320102907717228,-0.4788361191749573,0.6544357538223267,-0.8709840178489686,0.022664144837073713,3.2589646066538016,0.15607540299763947,,,,,,
6,16,-0.7675279378890991,-0.11373044550418854,9.790507316589357,0.012726725079119207,-0.009411148726940155,0.0024814954958856106,-0.4802471995353699,0.652496635913849,-0.8710206151008607,0.027884920685309303,3.264720496280393,0.15737881121364725,,,,,,
6,17,-0.6973297595977783,-0.03230629488825799,9.799209594726562,0.009637764655053617,-0.00865455809980631,0.004740359261631966,-0.47964364290237427,0.6495119929313661,-0.8680593371391297,0.033692179840476275,3.277215138789629,0.1614056659403302,,,,,,
6,18,-0.6973297595977783,-0.03230629488825799,9.799209594726562,0.009637764655053617,-0.00865455809980631,0.004740359261631966,-0.47964364290237427,0.6495119929313661,-0.8680593371391297,0.033692179840476275,3.277215138789629,0.1614056659403302,,,,,,
6,19,-0.757839560508728,-0.08548377454280853,9.801531791687013,0.009228695183992386,-0.007737755309790374,0.0024523939937353134,-0.48256644606590277,0.6524536013603212,-0.86747545003891,0.03683603825535907,3.283764456286899,0.1626703291828005,,,,,,
6,20,-0.739781677722931,-0.08667203038930894,9.760005950927734,0.009096815250813963,-0.00636649876832962,0.0017914765048772097,-0.4826276600360871,0.6539438962936401,-0.8689571619033813,0.03984477020873016,3.291063569978775,0.16354639405587013,,,,,,
6,21,-0.7784792184829712,-0.029355609789490703,9.813024520874023,0.009451459161937239,-0.01176965981721878,0.0016682170098647477,-0.4811316132545471,0.6514840126037598,-0.8685137033462524,0.05583873920708863,3.32301504086569,0.16999349996591287,,,,,,
6,22,-0.7784792184829712,-0.029355609789490703,9.813024520874023,0.009451459161937239,-0.01176965981721878,0.0016682170098647477,-0.4811316132545471,0.6514840126037598,-0.8685137033462524,0.05583873920708863,3.32301504086569,0.16999349996591287,,,,,,
7,0,-1.0118136405944824,-0.17489171028137207,9.754655838012695,0.009147089906036856,-0.00812448374927044,0.0050242627039551735,-0.47934618592262274,0.653979003429413,-0.8725069761276245,-0.016735590753635954,3.1739286477476507,0.13670217555052175,,,,,,
7,1,-1.0118136405944824,-0.17489171028137207,9.754655838012695,0.009147089906036856,-0.00812448374927044,0.0050242627039551735,-0.47934618592262274,0.653979003429413,-0.8725069761276245,-0.016735590753635954,3.1739286477476507,0.13670217555052175,,,,,,
7,2,-1.0118136405944824,-0.17489171028137207,9.754655838012695,0.009147089906036856,-0.00812448374927044,0.0050242627039551735,-0.47934618592262274,0.653979003429413,-0.8725069761276245,-0.016735590753635954,3.1739286477476507,0.13670217555052175,,,,,,
7,3,-1.0118136405944824,-0.17489171028137207,9.754655838012695,0.009147089906036856,-0.00812448374927044,0.0050242627039551735,-0.47934618592262274,0.653979003429413,-0.8725069761276245,-0.016735590753635954,3.1739286477476507,0.13670217555052175,,,,,,
7,4,-1.0118136405944824,-0.17489171028137207,9.754655838012695,0.009147089906036856,-0.00812448374927044,0.0050242627039551735,-0.47934618592262274,0.653979003429413,-0.8725069761276245,-0.016735590753635954,3.1739286477476507,0.13670217555052175,,,,,,
7,5,-0.981752097606659,-0.16550105810165405,9.782356262207031,0.0125590730458498,-0.009247669018805029,0.004300089552998543,-0.48023486137390137,0.6524876356124878,-0.8705158233642578,-0.011222834544739466,3.178793937339932,0.1390978378852821,,,,,,
7,6,-0.8852380514144897,-0.015652989968657497,9.761595726013185,0.010966858826577665,-0.006764013320207596,0.00508954143151641,-0.48115155100822454,0.6534261107444764,-0.8679654002189637,-0.0007764279804101623,3.1925536472358718,0.14161025566118476,,,,,,
7,7,-0.8852380514144897,-0.015652989968657497,9.761595726013185,0.010966858826577665,-0.006764013320207596,0.00508954143151641,-0.48115155100822454,0.6534261107444764,-0.8679654002189637,-0.0007764279804101623,3.1925536472358718,0.14161025566118476,,,,,,
7,8,-0.8253004550933838,-0.08369205147027971,9.780265808105469,0.0065036225132644185,-0.0022139144130051136,0.001195833319798112,-0.4806827902793884,0.6534311175346376,-0.8684725165367128,0.0010450051518261785,3.2019500940849888,0.14221147077810184,,,,,,
7,9,-0.8638227581977845,-0.05638230964541436,9.785177230834961,0.01156444288790226,-0.0022686847951263194,0.006968499161303043,-0.4792764186859131,0.6534461975097656,-0.8699938654899598,0.005912211503285822,3.211373864965747,0.1461183116358068,,,,,,
7,10,-0.8324437737464906,-0.028079153969883922,9.772319793701172,0.0095162782818079,-0.003984516020864249,0.0016126231057569387,-0.4816080033779145,0.6534120440483094,-0.8669534921646118,0.013782840953354369,3.238429907534029,0.1514105132655041,,,,,,
7,11,-0.8324437737464906,-0.028079153969883922,9.772319793701172,0.0095162782818079,-0.003984516020864249,0.0016126231057569387,-0.4816080033779145,0.6534120440483094,-0.8669534921646118,0.013782840953354369,3.238429907534029,0.1514105132655041,,,,,,
7,12,-0.8324437737464906,-0.028079153969883922,9.772319793701172,0.0095162782818079,-0.003984516020864249,0.0016126231057569387,-0.4816080033779145,0.6534120440483094,-0.8669534921646118,0.013782840953354369,3.238429907534029,0.1514105132655041,,,,,,
7,13,-0.8320508599281312,-0.11521326005458832,9.797714233398438,0.008064130321145058,-0.008240337483584883,0.005320102907717228,-0.4788361191749573,0.6544357538223267,-0.8709840178489686,0.022664144837073713,3.2589646066538016,0.15607540299763947,,,,,,
7,14,-0.8320508599281312,-0.11521326005458832,9.797714233398438,0.008064130321145058,-0.008240337483584883,0.005320102907717228,-0.4788361191749573,0.6544357538223267,-0.8709840178489686,0.022664144837073713,3.2589646066538016,0.15607540299763947,,,,,,
7,15,-0.8320508599281312,-0.11521326005458832,9.797714233398438,0.008064130321145058,-0.008240337483584883,0.005320102907717228,-0.4788361191749573,0.6544357538223267,-0.8709840178489686,0.022664144837073713,3.2589646066538016,0.15607540299763947,,,,,,
7,16,-0.7675279378890991,-0.11373044550418854,9.790507316589357,0.012726725079119207,-0.009411148726940155,0.0024814954958856106,-0.4802471995353699,0.652496635913849,-0.8710206151008607,0.027884920685309303,3.264720496280393,0.15737881121364725,,,,,,
7,17,-0.6973297595977783,-0.03230629488825799,9.799209594726562,0.009637764655053617,-0.00865455809980631,0.004740359261631966,-0.47964364290237427,0.6495119929313661,-0.8680593371391297,0.033692179840476275,3.277215138789629,0.1614056659403302,,,,,,
7,18,-0.6973297595977783,-0.03230629488825799,9.799209594726562,0.009637764655053617,-0.00865455809980631,0.004740359261631966,-0.47964364290237427,0.6495119929313661,-0.8680593371391297,0.033692179840476275,3.277215138789629,0.1614056659403302,,,,,,
7,19,-0.757839560508728,-0.08548377454280853,9.801531791687013,0.009228695183992386,-0.007737755309790374,0.0024523939937353134,-0.48256644606590277,0.6524536013603212,-0.86747545003891,0.03683603825535907,3.283764456286899,0.1626703291828005,,,,,,
7,20,-0.739781677722931,-0.08667203038930894,9.760005950927734,0.009096815250813963,-0.00636649876832962,0.0017914765048772097,-0.4826276600360871,0.6539438962936401,-0.8689571619033813,0.03984477020873016,3.291063569978775,0.16354639405587013,,,,,,
7,21,-0.7784792184829712,-0.029355609789490703,9.813024520874023,0.009451459161937239,-0.01176965981721878,0.0016682170098647477,-0.4811316132545471,0.6514840126037598,-0.8685137033462524,0.05583873920708863,3.32301504086569,0.16999349996591287,,,,,,
7,22,-0.7784792184829712,-0.029355609789490703,9.813024520874023,0.009451459161937239,-0.01176965981721878,0.0016682170098647477,-0.4811316132545471,0.6514840126037598,-0.8685137033462524,0.05583873920708863,3.32301504086569,0.16999349996591287,,,,,,
8,0,-1.0118136405944824,-0.17489171028137207,9.754655838012695,0.009147089906036856,-0.00812448374927044,0.0050242627039551735,-0.47934618592262274,0.653979003429413,-0.8725069761276245,-0.016735590753635954,3.1739286477476507,0.13670217555052175,,,,,,
8,1,-1.0118136405944824,-0.17489171028137207,9.754655838012695,0.009147089906036856,-0.00812448374927044,0.0050242627039551735,-0.47934618592262274,0.653979003429413,-0.8725069761276245,-0.016735590753635954,3.1739286477476507,0.13670217555052175,,,,,,
8,2,-1.0118136405944824,-0.17489171028137207,9.754655838012695,0.009147089906036856,-0.00812448374927044,0.0050242627039551735,-0.47934618592262274,0.653979003429413,-0.8725069761276245,-0.016735590753635954,3.1739286477476507,0.13670217555052175,,,,,,
8,3,-1.0118136405944824,-0.17489171028137207,9.754655838012695,0.009147089906036856,-0.00812448374927044,0.0050242627039551735,-0.47934618592262274,0.653979003429413,-0.8725069761276245,-0.016735590753635954,3.1739286477476507,0.13670217555052175,,,,,,
8,4,-1.0118136405944824,-0.17489171028137207,9.754655838012695,0.009147089906036856,-0.00812448374927044,0.0050242627039551735,-0.47934618592262274,0.653979003429413,-0.8725069761276245,-0.016735590753635954,3.1739286477476507,0.13670217555052175,,,,,,
8,5,-0.981752097606659,-0.16550105810165405,9.782356262207031,0.0125590730458498,-0.009247669018805029,0.004300089552998543,-0.48023486137390137,0.6524876356124878,-0.8705158233642578,-0.011222834544739466,3.178793937339932,0.1390978378852821,,,,,,
8,6,-0.8852380514144897,-0.015652989968657497,9.761595726013185,0.010966858826577665,-0.006764013320207596,0.00508954143151641,-0.48115155100822454,0.6534261107444764,-0.8679654002189637,-0.0007764279804101623,3.1925536472358718,0.14161025566118476,,,,,,
8,7,-0.8852380514144897,-0.015652989968657497,9.761595726013185,0.010966858826577665,-0.006764013320207596,0.00508954143151641,-0.48115155100822454,0.6534261107444764,-0.8679654002189637,-0.0007764279804101623,3.1925536472358718,0.14161025566118476,,,,,,
8,8,-0.8253004550933838,-0.08369205147027971,9.780265808105469,0.0065036225132644185,-0.0022139144130051136,0.001195833319798112,-0.4806827902793884,0.6534311175346376,-0.8684725165367128,0.0010450051518261785,3.2019500940849888,0.14221147077810184,,,,,,
8,9,-0.8638227581977845,-0.05638230964541436,9.785177230834961,0.01156444288790226,-0.0022686847951263194,0.006968499161303043,-0.4792764186859131,0.6534461975097656,-0.8699938654899598,0.005912211503285822,3.211373864965747,0.1461183116358068,,,,,,
8,10,-0.8324437737464906,-0.028079153969883922,9.772319793701172,0.0095162782818079,-0.003984516020864249,0.0016126231057569387,-0.4816080033779145,0.6534120440483094,-0.8669534921646118,0.013782840953354369,3.238429907534029,0.1514105132655041,,,,,,
8,11,-0.8324437737464906,-0.028079153969883922,9.772319793701172,0.0095162782818079,-0.003984516020864249,0.0016126231057569387,-0.4816080033779145,0.6534120440483094,-0.8669534921646118,0.013782840953354369,3.238429907534029,0.1514105132655041,,,,,,
8,12,-0.8324437737464906,-0.028079153969883922,9.772319793701172,0.0095162782818079,-0.003984516020864249,0.0016126231057569387,-0.4816080033779145,0.6534120440483094,-0.8669534921646118,0.013782840953354369,3.238429907534029,0.1514105132655041,,,,,,
8,13,-0.8320508599281312,-0.11521326005458832,9.797714233398438,0.008064130321145058,-0.008240337483584883,0.005320102907717228,-0.4788361191749573,0.6544357538223267,-0.8709840178489686,0.022664144837073713,3.2589646066538016,0.15607540299763947,,,,,,
8,14,-0.8320508599281312,-0.11521326005458832,9.797714233398438,0.008064130321145058,-0.008240337483584883,0.005320102907717228,-0.4788361191749573,0.6544357538223267,-0.8709840178489686,0.022664144837073713,3.2589646066538016,0.15607540299763947,,,,,,
8,15,-0.8320508599281312,-0.11521326005458832,9.797714233398438,0.008064130321145058,-0.008240337483584883,0.005320102907717228,-0.4788361191749573,0.6544357538223267,-0.8709840178489686,0.022664144837073713,3.2589646066538016,0.15607540299763947,,,,,,
8,16,-0.7675279378890991,-0.11373044550418854,9.790507316589357,0.012726725079119207,-0.009411148726940155,0.0024814954958856106,-0.4802471995353699,0.652496635913849,-0.8710206151008607,0.027884920685309303,3.264720496280393,0.15737881121364725,,,,,,
8,17,-0.6973297595977783,-0.03230629488825799,9.799209594726562,0.009637764655053617,-0.00865455809980631,0.004740359261631966,-0.47964364290237427,0.6495119929313661,-0.8680593371391297,0.033692179840476275,3.277215138789629,0.1614056659403302,,,,,,
8,18,-0.6973297595977783,-0.03230629488825799,9.799209594726562,0.009637764655053617,-0.00865455809980631,0.004740359261631966,-0.47964364290237427,0.6495119929313661,-0.8680593371391297,0.033692179840476275,3.277215138789629,0.1614056659403302,,,,,,
8,19,-0.757839560508728,-0.08548377454280853,9.801531791687013,0.009228695183992386,-0.007737755309790374,0.0024523939937353134,-0.48256644606590277,0.6524536013603212,-0.86747545003891,0.03683603825535907,3.283764456286899,0.1626703291828005,,,,,,
8,20,-0.739781677722931,-0.08667203038930894,9.760005950927734,0.009096815250813963,-0.00636649876832962,0.0017914765048772097,-0.4826276600360871,0.6539438962936401,-0.8689571619033813,0.03984477020873016,3.291063569978775,0.16354639405587013,,,,,,
8,21,-0.7784792184829712,-0.029355609789490703,9.813024520874023,0.009451459161937239,-0.01176965981721878,0.0016682170098647477,-0.4811316132545471,0.6514840126037598,-0.8685137033462524,0.05583873920708863,3.32301504086569,0.16999349996591287,,,,,,
8,22,-0.7784792184829712,-0.029355609789490703,9.813024520874023,0.009451459161937239,-0.01176965981721878,0.0016682170098647477,-0.4811316132545471,0.6514840126037598,-0.8685137033462524,0.05583873920708863,3.32301504086569,0.16999349996591287,,,,,,
9,0,-1.0118136405944824,-0.17489171028137207,9.754655838012695,0.009147089906036856,-0.00812448374927044,0.0050242627039551735,-0.47934618592262274,0.653979003429413,-0.8725069761276245,-0.016735590753635954,3.1739286477476507,0.13670217555052175,,,,,,
9,1,-1.0118136405944824,-0.17489171028137207,9.754655838012695,0.009147089906036856,-0.00812448374927044,0.0050242627039551735,-0.47934618592262274,0.653979003429413,-0.8725069761276245,-0.016735590753635954,3.1739286477476507,0.13670217555052175,,,,,,
9,2,-1.0118136405944824,-0.17489171028137207,9.754655838012695,0.009147089906036856,-0.00812448374927044,0.0050242627039551735,-0.47934618592262274,0.653979003429413,-0.8725069761276245,-0.016735590753635954,3.1739286477476507,0.13670217555052175,,,,,,
9,3,-1.0118136405944824,-0.17489171028137207,9.754655838012695,0.009147089906036856,-0.00812448374927044,0.0050242627039551735,-0.47934618592262274,0.653979003429413,-0.8725069761276245,-0.016735590753635954,3.1739286477476507,0.13670217555052175,,,,,,
9,4,-1.0118136405944824,-0.17489171028137207,9.754655838012695,0.009147089906036856,-0.00812448374927044,0.0050242627039551735,-0.47934618592262274,0.653979003429413,-0.8725069761276245,-0.016735590753635954,3.1739286477476507,0.13670217555052175,,,,,,
9,5,-0.981752097606659,-0.16550105810165405,9.782356262207031,0.0125590730458498,-0.009247669018805029,0.004300089552998543,-0.48023486137390137,0.6524876356124878,-0.8705158233642578,-0.011222834544739466,3.178793937339932,0.1390978378852821,,,,,,
9,6,-0.8852380514144897,-0.015652989968657497,9.761595726013185,0.010966858826577665,-0.006764013320207596,0.00508954143151641,-0.48115155100822454,0.6534261107444764,-0.8679654002189637,-0.0007764279804101623,3.1925536472358718,0.14161025566118476,,,,,,
9,7,-0.8852380514144897,-0.015652989968657497,9.761595726013185,0.010966858826577665,-0.006764013320207596,0.00508954143151641,-0.48115155100822454,0.6534261107444764,-0.8679654002189637,-0.0007764279804101623,3.1925536472358718,0.14161025566118476,,,,,,
9,8,-0.8253004550933838,-0.08369205147027971,9.780265808105469,0.0065036225132644185,-0.0022139144130051136,0.001195833319798112,-0.4806827902793884,0.6534311175346376,-0.8684725165367128,0.0010450051518261785,3.2019500940849888,0.14221147077810184,,,,,,
9,9,-0.8638227581977845,-0.05638230964541436,9.785177230834961,0.01156444288790226,-0.0022686847951263194,0.006968499161303043,-0.4792764186859131,0.6534461975097656,-0.8699938654899598,0.005912211503285822,3.211373864965747,0.1461183116358068,,,,,,
9,10,-0.8324437737464906,-0.028079153969883922,9.772319793701172,0.0095162782818079,-0.003984516020864249,0.0016126231057569387,-0.4816080033779145,0.6534120440483094,-0.8669534921646118,0.013782840953354369,3.238429907534029,0.1514105132655041,,,,,,
9,11,-0.8324437737464906,-0.028079153969883922,9.772319793701172,0.0095162782818079,-0.003984516020864249,0.0016126231057569387,-0.4816080033779145,0.6534120440483094,-0.8669534921646118,0.013782840953354369,3.238429907534029,0.1514105132655041,,,,,,
9,12,-0.8324437737464906,-0.028079153969883922,9.772319793701172,0.0095162782818079,-0.003984516020864249,0.0016126231057569387,-0.4816080033779145,0.6534120440483094,-0.8669534921646118,0.013782840953354369,3.238429907534029,0.1514105132655041,,,,,,
9,13,-0.8320508599281312,-0.11521326005458832,9.797714233398438,0.008064130321145058,-0.008240337483584883,0.005320102907717228,-0.4788361191749573,0.6544357538223267,-0.8709840178489686,0.022664144837073713,3.2589646066538016,0.15607540299763947,,,,,,
9,14,-0.8320508599281312,-0.11521326005458832,9.797714233398438,0.008064130321145058,-0.008240337483584883,0.005320102907717228,-0.4788361191749573,0.6544357538223267,-0.8709840178489686,0.022664144837073713,3.2589646066538016,0.15607540299763947,,,,,,
9,15,-0.8320508599281312,-0.11521326005458832,9.797714233398438,0.008064130321145058,-0.008240337483584883,0.005320102907717228,-0.4788361191749573,0.6544357538223267,-0.8709840178489686,0.022664144837073713,3.2589646066538016,0.15607540299763947,,,,,,
9,16,-0.7675279378890991,-0.11373044550418854,9.790507316589357,0.012726725079119207,-0.009411148726940155,0.0024814954958856106,-0.4802471995353699,0.652496635913849,-0.8710206151008607,0.027884920685309303,3.264720496280393,0.15737881121364725,,,,,,
9,17,-0.6973297595977783,-0.03230629488825799,9.799209594726562,0.009637764655053617,-0.00865455809980631,0.004740359261631966,-0.47964364290237427,0.6495119929313661,-0.8680593371391297,0.033692179840476275,3.277215138789629,0.1614056659403302,,,,,,
9,18,-0.6973297595977783,-0.03230629488825799,9.799209594726562,0.009637764655053617,-0.00865455809980631,0.004740359261631966,-0.47964364290237427,0.6495119929313661,-0.8680593371391297,0.033692179840476275,3.277215138789629,0.1614056659403302,,,,,,
9,19,-0.757839560508728,-0.08548377454280853,9.801531791687013,0.009228695183992386,-0.007737755309790374,0.0024523939937353134,-0.48256644606590277,0.6524536013603212,-0.86747545003891,0.03683603825535907,3.283764456286899,0.1626703291828005,,,,,,
9,20,-0.739781677722931,-0.08667203038930894,9.760005950927734,0.009096815250813963,-0.00636649876832962,0.0017914765048772097,-0.4826276600360871,0.6539438962936401,-0.8689571619033813,0.03984477020873016,3.291063569978775,0.16354639405587013,,,,,,
9,21,-0.7784792184829712,-0.029355609789490703,9.813024520874023,0.009451459161937239,-0.01176965981721878,0.0016682170098647477,-0.4811316132545471,0.6514840126037598,-0.8685137033462524,0.05583873920708863,3.32301504086569,0.16999349996591287,,,,,,
9,22,-0.7784792184829712,-0.029355609789490703,9.813024520874023,0.009451459161937239,-0.01176965981721878,0.0016682170098647477,-0.4811316132545471,0.6514840126037598,-0.8685137033462524,0.05583873920708863,3.32301504086569,0.16999349996591287,,,,,,
10,0,-1.0118136405944824,-0.17489171028137207,9.754655838012695,0.009147089906036856,-0.00812448374927044,0.0050242627039551735,-0.47934618592262274,0.653979003429413,-0.8725069761276245,-0.016735590753635954,3.1739286477476507,0.13670217555052175,,,,,,
10,1,-1.0118136405944824,-0.17489171028137207,9.754655838012695,0.009147089906036856,-0.00812448374927044,0.0050242627039551735,-0.47934618592262274,0.653979003429413,-0.8725069761276245,-0.016735590753635954,3.1739286477476507,0.13670217555052175,,,,,,
10,2,-1.0118136405944824,-0.17489171028137207,9.754655838012695,0.009147089906036856,-0.00812448374927044,0.0050242627039551735,-0.47934618592262274,0.653979003429413,-0.8725069761276245,-0.016735590753635954,3.1739286477476507,0.13670217555052175,,,,,,
10,3,-1.0118136405944824,-0.17489171028137207,9.754655838012695,0.009147089906036856,-0.00812448374927044,0.0050242627039551735,-0.47934618592262274,0.653979003429413,-0.8725069761276245,-0.016735590753635954,3.1739286477476507,0.13670217555052175,,,,,,
10,4,-1.0118136405944824,-0.17489171028137207,9.754655838012695,0.009147089906036856,-0.00812448374927044,0.0050242627039551735,-0.47934618592262274,0.653979003429413,-0.8725069761276245,-0.016735590753635954,3.1739286477476507,0.13670217555052175,,,,,,
10,5,-0.981752097606659,-0.16550105810165405,9.782356262207031,0.0125590730458498,-0.009247669018805029,0.004300089552998543,-0.48023486137390137,0.6524876356124878,-0.8705158233642578,-0.011222834544739466,3.178793937339932,0.1390978378852821,,,,,,
10,6,-0.8852380514144897,-0.015652989968657497,9.761595726013185,0.010966858826577665,-0.006764013320207596,0.00508954143151641,-0.48115155100822454,0.6534261107444764,-0.8679654002189637,-0.0007764279804101623,3.1925536472358718,0.14161025566118476,,,,,,
10,7,-0.8852380514144897,-0.015652989968657497,9.761595726013185,0.010966858826577665,-0.006764013320207596,0.00508954143151641,-0.48115155100822454,0.6534261107444764,-0.8679654002189637,-0.0007764279804101623,3.1925536472358718,0.14161025566118476,,,,,,
10,8,-0.8253004550933838,-0.08369205147027971,9.780265808105469,0.0065036225132644185,-0.0022139144130051136,0.001195833319798112,-0.4806827902793884,0.6534311175346376,-0.8684725165367128,0.0010450051518261785,3.2019500940849888,0.14221147077810184,,,,,,
10,9,-0.8638227581977845,-0.05638230964541436,9.785177230834961,0.01156444288790226,-0.0022686847951263194,0.006968499161303043,-0.4792764186859131,0.6534461975097656,-0.8699938654899598,0.005912211503285822,3.211373864965747,0.1461183116358068,,,,,,
10,10,-0.8324437737464906,-0.028079153969883922,9.772319793701172,0.0095162782818079,-0.003984516020864249,0.0016126231057569387,-0.4816080033779145,0.6534120440483094,-0.8669534921646118,0.013782840953354369,3.238429907534029,0.1514105132655041,,,,,,
10,11,-0.8324437737464906,-0.028079153969883922,9.772319793701172,0.0095162782818079,-0.003984516020864249,0.0016126231057569387,-0.4816080033779145,0.6534120440483094,-0.8669534921646118,0.013782840953354369,3.238429907534029,0.1514105132655041,,,,,,
10,12,-0.8324437737464906,-0.028079153969883922,9.772319793701172,0.0095162782818079,-0.003984516020864249,0.0016126231057569387,-0.4816080033779145,0.6534120440483094,-0.8669534921646118,0.013782840953354369,3.238429907534029,0.1514105132655041,,,,,,
10,13,-0.8320508599281312,-0.11521326005458832,9.797714233398438,0.008064130321145058,-0.008240337483584883,0.005320102907717228,-0.4788361191749573,0.6544357538223267,-0.8709840178489686,0.022664144837073713,3.2589646066538016,0.15607540299763947,,,,,,
10,14,-0.8320508599281312,-0.11521326005458832,9.797714233398438,0.008064130321145058,-0.008240337483584883,0.005320102907717228,-0.4788361191749573,0.6544357538223267,-0.8709840178489686,0.022664144837073713,3.2589646066538016,0.15607540299763947,,,,,,
10,15,-0.8320508599281312,-0.11521326005458832,9.797714233398438,0.008064130321145058,-0.008240337483584883,0.005320102907717228,-0.4788361191749573,0.6544357538223267,-0.8709840178489686,0.022664144837073713,3.2589646066538016,0.15607540299763947,,,,,,
10,16,-0.7675279378890991,-0.11373044550418854,9.790507316589357,0.012726725079119207,-0.009411148726940155,0.0024814954958856106,-0.4802471995353699,0.652496635913849,-0.8710206151008607,0.027884920685309303,3.264720496280393,0.15737881121364725,,,,,,
10,17,-0.6973297595977783,-0.03230629488825799,9.799209594726562,0.009637764655053617,-0.00865455809980631,0.004740359261631966,-0.47964364290237427,0.6495119929313661,-0.8680593371391297,0.033692179840476275,3.277215138789629,0.1614056659403302,,,,,,
10,18,-0.6973297595977783,-0.03230629488825799,9.799209594726562,0.009637764655053617,-0.00865455809980631,0.004740359261631966,-0.47964364290237427,0.6495119929313661,-0.8680593371391297,0.033692179840476275,3.277215138789629,0.1614056659403302,,,,,,
10,19,-0.757839560508728,-0.08548377454280853,9.801531791687013,0.009228695183992386,-0.007737755309790374,0.0024523939937353134,-0.48256644606590277,0.6524536013603212,-0.86747545003891,0.03683603825535907,3.283764456286899,0.1626703291828005,,,,,,
10,20,-0.739781677722931,-0.08667203038930894,9.760005950927734,0.009096815250813963,-0.00636649876832962,0.0017914765048772097,-0.4826276600360871,0.6539438962936401,-0.8689571619033813,0.03984477020873016,3.291063569978775,0.16354639405587013,,,,,,
10,21,-0.7784792184829712,-0.029355609789490703,9.813024520874023,0.009451459161937239,-0.01176965981721878,0.0016682170098647477,-0.4811316132545471,0.6514840126037598,-0.8685137033462524,0.05583873920708863,3.32301504086569,0.16999349996591287,,,,,,
10,22,-0.7784792184829712,-0.029355609789490703,9.813024520874023,0.009451459161937239,-0.01176965981721878,0.0016682170098647477,-0.4811316132545471,0.6514840126037598,-0.8685137033462524,0.05583873920708863,3.32301504086569,0.16999349996591287,,,,,,
11,0,-1.0118136405944824,-0.17489171028137207,9.754655838012695,0.009147089906036856,-0.00812448374927044,0.0050242627039551735,-0.47934618592262274,0.653979003429413,-0.8725069761276245,-0.016735590753635954,3.1739286477476507,0.13670217555052175,,,,,,
11,1,-1.0118136405944824,-0.17489171028137207,9.754655838012695,0.009147089906036856,-0.00812448374927044,0.0050242627039551735,-0.47934618592262274,0.653979003429413,-0.8725069761276245,-0.016735590753635954,3.1739286477476507,0.13670217555052175,,,,,,
11,2,-1.0118136405944824,-0.17489171028137207,9.754655838012695,0.009147089906036856,-0.00812448374927044,0.0050242627039551735,-0.47934618592262274,0.653979003429413,-0.8725069761276245,-0.016735590753635954,3.1739286477476507,0.13670217555052175,,,,,,
11,3,-1.0118136405944824,-0.17489171028137207,9.754655838012695,0.009147089906036856,-0.00812448374927044,0.0050242627039551735,-0.47934618592262274,0.653979003429413,-0.8725069761276245,-0.016735590753635954,3.1739286477476507,0.13670217555052175,,,,,,
11,4,-1.0118136405944824,-0.17489171028137207,9.754655838012695,0.009147089906036856,-0.00812448374927044,0.0050242627039551735,-0.47934618592262274,0.653979003429413,-0.8725069761276245,-0.016735590753635954,3.1739286477476507,0.13670217555052175,,,,,,
11,5,-0.981752097606659,-0.16550105810165405,9.782356262207031,0.0125590730458498,-0.009247669018805029,0.004300089552998543,-0.48023486137390137,0.6524876356124878,-0.8705158233642578,-0.011222834544739466,3.178793937339932,0.1390978378852821,,,,,,
11,6,-0.8852380514144897,-0.015652989968657497,9.761595726013185,0.010966858826577665,-0.006764013320207596,0.00508954143151641,-0.48115155100822454,0.6534261107444764,-0.8679654002189637,-0.0007764279804101623,3.1925536472358718,0.14161025566118476,,,,,,
11,7,-0.8852380514144897,-0.015652989968657497,9.761595726013185,0.010966858826577665,-0.006764013320207596,0.00508954143151641,-0.48115155100822454,0.6534261107444764,-0.8679654002189637,-0.0007764279804101623,3.1925536472358718,0.14161025566118476,,,,,,
11,8,-0.8253004550933838,-0.08369205147027971,9.780265808105469,0.0065036225132644185,-0.0022139144130051136,0.001195833319798112,-0.4806827902793884,0.6534311175346376,-0.8684725165367128,0.0010450051518261785,3.2019500940849888,0.14221147077810184,,,,,,
11,9,-0.8638227581977845,-0.05638230964541436,9.785177230834961,0.01156444288790226,-0.0022686847951263194,0.006968499161303043,-0.4792764186859131,0.6534461975097656,-0.8699938654899598,0.005912211503285822,3.211373864965747,0.1461183116358068,,,,,,
11,10,-0.8324437737464906,-0.028079153969883922,9.772319793701172,0.0095162782818079,-0.003984516020864249,0.0016126231057569387,-0.4816080033779145,0.6534120440483094,-0.8669534921646118,0.013782840953354369,3.238429907534029,0.1514105132655041,,,,,,
11,11,-0.8324437737464906,-0.028079153969883922,9.772319793701172,0.0095162782818079,-0.003984516020864249,0.0016126231057569387,-0.4816080033779145,0.6534120440483094,-0.8669534921646118,0.013782840953354369,3.238429907534029,0.1514105132655041,,,,,,
11,12,-0.8324437737464906,-0.028079153969883922,9.772319793701172,0.0095162782818079,-0.003984516020864249,0.0016126231057569387,-0.4816080033779145,0.6534120440483094,-0.8669534921646118,0.013782840953354369,3.238429907534029,0.1514105132655041,,,,,,
11,13,-0.8320508599281312,-0.11521326005458832,9.797714233398438,0.008064130321145058,-0.008240337483584883,0.005320102907717228,-0.4788361191749573,0.6544357538223267,-0.8709840178489686,0.022664144837073713,3.2589646066538016,0.15607540299763947,,,,,,
11,14,-0.8320508599281312,-0.11521326005458832,9.797714233398438,0.008064130321145058,-0.008240337483584883,0.005320102907717228,-0.4788361191749573,0.6544357538223267,-0.8709840178489686,0.022664144837073713,3.2589646066538016,0.15607540299763947,,,,,,
11,15,-0.8320508599281312,-0.11521326005458832,9.797714233398438,0.008064130321145058,-0.008240337483584883,0.005320102907717228,-0.4788361191749573,0.6544357538223267,-0.8709840178489686,0.022664144837073713,3.2589646066538016,0.15607540299763947,,,,,,
11,16,-0.7675279378890991,-0.11373044550418854,9.790507316589357,0.012726725079119207,-0.009411148726940155,0.0024814954958856106,-0.4802471995353699,0.652496635913849,-0.8710206151008607,0.027884920685309303,3.264720496280393,0.15737881121364725,,,,,,
11,17,-0.6973297595977783,-0.03230629488825799,9.799209594726562,0.009637764655053617,-0.00865455809980631,0.004740359261631966,-0.47964364290237427,0.6495119929313661,-0.8680593371391297,0.033692179840476275,3.277215138789629,0.1614056659403302,,,,,,
11,18,-0.6973297595977783,-0.03230629488825799,9.799209594726562,0.009637764655053617,-0.00865455809980631,0.004740359261631966,-0.47964364290237427,0.6495119929313661,-0.8680593371391297,0.033692179840476275,3.277215138789629,0.1614056659403302,,,,,,
11,19,-0.757839560508728,-0.08548377454280853,9.801531791687013,0.009228695183992386,-0.007737755309790374,0.0024523939937353134,-0.48256644606590277,0.6524536013603212,-0.86747545003891,0.03683603825535907,3.283764456286899,0.1626703291828005,,,,,,
11,20,-0.739781677722931,-0.08667203038930894,9.760005950927734,0.009096815250813963,-0.00636649876832962,0.0017914765048772097,-0.4826276600360871,0.6539438962936401,-0.8689571619033813,0.03984477020873016,3.291063569978775,0.16354639405587013,,,,,,
11,21,-0.7784792184829712,-0.029355609789490703,9.813024520874023,0.009451459161937239,-0.01176965981721878,0.0016682170098647477,-0.4811316132545471,0.6514840126037598,-0.8685137033462524,0.05583873920708863,3.32301504086569,0.16999349996591287,,,,,,
11,22,-0.7784792184829712,-0.029355609789490703,9.813024520874023,0.009451459161937239,-0.01176965981721878,0.0016682170098647477,-0.4811316132545471,0.6514840126037598,-0.8685137033462524,0.05583873920708863,3.32301504086569,0.16999349996591287,,,,,,
12,0,-1.0118136405944824,-0.17489171028137207,9.754655838012695,0.009147089906036856,-0.00812448374927044,0.0050242627039551735,-0.47934618592262274,0.653979003429413,-0.8725069761276245,-0.016735590753635954,3.1739286477476507,0.13670217555052175,,,,,,
12,1,-1.0118136405944824,-0.17489171028137207,9.754655838012695,0.009147089906036856,-0.00812448374927044,0.0050242627039551735,-0.47934618592262274,0.653979003429413,-0.8725069761276245,-0.016735590753635954,3.1739286477476507,0.13670217555052175,,,,,,
12,2,-1.0118136405944824,-0.17489171028137207,9.754655838012695,0.009147089906036856,-0.00812448374927044,0.0050242627039551735,-0.47934618592262274,0.653979003429413,-0.8725069761276245,-0.016735590753635954,3.1739286477476507,0.13670217555052175,,,,,,
12,3,-1.0118136405944824,-0.17489171028137207,9.754655838012695,0.009147089906036856,-0.00812448374927044,0.0050242627039551735,-0.47934618592262274,0.653979003429413,-0.8725069761276245,-0.016735590753635954,3.1739286477476507,0.13670217555052175,,,,,,
12,4,-1.0118136405944824,-0.17489171028137207,9.754655838012695,0.009147089906036856,-0.00812448374927044,0.0050242627039551735,-0.47934618592262274,0.653979003429413,-0.8725069761276245,-0.016735590753635954,3.1739286477476507,0.13670217555052175,,,,,,
12,5,-0.981752097606659,-0.16550105810165405,9.782356262207031,0.0125590730458498,-0.009247669018805029,0.004300089552998543,-0.48023486137390137,0.6524876356124878,-0.8705158233642578,-0.011222834544739466,3.178793937339932,0.1390978378852821,,,,,,
12,6,-0.8852380514144897,-0.015652989968657497,9.761595726013185,0.010966858826577665,-0.006764013320207596,0.00508954143151641,-0.48115155100822454,0.6534261107444764,-0.8679654002189637,-0.0007764279804101623,3.1925536472358718,0.14161025566118476,,,,,,
12,7,-0.8852380514144897,-0.015652989968657497,9.761595726013185,0.010966858826577665,-0.006764013320207596,0.00508954143151641,-0.48115155100822454,0.6534261107444764,-0.8679654002189637,-0.0007764279804101623,3.1925536472358718,0.14161025566118476,,,,,,
12,8,-0.8253004550933838,-0.08369205147027971,9.780265808105469,0.0065036225132644185,-0.0022139144130051136,0.001195833319798112,-0.4806827902793884,0.6534311175346376,-0.8684725165367128,0.0010450051518261785,3.2019500940849888,0.14221147077810184,,,,,,
12,9,-0.8638227581977845,-0.05638230964541436,9.785177230834961,0.01156444288790226,-0.0022686847951263194,0.006968499161303043,-0.4792764186859131,0.6534461975097656,-0.8699938654899598,0.005912211503285822,3.211373864965747,0.1461183116358068,,,,,,
12,10,-0.8324437737464906,-0.028079153969883922,9.772319793701172,0.0095162782818079,-0.003984516020864249,0.0016126231057569387,-0.4816080033779145,0.6534120440483094,-0.8669534921646118,0.013782840953354369,3.238429907534029,0.1514105132655041,,,,,,
12,11,-0.8324437737464906,-0.028079153969883922,9.772319793701172,0.0095162782818079,-0.003984516020864249,0.0016126231057569387,-0.4816080033779145,0.6534120440483094,-0.8669534921646118,0.013782840953354369,3.238429907534029,0.1514105132655041,,,,,,
12,12,-0.8324437737464906,-0.028079153969883922,9.772319793701172,0.0095162782818079,-0.003984516020864249,0.0016126231057569387,-0.4816080033779145,0.6534120440483094,-0.8669534921646118,0.013782840953354369,3.238429907534029,0.1514105132655041,,,,,,
12,13,-0.8320508599281312,-0.11521326005458832,9.797714233398438,0.008064130321145058,-0.008240337483584883,0.005320102907717228,-0.4788361191749573,0.6544357538223267,-0.8709840178489686,0.022664144837073713,3.2589646066538016,0.15607540299763947,,,,,,
12,14,-0.8320508599281312,-0.11521326005458832,9.797714233398438,0.008064130321145058,-0.008240337483584883,0.005320102907717228,-0.4788361191749573,0.6544357538223267,-0.8709840178489686,0.022664144837073713,3.2589646066538016,0.15607540299763947,,,,,,
12,15,-0.8320508599281312,-0.11521326005458832,9.797714233398438,0.008064130321145058,-0.008240337483584883,0.005320102907717228,-0.4788361191749573,0.6544357538223267,-0.8709840178489686,0.022664144837073713,3.2589646066538016,0.15607540299763947,,,,,,
12,16,-0.7675279378890991,-0.11373044550418854,9.790507316589357,0.012726725079119207,-0.009411148726940155,0.0024814954958856106,-0.4802471995353699,0.652496635913849,-0.8710206151008607,0.027884920685309303,3.264720496280393,0.15737881121364725,,,,,,
12,17,-0.6973297595977783,-0.03230629488825799,9.799209594726562,0.009637764655053617,-0.00865455809980631,0.004740359261631966,-0.47964364290237427,0.6495119929313661,-0.8680593371391297,0.033692179840476275,3.277215138789629,0.1614056659403302,,,,,,
12,18,-0.6973297595977783,-0.03230629488825799,9.799209594726562,0.009637764655053617,-0.00865455809980631,0.004740359261631966,-0.47964364290237427,0.6495119929313661,-0.8680593371391297,0.033692179840476275,3.277215138789629,0.1614056659403302,,,,,,
12,19,-0.757839560508728,-0.08548377454280853,9.801531791687013,0.009228695183992386,-0.007737755309790374,0.0024523939937353134,-0.48256644606590277,0.6524536013603212,-0.86747545003891,0.03683603825535907,3.283764456286899,0.1626703291828005,,,,,,
12,20,-0.739781677722931,-0.08667203038930894,9.760005950927734,0.009096815250813963,-0.00636649876832962,0.0017914765048772097,-0.4826276600360871,0.6539438962936401,-0.8689571619033813,0.03984477020873016,3.291063569978775,0.16354639405587013,,,,,,
12,21,-0.7784792184829712,-0.029355609789490703,9.813024520874023,0.009451459161937239,-0.01176965981721878,0.0016682170098647477,-0.4811316132545471,0.6514840126037598,-0.8685137033462524,0.05583873920708863,3.32301504086569,0.16999349996591287,,,,,,
12,22,-0.7784792184829712,-0.029355609789490703,9.813024520874023,0.009451459161937239,-0.01176965981721878,0.0016682170098647477,-0.4811316132545471,0.6514840126037598,-0.8685137033462524,0.05583873920708863,3.32301504086569,0.16999349996591287,,,,,,
13,0,-1.0118136405944824,-0.17489171028137207,9.754655838012695,0.009147089906036856,-0.00812448374927044,0.0050242627039551735,-0.47934618592262274,0.653979003429413,-0.8725069761276245,-0.016735590753635954,3.1739286477476507,0.13670217555052175,,,,,,
13,1,-1.0118136405944824,-0.17489171028137207,9.754655838012695,0.009147089906036856,-0.00812448374927044,0.0050242627039551735,-0.47934618592262274,0.653979003429413,-0.8725069761276245,-0.016735590753635954,3.1739286477476507,0.13670217555052175,,,,,,
13,2,-1.0118136405944824,-0.17489171028137207,9.754655838012695,0.009147089906036856,-0.00812448374927044,0.0050242627039551735,-0.47934618592262274,0.653979003429413,-0.8725069761276245,-0.016735590753635954,3.1739286477476507,0.13670217555052175,,,,,,
13,3,-1.0118136405944824,-0.17489171028137207,9.754655838012695,0.009147089906036856,-0.00812448374927044,0.0050242627039551735,-0.47934618592262274,0.653979003429413,-0.8725069761276245,-0.016735590753635954,3.1739286477476507,0.13670217555052175,,,,,,
13,4,-1.0118136405944824,-0.17489171028137207,9.754655838012695,0.009147089906036856,-0.00812448374927044,0.0050242627039551735,-0.47934618592262274,0.653979003429413,-0.8725069761276245,-0.016735590753635954,3.1739286477476507,0.13670217555052175,,,,,,
13,5,-0.981752097606659,-0.16550105810165405,9.782356262207031,0.0125590730458498,-0.009247669018805029,0.004300089552998543,-0.48023486137390137,0.6524876356124878,-0.8705158233642578,-0.011222834544739466,3.178793937339932,0.1390978378852821,,,,,,
13,6,-0.8852380514144897,-0.015652989968657497,9.761595726013185,0.010966858826577665,-0.006764013320207596,0.00508954143151641,-0.48115155100822454,0.6534261107444764,-0.8679654002189637,-0.0007764279804101623,3.1925536472358718,0.14161025566118476,,,,,,
13,7,-0.8852380514144897,-0.015652989968657497,9.761595726013185,0.010966858826577665,-0.006764013320207596,0.00508954143151641,-0.48115155100822454,0.6534261107444764,-0.8679654002189637,-0.0007764279804101623,3.1925536472358718,0.14161025566118476,,,,,,
13,8,-0.8253004550933838,-0.08369205147027971,9.780265808105469,0.0065036225132644185,-0.0022139144130051136,0.001195833319798112,-0.4806827902793884,0.6534311175346376,-0.8684725165367128,0.0010450051518261785,3.2019500940849888,0.14221147077810184,,,,,,
13,9,-0.8638227581977845,-0.05638230964541436,9.785177230834961,0.01156444288790226,-0.0022686847951263194,0.006968499161303043,-0.4792764186859131,0.6534461975097656,-0.8699938654899598,0.005912211503285822,3.211373864965747,0.1461183116358068,,,,,,
13,10,-0.8324437737464906,-0.028079153969883922,9.772319793701172,0.0095162782818079,-0.003984516020864249,0.0016126231057569387,-0.4816080033779145,0.6534120440483094,-0.8669534921646118,0.013782840953354369,3.238429907534029,0.1514105132655041,,,,,,
13,11,-0.8324437737464906,-0.028079153969883922,9.772319793701172,0.0095162782818079,-0.003984516020864249,0.0016126231057569387,-0.4816080033779145,0.6534120440483094,-0.8669534921646118,0.013782840953354369,3.238429907534029,0.1514105132655041,,,,,,
13,12,-0.8324437737464906,-0.028079153969883922,9.772319793701172,0.0095162782818079,-0.003984516020864249,0.0016126231057569387,-0.4816080033779145,0.6534120440483094,-0.8669534921646118,0.013782840953354369,3.238429907534029,0.1514105132655041,,,,,,
13,13,-0.8320508599281312,-0.11521326005458832,9.797714233398438,0.008064130321145058,-0.008240337483584883,0.005320102907717228,-0.4788361191749573,0.6544357538223267,-0.8709840178489686,0.022664144837073713,3.2589646066538016,0.15607540299763947,,,,,,
13,14,-0.8320508599281312,-0.11521326005458832,9.797714233398438,0.008064130321145058,-0.008240337483584883,0.005320102907717228,-0.4788361191749573,0.6544357538223267,-0.8709840178489686,0.022664144837073713,3.2589646066538016,0.15607540299763947,,,,,,
13,15,-0.8320508599281312,-0.11521326005458832,9.797714233398438,0.008064130321145058,-0.008240337483584883,0.005320102907717228,-0.4788361191749573,0.6544357538223267,-0.8709840178489686,0.022664144837073713,3.2589646066538016,0.15607540299763947,,,,,,
13,16,-0.7675279378890991,-0.11373044550418854,9.790507316589357,0.012726725079119207,-0.009411148726940155,0.0024814954958856106,-0.4802471995353699,0.652496635913849,-0.8710206151008607,0.027884920685309303,3.264720496280393,0.15737881121364725,,,,,,
13,17,-0.6973297595977783,-0.03230629488825799,9.799209594726562,0.009637764655053617,-0.00865455809980631,0.004740359261631966,-0.47964364290237427,0.6495119929313661,-0.8680593371391297,0.033692179840476275,3.277215138789629,0.1614056659403302,,,,,,
13,18,-0.6973297595977783,-0.03230629488825799,9.799209594726562,0.009637764655053617,-0.00865455809980631,0.004740359261631966,-0.47964364290237427,0.6495119929313661,-0.8680593371391297,0.033692179840476275,3.277215138789629,0.1614056659403302,,,,,,
13,19,-0.757839560508728,-0.08548377454280853,9.801531791687013,0.009228695183992386,-0.007737755309790374,0.0024523939937353134,-0.48256644606590277,0.6524536013603212,-0.86747545003891,0.03683603825535907,3.283764456286899,0.1626703291828005,,,,,,
13,20,-0.739781677722931,-0.08667203038930894,9.760005950927734,0.009096815250813963,-0.00636649876832962,0.0017914765048772097,-0.4826276600360871,0.6539438962936401,-0.8689571619033813,0.03984477020873016,3.291063569978775,0.16354639405587013,,,,,,
13,21,-0.7784792184829712,-0.029355609789490703,9.813024520874023,0.009451459161937239,-0.01176965981721878,0.0016682170098647477,-0.4811316132545471,0.6514840126037598,-0.8685137033462524,0.05583873920708863,3.32301504086569,0.16999349996591287,,,,,,
13,22,-0.7784792184829712,-0.029355609789490703,9.813024520874023,0.009451459161937239,-0.01176965981721878,0.0016682170098647477,-0.4811316132545471,0.6514840126037598,-0.8685137033462524,0.05583873920708863,3.32301504086569,0.16999349996591287,,,,,,
14,0,-1.0118136405944824,-0.17489171028137207,9.754655838012695,0.009147089906036856,-0.00812448374927044,0.0050242627039551735,-0.47934618592262274,0.653979003429413,-0.8725069761276245,-0.016735590753635954,3.1739286477476507,0.13670217555052175,,,,,,
14,1,-1.0118136405944824,-0.17489171028137207,9.754655838012695,0.009147089906036856,-0.00812448374927044,0.0050242627039551735,-0.47934618592262274,0.653979003429413,-0.8725069761276245,-0.016735590753635954,3.1739286477476507,0.13670217555052175,,,,,,
14,2,-1.0118136405944824,-0.17489171028137207,9.754655838012695,0.009147089906036856,-0.00812448374927044,0.0050242627039551735,-0.47934618592262274,0.653979003429413,-0.8725069761276245,-0.016735590753635954,3.1739286477476507,0.13670217555052175,,,,,,
14,3,-1.0118136405944824,-0.17489171028137207,9.754655838012695,0.009147089906036856,-0.00812448374927044,0.0050242627039551735,-0.47934618592262274,0.653979003429413,-0.8725069761276245,-0.016735590753635954,3.1739286477476507,0.13670217555052175,,,,,,
14,4,-1.0118136405944824,-0.17489171028137207,9.754655838012695,0.009147089906036856,-0.00812448374927044,0.0050242627039551735,-0.47934618592262274,0.653979003429413,-0.8725069761276245,-0.016735590753635954,3.1739286477476507,0.13670217555052175,,,,,,
14,5,-0.981752097606659,-0.16550105810165405,9.782356262207031,0.0125590730458498,-0.009247669018805029,0.004300089552998543,-0.48023486137390137,0.6524876356124878,-0.8705158233642578,-0.011222834544739466,3.178793937339932,0.1390978378852821,,,,,,
14,6,-0.8852380514144897,-0.015652989968657497,9.761595726013185,0.010966858826577665,-0.006764013320207596,0.00508954143151641,-0.48115155100822454,0.6534261107444764,-0.8679654002189637,-0.0007764279804101623,3.1925536472358718,0.14161025566118476,,,,,,
14,7,-0.8852380514144897,-0.015652989968657497,9.761595726013185,0.010966858826577665,-0.006764013320207596,0.00508954143151641,-0.48115155100822454,0.6534261107444764,-0.8679654002189637,-0.0007764279804101623,3.1925536472358718,0.14161025566118476,,,,,,
14,8,-0.8253004550933838,-0.08369205147027971,9.780265808105469,0.0065036225132644185,-0.0022139144130051136,0.001195833319798112,-0.4806827902793884,0.6534311175346376,-0.8684725165367128,0.0010450051518261785,3.2019500940849888,0.14221147077810184,,,,,,
14,9,-0.8638227581977845,-0.05638230964541436,9.785177230834961,0.01156444288790226,-0.0022686847951263194,0.006968499161303043,-0.4792764186859131,0.6534461975097656,-0.8699938654899598,0.005912211503285822,3.211373864965747,0.1461183116358068,,,,,,
14,10,-0.8324437737464906,-0.028079153969883922,9.772319793701172,0.0095162782818079,-0.003984516020864249,0.0016126231057569387,-0.4816080033779145,0.6534120440483094,-0.8669534921646118,0.013782840953354369,3.238429907534029,0.1514105132655041,,,,,,
14,11,-0.8324437737464906,-0.028079153969883922,9.772319793701172,0.0095162782818079,-0.003984516020864249,0.0016126231057569387,-0.4816080033779145,0.6534120440483094,-0.8669534921646118,0.013782840953354369,3.238429907534029,0.1514105132655041,,,,,,
14,12,-0.8324437737464906,-0.028079153969883922,9.772319793701172,0.0095162782818079,-0.003984516020864249,0.0016126231057569387,-0.4816080033779145,0.6534120440483094,-0.8669534921646118,0.013782840953354369,3.238429907534029,0.1514105132655041,,,,,,
14,13,-0.8320508599281312,-0.11521326005458832,9.797714233398438,0.008064130321145058,-0.008240337483584883,0.005320102907717228,-0.4788361191749573,0.6544357538223267,-0.8709840178489686,0.022664144837073713,3.2589646066538016,0.15607540299763947,,,,,,
14,14,-0.8320508599281312,-0.11521326005458832,9.797714233398438,0.008064130321145058,-0.008240337483584883,0.005320102907717228,-0.4788361191749573,0.6544357538223267,-0.8709840178489686,0.022664144837073713,3.2589646066538016,0.15607540299763947,,,,,,
14,15,-0.8320508599281312,-0.11521326005458832,9.797714233398438,0.008064130321145058,-0.008240337483584883,0.005320102907717228,-0.4788361191749573,0.6544357538223267,-0.8709840178489686,0.022664144837073713,3.2589646066538016,0.15607540299763947,,,,,,
14,16,-0.7675279378890991,-0.11373044550418854,9.790507316589357,0.012726725079119207,-0.009411148726940155,0.0024814954958856106,-0.4802471995353699,0.652496635913849,-0.8710206151008607,0.027884920685309303,3.264720496280393,0.15737881121364725,,,,,,
14,17,-0.6973297595977783,-0.03230629488825799,9.799209594726562,0.009637764655053617,-0.00865455809980631,0.004740359261631966,-0.47964364290237427,0.6495119929313661,-0.8680593371391297,0.033692179840476275,3.277215138789629,0.1614056659403302,,,,,,
14,18,-0.6973297595977783,-0.03230629488825799,9.799209594726562,0.009637764655053617,-0.00865455809980631,0.004740359261631966,-0.47964364290237427,0.6495119929313661,-0.8680593371391297,0.033692179840476275,3.277215138789629,0.1614056659403302,,,,,,
14,19,-0.757839560508728,-0.08548377454280853,9.801531791687013,0.009228695183992386,-0.007737755309790374,0.0024523939937353134,-0.48256644606590277,0.6524536013603212,-0.86747545003891,0.03683603825535907,3.283764456286899,0.1626703291828005,,,,,,
14,20,-0.739781677722931,-0.08667203038930894,9.760005950927734,0.009096815250813963,-0.00636649876832962,0.0017914765048772097,-0.4826276600360871,0.6539438962936401,-0.8689571619033813,0.03984477020873016,3.291063569978775,0.16354639405587013,,,,,,
14,21,-0.7784792184829712,-0.029355609789490703,9.813024520874023,0.009451459161937239,-0.01176965981721878,0.0016682170098647477,-0.4811316132545471,0.6514840126037598,-0.8685137033462524,0.05583873920708863,3.32301504086569,0.16999349996591287,,,,,,
14,22,-0.7784792184829712,-0.029355609789490703,9.813024520874023,0.009451459161937239,-0.01176965981721878,0.0016682170098647477,-0.4811316132545471,0.6514840126037598,-0.8685137033462524,0.05583873920708863,3.32301504086569,0.16999349996591287,,,,,,
15,0,-1.0118136405944824,-0.17489171028137207,9.754655838012695,0.009147089906036856,-0.00812448374927044,0.0050242627039551735,-0.47934618592262274,0.653979003429413,-0.8725069761276245,-0.016735590753635954,3.1739286477476507,0.13670217555052175,,,,,,
15,1,-1.0118136405944824,-0.17489171028137207,9.754655838012695,0.009147089906036856,-0.00812448374927044,0.0050242627039551735,-0.47934618592262274,0.653979003429413,-0.8725069761276245,-0.016735590753635954,3.1739286477476507,0.13670217555052175,,,,,,
15,2,-1.0118136405944824,-0.17489171028137207,9.754655838012695,0.009147089906036856,-0.00812448374927044,0.0050242627039551735,-0.47934618592262274,0.653979003429413,-0.8725069761276245,-0.016735590753635954,3.1739286477476507,0.13670217555052175,,,,,,
15,3,-1.0118136405944824,-0.17489171028137207,9.754655838012695,0.009147089906036856,-0.00812448374927044,0.0050242627039551735,-0.47934618592262274,0.653979003429413,-0.8725069761276245,-0.016735590753635954,3.1739286477476507,0.13670217555052175,,,,,,
15,4,-1.0118136405944824,-0.17489171028137207,9.754655838012695,0.009147089906036856,-0.00812448374927044,0.0050242627039551735,-0.47934618592262274,0.653979003429413,-0.8725069761276245,-0.016735590753635954,3.1739286477476507,0.13670217555052175,,,,,,
15,5,-0.981752097606659,-0.16550105810165405,9.782356262207031,0.0125590730458498,-0.009247669018805029,0.004300089552998543,-0.48023486137390137,0.6524876356124878,-0.8705158233642578,-0.011222834544739466,3.178793937339932,0.1390978378852821,,,,,,
15,6,-0.8852380514144897,-0.015652989968657497,9.761595726013185,0.010966858826577665,-0.006764013320207596,0.00508954143151641,-0.48115155100822454,0.6534261107444764,-0.8679654002189637,-0.0007764279804101623,3.1925536472358718,0.14161025566118476,,,,,,
15,7,-0.8852380514144897,-0.015652989968657497,9.761595726013185,0.010966858826577665,-0.006764013320207596,0.00508954143151641,-0.48115155100822454,0.6534261107444764,-0.8679654002189637,-0.0007764279804101623,3.1925536472358718,0.14161025566118476,,,,,,
15,8,-0.8253004550933838,-0.08369205147027971,9.780265808105469,0.0065036225132644185,-0.0022139144130051136,0.001195833319798112,-0.4806827902793884,0.6534311175346376,-0.8684725165367128,0.0010450051518261785,3.2019500940849888,0.14221147077810184,,,,,,
15,9,-0.8638227581977845,-0.05638230964541436,9.785177230834961,0.01156444288790226,-0.0022686847951263194,0.006968499161303043,-0.4792764186859131,0.6534461975097656,-0.8699938654899598,0.005912211503285822,3.211373864965747,0.1461183116358068,,,,,,
15,10,-0.8324437737464906,-0.028079153969883922,9.772319793701172,0.0095162782818079,-0.003984516020864249,0.0016126231057569387,-0.4816080033779145,0.6534120440483094,-0.8669534921646118,0.013782840953354369,3.238429907534029,0.1514105132655041,,,,,,
15,11,-0.8324437737464906,-0.028079153969883922,9.772319793701172,0.0095162782818079,-0.003984516020864249,0.0016126231057569387,-0.4816080033779145,0.6534120440483094,-0.8669534921646118,0.013782840953354369,3.238429907534029,0.1514105132655041,,,,,,
15,12,-0.8324437737464906,-0.028079153969883922,9.772319793701172,0.0095162782818079,-0.003984516020864249,0.0016126231057569387,-0.4816080033779145,0.6534120440483094,-0.8669534921646118,0.013782840953354369,3.238429907534029,0.1514105132655041,,,,,,
15,13,-0.8320508599281312,-0.11521326005458832,9.797714233398438,0.008064130321145058,-0.008240337483584883,0.005320102907717228,-0.4788361191749573,0.6544357538223267,-0.8709840178489686,0.022664144837073713,3.2589646066538016,0.15607540299763947,,,,,,
15,14,-0.8320508599281312,-0.11521326005458832,9.797714233398438,0.008064130321145058,-0.008240337483584883,0.005320102907717228,-0.4788361191749573,0.6544357538223267,-0.8709840178489686,0.022664144837073713,3.2589646066538016,0.15607540299763947,,,,,,
15,15,-0.8320508599281312,-0.11521326005458832,9.797714233398438,0.008064130321145058,-0.008240337483584883,0.005320102907717228,-0.4788361191749573,0.6544357538223267,-0.8709840178489686,0.022664144837073713,3.2589646066538016,0.15607540299763947,,,,,,
15,16,-0.7675279378890991,-0.11373044550418854,9.790507316589357,0.012726725079119207,-0.009411148726940155,0.0024814954958856106,-0.4802471995353699,0.652496635913849,-0.8710206151008607,0.027884920685309303,3.264720496280393,0.15737881121364725,,,,,,
15,17,-0.6973297595977783,-0.03230629488825799,9.799209594726562,0.009637764655053617,-0.00865455809980631,0.004740359261631966,-0.47964364290237427,0.6495119929313661,-0.8680593371391297,0.033692179840476275,3.277215138789629,0.1614056659403302,,,,,,
15,18,-0.6973297595977783,-0.03230629488825799,9.799209594726562,0.009637764655053617,-0.00865455809980631,0.004740359261631966,-0.47964364290237427,0.6495119929313661,-0.8680593371391297,0.033692179840476275,3.277215138789629,0.1614056659403302,,,,,,
15,19,-0.757839560508728,-0.08548377454280853,9.801531791687013,0.009228695183992386,-0.007737755309790374,0.0024523939937353134,-0.48256644606590277,0.6524536013603212,-0.86747545003891,0.03683603825535907,3.283764456286899,0.1626703291828005,,,,,,
15,20,-0.739781677722931,-0.08667203038930894,9.760005950927734,0.009096815250813963,-0.00636649876832962,0.0017914765048772097,-0.4826276600360871,0.6539438962936401,-0.8689571619033813,0.03984477020873016,3.291063569978775,0.16354639405587013,,,,,,
15,21,-0.7784792184829712,-0.029355609789490703,9.813024520874023,0.009451459161937239,-0.01176965981721878,0.0016682170098647477,-0.4811316132545471,0.6514840126037598,-0.8685137033462524,0.05583873920708863,3.32301504086569,0.16999349996591287,,,,,,
15,22,-0.7784792184829712,-0.029355609789490703,9.813024520874023,0.009451459161937239,-0.01176965981721878,0.0016682170098647477,-0.4811316132545471,0.6514840126037598,-0.8685137033462524,0.05583873920708863,3.32301504086569,0.16999349996591287,,,,,,
16,0,-1.0118136405944824,-0.17489171028137207,9.754655838012695,0.009147089906036856,-0.00812448374927044,0.0050242627039551735,-0.47934618592262274,0.653979003429413,-0.8725069761276245,-0.016735590753635954,3.1739286477476507,0.13670217555052175,,,,,,
16,1,-1.0118136405944824,-0.17489171028137207,9.754655838012695,0.009147089906036856,-0.00812448374927044,0.0050242627039551735,-0.47934618592262274,0.653979003429413,-0.8725069761276245,-0.016735590753635954,3.1739286477476507,0.13670217555052175,,,,,,
16,2,-1.0118136405944824,-0.17489171028137207,9.754655838012695,0.009147089906036856,-0.00812448374927044,0.0050242627039551735,-0.47934618592262274,0.653979003429413,-0.8725069761276245,-0.016735590753635954,3.1739286477476507,0.13670217555052175,,,,,,
16,3,-1.0118136405944824,-0.17489171028137207,9.754655838012695,0.009147089906036856,-0.00812448374927044,0.0050242627039551735,-0.47934618592262274,0.653979003429413,-0.8725069761276245,-0.016735590753635954,3.1739286477476507,0.13670217555052175,,,,,,
16,4,-1.0118136405944824,-0.17489171028137207,9.754655838012695,0.009147089906036856,-0.00812448374927044,0.0050242627039551735,-0.47934618592262274,0.653979003429413,-0.8725069761276245,-0.016735590753635954,3.1739286477476507,0.13670217555052175,,,,,,
16,5,-0.981752097606659,-0.16550105810165405,9.782356262207031,0.0125590730458498,-0.009247669018805029,0.004300089552998543,-0.48023486137390137,0.6524876356124878,-0.8705158233642578,-0.011222834544739466,3.178793937339932,0.1390978378852821,,,,,,
16,6,-0.8852380514144897,-0.015652989968657497,9.761595726013185,0.010966858826577665,-0.006764013320207596,0.00508954143151641,-0.48115155100822454,0.6534261107444764,-0.8679654002189637,-0.0007764279804101623,3.1925536472358718,0.14161025566118476,,,,,,
16,7,-0.8852380514144897,-0.015652989968657497,9.761595726013185,0.010966858826577665,-0.006764013320207596,0.00508954143151641,-0.48115155100822454,0.6534261107444764,-0.8679654002189637,-0.0007764279804101623,3.1925536472358718,0.14161025566118476,,,,,,
16,8,-0.8253004550933838,-0.08369205147027971,9.780265808105469,0.0065036225132644185,-0.0022139144130051136,0.001195833319798112,-0.4806827902793884,0.6534311175346376,-0.8684725165367128,0.0010450051518261785,3.2019500940849888,0.14221147077810184,,,,,,
16,9,-0.8638227581977845,-0.05638230964541436,9.785177230834961,0.01156444288790226,-0.0022686847951263194,0.006968499161303043,-0.4792764186859131,0.6534461975097656,-0.8699938654899598,0.005912211503285822,3.211373864965747,0.1461183116358068,,,,,,
16,10,-0.8324437737464906,-0.028079153969883922,9.772319793701172,0.0095162782818079,-0.003984516020864249,0.0016126231057569387,-0.4816080033779145,0.6534120440483094,-0.8669534921646118,0.013782840953354369,3.238429907534029,0.1514105132655041,,,,,,
16,11,-0.8324437737464906,-0.028079153969883922,9.772319793701172,0.0095162782818079,-0.003984516020864249,0.0016126231057569387,-0.4816080033779145,0.6534120440483094,-0.8669534921646118,0.013782840953354369,3.238429907534029,0.1514105132655041,,,,,,
16,12,-0.8324437737464906,-0.028079153969883922,9.772319793701172,0.0095162782818079,-0.003984516020864249,0.0016126231057569387,-0.4816080033779145,0.6534120440483094,-0.8669534921646118,0.013782840953354369,3.238429907534029,0.1514105132655041,,,,,,
16,13,-0.8320508599281312,-0.11521326005458832,9.797714233398438,0.008064130321145058,-0.008240337483584883,0.005320102907717228,-0.4788361191749573,0.6544357538223267,-0.8709840178489686,0.022664144837073713,3.2589646066538016,0.15607540299763947,,,,,,
16,14,-0.8320508599281312,-0.11521326005458832,9.797714233398438,0.008064130321145058,-0.008240337483584883,0.005320102907717228,-0.4788361191749573,0.6544357538223267,-0.8709840178489686,0.022664144837073713,3.2589646066538016,0.15607540299763947,,,,,,
16,15,-0.8320508599281312,-0.11521326005458832,9.797714233398438,0.008064130321145058,-0.008240337483584883,0.005320102907717228,-0.4788361191749573,0.6544357538223267,-0.8709840178489686,0.022664144837073713,3.2589646066538016,0.15607540299763947,,,,,,
16,16,-0.7675279378890991,-0.11373044550418854,9.790507316589357,0.012726725079119207,-0.009411148726940155,0.0024814954958856106,-0.4802471995353699,0.652496635913849,-0.8710206151008607,0.027884920685309303,3.264720496280393,0.15737881121364725,,,,,,
16,17,-0.6973297595977783,-0.03230629488825799,9.799209594726562,0.009637764655053617,-0.00865455809980631,0.004740359261631966,-0.47964364290237427,0.6495119929313661,-0.8680593371391297,0.033692179840476275,3.277215138789629,0.1614056659403302,,,,,,
16,18,-0.6973297595977783,-0.03230629488825799,9.799209594726562,0.009637764655053617,-0.00865455809980631,0.004740359261631966,-0.47964364290237427,0.6495119929313661,-0.8680593371391297,0.033692179840476275,3.277215138789629,0.1614056659403302,,,,,,
16,19,-0.757839560508728,-0.08548377454280853,9.801531791687013,0.009228695183992386,-0.007737755309790374,0.0024523939937353134,-0.48256644606590277,0.6524536013603212,-0.86747545003891,0.03683603825535907,3.283764456286899,0.1626703291828005,,,,,,
16,20,-0.739781677722931,-0.08667203038930894,9.760005950927734,0.009096815250813963,-0.00636649876832962,0.0017914765048772097,-0.4826276600360871,0.6539438962936401,-0.8689571619033813,0.03984477020873016,3.291063569978775,0.16354639405587013,,,,,,
16,21,-0.7784792184829712,-0.029355609789490703,9.813024520874023,0.009451459161937239,-0.01176965981721878,0.0016682170098647477,-0.4811316132545471,0.6514840126037598,-0.8685137033462524,0.05583873920708863,3.32301504086569,0.16999349996591287,,,,,,
16,22,-0.7784792184829712,-0.029355609789490703,9.813024520874023,0.009451459161937239,-0.01176965981721878,0.0016682170098647477,-0.4811316132545471,0.6514840126037598,-0.8685137033462524,0.05583873920708863,3.32301504086569,0.16999349996591287,,,,,,
17,0,-1.0118136405944824,-0.17489171028137207,9.754655838012695,0.009147089906036856,-0.00812448374927044,0.0050242627039551735,-0.47934618592262274,0.653979003429413,-0.8725069761276245,-0.016735590753635954,3.1739286477476507,0.13670217555052175,,,,,,
17,1,-1.0118136405944824,-0.17489171028137207,9.754655838012695,0.009147089906036856,-0.00812448374927044,0.0050242627039551735,-0.47934618592262274,0.653979003429413,-0.8725069761276245,-0.016735590753635954,3.1739286477476507,0.13670217555052175,,,,,,
17,2,-1.0118136405944824,-0.17489171028137207,9.754655838012695,0.009147089906036856,-0.00812448374927044,0.0050242627039551735,-0.47934618592262274,0.653979003429413,-0.8725069761276245,-0.016735590753635954,3.1739286477476507,0.13670217555052175,,,,,,
17,3,-1.0118136405944824,-0.17489171028137207,9.754655838012695,0.009147089906036856,-0.00812448374927044,0.0050242627039551735,-0.47934618592262274,0.653979003429413,-0.8725069761276245,-0.016735590753635954,3.1739286477476507,0.13670217555052175,,,,,,
17,4,-1.0118136405944824,-0.17489171028137207,9.754655838012695,0.009147089906036856,-0.00812448374927044,0.0050242627039551735,-0.47934618592262274,0.653979003429413,-0.8725069761276245,-0.016735590753635954,3.1739286477476507,0.13670217555052175,,,,,,
17,5,-0.981752097606659,-0.16550105810165405,9.782356262207031,0.0125590730458498,-0.009247669018805029,0.004300089552998543,-0.48023486137390137,0.6524876356124878,-0.8705158233642578,-0.011222834544739466,3.178793937339932,0.1390978378852821,,,,,,
17,6,-0.8852380514144897,-0.015652989968657497,9.761595726013185,0.010966858826577665,-0.006764013320207596,0.00508954143151641,-0.48115155100822454,0.6534261107444764,-0.8679654002189637,-0.0007764279804101623,3.1925536472358718,0.14161025566118476,,,,,,
17,7,-0.8852380514144897,-0.015652989968657497,9.761595726013185,0.010966858826577665,-0.006764013320207596,0.00508954143151641,-0.48115155100822454,0.6534261107444764,-0.8679654002189637,-0.0007764279804101623,3.1925536472358718,0.14161025566118476,,,,,,
17,8,-0.8253004550933838,-0.08369205147027971,9.780265808105469,0.0065036225132644185,-0.0022139144130051136,0.001195833319798112,-0.4806827902793884,0.6534311175346376,-0.8684725165367128,0.0010450051518261785,3.2019500940849888,0.14221147077810184,,,,,,
17,9,-0.8638227581977845,-0.05638230964541436,9.785177230834961,0.01156444288790226,-0.0022686847951263194,0.006968499161303043,-0.4792764186859131,0.6534461975097656,-0.8699938654899598,0.005912211503285822,3.211373864965747,0.1461183116358068,,,,,,
17,10,-0.8324437737464906,-0.028079153969883922,9.772319793701172,0.0095162782818079,-0.003984516020864249,0.0016126231057569387,-0.4816080033779145,0.6534120440483094,-0.8669534921646118,0.013782840953354369,3.238429907534029,0.1514105132655041,,,,,,
17,11,-0.8324437737464906,-0.028079153969883922,9.772319793701172,0.0095162782818079,-0.003984516020864249,0.0016126231057569387,-0.4816080033779145,0.6534120440483094,-0.8669534921646118,0.013782840953354369,3.238429907534029,0.1514105132655041,,,,,,
17,12,-0.8324437737464906,-0.028079153969883922,9.772319793701172,0.0095162782818079,-0.003984516020864249,0.0016126231057569387,-0.4816080033779145,0.6534120440483094,-0.8669534921646118,0.013782840953354369,3.238429907534029,0.1514105132655041,,,,,,
17,13,-0.8320508599281312,-0.11521326005458832,9.797714233398438,0.008064130321145058,-0.008240337483584883,0.005320102907717228,-0.4788361191749573,0.6544357538223267,-0.8709840178489686,0.022664144837073713,3.2589646066538016,0.15607540299763947,,,,,,
17,14,-0.8320508599281312,-0.11521326005458832,9.797714233398438,0.008064130321145058,-0.008240337483584883,0.005320102907717228,-0.4788361191749573,0.6544357538223267,-0.8709840178489686,0.022664144837073713,3.2589646066538016,0.15607540299763947,,,,,,
17,15,-0.8320508599281312,-0.11521326005458832,9.797714233398438,0.008064130321145058,-0.008240337483584883,0.005320102907717228,-0.4788361191749573,0.6544357538223267,-0.8709840178489686,0.022664144837073713,3.2589646066538016,0.15607540299763947,,,,,,
17,16,-0.7675279378890991,-0.11373044550418854,9.790507316589357,0.012726725079119207,-0.009411148726940155,0.0024814954958856106,-0.4802471995353699,0.652496635913849,-0.8710206151008607,0.027884920685309303,3.264720496280393,0.15737881121364725,,,,,,
17,17,-0.6973297595977783,-0.03230629488825799,9.799209594726562,0.009637764655053617,-0.00865455809980631,0.004740359261631966,-0.47964364290237427,0.6495119929313661,-0.8680593371391297,0.033692179840476275,3.277215138789629,0.1614056659403302,,,,,,
17,18,-0.6973297595977783,-0.03230629488825799,9.799209594726562,0.009637764655053617,-0.00865455809980631,0.004740359261631966,-0.47964364290237427,0.6495119929313661,-0.8680593371391297,0.033692179840476275,3.277215138789629,0.1614056659403302,,,,,,
17,19,-0.757839560508728,-0.08548377454280853,9.801531791687013,0.009228695183992386,-0.007737755309790374,0.0024523939937353134,-0.48256644606590277,0.6524536013603212,-0.86747545003891,0.03683603825535907,3.283764456286899,0.1626703291828005,,,,,,
17,20,-0.739781677722931,-0.08667203038930894,9.760005950927734,0.009096815250813963,-0.00636649876832962,0.0017914765048772097,-0.4826276600360871,0.6539438962936401,-0.8689571619033813,0.03984477020873016,3.291063569978775,0.16354639405587013,,,,,,
17,21,-0.7784792184829712,-0.029355609789490703,9.813024520874023,0.009451459161937239,-0.01176965981721878,0.0016682170098647477,-0.4811316132545471,0.6514840126037598,-0.8685137033462524,0.05583873920708863,3.32301504086569,0.16999349996591287,,,,,,
17,22,-0.7784792184829712,-0.029355609789490703,9.813024520874023,0.009451459161937239,-0.01176965981721878,0.0016682170098647477,-0.4811316132545471,0.6514840126037598,-0.8685137033462524,0.05583873920708863,3.32301504086569,0.16999349996591287,,,,,,
18,0,-1.0118136405944824,-0.17489171028137207,9.754655838012695,0.009147089906036856,-0.00812448374927044,0.0050242627039551735,-0.47934618592262274,0.653979003429413,-0.8725069761276245,-0.016735590753635954,3.1739286477476507,0.13670217555052175,,,,,,
18,1,-1.0118136405944824,-0.17489171028137207,9.754655838012695,0.009147089906036856,-0.00812448374927044,0.0050242627039551735,-0.47934618592262274,0.653979003429413,-0.8725069761276245,-0.016735590753635954,3.1739286477476507,0.13670217555052175,,,,,,
18,2,-1.0118136405944824,-0.17489171028137207,9.754655838012695,0.009147089906036856,-0.00812448374927044,0.0050242627039551735,-0.47934618592262274,0.653979003429413,-0.8725069761276245,-0.016735590753635954,3.1739286477476507,0.13670217555052175,,,,,,
18,3,-1.0118136405944824,-0.17489171028137207,9.754655838012695,0.009147089906036856,-0.00812448374927044,0.0050242627039551735,-0.47934618592262274,0.653979003429413,-0.8725069761276245,-0.016735590753635954,3.1739286477476507,0.13670217555052175,,,,,,
18,4,-1.0118136405944824,-0.17489171028137207,9.754655838012695,0.009147089906036856,-0.00812448374927044,0.0050242627039551735,-0.47934618592262274,0.653979003429413,-0.8725069761276245,-0.016735590753635954,3.1739286477476507,0.13670217555052175,,,,,,
18,5,-0.981752097606659,-0.16550105810165405,9.782356262207031,0.0125590730458498,-0.009247669018805029,0.004300089552998543,-0.48023486137390137,0.6524876356124878,-0.8705158233642578,-0.011222834544739466,3.178793937339932,0.1390978378852821,,,,,,
18,6,-0.8852380514144897,-0.015652989968657497,9.761595726013185,0.010966858826577665,-0.006764013320207596,0.00508954143151641,-0.48115155100822454,0.6534261107444764,-0.8679654002189637,-0.0007764279804101623,3.1925536472358718,0.14161025566118476,,,,,,
18,7,-0.8852380514144897,-0.015652989968657497,9.761595726013185,0.010966858826577665,-0.006764013320207596,0.00508954143151641,-0.48115155100822454,0.6534261107444764,-0.8679654002189637,-0.0007764279804101623,3.1925536472358718,0.14161025566118476,,,,,,
18,8,-0.8253004550933838,-0.08369205147027971,9.780265808105469,0.0065036225132644185,-0.0022139144130051136,0.001195833319798112,-0.4806827902793884,0.6534311175346376,-0.8684725165367128,0.0010450051518261785,3.2019500940849888,0.14221147077810184,,,,,,
18,9,-0.8638227581977845,-0.05638230964541436,9.785177230834961,0.01156444288790226,-0.0022686847951263194,0.006968499161303043,-0.4792764186859131,0.6534461975097656,-0.8699938654899598,0.005912211503285822,3.211373864965747,0.1461183116358068,,,,,,
18,10,-0.8324437737464906,-0.028079153969883922,9.772319793701172,0.0095162782818079,-0.003984516020864249,0.0016126231057569387,-0.4816080033779145,0.6534120440483094,-0.8669534921646118,0.013782840953354369,3.238429907534029,0.1514105132655041,,,,,,
18,11,-0.8324437737464906,-0.028079153969883922,9.772319793701172,0.0095162782818079,-0.003984516020864249,0.0016126231057569387,-0.4816080033779145,0.6534120440483094,-0.8669534921646118,0.013782840953354369,3.238429907534029,0.1514105132655041,,,,,,
18,12,-0.8324437737464906,-0.028079153969883922,9.772319793701172,0.0095162782818079,-0.003984516020864249,0.0016126231057569387,-0.4816080033779145,0.6534120440483094,-0.8669534921646118,0.013782840953354369,3.238429907534029,0.1514105132655041,,,,,,
18,13,-0.8320508599281312,-0.11521326005458832,9.797714233398438,0.008064130321145058,-0.008240337483584883,0.005320102907717228,-0.4788361191749573,0.6544357538223267,-0.8709840178489686,0.022664144837073713,3.2589646066538016,0.15607540299763947,,,,,,
18,14,-0.8320508599281312,-0.11521326005458832,9.797714233398438,0.008064130321145058,-0.008240337483584883,0.005320102907717228,-0.4788361191749573,0.6544357538223267,-0.8709840178489686,0.022664144837073713,3.2589646066538016,0.15607540299763947,,,,,,
18,15,-0.8320508599281312,-0.11521326005458832,9.797714233398438,0.008064130321145058,-0.008240337483584883,0.005320102907717228,-0.4788361191749573,0.6544357538223267,-0.8709840178489686,0.022664144837073713,3.2589646066538016,0.15607540299763947,,,,,,
18,16,-0.7675279378890991,-0.11373044550418854,9.790507316589357,0.012726725079119207,-0.009411148726940155,0.0024814954958856106,-0.4802471995353699,0.652496635913849,-0.8710206151008607,0.027884920685309303,3.264720496280393,0.15737881121364725,,,,,,
18,17,-0.6973297595977783,-0.03230629488825799,9.799209594726562,0.009637764655053617,-0.00865455809980631,0.004740359261631966,-0.47964364290237427,0.6495119929313661,-0.8680593371391297,0.033692179840476275,3.277215138789629,0.1614056659403302,,,,,,
18,18,-0.6973297595977783,-0.03230629488825799,9.799209594726562,0.009637764655053617,-0.00865455809980631,0.004740359261631966,-0.47964364290237427,0.6495119929313661,-0.8680593371391297,0.033692179840476275,3.277215138789629,0.1614056659403302,,,,,,
18,19,-0.757839560508728,-0.08548377454280853,9.801531791687013,0.009228695183992386,-0.007737755309790374,0.0024523939937353134,-0.48256644606590277,0.6524536013603212,-0.86747545003891,0.03683603825535907,3.283764456286899,0.1626703291828005,,,,,,
18,20,-0.739781677722931,-0.08667203038930894,9.760005950927734,0.009096815250813963,-0.00636649876832962,0.0017914765048772097,-0.4826276600360871,0.6539438962936401,-0.8689571619033813,0.03984477020873016,3.291063569978775,0.16354639405587013,,,,,,
18,21,-0.7784792184829712,-0.029355609789490703,9.813024520874023,0.009451459161937239,-0.01176965981721878,0.0016682170098647477,-0.4811316132545471,0.6514840126037598,-0.8685137033462524,0.05583873920708863,3.32301504086569,0.16999349996591287,,,,,,
18,22,-0.7784792184829712,-0.029355609789490703,9.813024520874023,0.009451459161937239,-0.01176965981721878,0.0016682170098647477,-0.4811316132545471,0.6514840126037598,-0.8685137033462524,0.05583873920708863,3.32301504086569,0.16999349996591287,,,,,,
19,0,-1.0118136405944824,-0.17489171028137207,9.754655838012695,0.009147089906036856,-0.00812448374927044,0.0050242627039551735,-0.47934618592262274,0.653979003429413,-0.8725069761276245,-0.016735590753635954,3.1739286477476507,0.13670217555052175,,,,,,
19,1,-1.0118136405944824,-0.17489171028137207,9.754655838012695,0.009147089906036856,-0.00812448374927044,0.0050242627039551735,-0.47934618592262274,0.653979003429413,-0.8725069761276245,-0.016735590753635954,3.1739286477476507,0.13670217555052175,,,,,,
19,2,-1.0118136405944824,-0.17489171028137207,9.754655838012695,0.009147089906036856,-0.00812448374927044,0.0050242627039551735,-0.47934618592262274,0.653979003429413,-0.8725069761276245,-0.016735590753635954,3.1739286477476507,0.13670217555052175,,,,,,
19,3,-1.0118136405944824,-0.17489171028137207,9.754655838012695,0.009147089906036856,-0.00812448374927044,0.0050242627039551735,-0.47934618592262274,0.653979003429413,-0.8725069761276245,-0.016735590753635954,3.1739286477476507,0.13670217555052175,,,,,,
19,4,-1.0118136405944824,-0.17489171028137207,9.754655838012695,0.009147089906036856,-0.00812448374927044,0.0050242627039551735,-0.47934618592262274,0.653979003429413,-0.8725069761276245,-0.016735590753635954,3.1739286477476507,0.13670217555052175,,,,,,
19,5,-0.981752097606659,-0.16550105810165405,9.782356262207031,0.0125590730458498,-0.009247669018805029,0.004300089552998543,-0.48023486137390137,0.6524876356124878,-0.8705158233642578,-0.011222834544739466,3.178793937339932,0.1390978378852821,,,,,,
19,6,-0.8852380514144897,-0.015652989968657497,9.761595726013185,0.010966858826577665,-0.006764013320207596,0.00508954143151641,-0.48115155100822454,0.6534261107444764,-0.8679654002189637,-0.0007764279804101623,3.1925536472358718,0.14161025566118476,,,,,,
19,7,-0.8852380514144897,-0.015652989968657497,9.761595726013185,0.010966858826577665,-0.006764013320207596,0.00508954143151641,-0.48115155100822454,0.6534261107444764,-0.8679654002189637,-0.0007764279804101623,3.1925536472358718,0.14161025566118476,,,,,,
19,8,-0.8253004550933838,-0.08369205147027971,9.780265808105469,0.0065036225132644185,-0.0022139144130051136,0.001195833319798112,-0.4806827902793884,0.6534311175346376,-0.8684725165367128,0.0010450051518261785,3.2019500940849888,0.14221147077810184,,,,,,
19,9,-0.8638227581977845,-0.05638230964541436,9.785177230834961,0.01156444288790226,-0.0022686847951263194,0.006968499161303043,-0.4792764186859131,0.6534461975097656,-0.8699938654899598,0.005912211503285822,3.211373864965747,0.1461183116358068,,,,,,
19,10,-0.8324437737464906,-0.028079153969883922,9.772319793701172,0.0095162782818079,-0.003984516020864249,0.0016126231057569387,-0.4816080033779145,0.6534120440483094,-0.8669534921646118,0.013782840953354369,3.238429907534029,0.1514105132655041,,,,,,
19,11,-0.8324437737464906,-0.028079153969883922,9.772319793701172,0.0095162782818079,-0.003984516020864249,0.0016126231057569387,-0.4816080033779145,0.6534120440483094,-0.8669534921646118,0.013782840953354369,3.238429907534029,0.1514105132655041,,,,,,
19,12,-0.8324437737464906,-0.028079153969883922,9.772319793701172,0.0095162782818079,-0.003984516020864249,0.0016126231057569387,-0.4816080033779145,0.6534120440483094,-0.8669534921646118,0.013782840953354369,3.238429907534029,0.1514105132655041,,,,,,
19,13,-0.8320508599281312,-0.11521326005458832,9.797714233398438,0.008064130321145058,-0.008240337483584883,0.005320102907717228,-0.4788361191749573,0.6544357538223267,-0.8709840178489686,0.022664144837073713,3.2589646066538016,0.15607540299763947,,,,,,
19,14,-0.8320508599281312,-0.11521326005458832,9.797714233398438,0.008064130321145058,-0.008240337483584883,0.005320102907717228,-0.4788361191749573,0.6544357538223267,-0.8709840178489686,0.022664144837073713,3.2589646066538016,0.15607540299763947,,,,,,
19,15,-0.8320508599281312,-0.11521326005458832,9.797714233398438,0.008064130321145058,-0.008240337483584883,0.005320102907717228,-0.4788361191749573,0.6544357538223267,-0.8709840178489686,0.022664144837073713,3.2589646066538016,0.15607540299763947,,,,,,
19,16,-0.7675279378890991,-0.11373044550418854,9.790507316589357,0.012726725079119207,-0.009411148726940155,0.0024814954958856106,-0.4802471995353699,0.652496635913849,-0.8710206151008607,0.027884920685309303,3.264720496280393,0.15737881121364725,,,,,,
19,17,-0.6973297595977783,-0.03230629488825799,9.799209594726562,0.009637764655053617,-0.00865455809980631,0.004740359261631966,-0.47964364290237427,0.6495119929313661,-0.8680593371391297,0.033692179840476275,3.277215138789629,0.1614056659403302,,,,,,
19,18,-0.6973297595977783,-0.03230629488825799,9.799209594726562,0.009637764655053617,-0.00865455809980631,0.004740359261631966,-0.47964364290237427,0.6495119929313661,-0.8680593371391297,0.033692179840476275,3.277215138789629,0.1614056659403302,,,,,,
19,19,-0.757839560508728,-0.08548377454280853,9.801531791687013,0.009228695183992386,-0.007737755309790374,0.0024523939937353134,-0.48256644606590277,0.6524536013603212,-0.86747545003891,0.03683603825535907,3.283764456286899,0.1626703291828005,,,,,,
19,20,-0.739781677722931,-0.08667203038930894,9.760005950927734,0.009096815250813963,-0.00636649876832962,0.0017914765048772097,-0.4826276600360871,0.6539438962936401,-0.8689571619033813,0.03984477020873016,3.291063569978775,0.16354639405587013,,,,,,
19,21,-0.7784792184829712,-0.029355609789490703,9.813024520874023,0.009451459161937239,-0.01176965981721878,0.0016682170098647477,-0.4811316132545471,0.6514840126037598,-0.8685137033462524,0.05583873920708863,3.32301504086569,0.16999349996591287,,,,,,
19,22,-0.7784792184829712,-0.029355609789490703,9.813024520874023,0.009451459161937239,-0.01176965981721878,0.0016682170098647477,-0.4811316132545471,0.6514840126037598,-0.8685137033462524,0.05583873920708863,3.32301504086569,0.16999349996591287,,,,,,
20,0,-1.0118136405944824,-0.17489171028137207,9.754655838012695,0.009147089906036856,-0.00812448374927044,0.0050242627039551735,-0.47934618592262274,0.653979003429413,-0.8725069761276245,-0.016735590753635954,3.1739286477476507,0.13670217555052175,,,,,,
20,1,-1.0118136405944824,-0.17489171028137207,9.754655838012695,0.009147089906036856,-0.00812448374927044,0.0050242627039551735,-0.47934618592262274,0.653979003429413,-0.8725069761276245,-0.016735590753635954,3.1739286477476507,0.13670217555052175,,,,,,
20,2,-1.0118136405944824,-0.17489171028137207,9.754655838012695,0.009147089906036856,-0.00812448374927044,0.0050242627039551735,-0.47934618592262274,0.653979003429413,-0.8725069761276245,-0.016735590753635954,3.1739286477476507,0.13670217555052175,,,,,,
20,3,-1.0118136405944824,-0.17489171028137207,9.754655838012695,0.009147089906036856,-0.00812448374927044,0.0050242627039551735,-0.47934618592262274,0.653979003429413,-0.8725069761276245,-0.016735590753635954,3.1739286477476507,0.13670217555052175,,,,,,
20,4,-1.0118136405944824,-0.17489171028137207,9.754655838012695,0.009147089906036856,-0.00812448374927044,0.0050242627039551735,-0.47934618592262274,0.653979003429413,-0.8725069761276245,-0.016735590753635954,3.1739286477476507,0.13670217555052175,,,,,,
20,5,-0.981752097606659,-0.16550105810165405,9.782356262207031,0.0125590730458498,-0.009247669018805029,0.004300089552998543,-0.48023486137390137,0.6524876356124878,-0.8705158233642578,-0.011222834544739466,3.178793937339932,0.1390978378852821,,,,,,
20,6,-0.8852380514144897,-0.015652989968657497,9.761595726013185,0.010966858826577665,-0.006764013320207596,0.00508954143151641,-0.48115155100822454,0.6534261107444764,-0.8679654002189637,-0.0007764279804101623,3.1925536472358718,0.14161025566118476,,,,,,
20,7,-0.8852380514144897,-0.015652989968657497,9.761595726013185,0.010966858826577665,-0.006764013320207596,0.00508954143151641,-0.48115155100822454,0.6534261107444764,-0.8679654002189637,-0.0007764279804101623,3.1925536472358718,0.14161025566118476,,,,,,
20,8,-0.8253004550933838,-0.08369205147027971,9.780265808105469,0.0065036225132644185,-0.0022139144130051136,0.001195833319798112,-0.4806827902793884,0.6534311175346376,-0.8684725165367128,0.0010450051518261785,3.2019500940849888,0.14221147077810184,,,,,,
20,9,-0.8638227581977845,-0.05638230964541436,9.785177230834961,0.01156444288790226,-0.0022686847951263194,0.006968499161303043,-0.4792764186859131,0.6534461975097656,-0.8699938654899598,0.005912211503285822,3.211373864965747,0.1461183116358068,,,,,,
20,10,-0.8324437737464906,-0.028079153969883922,9.772319793701172,0.0095162782818079,-0.003984516020864249,0.0016126231057569387,-0.4816080033779145,0.6534120440483094,-0.8669534921646118,0.013782840953354369,3.238429907534029,0.1514105132655041,,,,,,
20,11,-0.8324437737464906,-0.028079153969883922,9.772319793701172,0.0095162782818079,-0.003984516020864249,0.0016126231057569387,-0.4816080033779145,0.6534120440483094,-0.8669534921646118,0.013782840953354369,3.238429907534029,0.1514105132655041,,,,,,
20,12,-0.8324437737464906,-0.028079153969883922,9.772319793701172,0.0095162782818079,-0.003984516020864249,0.0016126231057569387,-0.4816080033779145,0.6534120440483094,-0.8669534921646118,0.013782840953354369,3.238429907534029,0.1514105132655041,,,,,,
20,13,-0.8320508599281312,-0.11521326005458832,9.797714233398438,0.008064130321145058,-0.008240337483584883,0.005320102907717228,-0.4788361191749573,0.6544357538223267,-0.8709840178489686,0.022664144837073713,3.2589646066538016,0.15607540299763947,,,,,,
20,14,-0.8320508599281312,-0.11521326005458832,9.797714233398438,0.008064130321145058,-0.008240337483584883,0.005320102907717228,-0.4788361191749573,0.6544357538223267,-0.8709840178489686,0.022664144837073713,3.2589646066538016,0.15607540299763947,,,,,,
20,15,-0.8320508599281312,-0.11521326005458832,9.797714233398438,0.008064130321145058,-0.008240337483584883,0.005320102907717228,-0.4788361191749573,0.6544357538223267,-0.8709840178489686,0.022664144837073713,3.2589646066538016,0.15607540299763947,,,,,,
20,16,-0.7675279378890991,-0.11373044550418854,9.790507316589357,0.012726725079119207,-0.009411148726940155,0.0024814954958856106,-0.4802471995353699,0.652496635913849,-0.8710206151008607,0.027884920685309303,3.264720496280393,0.15737881121364725,,,,,,
20,17,-0.6973297595977783,-0.03230629488825799,9.799209594726562,0.009637764655053617,-0.00865455809980631,0.004740359261631966,-0.47964364290237427,0.6495119929313661,-0.8680593371391297,0.033692179840476275,3.277215138789629,0.1614056659403302,,,,,,
20,18,-0.6973297595977783,-0.03230629488825799,9.799209594726562,0.009637764655053617,-0.00865455809980631,0.004740359261631966,-0.47964364290237427,0.6495119929313661,-0.8680593371391297,0.033692179840476275,3.277215138789629,0.1614056659403302,,,,,,
20,19,-0.757839560508728,-0.08548377454280853,9.801531791687013,0.009228695183992386,-0.007737755309790374,0.0024523939937353134,-0.48256644606590277,0.6524536013603212,-0.86747545003891,0.03683603825535907,3.283764456286899,0.1626703291828005,,,,,,
20,20,-0.739781677722931,-0.08667203038930894,9.760005950927734,0.009096815250813963,-0.00636649876832962,0.0017914765048772097,-0.4826276600360871,0.6539438962936401,-0.8689571619033813,0.03984477020873016,3.291063569978775,0.16354639405587013,,,,,,
20,21,-0.7784792184829712,-0.029355609789490703,9.813024520874023,0.009451459161937239,-0.01176965981721878,0.0016682170098647477,-0.4811316132545471,0.6514840126037598,-0.8685137033462524,0.05583873920708863,3.32301504086569,0.16999349996591287,,,,,,
20,22,-0.7784792184829712,-0.029355609789490703,9.813024520874023,0.009451459161937239,-0.01176965981721878,0.0016682170098647477,-0.4811316132545471,0.6514840126037598,-0.8685137033462524,0.05583873920708863,3.32301504086569,0.16999349996591287,,,,,,
21,0,-1.0118136405944824,-0.17489171028137207,9.754655838012695,0.009147089906036856,-0.00812448374927044,0.0050242627039551735,-0.47934618592262274,0.653979003429413,-0.8725069761276245,-0.016735590753635954,3.1739286477476507,0.13670217555052175,,,,,,
21,1,-1.0118136405944824,-0.17489171028137207,9.754655838012695,0.009147089906036856,-0.00812448374927044,0.0050242627039551735,-0.47934618592262274,0.653979003429413,-0.8725069761276245,-0.016735590753635954,3.1739286477476507,0.13670217555052175,,,,,,
21,2,-1.0118136405944824,-0.17489171028137207,9.754655838012695,0.009147089906036856,-0.00812448374927044,0.0050242627039551735,-0.47934618592262274,0.653979003429413,-0.8725069761276245,-0.016735590753635954,3.1739286477476507,0.13670217555052175,,,,,,
21,3,-1.0118136405944824,-0.17489171028137207,9.754655838012695,0.009147089906036856,-0.00812448374927044,0.0050242627039551735,-0.47934618592262274,0.653979003429413,-0.8725069761276245,-0.016735590753635954,3.1739286477476507,0.13670217555052175,,,,,,
21,4,-1.0118136405944824,-0.17489171028137207,9.754655838012695,0.009147089906036856,-0.00812448374927044,0.0050242627039551735,-0.47934618592262274,0.653979003429413,-0.8725069761276245,-0.016735590753635954,3.1739286477476507,0.13670217555052175,,,,,,
21,5,-0.981752097606659,-0.16550105810165405,9.782356262207031,0.0125590730458498,-0.009247669018805029,0.004300089552998543,-0.48023486137390137,0.6524876356124878,-0.8705158233642578,-0.011222834544739466,3.178793937339932,0.1390978378852821,,,,,,
21,6,-0.8852380514144897,-0.015652989968657497,9.761595726013185,0.010966858826577665,-0.006764013320207596,0.00508954143151641,-0.48115155100822454,0.6534261107444764,-0.8679654002189637,-0.0007764279804101623,3.1925536472358718,0.14161025566118476,,,,,,
21,7,-0.8852380514144897,-0.015652989968657497,9.761595726013185,0.010966858826577665,-0.006764013320207596,0.00508954143151641,-0.48115155100822454,0.6534261107444764,-0.8679654002189637,-0.0007764279804101623,3.1925536472358718,0.14161025566118476,,,,,,
21,8,-0.8253004550933838,-0.08369205147027971,9.780265808105469,0.0065036225132644185,-0.0022139144130051136,0.001195833319798112,-0.4806827902793884,0.6534311175346376,-0.8684725165367128,0.0010450051518261785,3.2019500940849888,0.14221147077810184,,,,,,
21,9,-0.8638227581977845,-0.05638230964541436,9.785177230834961,0.01156444288790226,-0.0022686847951263194,0.006968499161303043,-0.4792764186859131,0.6534461975097656,-0.8699938654899598,0.005912211503285822,3.211373864965747,0.1461183116358068,,,,,,
21,10,-0.8324437737464906,-0.028079153969883922,9.772319793701172,0.0095162782818079,-0.003984516020864249,0.0016126231057569387,-0.4816080033779145,0.6534120440483094,-0.8669534921646118,0.013782840953354369,3.238429907534029,0.1514105132655041,,,,,,
21,11,-0.8324437737464906,-0.028079153969883922,9.772319793701172,0.0095162782818079,-0.003984516020864249,0.0016126231057569387,-0.4816080033779145,0.6534120440483094,-0.8669534921646118,0.013782840953354369,3.238429907534029,0.1514105132655041,,,,,,
21,12,-0.8324437737464906,-0.028079153969883922,9.772319793701172,0.0095162782818079,-0.003984516020864249,0.0016126231057569387,-0.4816080033779145,0.6534120440483094,-0.8669534921646118,0.013782840953354369,3.238429907534029,0.1514105132655041,,,,,,
21,13,-0.8320508599281312,-0.11521326005458832,9.797714233398438,0.008064130321145058,-0.008240337483584883,0.005320102907717228,-0.4788361191749573,0.6544357538223267,-0.8709840178489686,0.022664144837073713,3.2589646066538016,0.15607540299763947,,,,,,
