frame_id,subframe_id,acc_x,acc_y,acc_z,gyro_x,gyro_y,gyro_z,mag_x,mag_y,mag_z,roll,pitch,yaw
1,0,-0.7579509019851685,-0.04906213656067849,9.787975311279297,0.006539418827742339,-0.0022116457112133503,0.0034142003860324626,-0.43263533711433416,0.6318758726119995,-0.8863455057144165,0.02189958677922604,4.335765555812516,0.11733571799811529,,,,,,
1,1,-0.7579509019851685,-0.04906213656067849,9.787975311279297,0.006539418827742339,-0.0022116457112133503,0.0034142003860324626,-0.43263533711433416,0.6318758726119995,-0.8863455057144165,0.02189958677922604,4.335765555812516,0.11733571799811529,,,,,,
1,2,-0.7579509019851685,-0.04906213656067849,9.787975311279297,0.006539418827742339,-0.0022116457112133503,0.0034142003860324626,-0.43263533711433416,0.6318758726119995,-0.8863455057144165,0.02189958677922604,4.335765555812516,0.11733571799811529,,,,,,
1,3,-0.7579509019851685,-0.04906213656067849,9.787975311279297,0.006539418827742339,-0.0022116457112133503,0.0034142003860324626,-0.43263533711433416,0.6318758726119995,-0.8863455057144165,0.02189958677922604,4.335765555812516,0.11733571799811529,,,,,,
1,4,-0.7579509019851685,-0.04906213656067849,9.787975311279297,0.006539418827742339,-0.0022116457112133503,0.0034142003860324626,-0.43263533711433416,0.6318758726119995,-0.8863455057144165,0.02189958677922604,4.335765555812516,0.11733571799811529,,,,,,
1,5,-0.771941363811493,-0.05850138887763024,9.786622047424318,0.010940797626972198,-0.0015754305059090259,0.0014916848158463838,-0.432598352432251,0.6318488121032715,-0.8848310708999634,0.026780237556248525,4.334756769124334,0.11774812135131789,,,,,,
1,6,-0.7497154474258423,-0.06394065916538239,9.784058570861818,0.007208056282252074,-0.0024817951489239935,0.0031963069923222065,-0.42835369706153875,0.6347664594650269,-0.8863010406494141,0.032709484785009735,4.331705313335577,0.12083810204227242,,,,,,
1,7,-0.7497154474258423,-0.06394065916538239,9.784058570861818,0.007208056282252074,-0.0024817951489239935,0.0031963069923222065,-0.42835369706153875,0.6347664594650269,-0.8863010406494141,0.032709484785009735,4.331705313335577,0.12083810204227242,,,,,,
1,8,-0.7399352788925171,-0.060711022466421134,9.785717010498047,0.009825461544096472,-0.0009476968552917242,0.003870200598612428,-0.4298022389411926,0.6314091086387635,-0.8888942599296571,0.036941747370196204,4.331123324064159,0.12258484745232148,,,,,,
1,9,-0.7444883584976196,-0.0581868514418602,9.790867805480959,0.008318960666656494,-0.004742272663861514,0.0008377871126867832,-0.4307155907154084,0.6299358010292054,-0.8879126310348511,0.04014712103916855,4.328367940778828,0.12257798643791211,,,,,,
1,10,-0.739686131477356,-0.04937446862459183,9.787844657897951,0.008656418882310392,-0.0020738521125167613,0.0044529130682349205,-0.4311341345310212,0.6327852010726929,-0.883301854133606,0.047294211028280776,4.3269958943109375,0.12694460954373898,,,,,,
1,11,-0.739686131477356,-0.04937446862459183,9.787844657897951,0.008656418882310392,-0.0020738521125167613,0.0044529130682349205,-0.4311341345310212,0.6327852010726929,-0.883301854133606,0.047294211028280776,4.3269958943109375,0.12694460954373898,,,,,,
1,12,-0.752669394016266,-0.04796522855758667,9.783865928649904,0.010693822987377645,-0.00038409046828746796,0.0016313215019181373,-0.43074694275856024,0.6347774267196655,-0.885784685611725,0.05180868392078697,4.3267365859804805,0.1273692800323713,,,,,,
1,13,-0.7502413392066957,-0.060621827840805054,9.791226387023928,0.006899248342961074,-0.005153548903763294,0.004159661475569011,-0.4312864243984223,0.632414698600769,-0.8898751735687256,0.05710639543467482,4.321909063673788,0.13030816035226828,,,,,,
1,14,-0.7502413392066957,-0.060621827840805054,9.791226387023928,0.006899248342961074,-0.005153548903763294,0.004159661475569011,-0.4312864243984223,0.632414698600769,-0.8898751735687256,0.05710639543467482,4.321909063673788,0.13030816035226828,,,,,,
1,15,-0.7323744893074037,-0.06176839396357537,9.783289909362795,0.006540482863783836,-0.002187543548643589,0.001170477247796953,-0.4331662654876709,0.6304705739021302,-0.8894046545028687,0.059141170415976024,4.320654261277707,0.13044378717872102,,,,,,
1,16,-0.7322585582733154,-0.057875096797943115,9.784320831298828,0.00853462889790535,0.001017413684166968,0.002707559149712324,-0.43261539936065674,0.6299337744712831,-0.8868938088417054,0.062353994213345525,4.321229151735972,0.1314548811432656,,,,,,
1,17,-0.748793661594391,-0.05356787145137787,9.783126831054688,0.008289899677038193,-0.0019084141822531822,0.0028721936978399754,-0.43069761991500854,0.6347413659095765,-0.883765459060669,0.06693496365759194,4.318843269347988,0.1349673612324224,,,,,,
1,18,-0.7225164771080018,-0.06556014716625214,9.783183097839357,0.010343282483518125,-0.0013969399733468892,0.0038143075071275234,-0.4302824437618256,0.6343036890029907,-0.8868074417114258,0.07116525849267362,4.318040269836739,0.13659292907727016,,,,,,
1,19,-0.7225164771080018,-0.06556014716625214,9.783183097839357,0.010343282483518125,-0.0013969399733468892,0.0038143075071275234,-0.4302824437618256,0.6343036890029907,-0.8868074417114258,0.07116525849267362,4.318040269836739,0.13659292907727016,,,,,,
1,20,-0.7073179483413696,-0.05628448724746704,9.789602279663086,0.012110907584428787,-0.0020850517321377997,0.001381810288876295,-0.43032801151275635,0.6333732008934022,-0.8893532156944276,0.07627008592111267,4.316831586200982,0.13680993425594126,,,,,,
2,0,-0.7579509019851685,-0.04906213656067849,9.787975311279297,0.006539418827742339,-0.0022116457112133503,0.0034142003860324626,-0.43263533711433416,0.6318758726119995,-0.8863455057144165,0.02189958677922604,4.335765555812516,0.11733571799811529,,,,,,
2,1,-0.7579509019851685,-0.04906213656067849,9.787975311279297,0.006539418827742339,-0.0022116457112133503,0.0034142003860324626,-0.43263533711433416,0.6318758726119995,-0.8863455057144165,0.02189958677922604,4.335765555812516,0.11733571799811529,,,,,,
2,2,-0.7579509019851685,-0.04906213656067849,9.787975311279297,0.006539418827742339,-0.0022116457112133503,0.0034142003860324626,-0.43263533711433416,0.6318758726119995,-0.8863455057144165,0.02189958677922604,4.335765555812516,0.11733571799811529,,,,,,
2,3,-0.7579509019851685,-0.04906213656067849,9.787975311279297,0.006539418827742339,-0.0022116457112133503,0.0034142003860324626,-0.43263533711433416,0.6318758726119995,-0.8863455057144165,0.02189958677922604,4.335765555812516,0.11733571799811529,,,,,,
2,4,-0.7579509019851685,-0.04906213656067849,9.787975311279297,0.006539418827742339,-0.0022116457112133503,0.0034142003860324626,-0.43263533711433416,0.6318758726119995,-0.8863455057144165,0.02189958677922604,4.335765555812516,0.11733571799811529,,,,,,
2,5,-0.771941363811493,-0.05850138887763024,9.786622047424318,0.010940797626972198,-0.0015754305059090259,0.0014916848158463838,-0.432598352432251,0.6318488121032715,-0.8848310708999634,0.026780237556248525,4.334756769124334,0.11774812135131789,,,,,,
2,6,-0.7497154474258423,-0.06394065916538239,9.784058570861818,0.007208056282252074,-0.0024817951489239935,0.0031963069923222065,-0.42835369706153875,0.6347664594650269,-0.8863010406494141,0.032709484785009735,4.331705313335577,0.12083810204227242,,,,,,
2,7,-0.7497154474258423,-0.06394065916538239,9.784058570861818,0.007208056282252074,-0.0024817951489239935,0.0031963069923222065,-0.42835369706153875,0.6347664594650269,-0.8863010406494141,0.032709484785009735,4.331705313335577,0.12083810204227242,,,,,,
2,8,-0.7399352788925171,-0.060711022466421134,9.785717010498047,0.009825461544096472,-0.0009476968552917242,0.003870200598612428,-0.4298022389411926,0.6314091086387635,-0.8888942599296571,0.036941747370196204,4.331123324064159,0.12258484745232148,,,,,,
2,9,-0.7444883584976196,-0.0581868514418602,9.790867805480959,0.008318960666656494,-0.004742272663861514,0.0008377871126867832,-0.4307155907154084,0.6299358010292054,-0.8879126310348511,0.04014712103916855,4.328367940778828,0.12257798643791211,,,,,,
2,10,-0.739686131477356,-0.04937446862459183,9.787844657897951,0.008656418882310392,-0.0020738521125167613,0.0044529130682349205,-0.4311341345310212,0.6327852010726929,-0.883301854133606,0.047294211028280776,4.3269958943109375,0.12694460954373898,,,,,,
2,11,-0.739686131477356,-0.04937446862459183,9.787844657897951,0.008656418882310392,-0.0020738521125167613,0.0044529130682349205,-0.4311341345310212,0.6327852010726929,-0.883301854133606,0.047294211028280776,4.3269958943109375,0.12694460954373898,,,,,,
2,12,-0.752669394016266,-0.04796522855758667,9.783865928649904,0.010693822987377645,-0.00038409046828746796,0.0016313215019181373,-0.43074694275856024,0.6347774267196655,-0.885784685611725,0.05180868392078697,4.3267365859804805,0.1273692800323713,,,,,,
2,13,-0.7502413392066957,-0.060621827840805054,9.791226387023928,0.006899248342961074,-0.005153548903763294,0.004159661475569011,-0.4312864243984223,0.632414698600769,-0.8898751735687256,0.05710639543467482,4.321909063673788,0.13030816035226828,,,,,,
2,14,-0.7502413392066957,-0.060621827840805054,9.791226387023928,0.006899248342961074,-0.005153548903763294,0.004159661475569011,-0.4312864243984223,0.632414698600769,-0.8898751735687256,0.05710639543467482,4.321909063673788,0.13030816035226828,,,,,,
2,15,-0.7323744893074037,-0.06176839396357537,9.783289909362795,0.006540482863783836,-0.002187543548643589,0.001170477247796953,-0.4331662654876709,0.6304705739021302,-0.8894046545028687,0.059141170415976024,4.320654261277707,0.13044378717872102,,,,,,
2,16,-0.7322585582733154,-0.057875096797943115,9.784320831298828,0.00853462889790535,0.001017413684166968,0.002707559149712324,-0.43261539936065674,0.6299337744712831,-0.8868938088417054,0.062353994213345525,4.321229151735972,0.1314548811432656,,,,,,
2,17,-0.748793661594391,-0.05356787145137787,9.783126831054688,0.008289899677038193,-0.0019084141822531822,0.0028721936978399754,-0.43069761991500854,0.6347413659095765,-0.883765459060669,0.06693496365759194,4.318843269347988,0.1349673612324224,,,,,,
2,18,-0.7225164771080018,-0.06556014716625214,9.783183097839357,0.010343282483518125,-0.0013969399733468892,0.0038143075071275234,-0.4302824437618256,0.6343036890029907,-0.8868074417114258,0.07116525849267362,4.318040269836739,0.13659292907727016,,,,,,
2,19,-0.7225164771080018,-0.06556014716625214,9.783183097839357,0.010343282483518125,-0.0013969399733468892,0.0038143075071275234,-0.4302824437618256,0.6343036890029907,-0.8868074417114258,0.07116525849267362,4.318040269836739,0.13659292907727016,,,,,,
2,20,-0.7073179483413696,-0.05628448724746704,9.789602279663086,0.012110907584428787,-0.0020850517321377997,0.001381810288876295,-0.43032801151275635,0.6333732008934022,-0.8893532156944276,0.07627008592111267,4.316831586200982,0.13680993425594126,,,,,,
3,0,-0.7579509019851685,-0.04906213656067849,9.787975311279297,0.006539418827742339,-0.0022116457112133503,0.0034142003860324626,-0.43263533711433416,0.6318758726119995,-0.8863455057144165,0.02189958677922604,4.335765555812516,0.11733571799811529,,,,,,
3,1,-0.7579509019851685,-0.04906213656067849,9.787975311279297,0.006539418827742339,-0.0022116457112133503,0.0034142003860324626,-0.43263533711433416,0.6318758726119995,-0.8863455057144165,0.02189958677922604,4.335765555812516,0.11733571799811529,,,,,,
3,2,-0.7579509019851685,-0.04906213656067849,9.787975311279297,0.006539418827742339,-0.0022116457112133503,0.0034142003860324626,-0.43263533711433416,0.6318758726119995,-0.8863455057144165,0.02189958677922604,4.335765555812516,0.11733571799811529,,,,,,
3,3,-0.7579509019851685,-0.04906213656067849,9.787975311279297,0.006539418827742339,-0.0022116457112133503,0.0034142003860324626,-0.43263533711433416,0.6318758726119995,-0.8863455057144165,0.02189958677922604,4.335765555812516,0.11733571799811529,,,,,,
3,4,-0.7579509019851685,-0.04906213656067849,9.787975311279297,0.006539418827742339,-0.0022116457112133503,0.0034142003860324626,-0.43263533711433416,0.6318758726119995,-0.8863455057144165,0.02189958677922604,4.335765555812516,0.11733571799811529,,,,,,
3,5,-0.771941363811493,-0.05850138887763024,9.786622047424318,0.010940797626972198,-0.0015754305059090259,0.0014916848158463838,-0.432598352432251,0.6318488121032715,-0.8848310708999634,0.026780237556248525,4.334756769124334,0.11774812135131789,,,,,,
3,6,-0.7497154474258423,-0.06394065916538239,9.784058570861818,0.007208056282252074,-0.0024817951489239935,0.0031963069923222065,-0.42835369706153875,0.6347664594650269,-0.8863010406494141,0.032709484785009735,4.331705313335577,0.12083810204227242,,,,,,
3,7,-0.7497154474258423,-0.06394065916538239,9.784058570861818,0.007208056282252074,-0.0024817951489239935,0.0031963069923222065,-0.42835369706153875,0.6347664594650269,-0.8863010406494141,0.032709484785009735,4.331705313335577,0.12083810204227242,,,,,,
3,8,-0.7399352788925171,-0.060711022466421134,9.785717010498047,0.009825461544096472,-0.0009476968552917242,0.003870200598612428,-0.4298022389411926,0.6314091086387635,-0.8888942599296571,0.036941747370196204,4.331123324064159,0.12258484745232148,,,,,,
3,9,-0.7444883584976196,-0.0581868514418602,9.790867805480959,0.008318960666656494,-0.004742272663861514,0.0008377871126867832,-0.4307155907154084,0.6299358010292054,-0.8879126310348511,0.04014712103916855,4.328367940778828,0.12257798643791211,,,,,,
3,10,-0.739686131477356,-0.04937446862459183,9.787844657897951,0.008656418882310392,-0.0020738521125167613,0.0044529130682349205,-0.4311341345310212,0.6327852010726929,-0.883301854133606,0.047294211028280776,4.3269958943109375,0.12694460954373898,,,,,,
3,11,-0.739686131477356,-0.04937446862459183,9.787844657897951,0.008656418882310392,-0.0020738521125167613,0.0044529130682349205,-0.4311341345310212,0.6327852010726929,-0.883301854133606,0.047294211028280776,4.3269958943109375,0.12694460954373898,,,,,,
3,12,-0.752669394016266,-0.04796522855758667,9.783865928649904,0.010693822987377645,-0.00038409046828746796,0.0016313215019181373,-0.43074694275856024,0.6347774267196655,-0.885784685611725,0.05180868392078697,4.3267365859804805,0.1273692800323713,,,,,,
3,13,-0.7502413392066957,-0.060621827840805054,9.791226387023928,0.006899248342961074,-0.005153548903763294,0.004159661475569011,-0.4312864243984223,0.632414698600769,-0.8898751735687256,0.05710639543467482,4.321909063673788,0.13030816035226828,,,,,,
3,14,-0.7502413392066957,-0.060621827840805054,9.791226387023928,0.006899248342961074,-0.005153548903763294,0.004159661475569011,-0.4312864243984223,0.632414698600769,-0.8898751735687256,0.05710639543467482,4.321909063673788,0.13030816035226828,,,,,,
3,15,-0.7323744893074037,-0.06176839396357537,9.783289909362795,0.006540482863783836,-0.002187543548643589,0.001170477247796953,-0.4331662654876709,0.6304705739021302,-0.8894046545028687,0.059141170415976024,4.320654261277707,0.13044378717872102,,,,,,
3,16,-0.7322585582733154,-0.057875096797943115,9.784320831298828,0.00853462889790535,0.001017413684166968,0.002707559149712324,-0.43261539936065674,0.6299337744712831,-0.8868938088417054,0.062353994213345525,4.321229151735972,0.1314548811432656,,,,,,
3,17,-0.748793661594391,-0.05356787145137787,9.783126831054688,0.008289899677038193,-0.0019084141822531822,0.0028721936978399754,-0.43069761991500854,0.6347413659095765,-0.883765459060669,0.06693496365759194,4.318843269347988,0.1349673612324224,,,,,,
3,18,-0.7225164771080018,-0.06556014716625214,9.783183097839357,0.010343282483518125,-0.0013969399733468892,0.0038143075071275234,-0.4302824437618256,0.6343036890029907,-0.8868074417114258,0.07116525849267362,4.318040269836739,0.13659292907727016,,,,,,
3,19,-0.7225164771080018,-0.06556014716625214,9.783183097839357,0.010343282483518125,-0.0013969399733468892,0.0038143075071275234,-0.4302824437618256,0.6343036890029907,-0.8868074417114258,0.07116525849267362,4.318040269836739,0.13659292907727016,,,,,,
3,20,-0.7073179483413696,-0.05628448724746704,9.789602279663086,0.012110907584428787,-0.0020850517321377997,0.001381810288876295,-0.43032801151275635,0.6333732008934022,-0.8893532156944276,0.07627008592111267,4.316831586200982,0.13680993425594126,,,,,,
4,0,-0.7579509019851685,-0.04906213656067849,9.787975311279297,0.006539418827742339,-0.0022116457112133503,0.0034142003860324626,-0.43263533711433416,0.6318758726119995,-0.8863455057144165,0.02189958677922604,4.335765555812516,0.11733571799811529,,,,,,
4,1,-0.7579509019851685,-0.04906213656067849,9.787975311279297,0.006539418827742339,-0.0022116457112133503,0.0034142003860324626,-0.43263533711433416,0.6318758726119995,-0.8863455057144165,0.02189958677922604,4.335765555812516,0.11733571799811529,,,,,,
4,2,-0.7579509019851685,-0.04906213656067849,9.787975311279297,0.006539418827742339,-0.0022116457112133503,0.0034142003860324626,-0.43263533711433416,0.6318758726119995,-0.8863455057144165,0.02189958677922604,4.335765555812516,0.11733571799811529,,,,,,
4,3,-0.7579509019851685,-0.04906213656067849,9.787975311279297,0.006539418827742339,-0.0022116457112133503,0.0034142003860324626,-0.43263533711433416,0.6318758726119995,-0.8863455057144165,0.02189958677922604,4.335765555812516,0.11733571799811529,,,,,,
4,4,-0.7579509019851685,-0.04906213656067849,9.787975311279297,0.006539418827742339,-0.0022116457112133503,0.0034142003860324626,-0.43263533711433416,0.6318758726119995,-0.8863455057144165,0.02189958677922604,4.335765555812516,0.11733571799811529,,,,,,
4,5,-0.771941363811493,-0.05850138887763024,9.786622047424318,0.010940797626972198,-0.0015754305059090259,0.0014916848158463838,-0.432598352432251,0.6318488121032715,-0.8848310708999634,0.026780237556248525,4.334756769124334,0.11774812135131789,,,,,,
4,6,-0.7497154474258423,-0.06394065916538239,9.784058570861818,0.007208056282252074,-0.0024817951489239935,0.0031963069923222065,-0.42835369706153875,0.6347664594650269,-0.8863010406494141,0.032709484785009735,4.331705313335577,0.12083810204227242,,,,,,
4,7,-0.7497154474258423,-0.06394065916538239,9.784058570861818,0.007208056282252074,-0.0024817951489239935,0.0031963069923222065,-0.42835369706153875,0.6347664594650269,-0.8863010406494141,0.032709484785009735,4.331705313335577,0.12083810204227242,,,,,,
4,8,-0.7399352788925171,-0.060711022466421134,9.785717010498047,0.009825461544096472,-0.0009476968552917242,0.003870200598612428,-0.4298022389411926,0.6314091086387635,-0.8888942599296571,0.036941747370196204,4.331123324064159,0.12258484745232148,,,,,,
4,9,-0.7444883584976196,-0.0581868514418602,9.790867805480959,0.008318960666656494,-0.004742272663861514,0.0008377871126867832,-0.4307155907154084,0.6299358010292054,-0.8879126310348511,0.04014712103916855,4.328367940778828,0.12257798643791211,,,,,,
4,10,-0.739686131477356,-0.04937446862459183,9.787844657897951,0.008656418882310392,-0.0020738521125167613,0.0044529130682349205,-0.4311341345310212,0.6327852010726929,-0.883301854133606,0.047294211028280776,4.3269958943109375,0.12694460954373898,,,,,,
4,11,-0.739686131477356,-0.04937446862459183,9.787844657897951,0.008656418882310392,-0.0020738521125167613,0.0044529130682349205,-0.4311341345310212,0.6327852010726929,-0.883301854133606,0.047294211028280776,4.3269958943109375,0.12694460954373898,,,,,,
4,12,-0.752669394016266,-0.04796522855758667,9.783865928649904,0.010693822987377645,-0.00038409046828746796,0.0016313215019181373,-0.43074694275856024,0.6347774267196655,-0.885784685611725,0.05180868392078697,4.3267365859804805,0.1273692800323713,,,,,,
4,13,-0.7502413392066957,-0.060621827840805054,9.791226387023928,0.006899248342961074,-0.005153548903763294,0.004159661475569011,-0.4312864243984223,0.632414698600769,-0.8898751735687256,0.05710639543467482,4.321909063673788,0.13030816035226828,,,,,,
4,14,-0.7502413392066957,-0.060621827840805054,9.791226387023928,0.006899248342961074,-0.005153548903763294,0.004159661475569011,-0.4312864243984223,0.632414698600769,-0.8898751735687256,0.05710639543467482,4.321909063673788,0.13030816035226828,,,,,,
4,15,-0.7323744893074037,-0.06176839396357537,9.783289909362795,0.006540482863783836,-0.002187543548643589,0.001170477247796953,-0.4331662654876709,0.6304705739021302,-0.8894046545028687,0.059141170415976024,4.320654261277707,0.13044378717872102,,,,,,
4,16,-0.7322585582733154,-0.057875096797943115,9.784320831298828,0.00853462889790535,0.001017413684166968,0.002707559149712324,-0.43261539936065674,0.6299337744712831,-0.8868938088417054,0.062353994213345525,4.321229151735972,0.1314548811432656,,,,,,
4,17,-0.748793661594391,-0.05356787145137787,9.783126831054688,0.008289899677038193,-0.0019084141822531822,0.0028721936978399754,-0.43069761991500854,0.6347413659095765,-0.883765459060669,0.06693496365759194,4.318843269347988,0.1349673612324224,,,,,,
4,18,-0.7225164771080018,-0.06556014716625214,9.783183097839357,0.010343282483518125,-0.0013969399733468892,0.0038143075071275234,-0.4302824437618256,0.6343036890029907,-0.8868074417114258,0.07116525849267362,4.318040269836739,0.13659292907727016,,,,,,
4,19,-0.7225164771080018,-0.06556014716625214,9.783183097839357,0.010343282483518125,-0.0013969399733468892,0.0038143075071275234,-0.4302824437618256,0.6343036890029907,-0.8868074417114258,0.07116525849267362,4.318040269836739,0.13659292907727016,,,,,,
4,20,-0.7073179483413696,-0.05628448724746704,9.789602279663086,0.012110907584428787,-0.0020850517321377997,0.001381810288876295,-0.43032801151275635,0.6333732008934022,-0.8893532156944276,0.07627008592111267,4.316831586200982,0.13680993425594126,,,,,,
5,0,-0.7579509019851685,-0.04906213656067849,9.787975311279297,0.006539418827742339,-0.0022116457112133503,0.0034142003860324626,-0.43263533711433416,0.6318758726119995,-0.8863455057144165,0.02189958677922604,4.335765555812516,0.11733571799811529,,,,,,
5,1,-0.7579509019851685,-0.04906213656067849,9.787975311279297,0.006539418827742339,-0.0022116457112133503,0.0034142003860324626,-0.43263533711433416,0.6318758726119995,-0.8863455057144165,0.02189958677922604,4.335765555812516,0.11733571799811529,,,,,,
5,2,-0.7579509019851685,-0.04906213656067849,9.787975311279297,0.006539418827742339,-0.0022116457112133503,0.0034142003860324626,-0.43263533711433416,0.6318758726119995,-0.8863455057144165,0.02189958677922604,4.335765555812516,0.11733571799811529,,,,,,
5,3,-0.7579509019851685,-0.04906213656067849,9.787975311279297,0.006539418827742339,-0.0022116457112133503,0.0034142003860324626,-0.43263533711433416,0.6318758726119995,-0.8863455057144165,0.02189958677922604,4.335765555812516,0.11733571799811529,,,,,,
5,4,-0.7579509019851685,-0.04906213656067849,9.787975311279297,0.006539418827742339,-0.0022116457112133503,0.0034142003860324626,-0.43263533711433416,0.6318758726119995,-0.8863455057144165,0.02189958677922604,4.335765555812516,0.11733571799811529,,,,,,
5,5,-0.771941363811493,-0.05850138887763024,9.786622047424318,0.010940797626972198,-0.0015754305059090259,0.0014916848158463838,-0.432598352432251,0.6318488121032715,-0.8848310708999634,0.026780237556248525,4.334756769124334,0.11774812135131789,,,,,,
5,6,-0.7497154474258423,-0.06394065916538239,9.784058570861818,0.007208056282252074,-0.0024817951489239935,0.0031963069923222065,-0.42835369706153875,0.6347664594650269,-0.8863010406494141,0.032709484785009735,4.331705313335577,0.12083810204227242,,,,,,
5,7,-0.7497154474258423,-0.06394065916538239,9.784058570861818,0.007208056282252074,-0.0024817951489239935,0.0031963069923222065,-0.42835369706153875,0.6347664594650269,-0.8863010406494141,0.032709484785009735,4.331705313335577,0.12083810204227242,,,,,,
5,8,-0.7399352788925171,-0.060711022466421134,9.785717010498047,0.009825461544096472,-0.0009476968552917242,0.003870200598612428,-0.4298022389411926,0.6314091086387635,-0.8888942599296571,0.036941747370196204,4.331123324064159,0.12258484745232148,,,,,,
5,9,-0.7444883584976196,-0.0581868514418602,9.790867805480959,0.008318960666656494,-0.004742272663861514,0.0008377871126867832,-0.4307155907154084,0.6299358010292054,-0.8879126310348511,0.04014712103916855,4.328367940778828,0.12257798643791211,,,,,,
5,10,-0.739686131477356,-0.04937446862459183,9.787844657897951,0.008656418882310392,-0.0020738521125167613,0.0044529130682349205,-0.4311341345310212,0.6327852010726929,-0.883301854133606,0.047294211028280776,4.3269958943109375,0.12694460954373898,,,,,,
5,11,-0.739686131477356,-0.04937446862459183,9.787844657897951,0.008656418882310392,-0.0020738521125167613,0.0044529130682349205,-0.4311341345310212,0.6327852010726929,-0.883301854133606,0.047294211028280776,4.3269958943109375,0.12694460954373898,,,,,,
5,12,-0.752669394016266,-0.04796522855758667,9.783865928649904,0.010693822987377645,-0.00038409046828746796,0.0016313215019181373,-0.43074694275856024,0.6347774267196655,-0.885784685611725,0.05180868392078697,4.3267365859804805,0.1273692800323713,,,,,,
5,13,-0.7502413392066957,-0.060621827840805054,9.791226387023928,0.006899248342961074,-0.005153548903763294,0.004159661475569011,-0.4312864243984223,0.632414698600769,-0.8898751735687256,0.05710639543467482,4.321909063673788,0.13030816035226828,,,,,,
5,14,-0.7502413392066957,-0.060621827840805054,9.791226387023928,0.006899248342961074,-0.005153548903763294,0.004159661475569011,-0.4312864243984223,0.632414698600769,-0.8898751735687256,0.05710639543467482,4.321909063673788,0.13030816035226828,,,,,,
5,15,-0.7323744893074037,-0.06176839396357537,9.783289909362795,0.006540482863783836,-0.002187543548643589,0.001170477247796953,-0.4331662654876709,0.6304705739021302,-0.8894046545028687,0.059141170415976024,4.320654261277707,0.13044378717872102,,,,,,
5,16,-0.7322585582733154,-0.057875096797943115,9.784320831298828,0.00853462889790535,0.001017413684166968,0.002707559149712324,-0.43261539936065674,0.6299337744712831,-0.8868938088417054,0.062353994213345525,4.321229151735972,0.1314548811432656,,,,,,
5,17,-0.748793661594391,-0.05356787145137787,9.783126831054688,0.008289899677038193,-0.0019084141822531822,0.0028721936978399754,-0.43069761991500854,0.6347413659095765,-0.883765459060669,0.06693496365759194,4.318843269347988,0.1349673612324224,,,,,,
5,18,-0.7225164771080018,-0.06556014716625214,9.783183097839357,0.010343282483518125,-0.0013969399733468892,0.0038143075071275234,-0.4302824437618256,0.6343036890029907,-0.8868074417114258,0.07116525849267362,4.318040269836739,0.13659292907727016,,,,,,
5,19,-0.7225164771080018,-0.06556014716625214,9.783183097839357,0.010343282483518125,-0.0013969399733468892,0.0038143075071275234,-0.4302824437618256,0.6343036890029907,-0.8868074417114258,0.07116525849267362,4.318040269836739,0.13659292907727016,,,,,,
5,20,-0.7073179483413696,-0.05628448724746704,9.789602279663086,0.012110907584428787,-0.0020850517321377997,0.001381810288876295,-0.43032801151275635,0.6333732008934022,-0.8893532156944276,0.07627008592111267,4.316831586200982,0.13680993425594126,,,,,,
6,0,-0.7579509019851685,-0.04906213656067849,9.787975311279297,0.006539418827742339,-0.0022116457112133503,0.0034142003860324626,-0.43263533711433416,0.6318758726119995,-0.8863455057144165,0.02189958677922604,4.335765555812516,0.11733571799811529,,,,,,
6,1,-0.7579509019851685,-0.04906213656067849,9.787975311279297,0.006539418827742339,-0.0022116457112133503,0.0034142003860324626,-0.43263533711433416,0.6318758726119995,-0.8863455057144165,0.02189958677922604,4.335765555812516,0.11733571799811529,,,,,,
6,2,-0.7579509019851685,-0.04906213656067849,9.787975311279297,0.006539418827742339,-0.0022116457112133503,0.0034142003860324626,-0.43263533711433416,0.6318758726119995,-0.8863455057144165,0.02189958677922604,4.335765555812516,0.11733571799811529,,,,,,
6,3,-0.7579509019851685,-0.04906213656067849,9.787975311279297,0.006539418827742339,-0.0022116457112133503,0.0034142003860324626,-0.43263533711433416,0.6318758726119995,-0.8863455057144165,0.02189958677922604,4.335765555812516,0.11733571799811529,,,,,,
6,4,-0.7579509019851685,-0.04906213656067849,9.787975311279297,0.006539418827742339,-0.0022116457112133503,0.0034142003860324626,-0.43263533711433416,0.6318758726119995,-0.8863455057144165,0.02189958677922604,4.335765555812516,0.11733571799811529,,,,,,
6,5,-0.771941363811493,-0.05850138887763024,9.786622047424318,0.010940797626972198,-0.0015754305059090259,0.0014916848158463838,-0.432598352432251,0.6318488121032715,-0.8848310708999634,0.026780237556248525,4.334756769124334,0.11774812135131789,,,,,,
6,6,-0.7497154474258423,-0.06394065916538239,9.784058570861818,0.007208056282252074,-0.0024817951489239935,0.0031963069923222065,-0.42835369706153875,0.6347664594650269,-0.8863010406494141,0.032709484785009735,4.331705313335577,0.12083810204227242,,,,,,
6,7,-0.7497154474258423,-0.06394065916538239,9.784058570861818,0.007208056282252074,-0.0024817951489239935,0.0031963069923222065,-0.42835369706153875,0.6347664594650269,-0.8863010406494141,0.032709484785009735,4.331705313335577,0.12083810204227242,,,,,,
6,8,-0.7399352788925171,-0.060711022466421134,9.785717010498047,0.009825461544096472,-0.0009476968552917242,0.003870200598612428,-0.4298022389411926,0.6314091086387635,-0.8888942599296571,0.036941747370196204,4.331123324064159,0.12258484745232148,,,,,,
6,9,-0.7444883584976196,-0.0581868514418602,9.790867805480959,0.008318960666656494,-0.004742272663861514,0.0008377871126867832,-0.4307155907154084,0.6299358010292054,-0.8879126310348511,0.04014712103916855,4.328367940778828,0.12257798643791211,,,,,,
6,10,-0.739686131477356,-0.04937446862459183,9.787844657897951,0.008656418882310392,-0.0020738521125167613,0.0044529130682349205,-0.4311341345310212,0.6327852010726929,-0.883301854133606,0.047294211028280776,4.3269958943109375,0.12694460954373898,,,,,,
6,11,-0.739686131477356,-0.04937446862459183,9.787844657897951,0.008656418882310392,-0.0020738521125167613,0.0044529130682349205,-0.4311341345310212,0.6327852010726929,-0.883301854133606,0.047294211028280776,4.3269958943109375,0.12694460954373898,,,,,,
6,12,-0.752669394016266,-0.04796522855758667,9.783865928649904,0.010693822987377645,-0.00038409046828746796,0.0016313215019181373,-0.43074694275856024,0.6347774267196655,-0.885784685611725,0.05180868392078697,4.3267365859804805,0.1273692800323713,,,,,,
6,13,-0.7502413392066957,-0.060621827840805054,9.791226387023928,0.006899248342961074,-0.005153548903763294,0.004159661475569011,-0.4312864243984223,0.632414698600769,-0.8898751735687256,0.05710639543467482,4.321909063673788,0.13030816035226828,,,,,,
6,14,-0.7502413392066957,-0.060621827840805054,9.791226387023928,0.006899248342961074,-0.005153548903763294,0.004159661475569011,-0.4312864243984223,0.632414698600769,-0.8898751735687256,0.05710639543467482,4.321909063673788,0.13030816035226828,,,,,,
6,15,-0.7323744893074037,-0.06176839396357537,9.783289909362795,0.006540482863783836,-0.002187543548643589,0.001170477247796953,-0.4331662654876709,0.6304705739021302,-0.8894046545028687,0.059141170415976024,4.320654261277707,0.13044378717872102,,,,,,
6,16,-0.7322585582733154,-0.057875096797943115,9.784320831298828,0.00853462889790535,0.001017413684166968,0.002707559149712324,-0.43261539936065674,0.6299337744712831,-0.8868938088417054,0.062353994213345525,4.321229151735972,0.1314548811432656,,,,,,
6,17,-0.748793661594391,-0.05356787145137787,9.783126831054688,0.008289899677038193,-0.0019084141822531822,0.0028721936978399754,-0.43069761991500854,0.6347413659095765,-0.883765459060669,0.06693496365759194,4.318843269347988,0.1349673612324224,,,,,,
6,18,-0.7225164771080018,-0.06556014716625214,9.783183097839357,0.010343282483518125,-0.0013969399733468892,0.0038143075071275234,-0.4302824437618256,0.6343036890029907,-0.8868074417114258,0.07116525849267362,4.318040269836739,0.13659292907727016,,,,,,
6,19,-0.7225164771080018,-0.06556014716625214,9.783183097839357,0.010343282483518125,-0.0013969399733468892,0.0038143075071275234,-0.4302824437618256,0.6343036890029907,-0.8868074417114258,0.07116525849267362,4.318040269836739,0.13659292907727016,,,,,,
6,20,-0.7073179483413696,-0.05628448724746704,9.789602279663086,0.012110907584428787,-0.0020850517321377997,0.001381810288876295,-0.43032801151275635,0.6333732008934022,-0.8893532156944276,0.07627008592111267,4.316831586200982,0.13680993425594126,,,,,,
7,0,-0.7579509019851685,-0.04906213656067849,9.787975311279297,0.006539418827742339,-0.0022116457112133503,0.0034142003860324626,-0.43263533711433416,0.6318758726119995,-0.8863455057144165,0.02189958677922604,4.335765555812516,0.11733571799811529,,,,,,
7,1,-0.7579509019851685,-0.04906213656067849,9.787975311279297,0.006539418827742339,-0.0022116457112133503,0.0034142003860324626,-0.43263533711433416,0.6318758726119995,-0.8863455057144165,0.02189958677922604,4.335765555812516,0.11733571799811529,,,,,,
7,2,-0.7579509019851685,-0.04906213656067849,9.787975311279297,0.006539418827742339,-0.0022116457112133503,0.0034142003860324626,-0.43263533711433416,0.6318758726119995,-0.8863455057144165,0.02189958677922604,4.335765555812516,0.11733571799811529,,,,,,
7,3,-0.7579509019851685,-0.04906213656067849,9.787975311279297,0.006539418827742339,-0.0022116457112133503,0.0034142003860324626,-0.43263533711433416,0.6318758726119995,-0.8863455057144165,0.02189958677922604,4.335765555812516,0.11733571799811529,,,,,,
7,4,-0.7579509019851685,-0.04906213656067849,9.787975311279297,0.006539418827742339,-0.0022116457112133503,0.0034142003860324626,-0.43263533711433416,0.6318758726119995,-0.8863455057144165,0.02189958677922604,4.335765555812516,0.11733571799811529,,,,,,
7,5,-0.771941363811493,-0.05850138887763024,9.786622047424318,0.010940797626972198,-0.0015754305059090259,0.0014916848158463838,-0.432598352432251,0.6318488121032715,-0.8848310708999634,0.026780237556248525,4.334756769124334,0.11774812135131789,,,,,,
7,6,-0.7497154474258423,-0.06394065916538239,9.784058570861818,0.007208056282252074,-0.0024817951489239935,0.0031963069923222065,-0.42835369706153875,0.6347664594650269,-0.8863010406494141,0.032709484785009735,4.331705313335577,0.12083810204227242,,,,,,
7,7,-0.7497154474258423,-0.06394065916538239,9.784058570861818,0.007208056282252074,-0.0024817951489239935,0.0031963069923222065,-0.42835369706153875,0.6347664594650269,-0.8863010406494141,0.032709484785009735,4.331705313335577,0.12083810204227242,,,,,,
7,8,-0.7399352788925171,-0.060711022466421134,9.785717010498047,0.009825461544096472,-0.0009476968552917242,0.003870200598612428,-0.4298022389411926,0.6314091086387635,-0.8888942599296571,0.036941747370196204,4.331123324064159,0.12258484745232148,,,,,,
7,9,-0.7444883584976196,-0.0581868514418602,9.790867805480959,0.008318960666656494,-0.004742272663861514,0.0008377871126867832,-0.4307155907154084,0.6299358010292054,-0.8879126310348511,0.04014712103916855,4.328367940778828,0.12257798643791211,,,,,,
7,10,-0.739686131477356,-0.04937446862459183,9.787844657897951,0.008656418882310392,-0.0020738521125167613,0.0044529130682349205,-0.4311341345310212,0.6327852010726929,-0.883301854133606,0.047294211028280776,4.3269958943109375,0.12694460954373898,,,,,,
7,11,-0.739686131477356,-0.04937446862459183,9.787844657897951,0.008656418882310392,-0.0020738521125167613,0.0044529130682349205,-0.4311341345310212,0.6327852010726929,-0.883301854133606,0.047294211028280776,4.3269958943109375,0.12694460954373898,,,,,,
7,12,-0.752669394016266,-0.04796522855758667,9.783865928649904,0.010693822987377645,-0.00038409046828746796,0.0016313215019181373,-0.43074694275856024,0.6347774267196655,-0.885784685611725,0.05180868392078697,4.3267365859804805,0.1273692800323713,,,,,,
7,13,-0.7502413392066957,-0.060621827840805054,9.791226387023928,0.006899248342961074,-0.005153548903763294,0.004159661475569011,-0.4312864243984223,0.632414698600769,-0.8898751735687256,0.05710639543467482,4.321909063673788,0.13030816035226828,,,,,,
7,14,-0.7502413392066957,-0.060621827840805054,9.791226387023928,0.006899248342961074,-0.005153548903763294,0.004159661475569011,-0.4312864243984223,0.632414698600769,-0.8898751735687256,0.05710639543467482,4.321909063673788,0.13030816035226828,,,,,,
7,15,-0.7323744893074037,-0.06176839396357537,9.783289909362795,0.006540482863783836,-0.002187543548643589,0.001170477247796953,-0.4331662654876709,0.6304705739021302,-0.8894046545028687,0.059141170415976024,4.320654261277707,0.13044378717872102,,,,,,
7,16,-0.7322585582733154,-0.057875096797943115,9.784320831298828,0.00853462889790535,0.001017413684166968,0.002707559149712324,-0.43261539936065674,0.6299337744712831,-0.8868938088417054,0.062353994213345525,4.321229151735972,0.1314548811432656,,,,,,
7,17,-0.748793661594391,-0.05356787145137787,9.783126831054688,0.008289899677038193,-0.0019084141822531822,0.0028721936978399754,-0.43069761991500854,0.6347413659095765,-0.883765459060669,0.06693496365759194,4.318843269347988,0.1349673612324224,,,,,,
7,18,-0.7225164771080018,-0.06556014716625214,9.783183097839357,0.010343282483518125,-0.0013969399733468892,0.0038143075071275234,-0.4302824437618256,0.6343036890029907,-0.8868074417114258,0.07116525849267362,4.318040269836739,0.13659292907727016,,,,,,
7,19,-0.7225164771080018,-0.06556014716625214,9.783183097839357,0.010343282483518125,-0.0013969399733468892,0.0038143075071275234,-0.4302824437618256,0.6343036890029907,-0.8868074417114258,0.07116525849267362,4.318040269836739,0.13659292907727016,,,,,,
7,20,-0.7073179483413696,-0.05628448724746704,9.789602279663086,0.012110907584428787,-0.0020850517321377997,0.001381810288876295,-0.43032801151275635,0.6333732008934022,-0.8893532156944276,0.07627008592111267,4.316831586200982,0.13680993425594126,,,,,,
8,0,-0.7579509019851685,-0.04906213656067849,9.787975311279297,0.006539418827742339,-0.0022116457112133503,0.0034142003860324626,-0.43263533711433416,0.6318758726119995,-0.8863455057144165,0.02189958677922604,4.335765555812516,0.11733571799811529,,,,,,
8,1,-0.7579509019851685,-0.04906213656067849,9.787975311279297,0.006539418827742339,-0.0022116457112133503,0.0034142003860324626,-0.43263533711433416,0.6318758726119995,-0.8863455057144165,0.02189958677922604,4.335765555812516,0.11733571799811529,,,,,,
8,2,-0.7579509019851685,-0.04906213656067849,9.787975311279297,0.006539418827742339,-0.0022116457112133503,0.0034142003860324626,-0.43263533711433416,0.6318758726119995,-0.8863455057144165,0.02189958677922604,4.335765555812516,0.11733571799811529,,,,,,
8,3,-0.7579509019851685,-0.04906213656067849,9.787975311279297,0.006539418827742339,-0.0022116457112133503,0.0034142003860324626,-0.43263533711433416,0.6318758726119995,-0.8863455057144165,0.02189958677922604,4.335765555812516,0.11733571799811529,,,,,,
8,4,-0.7579509019851685,-0.04906213656067849,9.787975311279297,0.006539418827742339,-0.0022116457112133503,0.0034142003860324626,-0.43263533711433416,0.6318758726119995,-0.8863455057144165,0.02189958677922604,4.335765555812516,0.11733571799811529,,,,,,
8,5,-0.771941363811493,-0.05850138887763024,9.786622047424318,0.010940797626972198,-0.0015754305059090259,0.0014916848158463838,-0.432598352432251,0.6318488121032715,-0.8848310708999634,0.026780237556248525,4.334756769124334,0.11774812135131789,,,,,,
8,6,-0.7497154474258423,-0.06394065916538239,9.784058570861818,0.007208056282252074,-0.0024817951489239935,0.0031963069923222065,-0.42835369706153875,0.6347664594650269,-0.8863010406494141,0.032709484785009735,4.331705313335577,0.12083810204227242,,,,,,
8,7,-0.7497154474258423,-0.06394065916538239,9.784058570861818,0.007208056282252074,-0.0024817951489239935,0.0031963069923222065,-0.42835369706153875,0.6347664594650269,-0.8863010406494141,0.032709484785009735,4.331705313335577,0.12083810204227242,,,,,,
8,8,-0.7399352788925171,-0.060711022466421134,9.785717010498047,0.009825461544096472,-0.0009476968552917242,0.003870200598612428,-0.4298022389411926,0.6314091086387635,-0.8888942599296571,0.036941747370196204,4.331123324064159,0.12258484745232148,,,,,,
8,9,-0.7444883584976196,-0.0581868514418602,9.790867805480959,0.008318960666656494,-0.004742272663861514,0.0008377871126867832,-0.4307155907154084,0.6299358010292054,-0.8879126310348511,0.04014712103916855,4.328367940778828,0.12257798643791211,,,,,,
8,10,-0.739686131477356,-0.04937446862459183,9.787844657897951,0.008656418882310392,-0.0020738521125167613,0.0044529130682349205,-0.4311341345310212,0.6327852010726929,-0.883301854133606,0.047294211028280776,4.3269958943109375,0.12694460954373898,,,,,,
8,11,-0.739686131477356,-0.04937446862459183,9.787844657897951,0.008656418882310392,-0.0020738521125167613,0.0044529130682349205,-0.4311341345310212,0.6327852010726929,-0.883301854133606,0.047294211028280776,4.3269958943109375,0.12694460954373898,,,,,,
8,12,-0.752669394016266,-0.04796522855758667,9.783865928649904,0.010693822987377645,-0.00038409046828746796,0.0016313215019181373,-0.43074694275856024,0.6347774267196655,-0.885784685611725,0.05180868392078697,4.3267365859804805,0.1273692800323713,,,,,,
8,13,-0.7502413392066957,-0.060621827840805054,9.791226387023928,0.006899248342961074,-0.005153548903763294,0.004159661475569011,-0.4312864243984223,0.632414698600769,-0.8898751735687256,0.05710639543467482,4.321909063673788,0.13030816035226828,,,,,,
8,14,-0.7502413392066957,-0.060621827840805054,9.791226387023928,0.006899248342961074,-0.005153548903763294,0.004159661475569011,-0.4312864243984223,0.632414698600769,-0.8898751735687256,0.05710639543467482,4.321909063673788,0.13030816035226828,,,,,,
8,15,-0.7323744893074037,-0.06176839396357537,9.783289909362795,0.006540482863783836,-0.002187543548643589,0.001170477247796953,-0.4331662654876709,0.6304705739021302,-0.8894046545028687,0.059141170415976024,4.320654261277707,0.13044378717872102,,,,,,
8,16,-0.7322585582733154,-0.057875096797943115,9.784320831298828,0.00853462889790535,0.001017413684166968,0.002707559149712324,-0.43261539936065674,0.6299337744712831,-0.8868938088417054,0.062353994213345525,4.321229151735972,0.1314548811432656,,,,,,
8,17,-0.748793661594391,-0.05356787145137787,9.783126831054688,0.008289899677038193,-0.0019084141822531822,0.0028721936978399754,-0.43069761991500854,0.6347413659095765,-0.883765459060669,0.06693496365759194,4.318843269347988,0.1349673612324224,,,,,,
8,18,-0.7225164771080018,-0.06556014716625214,9.783183097839357,0.010343282483518125,-0.0013969399733468892,0.0038143075071275234,-0.4302824437618256,0.6343036890029907,-0.8868074417114258,0.07116525849267362,4.318040269836739,0.13659292907727016,,,,,,
8,19,-0.7225164771080018,-0.06556014716625214,9.783183097839357,0.010343282483518125,-0.0013969399733468892,0.0038143075071275234,-0.4302824437618256,0.6343036890029907,-0.8868074417114258,0.07116525849267362,4.318040269836739,0.13659292907727016,,,,,,
8,20,-0.7073179483413696,-0.05628448724746704,9.789602279663086,0.012110907584428787,-0.0020850517321377997,0.001381810288876295,-0.43032801151275635,0.6333732008934022,-0.8893532156944276,0.07627008592111267,4.316831586200982,0.13680993425594126,,,,,,
9,0,-0.7579509019851685,-0.04906213656067849,9.787975311279297,0.006539418827742339,-0.0022116457112133503,0.0034142003860324626,-0.43263533711433416,0.6318758726119995,-0.8863455057144165,0.02189958677922604,4.335765555812516,0.11733571799811529,,,,,,
9,1,-0.7579509019851685,-0.04906213656067849,9.787975311279297,0.006539418827742339,-0.0022116457112133503,0.0034142003860324626,-0.43263533711433416,0.6318758726119995,-0.8863455057144165,0.02189958677922604,4.335765555812516,0.11733571799811529,,,,,,
9,2,-0.7579509019851685,-0.04906213656067849,9.787975311279297,0.006539418827742339,-0.0022116457112133503,0.0034142003860324626,-0.43263533711433416,0.6318758726119995,-0.8863455057144165,0.02189958677922604,4.335765555812516,0.11733571799811529,,,,,,
9,3,-0.7579509019851685,-0.04906213656067849,9.787975311279297,0.006539418827742339,-0.0022116457112133503,0.0034142003860324626,-0.43263533711433416,0.6318758726119995,-0.8863455057144165,0.02189958677922604,4.335765555812516,0.11733571799811529,,,,,,
9,4,-0.7579509019851685,-0.04906213656067849,9.787975311279297,0.006539418827742339,-0.0022116457112133503,0.0034142003860324626,-0.43263533711433416,0.6318758726119995,-0.8863455057144165,0.02189958677922604,4.335765555812516,0.11733571799811529,,,,,,
9,5,-0.771941363811493,-0.05850138887763024,9.786622047424318,0.010940797626972198,-0.0015754305059090259,0.0014916848158463838,-0.432598352432251,0.6318488121032715,-0.8848310708999634,0.026780237556248525,4.334756769124334,0.11774812135131789,,,,,,
9,6,-0.7497154474258423,-0.06394065916538239,9.784058570861818,0.007208056282252074,-0.0024817951489239935,0.0031963069923222065,-0.42835369706153875,0.6347664594650269,-0.8863010406494141,0.032709484785009735,4.331705313335577,0.12083810204227242,,,,,,
9,7,-0.7497154474258423,-0.06394065916538239,9.784058570861818,0.007208056282252074,-0.0024817951489239935,0.0031963069923222065,-0.42835369706153875,0.6347664594650269,-0.8863010406494141,0.032709484785009735,4.331705313335577,0.12083810204227242,,,,,,
9,8,-0.7399352788925171,-0.060711022466421134,9.785717010498047,0.009825461544096472,-0.0009476968552917242,0.003870200598612428,-0.4298022389411926,0.6314091086387635,-0.8888942599296571,0.036941747370196204,4.331123324064159,0.12258484745232148,,,,,,
9,9,-0.7444883584976196,-0.0581868514418602,9.790867805480959,0.008318960666656494,-0.004742272663861514,0.0008377871126867832,-0.4307155907154084,0.6299358010292054,-0.8879126310348511,0.04014712103916855,4.328367940778828,0.12257798643791211,,,,,,
9,10,-0.739686131477356,-0.04937446862459183,9.787844657897951,0.008656418882310392,-0.0020738521125167613,0.0044529130682349205,-0.4311341345310212,0.6327852010726929,-0.883301854133606,0.047294211028280776,4.3269958943109375,0.12694460954373898,,,,,,
9,11,-0.739686131477356,-0.04937446862459183,9.787844657897951,0.008656418882310392,-0.0020738521125167613,0.0044529130682349205,-0.4311341345310212,0.6327852010726929,-0.883301854133606,0.047294211028280776,4.3269958943109375,0.12694460954373898,,,,,,
9,12,-0.752669394016266,-0.04796522855758667,9.783865928649904,0.010693822987377645,-0.00038409046828746796,0.0016313215019181373,-0.43074694275856024,0.6347774267196655,-0.885784685611725,0.05180868392078697,4.3267365859804805,0.1273692800323713,,,,,,
9,13,-0.7502413392066957,-0.060621827840805054,9.791226387023928,0.006899248342961074,-0.005153548903763294,0.004159661475569011,-0.4312864243984223,0.632414698600769,-0.8898751735687256,0.05710639543467482,4.321909063673788,0.13030816035226828,,,,,,
9,14,-0.7502413392066957,-0.060621827840805054,9.791226387023928,0.006899248342961074,-0.005153548903763294,0.004159661475569011,-0.4312864243984223,0.632414698600769,-0.8898751735687256,0.05710639543467482,4.321909063673788,0.13030816035226828,,,,,,
9,15,-0.7323744893074037,-0.06176839396357537,9.783289909362795,0.006540482863783836,-0.002187543548643589,0.001170477247796953,-0.4331662654876709,0.6304705739021302,-0.8894046545028687,0.059141170415976024,4.320654261277707,0.13044378717872102,,,,,,
9,16,-0.7322585582733154,-0.057875096797943115,9.784320831298828,0.00853462889790535,0.001017413684166968,0.002707559149712324,-0.43261539936065674,0.6299337744712831,-0.8868938088417054,0.062353994213345525,4.321229151735972,0.1314548811432656,,,,,,
9,17,-0.748793661594391,-0.05356787145137787,9.783126831054688,0.008289899677038193,-0.0019084141822531822,0.0028721936978399754,-0.43069761991500854,0.6347413659095765,-0.883765459060669,0.06693496365759194,4.318843269347988,0.1349673612324224,,,,,,
9,18,-0.7225164771080018,-0.06556014716625214,9.783183097839357,0.010343282483518125,-0.0013969399733468892,0.0038143075071275234,-0.4302824437618256,0.6343036890029907,-0.8868074417114258,0.07116525849267362,4.318040269836739,0.13659292907727016,,,,,,
9,19,-0.7225164771080018,-0.06556014716625214,9.783183097839357,0.010343282483518125,-0.0013969399733468892,0.0038143075071275234,-0.4302824437618256,0.6343036890029907,-0.8868074417114258,0.07116525849267362,4.318040269836739,0.13659292907727016,,,,,,
9,20,-0.7073179483413696,-0.05628448724746704,9.789602279663086,0.012110907584428787,-0.0020850517321377997,0.001381810288876295,-0.43032801151275635,0.6333732008934022,-0.8893532156944276,0.07627008592111267,4.316831586200982,0.13680993425594126,,,,,,
10,0,-0.7579509019851685,-0.04906213656067849,9.787975311279297,0.006539418827742339,-0.0022116457112133503,0.0034142003860324626,-0.43263533711433416,0.6318758726119995,-0.8863455057144165,0.02189958677922604,4.335765555812516,0.11733571799811529,,,,,,
10,1,-0.7579509019851685,-0.04906213656067849,9.787975311279297,0.006539418827742339,-0.0022116457112133503,0.0034142003860324626,-0.43263533711433416,0.6318758726119995,-0.8863455057144165,0.02189958677922604,4.335765555812516,0.11733571799811529,,,,,,
10,2,-0.7579509019851685,-0.04906213656067849,9.787975311279297,0.006539418827742339,-0.0022116457112133503,0.0034142003860324626,-0.43263533711433416,0.6318758726119995,-0.8863455057144165,0.02189958677922604,4.335765555812516,0.11733571799811529,,,,,,
10,3,-0.7579509019851685,-0.04906213656067849,9.787975311279297,0.006539418827742339,-0.0022116457112133503,0.0034142003860324626,-0.43263533711433416,0.6318758726119995,-0.8863455057144165,0.02189958677922604,4.335765555812516,0.11733571799811529,,,,,,
10,4,-0.7579509019851685,-0.04906213656067849,9.787975311279297,0.006539418827742339,-0.0022116457112133503,0.0034142003860324626,-0.43263533711433416,0.6318758726119995,-0.8863455057144165,0.02189958677922604,4.335765555812516,0.11733571799811529,,,,,,
10,5,-0.771941363811493,-0.05850138887763024,9.786622047424318,0.010940797626972198,-0.0015754305059090259,0.0014916848158463838,-0.432598352432251,0.6318488121032715,-0.8848310708999634,0.026780237556248525,4.334756769124334,0.11774812135131789,,,,,,
10,6,-0.7497154474258423,-0.06394065916538239,9.784058570861818,0.007208056282252074,-0.0024817951489239935,0.0031963069923222065,-0.42835369706153875,0.6347664594650269,-0.8863010406494141,0.032709484785009735,4.331705313335577,0.12083810204227242,,,,,,
10,7,-0.7497154474258423,-0.06394065916538239,9.784058570861818,0.007208056282252074,-0.0024817951489239935,0.0031963069923222065,-0.42835369706153875,0.6347664594650269,-0.8863010406494141,0.032709484785009735,4.331705313335577,0.12083810204227242,,,,,,
10,8,-0.7399352788925171,-0.060711022466421134,9.785717010498047,0.009825461544096472,-0.0009476968552917242,0.003870200598612428,-0.4298022389411926,0.6314091086387635,-0.8888942599296571,0.036941747370196204,4.331123324064159,0.12258484745232148,,,,,,
10,9,-0.7444883584976196,-0.0581868514418602,9.790867805480959,0.008318960666656494,-0.004742272663861514,0.0008377871126867832,-0.4307155907154084,0.6299358010292054,-0.8879126310348511,0.04014712103916855,4.328367940778828,0.12257798643791211,,,,,,
10,10,-0.739686131477356,-0.04937446862459183,9.787844657897951,0.008656418882310392,-0.0020738521125167613,0.0044529130682349205,-0.4311341345310212,0.6327852010726929,-0.883301854133606,0.047294211028280776,4.3269958943109375,0.12694460954373898,,,,,,
10,11,-0.739686131477356,-0.04937446862459183,9.787844657897951,0.008656418882310392,-0.0020738521125167613,0.0044529130682349205,-0.4311341345310212,0.6327852010726929,-0.883301854133606,0.047294211028280776,4.3269958943109375,0.12694460954373898,,,,,,
10,12,-0.752669394016266,-0.04796522855758667,9.783865928649904,0.010693822987377645,-0.00038409046828746796,0.0016313215019181373,-0.43074694275856024,0.6347774267196655,-0.885784685611725,0.05180868392078697,4.3267365859804805,0.1273692800323713,,,,,,
10,13,-0.7502413392066957,-0.060621827840805054,9.791226387023928,0.006899248342961074,-0.005153548903763294,0.004159661475569011,-0.4312864243984223,0.632414698600769,-0.8898751735687256,0.05710639543467482,4.321909063673788,0.13030816035226828,,,,,,
10,14,-0.7502413392066957,-0.060621827840805054,9.791226387023928,0.006899248342961074,-0.005153548903763294,0.004159661475569011,-0.4312864243984223,0.632414698600769,-0.8898751735687256,0.05710639543467482,4.321909063673788,0.13030816035226828,,,,,,
10,15,-0.7323744893074037,-0.06176839396357537,9.783289909362795,0.006540482863783836,-0.002187543548643589,0.001170477247796953,-0.4331662654876709,0.6304705739021302,-0.8894046545028687,0.059141170415976024,4.320654261277707,0.13044378717872102,,,,,,
10,16,-0.7322585582733154,-0.057875096797943115,9.784320831298828,0.00853462889790535,0.001017413684166968,0.002707559149712324,-0.43261539936065674,0.6299337744712831,-0.8868938088417054,0.062353994213345525,4.321229151735972,0.1314548811432656,,,,,,
10,17,-0.748793661594391,-0.05356787145137787,9.783126831054688,0.008289899677038193,-0.0019084141822531822,0.0028721936978399754,-0.43069761991500854,0.6347413659095765,-0.883765459060669,0.06693496365759194,4.318843269347988,0.1349673612324224,,,,,,
10,18,-0.7225164771080018,-0.06556014716625214,9.783183097839357,0.010343282483518125,-0.0013969399733468892,0.0038143075071275234,-0.4302824437618256,0.6343036890029907,-0.8868074417114258,0.07116525849267362,4.318040269836739,0.13659292907727016,,,,,,
10,19,-0.7225164771080018,-0.06556014716625214,9.783183097839357,0.010343282483518125,-0.0013969399733468892,0.0038143075071275234,-0.4302824437618256,0.6343036890029907,-0.8868074417114258,0.07116525849267362,4.318040269836739,0.13659292907727016,,,,,,
10,20,-0.7073179483413696,-0.05628448724746704,9.789602279663086,0.012110907584428787,-0.0020850517321377997,0.001381810288876295,-0.43032801151275635,0.6333732008934022,-0.8893532156944276,0.07627008592111267,4.316831586200982,0.13680993425594126,,,,,,
11,0,-0.7579509019851685,-0.04906213656067849,9.787975311279297,0.006539418827742339,-0.0022116457112133503,0.0034142003860324626,-0.43263533711433416,0.6318758726119995,-0.8863455057144165,0.02189958677922604,4.335765555812516,0.11733571799811529,,,,,,
11,1,-0.7579509019851685,-0.04906213656067849,9.787975311279297,0.006539418827742339,-0.0022116457112133503,0.0034142003860324626,-0.43263533711433416,0.6318758726119995,-0.8863455057144165,0.02189958677922604,4.335765555812516,0.11733571799811529,,,,,,
11,2,-0.7579509019851685,-0.04906213656067849,9.787975311279297,0.006539418827742339,-0.0022116457112133503,0.0034142003860324626,-0.43263533711433416,0.6318758726119995,-0.8863455057144165,0.02189958677922604,4.335765555812516,0.11733571799811529,,,,,,
11,3,-0.7579509019851685,-0.04906213656067849,9.787975311279297,0.006539418827742339,-0.0022116457112133503,0.0034142003860324626,-0.43263533711433416,0.6318758726119995,-0.8863455057144165,0.02189958677922604,4.335765555812516,0.11733571799811529,,,,,,
11,4,-0.7579509019851685,-0.04906213656067849,9.787975311279297,0.006539418827742339,-0.0022116457112133503,0.0034142003860324626,-0.43263533711433416,0.6318758726119995,-0.8863455057144165,0.02189958677922604,4.335765555812516,0.11733571799811529,,,,,,
11,5,-0.771941363811493,-0.05850138887763024,9.786622047424318,0.010940797626972198,-0.0015754305059090259,0.0014916848158463838,-0.432598352432251,0.6318488121032715,-0.8848310708999634,0.026780237556248525,4.334756769124334,0.11774812135131789,,,,,,
11,6,-0.7497154474258423,-0.06394065916538239,9.784058570861818,0.007208056282252074,-0.0024817951489239935,0.0031963069923222065,-0.42835369706153875,0.6347664594650269,-0.8863010406494141,0.032709484785009735,4.331705313335577,0.12083810204227242,,,,,,
11,7,-0.7497154474258423,-0.06394065916538239,9.784058570861818,0.007208056282252074,-0.0024817951489239935,0.0031963069923222065,-0.42835369706153875,0.6347664594650269,-0.8863010406494141,0.032709484785009735,4.331705313335577,0.12083810204227242,,,,,,
11,8,-0.7399352788925171,-0.060711022466421134,9.785717010498047,0.009825461544096472,-0.0009476968552917242,0.003870200598612428,-0.4298022389411926,0.6314091086387635,-0.8888942599296571,0.036941747370196204,4.331123324064159,0.12258484745232148,,,,,,
11,9,-0.7444883584976196,-0.0581868514418602,9.790867805480959,0.008318960666656494,-0.004742272663861514,0.0008377871126867832,-0.4307155907154084,0.6299358010292054,-0.8879126310348511,0.04014712103916855,4.328367940778828,0.12257798643791211,,,,,,
11,10,-0.739686131477356,-0.04937446862459183,9.787844657897951,0.008656418882310392,-0.0020738521125167613,0.0044529130682349205,-0.4311341345310212,0.6327852010726929,-0.883301854133606,0.047294211028280776,4.3269958943109375,0.12694460954373898,,,,,,
11,11,-0.739686131477356,-0.04937446862459183,9.787844657897951,0.008656418882310392,-0.0020738521125167613,0.0044529130682349205,-0.4311341345310212,0.6327852010726929,-0.883301854133606,0.047294211028280776,4.3269958943109375,0.12694460954373898,,,,,,
11,12,-0.752669394016266,-0.04796522855758667,9.783865928649904,0.010693822987377645,-0.00038409046828746796,0.0016313215019181373,-0.43074694275856024,0.6347774267196655,-0.885784685611725,0.05180868392078697,4.3267365859804805,0.1273692800323713,,,,,,
11,13,-0.7502413392066957,-0.060621827840805054,9.791226387023928,0.006899248342961074,-0.005153548903763294,0.004159661475569011,-0.4312864243984223,0.632414698600769,-0.8898751735687256,0.05710639543467482,4.321909063673788,0.13030816035226828,,,,,,
11,14,-0.7502413392066957,-0.060621827840805054,9.791226387023928,0.006899248342961074,-0.005153548903763294,0.004159661475569011,-0.4312864243984223,0.632414698600769,-0.8898751735687256,0.05710639543467482,4.321909063673788,0.13030816035226828,,,,,,
11,15,-0.7323744893074037,-0.06176839396357537,9.783289909362795,0.006540482863783836,-0.002187543548643589,0.001170477247796953,-0.4331662654876709,0.6304705739021302,-0.8894046545028687,0.059141170415976024,4.320654261277707,0.13044378717872102,,,,,,
11,16,-0.7322585582733154,-0.057875096797943115,9.784320831298828,0.00853462889790535,0.001017413684166968,0.002707559149712324,-0.43261539936065674,0.6299337744712831,-0.8868938088417054,0.062353994213345525,4.321229151735972,0.1314548811432656,,,,,,
11,17,-0.748793661594391,-0.05356787145137787,9.783126831054688,0.008289899677038193,-0.0019084141822531822,0.0028721936978399754,-0.43069761991500854,0.6347413659095765,-0.883765459060669,0.06693496365759194,4.318843269347988,0.1349673612324224,,,,,,
11,18,-0.7225164771080018,-0.06556014716625214,9.783183097839357,0.010343282483518125,-0.0013969399733468892,0.0038143075071275234,-0.4302824437618256,0.6343036890029907,-0.8868074417114258,0.07116525849267362,4.318040269836739,0.13659292907727016,,,,,,
11,19,-0.7225164771080018,-0.06556014716625214,9.783183097839357,0.010343282483518125,-0.0013969399733468892,0.0038143075071275234,-0.4302824437618256,0.6343036890029907,-0.8868074417114258,0.07116525849267362,4.318040269836739,0.13659292907727016,,,,,,
11,20,-0.7073179483413696,-0.05628448724746704,9.789602279663086,0.012110907584428787,-0.0020850517321377997,0.001381810288876295,-0.43032801151275635,0.6333732008934022,-0.8893532156944276,0.07627008592111267,4.316831586200982,0.13680993425594126,,,,,,
12,0,-0.7579509019851685,-0.04906213656067849,9.787975311279297,0.006539418827742339,-0.0022116457112133503,0.0034142003860324626,-0.43263533711433416,0.6318758726119995,-0.8863455057144165,0.02189958677922604,4.335765555812516,0.11733571799811529,,,,,,
12,1,-0.7579509019851685,-0.04906213656067849,9.787975311279297,0.006539418827742339,-0.0022116457112133503,0.0034142003860324626,-0.43263533711433416,0.6318758726119995,-0.8863455057144165,0.02189958677922604,4.335765555812516,0.11733571799811529,,,,,,
12,2,-0.7579509019851685,-0.04906213656067849,9.787975311279297,0.006539418827742339,-0.0022116457112133503,0.0034142003860324626,-0.43263533711433416,0.6318758726119995,-0.8863455057144165,0.02189958677922604,4.335765555812516,0.11733571799811529,,,,,,
12,3,-0.7579509019851685,-0.04906213656067849,9.787975311279297,0.006539418827742339,-0.0022116457112133503,0.0034142003860324626,-0.43263533711433416,0.6318758726119995,-0.8863455057144165,0.02189958677922604,4.335765555812516,0.11733571799811529,,,,,,
12,4,-0.7579509019851685,-0.04906213656067849,9.787975311279297,0.006539418827742339,-0.0022116457112133503,0.0034142003860324626,-0.43263533711433416,0.6318758726119995,-0.8863455057144165,0.02189958677922604,4.335765555812516,0.11733571799811529,,,,,,
12,5,-0.771941363811493,-0.05850138887763024,9.786622047424318,0.010940797626972198,-0.0015754305059090259,0.0014916848158463838,-0.432598352432251,0.6318488121032715,-0.8848310708999634,0.026780237556248525,4.334756769124334,0.11774812135131789,,,,,,
12,6,-0.7497154474258423,-0.06394065916538239,9.784058570861818,0.007208056282252074,-0.0024817951489239935,0.0031963069923222065,-0.42835369706153875,0.6347664594650269,-0.8863010406494141,0.032709484785009735,4.331705313335577,0.12083810204227242,,,,,,
12,7,-0.7497154474258423,-0.06394065916538239,9.784058570861818,0.007208056282252074,-0.0024817951489239935,0.0031963069923222065,-0.42835369706153875,0.6347664594650269,-0.8863010406494141,0.032709484785009735,4.331705313335577,0.12083810204227242,,,,,,
12,8,-0.7399352788925171,-0.060711022466421134,9.785717010498047,0.009825461544096472,-0.0009476968552917242,0.003870200598612428,-0.4298022389411926,0.6314091086387635,-0.8888942599296571,0.036941747370196204,4.331123324064159,0.12258484745232148,,,,,,
12,9,-0.7444883584976196,-0.0581868514418602,9.790867805480959,0.008318960666656494,-0.004742272663861514,0.0008377871126867832,-0.4307155907154084,0.6299358010292054,-0.8879126310348511,0.04014712103916855,4.328367940778828,0.12257798643791211,,,,,,
12,10,-0.739686131477356,-0.04937446862459183,9.787844657897951,0.008656418882310392,-0.0020738521125167613,0.0044529130682349205,-0.4311341345310212,0.6327852010726929,-0.883301854133606,0.047294211028280776,4.3269958943109375,0.12694460954373898,,,,,,
12,11,-0.739686131477356,-0.04937446862459183,9.787844657897951,0.008656418882310392,-0.0020738521125167613,0.0044529130682349205,-0.4311341345310212,0.6327852010726929,-0.883301854133606,0.047294211028280776,4.3269958943109375,0.12694460954373898,,,,,,
12,12,-0.752669394016266,-0.04796522855758667,9.783865928649904,0.010693822987377645,-0.00038409046828746796,0.0016313215019181373,-0.43074694275856024,0.6347774267196655,-0.885784685611725,0.05180868392078697,4.3267365859804805,0.1273692800323713,,,,,,
12,13,-0.7502413392066957,-0.060621827840805054,9.791226387023928,0.006899248342961074,-0.005153548903763294,0.004159661475569011,-0.4312864243984223,0.632414698600769,-0.8898751735687256,0.05710639543467482,4.321909063673788,0.13030816035226828,,,,,,
12,14,-0.7502413392066957,-0.060621827840805054,9.791226387023928,0.006899248342961074,-0.005153548903763294,0.004159661475569011,-0.4312864243984223,0.632414698600769,-0.8898751735687256,0.05710639543467482,4.321909063673788,0.13030816035226828,,,,,,
12,15,-0.7323744893074037,-0.06176839396357537,9.783289909362795,0.006540482863783836,-0.002187543548643589,0.001170477247796953,-0.4331662654876709,0.6304705739021302,-0.8894046545028687,0.059141170415976024,4.320654261277707,0.13044378717872102,,,,,,
12,16,-0.7322585582733154,-0.057875096797943115,9.784320831298828,0.00853462889790535,0.001017413684166968,0.002707559149712324,-0.43261539936065674,0.6299337744712831,-0.8868938088417054,0.062353994213345525,4.321229151735972,0.1314548811432656,,,,,,
12,17,-0.748793661594391,-0.05356787145137787,9.783126831054688,0.008289899677038193,-0.0019084141822531822,0.0028721936978399754,-0.43069761991500854,0.6347413659095765,-0.883765459060669,0.06693496365759194,4.318843269347988,0.1349673612324224,,,,,,
12,18,-0.7225164771080018,-0.06556014716625214,9.783183097839357,0.010343282483518125,-0.0013969399733468892,0.0038143075071275234,-0.4302824437618256,0.6343036890029907,-0.8868074417114258,0.07116525849267362,4.318040269836739,0.13659292907727016,,,,,,
12,19,-0.7225164771080018,-0.06556014716625214,9.783183097839357,0.010343282483518125,-0.0013969399733468892,0.0038143075071275234,-0.4302824437618256,0.6343036890029907,-0.8868074417114258,0.07116525849267362,4.318040269836739,0.13659292907727016,,,,,,
12,20,-0.7073179483413696,-0.05628448724746704,9.789602279663086,0.012110907584428787,-0.0020850517321377997,0.001381810288876295,-0.43032801151275635,0.6333732008934022,-0.8893532156944276,0.07627008592111267,4.316831586200982,0.13680993425594126,,,,,,
13,0,-0.7579509019851685,-0.04906213656067849,9.787975311279297,0.006539418827742339,-0.0022116457112133503,0.0034142003860324626,-0.43263533711433416,0.6318758726119995,-0.8863455057144165,0.02189958677922604,4.335765555812516,0.11733571799811529,,,,,,
13,1,-0.7579509019851685,-0.04906213656067849,9.787975311279297,0.006539418827742339,-0.0022116457112133503,0.0034142003860324626,-0.43263533711433416,0.6318758726119995,-0.8863455057144165,0.02189958677922604,4.335765555812516,0.11733571799811529,,,,,,
13,2,-0.7579509019851685,-0.04906213656067849,9.787975311279297,0.006539418827742339,-0.0022116457112133503,0.0034142003860324626,-0.43263533711433416,0.6318758726119995,-0.8863455057144165,0.02189958677922604,4.335765555812516,0.11733571799811529,,,,,,
13,3,-0.7579509019851685,-0.04906213656067849,9.787975311279297,0.006539418827742339,-0.0022116457112133503,0.0034142003860324626,-0.43263533711433416,0.6318758726119995,-0.8863455057144165,0.02189958677922604,4.335765555812516,0.11733571799811529,,,,,,
13,4,-0.7579509019851685,-0.04906213656067849,9.787975311279297,0.006539418827742339,-0.0022116457112133503,0.0034142003860324626,-0.43263533711433416,0.6318758726119995,-0.8863455057144165,0.02189958677922604,4.335765555812516,0.11733571799811529,,,,,,
13,5,-0.771941363811493,-0.05850138887763024,9.786622047424318,0.010940797626972198,-0.0015754305059090259,0.0014916848158463838,-0.432598352432251,0.6318488121032715,-0.8848310708999634,0.026780237556248525,4.334756769124334,0.11774812135131789,,,,,,
13,6,-0.7497154474258423,-0.06394065916538239,9.784058570861818,0.007208056282252074,-0.0024817951489239935,0.0031963069923222065,-0.42835369706153875,0.6347664594650269,-0.8863010406494141,0.032709484785009735,4.331705313335577,0.12083810204227242,,,,,,
13,7,-0.7497154474258423,-0.06394065916538239,9.784058570861818,0.007208056282252074,-0.0024817951489239935,0.0031963069923222065,-0.42835369706153875,0.6347664594650269,-0.8863010406494141,0.032709484785009735,4.331705313335577,0.12083810204227242,,,,,,
13,8,-0.7399352788925171,-0.060711022466421134,9.785717010498047,0.009825461544096472,-0.0009476968552917242,0.003870200598612428,-0.4298022389411926,0.6314091086387635,-0.8888942599296571,0.036941747370196204,4.331123324064159,0.12258484745232148,,,,,,
13,9,-0.7444883584976196,-0.0581868514418602,9.790867805480959,0.008318960666656494,-0.004742272663861514,0.0008377871126867832,-0.4307155907154084,0.6299358010292054,-0.8879126310348511,0.04014712103916855,4.328367940778828,0.12257798643791211,,,,,,
13,10,-0.739686131477356,-0.04937446862459183,9.787844657897951,0.008656418882310392,-0.0020738521125167613,0.0044529130682349205,-0.4311341345310212,0.6327852010726929,-0.883301854133606,0.047294211028280776,4.3269958943109375,0.12694460954373898,,,,,,
13,11,-0.739686131477356,-0.04937446862459183,9.787844657897951,0.008656418882310392,-0.0020738521125167613,0.0044529130682349205,-0.4311341345310212,0.6327852010726929,-0.883301854133606,0.047294211028280776,4.3269958943109375,0.12694460954373898,,,,,,
13,12,-0.752669394016266,-0.04796522855758667,9.783865928649904,0.010693822987377645,-0.00038409046828746796,0.0016313215019181373,-0.43074694275856024,0.6347774267196655,-0.885784685611725,0.05180868392078697,4.3267365859804805,0.1273692800323713,,,,,,
13,13,-0.7502413392066957,-0.060621827840805054,9.791226387023928,0.006899248342961074,-0.005153548903763294,0.004159661475569011,-0.4312864243984223,0.632414698600769,-0.8898751735687256,0.05710639543467482,4.321909063673788,0.13030816035226828,,,,,,
13,14,-0.7502413392066957,-0.060621827840805054,9.791226387023928,0.006899248342961074,-0.005153548903763294,0.004159661475569011,-0.4312864243984223,0.632414698600769,-0.8898751735687256,0.05710639543467482,4.321909063673788,0.13030816035226828,,,,,,
13,15,-0.7323744893074037,-0.06176839396357537,9.783289909362795,0.006540482863783836,-0.002187543548643589,0.001170477247796953,-0.4331662654876709,0.6304705739021302,-0.8894046545028687,0.059141170415976024,4.320654261277707,0.13044378717872102,,,,,,
13,16,-0.7322585582733154,-0.057875096797943115,9.784320831298828,0.00853462889790535,0.001017413684166968,0.002707559149712324,-0.43261539936065674,0.6299337744712831,-0.8868938088417054,0.062353994213345525,4.321229151735972,0.1314548811432656,,,,,,
13,17,-0.748793661594391,-0.05356787145137787,9.783126831054688,0.008289899677038193,-0.0019084141822531822,0.0028721936978399754,-0.43069761991500854,0.6347413659095765,-0.883765459060669,0.06693496365759194,4.318843269347988,0.1349673612324224,,,,,,
13,18,-0.7225164771080018,-0.06556014716625214,9.783183097839357,0.010343282483518125,-0.0013969399733468892,0.0038143075071275234,-0.4302824437618256,0.6343036890029907,-0.8868074417114258,0.07116525849267362,4.318040269836739,0.13659292907727016,,,,,,
13,19,-0.7225164771080018,-0.06556014716625214,9.783183097839357,0.010343282483518125,-0.0013969399733468892,0.0038143075071275234,-0.4302824437618256,0.6343036890029907,-0.8868074417114258,0.07116525849267362,4.318040269836739,0.13659292907727016,,,,,,
13,20,-0.7073179483413696,-0.05628448724746704,9.789602279663086,0.012110907584428787,-0.0020850517321377997,0.001381810288876295,-0.43032801151275635,0.6333732008934022,-0.8893532156944276,0.07627008592111267,4.316831586200982,0.13680993425594126,,,,,,
14,0,-0.7579509019851685,-0.04906213656067849,9.787975311279297,0.006539418827742339,-0.0022116457112133503,0.0034142003860324626,-0.43263533711433416,0.6318758726119995,-0.8863455057144165,0.02189958677922604,4.335765555812516,0.11733571799811529,,,,,,
14,1,-0.7579509019851685,-0.04906213656067849,9.787975311279297,0.006539418827742339,-0.0022116457112133503,0.0034142003860324626,-0.43263533711433416,0.6318758726119995,-0.8863455057144165,0.02189958677922604,4.335765555812516,0.11733571799811529,,,,,,
14,2,-0.7579509019851685,-0.04906213656067849,9.787975311279297,0.006539418827742339,-0.0022116457112133503,0.0034142003860324626,-0.43263533711433416,0.6318758726119995,-0.8863455057144165,0.02189958677922604,4.335765555812516,0.11733571799811529,,,,,,
14,3,-0.7579509019851685,-0.04906213656067849,9.787975311279297,0.006539418827742339,-0.0022116457112133503,0.0034142003860324626,-0.43263533711433416,0.6318758726119995,-0.8863455057144165,0.02189958677922604,4.335765555812516,0.11733571799811529,,,,,,
14,4,-0.7579509019851685,-0.04906213656067849,9.787975311279297,0.006539418827742339,-0.0022116457112133503,0.0034142003860324626,-0.43263533711433416,0.6318758726119995,-0.8863455057144165,0.02189958677922604,4.335765555812516,0.11733571799811529,,,,,,
14,5,-0.771941363811493,-0.05850138887763024,9.786622047424318,0.010940797626972198,-0.0015754305059090259,0.0014916848158463838,-0.432598352432251,0.6318488121032715,-0.8848310708999634,0.026780237556248525,4.334756769124334,0.11774812135131789,,,,,,
14,6,-0.7497154474258423,-0.06394065916538239,9.784058570861818,0.007208056282252074,-0.0024817951489239935,0.0031963069923222065,-0.42835369706153875,0.6347664594650269,-0.8863010406494141,0.032709484785009735,4.331705313335577,0.12083810204227242,,,,,,
14,7,-0.7497154474258423,-0.06394065916538239,9.784058570861818,0.007208056282252074,-0.0024817951489239935,0.0031963069923222065,-0.42835369706153875,0.6347664594650269,-0.8863010406494141,0.032709484785009735,4.331705313335577,0.12083810204227242,,,,,,
14,8,-0.7399352788925171,-0.060711022466421134,9.785717010498047,0.009825461544096472,-0.0009476968552917242,0.003870200598612428,-0.4298022389411926,0.6314091086387635,-0.8888942599296571,0.036941747370196204,4.331123324064159,0.12258484745232148,,,,,,
14,9,-0.7444883584976196,-0.0581868514418602,9.790867805480959,0.008318960666656494,-0.004742272663861514,0.0008377871126867832,-0.4307155907154084,0.6299358010292054,-0.8879126310348511,0.04014712103916855,4.328367940778828,0.12257798643791211,,,,,,
14,10,-0.739686131477356,-0.04937446862459183,9.787844657897951,0.008656418882310392,-0.0020738521125167613,0.0044529130682349205,-0.4311341345310212,0.6327852010726929,-0.883301854133606,0.047294211028280776,4.3269958943109375,0.12694460954373898,,,,,,
14,11,-0.739686131477356,-0.04937446862459183,9.787844657897951,0.008656418882310392,-0.0020738521125167613,0.0044529130682349205,-0.4311341345310212,0.6327852010726929,-0.883301854133606,0.047294211028280776,4.3269958943109375,0.12694460954373898,,,,,,
14,12,-0.752669394016266,-0.04796522855758667,9.783865928649904,0.010693822987377645,-0.00038409046828746796,0.0016313215019181373,-0.43074694275856024,0.6347774267196655,-0.885784685611725,0.05180868392078697,4.3267365859804805,0.1273692800323713,,,,,,
14,13,-0.7502413392066957,-0.060621827840805054,9.791226387023928,0.006899248342961074,-0.005153548903763294,0.004159661475569011,-0.4312864243984223,0.632414698600769,-0.8898751735687256,0.05710639543467482,4.321909063673788,0.13030816035226828,,,,,,
14,14,-0.7502413392066957,-0.060621827840805054,9.791226387023928,0.006899248342961074,-0.005153548903763294,0.004159661475569011,-0.4312864243984223,0.632414698600769,-0.8898751735687256,0.05710639543467482,4.321909063673788,0.13030816035226828,,,,,,
14,15,-0.7323744893074037,-0.06176839396357537,9.783289909362795,0.006540482863783836,-0.002187543548643589,0.001170477247796953,-0.4331662654876709,0.6304705739021302,-0.8894046545028687,0.059141170415976024,4.320654261277707,0.13044378717872102,,,,,,
14,16,-0.7322585582733154,-0.057875096797943115,9.784320831298828,0.00853462889790535,0.001017413684166968,0.002707559149712324,-0.43261539936065674,0.6299337744712831,-0.8868938088417054,0.062353994213345525,4.321229151735972,0.1314548811432656,,,,,,
14,17,-0.748793661594391,-0.05356787145137787,9.783126831054688,0.008289899677038193,-0.0019084141822531822,0.0028721936978399754,-0.43069761991500854,0.6347413659095765,-0.883765459060669,0.06693496365759194,4.318843269347988,0.1349673612324224,,,,,,
14,18,-0.7225164771080018,-0.06556014716625214,9.783183097839357,0.010343282483518125,-0.0013969399733468892,0.0038143075071275234,-0.4302824437618256,0.6343036890029907,-0.8868074417114258,0.07116525849267362,4.318040269836739,0.13659292907727016,,,,,,
14,19,-0.7225164771080018,-0.06556014716625214,9.783183097839357,0.010343282483518125,-0.0013969399733468892,0.0038143075071275234,-0.4302824437618256,0.6343036890029907,-0.8868074417114258,0.07116525849267362,4.318040269836739,0.13659292907727016,,,,,,
14,20,-0.7073179483413696,-0.05628448724746704,9.789602279663086,0.012110907584428787,-0.0020850517321377997,0.001381810288876295,-0.43032801151275635,0.6333732008934022,-0.8893532156944276,0.07627008592111267,4.316831586200982,0.13680993425594126,,,,,,
15,0,-0.7579509019851685,-0.04906213656067849,9.787975311279297,0.006539418827742339,-0.0022116457112133503,0.0034142003860324626,-0.43263533711433416,0.6318758726119995,-0.8863455057144165,0.02189958677922604,4.335765555812516,0.11733571799811529,,,,,,
15,1,-0.7579509019851685,-0.04906213656067849,9.787975311279297,0.006539418827742339,-0.0022116457112133503,0.0034142003860324626,-0.43263533711433416,0.6318758726119995,-0.8863455057144165,0.02189958677922604,4.335765555812516,0.11733571799811529,,,,,,
15,2,-0.7579509019851685,-0.04906213656067849,9.787975311279297,0.006539418827742339,-0.0022116457112133503,0.0034142003860324626,-0.43263533711433416,0.6318758726119995,-0.8863455057144165,0.02189958677922604,4.335765555812516,0.11733571799811529,,,,,,
15,3,-0.7579509019851685,-0.04906213656067849,9.787975311279297,0.006539418827742339,-0.0022116457112133503,0.0034142003860324626,-0.43263533711433416,0.6318758726119995,-0.8863455057144165,0.02189958677922604,4.335765555812516,0.11733571799811529,,,,,,
15,4,-0.7579509019851685,-0.04906213656067849,9.787975311279297,0.006539418827742339,-0.0022116457112133503,0.0034142003860324626,-0.43263533711433416,0.6318758726119995,-0.8863455057144165,0.02189958677922604,4.335765555812516,0.11733571799811529,,,,,,
15,5,-0.771941363811493,-0.05850138887763024,9.786622047424318,0.010940797626972198,-0.0015754305059090259,0.0014916848158463838,-0.432598352432251,0.6318488121032715,-0.8848310708999634,0.026780237556248525,4.334756769124334,0.11774812135131789,,,,,,
15,6,-0.7497154474258423,-0.06394065916538239,9.784058570861818,0.007208056282252074,-0.0024817951489239935,0.0031963069923222065,-0.42835369706153875,0.6347664594650269,-0.8863010406494141,0.032709484785009735,4.331705313335577,0.12083810204227242,,,,,,
15,7,-0.7497154474258423,-0.06394065916538239,9.784058570861818,0.007208056282252074,-0.0024817951489239935,0.0031963069923222065,-0.42835369706153875,0.6347664594650269,-0.8863010406494141,0.032709484785009735,4.331705313335577,0.12083810204227242,,,,,,
15,8,-0.7399352788925171,-0.060711022466421134,9.785717010498047,0.009825461544096472,-0.0009476968552917242,0.003870200598612428,-0.4298022389411926,0.6314091086387635,-0.8888942599296571,0.036941747370196204,4.331123324064159,0.12258484745232148,,,,,,
15,9,-0.7444883584976196,-0.0581868514418602,9.790867805480959,0.008318960666656494,-0.004742272663861514,0.0008377871126867832,-0.4307155907154084,0.6299358010292054,-0.8879126310348511,0.04014712103916855,4.328367940778828,0.12257798643791211,,,,,,
15,10,-0.739686131477356,-0.04937446862459183,9.787844657897951,0.008656418882310392,-0.0020738521125167613,0.0044529130682349205,-0.4311341345310212,0.6327852010726929,-0.883301854133606,0.047294211028280776,4.3269958943109375,0.12694460954373898,,,,,,
15,11,-0.739686131477356,-0.04937446862459183,9.787844657897951,0.008656418882310392,-0.0020738521125167613,0.0044529130682349205,-0.4311341345310212,0.6327852010726929,-0.883301854133606,0.047294211028280776,4.3269958943109375,0.12694460954373898,,,,,,
15,12,-0.752669394016266,-0.04796522855758667,9.783865928649904,0.010693822987377645,-0.00038409046828746796,0.0016313215019181373,-0.43074694275856024,0.6347774267196655,-0.885784685611725,0.05180868392078697,4.3267365859804805,0.1273692800323713,,,,,,
15,13,-0.7502413392066957,-0.060621827840805054,9.791226387023928,0.006899248342961074,-0.005153548903763294,0.004159661475569011,-0.4312864243984223,0.632414698600769,-0.8898751735687256,0.05710639543467482,4.321909063673788,0.13030816035226828,,,,,,
15,14,-0.7502413392066957,-0.060621827840805054,9.791226387023928,0.006899248342961074,-0.005153548903763294,0.004159661475569011,-0.4312864243984223,0.632414698600769,-0.8898751735687256,0.05710639543467482,4.321909063673788,0.13030816035226828,,,,,,
15,15,-0.7323744893074037,-0.06176839396357537,9.783289909362795,0.006540482863783836,-0.002187543548643589,0.001170477247796953,-0.4331662654876709,0.6304705739021302,-0.8894046545028687,0.059141170415976024,4.320654261277707,0.13044378717872102,,,,,,
15,16,-0.7322585582733154,-0.057875096797943115,9.784320831298828,0.00853462889790535,0.001017413684166968,0.002707559149712324,-0.43261539936065674,0.6299337744712831,-0.8868938088417054,0.062353994213345525,4.321229151735972,0.1314548811432656,,,,,,
15,17,-0.748793661594391,-0.05356787145137787,9.783126831054688,0.008289899677038193,-0.0019084141822531822,0.0028721936978399754,-0.43069761991500854,0.6347413659095765,-0.883765459060669,0.06693496365759194,4.318843269347988,0.1349673612324224,,,,,,
15,18,-0.7225164771080018,-0.06556014716625214,9.783183097839357,0.010343282483518125,-0.0013969399733468892,0.0038143075071275234,-0.4302824437618256,0.6343036890029907,-0.8868074417114258,0.07116525849267362,4.318040269836739,0.13659292907727016,,,,,,
15,19,-0.7225164771080018,-0.06556014716625214,9.783183097839357,0.010343282483518125,-0.0013969399733468892,0.0038143075071275234,-0.4302824437618256,0.6343036890029907,-0.8868074417114258,0.07116525849267362,4.318040269836739,0.13659292907727016,,,,,,
15,20,-0.7073179483413696,-0.05628448724746704,9.789602279663086,0.012110907584428787,-0.0020850517321377997,0.001381810288876295,-0.43032801151275635,0.6333732008934022,-0.8893532156944276,0.07627008592111267,4.316831586200982,0.13680993425594126,,,,,,
16,0,-0.7579509019851685,-0.04906213656067849,9.787975311279297,0.006539418827742339,-0.0022116457112133503,0.0034142003860324626,-0.43263533711433416,0.6318758726119995,-0.8863455057144165,0.02189958677922604,4.335765555812516,0.11733571799811529,,,,,,
16,1,-0.7579509019851685,-0.04906213656067849,9.787975311279297,0.006539418827742339,-0.0022116457112133503,0.0034142003860324626,-0.43263533711433416,0.6318758726119995,-0.8863455057144165,0.02189958677922604,4.335765555812516,0.11733571799811529,,,,,,
16,2,-0.7579509019851685,-0.04906213656067849,9.787975311279297,0.006539418827742339,-0.0022116457112133503,0.0034142003860324626,-0.43263533711433416,0.6318758726119995,-0.8863455057144165,0.02189958677922604,4.335765555812516,0.11733571799811529,,,,,,
16,3,-0.7579509019851685,-0.04906213656067849,9.787975311279297,0.006539418827742339,-0.0022116457112133503,0.0034142003860324626,-0.43263533711433416,0.6318758726119995,-0.8863455057144165,0.02189958677922604,4.335765555812516,0.11733571799811529,,,,,,
16,4,-0.7579509019851685,-0.04906213656067849,9.787975311279297,0.006539418827742339,-0.0022116457112133503,0.0034142003860324626,-0.43263533711433416,0.6318758726119995,-0.8863455057144165,0.02189958677922604,4.335765555812516,0.11733571799811529,,,,,,
16,5,-0.771941363811493,-0.05850138887763024,9.786622047424318,0.010940797626972198,-0.0015754305059090259,0.0014916848158463838,-0.432598352432251,0.6318488121032715,-0.8848310708999634,0.026780237556248525,4.334756769124334,0.11774812135131789,,,,,,
16,6,-0.7497154474258423,-0.06394065916538239,9.784058570861818,0.007208056282252074,-0.0024817951489239935,0.0031963069923222065,-0.42835369706153875,0.6347664594650269,-0.8863010406494141,0.032709484785009735,4.331705313335577,0.12083810204227242,,,,,,
16,7,-0.7497154474258423,-0.06394065916538239,9.784058570861818,0.007208056282252074,-0.0024817951489239935,0.0031963069923222065,-0.42835369706153875,0.6347664594650269,-0.8863010406494141,0.032709484785009735,4.331705313335577,0.12083810204227242,,,,,,
16,8,-0.7399352788925171,-0.060711022466421134,9.785717010498047,0.009825461544096472,-0.0009476968552917242,0.003870200598612428,-0.4298022389411926,0.6314091086387635,-0.8888942599296571,0.036941747370196204,4.331123324064159,0.12258484745232148,,,,,,
16,9,-0.7444883584976196,-0.0581868514418602,9.790867805480959,0.008318960666656494,-0.004742272663861514,0.0008377871126867832,-0.4307155907154084,0.6299358010292054,-0.8879126310348511,0.04014712103916855,4.328367940778828,0.12257798643791211,,,,,,
16,10,-0.739686131477356,-0.04937446862459183,9.787844657897951,0.008656418882310392,-0.0020738521125167613,0.0044529130682349205,-0.4311341345310212,0.6327852010726929,-0.883301854133606,0.047294211028280776,4.3269958943109375,0.12694460954373898,,,,,,
16,11,-0.739686131477356,-0.04937446862459183,9.787844657897951,0.008656418882310392,-0.0020738521125167613,0.0044529130682349205,-0.4311341345310212,0.6327852010726929,-0.883301854133606,0.047294211028280776,4.3269958943109375,0.12694460954373898,,,,,,
16,12,-0.752669394016266,-0.04796522855758667,9.783865928649904,0.010693822987377645,-0.00038409046828746796,0.0016313215019181373,-0.43074694275856024,0.6347774267196655,-0.885784685611725,0.05180868392078697,4.3267365859804805,0.1273692800323713,,,,,,
16,13,-0.7502413392066957,-0.060621827840805054,9.791226387023928,0.006899248342961074,-0.005153548903763294,0.004159661475569011,-0.4312864243984223,0.632414698600769,-0.8898751735687256,0.05710639543467482,4.321909063673788,0.13030816035226828,,,,,,
16,14,-0.7502413392066957,-0.060621827840805054,9.791226387023928,0.006899248342961074,-0.005153548903763294,0.004159661475569011,-0.4312864243984223,0.632414698600769,-0.8898751735687256,0.05710639543467482,4.321909063673788,0.13030816035226828,,,,,,
16,15,-0.7323744893074037,-0.06176839396357537,9.783289909362795,0.006540482863783836,-0.002187543548643589,0.001170477247796953,-0.4331662654876709,0.6304705739021302,-0.8894046545028687,0.059141170415976024,4.320654261277707,0.13044378717872102,,,,,,
16,16,-0.7322585582733154,-0.057875096797943115,9.784320831298828,0.00853462889790535,0.001017413684166968,0.002707559149712324,-0.43261539936065674,0.6299337744712831,-0.8868938088417054,0.062353994213345525,4.321229151735972,0.1314548811432656,,,,,,
16,17,-0.748793661594391,-0.05356787145137787,9.783126831054688,0.008289899677038193,-0.0019084141822531822,0.0028721936978399754,-0.43069761991500854,0.6347413659095765,-0.883765459060669,0.06693496365759194,4.318843269347988,0.1349673612324224,,,,,,
16,18,-0.7225164771080018,-0.06556014716625214,9.783183097839357,0.010343282483518125,-0.0013969399733468892,0.0038143075071275234,-0.4302824437618256,0.6343036890029907,-0.8868074417114258,0.07116525849267362,4.318040269836739,0.13659292907727016,,,,,,
16,19,-0.7225164771080018,-0.06556014716625214,9.783183097839357,0.010343282483518125,-0.0013969399733468892,0.0038143075071275234,-0.4302824437618256,0.6343036890029907,-0.8868074417114258,0.07116525849267362,4.318040269836739,0.13659292907727016,,,,,,
16,20,-0.7073179483413696,-0.05628448724746704,9.789602279663086,0.012110907584428787,-0.0020850517321377997,0.001381810288876295,-0.43032801151275635,0.6333732008934022,-0.8893532156944276,0.07627008592111267,4.316831586200982,0.13680993425594126,,,,,,
17,0,-0.7579509019851685,-0.04906213656067849,9.787975311279297,0.006539418827742339,-0.0022116457112133503,0.0034142003860324626,-0.43263533711433416,0.6318758726119995,-0.8863455057144165,0.02189958677922604,4.335765555812516,0.11733571799811529,,,,,,
17,1,-0.7579509019851685,-0.04906213656067849,9.787975311279297,0.006539418827742339,-0.0022116457112133503,0.0034142003860324626,-0.43263533711433416,0.6318758726119995,-0.8863455057144165,0.02189958677922604,4.335765555812516,0.11733571799811529,,,,,,
17,2,-0.7579509019851685,-0.04906213656067849,9.787975311279297,0.006539418827742339,-0.0022116457112133503,0.0034142003860324626,-0.43263533711433416,0.6318758726119995,-0.8863455057144165,0.02189958677922604,4.335765555812516,0.11733571799811529,,,,,,
17,3,-0.7579509019851685,-0.04906213656067849,9.787975311279297,0.006539418827742339,-0.0022116457112133503,0.0034142003860324626,-0.43263533711433416,0.6318758726119995,-0.8863455057144165,0.02189958677922604,4.335765555812516,0.11733571799811529,,,,,,
17,4,-0.7579509019851685,-0.04906213656067849,9.787975311279297,0.006539418827742339,-0.0022116457112133503,0.0034142003860324626,-0.43263533711433416,0.6318758726119995,-0.8863455057144165,0.02189958677922604,4.335765555812516,0.11733571799811529,,,,,,
17,5,-0.771941363811493,-0.05850138887763024,9.786622047424318,0.010940797626972198,-0.0015754305059090259,0.0014916848158463838,-0.432598352432251,0.6318488121032715,-0.8848310708999634,0.026780237556248525,4.334756769124334,0.11774812135131789,,,,,,
17,6,-0.7497154474258423,-0.06394065916538239,9.784058570861818,0.007208056282252074,-0.0024817951489239935,0.0031963069923222065,-0.42835369706153875,0.6347664594650269,-0.8863010406494141,0.032709484785009735,4.331705313335577,0.12083810204227242,,,,,,
17,7,-0.7497154474258423,-0.06394065916538239,9.784058570861818,0.007208056282252074,-0.0024817951489239935,0.0031963069923222065,-0.42835369706153875,0.6347664594650269,-0.8863010406494141,0.032709484785009735,4.331705313335577,0.12083810204227242,,,,,,
17,8,-0.7399352788925171,-0.060711022466421134,9.785717010498047,0.009825461544096472,-0.0009476968552917242,0.003870200598612428,-0.4298022389411926,0.6314091086387635,-0.8888942599296571,0.036941747370196204,4.331123324064159,0.12258484745232148,,,,,,
17,9,-0.7444883584976196,-0.0581868514418602,9.790867805480959,0.008318960666656494,-0.004742272663861514,0.0008377871126867832,-0.4307155907154084,0.6299358010292054,-0.8879126310348511,0.04014712103916855,4.328367940778828,0.12257798643791211,,,,,,
17,10,-0.739686131477356,-0.04937446862459183,9.787844657897951,0.008656418882310392,-0.0020738521125167613,0.0044529130682349205,-0.4311341345310212,0.6327852010726929,-0.883301854133606,0.047294211028280776,4.3269958943109375,0.12694460954373898,,,,,,
17,11,-0.739686131477356,-0.04937446862459183,9.787844657897951,0.008656418882310392,-0.0020738521125167613,0.0044529130682349205,-0.4311341345310212,0.6327852010726929,-0.883301854133606,0.047294211028280776,4.3269958943109375,0.12694460954373898,,,,,,
17,12,-0.752669394016266,-0.04796522855758667,9.783865928649904,0.010693822987377645,-0.00038409046828746796,0.0016313215019181373,-0.43074694275856024,0.6347774267196655,-0.885784685611725,0.05180868392078697,4.3267365859804805,0.1273692800323713,,,,,,
17,13,-0.7502413392066957,-0.060621827840805054,9.791226387023928,0.006899248342961074,-0.005153548903763294,0.004159661475569011,-0.4312864243984223,0.632414698600769,-0.8898751735687256,0.05710639543467482,4.321909063673788,0.13030816035226828,,,,,,
17,14,-0.7502413392066957,-0.060621827840805054,9.791226387023928,0.006899248342961074,-0.005153548903763294,0.004159661475569011,-0.4312864243984223,0.632414698600769,-0.8898751735687256,0.05710639543467482,4.321909063673788,0.13030816035226828,,,,,,
17,15,-0.7323744893074037,-0.06176839396357537,9.783289909362795,0.006540482863783836,-0.002187543548643589,0.001170477247796953,-0.4331662654876709,0.6304705739021302,-0.8894046545028687,0.059141170415976024,4.320654261277707,0.13044378717872102,,,,,,
17,16,-0.7322585582733154,-0.057875096797943115,9.784320831298828,0.00853462889790535,0.001017413684166968,0.002707559149712324,-0.43261539936065674,0.6299337744712831,-0.8868938088417054,0.062353994213345525,4.321229151735972,0.1314548811432656,,,,,,
17,17,-0.748793661594391,-0.05356787145137787,9.783126831054688,0.008289899677038193,-0.0019084141822531822,0.0028721936978399754,-0.43069761991500854,0.6347413659095765,-0.883765459060669,0.06693496365759194,4.318843269347988,0.1349673612324224,,,,,,
17,18,-0.7225164771080018,-0.06556014716625214,9.783183097839357,0.010343282483518125,-0.0013969399733468892,0.0038143075071275234,-0.4302824437618256,0.6343036890029907,-0.8868074417114258,0.07116525849267362,4.318040269836739,0.13659292907727016,,,,,,
17,19,-0.7225164771080018,-0.06556014716625214,9.783183097839357,0.010343282483518125,-0.0013969399733468892,0.0038143075071275234,-0.4302824437618256,0.6343036890029907,-0.8868074417114258,0.07116525849267362,4.318040269836739,0.13659292907727016,,,,,,
17,20,-0.7073179483413696,-0.05628448724746704,9.789602279663086,0.012110907584428787,-0.0020850517321377997,0.001381810288876295,-0.43032801151275635,0.6333732008934022,-0.8893532156944276,0.07627008592111267,4.316831586200982,0.13680993425594126,,,,,,
18,0,-0.7579509019851685,-0.04906213656067849,9.787975311279297,0.006539418827742339,-0.0022116457112133503,0.0034142003860324626,-0.43263533711433416,0.6318758726119995,-0.8863455057144165,0.02189958677922604,4.335765555812516,0.11733571799811529,,,,,,
18,1,-0.7579509019851685,-0.04906213656067849,9.787975311279297,0.006539418827742339,-0.0022116457112133503,0.0034142003860324626,-0.43263533711433416,0.6318758726119995,-0.8863455057144165,0.02189958677922604,4.335765555812516,0.11733571799811529,,,,,,
18,2,-0.7579509019851685,-0.04906213656067849,9.787975311279297,0.006539418827742339,-0.0022116457112133503,0.0034142003860324626,-0.43263533711433416,0.6318758726119995,-0.8863455057144165,0.02189958677922604,4.335765555812516,0.11733571799811529,,,,,,
18,3,-0.7579509019851685,-0.04906213656067849,9.787975311279297,0.006539418827742339,-0.0022116457112133503,0.0034142003860324626,-0.43263533711433416,0.6318758726119995,-0.8863455057144165,0.02189958677922604,4.335765555812516,0.11733571799811529,,,,,,
18,4,-0.7579509019851685,-0.04906213656067849,9.787975311279297,0.006539418827742339,-0.0022116457112133503,0.0034142003860324626,-0.43263533711433416,0.6318758726119995,-0.8863455057144165,0.02189958677922604,4.335765555812516,0.11733571799811529,,,,,,
18,5,-0.771941363811493,-0.05850138887763024,9.786622047424318,0.010940797626972198,-0.0015754305059090259,0.0014916848158463838,-0.432598352432251,0.6318488121032715,-0.8848310708999634,0.026780237556248525,4.334756769124334,0.11774812135131789,,,,,,
18,6,-0.7497154474258423,-0.06394065916538239,9.784058570861818,0.007208056282252074,-0.0024817951489239935,0.0031963069923222065,-0.42835369706153875,0.6347664594650269,-0.8863010406494141,0.032709484785009735,4.331705313335577,0.12083810204227242,,,,,,
18,7,-0.7497154474258423,-0.06394065916538239,9.784058570861818,0.007208056282252074,-0.0024817951489239935,0.0031963069923222065,-0.42835369706153875,0.6347664594650269,-0.8863010406494141,0.032709484785009735,4.331705313335577,0.12083810204227242,,,,,,
18,8,-0.7399352788925171,-0.060711022466421134,9.785717010498047,0.009825461544096472,-0.0009476968552917242,0.003870200598612428,-0.4298022389411926,0.6314091086387635,-0.8888942599296571,0.036941747370196204,4.331123324064159,0.12258484745232148,,,,,,
18,9,-0.7444883584976196,-0.0581868514418602,9.790867805480959,0.008318960666656494,-0.004742272663861514,0.0008377871126867832,-0.4307155907154084,0.6299358010292054,-0.8879126310348511,0.04014712103916855,4.328367940778828,0.12257798643791211,,,,,,
18,10,-0.739686131477356,-0.04937446862459183,9.787844657897951,0.008656418882310392,-0.0020738521125167613,0.0044529130682349205,-0.4311341345310212,0.6327852010726929,-0.883301854133606,0.047294211028280776,4.3269958943109375,0.12694460954373898,,,,,,
18,11,-0.739686131477356,-0.04937446862459183,9.787844657897951,0.008656418882310392,-0.0020738521125167613,0.0044529130682349205,-0.4311341345310212,0.6327852010726929,-0.883301854133606,0.047294211028280776,4.3269958943109375,0.12694460954373898,,,,,,
18,12,-0.752669394016266,-0.04796522855758667,9.783865928649904,0.010693822987377645,-0.00038409046828746796,0.0016313215019181373,-0.43074694275856024,0.6347774267196655,-0.885784685611725,0.05180868392078697,4.3267365859804805,0.1273692800323713,,,,,,
18,13,-0.7502413392066957,-0.060621827840805054,9.791226387023928,0.006899248342961074,-0.005153548903763294,0.004159661475569011,-0.4312864243984223,0.632414698600769,-0.8898751735687256,0.05710639543467482,4.321909063673788,0.13030816035226828,,,,,,
18,14,-0.7502413392066957,-0.060621827840805054,9.791226387023928,0.006899248342961074,-0.005153548903763294,0.004159661475569011,-0.4312864243984223,0.632414698600769,-0.8898751735687256,0.05710639543467482,4.321909063673788,0.13030816035226828,,,,,,
18,15,-0.7323744893074037,-0.06176839396357537,9.783289909362795,0.006540482863783836,-0.002187543548643589,0.001170477247796953,-0.4331662654876709,0.6304705739021302,-0.8894046545028687,0.059141170415976024,4.320654261277707,0.13044378717872102,,,,,,
18,16,-0.7322585582733154,-0.057875096797943115,9.784320831298828,0.00853462889790535,0.001017413684166968,0.002707559149712324,-0.43261539936065674,0.6299337744712831,-0.8868938088417054,0.062353994213345525,4.321229151735972,0.1314548811432656,,,,,,
18,17,-0.748793661594391,-0.05356787145137787,9.783126831054688,0.008289899677038193,-0.0019084141822531822,0.0028721936978399754,-0.43069761991500854,0.6347413659095765,-0.883765459060669,0.06693496365759194,4.318843269347988,0.1349673612324224,,,,,,
18,18,-0.7225164771080018,-0.06556014716625214,9.783183097839357,0.010343282483518125,-0.0013969399733468892,0.0038143075071275234,-0.4302824437618256,0.6343036890029907,-0.8868074417114258,0.07116525849267362,4.318040269836739,0.13659292907727016,,,,,,
18,19,-0.7225164771080018,-0.06556014716625214,9.783183097839357,0.010343282483518125,-0.0013969399733468892,0.0038143075071275234,-0.4302824437618256,0.6343036890029907,-0.8868074417114258,0.07116525849267362,4.318040269836739,0.13659292907727016,,,,,,
18,20,-0.7073179483413696,-0.05628448724746704,9.789602279663086,0.012110907584428787,-0.0020850517321377997,0.001381810288876295,-0.43032801151275635,0.6333732008934022,-0.8893532156944276,0.07627008592111267,4.316831586200982,0.13680993425594126,,,,,,
19,0,-0.7579509019851685,-0.04906213656067849,9.787975311279297,0.006539418827742339,-0.0022116457112133503,0.0034142003860324626,-0.43263533711433416,0.6318758726119995,-0.8863455057144165,0.02189958677922604,4.335765555812516,0.11733571799811529,,,,,,
19,1,-0.7579509019851685,-0.04906213656067849,9.787975311279297,0.006539418827742339,-0.0022116457112133503,0.0034142003860324626,-0.43263533711433416,0.6318758726119995,-0.8863455057144165,0.02189958677922604,4.335765555812516,0.11733571799811529,,,,,,
19,2,-0.7579509019851685,-0.04906213656067849,9.787975311279297,0.006539418827742339,-0.0022116457112133503,0.0034142003860324626,-0.43263533711433416,0.6318758726119995,-0.8863455057144165,0.02189958677922604,4.335765555812516,0.11733571799811529,,,,,,
19,3,-0.7579509019851685,-0.04906213656067849,9.787975311279297,0.006539418827742339,-0.0022116457112133503,0.0034142003860324626,-0.43263533711433416,0.6318758726119995,-0.8863455057144165,0.02189958677922604,4.335765555812516,0.11733571799811529,,,,,,
19,4,-0.7579509019851685,-0.04906213656067849,9.787975311279297,0.006539418827742339,-0.0022116457112133503,0.0034142003860324626,-0.43263533711433416,0.6318758726119995,-0.8863455057144165,0.02189958677922604,4.335765555812516,0.11733571799811529,,,,,,
19,5,-0.771941363811493,-0.05850138887763024,9.786622047424318,0.010940797626972198,-0.0015754305059090259,0.0014916848158463838,-0.432598352432251,0.6318488121032715,-0.8848310708999634,0.026780237556248525,4.334756769124334,0.11774812135131789,,,,,,
19,6,-0.7497154474258423,-0.06394065916538239,9.784058570861818,0.007208056282252074,-0.0024817951489239935,0.0031963069923222065,-0.42835369706153875,0.6347664594650269,-0.8863010406494141,0.032709484785009735,4.331705313335577,0.12083810204227242,,,,,,
19,7,-0.7497154474258423,-0.06394065916538239,9.784058570861818,0.007208056282252074,-0.0024817951489239935,0.0031963069923222065,-0.42835369706153875,0.6347664594650269,-0.8863010406494141,0.032709484785009735,4.331705313335577,0.12083810204227242,,,,,,
19,8,-0.7399352788925171,-0.060711022466421134,9.785717010498047,0.009825461544096472,-0.0009476968552917242,0.003870200598612428,-0.4298022389411926,0.6314091086387635,-0.8888942599296571,0.036941747370196204,4.331123324064159,0.12258484745232148,,,,,,
19,9,-0.7444883584976196,-0.0581868514418602,9.790867805480959,0.008318960666656494,-0.004742272663861514,0.0008377871126867832,-0.4307155907154084,0.6299358010292054,-0.8879126310348511,0.04014712103916855,4.328367940778828,0.12257798643791211,,,,,,
19,10,-0.739686131477356,-0.04937446862459183,9.787844657897951,0.008656418882310392,-0.0020738521125167613,0.0044529130682349205,-0.4311341345310212,0.6327852010726929,-0.883301854133606,0.047294211028280776,4.3269958943109375,0.12694460954373898,,,,,,
19,11,-0.739686131477356,-0.04937446862459183,9.787844657897951,0.008656418882310392,-0.0020738521125167613,0.0044529130682349205,-0.4311341345310212,0.6327852010726929,-0.883301854133606,0.047294211028280776,4.3269958943109375,0.12694460954373898,,,,,,
19,12,-0.752669394016266,-0.04796522855758667,9.783865928649904,0.010693822987377645,-0.00038409046828746796,0.0016313215019181373,-0.43074694275856024,0.6347774267196655,-0.885784685611725,0.05180868392078697,4.3267365859804805,0.1273692800323713,,,,,,
19,13,-0.7502413392066957,-0.060621827840805054,9.791226387023928,0.006899248342961074,-0.005153548903763294,0.004159661475569011,-0.4312864243984223,0.632414698600769,-0.8898751735687256,0.05710639543467482,4.321909063673788,0.13030816035226828,,,,,,
19,14,-0.7502413392066957,-0.060621827840805054,9.791226387023928,0.006899248342961074,-0.005153548903763294,0.004159661475569011,-0.4312864243984223,0.632414698600769,-0.8898751735687256,0.05710639543467482,4.321909063673788,0.13030816035226828,,,,,,
19,15,-0.7323744893074037,-0.06176839396357537,9.783289909362795,0.006540482863783836,-0.002187543548643589,0.001170477247796953,-0.4331662654876709,0.6304705739021302,-0.8894046545028687,0.059141170415976024,4.320654261277707,0.13044378717872102,,,,,,
19,16,-0.7322585582733154,-0.057875096797943115,9.784320831298828,0.00853462889790535,0.001017413684166968,0.002707559149712324,-0.43261539936065674,0.6299337744712831,-0.8868938088417054,0.062353994213345525,4.321229151735972,0.1314548811432656,,,,,,
19,17,-0.748793661594391,-0.05356787145137787,9.783126831054688,0.008289899677038193,-0.0019084141822531822,0.0028721936978399754,-0.43069761991500854,0.6347413659095765,-0.883765459060669,0.06693496365759194,4.318843269347988,0.1349673612324224,,,,,,
19,18,-0.7225164771080018,-0.06556014716625214,9.783183097839357,0.010343282483518125,-0.0013969399733468892,0.0038143075071275234,-0.4302824437618256,0.6343036890029907,-0.8868074417114258,0.07116525849267362,4.318040269836739,0.13659292907727016,,,,,,
19,19,-0.7225164771080018,-0.06556014716625214,9.783183097839357,0.010343282483518125,-0.0013969399733468892,0.0038143075071275234,-0.4302824437618256,0.6343036890029907,-0.8868074417114258,0.07116525849267362,4.318040269836739,0.13659292907727016,,,,,,
19,20,-0.7073179483413696,-0.05628448724746704,9.789602279663086,0.012110907584428787,-0.0020850517321377997,0.001381810288876295,-0.43032801151275635,0.6333732008934022,-0.8893532156944276,0.07627008592111267,4.316831586200982,0.13680993425594126,,,,,,
20,0,-0.7579509019851685,-0.04906213656067849,9.787975311279297,0.006539418827742339,-0.0022116457112133503,0.0034142003860324626,-0.43263533711433416,0.6318758726119995,-0.8863455057144165,0.02189958677922604,4.335765555812516,0.11733571799811529,,,,,,
20,1,-0.7579509019851685,-0.04906213656067849,9.787975311279297,0.006539418827742339,-0.0022116457112133503,0.0034142003860324626,-0.43263533711433416,0.6318758726119995,-0.8863455057144165,0.02189958677922604,4.335765555812516,0.11733571799811529,,,,,,
20,2,-0.7579509019851685,-0.04906213656067849,9.787975311279297,0.006539418827742339,-0.0022116457112133503,0.0034142003860324626,-0.43263533711433416,0.6318758726119995,-0.8863455057144165,0.02189958677922604,4.335765555812516,0.11733571799811529,,,,,,
20,3,-0.7579509019851685,-0.04906213656067849,9.787975311279297,0.006539418827742339,-0.0022116457112133503,0.0034142003860324626,-0.43263533711433416,0.6318758726119995,-0.8863455057144165,0.02189958677922604,4.335765555812516,0.11733571799811529,,,,,,
20,4,-0.7579509019851685,-0.04906213656067849,9.787975311279297,0.006539418827742339,-0.0022116457112133503,0.0034142003860324626,-0.43263533711433416,0.6318758726119995,-0.8863455057144165,0.02189958677922604,4.335765555812516,0.11733571799811529,,,,,,
20,5,-0.771941363811493,-0.05850138887763024,9.786622047424318,0.010940797626972198,-0.0015754305059090259,0.0014916848158463838,-0.432598352432251,0.6318488121032715,-0.8848310708999634,0.026780237556248525,4.334756769124334,0.11774812135131789,,,,,,
20,6,-0.7497154474258423,-0.06394065916538239,9.784058570861818,0.007208056282252074,-0.0024817951489239935,0.0031963069923222065,-0.42835369706153875,0.6347664594650269,-0.8863010406494141,0.032709484785009735,4.331705313335577,0.12083810204227242,,,,,,
20,7,-0.7497154474258423,-0.06394065916538239,9.784058570861818,0.007208056282252074,-0.0024817951489239935,0.0031963069923222065,-0.42835369706153875,0.6347664594650269,-0.8863010406494141,0.032709484785009735,4.331705313335577,0.12083810204227242,,,,,,
20,8,-0.7399352788925171,-0.060711022466421134,9.785717010498047,0.009825461544096472,-0.0009476968552917242,0.003870200598612428,-0.4298022389411926,0.6314091086387635,-0.8888942599296571,0.036941747370196204,4.331123324064159,0.12258484745232148,,,,,,
20,9,-0.7444883584976196,-0.0581868514418602,9.790867805480959,0.008318960666656494,-0.004742272663861514,0.0008377871126867832,-0.4307155907154084,0.6299358010292054,-0.8879126310348511,0.04014712103916855,4.328367940778828,0.12257798643791211,,,,,,
20,10,-0.739686131477356,-0.04937446862459183,9.787844657897951,0.008656418882310392,-0.0020738521125167613,0.0044529130682349205,-0.4311341345310212,0.6327852010726929,-0.883301854133606,0.047294211028280776,4.3269958943109375,0.12694460954373898,,,,,,
20,11,-0.739686131477356,-0.04937446862459183,9.787844657897951,0.008656418882310392,-0.0020738521125167613,0.0044529130682349205,-0.4311341345310212,0.6327852010726929,-0.883301854133606,0.047294211028280776,4.3269958943109375,0.12694460954373898,,,,,,
20,12,-0.752669394016266,-0.04796522855758667,9.783865928649904,0.010693822987377645,-0.00038409046828746796,0.0016313215019181373,-0.43074694275856024,0.6347774267196655,-0.885784685611725,0.05180868392078697,4.3267365859804805,0.1273692800323713,,,,,,
20,13,-0.7502413392066957,-0.060621827840805054,9.791226387023928,0.006899248342961074,-0.005153548903763294,0.004159661475569011,-0.4312864243984223,0.632414698600769,-0.8898751735687256,0.05710639543467482,4.321909063673788,0.13030816035226828,,,,,,
20,14,-0.7502413392066957,-0.060621827840805054,9.791226387023928,0.006899248342961074,-0.005153548903763294,0.004159661475569011,-0.4312864243984223,0.632414698600769,-0.8898751735687256,0.05710639543467482,4.321909063673788,0.13030816035226828,,,,,,
20,15,-0.7323744893074037,-0.06176839396357537,9.783289909362795,0.006540482863783836,-0.002187543548643589,0.001170477247796953,-0.4331662654876709,0.6304705739021302,-0.8894046545028687,0.059141170415976024,4.320654261277707,0.13044378717872102,,,,,,
20,16,-0.7322585582733154,-0.057875096797943115,9.784320831298828,0.00853462889790535,0.001017413684166968,0.002707559149712324,-0.43261539936065674,0.6299337744712831,-0.8868938088417054,0.062353994213345525,4.321229151735972,0.1314548811432656,,,,,,
20,17,-0.748793661594391,-0.05356787145137787,9.783126831054688,0.008289899677038193,-0.0019084141822531822,0.0028721936978399754,-0.43069761991500854,0.6347413659095765,-0.883765459060669,0.06693496365759194,4.318843269347988,0.1349673612324224,,,,,,
20,18,-0.7225164771080018,-0.06556014716625214,9.783183097839357,0.010343282483518125,-0.0013969399733468892,0.0038143075071275234,-0.4302824437618256,0.6343036890029907,-0.8868074417114258,0.07116525849267362,4.318040269836739,0.13659292907727016,,,,,,
20,19,-0.7225164771080018,-0.06556014716625214,9.783183097839357,0.010343282483518125,-0.0013969399733468892,0.0038143075071275234,-0.4302824437618256,0.6343036890029907,-0.8868074417114258,0.07116525849267362,4.318040269836739,0.13659292907727016,,,,,,
20,20,-0.7073179483413696,-0.05628448724746704,9.789602279663086,0.012110907584428787,-0.0020850517321377997,0.001381810288876295,-0.43032801151275635,0.6333732008934022,-0.8893532156944276,0.07627008592111267,4.316831586200982,0.13680993425594126,,,,,,
21,0,-0.7659204602241517,-0.07077647745609283,9.784452438354492,0.010372331365942955,-0.0036302583757787947,0.0048320842906832695,-0.4326846897602082,0.6319119334220887,-0.8883647322654725,0.08329364868459349,4.31471017310509,0.1395947583201572,,,,,,
21,1,-0.7659204602241517,-0.07077647745609283,9.784452438354492,0.010372331365942955,-0.0036302583757787947,0.0048320842906832695,-0.4326846897602082,0.6319119334220887,-0.8883647322654725,0.08329364868459349,4.31471017310509,0.1395947583201572,,,,,,
21,2,-0.7583361864089966,-0.053022533655166626,9.789299011230469,0.010011716745793821,-0.0012304717674851418,0.0023320417385548358,-0.42977237701416016,0.6347603797912598,-0.885284423828125,0.08976011745858362,4.3126912926309675,0.14062692798716042,,,,,,
21,3,-0.7583361864089966,-0.053022533655166626,9.789299011230469,0.010011716745793821,-0.0012304717674851418,0.0023320417385548358,-0.42977237701416016,0.6347603797912598,-0.885284423828125,0.08976011745858362,4.3126912926309675,0.14062692798716042,,,,,,
21,4,-0.7489889860153198,-0.05782371014356613,9.783777236938477,0.0068314699456095695,-0.0028904431965202097,0.0038813308347016577,-0.4298383295536042,0.6343267560005189,-0.8883242011070253,0.09181817057799257,4.311042613306021,0.1422404159258797,,,,,,
21,5,-0.7343364953994751,-0.0669219270348549,9.789019584655763,0.008767855353653433,-0.0023949497845023875,0.0007547297282144427,-0.4326685667037964,0.6309363842010498,-0.8883864879608154,0.09656617471768758,4.309780160414695,0.14175897420200204,,,,,,
21,6,-0.7343364953994751,-0.0669219270348549,9.789019584655763,0.008767855353653433,-0.0023949497845023875,0.0007547297282144427,-0.4326685667037964,0.6309363842010498,-0.8883864879608154,0.09656617471768758,4.309780160414695,0.14175897420200204,,,,,,
21,7,-0.7262791395187378,-0.06688419729471208,9.779131889343263,0.006095299497246742,-0.002601030515506864,0.0026561501435935497,-0.4345479309558869,0.6304374933242798,-0.886873722076416,0.09807763175598454,4.30829317616854,0.1426468006130222,,,,,,
22,0,-0.7659204602241517,-0.07077647745609283,9.784452438354492,0.010372331365942955,-0.0036302583757787947,0.0048320842906832695,-0.4326846897602082,0.6319119334220887,-0.8883647322654725,0.08329364868459349,4.31471017310509,0.1395947583201572,,,,,,
22,1,-0.7659204602241517,-0.07077647745609283,9.784452438354492,0.010372331365942955,-0.0036302583757787947,0.0048320842906832695,-0.4326846897602082,0.6319119334220887,-0.8883647322654725,0.08329364868459349,4.31471017310509,0.1395947583201572,,,,,,
22,2,-0.7583361864089966,-0.053022533655166626,9.789299011230469,0.010011716745793821,-0.0012304717674851418,0.0023320417385548358,-0.42977237701416016,0.6347603797912598,-0.885284423828125,0.08976011745858362,4.3126912926309675,0.14062692798716042,,,,,,
22,3,-0.7583361864089966,-0.053022533655166626,9.789299011230469,0.010011716745793821,-0.0012304717674851418,0.0023320417385548358,-0.42977237701416016,0.6347603797912598,-0.885284423828125,0.08976011745858362,4.3126912926309675,0.14062692798716042,,,,,,
22,4,-0.7489889860153198,-0.05782371014356613,9.783777236938477,0.0068314699456095695,-0.0028904431965202097,0.0038813308347016577,-0.4298383295536042,0.6343267560005189,-0.8883242011070253,0.09181817057799257,4.311042613306021,0.1422404159258797,,,,,,
22,5,-0.7343364953994751,-0.0669219270348549,9.789019584655763,0.008767855353653433,-0.0023949497845023875,0.0007547297282144427,-0.4326685667037964,0.6309363842010498,-0.8883864879608154,0.09656617471768758,4.309780160414695,0.14175897420200204,,,,,,
22,6,-0.7343364953994751,-0.0669219270348549,9.789019584655763,0.008767855353653433,-0.0023949497845023875,0.0007547297282144427,-0.4326685667037964,0.6309363842010498,-0.8883864879608154,0.09656617471768758,4.309780160414695,0.14175897420200204,,,,,,
22,7,-0.7262791395187378,-0.06688419729471208,9.779131889343263,0.006095299497246742,-0.002601030515506864,0.0026561501435935497,-0.4345479309558869,0.6304374933242798,-0.886873722076416,0.09807763175598454,4.30829317616854,0.1426468006130222,,,,,,
23,0,-0.7659204602241517,-0.07077647745609283,9.784452438354492,0.010372331365942955,-0.0036302583757787947,0.0048320842906832695,-0.4326846897602082,0.6319119334220887,-0.8883647322654725,0.08329364868459349,4.31471017310509,0.1395947583201572,,,,,,
23,1,-0.7659204602241517,-0.07077647745609283,9.784452438354492,0.010372331365942955,-0.0036302583757787947,0.0048320842906832695,-0.4326846897602082,0.6319119334220887,-0.8883647322654725,0.08329364868459349,4.31471017310509,0.1395947583201572,,,,,,
23,2,-0.7583361864089966,-0.053022533655166626,9.789299011230469,0.010011716745793821,-0.0012304717674851418,0.0023320417385548358,-0.42977237701416016,0.6347603797912598,-0.885284423828125,0.08976011745858362,4.3126912926309675,0.14062692798716042,,,,,,
23,3,-0.7583361864089966,-0.053022533655166626,9.789299011230469,0.010011716745793821,-0.0012304717674851418,0.0023320417385548358,-0.42977237701416016,0.6347603797912598,-0.885284423828125,0.08976011745858362,4.3126912926309675,0.14062692798716042,,,,,,
23,4,-0.7489889860153198,-0.05782371014356613,9.783777236938477,0.0068314699456095695,-0.0028904431965202097,0.0038813308347016577,-0.4298383295536042,0.6343267560005189,-0.8883242011070253,0.09181817057799257,4.311042613306021,0.1422404159258797,,,,,,
23,5,-0.7343364953994751,-0.0669219270348549,9.789019584655763,0.008767855353653433,-0.0023949497845023875,0.0007547297282144427,-0.4326685667037964,0.6309363842010498,-0.8883864879608154,0.09656617471768758,4.309780160414695,0.14175897420200204,,,,,,
23,6,-0.7343364953994751,-0.0669219270348549,9.789019584655763,0.008767855353653433,-0.0023949497845023875,0.0007547297282144427,-0.4326685667037964,0.6309363842010498,-0.8883864879608154,0.09656617471768758,4.309780160414695,0.14175897420200204,,,,,,
23,7,-0.7262791395187378,-0.06688419729471208,9.779131889343263,0.006095299497246742,-0.002601030515506864,0.0026561501435935497,-0.4345479309558869,0.6304374933242798,-0.886873722076416,0.09807763175598454,4.30829317616854,0.1426468006130222,,,,,,
24,0,-0.7659204602241517,-0.07077647745609283,9.784452438354492,0.010372331365942955,-0.0036302583757787947,0.0048320842906832695,-0.4326846897602082,0.6319119334220887,-0.8883647322654725,0.08329364868459349,4.31471017310509,0.1395947583201572,,,,,,
24,1,-0.7659204602241517,-0.07077647745609283,9.784452438354492,0.010372331365942955,-0.0036302583757787947,0.0048320842906832695,-0.4326846897602082,0.6319119334220887,-0.8883647322654725,0.08329364868459349,4.31471017310509,0.1395947583201572,,,,,,
24,2,-0.7583361864089966,-0.053022533655166626,9.789299011230469,0.010011716745793821,-0.0012304717674851418,0.0023320417385548358,-0.42977237701416016,0.6347603797912598,-0.885284423828125,0.08976011745858362,4.3126912926309675,0.14062692798716042,,,,,,
24,3,-0.7583361864089966,-0.053022533655166626,9.789299011230469,0.010011716745793821,-0.0012304717674851418,0.0023320417385548358,-0.42977237701416016,0.6347603797912598,-0.885284423828125,0.08976011745858362,4.3126912926309675,0.14062692798716042,,,,,,
24,4,-0.7489889860153198,-0.05782371014356613,9.783777236938477,0.0068314699456095695,-0.0028904431965202097,0.0038813308347016577,-0.4298383295536042,0.6343267560005189,-0.8883242011070253,0.09181817057799257,4.311042613306021,0.1422404159258797,,,,,,
24,5,-0.7343364953994751,-0.0669219270348549,9.789019584655763,0.008767855353653433,-0.0023949497845023875,0.0007547297282144427,-0.4326685667037964,0.6309363842010498,-0.8883864879608154,0.09656617471768758,4.309780160414695,0.14175897420200204,,,,,,
24,6,-0.7343364953994751,-0.0669219270348549,9.789019584655763,0.008767855353653433,-0.0023949497845023875,0.0007547297282144427,-0.4326685667037964,0.6309363842010498,-0.8883864879608154,0.09656617471768758,4.309780160414695,0.14175897420200204,,,,,,
24,7,-0.7262791395187378,-0.06688419729471208,9.779131889343263,0.006095299497246742,-0.002601030515506864,0.0026561501435935497,-0.4345479309558869,0.6304374933242798,-0.886873722076416,0.09807763175598454,4.30829317616854,0.1426468006130222,,,,,,
25,0,-0.7659204602241517,-0.07077647745609283,9.784452438354492,0.010372331365942955,-0.0036302583757787947,0.0048320842906832695,-0.4326846897602082,0.6319119334220887,-0.8883647322654725,0.08329364868459349,4.31471017310509,0.1395947583201572,,,,,,
25,1,-0.7659204602241517,-0.07077647745609283,9.784452438354492,0.010372331365942955,-0.0036302583757787947,0.0048320842906832695,-0.4326846897602082,0.6319119334220887,-0.8883647322654725,0.08329364868459349,4.31471017310509,0.1395947583201572,,,,,,
25,2,-0.7583361864089966,-0.053022533655166626,9.789299011230469,0.010011716745793821,-0.0012304717674851418,0.0023320417385548358,-0.42977237701416016,0.6347603797912598,-0.885284423828125,0.08976011745858362,4.3126912926309675,0.14062692798716042,,,,,,
25,3,-0.7583361864089966,-0.053022533655166626,9.789299011230469,0.010011716745793821,-0.0012304717674851418,0.0023320417385548358,-0.42977237701416016,0.6347603797912598,-0.885284423828125,0.08976011745858362,4.3126912926309675,0.14062692798716042,,,,,,
25,4,-0.7489889860153198,-0.05782371014356613,9.783777236938477,0.0068314699456095695,-0.0028904431965202097,0.0038813308347016577,-0.4298383295536042,0.6343267560005189,-0.8883242011070253,0.09181817057799257,4.311042613306021,0.1422404159258797,,,,,,
25,5,-0.7343364953994751,-0.0669219270348549,9.789019584655763,0.008767855353653433,-0.0023949497845023875,0.0007547297282144427,-0.4326685667037964,0.6309363842010498,-0.8883864879608154,0.09656617471768758,4.309780160414695,0.14175897420200204,,,,,,
25,6,-0.7343364953994751,-0.0669219270348549,9.789019584655763,0.008767855353653433,-0.0023949497845023875,0.0007547297282144427,-0.4326685667037964,0.6309363842010498,-0.8883864879608154,0.09656617471768758,4.309780160414695,0.14175897420200204,,,,,,
25,7,-0.7262791395187378,-0.06688419729471208,9.779131889343263,0.006095299497246742,-0.002601030515506864,0.0026561501435935497,-0.4345479309558869,0.6304374933242798,-0.886873722076416,0.09807763175598454,4.30829317616854,0.1426468006130222,,,,,,
26,0,-0.7659204602241517,-0.07077647745609283,9.784452438354492,0.010372331365942955,-0.0036302583757787947,0.0048320842906832695,-0.4326846897602082,0.6319119334220887,-0.8883647322654725,0.08329364868459349,4.31471017310509,0.1395947583201572,,,,,,
26,1,-0.7659204602241517,-0.07077647745609283,9.784452438354492,0.010372331365942955,-0.0036302583757787947,0.0048320842906832695,-0.4326846897602082,0.6319119334220887,-0.8883647322654725,0.08329364868459349,4.31471017310509,0.1395947583201572,,,,,,
26,2,-0.7583361864089966,-0.053022533655166626,9.789299011230469,0.010011716745793821,-0.0012304717674851418,0.0023320417385548358,-0.42977237701416016,0.6347603797912598,-0.885284423828125,0.08976011745858362,4.3126912926309675,0.14062692798716042,,,,,,
26,3,-0.7583361864089966,-0.053022533655166626,9.789299011230469,0.010011716745793821,-0.0012304717674851418,0.0023320417385548358,-0.42977237701416016,0.6347603797912598,-0.885284423828125,0.08976011745858362,4.3126912926309675,0.14062692798716042,,,,,,
26,4,-0.7489889860153198,-0.05782371014356613,9.783777236938477,0.0068314699456095695,-0.0028904431965202097,0.0038813308347016577,-0.4298383295536042,0.6343267560005189,-0.8883242011070253,0.09181817057799257,4.311042613306021,0.1422404159258797,,,,,,
26,5,-0.7343364953994751,-0.0669219270348549,9.789019584655763,0.008767855353653433,-0.0023949497845023875,0.0007547297282144427,-0.4326685667037964,0.6309363842010498,-0.8883864879608154,0.09656617471768758,4.309780160414695,0.14175897420200204,,,,,,
26,6,-0.7343364953994751,-0.0669219270348549,9.789019584655763,0.008767855353653433,-0.0023949497845023875,0.0007547297282144427,-0.4326685667037964,0.6309363842010498,-0.8883864879608154,0.09656617471768758,4.309780160414695,0.14175897420200204,,,,,,
26,7,-0.7262791395187378,-0.06688419729471208,9.779131889343263,0.006095299497246742,-0.002601030515506864,0.0026561501435935497,-0.4345479309558869,0.6304374933242798,-0.886873722076416,0.09807763175598454,4.30829317616854,0.1426468006130222,,,,,,
27,0,-0.7659204602241517,-0.07077647745609283,9.784452438354492,0.010372331365942955,-0.0036302583757787947,0.0048320842906832695,-0.4326846897602082,0.6319119334220887,-0.8883647322654725,0.08329364868459349,4.31471017310509,0.1395947583201572,,,,,,
27,1,-0.7659204602241517,-0.07077647745609283,9.784452438354492,0.010372331365942955,-0.0036302583757787947,0.0048320842906832695,-0.4326846897602082,0.6319119334220887,-0.8883647322654725,0.08329364868459349,4.31471017310509,0.1395947583201572,,,,,,
27,2,-0.7583361864089966,-0.053022533655166626,9.789299011230469,0.010011716745793821,-0.0012304717674851418,0.0023320417385548358,-0.42977237701416016,0.6347603797912598,-0.885284423828125,0.08976011745858362,4.3126912926309675,0.14062692798716042,,,,,,
27,3,-0.7583361864089966,-0.053022533655166626,9.789299011230469,0.010011716745793821,-0.0012304717674851418,0.0023320417385548358,-0.42977237701416016,0.6347603797912598,-0.885284423828125,0.08976011745858362,4.3126912926309675,0.14062692798716042,,,,,,
27,4,-0.7489889860153198,-0.05782371014356613,9.783777236938477,0.0068314699456095695,-0.0028904431965202097,0.0038813308347016577,-0.4298383295536042,0.6343267560005189,-0.8883242011070253,0.09181817057799257,4.311042613306021,0.1422404159258797,,,,,,
27,5,-0.7343364953994751,-0.0669219270348549,9.789019584655763,0.008767855353653433,-0.0023949497845023875,0.0007547297282144427,-0.4326685667037964,0.6309363842010498,-0.8883864879608154,0.09656617471768758,4.309780160414695,0.14175897420200204,,,,,,
