frame_id,subframe_id,acc_x,acc_y,acc_z,gyro_x,gyro_y,gyro_z,mag_x,mag_y,mag_z,roll,pitch,yaw
1,0,-0.77041894197464,-0.012456116266548635,9.775358200073242,0.011423968710005285,-0.0016040983609855175,0.002587615977972746,-0.40041375160217285,0.6663674116134644,-0.7826951742172241,0.11299022630730288,4.5940595375094375,0.1668647572984934,,,,,,
1,1,-0.77041894197464,-0.012456116266548635,9.775358200073242,0.011423968710005285,-0.0016040983609855175,0.002587615977972746,-0.40041375160217285,0.6663674116134644,-0.7826951742172241,0.11299022630730288,4.5940595375094375,0.1668647572984934,,,,,,
1,2,-0.77041894197464,-0.012456116266548635,9.775358200073242,0.011423968710005285,-0.0016040983609855175,0.002587615977972746,-0.40041375160217285,0.6663674116134644,-0.7826951742172241,0.11299022630730288,4.5940595375094375,0.1668647572984934,,,,,,
1,3,-0.77041894197464,-0.012456116266548635,9.775358200073242,0.011423968710005285,-0.0016040983609855175,0.002587615977972746,-0.40041375160217285,0.6663674116134644,-0.7826951742172241,0.11299022630730288,4.5940595375094375,0.1668647572984934,,,,,,
1,4,-0.77041894197464,-0.012456116266548635,9.775358200073242,0.011423968710005285,-0.0016040983609855175,0.002587615977972746,-0.40041375160217285,0.6663674116134644,-0.7826951742172241,0.11299022630730288,4.5940595375094375,0.1668647572984934,,,,,,
1,5,-0.7816545963287354,-0.02545699290931225,9.775653839111328,0.006939100567251445,0.0013239500112831593,0.0011552161304280164,-0.40269640088081365,0.6648519635200502,-0.7786778807640077,0.11588998721929565,4.594056718298378,0.16714645594246422,,,,,,
1,6,-0.8178262114524842,-0.02887556329369545,9.783352851867678,0.008766354061663153,-0.0023297972511500124,0.00015014037489891052,-0.40116244554519653,0.6652556061744691,-0.7746354937553407,0.11976914894622259,4.591970703881731,0.16683952250595288,,,,,,
1,7,-0.8337205052375795,-0.04945893213152886,9.77547359466553,0.008855761960148811,-0.0009563175844959916,0.0019393539987504482,-0.39833649992942816,0.668167233467102,-0.7750888466835023,0.12375774380429619,4.59070949890802,0.16755548075823032,,,,,,
1,8,-0.8251327276229858,-0.051032368093729026,9.774384498596193,0.009931245818734169,-0.001950562349520624,-0.00036960668512620037,-0.3979451060295105,0.670638144016266,-0.7770559787750244,0.1282140910596196,4.588935149349942,0.16693028047260228,,,,,,
1,9,-0.826543927192688,-0.039847824722528465,9.779927253723146,0.0075217122212052345,-0.0034552437718957667,0.0027850395999848843,-0.39996823668479925,0.6707262992858887,-0.7810852527618408,0.13139160210863118,4.586340094832906,0.1681031593734316,,,,,,
1,10,-0.8267448544502259,-0.02812044322490692,9.769503593444826,0.006574024911969901,-0.0015832603676244619,0.0024929470382630825,-0.4013308882713318,0.6658605337142944,-0.7811870574951172,0.1339794846061281,4.584864079957291,0.16910063267292705,,,,,,
1,11,-0.8082641363143921,-0.023225482553243637,9.772823333740234,0.008600201457738876,-0.005209458526223899,0.002524980343878269,-0.40266367793083196,0.6643460988998413,-0.7776791453361512,0.1377069545185348,4.581357126580187,0.1701051878748974,,,,,,
1,12,-0.8028033375740052,-0.02421754412353039,9.788385391235352,0.00903755333274603,-0.00309160677716136,0.0027500316500663757,-0.40116626024246216,0.666222095489502,-0.7741089463233949,0.14167743856379408,4.579095212566412,0.1712365874436124,,,,,,
1,13,-0.7925595045089722,-0.03711026906967163,9.773612022399904,0.007484479807317257,-0.0033803705591708426,0.007345505058765411,-0.39832842350006104,0.6676794290542603,-0.7750997543334961,0.14494935147476076,4.576684728729601,0.1750031686098316,,,,,,
1,14,-0.7873859405517578,-0.04782912880182266,9.788753509521484,0.007511673495173454,-0.001939378562383354,0.0005133680533617735,-0.3999321460723877,0.6678086519241333,-0.7816553115844727,0.15096317461655023,4.572838205896711,0.1762228232098233,,,,,,
1,15,-0.7873859405517578,-0.04782912880182266,9.788753509521484,0.007511673495173454,-0.001939378562383354,0.0005133680533617735,-0.3999321460723877,0.6678086519241333,-0.7816553115844727,0.15096317461655023,4.572838205896711,0.1762228232098233,,,,,,
1,16,-0.7768506407737733,-0.04380544275045395,9.781249046325685,0.009639179334044456,-0.003127399599179626,0.003969305660575629,-0.40131473541259766,0.6648850440979004,-0.7812088131904603,0.1552117015776332,4.5706127474181635,0.178016147033048,,,,,,
1,17,-0.7851152420043945,-0.038747932761907584,9.780330657958984,0.009367631748318672,-0.0012818281538784504,0.003106121206656099,-0.4016146361827851,0.665720283985138,-0.7731078863143921,0.16261718117599963,4.567200290089806,0.18236003546442597,,,,,,
1,18,-0.7851152420043945,-0.038747932761907584,9.780330657958984,0.009367631748318672,-0.0012818281538784504,0.003106121206656099,-0.4016146361827851,0.665720283985138,-0.7731078863143921,0.16261718117599963,4.567200290089806,0.18236003546442597,,,,,,
1,19,-0.7994515895843506,-0.03210175782442093,9.775729179382326,0.00699013564735651,-0.0023700234014540915,0.003037232905626297,-0.4007829129695893,0.6691807508468628,-0.7760652303695679,0.165208011490401,4.565430887287833,0.183587401269156,,,,,,
1,20,-0.8288414478302002,-0.050500400364398956,9.775774955749513,0.0075209815986454496,-0.0034936252050101757,0.004742647055536509,-0.40040901303291326,0.668291449546814,-0.7811372876167298,0.1718968875442552,4.560449505916351,0.18792891279546559,,,,,,
2,0,-0.77041894197464,-0.012456116266548635,9.775358200073242,0.011423968710005285,-0.0016040983609855175,0.002587615977972746,-0.40041375160217285,0.6663674116134644,-0.7826951742172241,0.11299022630730288,4.5940595375094375,0.1668647572984934,,,,,,
2,1,-0.77041894197464,-0.012456116266548635,9.775358200073242,0.011423968710005285,-0.0016040983609855175,0.002587615977972746,-0.40041375160217285,0.6663674116134644,-0.7826951742172241,0.11299022630730288,4.5940595375094375,0.1668647572984934,,,,,,
2,2,-0.77041894197464,-0.012456116266548635,9.775358200073242,0.011423968710005285,-0.0016040983609855175,0.002587615977972746,-0.40041375160217285,0.6663674116134644,-0.7826951742172241,0.11299022630730288,4.5940595375094375,0.1668647572984934,,,,,,
2,3,-0.77041894197464,-0.012456116266548635,9.775358200073242,0.011423968710005285,-0.0016040983609855175,0.002587615977972746,-0.40041375160217285,0.6663674116134644,-0.7826951742172241,0.11299022630730288,4.5940595375094375,0.1668647572984934,,,,,,
2,4,-0.77041894197464,-0.012456116266548635,9.775358200073242,0.011423968710005285,-0.0016040983609855175,0.002587615977972746,-0.40041375160217285,0.6663674116134644,-0.7826951742172241,0.11299022630730288,4.5940595375094375,0.1668647572984934,,,,,,
2,5,-0.7816545963287354,-0.02545699290931225,9.775653839111328,0.006939100567251445,0.0013239500112831593,0.0011552161304280164,-0.40269640088081365,0.6648519635200502,-0.7786778807640077,0.11588998721929565,4.594056718298378,0.16714645594246422,,,,,,
2,6,-0.8178262114524842,-0.02887556329369545,9.783352851867678,0.008766354061663153,-0.0023297972511500124,0.00015014037489891052,-0.40116244554519653,0.6652556061744691,-0.7746354937553407,0.11976914894622259,4.591970703881731,0.16683952250595288,,,,,,
2,7,-0.8337205052375795,-0.04945893213152886,9.77547359466553,0.008855761960148811,-0.0009563175844959916,0.0019393539987504482,-0.39833649992942816,0.668167233467102,-0.7750888466835023,0.12375774380429619,4.59070949890802,0.16755548075823032,,,,,,
2,8,-0.8251327276229858,-0.051032368093729026,9.774384498596193,0.009931245818734169,-0.001950562349520624,-0.00036960668512620037,-0.3979451060295105,0.670638144016266,-0.7770559787750244,0.1282140910596196,4.588935149349942,0.16693028047260228,,,,,,
2,9,-0.826543927192688,-0.039847824722528465,9.779927253723146,0.0075217122212052345,-0.0034552437718957667,0.0027850395999848843,-0.39996823668479925,0.6707262992858887,-0.7810852527618408,0.13139160210863118,4.586340094832906,0.1681031593734316,,,,,,
2,10,-0.8267448544502259,-0.02812044322490692,9.769503593444826,0.006574024911969901,-0.0015832603676244619,0.0024929470382630825,-0.4013308882713318,0.6658605337142944,-0.7811870574951172,0.1339794846061281,4.584864079957291,0.16910063267292705,,,,,,
2,11,-0.8082641363143921,-0.023225482553243637,9.772823333740234,0.008600201457738876,-0.005209458526223899,0.002524980343878269,-0.40266367793083196,0.6643460988998413,-0.7776791453361512,0.1377069545185348,4.581357126580187,0.1701051878748974,,,,,,
2,12,-0.8028033375740052,-0.02421754412353039,9.788385391235352,0.00903755333274603,-0.00309160677716136,0.0027500316500663757,-0.40116626024246216,0.666222095489502,-0.7741089463233949,0.14167743856379408,4.579095212566412,0.1712365874436124,,,,,,
2,13,-0.7925595045089722,-0.03711026906967163,9.773612022399904,0.007484479807317257,-0.0033803705591708426,0.007345505058765411,-0.39832842350006104,0.6676794290542603,-0.7750997543334961,0.14494935147476076,4.576684728729601,0.1750031686098316,,,,,,
2,14,-0.7873859405517578,-0.04782912880182266,9.788753509521484,0.007511673495173454,-0.001939378562383354,0.0005133680533617735,-0.3999321460723877,0.6678086519241333,-0.7816553115844727,0.15096317461655023,4.572838205896711,0.1762228232098233,,,,,,
2,15,-0.7873859405517578,-0.04782912880182266,9.788753509521484,0.007511673495173454,-0.001939378562383354,0.0005133680533617735,-0.3999321460723877,0.6678086519241333,-0.7816553115844727,0.15096317461655023,4.572838205896711,0.1762228232098233,,,,,,
2,16,-0.7768506407737733,-0.04380544275045395,9.781249046325685,0.009639179334044456,-0.003127399599179626,0.003969305660575629,-0.40131473541259766,0.6648850440979004,-0.7812088131904603,0.1552117015776332,4.5706127474181635,0.178016147033048,,,,,,
2,17,-0.7851152420043945,-0.038747932761907584,9.780330657958984,0.009367631748318672,-0.0012818281538784504,0.003106121206656099,-0.4016146361827851,0.665720283985138,-0.7731078863143921,0.16261718117599963,4.567200290089806,0.18236003546442597,,,,,,
2,18,-0.7851152420043945,-0.038747932761907584,9.780330657958984,0.009367631748318672,-0.0012818281538784504,0.003106121206656099,-0.4016146361827851,0.665720283985138,-0.7731078863143921,0.16261718117599963,4.567200290089806,0.18236003546442597,,,,,,
2,19,-0.7994515895843506,-0.03210175782442093,9.775729179382326,0.00699013564735651,-0.0023700234014540915,0.003037232905626297,-0.4007829129695893,0.6691807508468628,-0.7760652303695679,0.165208011490401,4.565430887287833,0.183587401269156,,,,,,
2,20,-0.8288414478302002,-0.050500400364398956,9.775774955749513,0.0075209815986454496,-0.0034936252050101757,0.004742647055536509,-0.40040901303291326,0.668291449546814,-0.7811372876167298,0.1718968875442552,4.560449505916351,0.18792891279546559,,,,,,
3,0,-0.77041894197464,-0.012456116266548635,9.775358200073242,0.011423968710005285,-0.0016040983609855175,0.002587615977972746,-0.40041375160217285,0.6663674116134644,-0.7826951742172241,0.11299022630730288,4.5940595375094375,0.1668647572984934,,,,,,
3,1,-0.77041894197464,-0.012456116266548635,9.775358200073242,0.011423968710005285,-0.0016040983609855175,0.002587615977972746,-0.40041375160217285,0.6663674116134644,-0.7826951742172241,0.11299022630730288,4.5940595375094375,0.1668647572984934,,,,,,
3,2,-0.77041894197464,-0.012456116266548635,9.775358200073242,0.011423968710005285,-0.0016040983609855175,0.002587615977972746,-0.40041375160217285,0.6663674116134644,-0.7826951742172241,0.11299022630730288,4.5940595375094375,0.1668647572984934,,,,,,
3,3,-0.77041894197464,-0.012456116266548635,9.775358200073242,0.011423968710005285,-0.0016040983609855175,0.002587615977972746,-0.40041375160217285,0.6663674116134644,-0.7826951742172241,0.11299022630730288,4.5940595375094375,0.1668647572984934,,,,,,
3,4,-0.77041894197464,-0.012456116266548635,9.775358200073242,0.011423968710005285,-0.0016040983609855175,0.002587615977972746,-0.40041375160217285,0.6663674116134644,-0.7826951742172241,0.11299022630730288,4.5940595375094375,0.1668647572984934,,,,,,
3,5,-0.7816545963287354,-0.02545699290931225,9.775653839111328,0.006939100567251445,0.0013239500112831593,0.0011552161304280164,-0.40269640088081365,0.6648519635200502,-0.7786778807640077,0.11588998721929565,4.594056718298378,0.16714645594246422,,,,,,
3,6,-0.8178262114524842,-0.02887556329369545,9.783352851867678,0.008766354061663153,-0.0023297972511500124,0.00015014037489891052,-0.40116244554519653,0.6652556061744691,-0.7746354937553407,0.11976914894622259,4.591970703881731,0.16683952250595288,,,,,,
3,7,-0.8337205052375795,-0.04945893213152886,9.77547359466553,0.008855761960148811,-0.0009563175844959916,0.0019393539987504482,-0.39833649992942816,0.668167233467102,-0.7750888466835023,0.12375774380429619,4.59070949890802,0.16755548075823032,,,,,,
3,8,-0.8251327276229858,-0.051032368093729026,9.774384498596193,0.009931245818734169,-0.001950562349520624,-0.00036960668512620037,-0.3979451060295105,0.670638144016266,-0.7770559787750244,0.1282140910596196,4.588935149349942,0.16693028047260228,,,,,,
3,9,-0.826543927192688,-0.039847824722528465,9.779927253723146,0.0075217122212052345,-0.0034552437718957667,0.0027850395999848843,-0.39996823668479925,0.6707262992858887,-0.7810852527618408,0.13139160210863118,4.586340094832906,0.1681031593734316,,,,,,
3,10,-0.8267448544502259,-0.02812044322490692,9.769503593444826,0.006574024911969901,-0.0015832603676244619,0.0024929470382630825,-0.4013308882713318,0.6658605337142944,-0.7811870574951172,0.1339794846061281,4.584864079957291,0.16910063267292705,,,,,,
3,11,-0.8082641363143921,-0.023225482553243637,9.772823333740234,0.008600201457738876,-0.005209458526223899,0.002524980343878269,-0.40266367793083196,0.6643460988998413,-0.7776791453361512,0.1377069545185348,4.581357126580187,0.1701051878748974,,,,,,
3,12,-0.8028033375740052,-0.02421754412353039,9.788385391235352,0.00903755333274603,-0.00309160677716136,0.0027500316500663757,-0.40116626024246216,0.666222095489502,-0.7741089463233949,0.14167743856379408,4.579095212566412,0.1712365874436124,,,,,,
3,13,-0.7925595045089722,-0.03711026906967163,9.773612022399904,0.007484479807317257,-0.0033803705591708426,0.007345505058765411,-0.39832842350006104,0.6676794290542603,-0.7750997543334961,0.14494935147476076,4.576684728729601,0.1750031686098316,,,,,,
3,14,-0.7873859405517578,-0.04782912880182266,9.788753509521484,0.007511673495173454,-0.001939378562383354,0.0005133680533617735,-0.3999321460723877,0.6678086519241333,-0.7816553115844727,0.15096317461655023,4.572838205896711,0.1762228232098233,,,,,,
3,15,-0.7873859405517578,-0.04782912880182266,9.788753509521484,0.007511673495173454,-0.001939378562383354,0.0005133680533617735,-0.3999321460723877,0.6678086519241333,-0.7816553115844727,0.15096317461655023,4.572838205896711,0.1762228232098233,,,,,,
3,16,-0.7768506407737733,-0.04380544275045395,9.781249046325685,0.009639179334044456,-0.003127399599179626,0.003969305660575629,-0.40131473541259766,0.6648850440979004,-0.7812088131904603,0.1552117015776332,4.5706127474181635,0.178016147033048,,,,,,
3,17,-0.7851152420043945,-0.038747932761907584,9.780330657958984,0.009367631748318672,-0.0012818281538784504,0.003106121206656099,-0.4016146361827851,0.665720283985138,-0.7731078863143921,0.16261718117599963,4.567200290089806,0.18236003546442597,,,,,,
3,18,-0.7851152420043945,-0.038747932761907584,9.780330657958984,0.009367631748318672,-0.0012818281538784504,0.003106121206656099,-0.4016146361827851,0.665720283985138,-0.7731078863143921,0.16261718117599963,4.567200290089806,0.18236003546442597,,,,,,
3,19,-0.7994515895843506,-0.03210175782442093,9.775729179382326,0.00699013564735651,-0.0023700234014540915,0.003037232905626297,-0.4007829129695893,0.6691807508468628,-0.7760652303695679,0.165208011490401,4.565430887287833,0.183587401269156,,,,,,
3,20,-0.8288414478302002,-0.050500400364398956,9.775774955749513,0.0075209815986454496,-0.0034936252050101757,0.004742647055536509,-0.40040901303291326,0.668291449546814,-0.7811372876167298,0.1718968875442552,4.560449505916351,0.18792891279546559,,,,,,
4,0,-0.77041894197464,-0.012456116266548635,9.775358200073242,0.011423968710005285,-0.0016040983609855175,0.002587615977972746,-0.40041375160217285,0.6663674116134644,-0.7826951742172241,0.11299022630730288,4.5940595375094375,0.1668647572984934,,,,,,
4,1,-0.77041894197464,-0.012456116266548635,9.775358200073242,0.011423968710005285,-0.0016040983609855175,0.002587615977972746,-0.40041375160217285,0.6663674116134644,-0.7826951742172241,0.11299022630730288,4.5940595375094375,0.1668647572984934,,,,,,
4,2,-0.77041894197464,-0.012456116266548635,9.775358200073242,0.011423968710005285,-0.0016040983609855175,0.002587615977972746,-0.40041375160217285,0.6663674116134644,-0.7826951742172241,0.11299022630730288,4.5940595375094375,0.1668647572984934,,,,,,
4,3,-0.77041894197464,-0.012456116266548635,9.775358200073242,0.011423968710005285,-0.0016040983609855175,0.002587615977972746,-0.40041375160217285,0.6663674116134644,-0.7826951742172241,0.11299022630730288,4.5940595375094375,0.1668647572984934,,,,,,
4,4,-0.77041894197464,-0.012456116266548635,9.775358200073242,0.011423968710005285,-0.0016040983609855175,0.002587615977972746,-0.40041375160217285,0.6663674116134644,-0.7826951742172241,0.11299022630730288,4.5940595375094375,0.1668647572984934,,,,,,
4,5,-0.7816545963287354,-0.02545699290931225,9.775653839111328,0.006939100567251445,0.0013239500112831593,0.0011552161304280164,-0.40269640088081365,0.6648519635200502,-0.7786778807640077,0.11588998721929565,4.594056718298378,0.16714645594246422,,,,,,
4,6,-0.8178262114524842,-0.02887556329369545,9.783352851867678,0.008766354061663153,-0.0023297972511500124,0.00015014037489891052,-0.40116244554519653,0.6652556061744691,-0.7746354937553407,0.11976914894622259,4.591970703881731,0.16683952250595288,,,,,,
4,7,-0.8337205052375795,-0.04945893213152886,9.77547359466553,0.008855761960148811,-0.0009563175844959916,0.0019393539987504482,-0.39833649992942816,0.668167233467102,-0.7750888466835023,0.12375774380429619,4.59070949890802,0.16755548075823032,,,,,,
4,8,-0.8251327276229858,-0.051032368093729026,9.774384498596193,0.009931245818734169,-0.001950562349520624,-0.00036960668512620037,-0.3979451060295105,0.670638144016266,-0.7770559787750244,0.1282140910596196,4.588935149349942,0.16693028047260228,,,,,,
4,9,-0.826543927192688,-0.039847824722528465,9.779927253723146,0.0075217122212052345,-0.0034552437718957667,0.0027850395999848843,-0.39996823668479925,0.6707262992858887,-0.7810852527618408,0.13139160210863118,4.586340094832906,0.1681031593734316,,,,,,
4,10,-0.8267448544502259,-0.02812044322490692,9.769503593444826,0.006574024911969901,-0.0015832603676244619,0.0024929470382630825,-0.4013308882713318,0.6658605337142944,-0.7811870574951172,0.1339794846061281,4.584864079957291,0.16910063267292705,,,,,,
4,11,-0.8082641363143921,-0.023225482553243637,9.772823333740234,0.008600201457738876,-0.005209458526223899,0.002524980343878269,-0.40266367793083196,0.6643460988998413,-0.7776791453361512,0.1377069545185348,4.581357126580187,0.1701051878748974,,,,,,
4,12,-0.8028033375740052,-0.02421754412353039,9.788385391235352,0.00903755333274603,-0.00309160677716136,0.0027500316500663757,-0.40116626024246216,0.666222095489502,-0.7741089463233949,0.14167743856379408,4.579095212566412,0.1712365874436124,,,,,,
4,13,-0.7925595045089722,-0.03711026906967163,9.773612022399904,0.007484479807317257,-0.0033803705591708426,0.007345505058765411,-0.39832842350006104,0.6676794290542603,-0.7750997543334961,0.14494935147476076,4.576684728729601,0.1750031686098316,,,,,,
4,14,-0.7873859405517578,-0.04782912880182266,9.788753509521484,0.007511673495173454,-0.001939378562383354,0.0005133680533617735,-0.3999321460723877,0.6678086519241333,-0.7816553115844727,0.15096317461655023,4.572838205896711,0.1762228232098233,,,,,,
4,15,-0.7873859405517578,-0.04782912880182266,9.788753509521484,0.007511673495173454,-0.001939378562383354,0.0005133680533617735,-0.3999321460723877,0.6678086519241333,-0.7816553115844727,0.15096317461655023,4.572838205896711,0.1762228232098233,,,,,,
4,16,-0.7768506407737733,-0.04380544275045395,9.781249046325685,0.009639179334044456,-0.003127399599179626,0.003969305660575629,-0.40131473541259766,0.6648850440979004,-0.7812088131904603,0.1552117015776332,4.5706127474181635,0.178016147033048,,,,,,
4,17,-0.7851152420043945,-0.038747932761907584,9.780330657958984,0.009367631748318672,-0.0012818281538784504,0.003106121206656099,-0.4016146361827851,0.665720283985138,-0.7731078863143921,0.16261718117599963,4.567200290089806,0.18236003546442597,,,,,,
4,18,-0.7851152420043945,-0.038747932761907584,9.780330657958984,0.009367631748318672,-0.0012818281538784504,0.003106121206656099,-0.4016146361827851,0.665720283985138,-0.7731078863143921,0.16261718117599963,4.567200290089806,0.18236003546442597,,,,,,
4,19,-0.7994515895843506,-0.03210175782442093,9.775729179382326,0.00699013564735651,-0.0023700234014540915,0.003037232905626297,-0.4007829129695893,0.6691807508468628,-0.7760652303695679,0.165208011490401,4.565430887287833,0.183587401269156,,,,,,
4,20,-0.8288414478302002,-0.050500400364398956,9.775774955749513,0.0075209815986454496,-0.0034936252050101757,0.004742647055536509,-0.40040901303291326,0.668291449546814,-0.7811372876167298,0.1718968875442552,4.560449505916351,0.18792891279546559,,,,,,
5,0,-0.77041894197464,-0.012456116266548635,9.775358200073242,0.011423968710005285,-0.0016040983609855175,0.002587615977972746,-0.40041375160217285,0.6663674116134644,-0.7826951742172241,0.11299022630730288,4.5940595375094375,0.1668647572984934,,,,,,
5,1,-0.77041894197464,-0.012456116266548635,9.775358200073242,0.011423968710005285,-0.0016040983609855175,0.002587615977972746,-0.40041375160217285,0.6663674116134644,-0.7826951742172241,0.11299022630730288,4.5940595375094375,0.1668647572984934,,,,,,
5,2,-0.77041894197464,-0.012456116266548635,9.775358200073242,0.011423968710005285,-0.0016040983609855175,0.002587615977972746,-0.40041375160217285,0.6663674116134644,-0.7826951742172241,0.11299022630730288,4.5940595375094375,0.1668647572984934,,,,,,
5,3,-0.77041894197464,-0.012456116266548635,9.775358200073242,0.011423968710005285,-0.0016040983609855175,0.002587615977972746,-0.40041375160217285,0.6663674116134644,-0.7826951742172241,0.11299022630730288,4.5940595375094375,0.1668647572984934,,,,,,
5,4,-0.77041894197464,-0.012456116266548635,9.775358200073242,0.011423968710005285,-0.0016040983609855175,0.002587615977972746,-0.40041375160217285,0.6663674116134644,-0.7826951742172241,0.11299022630730288,4.5940595375094375,0.1668647572984934,,,,,,
5,5,-0.7816545963287354,-0.02545699290931225,9.775653839111328,0.006939100567251445,0.0013239500112831593,0.0011552161304280164,-0.40269640088081365,0.6648519635200502,-0.7786778807640077,0.11588998721929565,4.594056718298378,0.16714645594246422,,,,,,
5,6,-0.8178262114524842,-0.02887556329369545,9.783352851867678,0.008766354061663153,-0.0023297972511500124,0.00015014037489891052,-0.40116244554519653,0.6652556061744691,-0.7746354937553407,0.11976914894622259,4.591970703881731,0.16683952250595288,,,,,,
5,7,-0.8337205052375795,-0.04945893213152886,9.77547359466553,0.008855761960148811,-0.0009563175844959916,0.0019393539987504482,-0.39833649992942816,0.668167233467102,-0.7750888466835023,0.12375774380429619,4.59070949890802,0.16755548075823032,,,,,,
5,8,-0.8251327276229858,-0.051032368093729026,9.774384498596193,0.009931245818734169,-0.001950562349520624,-0.00036960668512620037,-0.3979451060295105,0.670638144016266,-0.7770559787750244,0.1282140910596196,4.588935149349942,0.16693028047260228,,,,,,
5,9,-0.826543927192688,-0.039847824722528465,9.779927253723146,0.0075217122212052345,-0.0034552437718957667,0.0027850395999848843,-0.39996823668479925,0.6707262992858887,-0.7810852527618408,0.13139160210863118,4.586340094832906,0.1681031593734316,,,,,,
5,10,-0.8267448544502259,-0.02812044322490692,9.769503593444826,0.006574024911969901,-0.0015832603676244619,0.0024929470382630825,-0.4013308882713318,0.6658605337142944,-0.7811870574951172,0.1339794846061281,4.584864079957291,0.16910063267292705,,,,,,
5,11,-0.8082641363143921,-0.023225482553243637,9.772823333740234,0.008600201457738876,-0.005209458526223899,0.002524980343878269,-0.40266367793083196,0.6643460988998413,-0.7776791453361512,0.1377069545185348,4.581357126580187,0.1701051878748974,,,,,,
5,12,-0.8028033375740052,-0.02421754412353039,9.788385391235352,0.00903755333274603,-0.00309160677716136,0.0027500316500663757,-0.40116626024246216,0.666222095489502,-0.7741089463233949,0.14167743856379408,4.579095212566412,0.1712365874436124,,,,,,
5,13,-0.7925595045089722,-0.03711026906967163,9.773612022399904,0.007484479807317257,-0.0033803705591708426,0.007345505058765411,-0.39832842350006104,0.6676794290542603,-0.7750997543334961,0.14494935147476076,4.576684728729601,0.1750031686098316,,,,,,
5,14,-0.7873859405517578,-0.04782912880182266,9.788753509521484,0.007511673495173454,-0.001939378562383354,0.0005133680533617735,-0.3999321460723877,0.6678086519241333,-0.7816553115844727,0.15096317461655023,4.572838205896711,0.1762228232098233,,,,,,
5,15,-0.7873859405517578,-0.04782912880182266,9.788753509521484,0.007511673495173454,-0.001939378562383354,0.0005133680533617735,-0.3999321460723877,0.6678086519241333,-0.7816553115844727,0.15096317461655023,4.572838205896711,0.1762228232098233,,,,,,
5,16,-0.7768506407737733,-0.04380544275045395,9.781249046325685,0.009639179334044456,-0.003127399599179626,0.003969305660575629,-0.40131473541259766,0.6648850440979004,-0.7812088131904603,0.1552117015776332,4.5706127474181635,0.178016147033048,,,,,,
5,17,-0.7851152420043945,-0.038747932761907584,9.780330657958984,0.009367631748318672,-0.0012818281538784504,0.003106121206656099,-0.4016146361827851,0.665720283985138,-0.7731078863143921,0.16261718117599963,4.567200290089806,0.18236003546442597,,,,,,
5,18,-0.7851152420043945,-0.038747932761907584,9.780330657958984,0.009367631748318672,-0.0012818281538784504,0.003106121206656099,-0.4016146361827851,0.665720283985138,-0.7731078863143921,0.16261718117599963,4.567200290089806,0.18236003546442597,,,,,,
5,19,-0.7994515895843506,-0.03210175782442093,9.775729179382326,0.00699013564735651,-0.0023700234014540915,0.003037232905626297,-0.4007829129695893,0.6691807508468628,-0.7760652303695679,0.165208011490401,4.565430887287833,0.183587401269156,,,,,,
5,20,-0.8288414478302002,-0.050500400364398956,9.775774955749513,0.0075209815986454496,-0.0034936252050101757,0.004742647055536509,-0.40040901303291326,0.668291449546814,-0.7811372876167298,0.1718968875442552,4.560449505916351,0.18792891279546559,,,,,,
6,0,-0.77041894197464,-0.012456116266548635,9.775358200073242,0.011423968710005285,-0.0016040983609855175,0.002587615977972746,-0.40041375160217285,0.6663674116134644,-0.7826951742172241,0.11299022630730288,4.5940595375094375,0.1668647572984934,,,,,,
6,1,-0.77041894197464,-0.012456116266548635,9.775358200073242,0.011423968710005285,-0.0016040983609855175,0.002587615977972746,-0.40041375160217285,0.6663674116134644,-0.7826951742172241,0.11299022630730288,4.5940595375094375,0.1668647572984934,,,,,,
6,2,-0.77041894197464,-0.012456116266548635,9.775358200073242,0.011423968710005285,-0.0016040983609855175,0.002587615977972746,-0.40041375160217285,0.6663674116134644,-0.7826951742172241,0.11299022630730288,4.5940595375094375,0.1668647572984934,,,,,,
6,3,-0.77041894197464,-0.012456116266548635,9.775358200073242,0.011423968710005285,-0.0016040983609855175,0.002587615977972746,-0.40041375160217285,0.6663674116134644,-0.7826951742172241,0.11299022630730288,4.5940595375094375,0.1668647572984934,,,,,,
6,4,-0.77041894197464,-0.012456116266548635,9.775358200073242,0.011423968710005285,-0.0016040983609855175,0.002587615977972746,-0.40041375160217285,0.6663674116134644,-0.7826951742172241,0.11299022630730288,4.5940595375094375,0.1668647572984934,,,,,,
6,5,-0.7816545963287354,-0.02545699290931225,9.775653839111328,0.006939100567251445,0.0013239500112831593,0.0011552161304280164,-0.40269640088081365,0.6648519635200502,-0.7786778807640077,0.11588998721929565,4.594056718298378,0.16714645594246422,,,,,,
6,6,-0.8178262114524842,-0.02887556329369545,9.783352851867678,0.008766354061663153,-0.0023297972511500124,0.00015014037489891052,-0.40116244554519653,0.6652556061744691,-0.7746354937553407,0.11976914894622259,4.591970703881731,0.16683952250595288,,,,,,
6,7,-0.8337205052375795,-0.04945893213152886,9.77547359466553,0.008855761960148811,-0.0009563175844959916,0.0019393539987504482,-0.39833649992942816,0.668167233467102,-0.7750888466835023,0.12375774380429619,4.59070949890802,0.16755548075823032,,,,,,
6,8,-0.8251327276229858,-0.051032368093729026,9.774384498596193,0.009931245818734169,-0.001950562349520624,-0.00036960668512620037,-0.3979451060295105,0.670638144016266,-0.7770559787750244,0.1282140910596196,4.588935149349942,0.16693028047260228,,,,,,
6,9,-0.826543927192688,-0.039847824722528465,9.779927253723146,0.0075217122212052345,-0.0034552437718957667,0.0027850395999848843,-0.39996823668479925,0.6707262992858887,-0.7810852527618408,0.13139160210863118,4.586340094832906,0.1681031593734316,,,,,,
6,10,-0.8267448544502259,-0.02812044322490692,9.769503593444826,0.006574024911969901,-0.0015832603676244619,0.0024929470382630825,-0.4013308882713318,0.6658605337142944,-0.7811870574951172,0.1339794846061281,4.584864079957291,0.16910063267292705,,,,,,
6,11,-0.8082641363143921,-0.023225482553243637,9.772823333740234,0.008600201457738876,-0.005209458526223899,0.002524980343878269,-0.40266367793083196,0.6643460988998413,-0.7776791453361512,0.1377069545185348,4.581357126580187,0.1701051878748974,,,,,,
6,12,-0.8028033375740052,-0.02421754412353039,9.788385391235352,0.00903755333274603,-0.00309160677716136,0.0027500316500663757,-0.40116626024246216,0.666222095489502,-0.7741089463233949,0.14167743856379408,4.579095212566412,0.1712365874436124,,,,,,
6,13,-0.7925595045089722,-0.03711026906967163,9.773612022399904,0.007484479807317257,-0.0033803705591708426,0.007345505058765411,-0.39832842350006104,0.6676794290542603,-0.7750997543334961,0.14494935147476076,4.576684728729601,0.1750031686098316,,,,,,
6,14,-0.7873859405517578,-0.04782912880182266,9.788753509521484,0.007511673495173454,-0.001939378562383354,0.0005133680533617735,-0.3999321460723877,0.6678086519241333,-0.7816553115844727,0.15096317461655023,4.572838205896711,0.1762228232098233,,,,,,
6,15,-0.7873859405517578,-0.04782912880182266,9.788753509521484,0.007511673495173454,-0.001939378562383354,0.0005133680533617735,-0.3999321460723877,0.6678086519241333,-0.7816553115844727,0.15096317461655023,4.572838205896711,0.1762228232098233,,,,,,
6,16,-0.7768506407737733,-0.04380544275045395,9.781249046325685,0.009639179334044456,-0.003127399599179626,0.003969305660575629,-0.40131473541259766,0.6648850440979004,-0.7812088131904603,0.1552117015776332,4.5706127474181635,0.178016147033048,,,,,,
6,17,-0.7851152420043945,-0.038747932761907584,9.780330657958984,0.009367631748318672,-0.0012818281538784504,0.003106121206656099,-0.4016146361827851,0.665720283985138,-0.7731078863143921,0.16261718117599963,4.567200290089806,0.18236003546442597,,,,,,
6,18,-0.7851152420043945,-0.038747932761907584,9.780330657958984,0.009367631748318672,-0.0012818281538784504,0.003106121206656099,-0.4016146361827851,0.665720283985138,-0.7731078863143921,0.16261718117599963,4.567200290089806,0.18236003546442597,,,,,,
6,19,-0.7994515895843506,-0.03210175782442093,9.775729179382326,0.00699013564735651,-0.0023700234014540915,0.003037232905626297,-0.4007829129695893,0.6691807508468628,-0.7760652303695679,0.165208011490401,4.565430887287833,0.183587401269156,,,,,,
6,20,-0.8288414478302002,-0.050500400364398956,9.775774955749513,0.0075209815986454496,-0.0034936252050101757,0.004742647055536509,-0.40040901303291326,0.668291449546814,-0.7811372876167298,0.1718968875442552,4.560449505916351,0.18792891279546559,,,,,,
7,0,-0.77041894197464,-0.012456116266548635,9.775358200073242,0.011423968710005285,-0.0016040983609855175,0.002587615977972746,-0.40041375160217285,0.6663674116134644,-0.7826951742172241,0.11299022630730288,4.5940595375094375,0.1668647572984934,,,,,,
7,1,-0.77041894197464,-0.012456116266548635,9.775358200073242,0.011423968710005285,-0.0016040983609855175,0.002587615977972746,-0.40041375160217285,0.6663674116134644,-0.7826951742172241,0.11299022630730288,4.5940595375094375,0.1668647572984934,,,,,,
7,2,-0.77041894197464,-0.012456116266548635,9.775358200073242,0.011423968710005285,-0.0016040983609855175,0.002587615977972746,-0.40041375160217285,0.6663674116134644,-0.7826951742172241,0.11299022630730288,4.5940595375094375,0.1668647572984934,,,,,,
7,3,-0.77041894197464,-0.012456116266548635,9.775358200073242,0.011423968710005285,-0.0016040983609855175,0.002587615977972746,-0.40041375160217285,0.6663674116134644,-0.7826951742172241,0.11299022630730288,4.5940595375094375,0.1668647572984934,,,,,,
7,4,-0.77041894197464,-0.012456116266548635,9.775358200073242,0.011423968710005285,-0.0016040983609855175,0.002587615977972746,-0.40041375160217285,0.6663674116134644,-0.7826951742172241,0.11299022630730288,4.5940595375094375,0.1668647572984934,,,,,,
7,5,-0.7816545963287354,-0.02545699290931225,9.775653839111328,0.006939100567251445,0.0013239500112831593,0.0011552161304280164,-0.40269640088081365,0.6648519635200502,-0.7786778807640077,0.11588998721929565,4.594056718298378,0.16714645594246422,,,,,,
7,6,-0.8178262114524842,-0.02887556329369545,9.783352851867678,0.008766354061663153,-0.0023297972511500124,0.00015014037489891052,-0.40116244554519653,0.6652556061744691,-0.7746354937553407,0.11976914894622259,4.591970703881731,0.16683952250595288,,,,,,
7,7,-0.8337205052375795,-0.04945893213152886,9.77547359466553,0.008855761960148811,-0.0009563175844959916,0.0019393539987504482,-0.39833649992942816,0.668167233467102,-0.7750888466835023,0.12375774380429619,4.59070949890802,0.16755548075823032,,,,,,
7,8,-0.8251327276229858,-0.051032368093729026,9.774384498596193,0.009931245818734169,-0.001950562349520624,-0.00036960668512620037,-0.3979451060295105,0.670638144016266,-0.7770559787750244,0.1282140910596196,4.588935149349942,0.16693028047260228,,,,,,
7,9,-0.826543927192688,-0.039847824722528465,9.779927253723146,0.0075217122212052345,-0.0034552437718957667,0.0027850395999848843,-0.39996823668479925,0.6707262992858887,-0.7810852527618408,0.13139160210863118,4.586340094832906,0.1681031593734316,,,,,,
7,10,-0.8267448544502259,-0.02812044322490692,9.769503593444826,0.006574024911969901,-0.0015832603676244619,0.0024929470382630825,-0.4013308882713318,0.6658605337142944,-0.7811870574951172,0.1339794846061281,4.584864079957291,0.16910063267292705,,,,,,
7,11,-0.8082641363143921,-0.023225482553243637,9.772823333740234,0.008600201457738876,-0.005209458526223899,0.002524980343878269,-0.40266367793083196,0.6643460988998413,-0.7776791453361512,0.1377069545185348,4.581357126580187,0.1701051878748974,,,,,,
7,12,-0.8028033375740052,-0.02421754412353039,9.788385391235352,0.00903755333274603,-0.00309160677716136,0.0027500316500663757,-0.40116626024246216,0.666222095489502,-0.7741089463233949,0.14167743856379408,4.579095212566412,0.1712365874436124,,,,,,
7,13,-0.7925595045089722,-0.03711026906967163,9.773612022399904,0.007484479807317257,-0.0033803705591708426,0.007345505058765411,-0.39832842350006104,0.6676794290542603,-0.7750997543334961,0.14494935147476076,4.576684728729601,0.1750031686098316,,,,,,
7,14,-0.7873859405517578,-0.04782912880182266,9.788753509521484,0.007511673495173454,-0.001939378562383354,0.0005133680533617735,-0.3999321460723877,0.6678086519241333,-0.7816553115844727,0.15096317461655023,4.572838205896711,0.1762228232098233,,,,,,
7,15,-0.7873859405517578,-0.04782912880182266,9.788753509521484,0.007511673495173454,-0.001939378562383354,0.0005133680533617735,-0.3999321460723877,0.6678086519241333,-0.7816553115844727,0.15096317461655023,4.572838205896711,0.1762228232098233,,,,,,
7,16,-0.7768506407737733,-0.04380544275045395,9.781249046325685,0.009639179334044456,-0.003127399599179626,0.003969305660575629,-0.40131473541259766,0.6648850440979004,-0.7812088131904603,0.1552117015776332,4.5706127474181635,0.178016147033048,,,,,,
7,17,-0.7851152420043945,-0.038747932761907584,9.780330657958984,0.009367631748318672,-0.0012818281538784504,0.003106121206656099,-0.4016146361827851,0.665720283985138,-0.7731078863143921,0.16261718117599963,4.567200290089806,0.18236003546442597,,,,,,
7,18,-0.7851152420043945,-0.038747932761907584,9.780330657958984,0.009367631748318672,-0.0012818281538784504,0.003106121206656099,-0.4016146361827851,0.665720283985138,-0.7731078863143921,0.16261718117599963,4.567200290089806,0.18236003546442597,,,,,,
7,19,-0.7994515895843506,-0.03210175782442093,9.775729179382326,0.00699013564735651,-0.0023700234014540915,0.003037232905626297,-0.4007829129695893,0.6691807508468628,-0.7760652303695679,0.165208011490401,4.565430887287833,0.183587401269156,,,,,,
7,20,-0.8288414478302002,-0.050500400364398956,9.775774955749513,0.0075209815986454496,-0.0034936252050101757,0.004742647055536509,-0.40040901303291326,0.668291449546814,-0.7811372876167298,0.1718968875442552,4.560449505916351,0.18792891279546559,,,,,,
8,0,-0.77041894197464,-0.012456116266548635,9.775358200073242,0.011423968710005285,-0.0016040983609855175,0.002587615977972746,-0.40041375160217285,0.6663674116134644,-0.7826951742172241,0.11299022630730288,4.5940595375094375,0.1668647572984934,,,,,,
8,1,-0.77041894197464,-0.012456116266548635,9.775358200073242,0.011423968710005285,-0.0016040983609855175,0.002587615977972746,-0.40041375160217285,0.6663674116134644,-0.7826951742172241,0.11299022630730288,4.5940595375094375,0.1668647572984934,,,,,,
8,2,-0.77041894197464,-0.012456116266548635,9.775358200073242,0.011423968710005285,-0.0016040983609855175,0.002587615977972746,-0.40041375160217285,0.6663674116134644,-0.7826951742172241,0.11299022630730288,4.5940595375094375,0.1668647572984934,,,,,,
8,3,-0.77041894197464,-0.012456116266548635,9.775358200073242,0.011423968710005285,-0.0016040983609855175,0.002587615977972746,-0.40041375160217285,0.6663674116134644,-0.7826951742172241,0.11299022630730288,4.5940595375094375,0.1668647572984934,,,,,,
8,4,-0.77041894197464,-0.012456116266548635,9.775358200073242,0.011423968710005285,-0.0016040983609855175,0.002587615977972746,-0.40041375160217285,0.6663674116134644,-0.7826951742172241,0.11299022630730288,4.5940595375094375,0.1668647572984934,,,,,,
8,5,-0.7816545963287354,-0.02545699290931225,9.775653839111328,0.006939100567251445,0.0013239500112831593,0.0011552161304280164,-0.40269640088081365,0.6648519635200502,-0.7786778807640077,0.11588998721929565,4.594056718298378,0.16714645594246422,,,,,,
8,6,-0.8178262114524842,-0.02887556329369545,9.783352851867678,0.008766354061663153,-0.0023297972511500124,0.00015014037489891052,-0.40116244554519653,0.6652556061744691,-0.7746354937553407,0.11976914894622259,4.591970703881731,0.16683952250595288,,,,,,
8,7,-0.8337205052375795,-0.04945893213152886,9.77547359466553,0.008855761960148811,-0.0009563175844959916,0.0019393539987504482,-0.39833649992942816,0.668167233467102,-0.7750888466835023,0.12375774380429619,4.59070949890802,0.16755548075823032,,,,,,
8,8,-0.8251327276229858,-0.051032368093729026,9.774384498596193,0.009931245818734169,-0.001950562349520624,-0.00036960668512620037,-0.3979451060295105,0.670638144016266,-0.7770559787750244,0.1282140910596196,4.588935149349942,0.16693028047260228,,,,,,
8,9,-0.826543927192688,-0.039847824722528465,9.779927253723146,0.0075217122212052345,-0.0034552437718957667,0.0027850395999848843,-0.39996823668479925,0.6707262992858887,-0.7810852527618408,0.13139160210863118,4.586340094832906,0.1681031593734316,,,,,,
8,10,-0.8267448544502259,-0.02812044322490692,9.769503593444826,0.006574024911969901,-0.0015832603676244619,0.0024929470382630825,-0.4013308882713318,0.6658605337142944,-0.7811870574951172,0.1339794846061281,4.584864079957291,0.16910063267292705,,,,,,
8,11,-0.8082641363143921,-0.023225482553243637,9.772823333740234,0.008600201457738876,-0.005209458526223899,0.002524980343878269,-0.40266367793083196,0.6643460988998413,-0.7776791453361512,0.1377069545185348,4.581357126580187,0.1701051878748974,,,,,,
8,12,-0.8028033375740052,-0.02421754412353039,9.788385391235352,0.00903755333274603,-0.00309160677716136,0.0027500316500663757,-0.40116626024246216,0.666222095489502,-0.7741089463233949,0.14167743856379408,4.579095212566412,0.1712365874436124,,,,,,
8,13,-0.7925595045089722,-0.03711026906967163,9.773612022399904,0.007484479807317257,-0.0033803705591708426,0.007345505058765411,-0.39832842350006104,0.6676794290542603,-0.7750997543334961,0.14494935147476076,4.576684728729601,0.1750031686098316,,,,,,
8,14,-0.7873859405517578,-0.04782912880182266,9.788753509521484,0.007511673495173454,-0.001939378562383354,0.0005133680533617735,-0.3999321460723877,0.6678086519241333,-0.7816553115844727,0.15096317461655023,4.572838205896711,0.1762228232098233,,,,,,
8,15,-0.7873859405517578,-0.04782912880182266,9.788753509521484,0.007511673495173454,-0.001939378562383354,0.0005133680533617735,-0.3999321460723877,0.6678086519241333,-0.7816553115844727,0.15096317461655023,4.572838205896711,0.1762228232098233,,,,,,
8,16,-0.7768506407737733,-0.04380544275045395,9.781249046325685,0.009639179334044456,-0.003127399599179626,0.003969305660575629,-0.40131473541259766,0.6648850440979004,-0.7812088131904603,0.1552117015776332,4.5706127474181635,0.178016147033048,,,,,,
8,17,-0.7851152420043945,-0.038747932761907584,9.780330657958984,0.009367631748318672,-0.0012818281538784504,0.003106121206656099,-0.4016146361827851,0.665720283985138,-0.7731078863143921,0.16261718117599963,4.567200290089806,0.18236003546442597,,,,,,
8,18,-0.7851152420043945,-0.038747932761907584,9.780330657958984,0.009367631748318672,-0.0012818281538784504,0.003106121206656099,-0.4016146361827851,0.665720283985138,-0.7731078863143921,0.16261718117599963,4.567200290089806,0.18236003546442597,,,,,,
8,19,-0.7994515895843506,-0.03210175782442093,9.775729179382326,0.00699013564735651,-0.0023700234014540915,0.003037232905626297,-0.4007829129695893,0.6691807508468628,-0.7760652303695679,0.165208011490401,4.565430887287833,0.183587401269156,,,,,,
8,20,-0.8288414478302002,-0.050500400364398956,9.775774955749513,0.0075209815986454496,-0.0034936252050101757,0.004742647055536509,-0.40040901303291326,0.668291449546814,-0.7811372876167298,0.1718968875442552,4.560449505916351,0.18792891279546559,,,,,,
9,0,-0.77041894197464,-0.012456116266548635,9.775358200073242,0.011423968710005285,-0.0016040983609855175,0.002587615977972746,-0.40041375160217285,0.6663674116134644,-0.7826951742172241,0.11299022630730288,4.5940595375094375,0.1668647572984934,,,,,,
9,1,-0.77041894197464,-0.012456116266548635,9.775358200073242,0.011423968710005285,-0.0016040983609855175,0.002587615977972746,-0.40041375160217285,0.6663674116134644,-0.7826951742172241,0.11299022630730288,4.5940595375094375,0.1668647572984934,,,,,,
9,2,-0.77041894197464,-0.012456116266548635,9.775358200073242,0.011423968710005285,-0.0016040983609855175,0.002587615977972746,-0.40041375160217285,0.6663674116134644,-0.7826951742172241,0.11299022630730288,4.5940595375094375,0.1668647572984934,,,,,,
9,3,-0.77041894197464,-0.012456116266548635,9.775358200073242,0.011423968710005285,-0.0016040983609855175,0.002587615977972746,-0.40041375160217285,0.6663674116134644,-0.7826951742172241,0.11299022630730288,4.5940595375094375,0.1668647572984934,,,,,,
9,4,-0.77041894197464,-0.012456116266548635,9.775358200073242,0.011423968710005285,-0.0016040983609855175,0.002587615977972746,-0.40041375160217285,0.6663674116134644,-0.7826951742172241,0.11299022630730288,4.5940595375094375,0.1668647572984934,,,,,,
9,5,-0.7816545963287354,-0.02545699290931225,9.775653839111328,0.006939100567251445,0.0013239500112831593,0.0011552161304280164,-0.40269640088081365,0.6648519635200502,-0.7786778807640077,0.11588998721929565,4.594056718298378,0.16714645594246422,,,,,,
9,6,-0.8178262114524842,-0.02887556329369545,9.783352851867678,0.008766354061663153,-0.0023297972511500124,0.00015014037489891052,-0.40116244554519653,0.6652556061744691,-0.7746354937553407,0.11976914894622259,4.591970703881731,0.16683952250595288,,,,,,
9,7,-0.8337205052375795,-0.04945893213152886,9.77547359466553,0.008855761960148811,-0.0009563175844959916,0.0019393539987504482,-0.39833649992942816,0.668167233467102,-0.7750888466835023,0.12375774380429619,4.59070949890802,0.16755548075823032,,,,,,
9,8,-0.8251327276229858,-0.051032368093729026,9.774384498596193,0.009931245818734169,-0.001950562349520624,-0.00036960668512620037,-0.3979451060295105,0.670638144016266,-0.7770559787750244,0.1282140910596196,4.588935149349942,0.16693028047260228,,,,,,
9,9,-0.826543927192688,-0.039847824722528465,9.779927253723146,0.0075217122212052345,-0.0034552437718957667,0.0027850395999848843,-0.39996823668479925,0.6707262992858887,-0.7810852527618408,0.13139160210863118,4.586340094832906,0.1681031593734316,,,,,,
9,10,-0.8267448544502259,-0.02812044322490692,9.769503593444826,0.006574024911969901,-0.0015832603676244619,0.0024929470382630825,-0.4013308882713318,0.6658605337142944,-0.7811870574951172,0.1339794846061281,4.584864079957291,0.16910063267292705,,,,,,
9,11,-0.8082641363143921,-0.023225482553243637,9.772823333740234,0.008600201457738876,-0.005209458526223899,0.002524980343878269,-0.40266367793083196,0.6643460988998413,-0.7776791453361512,0.1377069545185348,4.581357126580187,0.1701051878748974,,,,,,
9,12,-0.8028033375740052,-0.02421754412353039,9.788385391235352,0.00903755333274603,-0.00309160677716136,0.0027500316500663757,-0.40116626024246216,0.666222095489502,-0.7741089463233949,0.14167743856379408,4.579095212566412,0.1712365874436124,,,,,,
9,13,-0.7925595045089722,-0.03711026906967163,9.773612022399904,0.007484479807317257,-0.0033803705591708426,0.007345505058765411,-0.39832842350006104,0.6676794290542603,-0.7750997543334961,0.14494935147476076,4.576684728729601,0.1750031686098316,,,,,,
9,14,-0.7873859405517578,-0.04782912880182266,9.788753509521484,0.007511673495173454,-0.001939378562383354,0.0005133680533617735,-0.3999321460723877,0.6678086519241333,-0.7816553115844727,0.15096317461655023,4.572838205896711,0.1762228232098233,,,,,,
9,15,-0.7873859405517578,-0.04782912880182266,9.788753509521484,0.007511673495173454,-0.001939378562383354,0.0005133680533617735,-0.3999321460723877,0.6678086519241333,-0.7816553115844727,0.15096317461655023,4.572838205896711,0.1762228232098233,,,,,,
9,16,-0.7768506407737733,-0.04380544275045395,9.781249046325685,0.009639179334044456,-0.003127399599179626,0.003969305660575629,-0.40131473541259766,0.6648850440979004,-0.7812088131904603,0.1552117015776332,4.5706127474181635,0.178016147033048,,,,,,
9,17,-0.7851152420043945,-0.038747932761907584,9.780330657958984,0.009367631748318672,-0.0012818281538784504,0.003106121206656099,-0.4016146361827851,0.665720283985138,-0.7731078863143921,0.16261718117599963,4.567200290089806,0.18236003546442597,,,,,,
9,18,-0.7851152420043945,-0.038747932761907584,9.780330657958984,0.009367631748318672,-0.0012818281538784504,0.003106121206656099,-0.4016146361827851,0.665720283985138,-0.7731078863143921,0.16261718117599963,4.567200290089806,0.18236003546442597,,,,,,
9,19,-0.7994515895843506,-0.03210175782442093,9.775729179382326,0.00699013564735651,-0.0023700234014540915,0.003037232905626297,-0.4007829129695893,0.6691807508468628,-0.7760652303695679,0.165208011490401,4.565430887287833,0.183587401269156,,,,,,
9,20,-0.8288414478302002,-0.050500400364398956,9.775774955749513,0.0075209815986454496,-0.0034936252050101757,0.004742647055536509,-0.40040901303291326,0.668291449546814,-0.7811372876167298,0.1718968875442552,4.560449505916351,0.18792891279546559,,,,,,
10,0,-0.77041894197464,-0.012456116266548635,9.775358200073242,0.011423968710005285,-0.0016040983609855175,0.002587615977972746,-0.40041375160217285,0.6663674116134644,-0.7826951742172241,0.11299022630730288,4.5940595375094375,0.1668647572984934,,,,,,
10,1,-0.77041894197464,-0.012456116266548635,9.775358200073242,0.011423968710005285,-0.0016040983609855175,0.002587615977972746,-0.40041375160217285,0.6663674116134644,-0.7826951742172241,0.11299022630730288,4.5940595375094375,0.1668647572984934,,,,,,
10,2,-0.77041894197464,-0.012456116266548635,9.775358200073242,0.011423968710005285,-0.0016040983609855175,0.002587615977972746,-0.40041375160217285,0.6663674116134644,-0.7826951742172241,0.11299022630730288,4.5940595375094375,0.1668647572984934,,,,,,
10,3,-0.77041894197464,-0.012456116266548635,9.775358200073242,0.011423968710005285,-0.0016040983609855175,0.002587615977972746,-0.40041375160217285,0.6663674116134644,-0.7826951742172241,0.11299022630730288,4.5940595375094375,0.1668647572984934,,,,,,
10,4,-0.77041894197464,-0.012456116266548635,9.775358200073242,0.011423968710005285,-0.0016040983609855175,0.002587615977972746,-0.40041375160217285,0.6663674116134644,-0.7826951742172241,0.11299022630730288,4.5940595375094375,0.1668647572984934,,,,,,
10,5,-0.7816545963287354,-0.02545699290931225,9.775653839111328,0.006939100567251445,0.0013239500112831593,0.0011552161304280164,-0.40269640088081365,0.6648519635200502,-0.7786778807640077,0.11588998721929565,4.594056718298378,0.16714645594246422,,,,,,
10,6,-0.8178262114524842,-0.02887556329369545,9.783352851867678,0.008766354061663153,-0.0023297972511500124,0.00015014037489891052,-0.40116244554519653,0.6652556061744691,-0.7746354937553407,0.11976914894622259,4.591970703881731,0.16683952250595288,,,,,,
10,7,-0.8337205052375795,-0.04945893213152886,9.77547359466553,0.008855761960148811,-0.0009563175844959916,0.0019393539987504482,-0.39833649992942816,0.668167233467102,-0.7750888466835023,0.12375774380429619,4.59070949890802,0.16755548075823032,,,,,,
10,8,-0.8251327276229858,-0.051032368093729026,9.774384498596193,0.009931245818734169,-0.001950562349520624,-0.00036960668512620037,-0.3979451060295105,0.670638144016266,-0.7770559787750244,0.1282140910596196,4.588935149349942,0.16693028047260228,,,,,,
10,9,-0.826543927192688,-0.039847824722528465,9.779927253723146,0.0075217122212052345,-0.0034552437718957667,0.0027850395999848843,-0.39996823668479925,0.6707262992858887,-0.7810852527618408,0.13139160210863118,4.586340094832906,0.1681031593734316,,,,,,
10,10,-0.8267448544502259,-0.02812044322490692,9.769503593444826,0.006574024911969901,-0.0015832603676244619,0.0024929470382630825,-0.4013308882713318,0.6658605337142944,-0.7811870574951172,0.1339794846061281,4.584864079957291,0.16910063267292705,,,,,,
10,11,-0.8082641363143921,-0.023225482553243637,9.772823333740234,0.008600201457738876,-0.005209458526223899,0.002524980343878269,-0.40266367793083196,0.6643460988998413,-0.7776791453361512,0.1377069545185348,4.581357126580187,0.1701051878748974,,,,,,
10,12,-0.8028033375740052,-0.02421754412353039,9.788385391235352,0.00903755333274603,-0.00309160677716136,0.0027500316500663757,-0.40116626024246216,0.666222095489502,-0.7741089463233949,0.14167743856379408,4.579095212566412,0.1712365874436124,,,,,,
10,13,-0.7925595045089722,-0.03711026906967163,9.773612022399904,0.007484479807317257,-0.0033803705591708426,0.007345505058765411,-0.39832842350006104,0.6676794290542603,-0.7750997543334961,0.14494935147476076,4.576684728729601,0.1750031686098316,,,,,,
10,14,-0.7873859405517578,-0.04782912880182266,9.788753509521484,0.007511673495173454,-0.001939378562383354,0.0005133680533617735,-0.3999321460723877,0.6678086519241333,-0.7816553115844727,0.15096317461655023,4.572838205896711,0.1762228232098233,,,,,,
10,15,-0.7873859405517578,-0.04782912880182266,9.788753509521484,0.007511673495173454,-0.001939378562383354,0.0005133680533617735,-0.3999321460723877,0.6678086519241333,-0.7816553115844727,0.15096317461655023,4.572838205896711,0.1762228232098233,,,,,,
10,16,-0.7768506407737733,-0.04380544275045395,9.781249046325685,0.009639179334044456,-0.003127399599179626,0.003969305660575629,-0.40131473541259766,0.6648850440979004,-0.7812088131904603,0.1552117015776332,4.5706127474181635,0.178016147033048,,,,,,
10,17,-0.7851152420043945,-0.038747932761907584,9.780330657958984,0.009367631748318672,-0.0012818281538784504,0.003106121206656099,-0.4016146361827851,0.665720283985138,-0.7731078863143921,0.16261718117599963,4.567200290089806,0.18236003546442597,,,,,,
10,18,-0.7851152420043945,-0.038747932761907584,9.780330657958984,0.009367631748318672,-0.0012818281538784504,0.003106121206656099,-0.4016146361827851,0.665720283985138,-0.7731078863143921,0.16261718117599963,4.567200290089806,0.18236003546442597,,,,,,
10,19,-0.7994515895843506,-0.03210175782442093,9.775729179382326,0.00699013564735651,-0.0023700234014540915,0.003037232905626297,-0.4007829129695893,0.6691807508468628,-0.7760652303695679,0.165208011490401,4.565430887287833,0.183587401269156,,,,,,
10,20,-0.8288414478302002,-0.050500400364398956,9.775774955749513,0.0075209815986454496,-0.0034936252050101757,0.004742647055536509,-0.40040901303291326,0.668291449546814,-0.7811372876167298,0.1718968875442552,4.560449505916351,0.18792891279546559,,,,,,
11,0,-0.77041894197464,-0.012456116266548635,9.775358200073242,0.011423968710005285,-0.0016040983609855175,0.002587615977972746,-0.40041375160217285,0.6663674116134644,-0.7826951742172241,0.11299022630730288,4.5940595375094375,0.1668647572984934,,,,,,
11,1,-0.77041894197464,-0.012456116266548635,9.775358200073242,0.011423968710005285,-0.0016040983609855175,0.002587615977972746,-0.40041375160217285,0.6663674116134644,-0.7826951742172241,0.11299022630730288,4.5940595375094375,0.1668647572984934,,,,,,
11,2,-0.77041894197464,-0.012456116266548635,9.775358200073242,0.011423968710005285,-0.0016040983609855175,0.002587615977972746,-0.40041375160217285,0.6663674116134644,-0.7826951742172241,0.11299022630730288,4.5940595375094375,0.1668647572984934,,,,,,
11,3,-0.77041894197464,-0.012456116266548635,9.775358200073242,0.011423968710005285,-0.0016040983609855175,0.002587615977972746,-0.40041375160217285,0.6663674116134644,-0.7826951742172241,0.11299022630730288,4.5940595375094375,0.1668647572984934,,,,,,
11,4,-0.77041894197464,-0.012456116266548635,9.775358200073242,0.011423968710005285,-0.0016040983609855175,0.002587615977972746,-0.40041375160217285,0.6663674116134644,-0.7826951742172241,0.11299022630730288,4.5940595375094375,0.1668647572984934,,,,,,
11,5,-0.7816545963287354,-0.02545699290931225,9.775653839111328,0.006939100567251445,0.0013239500112831593,0.0011552161304280164,-0.40269640088081365,0.6648519635200502,-0.7786778807640077,0.11588998721929565,4.594056718298378,0.16714645594246422,,,,,,
11,6,-0.8178262114524842,-0.02887556329369545,9.783352851867678,0.008766354061663153,-0.0023297972511500124,0.00015014037489891052,-0.40116244554519653,0.6652556061744691,-0.7746354937553407,0.11976914894622259,4.591970703881731,0.16683952250595288,,,,,,
11,7,-0.8337205052375795,-0.04945893213152886,9.77547359466553,0.008855761960148811,-0.0009563175844959916,0.0019393539987504482,-0.39833649992942816,0.668167233467102,-0.7750888466835023,0.12375774380429619,4.59070949890802,0.16755548075823032,,,,,,
11,8,-0.8251327276229858,-0.051032368093729026,9.774384498596193,0.009931245818734169,-0.001950562349520624,-0.00036960668512620037,-0.3979451060295105,0.670638144016266,-0.7770559787750244,0.1282140910596196,4.588935149349942,0.16693028047260228,,,,,,
11,9,-0.826543927192688,-0.039847824722528465,9.779927253723146,0.0075217122212052345,-0.0034552437718957667,0.0027850395999848843,-0.39996823668479925,0.6707262992858887,-0.7810852527618408,0.13139160210863118,4.586340094832906,0.1681031593734316,,,,,,
11,10,-0.8267448544502259,-0.02812044322490692,9.769503593444826,0.006574024911969901,-0.0015832603676244619,0.0024929470382630825,-0.4013308882713318,0.6658605337142944,-0.7811870574951172,0.1339794846061281,4.584864079957291,0.16910063267292705,,,,,,
11,11,-0.8082641363143921,-0.023225482553243637,9.772823333740234,0.008600201457738876,-0.005209458526223899,0.002524980343878269,-0.40266367793083196,0.6643460988998413,-0.7776791453361512,0.1377069545185348,4.581357126580187,0.1701051878748974,,,,,,
11,12,-0.8028033375740052,-0.02421754412353039,9.788385391235352,0.00903755333274603,-0.00309160677716136,0.0027500316500663757,-0.40116626024246216,0.666222095489502,-0.7741089463233949,0.14167743856379408,4.579095212566412,0.1712365874436124,,,,,,
11,13,-0.7925595045089722,-0.03711026906967163,9.773612022399904,0.007484479807317257,-0.0033803705591708426,0.007345505058765411,-0.39832842350006104,0.6676794290542603,-0.7750997543334961,0.14494935147476076,4.576684728729601,0.1750031686098316,,,,,,
11,14,-0.7873859405517578,-0.04782912880182266,9.788753509521484,0.007511673495173454,-0.001939378562383354,0.0005133680533617735,-0.3999321460723877,0.6678086519241333,-0.7816553115844727,0.15096317461655023,4.572838205896711,0.1762228232098233,,,,,,
11,15,-0.7873859405517578,-0.04782912880182266,9.788753509521484,0.007511673495173454,-0.001939378562383354,0.0005133680533617735,-0.3999321460723877,0.6678086519241333,-0.7816553115844727,0.15096317461655023,4.572838205896711,0.1762228232098233,,,,,,
11,16,-0.7768506407737733,-0.04380544275045395,9.781249046325685,0.009639179334044456,-0.003127399599179626,0.003969305660575629,-0.40131473541259766,0.6648850440979004,-0.7812088131904603,0.1552117015776332,4.5706127474181635,0.178016147033048,,,,,,
11,17,-0.7851152420043945,-0.038747932761907584,9.780330657958984,0.009367631748318672,-0.0012818281538784504,0.003106121206656099,-0.4016146361827851,0.665720283985138,-0.7731078863143921,0.16261718117599963,4.567200290089806,0.18236003546442597,,,,,,
11,18,-0.7851152420043945,-0.038747932761907584,9.780330657958984,0.009367631748318672,-0.0012818281538784504,0.003106121206656099,-0.4016146361827851,0.665720283985138,-0.7731078863143921,0.16261718117599963,4.567200290089806,0.18236003546442597,,,,,,
11,19,-0.7994515895843506,-0.03210175782442093,9.775729179382326,0.00699013564735651,-0.0023700234014540915,0.003037232905626297,-0.4007829129695893,0.6691807508468628,-0.7760652303695679,0.165208011490401,4.565430887287833,0.183587401269156,,,,,,
11,20,-0.8288414478302002,-0.050500400364398956,9.775774955749513,0.0075209815986454496,-0.0034936252050101757,0.004742647055536509,-0.40040901303291326,0.668291449546814,-0.7811372876167298,0.1718968875442552,4.560449505916351,0.18792891279546559,,,,,,
12,0,-0.77041894197464,-0.012456116266548635,9.775358200073242,0.011423968710005285,-0.0016040983609855175,0.002587615977972746,-0.40041375160217285,0.6663674116134644,-0.7826951742172241,0.11299022630730288,4.5940595375094375,0.1668647572984934,,,,,,
12,1,-0.77041894197464,-0.012456116266548635,9.775358200073242,0.011423968710005285,-0.0016040983609855175,0.002587615977972746,-0.40041375160217285,0.6663674116134644,-0.7826951742172241,0.11299022630730288,4.5940595375094375,0.1668647572984934,,,,,,
12,2,-0.77041894197464,-0.012456116266548635,9.775358200073242,0.011423968710005285,-0.0016040983609855175,0.002587615977972746,-0.40041375160217285,0.6663674116134644,-0.7826951742172241,0.11299022630730288,4.5940595375094375,0.1668647572984934,,,,,,
12,3,-0.77041894197464,-0.012456116266548635,9.775358200073242,0.011423968710005285,-0.0016040983609855175,0.002587615977972746,-0.40041375160217285,0.6663674116134644,-0.7826951742172241,0.11299022630730288,4.5940595375094375,0.1668647572984934,,,,,,
12,4,-0.77041894197464,-0.012456116266548635,9.775358200073242,0.011423968710005285,-0.0016040983609855175,0.002587615977972746,-0.40041375160217285,0.6663674116134644,-0.7826951742172241,0.11299022630730288,4.5940595375094375,0.1668647572984934,,,,,,
12,5,-0.7816545963287354,-0.02545699290931225,9.775653839111328,0.006939100567251445,0.0013239500112831593,0.0011552161304280164,-0.40269640088081365,0.6648519635200502,-0.7786778807640077,0.11588998721929565,4.594056718298378,0.16714645594246422,,,,,,
12,6,-0.8178262114524842,-0.02887556329369545,9.783352851867678,0.008766354061663153,-0.0023297972511500124,0.00015014037489891052,-0.40116244554519653,0.6652556061744691,-0.7746354937553407,0.11976914894622259,4.591970703881731,0.16683952250595288,,,,,,
12,7,-0.8337205052375795,-0.04945893213152886,9.77547359466553,0.008855761960148811,-0.0009563175844959916,0.0019393539987504482,-0.39833649992942816,0.668167233467102,-0.7750888466835023,0.12375774380429619,4.59070949890802,0.16755548075823032,,,,,,
12,8,-0.8251327276229858,-0.051032368093729026,9.774384498596193,0.009931245818734169,-0.001950562349520624,-0.00036960668512620037,-0.3979451060295105,0.670638144016266,-0.7770559787750244,0.1282140910596196,4.588935149349942,0.16693028047260228,,,,,,
12,9,-0.826543927192688,-0.039847824722528465,9.779927253723146,0.0075217122212052345,-0.0034552437718957667,0.0027850395999848843,-0.39996823668479925,0.6707262992858887,-0.7810852527618408,0.13139160210863118,4.586340094832906,0.1681031593734316,,,,,,
12,10,-0.8267448544502259,-0.02812044322490692,9.769503593444826,0.006574024911969901,-0.0015832603676244619,0.0024929470382630825,-0.4013308882713318,0.6658605337142944,-0.7811870574951172,0.1339794846061281,4.584864079957291,0.16910063267292705,,,,,,
12,11,-0.8082641363143921,-0.023225482553243637,9.772823333740234,0.008600201457738876,-0.005209458526223899,0.002524980343878269,-0.40266367793083196,0.6643460988998413,-0.7776791453361512,0.1377069545185348,4.581357126580187,0.1701051878748974,,,,,,
12,12,-0.8028033375740052,-0.02421754412353039,9.788385391235352,0.00903755333274603,-0.00309160677716136,0.0027500316500663757,-0.40116626024246216,0.666222095489502,-0.7741089463233949,0.14167743856379408,4.579095212566412,0.1712365874436124,,,,,,
12,13,-0.7925595045089722,-0.03711026906967163,9.773612022399904,0.007484479807317257,-0.0033803705591708426,0.007345505058765411,-0.39832842350006104,0.6676794290542603,-0.7750997543334961,0.14494935147476076,4.576684728729601,0.1750031686098316,,,,,,
12,14,-0.7873859405517578,-0.04782912880182266,9.788753509521484,0.007511673495173454,-0.001939378562383354,0.0005133680533617735,-0.3999321460723877,0.6678086519241333,-0.7816553115844727,0.15096317461655023,4.572838205896711,0.1762228232098233,,,,,,
12,15,-0.7873859405517578,-0.04782912880182266,9.788753509521484,0.007511673495173454,-0.001939378562383354,0.0005133680533617735,-0.3999321460723877,0.6678086519241333,-0.7816553115844727,0.15096317461655023,4.572838205896711,0.1762228232098233,,,,,,
12,16,-0.7768506407737733,-0.04380544275045395,9.781249046325685,0.009639179334044456,-0.003127399599179626,0.003969305660575629,-0.40131473541259766,0.6648850440979004,-0.7812088131904603,0.1552117015776332,4.5706127474181635,0.178016147033048,,,,,,
12,17,-0.7851152420043945,-0.038747932761907584,9.780330657958984,0.009367631748318672,-0.0012818281538784504,0.003106121206656099,-0.4016146361827851,0.665720283985138,-0.7731078863143921,0.16261718117599963,4.567200290089806,0.18236003546442597,,,,,,
12,18,-0.7851152420043945,-0.038747932761907584,9.780330657958984,0.009367631748318672,-0.0012818281538784504,0.003106121206656099,-0.4016146361827851,0.665720283985138,-0.7731078863143921,0.16261718117599963,4.567200290089806,0.18236003546442597,,,,,,
12,19,-0.7994515895843506,-0.03210175782442093,9.775729179382326,0.00699013564735651,-0.0023700234014540915,0.003037232905626297,-0.4007829129695893,0.6691807508468628,-0.7760652303695679,0.165208011490401,4.565430887287833,0.183587401269156,,,,,,
12,20,-0.8288414478302002,-0.050500400364398956,9.775774955749513,0.0075209815986454496,-0.0034936252050101757,0.004742647055536509,-0.40040901303291326,0.668291449546814,-0.7811372876167298,0.1718968875442552,4.560449505916351,0.18792891279546559,,,,,,
13,0,-0.77041894197464,-0.012456116266548635,9.775358200073242,0.011423968710005285,-0.0016040983609855175,0.002587615977972746,-0.40041375160217285,0.6663674116134644,-0.7826951742172241,0.11299022630730288,4.5940595375094375,0.1668647572984934,,,,,,
13,1,-0.77041894197464,-0.012456116266548635,9.775358200073242,0.011423968710005285,-0.0016040983609855175,0.002587615977972746,-0.40041375160217285,0.6663674116134644,-0.7826951742172241,0.11299022630730288,4.5940595375094375,0.1668647572984934,,,,,,
13,2,-0.77041894197464,-0.012456116266548635,9.775358200073242,0.011423968710005285,-0.0016040983609855175,0.002587615977972746,-0.40041375160217285,0.6663674116134644,-0.7826951742172241,0.11299022630730288,4.5940595375094375,0.1668647572984934,,,,,,
13,3,-0.77041894197464,-0.012456116266548635,9.775358200073242,0.011423968710005285,-0.0016040983609855175,0.002587615977972746,-0.40041375160217285,0.6663674116134644,-0.7826951742172241,0.11299022630730288,4.5940595375094375,0.1668647572984934,,,,,,
13,4,-0.77041894197464,-0.012456116266548635,9.775358200073242,0.011423968710005285,-0.0016040983609855175,0.002587615977972746,-0.40041375160217285,0.6663674116134644,-0.7826951742172241,0.11299022630730288,4.5940595375094375,0.1668647572984934,,,,,,
13,5,-0.7816545963287354,-0.02545699290931225,9.775653839111328,0.006939100567251445,0.0013239500112831593,0.0011552161304280164,-0.40269640088081365,0.6648519635200502,-0.7786778807640077,0.11588998721929565,4.594056718298378,0.16714645594246422,,,,,,
13,6,-0.8178262114524842,-0.02887556329369545,9.783352851867678,0.008766354061663153,-0.0023297972511500124,0.00015014037489891052,-0.40116244554519653,0.6652556061744691,-0.7746354937553407,0.11976914894622259,4.591970703881731,0.16683952250595288,,,,,,
13,7,-0.8337205052375795,-0.04945893213152886,9.77547359466553,0.008855761960148811,-0.0009563175844959916,0.0019393539987504482,-0.39833649992942816,0.668167233467102,-0.7750888466835023,0.12375774380429619,4.59070949890802,0.16755548075823032,,,,,,
13,8,-0.8251327276229858,-0.051032368093729026,9.774384498596193,0.009931245818734169,-0.001950562349520624,-0.00036960668512620037,-0.3979451060295105,0.670638144016266,-0.7770559787750244,0.1282140910596196,4.588935149349942,0.16693028047260228,,,,,,
13,9,-0.826543927192688,-0.039847824722528465,9.779927253723146,0.0075217122212052345,-0.0034552437718957667,0.0027850395999848843,-0.39996823668479925,0.6707262992858887,-0.7810852527618408,0.13139160210863118,4.586340094832906,0.1681031593734316,,,,,,
13,10,-0.8267448544502259,-0.02812044322490692,9.769503593444826,0.006574024911969901,-0.0015832603676244619,0.0024929470382630825,-0.4013308882713318,0.6658605337142944,-0.7811870574951172,0.1339794846061281,4.584864079957291,0.16910063267292705,,,,,,
13,11,-0.8082641363143921,-0.023225482553243637,9.772823333740234,0.008600201457738876,-0.005209458526223899,0.002524980343878269,-0.40266367793083196,0.6643460988998413,-0.7776791453361512,0.1377069545185348,4.581357126580187,0.1701051878748974,,,,,,
13,12,-0.8028033375740052,-0.02421754412353039,9.788385391235352,0.00903755333274603,-0.00309160677716136,0.0027500316500663757,-0.40116626024246216,0.666222095489502,-0.7741089463233949,0.14167743856379408,4.579095212566412,0.1712365874436124,,,,,,
13,13,-0.7925595045089722,-0.03711026906967163,9.773612022399904,0.007484479807317257,-0.0033803705591708426,0.007345505058765411,-0.39832842350006104,0.6676794290542603,-0.7750997543334961,0.14494935147476076,4.576684728729601,0.1750031686098316,,,,,,
13,14,-0.7873859405517578,-0.04782912880182266,9.788753509521484,0.007511673495173454,-0.001939378562383354,0.0005133680533617735,-0.3999321460723877,0.6678086519241333,-0.7816553115844727,0.15096317461655023,4.572838205896711,0.1762228232098233,,,,,,
13,15,-0.7873859405517578,-0.04782912880182266,9.788753509521484,0.007511673495173454,-0.001939378562383354,0.0005133680533617735,-0.3999321460723877,0.6678086519241333,-0.7816553115844727,0.15096317461655023,4.572838205896711,0.1762228232098233,,,,,,
13,16,-0.7768506407737733,-0.04380544275045395,9.781249046325685,0.009639179334044456,-0.003127399599179626,0.003969305660575629,-0.40131473541259766,0.6648850440979004,-0.7812088131904603,0.1552117015776332,4.5706127474181635,0.178016147033048,,,,,,
13,17,-0.7851152420043945,-0.038747932761907584,9.780330657958984,0.009367631748318672,-0.0012818281538784504,0.003106121206656099,-0.4016146361827851,0.665720283985138,-0.7731078863143921,0.16261718117599963,4.567200290089806,0.18236003546442597,,,,,,
13,18,-0.7851152420043945,-0.038747932761907584,9.780330657958984,0.009367631748318672,-0.0012818281538784504,0.003106121206656099,-0.4016146361827851,0.665720283985138,-0.7731078863143921,0.16261718117599963,4.567200290089806,0.18236003546442597,,,,,,
13,19,-0.7994515895843506,-0.03210175782442093,9.775729179382326,0.00699013564735651,-0.0023700234014540915,0.003037232905626297,-0.4007829129695893,0.6691807508468628,-0.7760652303695679,0.165208011490401,4.565430887287833,0.183587401269156,,,,,,
13,20,-0.8288414478302002,-0.050500400364398956,9.775774955749513,0.0075209815986454496,-0.0034936252050101757,0.004742647055536509,-0.40040901303291326,0.668291449546814,-0.7811372876167298,0.1718968875442552,4.560449505916351,0.18792891279546559,,,,,,
14,0,-0.77041894197464,-0.012456116266548635,9.775358200073242,0.011423968710005285,-0.0016040983609855175,0.002587615977972746,-0.40041375160217285,0.6663674116134644,-0.7826951742172241,0.11299022630730288,4.5940595375094375,0.1668647572984934,,,,,,
14,1,-0.77041894197464,-0.012456116266548635,9.775358200073242,0.011423968710005285,-0.0016040983609855175,0.002587615977972746,-0.40041375160217285,0.6663674116134644,-0.7826951742172241,0.11299022630730288,4.5940595375094375,0.1668647572984934,,,,,,
14,2,-0.77041894197464,-0.012456116266548635,9.775358200073242,0.011423968710005285,-0.0016040983609855175,0.002587615977972746,-0.40041375160217285,0.6663674116134644,-0.7826951742172241,0.11299022630730288,4.5940595375094375,0.1668647572984934,,,,,,
14,3,-0.77041894197464,-0.012456116266548635,9.775358200073242,0.011423968710005285,-0.0016040983609855175,0.002587615977972746,-0.40041375160217285,0.6663674116134644,-0.7826951742172241,0.11299022630730288,4.5940595375094375,0.1668647572984934,,,,,,
14,4,-0.77041894197464,-0.012456116266548635,9.775358200073242,0.011423968710005285,-0.0016040983609855175,0.002587615977972746,-0.40041375160217285,0.6663674116134644,-0.7826951742172241,0.11299022630730288,4.5940595375094375,0.1668647572984934,,,,,,
14,5,-0.7816545963287354,-0.02545699290931225,9.775653839111328,0.006939100567251445,0.0013239500112831593,0.0011552161304280164,-0.40269640088081365,0.6648519635200502,-0.7786778807640077,0.11588998721929565,4.594056718298378,0.16714645594246422,,,,,,
14,6,-0.8178262114524842,-0.02887556329369545,9.783352851867678,0.008766354061663153,-0.0023297972511500124,0.00015014037489891052,-0.40116244554519653,0.6652556061744691,-0.7746354937553407,0.11976914894622259,4.591970703881731,0.16683952250595288,,,,,,
14,7,-0.8337205052375795,-0.04945893213152886,9.77547359466553,0.008855761960148811,-0.0009563175844959916,0.0019393539987504482,-0.39833649992942816,0.668167233467102,-0.7750888466835023,0.12375774380429619,4.59070949890802,0.16755548075823032,,,,,,
14,8,-0.8251327276229858,-0.051032368093729026,9.774384498596193,0.009931245818734169,-0.001950562349520624,-0.00036960668512620037,-0.3979451060295105,0.670638144016266,-0.7770559787750244,0.1282140910596196,4.588935149349942,0.16693028047260228,,,,,,
14,9,-0.826543927192688,-0.039847824722528465,9.779927253723146,0.0075217122212052345,-0.0034552437718957667,0.0027850395999848843,-0.39996823668479925,0.6707262992858887,-0.7810852527618408,0.13139160210863118,4.586340094832906,0.1681031593734316,,,,,,
14,10,-0.8267448544502259,-0.02812044322490692,9.769503593444826,0.006574024911969901,-0.0015832603676244619,0.0024929470382630825,-0.4013308882713318,0.6658605337142944,-0.7811870574951172,0.1339794846061281,4.584864079957291,0.16910063267292705,,,,,,
14,11,-0.8082641363143921,-0.023225482553243637,9.772823333740234,0.008600201457738876,-0.005209458526223899,0.002524980343878269,-0.40266367793083196,0.6643460988998413,-0.7776791453361512,0.1377069545185348,4.581357126580187,0.1701051878748974,,,,,,
14,12,-0.8028033375740052,-0.02421754412353039,9.788385391235352,0.00903755333274603,-0.00309160677716136,0.0027500316500663757,-0.40116626024246216,0.666222095489502,-0.7741089463233949,0.14167743856379408,4.579095212566412,0.1712365874436124,,,,,,
14,13,-0.7925595045089722,-0.03711026906967163,9.773612022399904,0.007484479807317257,-0.0033803705591708426,0.007345505058765411,-0.39832842350006104,0.6676794290542603,-0.7750997543334961,0.14494935147476076,4.576684728729601,0.1750031686098316,,,,,,
14,14,-0.7873859405517578,-0.04782912880182266,9.788753509521484,0.007511673495173454,-0.001939378562383354,0.0005133680533617735,-0.3999321460723877,0.6678086519241333,-0.7816553115844727,0.15096317461655023,4.572838205896711,0.1762228232098233,,,,,,
14,15,-0.7873859405517578,-0.04782912880182266,9.788753509521484,0.007511673495173454,-0.001939378562383354,0.0005133680533617735,-0.3999321460723877,0.6678086519241333,-0.7816553115844727,0.15096317461655023,4.572838205896711,0.1762228232098233,,,,,,
14,16,-0.7768506407737733,-0.04380544275045395,9.781249046325685,0.009639179334044456,-0.003127399599179626,0.003969305660575629,-0.40131473541259766,0.6648850440979004,-0.7812088131904603,0.1552117015776332,4.5706127474181635,0.178016147033048,,,,,,
14,17,-0.7851152420043945,-0.038747932761907584,9.780330657958984,0.009367631748318672,-0.0012818281538784504,0.003106121206656099,-0.4016146361827851,0.665720283985138,-0.7731078863143921,0.16261718117599963,4.567200290089806,0.18236003546442597,,,,,,
14,18,-0.7851152420043945,-0.038747932761907584,9.780330657958984,0.009367631748318672,-0.0012818281538784504,0.003106121206656099,-0.4016146361827851,0.665720283985138,-0.7731078863143921,0.16261718117599963,4.567200290089806,0.18236003546442597,,,,,,
14,19,-0.7994515895843506,-0.03210175782442093,9.775729179382326,0.00699013564735651,-0.0023700234014540915,0.003037232905626297,-0.4007829129695893,0.6691807508468628,-0.7760652303695679,0.165208011490401,4.565430887287833,0.183587401269156,,,,,,
14,20,-0.8288414478302002,-0.050500400364398956,9.775774955749513,0.0075209815986454496,-0.0034936252050101757,0.004742647055536509,-0.40040901303291326,0.668291449546814,-0.7811372876167298,0.1718968875442552,4.560449505916351,0.18792891279546559,,,,,,
15,0,-0.77041894197464,-0.012456116266548635,9.775358200073242,0.011423968710005285,-0.0016040983609855175,0.002587615977972746,-0.40041375160217285,0.6663674116134644,-0.7826951742172241,0.11299022630730288,4.5940595375094375,0.1668647572984934,,,,,,
15,1,-0.77041894197464,-0.012456116266548635,9.775358200073242,0.011423968710005285,-0.0016040983609855175,0.002587615977972746,-0.40041375160217285,0.6663674116134644,-0.7826951742172241,0.11299022630730288,4.5940595375094375,0.1668647572984934,,,,,,
15,2,-0.77041894197464,-0.012456116266548635,9.775358200073242,0.011423968710005285,-0.0016040983609855175,0.002587615977972746,-0.40041375160217285,0.6663674116134644,-0.7826951742172241,0.11299022630730288,4.5940595375094375,0.1668647572984934,,,,,,
15,3,-0.77041894197464,-0.012456116266548635,9.775358200073242,0.011423968710005285,-0.0016040983609855175,0.002587615977972746,-0.40041375160217285,0.6663674116134644,-0.7826951742172241,0.11299022630730288,4.5940595375094375,0.1668647572984934,,,,,,
15,4,-0.77041894197464,-0.012456116266548635,9.775358200073242,0.011423968710005285,-0.0016040983609855175,0.002587615977972746,-0.40041375160217285,0.6663674116134644,-0.7826951742172241,0.11299022630730288,4.5940595375094375,0.1668647572984934,,,,,,
15,5,-0.7816545963287354,-0.02545699290931225,9.775653839111328,0.006939100567251445,0.0013239500112831593,0.0011552161304280164,-0.40269640088081365,0.6648519635200502,-0.7786778807640077,0.11588998721929565,4.594056718298378,0.16714645594246422,,,,,,
15,6,-0.8178262114524842,-0.02887556329369545,9.783352851867678,0.008766354061663153,-0.0023297972511500124,0.00015014037489891052,-0.40116244554519653,0.6652556061744691,-0.7746354937553407,0.11976914894622259,4.591970703881731,0.16683952250595288,,,,,,
15,7,-0.8337205052375795,-0.04945893213152886,9.77547359466553,0.008855761960148811,-0.0009563175844959916,0.0019393539987504482,-0.39833649992942816,0.668167233467102,-0.7750888466835023,0.12375774380429619,4.59070949890802,0.16755548075823032,,,,,,
15,8,-0.8251327276229858,-0.051032368093729026,9.774384498596193,0.009931245818734169,-0.001950562349520624,-0.00036960668512620037,-0.3979451060295105,0.670638144016266,-0.7770559787750244,0.1282140910596196,4.588935149349942,0.16693028047260228,,,,,,
15,9,-0.826543927192688,-0.039847824722528465,9.779927253723146,0.0075217122212052345,-0.0034552437718957667,0.0027850395999848843,-0.39996823668479925,0.6707262992858887,-0.7810852527618408,0.13139160210863118,4.586340094832906,0.1681031593734316,,,,,,
15,10,-0.8267448544502259,-0.02812044322490692,9.769503593444826,0.006574024911969901,-0.0015832603676244619,0.0024929470382630825,-0.4013308882713318,0.6658605337142944,-0.7811870574951172,0.1339794846061281,4.584864079957291,0.16910063267292705,,,,,,
15,11,-0.8082641363143921,-0.023225482553243637,9.772823333740234,0.008600201457738876,-0.005209458526223899,0.002524980343878269,-0.40266367793083196,0.6643460988998413,-0.7776791453361512,0.1377069545185348,4.581357126580187,0.1701051878748974,,,,,,
15,12,-0.8028033375740052,-0.02421754412353039,9.788385391235352,0.00903755333274603,-0.00309160677716136,0.0027500316500663757,-0.40116626024246216,0.666222095489502,-0.7741089463233949,0.14167743856379408,4.579095212566412,0.1712365874436124,,,,,,
15,13,-0.7925595045089722,-0.03711026906967163,9.773612022399904,0.007484479807317257,-0.0033803705591708426,0.007345505058765411,-0.39832842350006104,0.6676794290542603,-0.7750997543334961,0.14494935147476076,4.576684728729601,0.1750031686098316,,,,,,
15,14,-0.7873859405517578,-0.04782912880182266,9.788753509521484,0.007511673495173454,-0.001939378562383354,0.0005133680533617735,-0.3999321460723877,0.6678086519241333,-0.7816553115844727,0.15096317461655023,4.572838205896711,0.1762228232098233,,,,,,
15,15,-0.7873859405517578,-0.04782912880182266,9.788753509521484,0.007511673495173454,-0.001939378562383354,0.0005133680533617735,-0.3999321460723877,0.6678086519241333,-0.7816553115844727,0.15096317461655023,4.572838205896711,0.1762228232098233,,,,,,
15,16,-0.7768506407737733,-0.04380544275045395,9.781249046325685,0.009639179334044456,-0.003127399599179626,0.003969305660575629,-0.40131473541259766,0.6648850440979004,-0.7812088131904603,0.1552117015776332,4.5706127474181635,0.178016147033048,,,,,,
15,17,-0.7851152420043945,-0.038747932761907584,9.780330657958984,0.009367631748318672,-0.0012818281538784504,0.003106121206656099,-0.4016146361827851,0.665720283985138,-0.7731078863143921,0.16261718117599963,4.567200290089806,0.18236003546442597,,,,,,
15,18,-0.7851152420043945,-0.038747932761907584,9.780330657958984,0.009367631748318672,-0.0012818281538784504,0.003106121206656099,-0.4016146361827851,0.665720283985138,-0.7731078863143921,0.16261718117599963,4.567200290089806,0.18236003546442597,,,,,,
15,19,-0.7994515895843506,-0.03210175782442093,9.775729179382326,0.00699013564735651,-0.0023700234014540915,0.003037232905626297,-0.4007829129695893,0.6691807508468628,-0.7760652303695679,0.165208011490401,4.565430887287833,0.183587401269156,,,,,,
15,20,-0.8288414478302002,-0.050500400364398956,9.775774955749513,0.0075209815986454496,-0.0034936252050101757,0.004742647055536509,-0.40040901303291326,0.668291449546814,-0.7811372876167298,0.1718968875442552,4.560449505916351,0.18792891279546559,,,,,,
16,0,-0.77041894197464,-0.012456116266548635,9.775358200073242,0.011423968710005285,-0.0016040983609855175,0.002587615977972746,-0.40041375160217285,0.6663674116134644,-0.7826951742172241,0.11299022630730288,4.5940595375094375,0.1668647572984934,,,,,,
16,1,-0.77041894197464,-0.012456116266548635,9.775358200073242,0.011423968710005285,-0.0016040983609855175,0.002587615977972746,-0.40041375160217285,0.6663674116134644,-0.7826951742172241,0.11299022630730288,4.5940595375094375,0.1668647572984934,,,,,,
16,2,-0.77041894197464,-0.012456116266548635,9.775358200073242,0.011423968710005285,-0.0016040983609855175,0.002587615977972746,-0.40041375160217285,0.6663674116134644,-0.7826951742172241,0.11299022630730288,4.5940595375094375,0.1668647572984934,,,,,,
16,3,-0.77041894197464,-0.012456116266548635,9.775358200073242,0.011423968710005285,-0.0016040983609855175,0.002587615977972746,-0.40041375160217285,0.6663674116134644,-0.7826951742172241,0.11299022630730288,4.5940595375094375,0.1668647572984934,,,,,,
16,4,-0.77041894197464,-0.012456116266548635,9.775358200073242,0.011423968710005285,-0.0016040983609855175,0.002587615977972746,-0.40041375160217285,0.6663674116134644,-0.7826951742172241,0.11299022630730288,4.5940595375094375,0.1668647572984934,,,,,,
16,5,-0.7816545963287354,-0.02545699290931225,9.775653839111328,0.006939100567251445,0.0013239500112831593,0.0011552161304280164,-0.40269640088081365,0.6648519635200502,-0.7786778807640077,0.11588998721929565,4.594056718298378,0.16714645594246422,,,,,,
16,6,-0.8178262114524842,-0.02887556329369545,9.783352851867678,0.008766354061663153,-0.0023297972511500124,0.00015014037489891052,-0.40116244554519653,0.6652556061744691,-0.7746354937553407,0.11976914894622259,4.591970703881731,0.16683952250595288,,,,,,
16,7,-0.8337205052375795,-0.04945893213152886,9.77547359466553,0.008855761960148811,-0.0009563175844959916,0.0019393539987504482,-0.39833649992942816,0.668167233467102,-0.7750888466835023,0.12375774380429619,4.59070949890802,0.16755548075823032,,,,,,
16,8,-0.8251327276229858,-0.051032368093729026,9.774384498596193,0.009931245818734169,-0.001950562349520624,-0.00036960668512620037,-0.3979451060295105,0.670638144016266,-0.7770559787750244,0.1282140910596196,4.588935149349942,0.16693028047260228,,,,,,
16,9,-0.826543927192688,-0.039847824722528465,9.779927253723146,0.0075217122212052345,-0.0034552437718957667,0.0027850395999848843,-0.39996823668479925,0.6707262992858887,-0.7810852527618408,0.13139160210863118,4.586340094832906,0.1681031593734316,,,,,,
16,10,-0.8267448544502259,-0.02812044322490692,9.769503593444826,0.006574024911969901,-0.0015832603676244619,0.0024929470382630825,-0.4013308882713318,0.6658605337142944,-0.7811870574951172,0.1339794846061281,4.584864079957291,0.16910063267292705,,,,,,
16,11,-0.8082641363143921,-0.023225482553243637,9.772823333740234,0.008600201457738876,-0.005209458526223899,0.002524980343878269,-0.40266367793083196,0.6643460988998413,-0.7776791453361512,0.1377069545185348,4.581357126580187,0.1701051878748974,,,,,,
16,12,-0.8028033375740052,-0.02421754412353039,9.788385391235352,0.00903755333274603,-0.00309160677716136,0.0027500316500663757,-0.40116626024246216,0.666222095489502,-0.7741089463233949,0.14167743856379408,4.579095212566412,0.1712365874436124,,,,,,
16,13,-0.7925595045089722,-0.03711026906967163,9.773612022399904,0.007484479807317257,-0.0033803705591708426,0.007345505058765411,-0.39832842350006104,0.6676794290542603,-0.7750997543334961,0.14494935147476076,4.576684728729601,0.1750031686098316,,,,,,
16,14,-0.7873859405517578,-0.04782912880182266,9.788753509521484,0.007511673495173454,-0.001939378562383354,0.0005133680533617735,-0.3999321460723877,0.6678086519241333,-0.7816553115844727,0.15096317461655023,4.572838205896711,0.1762228232098233,,,,,,
16,15,-0.7873859405517578,-0.04782912880182266,9.788753509521484,0.007511673495173454,-0.001939378562383354,0.0005133680533617735,-0.3999321460723877,0.6678086519241333,-0.7816553115844727,0.15096317461655023,4.572838205896711,0.1762228232098233,,,,,,
16,16,-0.7768506407737733,-0.04380544275045395,9.781249046325685,0.009639179334044456,-0.003127399599179626,0.003969305660575629,-0.40131473541259766,0.6648850440979004,-0.7812088131904603,0.1552117015776332,4.5706127474181635,0.178016147033048,,,,,,
16,17,-0.7851152420043945,-0.038747932761907584,9.780330657958984,0.009367631748318672,-0.0012818281538784504,0.003106121206656099,-0.4016146361827851,0.665720283985138,-0.7731078863143921,0.16261718117599963,4.567200290089806,0.18236003546442597,,,,,,
16,18,-0.7851152420043945,-0.038747932761907584,9.780330657958984,0.009367631748318672,-0.0012818281538784504,0.003106121206656099,-0.4016146361827851,0.665720283985138,-0.7731078863143921,0.16261718117599963,4.567200290089806,0.18236003546442597,,,,,,
16,19,-0.7994515895843506,-0.03210175782442093,9.775729179382326,0.00699013564735651,-0.0023700234014540915,0.003037232905626297,-0.4007829129695893,0.6691807508468628,-0.7760652303695679,0.165208011490401,4.565430887287833,0.183587401269156,,,,,,
16,20,-0.8288414478302002,-0.050500400364398956,9.775774955749513,0.0075209815986454496,-0.0034936252050101757,0.004742647055536509,-0.40040901303291326,0.668291449546814,-0.7811372876167298,0.1718968875442552,4.560449505916351,0.18792891279546559,,,,,,
17,0,-0.77041894197464,-0.012456116266548635,9.775358200073242,0.011423968710005285,-0.0016040983609855175,0.002587615977972746,-0.40041375160217285,0.6663674116134644,-0.7826951742172241,0.11299022630730288,4.5940595375094375,0.1668647572984934,,,,,,
17,1,-0.77041894197464,-0.012456116266548635,9.775358200073242,0.011423968710005285,-0.0016040983609855175,0.002587615977972746,-0.40041375160217285,0.6663674116134644,-0.7826951742172241,0.11299022630730288,4.5940595375094375,0.1668647572984934,,,,,,
17,2,-0.77041894197464,-0.012456116266548635,9.775358200073242,0.011423968710005285,-0.0016040983609855175,0.002587615977972746,-0.40041375160217285,0.6663674116134644,-0.7826951742172241,0.11299022630730288,4.5940595375094375,0.1668647572984934,,,,,,
17,3,-0.77041894197464,-0.012456116266548635,9.775358200073242,0.011423968710005285,-0.0016040983609855175,0.002587615977972746,-0.40041375160217285,0.6663674116134644,-0.7826951742172241,0.11299022630730288,4.5940595375094375,0.1668647572984934,,,,,,
17,4,-0.77041894197464,-0.012456116266548635,9.775358200073242,0.011423968710005285,-0.0016040983609855175,0.002587615977972746,-0.40041375160217285,0.6663674116134644,-0.7826951742172241,0.11299022630730288,4.5940595375094375,0.1668647572984934,,,,,,
17,5,-0.7816545963287354,-0.02545699290931225,9.775653839111328,0.006939100567251445,0.0013239500112831593,0.0011552161304280164,-0.40269640088081365,0.6648519635200502,-0.7786778807640077,0.11588998721929565,4.594056718298378,0.16714645594246422,,,,,,
17,6,-0.8178262114524842,-0.02887556329369545,9.783352851867678,0.008766354061663153,-0.0023297972511500124,0.00015014037489891052,-0.40116244554519653,0.6652556061744691,-0.7746354937553407,0.11976914894622259,4.591970703881731,0.16683952250595288,,,,,,
17,7,-0.8337205052375795,-0.04945893213152886,9.77547359466553,0.008855761960148811,-0.0009563175844959916,0.0019393539987504482,-0.39833649992942816,0.668167233467102,-0.7750888466835023,0.12375774380429619,4.59070949890802,0.16755548075823032,,,,,,
17,8,-0.8251327276229858,-0.051032368093729026,9.774384498596193,0.009931245818734169,-0.001950562349520624,-0.00036960668512620037,-0.3979451060295105,0.670638144016266,-0.7770559787750244,0.1282140910596196,4.588935149349942,0.16693028047260228,,,,,,
17,9,-0.826543927192688,-0.039847824722528465,9.779927253723146,0.0075217122212052345,-0.0034552437718957667,0.0027850395999848843,-0.39996823668479925,0.6707262992858887,-0.7810852527618408,0.13139160210863118,4.586340094832906,0.1681031593734316,,,,,,
17,10,-0.8267448544502259,-0.02812044322490692,9.769503593444826,0.006574024911969901,-0.0015832603676244619,0.0024929470382630825,-0.4013308882713318,0.6658605337142944,-0.7811870574951172,0.1339794846061281,4.584864079957291,0.16910063267292705,,,,,,
17,11,-0.8082641363143921,-0.023225482553243637,9.772823333740234,0.008600201457738876,-0.005209458526223899,0.002524980343878269,-0.40266367793083196,0.6643460988998413,-0.7776791453361512,0.1377069545185348,4.581357126580187,0.1701051878748974,,,,,,
17,12,-0.8028033375740052,-0.02421754412353039,9.788385391235352,0.00903755333274603,-0.00309160677716136,0.0027500316500663757,-0.40116626024246216,0.666222095489502,-0.7741089463233949,0.14167743856379408,4.579095212566412,0.1712365874436124,,,,,,
17,13,-0.7925595045089722,-0.03711026906967163,9.773612022399904,0.007484479807317257,-0.0033803705591708426,0.007345505058765411,-0.39832842350006104,0.6676794290542603,-0.7750997543334961,0.14494935147476076,4.576684728729601,0.1750031686098316,,,,,,
17,14,-0.7873859405517578,-0.04782912880182266,9.788753509521484,0.007511673495173454,-0.001939378562383354,0.0005133680533617735,-0.3999321460723877,0.6678086519241333,-0.7816553115844727,0.15096317461655023,4.572838205896711,0.1762228232098233,,,,,,
17,15,-0.7873859405517578,-0.04782912880182266,9.788753509521484,0.007511673495173454,-0.001939378562383354,0.0005133680533617735,-0.3999321460723877,0.6678086519241333,-0.7816553115844727,0.15096317461655023,4.572838205896711,0.1762228232098233,,,,,,
17,16,-0.7768506407737733,-0.04380544275045395,9.781249046325685,0.009639179334044456,-0.003127399599179626,0.003969305660575629,-0.40131473541259766,0.6648850440979004,-0.7812088131904603,0.1552117015776332,4.5706127474181635,0.178016147033048,,,,,,
17,17,-0.7851152420043945,-0.038747932761907584,9.780330657958984,0.009367631748318672,-0.0012818281538784504,0.003106121206656099,-0.4016146361827851,0.665720283985138,-0.7731078863143921,0.16261718117599963,4.567200290089806,0.18236003546442597,,,,,,
17,18,-0.7851152420043945,-0.038747932761907584,9.780330657958984,0.009367631748318672,-0.0012818281538784504,0.003106121206656099,-0.4016146361827851,0.665720283985138,-0.7731078863143921,0.16261718117599963,4.567200290089806,0.18236003546442597,,,,,,
17,19,-0.7994515895843506,-0.03210175782442093,9.775729179382326,0.00699013564735651,-0.0023700234014540915,0.003037232905626297,-0.4007829129695893,0.6691807508468628,-0.7760652303695679,0.165208011490401,4.565430887287833,0.183587401269156,,,,,,
17,20,-0.8288414478302002,-0.050500400364398956,9.775774955749513,0.0075209815986454496,-0.0034936252050101757,0.004742647055536509,-0.40040901303291326,0.668291449546814,-0.7811372876167298,0.1718968875442552,4.560449505916351,0.18792891279546559,,,,,,
18,0,-0.77041894197464,-0.012456116266548635,9.775358200073242,0.011423968710005285,-0.0016040983609855175,0.002587615977972746,-0.40041375160217285,0.6663674116134644,-0.7826951742172241,0.11299022630730288,4.5940595375094375,0.1668647572984934,,,,,,
18,1,-0.77041894197464,-0.012456116266548635,9.775358200073242,0.011423968710005285,-0.0016040983609855175,0.002587615977972746,-0.40041375160217285,0.6663674116134644,-0.7826951742172241,0.11299022630730288,4.5940595375094375,0.1668647572984934,,,,,,
18,2,-0.77041894197464,-0.012456116266548635,9.775358200073242,0.011423968710005285,-0.0016040983609855175,0.002587615977972746,-0.40041375160217285,0.6663674116134644,-0.7826951742172241,0.11299022630730288,4.5940595375094375,0.1668647572984934,,,,,,
18,3,-0.77041894197464,-0.012456116266548635,9.775358200073242,0.011423968710005285,-0.0016040983609855175,0.002587615977972746,-0.40041375160217285,0.6663674116134644,-0.7826951742172241,0.11299022630730288,4.5940595375094375,0.1668647572984934,,,,,,
18,4,-0.77041894197464,-0.012456116266548635,9.775358200073242,0.011423968710005285,-0.0016040983609855175,0.002587615977972746,-0.40041375160217285,0.6663674116134644,-0.7826951742172241,0.11299022630730288,4.5940595375094375,0.1668647572984934,,,,,,
18,5,-0.7816545963287354,-0.02545699290931225,9.775653839111328,0.006939100567251445,0.0013239500112831593,0.0011552161304280164,-0.40269640088081365,0.6648519635200502,-0.7786778807640077,0.11588998721929565,4.594056718298378,0.16714645594246422,,,,,,
18,6,-0.8178262114524842,-0.02887556329369545,9.783352851867678,0.008766354061663153,-0.0023297972511500124,0.00015014037489891052,-0.40116244554519653,0.6652556061744691,-0.7746354937553407,0.11976914894622259,4.591970703881731,0.16683952250595288,,,,,,
18,7,-0.8337205052375795,-0.04945893213152886,9.77547359466553,0.008855761960148811,-0.0009563175844959916,0.0019393539987504482,-0.39833649992942816,0.668167233467102,-0.7750888466835023,0.12375774380429619,4.59070949890802,0.16755548075823032,,,,,,
18,8,-0.8251327276229858,-0.051032368093729026,9.774384498596193,0.009931245818734169,-0.001950562349520624,-0.00036960668512620037,-0.3979451060295105,0.670638144016266,-0.7770559787750244,0.1282140910596196,4.588935149349942,0.16693028047260228,,,,,,
18,9,-0.826543927192688,-0.039847824722528465,9.779927253723146,0.0075217122212052345,-0.0034552437718957667,0.0027850395999848843,-0.39996823668479925,0.6707262992858887,-0.7810852527618408,0.13139160210863118,4.586340094832906,0.1681031593734316,,,,,,
18,10,-0.8267448544502259,-0.02812044322490692,9.769503593444826,0.006574024911969901,-0.0015832603676244619,0.0024929470382630825,-0.4013308882713318,0.6658605337142944,-0.7811870574951172,0.1339794846061281,4.584864079957291,0.16910063267292705,,,,,,
18,11,-0.8082641363143921,-0.023225482553243637,9.772823333740234,0.008600201457738876,-0.005209458526223899,0.002524980343878269,-0.40266367793083196,0.6643460988998413,-0.7776791453361512,0.1377069545185348,4.581357126580187,0.1701051878748974,,,,,,
18,12,-0.8028033375740052,-0.02421754412353039,9.788385391235352,0.00903755333274603,-0.00309160677716136,0.0027500316500663757,-0.40116626024246216,0.666222095489502,-0.7741089463233949,0.14167743856379408,4.579095212566412,0.1712365874436124,,,,,,
18,13,-0.7925595045089722,-0.03711026906967163,9.773612022399904,0.007484479807317257,-0.0033803705591708426,0.007345505058765411,-0.39832842350006104,0.6676794290542603,-0.7750997543334961,0.14494935147476076,4.576684728729601,0.1750031686098316,,,,,,
18,14,-0.7873859405517578,-0.04782912880182266,9.788753509521484,0.007511673495173454,-0.001939378562383354,0.0005133680533617735,-0.3999321460723877,0.6678086519241333,-0.7816553115844727,0.15096317461655023,4.572838205896711,0.1762228232098233,,,,,,
18,15,-0.7873859405517578,-0.04782912880182266,9.788753509521484,0.007511673495173454,-0.001939378562383354,0.0005133680533617735,-0.3999321460723877,0.6678086519241333,-0.7816553115844727,0.15096317461655023,4.572838205896711,0.1762228232098233,,,,,,
18,16,-0.7768506407737733,-0.04380544275045395,9.781249046325685,0.009639179334044456,-0.003127399599179626,0.003969305660575629,-0.40131473541259766,0.6648850440979004,-0.7812088131904603,0.1552117015776332,4.5706127474181635,0.178016147033048,,,,,,
18,17,-0.7851152420043945,-0.038747932761907584,9.780330657958984,0.009367631748318672,-0.0012818281538784504,0.003106121206656099,-0.4016146361827851,0.665720283985138,-0.7731078863143921,0.16261718117599963,4.567200290089806,0.18236003546442597,,,,,,
18,18,-0.7851152420043945,-0.038747932761907584,9.780330657958984,0.009367631748318672,-0.0012818281538784504,0.003106121206656099,-0.4016146361827851,0.665720283985138,-0.7731078863143921,0.16261718117599963,4.567200290089806,0.18236003546442597,,,,,,
18,19,-0.7994515895843506,-0.03210175782442093,9.775729179382326,0.00699013564735651,-0.0023700234014540915,0.003037232905626297,-0.4007829129695893,0.6691807508468628,-0.7760652303695679,0.165208011490401,4.565430887287833,0.183587401269156,,,,,,
18,20,-0.8288414478302002,-0.050500400364398956,9.775774955749513,0.0075209815986454496,-0.0034936252050101757,0.004742647055536509,-0.40040901303291326,0.668291449546814,-0.7811372876167298,0.1718968875442552,4.560449505916351,0.18792891279546559,,,,,,
19,0,-0.77041894197464,-0.012456116266548635,9.775358200073242,0.011423968710005285,-0.0016040983609855175,0.002587615977972746,-0.40041375160217285,0.6663674116134644,-0.7826951742172241,0.11299022630730288,4.5940595375094375,0.1668647572984934,,,,,,
19,1,-0.77041894197464,-0.012456116266548635,9.775358200073242,0.011423968710005285,-0.0016040983609855175,0.002587615977972746,-0.40041375160217285,0.6663674116134644,-0.7826951742172241,0.11299022630730288,4.5940595375094375,0.1668647572984934,,,,,,
19,2,-0.77041894197464,-0.012456116266548635,9.775358200073242,0.011423968710005285,-0.0016040983609855175,0.002587615977972746,-0.40041375160217285,0.6663674116134644,-0.7826951742172241,0.11299022630730288,4.5940595375094375,0.1668647572984934,,,,,,
19,3,-0.77041894197464,-0.012456116266548635,9.775358200073242,0.011423968710005285,-0.0016040983609855175,0.002587615977972746,-0.40041375160217285,0.6663674116134644,-0.7826951742172241,0.11299022630730288,4.5940595375094375,0.1668647572984934,,,,,,
19,4,-0.77041894197464,-0.012456116266548635,9.775358200073242,0.011423968710005285,-0.0016040983609855175,0.002587615977972746,-0.40041375160217285,0.6663674116134644,-0.7826951742172241,0.11299022630730288,4.5940595375094375,0.1668647572984934,,,,,,
19,5,-0.7816545963287354,-0.02545699290931225,9.775653839111328,0.006939100567251445,0.0013239500112831593,0.0011552161304280164,-0.40269640088081365,0.6648519635200502,-0.7786778807640077,0.11588998721929565,4.594056718298378,0.16714645594246422,,,,,,
19,6,-0.8178262114524842,-0.02887556329369545,9.783352851867678,0.008766354061663153,-0.0023297972511500124,0.00015014037489891052,-0.40116244554519653,0.6652556061744691,-0.7746354937553407,0.11976914894622259,4.591970703881731,0.16683952250595288,,,,,,
19,7,-0.8337205052375795,-0.04945893213152886,9.77547359466553,0.008855761960148811,-0.0009563175844959916,0.0019393539987504482,-0.39833649992942816,0.668167233467102,-0.7750888466835023,0.12375774380429619,4.59070949890802,0.16755548075823032,,,,,,
19,8,-0.8251327276229858,-0.051032368093729026,9.774384498596193,0.009931245818734169,-0.001950562349520624,-0.00036960668512620037,-0.3979451060295105,0.670638144016266,-0.7770559787750244,0.1282140910596196,4.588935149349942,0.16693028047260228,,,,,,
19,9,-0.826543927192688,-0.039847824722528465,9.779927253723146,0.0075217122212052345,-0.0034552437718957667,0.0027850395999848843,-0.39996823668479925,0.6707262992858887,-0.7810852527618408,0.13139160210863118,4.586340094832906,0.1681031593734316,,,,,,
19,10,-0.8267448544502259,-0.02812044322490692,9.769503593444826,0.006574024911969901,-0.0015832603676244619,0.0024929470382630825,-0.4013308882713318,0.6658605337142944,-0.7811870574951172,0.1339794846061281,4.584864079957291,0.16910063267292705,,,,,,
19,11,-0.8082641363143921,-0.023225482553243637,9.772823333740234,0.008600201457738876,-0.005209458526223899,0.002524980343878269,-0.40266367793083196,0.6643460988998413,-0.7776791453361512,0.1377069545185348,4.581357126580187,0.1701051878748974,,,,,,
19,12,-0.8028033375740052,-0.02421754412353039,9.788385391235352,0.00903755333274603,-0.00309160677716136,0.0027500316500663757,-0.40116626024246216,0.666222095489502,-0.7741089463233949,0.14167743856379408,4.579095212566412,0.1712365874436124,,,,,,
19,13,-0.7925595045089722,-0.03711026906967163,9.773612022399904,0.007484479807317257,-0.0033803705591708426,0.007345505058765411,-0.39832842350006104,0.6676794290542603,-0.7750997543334961,0.14494935147476076,4.576684728729601,0.1750031686098316,,,,,,
19,14,-0.7873859405517578,-0.04782912880182266,9.788753509521484,0.007511673495173454,-0.001939378562383354,0.0005133680533617735,-0.3999321460723877,0.6678086519241333,-0.7816553115844727,0.15096317461655023,4.572838205896711,0.1762228232098233,,,,,,
19,15,-0.7873859405517578,-0.04782912880182266,9.788753509521484,0.007511673495173454,-0.001939378562383354,0.0005133680533617735,-0.3999321460723877,0.6678086519241333,-0.7816553115844727,0.15096317461655023,4.572838205896711,0.1762228232098233,,,,,,
19,16,-0.7768506407737733,-0.04380544275045395,9.781249046325685,0.009639179334044456,-0.003127399599179626,0.003969305660575629,-0.40131473541259766,0.6648850440979004,-0.7812088131904603,0.1552117015776332,4.5706127474181635,0.178016147033048,,,,,,
19,17,-0.7851152420043945,-0.038747932761907584,9.780330657958984,0.009367631748318672,-0.0012818281538784504,0.003106121206656099,-0.4016146361827851,0.665720283985138,-0.7731078863143921,0.16261718117599963,4.567200290089806,0.18236003546442597,,,,,,
19,18,-0.7851152420043945,-0.038747932761907584,9.780330657958984,0.009367631748318672,-0.0012818281538784504,0.003106121206656099,-0.4016146361827851,0.665720283985138,-0.7731078863143921,0.16261718117599963,4.567200290089806,0.18236003546442597,,,,,,
19,19,-0.7994515895843506,-0.03210175782442093,9.775729179382326,0.00699013564735651,-0.0023700234014540915,0.003037232905626297,-0.4007829129695893,0.6691807508468628,-0.7760652303695679,0.165208011490401,4.565430887287833,0.183587401269156,,,,,,
19,20,-0.8288414478302002,-0.050500400364398956,9.775774955749513,0.0075209815986454496,-0.0034936252050101757,0.004742647055536509,-0.40040901303291326,0.668291449546814,-0.7811372876167298,0.1718968875442552,4.560449505916351,0.18792891279546559,,,,,,
20,0,-0.77041894197464,-0.012456116266548635,9.775358200073242,0.011423968710005285,-0.0016040983609855175,0.002587615977972746,-0.40041375160217285,0.6663674116134644,-0.7826951742172241,0.11299022630730288,4.5940595375094375,0.1668647572984934,,,,,,
20,1,-0.77041894197464,-0.012456116266548635,9.775358200073242,0.011423968710005285,-0.0016040983609855175,0.002587615977972746,-0.40041375160217285,0.6663674116134644,-0.7826951742172241,0.11299022630730288,4.5940595375094375,0.1668647572984934,,,,,,
20,2,-0.77041894197464,-0.012456116266548635,9.775358200073242,0.011423968710005285,-0.0016040983609855175,0.002587615977972746,-0.40041375160217285,0.6663674116134644,-0.7826951742172241,0.11299022630730288,4.5940595375094375,0.1668647572984934,,,,,,
20,3,-0.77041894197464,-0.012456116266548635,9.775358200073242,0.011423968710005285,-0.0016040983609855175,0.002587615977972746,-0.40041375160217285,0.6663674116134644,-0.7826951742172241,0.11299022630730288,4.5940595375094375,0.1668647572984934,,,,,,
20,4,-0.77041894197464,-0.012456116266548635,9.775358200073242,0.011423968710005285,-0.0016040983609855175,0.002587615977972746,-0.40041375160217285,0.6663674116134644,-0.7826951742172241,0.11299022630730288,4.5940595375094375,0.1668647572984934,,,,,,
20,5,-0.7816545963287354,-0.02545699290931225,9.775653839111328,0.006939100567251445,0.0013239500112831593,0.0011552161304280164,-0.40269640088081365,0.6648519635200502,-0.7786778807640077,0.11588998721929565,4.594056718298378,0.16714645594246422,,,,,,
20,6,-0.8178262114524842,-0.02887556329369545,9.783352851867678,0.008766354061663153,-0.0023297972511500124,0.00015014037489891052,-0.40116244554519653,0.6652556061744691,-0.7746354937553407,0.11976914894622259,4.591970703881731,0.16683952250595288,,,,,,
20,7,-0.8337205052375795,-0.04945893213152886,9.77547359466553,0.008855761960148811,-0.0009563175844959916,0.0019393539987504482,-0.39833649992942816,0.668167233467102,-0.7750888466835023,0.12375774380429619,4.59070949890802,0.16755548075823032,,,,,,
20,8,-0.8251327276229858,-0.051032368093729026,9.774384498596193,0.009931245818734169,-0.001950562349520624,-0.00036960668512620037,-0.3979451060295105,0.670638144016266,-0.7770559787750244,0.1282140910596196,4.588935149349942,0.16693028047260228,,,,,,
20,9,-0.826543927192688,-0.039847824722528465,9.779927253723146,0.0075217122212052345,-0.0034552437718957667,0.0027850395999848843,-0.39996823668479925,0.6707262992858887,-0.7810852527618408,0.13139160210863118,4.586340094832906,0.1681031593734316,,,,,,
20,10,-0.8267448544502259,-0.02812044322490692,9.769503593444826,0.006574024911969901,-0.0015832603676244619,0.0024929470382630825,-0.4013308882713318,0.6658605337142944,-0.7811870574951172,0.1339794846061281,4.584864079957291,0.16910063267292705,,,,,,
20,11,-0.8082641363143921,-0.023225482553243637,9.772823333740234,0.008600201457738876,-0.005209458526223899,0.002524980343878269,-0.40266367793083196,0.6643460988998413,-0.7776791453361512,0.1377069545185348,4.581357126580187,0.1701051878748974,,,,,,
20,12,-0.8028033375740052,-0.02421754412353039,9.788385391235352,0.00903755333274603,-0.00309160677716136,0.0027500316500663757,-0.40116626024246216,0.666222095489502,-0.7741089463233949,0.14167743856379408,4.579095212566412,0.1712365874436124,,,,,,
20,13,-0.7925595045089722,-0.03711026906967163,9.773612022399904,0.007484479807317257,-0.0033803705591708426,0.007345505058765411,-0.39832842350006104,0.6676794290542603,-0.7750997543334961,0.14494935147476076,4.576684728729601,0.1750031686098316,,,,,,
20,14,-0.7873859405517578,-0.04782912880182266,9.788753509521484,0.007511673495173454,-0.001939378562383354,0.0005133680533617735,-0.3999321460723877,0.6678086519241333,-0.7816553115844727,0.15096317461655023,4.572838205896711,0.1762228232098233,,,,,,
20,15,-0.7873859405517578,-0.04782912880182266,9.788753509521484,0.007511673495173454,-0.001939378562383354,0.0005133680533617735,-0.3999321460723877,0.6678086519241333,-0.7816553115844727,0.15096317461655023,4.572838205896711,0.1762228232098233,,,,,,
20,16,-0.7768506407737733,-0.04380544275045395,9.781249046325685,0.009639179334044456,-0.003127399599179626,0.003969305660575629,-0.40131473541259766,0.6648850440979004,-0.7812088131904603,0.1552117015776332,4.5706127474181635,0.178016147033048,,,,,,
20,17,-0.7851152420043945,-0.038747932761907584,9.780330657958984,0.009367631748318672,-0.0012818281538784504,0.003106121206656099,-0.4016146361827851,0.665720283985138,-0.7731078863143921,0.16261718117599963,4.567200290089806,0.18236003546442597,,,,,,
20,18,-0.7851152420043945,-0.038747932761907584,9.780330657958984,0.009367631748318672,-0.0012818281538784504,0.003106121206656099,-0.4016146361827851,0.665720283985138,-0.7731078863143921,0.16261718117599963,4.567200290089806,0.18236003546442597,,,,,,
20,19,-0.7994515895843506,-0.03210175782442093,9.775729179382326,0.00699013564735651,-0.0023700234014540915,0.003037232905626297,-0.4007829129695893,0.6691807508468628,-0.7760652303695679,0.165208011490401,4.565430887287833,0.183587401269156,,,,,,
20,20,-0.8288414478302002,-0.050500400364398956,9.775774955749513,0.0075209815986454496,-0.0034936252050101757,0.004742647055536509,-0.40040901303291326,0.668291449546814,-0.7811372876167298,0.1718968875442552,4.560449505916351,0.18792891279546559,,,,,,
21,0,-0.784242331981659,-0.045847769826650626,9.76262950897217,0.008896390907466413,-0.005616995971649886,0.0022626547142863274,-0.403223067522049,0.6639254689216615,-0.7812213897705078,0.17544232298828683,4.556932963343375,0.18867447844670737,,,,,,
21,1,-0.784242331981659,-0.045847769826650626,9.76262950897217,0.008896390907466413,-0.005616995971649886,0.0022626547142863274,-0.403223067522049,0.6639254689216615,-0.7812213897705078,0.17544232298828683,4.556932963343375,0.18867447844670737,,,,,,
21,2,-0.9604359269142152,-0.036340922117233276,9.675642013549805,0.007668489124625922,-0.006698470562696457,0.0005285950028337539,-0.4031613767147065,0.6638804078102113,-0.7786973714828491,0.17817053413270348,4.5528091717043875,0.18841042316968856,,,,,,
21,3,0.00392298260703683,-0.011391789652407171,9.914782524108888,0.006780759431421757,-0.03150328621268273,0.0004405374638736248,-0.3973823487758637,0.6686469912528993,-0.7750825881958008,0.18470271887331505,4.518976788053845,0.18914714491942516,,,,,,
21,4,-0.12430656701326372,0.03363574296236038,9.857995986938477,0.0024482449516654015,-0.017662329599261287,-0.0030243475921452045,-0.4013831317424775,0.6697537302970887,-0.7805951833724976,0.18662411107466506,4.495384169233292,0.186597956069178,,,,,,
21,5,-0.12430656701326372,0.03363574296236038,9.857995986938477,0.0024482449516654015,-0.017662329599261287,-0.0030243475921452045,-0.4013831317424775,0.6697537302970887,-0.7805951833724976,0.18662411107466506,4.495384169233292,0.186597956069178,,,,,,
21,6,-0.12430656701326372,0.03363574296236038,9.857995986938477,0.0024482449516654015,-0.017662329599261287,-0.0030243475921452045,-0.4013831317424775,0.6697537302970887,-0.7805951833724976,0.18662411107466506,4.495384169233292,0.186597956069178,,,,,,
21,7,-0.19080181419849399,-0.11375077068805695,9.781810760498047,0.0037345958407968287,-0.01457022875547409,-0.010401252657175064,-0.40126538276672363,0.6648489832878114,-0.7791895866394043,0.18665280233100606,4.485224614468722,0.18002405935055715,,,,,,
22,0,-0.784242331981659,-0.045847769826650626,9.76262950897217,0.008896390907466413,-0.005616995971649886,0.0022626547142863274,-0.403223067522049,0.6639254689216615,-0.7812213897705078,0.17544232298828683,4.556932963343375,0.18867447844670737,,,,,,
22,1,-0.784242331981659,-0.045847769826650626,9.76262950897217,0.008896390907466413,-0.005616995971649886,0.0022626547142863274,-0.403223067522049,0.6639254689216615,-0.7812213897705078,0.17544232298828683,4.556932963343375,0.18867447844670737,,,,,,
22,2,-0.9604359269142152,-0.036340922117233276,9.675642013549805,0.007668489124625922,-0.006698470562696457,0.0005285950028337539,-0.4031613767147065,0.6638804078102113,-0.7786973714828491,0.17817053413270348,4.5528091717043875,0.18841042316968856,,,,,,
22,3,0.00392298260703683,-0.011391789652407171,9.914782524108888,0.006780759431421757,-0.03150328621268273,0.0004405374638736248,-0.3973823487758637,0.6686469912528993,-0.7750825881958008,0.18470271887331505,4.518976788053845,0.18914714491942516,,,,,,
22,4,-0.12430656701326372,0.03363574296236038,9.857995986938477,0.0024482449516654015,-0.017662329599261287,-0.0030243475921452045,-0.4013831317424775,0.6697537302970887,-0.7805951833724976,0.18662411107466506,4.495384169233292,0.186597956069178,,,,,,
22,5,-0.12430656701326372,0.03363574296236038,9.857995986938477,0.0024482449516654015,-0.017662329599261287,-0.0030243475921452045,-0.4013831317424775,0.6697537302970887,-0.7805951833724976,0.18662411107466506,4.495384169233292,0.186597956069178,,,,,,
22,6,-0.12430656701326372,0.03363574296236038,9.857995986938477,0.0024482449516654015,-0.017662329599261287,-0.0030243475921452045,-0.4013831317424775,0.6697537302970887,-0.7805951833724976,0.18662411107466506,4.495384169233292,0.186597956069178,,,,,,
22,7,-0.19080181419849399,-0.11375077068805695,9.781810760498047,0.0037345958407968287,-0.01457022875547409,-0.010401252657175064,-0.40126538276672363,0.6648489832878114,-0.7791895866394043,0.18665280233100606,4.485224614468722,0.18002405935055715,,,,,,
23,0,-0.784242331981659,-0.045847769826650626,9.76262950897217,0.008896390907466413,-0.005616995971649886,0.0022626547142863274,-0.403223067522049,0.6639254689216615,-0.7812213897705078,0.17544232298828683,4.556932963343375,0.18867447844670737,,,,,,
23,1,-0.784242331981659,-0.045847769826650626,9.76262950897217,0.008896390907466413,-0.005616995971649886,0.0022626547142863274,-0.403223067522049,0.6639254689216615,-0.7812213897705078,0.17544232298828683,4.556932963343375,0.18867447844670737,,,,,,
23,2,-0.9604359269142152,-0.036340922117233276,9.675642013549805,0.007668489124625922,-0.006698470562696457,0.0005285950028337539,-0.4031613767147065,0.6638804078102113,-0.7786973714828491,0.17817053413270348,4.5528091717043875,0.18841042316968856,,,,,,
23,3,0.00392298260703683,-0.011391789652407171,9.914782524108888,0.006780759431421757,-0.03150328621268273,0.0004405374638736248,-0.3973823487758637,0.6686469912528993,-0.7750825881958008,0.18470271887331505,4.518976788053845,0.18914714491942516,,,,,,
23,4,-0.12430656701326372,0.03363574296236038,9.857995986938477,0.0024482449516654015,-0.017662329599261287,-0.0030243475921452045,-0.4013831317424775,0.6697537302970887,-0.7805951833724976,0.18662411107466506,4.495384169233292,0.186597956069178,,,,,,
23,5,-0.12430656701326372,0.03363574296236038,9.857995986938477,0.0024482449516654015,-0.017662329599261287,-0.0030243475921452045,-0.4013831317424775,0.6697537302970887,-0.7805951833724976,0.18662411107466506,4.495384169233292,0.186597956069178,,,,,,
23,6,-0.12430656701326372,0.03363574296236038,9.857995986938477,0.0024482449516654015,-0.017662329599261287,-0.0030243475921452045,-0.4013831317424775,0.6697537302970887,-0.7805951833724976,0.18662411107466506,4.495384169233292,0.186597956069178,,,,,,
23,7,-0.19080181419849399,-0.11375077068805695,9.781810760498047,0.0037345958407968287,-0.01457022875547409,-0.010401252657175064,-0.40126538276672363,0.6648489832878114,-0.7791895866394043,0.18665280233100606,4.485224614468722,0.18002405935055715,,,,,,
24,0,-0.784242331981659,-0.045847769826650626,9.76262950897217,0.008896390907466413,-0.005616995971649886,0.0022626547142863274,-0.403223067522049,0.6639254689216615,-0.7812213897705078,0.17544232298828683,4.556932963343375,0.18867447844670737,,,,,,
24,1,-0.784242331981659,-0.045847769826650626,9.76262950897217,0.008896390907466413,-0.005616995971649886,0.0022626547142863274,-0.403223067522049,0.6639254689216615,-0.7812213897705078,0.17544232298828683,4.556932963343375,0.18867447844670737,,,,,,
24,2,-0.9604359269142152,-0.036340922117233276,9.675642013549805,0.007668489124625922,-0.006698470562696457,0.0005285950028337539,-0.4031613767147065,0.6638804078102113,-0.7786973714828491,0.17817053413270348,4.5528091717043875,0.18841042316968856,,,,,,
24,3,0.00392298260703683,-0.011391789652407171,9.914782524108888,0.006780759431421757,-0.03150328621268273,0.0004405374638736248,-0.3973823487758637,0.6686469912528993,-0.7750825881958008,0.18470271887331505,4.518976788053845,0.18914714491942516,,,,,,
24,4,-0.12430656701326372,0.03363574296236038,9.857995986938477,0.0024482449516654015,-0.017662329599261287,-0.0030243475921452045,-0.4013831317424775,0.6697537302970887,-0.7805951833724976,0.18662411107466506,4.495384169233292,0.186597956069178,,,,,,
24,5,-0.12430656701326372,0.03363574296236038,9.857995986938477,0.0024482449516654015,-0.017662329599261287,-0.0030243475921452045,-0.4013831317424775,0.6697537302970887,-0.7805951833724976,0.18662411107466506,4.495384169233292,0.186597956069178,,,,,,
24,6,-0.12430656701326372,0.03363574296236038,9.857995986938477,0.0024482449516654015,-0.017662329599261287,-0.0030243475921452045,-0.4013831317424775,0.6697537302970887,-0.7805951833724976,0.18662411107466506,4.495384169233292,0.186597956069178,,,,,,
24,7,-0.19080181419849399,-0.11375077068805695,9.781810760498047,0.0037345958407968287,-0.01457022875547409,-0.010401252657175064,-0.40126538276672363,0.6648489832878114,-0.7791895866394043,0.18665280233100606,4.485224614468722,0.18002405935055715,,,,,,
25,0,-0.784242331981659,-0.045847769826650626,9.76262950897217,0.008896390907466413,-0.005616995971649886,0.0022626547142863274,-0.403223067522049,0.6639254689216615,-0.7812213897705078,0.17544232298828683,4.556932963343375,0.18867447844670737,,,,,,
25,1,-0.784242331981659,-0.045847769826650626,9.76262950897217,0.008896390907466413,-0.005616995971649886,0.0022626547142863274,-0.403223067522049,0.6639254689216615,-0.7812213897705078,0.17544232298828683,4.556932963343375,0.18867447844670737,,,,,,
25,2,-0.9604359269142152,-0.036340922117233276,9.675642013549805,0.007668489124625922,-0.006698470562696457,0.0005285950028337539,-0.4031613767147065,0.6638804078102113,-0.7786973714828491,0.17817053413270348,4.5528091717043875,0.18841042316968856,,,,,,
25,3,0.00392298260703683,-0.011391789652407171,9.914782524108888,0.006780759431421757,-0.03150328621268273,0.0004405374638736248,-0.3973823487758637,0.6686469912528993,-0.7750825881958008,0.18470271887331505,4.518976788053845,0.18914714491942516,,,,,,
25,4,-0.12430656701326372,0.03363574296236038,9.857995986938477,0.0024482449516654015,-0.017662329599261287,-0.0030243475921452045,-0.4013831317424775,0.6697537302970887,-0.7805951833724976,0.18662411107466506,4.495384169233292,0.186597956069178,,,,,,
25,5,-0.12430656701326372,0.03363574296236038,9.857995986938477,0.0024482449516654015,-0.017662329599261287,-0.0030243475921452045,-0.4013831317424775,0.6697537302970887,-0.7805951833724976,0.18662411107466506,4.495384169233292,0.186597956069178,,,,,,
25,6,-0.12430656701326372,0.03363574296236038,9.857995986938477,0.0024482449516654015,-0.017662329599261287,-0.0030243475921452045,-0.4013831317424775,0.6697537302970887,-0.7805951833724976,0.18662411107466506,4.495384169233292,0.186597956069178,,,,,,
25,7,-0.19080181419849399,-0.11375077068805695,9.781810760498047,0.0037345958407968287,-0.01457022875547409,-0.010401252657175064,-0.40126538276672363,0.6648489832878114,-0.7791895866394043,0.18665280233100606,4.485224614468722,0.18002405935055715,,,,,,
26,0,-0.784242331981659,-0.045847769826650626,9.76262950897217,0.008896390907466413,-0.005616995971649886,0.0022626547142863274,-0.403223067522049,0.6639254689216615,-0.7812213897705078,0.17544232298828683,4.556932963343375,0.18867447844670737,,,,,,
26,1,-0.784242331981659,-0.045847769826650626,9.76262950897217,0.008896390907466413,-0.005616995971649886,0.0022626547142863274,-0.403223067522049,0.6639254689216615,-0.7812213897705078,0.17544232298828683,4.556932963343375,0.18867447844670737,,,,,,
26,2,-0.9604359269142152,-0.036340922117233276,9.675642013549805,0.007668489124625922,-0.006698470562696457,0.0005285950028337539,-0.4031613767147065,0.6638804078102113,-0.7786973714828491,0.17817053413270348,4.5528091717043875,0.18841042316968856,,,,,,
26,3,0.00392298260703683,-0.011391789652407171,9.914782524108888,0.006780759431421757,-0.03150328621268273,0.0004405374638736248,-0.3973823487758637,0.6686469912528993,-0.7750825881958008,0.18470271887331505,4.518976788053845,0.18914714491942516,,,,,,
26,4,-0.12430656701326372,0.03363574296236038,9.857995986938477,0.0024482449516654015,-0.017662329599261287,-0.0030243475921452045,-0.4013831317424775,0.6697537302970887,-0.7805951833724976,0.18662411107466506,4.495384169233292,0.186597956069178,,,,,,
26,5,-0.12430656701326372,0.03363574296236038,9.857995986938477,0.0024482449516654015,-0.017662329599261287,-0.0030243475921452045,-0.4013831317424775,0.6697537302970887,-0.7805951833724976,0.18662411107466506,4.495384169233292,0.186597956069178,,,,,,
26,6,-0.12430656701326372,0.03363574296236038,9.857995986938477,0.0024482449516654015,-0.017662329599261287,-0.0030243475921452045,-0.4013831317424775,0.6697537302970887,-0.7805951833724976,0.18662411107466506,4.495384169233292,0.186597956069178,,,,,,
26,7,-0.19080181419849399,-0.11375077068805695,9.781810760498047,0.0037345958407968287,-0.01457022875547409,-0.010401252657175064,-0.40126538276672363,0.6648489832878114,-0.7791895866394043,0.18665280233100606,4.485224614468722,0.18002405935055715,,,,,,
27,0,-0.784242331981659,-0.045847769826650626,9.76262950897217,0.008896390907466413,-0.005616995971649886,0.0022626547142863274,-0.403223067522049,0.6639254689216615,-0.7812213897705078,0.17544232298828683,4.556932963343375,0.18867447844670737,,,,,,
27,1,-0.784242331981659,-0.045847769826650626,9.76262950897217,0.008896390907466413,-0.005616995971649886,0.0022626547142863274,-0.403223067522049,0.6639254689216615,-0.7812213897705078,0.17544232298828683,4.556932963343375,0.18867447844670737,,,,,,
27,2,-0.9604359269142152,-0.036340922117233276,9.675642013549805,0.007668489124625922,-0.006698470562696457,0.0005285950028337539,-0.4031613767147065,0.6638804078102113,-0.7786973714828491,0.17817053413270348,4.5528091717043875,0.18841042316968856,,,,,,
27,3,0.00392298260703683,-0.011391789652407171,9.914782524108888,0.006780759431421757,-0.03150328621268273,0.0004405374638736248,-0.3973823487758637,0.6686469912528993,-0.7750825881958008,0.18470271887331505,4.518976788053845,0.18914714491942516,,,,,,
27,4,-0.12430656701326372,0.03363574296236038,9.857995986938477,0.0024482449516654015,-0.017662329599261287,-0.0030243475921452045,-0.4013831317424775,0.6697537302970887,-0.7805951833724976,0.18662411107466506,4.495384169233292,0.186597956069178,,,,,,
27,5,-0.12430656701326372,0.03363574296236038,9.857995986938477,0.0024482449516654015,-0.017662329599261287,-0.0030243475921452045,-0.4013831317424775,0.6697537302970887,-0.7805951833724976,0.18662411107466506,4.495384169233292,0.186597956069178,,,,,,
27,6,-0.12430656701326372,0.03363574296236038,9.857995986938477,0.0024482449516654015,-0.017662329599261287,-0.0030243475921452045,-0.4013831317424775,0.6697537302970887,-0.7805951833724976,0.18662411107466506,4.495384169233292,0.186597956069178,,,,,,
27,7,-0.19080181419849399,-0.11375077068805695,9.781810760498047,0.0037345958407968287,-0.01457022875547409,-0.010401252657175064,-0.40126538276672363,0.6648489832878114,-0.7791895866394043,0.18665280233100606,4.485224614468722,0.18002405935055715,,,,,,
