frame_id,imu_idx,quat_w,quat_x,quat_y,quat_z,accel_x,accel_y,accel_z,free_accel_x,free_accel_y,free_accel_z,delta_v_x,delta_v_y,delta_v_z,delta_q_w,delta_q_x,delta_q_y,delta_q_z,rate_x,rate_y,rate_z,quat_w,quat_x,quat_y,quat_z,mag_x,mag_y,mag_z,temperature,status_byte,packet_counter,time_fine
1,1,0.9994,-0.00436385,0.0343679,-0.000134391,-0.660649,-0.0757036,9.78452,0.0727594,-0.487229,0.987744,-0.00660864,-0.0007631,0.097845,1,2.97877e-05,-1.10826e-05,1.77544e-05,0.00595753,-0.00221651,0.00355089,0.9994,-0.00436385,0.0343679,-0.000134391,0.0756035,0.514873,-0.984344,31.6875,1,21183,15275699
1,2,0.9994,-0.00433085,0.0343575,-0.000127656,-0.668461,-0.0798881,9.79064,0.0668675,-0.49169,0.993903,-0.00668608,-0.000805599,0.0979063,1,3.33656e-05,-7.65922e-06,1.38467e-05,0.00667313,-0.00153184,0.00276935,0.9994,-0.00433085,0.0343575,-0.000127656,0.0780869,0.513832,-0.981853,31.6875,1,21184,15275799
1,3,0.999401,-0.00422451,0.0343357,-0.000101696,-0.664675,-0.0779567,9.79708,0.0624619,-0.492105,1.00128,-0.00664875,-0.000789481,0.0979706,1,4.98687e-05,-1.0278e-05,1.07678e-05,0.00997373,-0.00205559,0.00215355,0.999401,-0.00422451,0.0343357,-0.000101696,0.0776015,0.513358,-0.982367,31.6875,1,21186,15275999
1,4,0.999402,-0.00414303,0.0343197,-6.01583e-05,-0.66955,-0.0761002,9.79305,0.0601936,-0.494135,0.995577,-0.00669712,-0.000769367,0.0979303,1,4.10565e-05,-8.45633e-06,2.41287e-05,0.00821129,-0.00169127,0.00482573,0.999402,-0.00414303,0.0343197,-6.01583e-05,0.0775726,0.512897,-0.983892,31.6875,1,21188,15276199
2,1,0.999404,-0.00404066,0.0342925,-1.90562e-05,-0.663016,-0.0872802,9.78985,0.0674929,-0.504359,0.995672,-0.00663176,-0.00088308,0.0978983,1,5.10626e-05,-8.37266e-06,2.10831e-05,0.0102125,-0.00167453,0.00421662,0.999404,-0.00404066,0.0342925,-1.90562e-05,0.0770791,0.51291,-0.984394,31.6875,1,21190,15276399
2,2,0.999405,-0.00394435,0.0342668,-1.59494e-05,-0.655363,-0.0889596,9.79319,0.0741773,-0.50649,0.998125,-0.00655788,-0.000898117,0.0979316,1,4.37665e-05,-2.16422e-05,-3.93022e-06,0.0087533,-0.00432844,-0.000786043,0.999405,-0.00394435,0.0342668,-1.59494e-05,0.0771,0.513858,-0.982858,31.6875,1,21192,15276599
2,3,0.999406,-0.0039037,0.0342531,-6.27775e-07,-0.656948,-0.0779325,9.7899,0.0737237,-0.500934,0.99186,-0.0065721,-0.000787531,0.0978987,1,4.0777e-05,-1.35132e-05,1.68962e-05,0.00815541,-0.00270265,0.00337925,0.999406,-0.0039037,0.0342531,-6.27775e-07,0.0780048,0.514374,-0.984871,31.6875,1,21193,15276699
2,4,0.999406,-0.00383053,0.0342492,1.19451e-05,-0.659046,-0.0818078,9.78852,0.0693969,-0.505268,0.996758,-0.00658979,-0.000823957,0.0978852,1,2.96049e-05,3.32685e-06,6.32346e-06,0.00592098,0.00066537,0.00126469,0.999406,-0.00383053,0.0342492,1.19451e-05,0.0775356,0.512924,-0.985406,31.6875,1,21195,15276899
3,1,0.999406,-0.00375305,0.0342516,3.27322e-05,-0.659906,-0.0727734,9.78622,0.0707808,-0.492985,0.991871,-0.00659836,-0.000738369,0.0978621,1,5.3389e-05,3.4608e-06,1.41171e-05,0.0106778,0.00069216,0.00282343,0.999406,-0.00375305,0.0342516,3.27322e-05,0.0771119,0.512404,-0.983396,31.6875,1,21197,15277099
3,2,0.999407,-0.00367576,0.0342312,5.90393e-05,-0.666981,-0.0908559,9.79325,0.0638352,-0.517239,0.994309,-0.00667265,-0.000914799,0.0979323,1,3.07152e-05,-1.4709e-05,1.67545e-05,0.00614305,-0.00294179,0.0033509,0.999407,-0.00367576,0.0342312,5.90393e-05,0.0770222,0.514879,-0.98536,31.6875,1,21199,15277299
3,3,0.999408,-0.00357287,0.0342038,0.000105427,-0.666868,-0.084228,9.7838,0.0613578,-0.513589,0.992523,-0.00667012,-0.00085194,0.0978378,1,4.81996e-05,-7.48985e-06,1.71606e-05,0.00963992,-0.00149797,0.00343213,0.999408,-0.00357287,0.0342038,0.000105427,0.0775679,0.510973,-0.98545,31.6875,1,21201,15277499
3,4,0.999409,-0.00347875,0.0342032,0.00013623,-0.666515,-0.0866238,9.79564,0.0651361,-0.514194,0.998843,-0.00666488,-0.000876193,0.0979564,1,4.9429e-05,1.22349e-06,2.03365e-05,0.0098858,0.000244699,0.00406729,0.999409,-0.00347875,0.0342032,0.00013623,0.0780665,0.514329,-0.982347,31.6875,1,21203,15277699
4,1,0.99941,-0.00343655,0.034186,0.000155796,-0.662602,-0.0767078,9.78792,0.0646541,-0.508901,0.991317,-0.00662929,-0.000775612,0.0978789,1,4.21071e-05,-1.69132e-05,2.19248e-05,0.00842141,-0.00338264,0.00438495,0.99941,-0.00343655,0.034186,0.000155796,0.0780746,0.513841,-0.982358,31.6875,1,21204,15277799
4,2,0.999411,-0.00334162,0.0341641,0.000182101,-0.667741,-0.0863819,9.79465,0.0612479,-0.521172,0.993925,-0.00667833,-0.000872675,0.0979463,1,4.4061e-05,-4.85417e-06,1.67897e-05,0.00881219,-0.000970833,0.00335794,0.999411,-0.00334162,0.0341641,0.000182101,0.0760268,0.513948,-0.987397,31.6875,1,21206,15277999
4,3,0.999411,-0.00326178,0.0341621,0.000212902,-0.660186,-0.0813808,9.78988,0.0714581,-0.52245,0.995055,-0.00660069,-0.000823599,0.0978988,1,4.85497e-05,5.80273e-06,2.15864e-05,0.00970994,0.00116055,0.00431727,0.999411,-0.00326178,0.0341621,0.000212902,0.0780575,0.511926,-0.984421,31.6875,1,21208,15278199
4,4,0.999412,-0.00315764,0.0341354,0.000251776,-0.660283,-0.0920658,9.79556,0.067338,-0.530246,0.997086,-0.00660406,-0.000931432,0.0979554,1,5.31654e-05,-6.53222e-06,2.7124e-05,0.0106331,-0.00130644,0.0054248,0.999412,-0.00315764,0.0341354,0.000251776,0.0784983,0.514361,-0.984369,31.6875,1,21210,15278399
5,1,0.999413,-0.00308195,0.0341235,0.000289391,-0.669898,-0.0836857,9.78993,0.055615,-0.528072,0.993534,-0.00669896,-0.000844547,0.0978993,1,3.75845e-05,-9.13169e-08,2.47544e-05,0.00751691,-1.82634e-05,0.00495088,0.999413,-0.00308195,0.0341235,0.000289391,0.0775479,0.512915,-0.984901,31.6875,1,21212,15278599
5,2,0.999413,-0.00304437,0.0341103,0.000309979,-0.663112,-0.0770754,9.78756,0.0666155,-0.521116,0.990878,-0.00663358,-0.000778352,0.0978754,1,3.73255e-05,-1.27462e-05,2.19793e-05,0.00746509,-0.00254925,0.00439586,0.999413,-0.00304437,0.0341103,0.000309979,0.0770668,0.512919,-0.984899,31.6875,1,21213,15278699
5,3,0.999414,-0.00296456,0.0340911,0.000334893,-0.66679,-0.0781009,9.79709,0.0617715,-0.522414,0.997544,-0.00666927,-0.000790419,0.0979707,1,4.75403e-05,-7.04647e-06,7.11897e-06,0.00950806,-0.00140929,0.00142379,0.999414,-0.00296456,0.0340911,0.000334893,0.0785965,0.512844,-0.981372,31.6875,1,21215,15278899
5,4,0.999415,-0.00287388,0.0340754,0.000359366,-0.658299,-0.0854653,9.79085,0.0658436,-0.529974,0.989883,-0.00658522,-0.000864909,0.0979083,1,5.14629e-05,-1.14981e-05,1.35305e-05,0.0102926,-0.00229962,0.0027061,0.999415,-0.00287388,0.0340754,0.000359366,0.0770303,0.514391,-0.985371,31.6875,1,21217,15279099
6,1,0.999416,-0.00275772,0.034069,0.00037817,-0.662671,-0.0828042,9.79397,0.0665533,-0.529998,0.997827,-0.00662809,-0.000837769,0.0979395,1,4.93806e-05,-7.09119e-06,4.16282e-06,0.00987611,-0.00141824,0.000832564,0.999416,-0.00275772,0.034069,0.00037817,0.075595,0.513915,-0.985375,31.6875,1,21219,15279299
6,2,0.999416,-0.00269221,0.0340488,0.000396417,-0.67131,-0.0873156,9.77668,0.0604482,-0.538705,0.977317,-0.00671341,-0.000880618,0.0977667,1,3.77484e-05,-1.62272e-06,6.04044e-06,0.00754968,-0.000324543,0.00120809,0.999416,-0.00269221,0.0340488,0.000396417,0.0761463,0.514824,-0.981822,31.6875,1,21221,15279499
6,3,0.999418,-0.00263156,0.0340236,0.000409589,-0.676147,-0.0745045,9.79106,0.0492992,-0.529434,0.990116,-0.00676232,-0.000751132,0.0979105,1,3.02083e-05,-4.433e-06,1.26643e-05,0.00604166,-0.000886599,0.00253286,0.999418,-0.00263156,0.0340236,0.000409589,0.0788731,0.516362,-0.987356,31.6875,1,21223,15279699
6,4,0.999418,-0.0025892,0.034016,0.000408539,-0.659953,-0.0841576,9.78681,0.0610858,-0.536337,0.986512,-0.00660089,-0.000850097,0.097868,1,4.34126e-05,-6.97596e-06,1.81578e-06,0.00868252,-0.00139519,0.000363156,0.999418,-0.0025892,0.034016,0.000408539,0.0789301,0.514393,-0.98639,31.6875,1,21224,15279799
7,1,0.999419,-0.00249112,0.0340016,0.000443554,-0.663665,-0.0917036,9.79288,0.059172,-0.549142,0.995937,-0.00663718,-0.000926794,0.0979286,1,4.88442e-05,-2.87411e-06,1.44055e-05,0.00976883,-0.000574822,0.00288111,0.999419,-0.00249112,0.0340016,0.000443554,0.0766023,0.513393,-0.983876,31.6875,1,21226,15279999
7,2,0.999418,-0.00242515,0.0340103,0.000462297,-0.661709,-0.0908934,9.79965,0.0634349,-0.552462,1.00409,-0.00661597,-0.000915481,0.0979965,1,3.20915e-05,5.53934e-06,1.94237e-05,0.00641831,0.00110787,0.00388474,0.999418,-0.00242515,0.0340103,0.000462297,0.0761012,0.515339,-0.983326,31.6875,1,21228,15280199
7,3,0.999419,-0.00233053,0.0340004,0.000494015,-0.664391,-0.0889528,9.79629,0.0613252,-0.548744,0.995857,-0.0066444,-0.000899963,0.0979628,1,5.14816e-05,-2.74185e-06,2.61832e-05,0.0102963,-0.00054837,0.00523665,0.999419,-0.00233053,0.0340004,0.000494015,0.0770341,0.513425,-0.985898,31.6875,1,21230,15280399
7,4,0.99942,-0.00223379,0.0339751,0.000537651,-0.659651,-0.0677358,9.79815,0.0657875,-0.530696,0.996337,-0.00659875,-0.000687215,0.0979813,1,4.89859e-05,-1.1531e-05,1.95744e-05,0.00979718,-0.0023062,0.00391488,0.99942,-0.00223379,0.0339751,0.000537651,0.076627,0.513375,-0.982867,31.6875,1,21232,15280599
8,1,0.999421,-0.00218959,0.0339522,0.000536797,-0.667725,-0.0790639,9.79438,0.0608644,-0.53878,0.997623,-0.00668158,-0.000799926,0.0979434,1,4.7341e-05,-2.21078e-05,9.57745e-07,0.00946819,-0.00442156,0.000191549,0.999421,-0.00218959,0.0339522,0.000536797,0.0770345,0.51487,-0.984856,31.6875,1,21233,15280699
8,2,0.999422,-0.00212552,0.0339234,0.000561609,-0.668813,-0.0866481,9.78956,0.0559515,-0.555231,0.991654,-0.00669062,-0.000874702,0.0978954,1,4.1373e-05,-1.28207e-05,9.05451e-06,0.0082746,-0.00256414,0.0018109,0.999422,-0.00212552,0.0339234,0.000561609,0.0770341,0.513425,-0.985898,31.6875,1,21235,15280899
8,3,0.999423,-0.00203583,0.0339061,0.000580228,-0.664432,-0.0804838,9.79433,0.0593097,-0.541272,0.992924,-0.00664645,-0.00081441,0.0979431,1,4.75681e-05,-1.10531e-05,1.9096e-05,0.00951362,-0.00221062,0.0038192,0.999423,-0.00203583,0.0339061,0.000580228,0.0761373,0.512421,-0.983896,31.6875,1,21237,15281099
8,4,0.999423,-0.00194991,0.0339052,0.000604022,-0.660489,-0.074949,9.78925,0.0636166,-0.538812,0.98645,-0.00660496,-0.000757712,0.0978925,1,4.12278e-05,-4.2486e-07,1.14143e-05,0.00824556,-8.4972e-05,0.00228287,0.999423,-0.00194991,0.0339052,0.000604022,0.0756567,0.51387,-0.982851,31.6875,1,21239,15281299
9,1,0.999424,-0.00187592,0.0338816,0.000613634,-0.661038,-0.0754359,9.79571,0.0657667,-0.545069,0.993544,-0.00661132,-0.000760689,0.097957,1,3.19109e-05,-4.82427e-06,5.87464e-06,0.00638218,-0.000964854,0.00117493,0.999424,-0.00187592,0.0338816,0.000613634,0.0794439,0.513883,-0.985394,31.6875,1,21241,15281499
9,2,0.999425,-0.00184204,0.0338632,0.000621273,-0.669533,-0.0787754,9.78963,0.0531113,-0.549607,0.990608,-0.00669879,-0.00079581,0.097896,1,4.00802e-05,-1.77809e-05,1.55702e-05,0.00801604,-0.00355619,0.00311404,0.999425,-0.00184204,0.0338632,0.000621273,0.0785182,0.512419,-0.984917,31.6875,1,21242,15281599
9,3,0.999425,-0.00175112,0.0338587,0.000640923,-0.669081,-0.0739668,9.78457,0.0521808,-0.54692,0.983702,-0.00669069,-0.000748799,0.0978457,1,4.56348e-05,4.87737e-07,1.50206e-05,0.00912695,9.75475e-05,0.00300412,0.999425,-0.00175112,0.0338587,0.000640923,0.0761701,0.511915,-0.982897,31.6875,1,21244,15281799
9,4,0.999426,-0.00164912,0.033834,0.000661969,-0.660221,-0.0843295,9.78546,0.0617916,-0.561614,0.984793,-0.00660617,-0.000854158,0.0978542,1,5.45774e-05,-2.03418e-05,1.37836e-05,0.0109155,-0.00406836,0.00275671,0.999426,-0.00164912,0.033834,0.000661969,0.077565,0.51483,-0.982839,31.6875,1,21246,15281999
10,1,0.999426,-0.00157576,0.0338347,0.000677689,-0.661705,-0.0859577,9.79053,0.0617619,-0.562098,0.984697,-0.00661687,-0.000866577,0.0979053,1,3.49265e-05,8.30583e-07,1.21852e-05,0.00698531,0.000166117,0.00243705,0.999426,-0.00157576,0.0338347,0.000677689,0.078959,0.514854,-0.984865,31.6875,1,21248,15282199
10,2,0.999427,-0.00149094,0.0338191,0.000693523,-0.666459,-0.0848105,9.80041,0.0561185,-0.565274,0.997436,-0.00666504,-0.000860293,0.098004,1,6.17541e-05,-2.3525e-06,6.28663e-06,0.0123508,-0.000470499,0.00125733,0.999427,-0.00149094,0.0338191,0.000693523,0.0752614,0.512366,-0.980357,31.6875,1,21250,15282399
10,3,0.999428,-0.00139781,0.0337901,0.000728058,-0.663642,-0.0865518,9.79259,0.0590474,-0.564384,0.992027,-0.00664036,-0.000875355,0.0979255,1,4.90786e-05,-2.0238e-05,1.69914e-05,0.00981572,-0.00404759,0.00339827,0.999428,-0.00139781,0.0337901,0.000728058,0.0785106,0.514352,-0.983864,31.6875,1,21252,15282599
10,4,0.999428,-0.00135068,0.0337786,0.00072932,-0.66709,-0.0823926,9.79739,0.0525511,-0.563744,0.997675,-0.00667286,-0.000834993,0.0979736,1,5.55236e-05,-1.00878e-05,1.40092e-05,0.0111047,-0.00201756,0.00280183,0.999428,-0.00135068,0.0337786,0.00072932,0.0775484,0.51436,-0.983859,31.6875,1,21253,15282699
11,1,0.999429,-0.00127266,0.0337563,0.000737721,-0.665525,-0.0824442,9.78788,0.0546813,-0.566041,0.987863,-0.00665645,-0.000834202,0.0978786,1,4.86727e-05,-6.28448e-06,1.7416e-05,0.00973454,-0.0012569,0.00348319,0.999429,-0.00127266,0.0337563,0.000737721,0.0751794,0.512908,-0.983375,31.6875,1,21255,15282899
11,2,0.99943,-0.00119372,0.0337381,0.000775266,-0.646367,-0.0843941,9.79044,0.0707516,-0.565912,0.986483,-0.00646592,-0.000852048,0.0979042,1,4.03505e-05,-1.16619e-05,1.59295e-05,0.0080701,-0.00233237,0.0031859,0.99943,-0.00119372,0.0337381,0.000775266,0.0775935,0.513845,-0.982356,31.6875,1,21257,15283099
11,3,0.99943,-0.00110809,0.0337279,0.000772939,-0.661976,-0.0875473,9.78578,0.0615535,-0.575109,0.9856,-0.00662213,-0.000884523,0.0978575,1,4.57056e-05,-1.22263e-05,7.89946e-06,0.00914113,-0.00244527,0.00157989,0.99943,-0.00110809,0.0337279,0.000772939,0.0760718,0.513433,-0.985893,31.6875,1,21259,15283299
11,4,0.99943,-0.00105239,0.0337209,0.000799966,-0.65971,-0.0663466,9.78423,0.0577644,-0.550183,0.979559,-0.00659658,-0.000671114,0.0978423,1,3.77239e-05,2.52029e-06,2.01244e-05,0.00754478,0.000504058,0.00402488,0.99943,-0.00105239,0.0337209,0.000799966,0.0771238,0.51095,-0.983933,31.6875,1,21261,15283499
12,1,0.999431,-0.00101446,0.0337169,0.000821968,-0.658068,-0.0744702,9.78484,0.0602271,-0.561013,0.98155,-0.00658152,-0.000753309,0.0978483,1,4.25466e-05,-4.48311e-06,2.12843e-05,0.00850932,-0.000896621,0.00425687,0.999431,-0.00101446,0.0337169,0.000821968,0.0785799,0.512374,-0.982393,31.6875,1,21262,15283599
12,2,0.999431,-0.00094575,0.0336991,0.000801403,-0.658327,-0.086542,9.78881,0.0592477,-0.576347,0.989461,-0.00658408,-0.000874384,0.0978879,1,4.48692e-05,-4.2692e-06,1.36793e-05,0.00897385,-0.000853841,0.00273586,0.999431,-0.00094575,0.0336991,0.000801403,0.0775726,0.512897,-0.983892,31.6875,1,21264,15283799
12,3,0.999433,-0.000887397,0.0336614,0.000776635,-0.596153,-0.0731726,9.84281,0.0992037,-0.567798,1.0167,-0.00596645,-0.000740679,0.0984278,1,4.39438e-05,-2.51776e-05,2.535e-05,0.00878876,-0.00503551,0.00507,0.999433,-0.000887397,0.0336614,0.000776635,0.0775441,0.513881,-0.984375,31.6875,1,21266,15283999
12,4,0.999431,-0.00086472,0.0337233,0.000759713,-0.758709,-0.0993794,9.71603,0.0087187,-0.591838,0.903898,-0.00758148,-0.00100308,0.0971607,1,4.65804e-05,2.8692e-05,1.56801e-05,0.00931608,0.0057384,0.00313602,0.999431,-0.00086472,0.0337233,0.000759713,0.0765653,0.51342,-0.985391,31.6875,1,21268,15284199
13,1,0.999434,-0.000825918,0.033626,0.000751932,-0.722975,-0.0772213,9.83858,-0.0218038,-0.569149,1.02781,-0.00724409,-0.00077692,0.0983847,1,2.25511e-05,-7.30288e-05,1.86687e-05,0.00451022,-0.0146058,0.00373374,0.999434,-0.000825918,0.033626,0.000751932,0.0766227,0.512896,-0.983382,31.6875,1,21270,15284399
13,2,0.999434,-0.000751945,0.0336212,0.00072944,-0.514642,-0.0877738,9.74743,0.242936,-0.591504,0.991227,-0.00513388,-0.00089179,0.0974748,1,7.15105e-05,6.42433e-05,1.08478e-05,0.0143021,0.0128487,0.00216956,0.999434,-0.000751945,0.0336212,0.00072944,0.0760761,0.513911,-0.985377,31.6875,1,21272,15284599
13,3,0.999432,-0.000740765,0.0336948,0.000709398,-0.776542,-0.0686711,9.83143,-0.022293,-0.562575,1.06893,-0.00774858,-0.000693416,0.0983156,1,3.2848e-05,8.54934e-05,1.58613e-05,0.00656959,0.0170987,0.00317226,0.999432,-0.000740765,0.0336948,0.000709398,0.0765985,0.514359,-0.98335,31.6875,1,21273,15284699
13,4,0.999435,-0.000686766,0.0336046,0.000624783,-0.787232,-0.0801949,9.77793,-0.0898134,-0.558375,0.992273,-0.00789052,-0.000796437,0.0977779,1,-2.981e-05,-9.32182e-05,2.01746e-05,-0.005962,-0.0186436,0.00403493,0.999435,-0.000686766,0.0336046,0.000624783,0.0770915,0.512901,-0.983889,31.6875,1,21275,15284899
14,1,0.999438,-0.000661405,0.0335024,0.000554932,-0.439049,-0.044828,9.87152,0.241815,-0.506604,0.904021,-0.00440756,-0.000435597,0.0987145,1,-6.47838e-05,-8.65012e-05,1.22462e-05,-0.0129568,-0.0173002,0.00244924,0.999438,-0.000661405,0.0335024,0.000554932,0.0760884,0.513902,-0.984873,31.6875,1,21277,15285099
14,2,0.999429,-0.000406486,0.0337786,0.000470906,-0.986749,-0.00211502,9.66604,-0.190766,-0.52106,0.987839,-0.00982617,-5.95851e-05,0.0966646,1,0.000199593,0.000213728,-7.68923e-06,0.0399186,0.0427455,-0.00153785,0.999429,-0.000406486,0.0337786,0.000470906,0.0771527,0.511411,-0.982408,31.6875,1,21279,15285299
14,3,0.99944,-0.000536968,0.0334571,0.000477969,-0.487657,-0.245076,9.85226,0.234899,-0.73671,1.18517,-0.00492253,-0.00243579,0.0985207,1,-7.72049e-05,-0.000233898,2.4591e-05,-0.015441,-0.0467796,0.0049182,0.99944,-0.000536968,0.0334571,0.000477969,0.0756486,0.514358,-0.98284,31.6875,1,21281,15285499
14,4,0.999438,-0.000397612,0.0335308,0.000389951,-0.339238,-0.129076,9.89451,0.429435,-0.653628,1.07361,-0.00337595,-0.00131955,0.0989452,1,0.000145344,8.29665e-05,4.8939e-06,0.0290687,0.0165933,0.000978781,0.999438,-0.000397612,0.0335308,0.000389951,0.0766312,0.513853,-0.982351,31.6875,1,21282,15285599
15,1,0.999434,-0.000311984,0.0336475,0.000152389,-0.765511,-0.0511176,9.69946,-0.0532738,-0.56009,0.862541,-0.00762708,-0.000526091,0.0969967,1,7.64396e-05,0.000144436,5.68734e-06,0.0152879,0.0288872,0.00113747,0.999434,-0.000311984,0.0336475,0.000152389,0.076516,0.513456,-0.98741,31.6875,1,21284,15285799
15,2,0.999442,-0.000324623,0.0333928,-0.000131329,-0.715117,-0.0740861,9.77415,-0.0711395,-0.558369,0.903649,-0.00718094,-0.000744554,0.0977393,1,1.75223e-05,-0.000152396,1.86989e-05,0.00350445,-0.0304792,0.00373977,0.999442,-0.000324623,0.0333928,-0.000131329,0.078523,0.514343,-0.983359,31.6875,1,21286,15285999
15,3,0.999444,-0.000336971,0.0333427,-0.000872463,-0.468365,-0.111249,9.78155,0.23175,-0.623175,0.974262,-0.00468376,-0.00112354,0.0978154,1,5.55833e-05,-8.04967e-07,1.92444e-05,0.0111167,-0.000160993,0.00384887,0.999444,-0.000336971,0.0333427,-0.000872463,0.0775446,0.515327,-0.983333,31.6875,1,21288,15286199
15,4,0.999441,-0.000273562,0.0333798,-0.00174104,-0.771165,0.0323677,9.81834,-0.0448827,-0.474284,1.01633,-0.00769255,0.000306994,0.0981849,1,8.42137e-05,9.73233e-05,9.45897e-06,0.0168427,0.0194647,0.00189179,0.999441,-0.000273562,0.0333798,-0.00174104,0.0790606,0.510925,-0.983437,31.6875,1,21290,15286399
16,1,0.999442,-0.000344196,0.0333594,-0.00151151,-0.748906,-0.113905,9.82288,-0.0556491,-0.606055,1.0614,-0.0075085,-0.00113297,0.0982273,1,-3.22269e-05,-9.91225e-05,1.65514e-05,-0.00644538,-0.0198245,0.00331029,0.999442,-0.000344196,0.0333594,-0.00151151,0.0766797,0.510927,-0.982416,31.6875,1,21291,15286499
16,2,0.999443,-0.000261318,0.0333631,-0.00115507,-0.281242,-0.148188,9.74875,0.450938,-0.633585,0.939339,-0.00281654,-0.00147304,0.0974875,1,-4.64953e-05,-2.17281e-05,3.96845e-05,-0.00929906,-0.00434562,0.00793691,0.999443,-0.000261318,0.0333631,-0.00115507,0.0771698,0.513326,-0.980345,31.6875,1,21293,15286699
16,3,0.999437,-0.000107121,0.0335125,-0.00146156,-0.856827,0.020226,9.76461,-0.11881,-0.487684,0.999377,-0.00856644,0.000194434,0.0976463,1,3.74325e-05,9.45999e-06,3.01015e-05,0.00748651,0.001892,0.00602029,0.999437,-0.000107121,0.0335125,-0.00146156,0.0785064,0.513873,-0.984379,31.6875,1,21295,15286899
16,4,0.999442,-0.000118208,0.0333741,-0.00168626,-0.593897,-0.119717,9.84848,0.133326,-0.650295,1.04933,-0.00593848,-0.00121918,0.0984846,1,0.000111418,2.40715e-06,5.34899e-06,0.0222835,0.000481429,0.0010698,0.999442,-0.000118208,0.0333741,-0.00168626,0.0780618,0.512405,-0.983905,31.6875,1,21297,15287099
17,1,0.999444,-9.96086e-05,0.0332981,-0.00169194,-0.555458,-0.0983427,9.79524,0.129418,-0.604778,1.03202,-0.00557731,-0.000981249,0.0979511,1,-1.2899e-05,-0.000116372,3.13384e-05,-0.0025798,-0.0232743,0.00626768,0.999444,-9.96086e-05,0.0332981,-0.00169194,0.0776143,0.514794,-0.980819,31.6875,1,21299,15287299
17,2,0.99944,2.51424e-05,0.0334221,-0.00189112,-0.792064,-0.110922,9.85259,-0.0793015,-0.65022,1.04978,-0.00790584,-0.00113843,0.0985267,1,0.000147495,7.50006e-05,9.07499e-06,0.029499,0.0150001,0.001815,0.99944,2.51424e-05,0.0334221,-0.00189112,0.0789718,0.51629,-0.983318,31.6875,1,21301,15287499
17,3,0.999442,-1.32058e-05,0.0333453,-0.00200271,-0.795027,0.0558945,9.73333,-0.106573,-0.43121,0.933308,-0.00796128,0.000560157,0.0973324,1,-7.39735e-06,-5.64888e-05,1.43623e-05,-0.00147947,-0.0112978,0.00287247,0.999442,-1.32058e-05,0.0333453,-0.00200271,0.077528,0.514857,-0.984353,31.6875,1,21302,15287599
17,4,0.999442,4.86891e-05,0.0333347,-0.00195508,-0.69253,-0.0274244,9.86864,0.00530779,-0.547288,1.06384,-0.00692888,-0.000286686,0.0986861,1,6.25979e-05,-1.81577e-05,6.30477e-06,0.0125196,-0.00363153,0.00126096,0.999442,4.86891e-05,0.0333347,-0.00195508,0.0766678,0.512381,-0.981879,31.6875,1,21304,15287799
18,1,0.999442,3.89284e-05,0.0333451,-0.00189993,-0.558928,-0.104312,9.77167,0.160666,-0.61721,0.95962,-0.00557892,-0.00105118,0.0977172,1,4.01321e-05,5.27851e-05,1.93807e-05,0.00802642,0.010557,0.00387614,0.999442,3.89284e-05,0.0333451,-0.00189993,0.0785604,0.515761,-0.980802,31.6875,1,21306,15287999
18,2,0.999441,5.55893e-05,0.0333759,-0.00191021,-0.789926,-0.0391194,9.74973,-0.0888192,-0.544241,0.958731,-0.00789927,-0.000394526,0.0974973,1,1.49329e-05,-1.39094e-07,2.65818e-05,0.00298658,-2.78187e-05,0.00531636,0.999441,5.55893e-05,0.0333759,-0.00191021,0.0775488,0.515805,-0.982817,31.6875,1,21308,15288199
18,3,0.999446,-0.00039527,0.0332458,-0.00175285,-0.85339,0.321523,9.63788,-0.155306,-0.106001,0.804127,-0.00855395,0.00328825,0.0963746,1,-0.000386892,-0.000100944,9.07616e-05,-0.0773785,-0.0201889,0.0181523,0.999446,-0.00039527,0.0332458,-0.00175285,0.0771494,0.513822,-0.980839,31.6875,1,21310,15288399
18,4,0.999448,-0.00060368,0.0331801,-0.00167023,-0.744027,-0.0519699,9.74292,-0.0635571,-0.578499,0.860076,-0.00745372,-0.000483138,0.0974283,1,-0.00019361,-6.94199e-05,7.82664e-05,-0.0387221,-0.013884,0.0156533,0.999448,-0.00060368,0.0331801,-0.00167023,0.0766649,0.516238,-0.979268,31.6875,1,21311,15288499
19,1,0.999452,-0.000710006,0.0330607,-0.00171305,-0.218225,-0.659445,10.065,0.51092,-1.13262,1.21422,-0.00218488,-0.00661476,0.100649,1,0.000101526,-1.11732e-05,-2.853e-05,0.0203052,-0.00223464,-0.005706,0.999452,-0.000710006,0.0330607,-0.00171305,0.0751437,0.517271,-0.981763,31.6875,1,21313,15288699
19,2,0.999445,-0.000427542,0.0332496,-0.00173169,-1.21246,0.0448898,9.67817,-0.572113,-0.436663,0.922492,-0.012141,0.000455114,0.0967796,1,-3.56318e-05,-8.48638e-05,2.80693e-05,-0.00712636,-0.0169728,0.00561386,0.999445,-0.000427542,0.0332496,-0.00173169,0.0780262,0.516768,-0.982293,31.6875,1,21315,15288899
19,3,0.999448,-0.000411807,0.0331743,-0.00167563,-0.522564,-0.140868,9.84132,0.209921,-0.644505,1.06327,-0.00520919,-0.00141537,0.098414,1,3.18973e-05,8.30458e-05,3.88048e-05,0.00637946,0.0166092,0.00776095,0.999448,-0.000411807,0.0331743,-0.00167563,0.0771299,0.51721,-0.979248,31.6875,1,21317,15289099
19,4,0.999447,-0.000245663,0.0332247,-0.00166492,-0.29291,-0.0436186,9.66285,0.454382,-0.535032,0.807531,-0.00291549,-0.000432409,0.0966289,1,-2.02189e-05,7.02896e-05,2.23512e-05,-0.00404377,0.0140579,0.00447024,0.999447,-0.000245663,0.0332247,-0.00166492,0.0794819,0.516747,-0.981795,31.6875,1,21319,15289299
20,1,0.999446,-0.00015596,0.0332488,-0.00167285,-0.866456,-0.234163,9.83152,-0.185932,-0.818806,1.02519,-0.00867802,-0.00239433,0.0983128,1,0.000268231,-6.84125e-05,-2.60024e-06,0.0536461,-0.0136825,-0.000520047,0.999446,-0.00015596,0.0332488,-0.00167285,0.0780466,0.516271,-0.981799,31.6875,1,21321,15289499
20,2,0.999447,-0.000305292,0.0332172,-0.0016533,-0.660452,0.00730994,9.69535,0.0227415,-0.432448,0.830817,-0.00661101,9.7094e-05,0.096953,1,-0.000125111,-3.34543e-05,2.00706e-05,-0.0250222,-0.00669086,0.00401412,0.999447,-0.000305292,0.0332172,-0.0016533,0.0780712,0.516253,-0.980789,31.6875,1,21322,15289599
20,3,0.999451,-0.000329787,0.0331038,-0.00163687,-0.280722,0.0579294,9.65827,0.439772,-0.395039,0.838498,-0.00281069,0.000610303,0.0965824,1,-0.000161411,-1.77796e-05,3.0178e-05,-0.0322822,-0.00355593,0.0060356,0.999451,-0.000329787,0.0331038,-0.00163687,0.0790131,0.516742,-0.981288,31.6875,1,21324,15289799
20,4,0.999449,-0.000457139,0.03316,-0.00161077,-0.953636,-0.087164,9.88831,-0.235462,-0.539294,1.09229,-0.00955287,-0.000839691,0.0988818,1,-0.000164185,-8.37166e-05,2.73138e-05,-0.0328371,-0.0167433,0.00546276,0.999449,-0.000457139,0.03316,-0.00161077,0.07947,0.518201,-0.981257,31.6875,1,21326,15289999
21,1,0.999453,-0.000230505,0.0330242,-0.00161242,-0.696287,-0.151791,9.88365,-0.000416313,-0.762959,1.09496,-0.00696875,-0.00158697,0.098835,1,0.000349639,-2.97342e-05,-3.40498e-06,0.0699277,-0.00594683,-0.000680996,0.999453,-0.000230505,0.0330242,-0.00161242,0.0761553,0.517227,-0.979748,31.6875,1,21328,15290199
21,2,0.999455,-0.000261131,0.0329858,-0.00157067,-0.610979,-0.0974075,9.82876,0.099517,-0.633387,0.997917,-0.00610536,-0.000995,0.0982877,1,0.000105427,2.23385e-05,1.63705e-05,0.0210855,0.0044677,0.0032741,0.999455,-0.000261131,0.0329858,-0.00157067,0.0785371,0.520115,-0.978685,31.6875,1,21330,15290399
21,3,0.999453,-0.000278755,0.0330273,-0.00155775,-0.882862,0.0736779,9.73501,-0.140376,-0.427959,0.968084,-0.00882076,0.000734856,0.0973508,1,8.01883e-06,4.05357e-05,2.05038e-05,0.00160377,0.00810715,0.00410075,0.999453,-0.000278755,0.0330273,-0.00155775,0.077509,0.51969,-0.98172,31.6875,1,21331,15290499
21,4,0.999457,-0.000199452,0.0329322,-0.0015154,-0.844849,0.00978954,9.72718,-0.0989556,-0.544296,1.05582,-0.00846998,7.57357e-05,0.0972699,1,0.000111198,-0.000110452,3.11462e-05,0.0222397,-0.0220904,0.00622924,0.999457,-0.000199452,0.0329322,-0.0015154,0.0770226,0.516324,-0.984318,31.6875,1,21333,15290699
22,1,0.999457,0.000505132,0.0329055,-0.00158761,-0.613964,0.469877,9.94227,0.0763617,-0.125061,1.2319,-0.00615581,0.00461385,0.0994257,1,0.000428714,-8.25534e-05,-2.66813e-05,0.0857429,-0.0165107,-0.00533625,0.999457,0.000505132,0.0329055,-0.00158761,0.0785073,0.516764,-0.982295,31.6875,1,21335,15290899
22,2,0.999445,0.00042995,0.0332825,-0.00158781,-1.25122,-0.157918,9.56928,-0.55004,-0.7183,0.735359,-0.0124476,-0.00162684,0.0957004,1,0.000251745,0.000337775,-2.07963e-05,0.050349,0.067555,-0.00415927,0.999445,0.00042995,0.0332825,-0.00158781,0.0770193,0.518736,-0.982749,31.6875,1,21337,15291099
22,3,0.999462,0.00027296,0.0327506,-0.00152385,-0.540916,-0.397268,9.98311,0.0609002,-0.958852,1.12103,-0.00548093,-0.00398208,0.0998268,1,4.51601e-05,-0.000360868,3.51751e-05,0.00903202,-0.0721736,0.00703502,0.999462,0.00027296,0.0327506,-0.00152385,0.0775939,0.515291,-0.981313,31.6875,1,21339,15291299
22,4,0.999453,0.00035962,0.0330239,-0.00150153,-0.786666,-0.152335,9.59019,-0.0630564,-0.681332,0.782382,-0.00783718,-0.00153565,0.0959041,1,6.20967e-05,0.000153295,2.49553e-05,0.0124193,0.030659,0.00499105,0.999453,0.00035962,0.0330239,-0.00150153,0.0776148,0.516239,-0.979777,31.6875,1,21341,15291499
23,1,0.999455,0.00047543,0.0329742,-0.00147769,-0.994252,0.0175319,9.77003,-0.328426,-0.540101,0.950954,-0.00995427,0.000146851,0.0976991,1,0.000142138,-6.01141e-05,3.48925e-05,0.0284276,-0.0120228,0.0069785,0.999455,0.00047543,0.0329742,-0.00147769,0.0799876,0.516725,-0.980787,31.6875,1,21342,15291599
23,2,0.999456,0.000389401,0.0329604,-0.00143348,-0.770449,-0.0340988,9.75638,-0.0516778,-0.558847,0.993681,-0.00769156,-0.000339639,0.0975648,1,-8.88477e-06,6.62026e-05,2.4982e-05,-0.00177695,0.0132405,0.00499641,0.999456,0.000389401,0.0329604,-0.00143348,0.0775654,0.516275,-0.981796,31.6875,1,21344,15291799
23,3,0.999464,0.000319987,0.03271,-0.0013819,-0.230316,-0.280818,9.87664,0.399397,-0.817681,1.06425,-0.00234214,-0.0028116,0.0987654,1,1.67098e-05,-0.000198072,2.66847e-05,0.00334196,-0.0396145,0.00533693,0.999464,0.000319987,0.03271,-0.0013819,0.0790377,0.516724,-0.980278,31.6875,1,21346,15291999
23,4,0.999452,0.000406203,0.0330648,-0.00137198,-1.09009,-0.0963694,9.85101,-0.392835,-0.601959,1.02903,-0.010886,-0.000967843,0.0985117,1,1.86082e-05,7.55241e-05,2.21641e-05,0.00372164,0.0151048,0.00443281,0.999452,0.000406203,0.0330648,-0.00137198,0.0794662,0.519168,-0.980731,31.6875,1,21348,15292199
24,1,0.99946,0.00039407,0.0328423,-0.00133024,-0.323985,-0.027438,9.61669,0.405222,-0.553118,0.760022,-0.00322677,-0.000283181,0.0961673,1,4.50307e-05,6.79297e-05,2.16689e-05,0.00900614,0.0135859,0.00433379,0.99946,0.00039407,0.0328423,-0.00133024,0.078523,0.514343,-0.983359,31.6875,1,21350,15292399
24,2,0.99946,0.000368875,0.0328347,-0.00132368,-0.549566,-0.0616444,9.88674,0.166666,-0.575211,1.11912,-0.00549903,-0.000616748,0.0988672,1,8.72096e-07,-1.70977e-05,1.19328e-05,0.000174419,-0.00341954,0.00238656,0.99946,0.000368875,0.0328347,-0.00132368,0.0756405,0.514846,-0.982829,31.6875,1,21351,15292499
24,3,0.999458,0.000415439,0.0328827,-0.0013247,-0.594388,-0.183171,9.88828,0.120869,-0.726489,1.13812,-0.00592823,-0.00185419,0.0988833,1,0.000113797,7.92069e-05,-2.20107e-06,0.0227593,0.0158414,-0.000440214,0.999458,0.000415439,0.0328827,-0.0013247,0.0766649,0.516238,-0.979268,31.6875,1,21353,15292699
24,4,0.99946,0.000407676,0.0328164,-0.00132118,-0.576347,-0.12422,9.67665,0.114918,-0.631543,0.856664,-0.00576885,-0.00123962,0.0967662,1,-1.43916e-05,-2.80231e-05,1.79239e-05,-0.00287831,-0.00560463,0.00358477,0.99946,0.000407676,0.0328164,-0.00132118,0.0789476,0.517754,-0.983285,31.6875,1,21355,15292899
25,1,0.999462,0.000433368,0.0327811,-0.00130747,-0.540373,-0.0968456,9.79774,0.177946,-0.612543,0.97218,-0.00539754,-0.000969082,0.0979777,1,2.38383e-06,3.14062e-05,1.47312e-05,0.000476767,0.00628123,0.00294624,0.999462,0.000433368,0.0327811,-0.00130747,0.0775773,0.514821,-0.982334,31.6875,1,21357,15293099
25,2,0.99946,0.000476072,0.0328371,-0.00129357,-0.790227,-0.182951,9.81365,-0.0957549,-0.712086,1.02397,-0.00790212,-0.0018349,0.0981364,1,2.58277e-05,3.65553e-07,2.02988e-05,0.00516554,7.31106e-05,0.00405977,0.99946,0.000476072,0.0328371,-0.00129357,0.0771095,0.517706,-0.979742,31.6875,1,21359,15293299
25,3,0.999458,0.00062847,0.0328803,-0.00130712,-0.800873,0.021585,9.83238,-0.121845,-0.547013,0.952453,-0.00800141,0.000180407,0.0983245,1,0.000180384,3.71873e-05,-1.85836e-06,0.0360768,0.00743745,-0.000371672,0.999458,0.00062847,0.0328803,-0.00130712,0.0775654,0.516275,-0.981796,31.6875,1,21360,15293399
25,4,0.999461,0.000457458,0.0327928,-0.00126734,-0.533207,-0.365195,9.76724,0.188073,-0.885543,0.930554,-0.00532683,-0.0036477,0.0976729,1,-2.25143e-05,2.63216e-05,1.36381e-05,-0.00450285,0.00526433,0.00272762,0.999461,0.000457458,0.0327928,-0.00126734,0.0770269,0.516803,-0.983802,31.6875,1,21362,15293599
26,1,0.999458,0.000617487,0.0329042,-0.00124699,-0.809092,0.1819,9.62074,-0.0967439,-0.32225,0.845699,-0.0080739,0.00181912,0.0962088,1,-2.05248e-06,8.87432e-05,1.69083e-05,-0.000410496,0.0177486,0.00338167,0.999458,0.000617487,0.0329042,-0.00124699,0.0785358,0.515779,-0.981812,31.6875,1,21364,15293799
26,2,0.999465,0.000515005,0.0326968,-0.00123425,-0.593696,-0.245858,9.93539,0.0770421,-0.784305,1.15849,-0.00596855,-0.00246132,0.0993519,1,1.37617e-05,-0.000159001,4.28175e-07,0.00275234,-0.0318002,8.56349e-05,0.999465,0.000515005,0.0326968,-0.00123425,0.0780138,0.516777,-0.982797,31.6875,1,21366,15293999
26,3,0.999461,0.000569166,0.032807,-0.00119733,-0.687294,-0.102823,9.76515,0.00285453,-0.597983,0.969697,-0.00687301,-0.00101934,0.0976516,1,-4.80064e-05,-7.14635e-07,3.50791e-05,-0.00960129,-0.000142927,0.00701582,0.999461,0.000569166,0.032807,-0.00119733,0.0760846,0.514869,-0.984346,31.6875,1,21368,15294199
26,4,0.999463,0.000604955,0.0327472,-0.00117405,-0.567258,-0.322026,9.77131,0.115206,-0.868798,0.965499,-0.00568539,-0.00323288,0.0977119,1,6.3004e-05,-6.64462e-05,2.7368e-05,0.0126008,-0.0132892,0.0054736,0.999463,0.000604955,0.0327472,-0.00117405,0.0765781,0.514856,-0.983844,31.6875,1,21369,15294299
27,1,0.999459,0.000691547,0.0328609,-0.00114911,-0.862138,0.0480799,9.84803,-0.155548,-0.465099,1.06755,-0.00862141,0.000486888,0.0984803,1,-3.36683e-05,3.19153e-09,3.14557e-05,-0.00673367,6.38306e-07,0.00629115,0.999459,0.000691547,0.0328609,-0.00114911,0.0780916,0.515756,-0.980295,31.6875,1,21371,15294499
27,2,0.999462,0.000709044,0.0327815,-0.00115016,-0.412052,-0.111549,9.80425,0.267186,-0.632163,0.976183,-0.00412676,-0.00111627,0.0980422,1,3.63032e-06,-3.19462e-05,7.47124e-06,0.000726064,-0.00638924,0.00149425,0.999462,0.000709044,0.0327815,-0.00115016,0.0775488,0.515805,-0.982817,31.6875,1,21373,15294699
27,3,0.999462,0.000709044,0.0327815,-0.00115016,-0.412052,-0.111549,9.80425,0.267186,-0.632163,0.976183,-0.00412676,-0.00111627,0.0980422,1,3.63032e-06,-3.19462e-05,7.47124e-06,0.000726064,-0.00638924,0.00149425,0.999462,0.000709044,0.0327815,-0.00115016,0.0775488,0.515805,-0.982817,31.6875,1,21373,15294699
27,4,0.999462,0.000709044,0.0327815,-0.00115016,-0.412052,-0.111549,9.80425,0.267186,-0.632163,0.976183,-0.00412676,-0.00111627,0.0980422,1,3.63032e-06,-3.19462e-05,7.47124e-06,0.000726064,-0.00638924,0.00149425,0.999462,0.000709044,0.0327815,-0.00115016,0.0775488,0.515805,-0.982817,31.6875,1,21373,15294699
28,1,0.999458,0.000781721,0.0328902,-0.00114403,-0.698407,-0.186628,9.7943,0.0161835,-0.7171,0.991722,-0.00697446,-0.0018762,0.0979435,1,4.80935e-05,4.83548e-05,3.56595e-05,0.00961871,0.00967097,0.0071319,0.999458,0.000781721,0.0328902,-0.00114403,0.0775859,0.515778,-0.981302,31.6875,1,21375,15294899
28,2,0.999458,0.000845661,0.0328941,-0.00112781,-0.761944,-0.114924,9.76892,-0.079068,-0.655389,0.987441,-0.00761943,-0.00116746,0.0976889,1,9.13386e-05,-2.56914e-07,2.4486e-05,0.0182677,-5.13828e-05,0.00489719,0.999458,0.000845661,0.0328941,-0.00112781,0.0780912,0.514311,-0.981337,31.6875,1,21376,15294999
28,3,0.99946,0.000873105,0.0328359,-0.00111773,-0.641815,-0.0148547,9.89556,0.043309,-0.559187,1.11087,-0.00643069,-0.000159673,0.0989548,1,5.49523e-05,-6.33858e-05,1.94799e-05,0.0109905,-0.0126772,0.00389598,0.99946,0.000873105,0.0328359,-0.00111773,0.0780584,0.514817,-0.982336,31.6875,1,21377,15295099
28,4,0.99946,0.000873105,0.0328359,-0.00111773,-0.641815,-0.0148547,9.89556,0.043309,-0.559187,1.11087,-0.00643069,-0.000159673,0.0989548,1,5.49523e-05,-6.33858e-05,1.94799e-05,0.0109905,-0.0126772,0.00389598,0.99946,0.000873105,0.0328359,-0.00111773,0.0780584,0.514817,-0.982336,31.6875,1,21377,15295099
29,1,0.999461,0.000855932,0.0327927,-0.00110873,-0.412449,-0.204703,9.78481,0.269905,-0.737473,0.925817,-0.00413207,-0.00205362,0.0978476,1,3.32988e-05,-3.89437e-05,9.98429e-06,0.00665976,-0.00778875,0.00199686,0.999461,0.000855932,0.0327927,-0.00110873,0.0780058,0.517265,-0.982787,31.6875,1,21379,15295299
29,2,0.999461,0.000855932,0.0327927,-0.00110873,-0.412449,-0.204703,9.78481,0.269905,-0.737473,0.925817,-0.00413207,-0.00205362,0.0978476,1,3.32988e-05,-3.89437e-05,9.98429e-06,0.00665976,-0.00778875,0.00199686,0.999461,0.000855932,0.0327927,-0.00110873,0.0780058,0.517265,-0.982787,31.6875,1,21379,15295299
29,3,0.99946,0.000904752,0.0328218,-0.00112336,-0.421663,-0.204048,9.76685,0.278779,-0.744961,0.916813,-0.00421151,-0.00205579,0.0976684,1,7.85924e-05,2.63214e-05,-4.88037e-06,0.0157185,0.00526429,-0.000976074,0.99946,0.000904752,0.0328218,-0.00112336,0.0756244,0.515821,-0.982808,31.6875,1,21380,15295399
29,4,0.99946,0.000904752,0.0328218,-0.00112336,-0.421663,-0.204048,9.76685,0.278779,-0.744961,0.916813,-0.00421151,-0.00205579,0.0976684,1,7.85924e-05,2.63214e-05,-4.88037e-06,0.0157185,0.00526429,-0.000976074,0.99946,0.000904752,0.0328218,-0.00112336,0.0756244,0.515821,-0.982808,31.6875,1,21380,15295399
30,1,0.999459,0.000998905,0.0328592,-0.00111947,-0.64313,-0.017748,9.85518,0.0303278,-0.543958,1.06444,-0.00644024,-0.000178812,0.0985512,1,5.34979e-06,-4.54248e-05,2.15498e-05,0.00106996,-0.00908495,0.00430997,0.999459,0.000998905,0.0328592,-0.00111947,0.0776224,0.514306,-0.98083,31.6875,3,21382,15295599
30,2,0.999461,0.00106743,0.0328015,-0.00113226,-0.390583,-0.104784,9.77534,0.288805,-0.660891,0.942869,-0.00391737,-0.00106655,0.0977527,1,9.5511e-05,-5.90806e-05,4.55046e-06,0.0191022,-0.0118161,0.000910092,0.999461,0.00106743,0.0328015,-0.00113226,0.0786093,0.51428,-0.979825,31.6875,3,21383,15295699
30,3,0.999461,0.00106743,0.0328015,-0.00113226,-0.390583,-0.104784,9.77534,0.288805,-0.660891,0.942869,-0.00391737,-0.00106655,0.0977527,1,9.5511e-05,-5.90806e-05,4.55046e-06,0.0191022,-0.0118161,0.000910092,0.999461,0.00106743,0.0328015,-0.00113226,0.0786093,0.51428,-0.979825,31.6875,3,21383,15295699
30,4,0.999461,0.00106743,0.0328015,-0.00113226,-0.390583,-0.104784,9.77534,0.288805,-0.660891,0.942869,-0.00391737,-0.00106655,0.0977527,1,9.5511e-05,-5.90806e-05,4.55046e-06,0.0191022,-0.0118161,0.000910092,0.999461,0.00106743,0.0328015,-0.00113226,0.0786093,0.51428,-0.979825,31.6875,3,21383,15295699
31,1,0.999459,0.00107259,0.0328557,-0.00111449,-0.460964,-0.176956,9.79893,0.237268,-0.706847,0.985397,-0.00460494,-0.00176995,0.0979895,1,7.84819e-07,2.34872e-05,2.58805e-05,0.000156964,0.00469743,0.0051761,0.999459,0.00107259,0.0328557,-0.00111449,0.0770431,0.515828,-0.983824,31.6875,3,21385,15295899
31,2,0.999459,0.00111081,0.0328449,-0.00110678,-0.410293,-0.162172,9.7261,0.2862,-0.709787,0.903134,-0.00410441,-0.00163502,0.0972608,1,6.78449e-05,-7.81038e-06,1.28714e-05,0.013569,-0.00156208,0.00257427,0.999459,0.00111081,0.0328449,-0.00110678,0.0765862,0.514368,-0.983854,31.6875,3,21386,15295999
31,3,0.999458,0.00115153,0.0328797,-0.00109428,-0.484568,-0.184432,9.82106,0.216664,-0.727968,0.977958,-0.00483803,-0.00185817,0.0982107,1,6.97319e-05,3.86279e-05,1.52448e-05,0.0139464,0.00772559,0.00304895,0.999458,0.00115153,0.0328797,-0.00109428,0.0766478,0.514323,-0.98133,31.6875,3,21387,15296099
31,4,0.999458,0.00115153,0.0328797,-0.00109428,-0.484568,-0.184432,9.82106,0.216664,-0.727968,0.977958,-0.00483803,-0.00185817,0.0982107,1,6.97319e-05,3.86279e-05,1.52448e-05,0.0139464,0.00772559,0.00304895,0.999458,0.00115153,0.0328797,-0.00109428,0.0766478,0.514323,-0.98133,31.6875,3,21387,15296099
32,1,0.999459,0.00121921,0.0328623,-0.00108681,-0.474453,0.00862316,9.78125,0.212465,-0.52058,0.968735,-0.00474157,8.66515e-05,0.0978127,1,-2.6712e-06,1.51488e-05,1.08258e-05,-0.000534239,0.00302976,0.00216516,0.999459,0.00121921,0.0328623,-0.00108681,0.0780712,0.516253,-0.980789,31.6875,3,21389,15296299
32,2,0.999459,0.00121921,0.0328623,-0.00108681,-0.474453,0.00862316,9.78125,0.212465,-0.52058,0.968735,-0.00474157,8.66515e-05,0.0978127,1,-2.6712e-06,1.51488e-05,1.08258e-05,-0.000534239,0.00302976,0.00216516,0.999459,0.00121921,0.0328623,-0.00108681,0.0780712,0.516253,-0.980789,31.6875,3,21389,15296299
32,3,0.999458,0.00125599,0.0328892,-0.00112324,-0.519564,-0.126172,9.78753,0.180237,-0.675539,0.970643,-0.00518934,-0.00127439,0.0978755,1,6.5891e-05,3.24669e-05,-2.14795e-05,0.0131782,0.00649338,-0.00429591,0.999458,0.00125599,0.0328892,-0.00112324,0.0785281,0.517712,-0.980759,31.6875,3,21390,15296399
32,4,0.999458,0.00125599,0.0328892,-0.00112324,-0.519564,-0.126172,9.78753,0.180237,-0.675539,0.970643,-0.00518934,-0.00127439,0.0978755,1,6.5891e-05,3.24669e-05,-2.14795e-05,0.0131782,0.00649338,-0.00429591,0.999458,0.00125599,0.0328892,-0.00112324,0.0785281,0.517712,-0.980759,31.6875,3,21390,15296399
33,1,0.999457,0.0013164,0.0329138,-0.00112107,-0.53817,-0.107797,9.77423,0.154614,-0.670609,0.962596,-0.00537684,-0.0010946,0.0977424,1,8.37556e-05,2.45669e-05,2.44287e-05,0.0167511,0.00491339,0.00488574,0.999457,0.0013164,0.0329138,-0.00112107,0.0779521,0.516822,-0.985321,31.6875,3,21392,15296599
33,2,0.999456,0.00130099,0.0329381,-0.00110506,-0.607768,-0.0770949,9.80992,0.0971715,-0.612564,0.993363,-0.00607144,-0.000773774,0.0980996,1,1.30072e-05,3.16256e-05,2.24916e-05,0.00260144,0.00632513,0.00449832,0.999456,0.00130099,0.0329381,-0.00110506,0.0760728,0.516323,-0.983809,31.6875,3,21393,15296699
33,3,0.999456,0.00130099,0.0329381,-0.00110506,-0.607768,-0.0770949,9.80992,0.0971715,-0.612564,0.993363,-0.00607144,-0.000773774,0.0980996,1,1.30072e-05,3.16256e-05,2.24916e-05,0.00260144,0.00632513,0.00449832,0.999456,0.00130099,0.0329381,-0.00110506,0.0760728,0.516323,-0.983809,31.6875,3,21393,15296699
33,4,0.999456,0.00130099,0.0329381,-0.00110506,-0.607768,-0.0770949,9.80992,0.0971715,-0.612564,0.993363,-0.00607144,-0.000773774,0.0980996,1,1.30072e-05,3.16256e-05,2.24916e-05,0.00260144,0.00632513,0.00449832,0.999456,0.00130099,0.0329381,-0.00110506,0.0760728,0.516323,-0.983809,31.6875,3,21393,15296699
34,1,0.999458,0.00139585,0.032884,-0.00107812,-0.599776,0.0546698,9.75946,0.0846063,-0.497502,0.947037,-0.00600329,0.000532593,0.0975943,1,7.12947e-05,-2.82535e-05,1.57277e-05,0.0142589,-0.0056507,0.00314553,0.999458,0.00139585,0.032884,-0.00107812,0.0785647,0.51624,-0.980287,31.6875,3,21395,15296899
34,2,0.999459,0.00134601,0.0328479,-0.00106305,-0.548659,-0.0565096,9.76629,0.13814,-0.586501,0.942844,-0.00549238,-0.000560672,0.0976626,1,-2.39985e-05,-2.97498e-05,2.3952e-05,-0.0047997,-0.00594995,0.0047904,0.999459,0.00134601,0.0328479,-0.00106305,0.0790496,0.51527,-0.980815,31.6875,3,21396,15296999
34,3,0.99946,0.00133412,0.0328232,-0.00106204,-0.549836,-0.180675,9.80425,0.144529,-0.727539,0.9742,-0.0055018,-0.00180979,0.0980422,1,1.49104e-05,-1.77212e-05,9.98204e-06,0.00298208,-0.00354425,0.00199641,0.99946,0.00133412,0.0328232,-0.00106204,0.0780262,0.516768,-0.982293,31.6875,3,21397,15297099
34,4,0.99946,0.00133412,0.0328232,-0.00106204,-0.549836,-0.180675,9.80425,0.144529,-0.727539,0.9742,-0.0055018,-0.00180979,0.0980422,1,1.49104e-05,-1.77212e-05,9.98204e-06,0.00298208,-0.00354425,0.00199641,0.99946,0.00133412,0.0328232,-0.00106204,0.0780262,0.516768,-0.982293,31.6875,3,21397,15297099
35,1,0.999459,0.00138336,0.0328465,-0.00103978,-0.666687,-0.115443,9.79028,0.0374046,-0.659757,0.982835,-0.00666004,-0.00116221,0.0979032,1,3.84168e-05,3.46416e-05,1.92135e-05,0.00768337,0.00692831,0.0038427,0.999459,0.00138336,0.0328465,-0.00103978,0.0771005,0.515304,-0.981816,31.6875,3,21399,15297299
35,2,0.999459,0.00138336,0.0328465,-0.00103978,-0.666687,-0.115443,9.79028,0.0374046,-0.659757,0.982835,-0.00666004,-0.00116221,0.0979032,1,3.84168e-05,3.46416e-05,1.92135e-05,0.00768337,0.00692831,0.0038427,0.999459,0.00138336,0.0328465,-0.00103978,0.0771005,0.515304,-0.981816,31.6875,3,21399,15297299
35,3,0.999459,0.00141204,0.0328562,-0.00102677,-0.746519,-0.119339,9.79048,-0.0504272,-0.671695,0.98918,-0.00746181,-0.0012046,0.0979049,1,5.59057e-05,1.70394e-05,1.73516e-05,0.0111811,0.00340788,0.00347032,0.999459,0.00141204,0.0328562,-0.00102677,0.0771209,0.514807,-0.981322,31.6875,3,21400,15297399
35,4,0.999459,0.00141204,0.0328562,-0.00102677,-0.746519,-0.119339,9.79048,-0.0504272,-0.671695,0.98918,-0.00746181,-0.0012046,0.0979049,1,5.59057e-05,1.70394e-05,1.73516e-05,0.0111811,0.00340788,0.00347032,0.999459,0.00141204,0.0328562,-0.00102677,0.0771209,0.514807,-0.981322,31.6875,3,21400,15297399
36,1,0.999461,0.00146922,0.0327751,-0.00102012,-0.629489,-0.0250988,9.8085,0.0544856,-0.58256,0.993736,-0.00630156,-0.000262634,0.0980845,1,5.81276e-05,-3.40752e-05,1.92784e-05,0.0116255,-0.00681503,0.00385568,0.999461,0.00146922,0.0327751,-0.00102012,0.0765909,0.516292,-0.982297,31.6875,3,21402,15297599
36,2,0.999462,0.0014381,0.0327548,-0.00100278,-0.594006,-0.0820041,9.79385,0.103099,-0.619378,0.980072,-0.00594279,-0.000819552,0.0979383,1,-3.87439e-06,-1.41002e-05,2.27056e-05,-0.000774877,-0.00282004,0.00454113,0.999462,0.0014381,0.0327548,-0.00100278,0.076579,0.517747,-0.981759,31.6875,3,21403,15297699
36,3,0.999462,0.0014381,0.0327548,-0.00100278,-0.594006,-0.0820041,9.79385,0.103099,-0.619378,0.980072,-0.00594279,-0.000819552,0.0979383,1,-3.87439e-06,-1.41002e-05,2.27056e-05,-0.000774877,-0.00282004,0.00454113,0.999462,0.0014381,0.0327548,-0.00100278,0.076579,0.517747,-0.981759,31.6875,3,21403,15297699
36,4,0.999462,0.0014381,0.0327548,-0.00100278,-0.594006,-0.0820041,9.79385,0.103099,-0.619378,0.980072,-0.00594279,-0.000819552,0.0979383,1,-3.87439e-06,-1.41002e-05,2.27056e-05,-0.000774877,-0.00282004,0.00454113,0.999462,0.0014381,0.0327548,-0.00100278,0.076579,0.517747,-0.981759,31.6875,3,21403,15297699
37,1,0.999462,0.0014776,0.0327471,-0.000995877,-0.642333,-0.0625429,9.79401,0.041206,-0.619949,0.98194,-0.00642609,-0.000635534,0.0979398,1,5.02616e-05,-1.41919e-05,2.01925e-05,0.0100523,-0.00283839,0.0040385,0.999462,0.0014776,0.0327471,-0.000995877,0.0775365,0.515814,-0.983322,31.6875,3,21405,15297899
37,2,0.999463,0.00148155,0.0327247,-0.000984298,-0.608742,-0.0949122,9.81826,0.0835731,-0.6416,1.00327,-0.00609057,-0.000955539,0.0981823,1,3.14858e-05,-1.62664e-05,1.92473e-05,0.00629715,-0.00325327,0.00384947,0.999463,0.00148155,0.0327247,-0.000984298,0.0780504,0.515305,-0.982325,31.6875,3,21406,15297999
37,3,0.999462,0.00149574,0.0327385,-0.000978559,-0.624328,-0.125926,9.81945,0.0816531,-0.680481,1.00548,-0.0062394,-0.00126753,0.0981946,1,4.12017e-05,1.95745e-05,1.44169e-05,0.00824034,0.0039149,0.00288338,0.999462,0.00149574,0.0327385,-0.000978559,0.078067,0.515774,-0.981305,31.6875,3,21407,15298099
37,4,0.999462,0.00149574,0.0327385,-0.000978559,-0.624328,-0.125926,9.81945,0.0816531,-0.680481,1.00548,-0.0062394,-0.00126753,0.0981946,1,4.12017e-05,1.95745e-05,1.44169e-05,0.00824034,0.0039149,0.00288338,0.999462,0.00149574,0.0327385,-0.000978559,0.078067,0.515774,-0.981305,31.6875,3,21407,15298099
38,1,0.999463,0.00154173,0.0327155,-0.000980405,-0.580904,-0.097248,9.80652,0.106641,-0.649597,0.986261,-0.00581056,-0.000982642,0.098065,1,5.11724e-05,-7.86956e-06,1.08259e-05,0.0102345,-0.00157391,0.00216517,0.999463,0.00154173,0.0327155,-0.000980405,0.0779683,0.515847,-0.985343,31.6875,3,21409,15298299
38,2,0.999464,0.00155602,0.0326993,-0.0010023,-0.537142,-0.0988576,9.82488,0.15282,-0.648034,1.00878,-0.00537336,-0.000997089,0.0982486,1,4.40422e-05,-9.76199e-06,-1.31356e-05,0.00880844,-0.0019524,-0.00262713,0.999464,0.00155602,0.0326993,-0.0010023,0.0775194,0.513899,-0.985384,31.6875,3,21410,15298399
38,3,0.999464,0.00155602,0.0326993,-0.0010023,-0.537142,-0.0988576,9.82488,0.15282,-0.648034,1.00878,-0.00537336,-0.000997089,0.0982486,1,4.40422e-05,-9.76199e-06,-1.31356e-05,0.00880844,-0.0019524,-0.00262713,0.999464,0.00155602,0.0326993,-0.0010023,0.0775194,0.513899,-0.985384,31.6875,3,21410,15298399
38,4,0.999464,0.00155602,0.0326993,-0.0010023,-0.537142,-0.0988576,9.82488,0.15282,-0.648034,1.00878,-0.00537336,-0.000997089,0.0982486,1,4.40422e-05,-9.76199e-06,-1.31356e-05,0.00880844,-0.0019524,-0.00262713,0.999464,0.00155602,0.0326993,-0.0010023,0.0775194,0.513899,-0.985384,31.6875,3,21410,15298399
39,1,0.999463,0.0015968,0.0327011,-0.000986189,-0.557545,-0.0967937,9.77717,0.12944,-0.651656,0.96327,-0.00557286,-0.000978673,0.0977718,1,5.4037e-05,1.31186e-05,1.52053e-05,0.0108074,0.00262372,0.00304106,0.999463,0.0015968,0.0327011,-0.000986189,0.0775688,0.513863,-0.983365,31.6875,3,21412,15298599
39,2,0.999463,0.00161364,0.0327064,-0.000977239,-0.567789,-0.0771595,9.78319,0.12564,-0.63166,0.970547,-0.00567549,-0.000780346,0.0978319,1,4.38429e-05,1.21577e-05,1.52234e-05,0.00876858,0.00243154,0.00304469,0.999463,0.00161364,0.0327064,-0.000977239,0.0771043,0.514337,-0.982342,31.6875,3,21413,15298699
39,3,0.999463,0.00161364,0.0327064,-0.000977239,-0.567789,-0.0771595,9.78319,0.12564,-0.63166,0.970547,-0.00567549,-0.000780346,0.0978319,1,4.38429e-05,1.21577e-05,1.52234e-05,0.00876858,0.00243154,0.00304469,0.999463,0.00161364,0.0327064,-0.000977239,0.0771043,0.514337,-0.982342,31.6875,3,21413,15298699
39,4,0.999463,0.00161364,0.0327064,-0.000977239,-0.567789,-0.0771595,9.78319,0.12564,-0.63166,0.970547,-0.00567549,-0.000780346,0.0978319,1,4.38429e-05,1.21577e-05,1.52234e-05,0.00876858,0.00243154,0.00304469,0.999463,0.00161364,0.0327064,-0.000977239,0.0771043,0.514337,-0.982342,31.6875,3,21413,15298699
40,1,0.999464,0.00166022,0.0326775,-0.00095807,-0.665277,-0.0251432,9.75753,0.0114786,-0.57775,0.951634,-0.00666096,-0.000259984,0.0975748,1,4.23904e-05,-4.20009e-05,2.09875e-05,0.00847807,-0.00840018,0.00419749,0.999464,0.00166022,0.0326775,-0.00095807,0.0765572,0.513907,-0.98538,31.6875,3,21415,15298899
40,2,0.999468,0.00159507,0.0325605,-0.000943911,-0.437147,-0.088098,9.85997,0.235405,-0.636547,1.04344,-0.00439315,-0.000873863,0.0985988,1,-3.67501e-05,-0.000110118,1.4791e-05,-0.00735001,-0.0220235,0.00295821,0.999468,0.00159507,0.0325605,-0.000943911,0.078029,0.512911,-0.984904,31.6875,3,21416,15298999
40,3,0.999468,0.00159507,0.0325605,-0.000943911,-0.437147,-0.088098,9.85997,0.235405,-0.636547,1.04344,-0.00439315,-0.000873863,0.0985988,1,-3.67501e-05,-0.000110118,1.4791e-05,-0.00735001,-0.0220235,0.00295821,0.999468,0.00159507,0.0325605,-0.000943911,0.078029,0.512911,-0.984904,31.6875,3,21416,15298999
40,4,0.999468,0.00159507,0.0325605,-0.000943911,-0.437147,-0.088098,9.85997,0.235405,-0.636547,1.04344,-0.00439315,-0.000873863,0.0985988,1,-3.67501e-05,-0.000110118,1.4791e-05,-0.00735001,-0.0220235,0.00295821,0.999468,0.00159507,0.0325605,-0.000943911,0.078029,0.512911,-0.984904,31.6875,3,21416,15298999
41,1,0.999466,0.00165465,0.0326242,-0.000946859,-0.564804,-0.171289,9.80473,0.146648,-0.726839,0.985104,-0.00563619,-0.00172282,0.0980478,1,5.04131e-05,6.03493e-05,3.72794e-06,0.0100826,0.0120699,0.000745588,0.999466,0.00165465,0.0326242,-0.000946859,0.0766227,0.512896,-0.983382,31.6875,3,21418,15299199
41,2,0.999467,0.00169011,0.0325977,-0.000931334,-0.614365,-0.114002,9.78185,0.0689738,-0.670999,0.955329,-0.00614712,-0.00115244,0.0978181,1,6.23933e-05,-1.78999e-05,1.66235e-05,0.0124787,-0.00357999,0.0033247,0.999467,0.00169011,0.0325977,-0.000931334,0.0794363,0.515817,-0.984341,31.6875,3,21419,15299299
41,3,0.999467,0.00171884,0.0325753,-0.000973896,-0.548989,-0.0993793,9.79747,0.132688,-0.665204,0.965938,-0.00549262,-0.00100514,0.0979744,1,5.79301e-05,-1.39156e-05,-7.75958e-07,0.011586,-0.00278313,-0.000155192,0.999467,0.00171884,0.0325753,-0.000973896,0.080456,0.515285,-0.982337,31.6875,3,21420,15299399
41,4,0.999467,0.00171884,0.0325753,-0.000973896,-0.548989,-0.0993793,9.79747,0.132688,-0.665204,0.965938,-0.00549262,-0.00100514,0.0979744,1,5.79301e-05,-1.39156e-05,-7.75958e-07,0.011586,-0.00278313,-0.000155192,0.999467,0.00171884,0.0325753,-0.000973896,0.080456,0.515285,-0.982337,31.6875,3,21420,15299399
42,1,0.999468,0.00171346,0.0325414,-0.00102201,-0.49197,-0.0768225,9.78744,0.181112,-0.612327,0.97301,-0.00492402,-0.000763959,0.0978742,1,-2.25977e-05,-2.22157e-05,1.59741e-05,-0.00451954,-0.00444314,0.00319481,0.999468,0.00171346,0.0325414,-0.00102201,0.0760319,0.517317,-0.984797,31.6875,3,21422,15299599
42,2,0.999468,0.00174449,0.0325519,-0.00103244,-0.477606,-0.151407,9.7765,0.210836,-0.705343,0.955243,-0.00477168,-0.00152593,0.0977651,1,5.99417e-05,2.21785e-05,1.4758e-05,0.0119884,0.0044357,0.0029516,0.999468,0.00174449,0.0325519,-0.00103244,0.0775042,0.517766,-0.983278,31.6875,3,21423,15299699
42,3,0.999468,0.00174449,0.0325519,-0.00103244,-0.477606,-0.151407,9.7765,0.210836,-0.705343,0.955243,-0.00477168,-0.00152593,0.0977651,1,5.99417e-05,2.21785e-05,1.4758e-05,0.0119884,0.0044357,0.0029516,0.999468,0.00174449,0.0325519,-0.00103244,0.0775042,0.517766,-0.983278,31.6875,3,21423,15299699
42,4,0.999468,0.00174449,0.0325519,-0.00103244,-0.477606,-0.151407,9.7765,0.210836,-0.705343,0.955243,-0.00477168,-0.00152593,0.0977651,1,5.99417e-05,2.21785e-05,1.4758e-05,0.0119884,0.0044357,0.0029516,0.999468,0.00174449,0.0325519,-0.00103244,0.0775042,0.517766,-0.983278,31.6875,3,21423,15299699
43,1,0.999468,0.00183351,0.0325574,-0.00104994,-0.665245,-0.0314163,9.72623,0.0205393,-0.592093,0.92569,-0.00665301,-0.000328587,0.0972622,1,7.26322e-05,-2.95636e-06,2.21704e-05,0.0145264,-0.000591273,0.00443407,0.999468,0.00183351,0.0325574,-0.00104994,0.0765747,0.517268,-0.982275,31.6875,3,21425,15299899
43,2,0.999471,0.00178749,0.0324549,-0.00104914,-0.546746,-0.0714807,9.8232,0.125833,-0.611911,1.02087,-0.00548563,-0.00071109,0.098231,1,-1.97371e-05,-9.25868e-05,1.46496e-05,-0.00394742,-0.0185174,0.00292993,0.999471,0.00178749,0.0324549,-0.00104914,0.0784546,0.519212,-0.982745,31.6875,3,21426,15299999
43,3,0.999471,0.00178749,0.0324549,-0.00104914,-0.546746,-0.0714807,9.8232,0.125833,-0.611911,1.02087,-0.00548563,-0.00071109,0.098231,1,-1.97371e-05,-9.25868e-05,1.46496e-05,-0.00394742,-0.0185174,0.00292993,0.999471,0.00178749,0.0324549,-0.00104914,0.0784546,0.519212,-0.982745,31.6875,3,21426,15299999
43,4,0.999471,0.00178749,0.0324549,-0.00104914,-0.546746,-0.0714807,9.8232,0.125833,-0.611911,1.02087,-0.00548563,-0.00071109,0.098231,1,-1.97371e-05,-9.25868e-05,1.46496e-05,-0.00394742,-0.0185174,0.00292993,0.999471,0.00178749,0.0324549,-0.00104914,0.0784546,0.519212,-0.982745,31.6875,3,21426,15299999
44,1,0.999471,0.00180295,0.0324509,-0.00106376,-0.506023,-0.177628,9.8053,0.194666,-0.730595,1.0097,-0.00505018,-0.00178585,0.0980534,1,4.82314e-05,5.10533e-05,1.07528e-05,0.00964627,0.0102107,0.00215057,0.999471,0.00180295,0.0324509,-0.00106376,0.0760243,0.51925,-0.983743,31.6875,3,21428,15300199
44,2,0.999472,0.00185105,0.0324184,-0.00105408,-0.578699,-0.146971,9.7776,0.0941903,-0.718361,0.963748,-0.00579111,-0.00148463,0.0977755,1,7.52754e-05,-2.13119e-05,1.65542e-05,0.0150551,-0.00426238,0.00331084,0.999472,0.00185105,0.0324184,-0.00105408,0.0765505,0.518731,-0.982242,31.6875,3,21429,15300299
44,3,0.999474,0.00190883,0.0323506,-0.0010454,-0.468868,0.0229544,9.82072,0.211229,-0.566795,0.992003,-0.00469987,0.000212762,0.0982067,1,8.46217e-05,-5.69632e-05,1.71618e-05,0.0169243,-0.0113926,0.00343236,0.999474,0.00190883,0.0323506,-0.0010454,0.0775583,0.519654,-0.979701,31.6875,3,21430,15300399
44,4,0.999474,0.00190883,0.0323506,-0.0010454,-0.468868,0.0229544,9.82072,0.211229,-0.566795,0.992003,-0.00469987,0.000212762,0.0982067,1,8.46217e-05,-5.69632e-05,1.71618e-05,0.0169243,-0.0113926,0.00343236,0.999474,0.00190883,0.0323506,-0.0010454,0.0775583,0.519654,-0.979701,31.6875,3,21430,15300399
45,1,0.999474,0.00185585,0.0323636,-0.00104623,-0.583289,-0.20953,9.75196,0.0934081,-0.753211,0.94196,-0.00583028,-0.0020958,0.0975197,1,2.42134e-06,1.3357e-05,2.66311e-06,0.000484268,0.00267141,0.000532622,0.999474,0.00185585,0.0323636,-0.00104623,0.0785158,0.517721,-0.981264,31.6875,3,21432,15300599
45,2,0.999474,0.00195604,0.0323398,-0.0010402,-0.562783,-0.135222,9.7552,0.10372,-0.716418,0.944544,-0.00563009,-0.00137719,0.0975515,1,0.000127146,-1.17642e-05,1.46639e-05,0.0254292,-0.00235284,0.00293278,0.999474,0.00195604,0.0323398,-0.0010402,0.0780466,0.516271,-0.981799,31.6875,3,21433,15300699
45,3,0.999474,0.00195604,0.0323398,-0.0010402,-0.562783,-0.135222,9.7552,0.10372,-0.716418,0.944544,-0.00563009,-0.00137719,0.0975515,1,0.000127146,-1.17642e-05,1.46639e-05,0.0254292,-0.00235284,0.00293278,0.999474,0.00195604,0.0323398,-0.0010402,0.0780466,0.516271,-0.981799,31.6875,3,21433,15300699
45,4,0.999474,0.00195604,0.0323398,-0.0010402,-0.562783,-0.135222,9.7552,0.10372,-0.716418,0.944544,-0.00563009,-0.00137719,0.0975515,1,0.000127146,-1.17642e-05,1.46639e-05,0.0254292,-0.00235284,0.00293278,0.999474,0.00195604,0.0323398,-0.0010402,0.0780466,0.516271,-0.981799,31.6875,3,21433,15300699
46,1,0.999476,0.00194268,0.0322911,-0.00100828,-0.429032,-0.0810631,9.83412,0.297148,-0.613183,1.07281,-0.00428411,-0.000808513,0.0983415,1,-1.22494e-05,3.13072e-05,3.40209e-05,-0.00244989,0.00626145,0.00680418,0.999476,0.00194268,0.0322911,-0.00100828,0.0761178,0.515808,-0.982305,31.6875,3,21435,15300899
46,2,0.999475,0.00197121,0.0323199,-0.00100898,-0.585264,-0.242403,9.74151,0.119103,-0.793499,1.00424,-0.00584444,-0.00243489,0.0974153,1,5.54454e-05,4.19489e-05,4.74955e-06,0.0110891,0.00838977,0.000949909,0.999475,0.00197121,0.0323199,-0.00100898,0.0776186,0.515273,-0.980304,31.6875,3,21436,15300999
46,3,0.999475,0.00197121,0.0323199,-0.00100898,-0.585264,-0.242403,9.74151,0.119103,-0.793499,1.00424,-0.00584444,-0.00243489,0.0974153,1,5.54454e-05,4.19489e-05,4.74955e-06,0.0110891,0.00838977,0.000949909,0.999475,0.00197121,0.0323199,-0.00100898,0.0776186,0.515273,-0.980304,31.6875,3,21436,15300999
46,4,0.999475,0.00197121,0.0323199,-0.00100898,-0.585264,-0.242403,9.74151,0.119103,-0.793499,1.00424,-0.00584444,-0.00243489,0.0974153,1,5.54454e-05,4.19489e-05,4.74955e-06,0.0110891,0.00838977,0.000949909,0.999475,0.00197121,0.0323199,-0.00100898,0.0776186,0.515273,-0.980304,31.6875,3,21436,15300999
47,1,0.999479,0.00207754,0.0321958,-0.00100738,-0.363413,0.0750733,9.82418,0.337641,-0.479909,1.07119,-0.00364061,0.000739608,0.0982416,1,5.5946e-05,-3.2822e-05,1.82656e-05,0.0111892,-0.00656441,0.00365311,0.999479,0.00207754,0.0321958,-0.00100738,0.0795511,0.514769,-0.980324,31.6875,3,21438,15301199
47,2,0.999479,0.00202615,0.0321934,-0.00100431,-0.41451,-0.0849634,9.86419,0.288219,-0.610496,1.08944,-0.00414284,-0.000844753,0.0986421,1,-2.51737e-05,1.13865e-05,1.03076e-05,-0.00503473,0.00227731,0.00206153,0.999479,0.00202615,0.0321934,-0.00100431,0.0785115,0.517243,-0.981779,31.6875,3,21439,15301299
47,3,0.999481,0.00206282,0.0321457,-0.000982651,-0.405853,-0.258034,9.80229,0.259784,-0.816286,1.01113,-0.00406479,-0.00259289,0.0980223,1,6.26799e-05,-3.2821e-05,3.26773e-05,0.012536,-0.00656419,0.00653545,0.999481,0.00206282,0.0321457,-0.000982651,0.0780674,0.51722,-0.980263,31.6875,3,21440,15301399
47,4,0.999481,0.00206282,0.0321457,-0.000982651,-0.405853,-0.258034,9.80229,0.259784,-0.816286,1.01113,-0.00406479,-0.00259289,0.0980223,1,6.26799e-05,-3.2821e-05,3.26773e-05,0.012536,-0.00656419,0.00653545,0.999481,0.00206282,0.0321457,-0.000982651,0.0780674,0.51722,-0.980263,31.6875,3,21440,15301399
48,1,0.999482,0.00211634,0.0320924,-0.000957532,-0.257701,-0.0848937,9.85466,0.41553,-0.625578,1.01438,-0.00257616,-0.000847339,0.0985466,1,-8.73583e-06,4.13128e-06,2.40263e-05,-0.00174717,0.000826257,0.00480525,0.999482,0.00211634,0.0320924,-0.000957532,0.0776599,0.515724,-0.978274,31.6875,3,21442,15301599
48,2,0.999484,0.00212964,0.0320521,-0.000927521,-0.236313,-0.202697,9.85691,0.447474,-0.779801,1.02509,-0.00236752,-0.00203488,0.0985688,1,3.92317e-05,-2.30397e-05,3.76201e-05,0.00784633,-0.00460793,0.00752401,0.999484,0.00212964,0.0320521,-0.000927521,0.0752097,0.517704,-0.978723,31.6875,3,21443,15301699
48,3,0.999484,0.00212964,0.0320521,-0.000927521,-0.236313,-0.202697,9.85691,0.447474,-0.779801,1.02509,-0.00236752,-0.00203488,0.0985688,1,3.92317e-05,-2.30397e-05,3.76201e-05,0.00784633,-0.00460793,0.00752401,0.999484,0.00212964,0.0320521,-0.000927521,0.0752097,0.517704,-0.978723,31.6875,3,21443,15301699
48,4,0.999484,0.00212964,0.0320521,-0.000927521,-0.236313,-0.202697,9.85691,0.447474,-0.779801,1.02509,-0.00236752,-0.00203488,0.0985688,1,3.92317e-05,-2.30397e-05,3.76201e-05,0.00784633,-0.00460793,0.00752401,0.999484,0.00212964,0.0320521,-0.000927521,0.0752097,0.517704,-0.978723,31.6875,3,21443,15301699
49,1,0.999482,0.00224694,0.032089,-0.000921406,-0.352292,-0.0223076,9.7995,0.32621,-0.575545,0.962057,-0.00351484,-0.000233983,0.0979953,1,5.55573e-05,4.11867e-05,2.54736e-06,0.0111115,0.00823733,0.000509471,0.999482,0.00224694,0.032089,-0.000921406,0.0755807,0.520672,-0.981184,31.6875,3,21445,15301899
49,2,0.999486,0.00220112,0.0319819,-0.00088843,-0.284959,-0.08127,9.80537,0.344091,-0.635651,0.988186,-0.00286659,-0.000809029,0.0980533,1,-1.99205e-05,-8.70504e-05,4.12473e-05,-0.0039841,-0.0174101,0.00824946,0.999486,0.00220112,0.0319819,-0.00088843,0.077546,0.519663,-0.980206,31.6875,3,21446,15301999
49,3,0.999487,0.00220261,0.0319501,-0.000878187,-0.190496,-0.0592646,9.77639,0.47485,-0.64189,0.921172,-0.00190708,-0.000598101,0.0977638,1,2.75407e-05,-1.09301e-05,1.84018e-05,0.00550814,-0.00218601,0.00368037,0.999487,0.00220261,0.0319501,-0.000878187,0.0766003,0.52014,-0.979181,31.6875,3,21447,15302099
49,4,0.999487,0.00220261,0.0319501,-0.000878187,-0.190496,-0.0592646,9.77639,0.47485,-0.64189,0.921172,-0.00190708,-0.000598101,0.0977638,1,2.75407e-05,-1.09301e-05,1.84018e-05,0.00550814,-0.00218601,0.00368037,0.999487,0.00220261,0.0319501,-0.000878187,0.0766003,0.52014,-0.979181,31.6875,3,21447,15302099
50,1,0.99949,0.00221033,0.0318538,-0.00086799,-0.141415,-0.120671,9.82609,0.53414,-0.673407,0.97193,-0.00142022,-0.0012044,0.0982608,1,-1.19713e-05,-3.10578e-05,1.33808e-05,-0.00239427,-0.00621157,0.00267617,0.99949,0.00221033,0.0318538,-0.00086799,0.0746469,0.519696,-0.980697,31.6875,3,21449,15302299
50,2,0.999491,0.00223728,0.0318206,-0.000848968,-0.169189,-0.19673,9.81511,0.51088,-0.793892,0.998508,-0.0016935,-0.00197782,0.0981509,1,5.31598e-05,-8.71063e-06,2.63102e-05,0.010632,-0.00174213,0.00526203,0.999491,0.00223728,0.0318206,-0.000848968,0.075165,0.519665,-0.979185,31.6875,3,21450,15302399
50,3,0.999491,0.00223728,0.0318206,-0.000848968,-0.169189,-0.19673,9.81511,0.51088,-0.793892,0.998508,-0.0016935,-0.00197782,0.0981509,1,5.31598e-05,-8.71063e-06,2.63102e-05,0.010632,-0.00174213,0.00526203,0.999491,0.00223728,0.0318206,-0.000848968,0.075165,0.519665,-0.979185,31.6875,3,21450,15302399
50,4,0.999491,0.00223728,0.0318206,-0.000848968,-0.169189,-0.19673,9.81511,0.51088,-0.793892,0.998508,-0.0016935,-0.00197782,0.0981509,1,5.31598e-05,-8.71063e-06,2.63102e-05,0.010632,-0.00174213,0.00526203,0.999491,0.00223728,0.0318206,-0.000848968,0.075165,0.519665,-0.979185,31.6875,3,21450,15302399
51,1,0.999493,0.00225147,0.0317416,-0.000807185,-0.243182,-0.173424,9.81173,0.436418,-0.730012,0.947612,-0.0024282,-0.00173027,0.0981175,1,-2.12476e-05,1.76795e-05,4.21789e-05,-0.00424952,0.00353591,0.00843579,0.999493,0.00225147,0.0317416,-0.000807185,0.0760694,0.518735,-0.98224,31.6875,3,21452,15302599
51,2,0.999496,0.00235977,0.0316573,-0.000796015,-0.210821,-0.0632589,9.84878,0.453368,-0.662127,1.02776,-0.00211938,-0.000659244,0.0984874,1,0.000134861,-5.68714e-05,2.15957e-05,0.0269722,-0.0113743,0.00431913,0.999496,0.00235977,0.0316573,-0.000796015,0.0751646,0.518219,-0.980227,31.6875,3,21453,15302699
51,3,0.999496,0.00235977,0.0316573,-0.000796015,-0.210821,-0.0632589,9.84878,0.453368,-0.662127,1.02776,-0.00211938,-0.000659244,0.0984874,1,0.000134861,-5.68714e-05,2.15957e-05,0.0269722,-0.0113743,0.00431913,0.999496,0.00235977,0.0316573,-0.000796015,0.0751646,0.518219,-0.980227,31.6875,3,21453,15302699
51,4,0.999496,0.00235977,0.0316573,-0.000796015,-0.210821,-0.0632589,9.84878,0.453368,-0.662127,1.02776,-0.00211938,-0.000659244,0.0984874,1,0.000134861,-5.68714e-05,2.15957e-05,0.0269722,-0.0113743,0.00431913,0.999496,0.00235977,0.0316573,-0.000796015,0.0751646,0.518219,-0.980227,31.6875,3,21453,15302699
52,1,0.9995,0.00235464,0.0315349,-0.000775411,-0.092025,-0.0827888,9.8858,0.597646,-0.673007,1.01886,-0.00091786,-0.00084124,0.0988579,1,6.74594e-05,1.20218e-05,7.4587e-06,0.0134919,0.00240435,0.00149174,0.9995,0.00235464,0.0315349,-0.000775411,0.0752343,0.517686,-0.977714,31.6875,3,21455,15302899
52,2,0.9995,0.00237209,0.0315101,-0.000781134,-0.261074,-0.068451,9.81309,0.411146,-0.629327,1.01155,-0.00260953,-0.000693219,0.0981309,1,4.42901e-05,6.12954e-06,3.06024e-06,0.00885803,0.00122591,0.000612048,0.9995,0.00237209,0.0315101,-0.000781134,0.0771057,0.518673,-0.979216,31.6875,3,21456,15302999
52,3,0.9995,0.00237209,0.0315101,-0.000781134,-0.261074,-0.068451,9.81309,0.411146,-0.629327,1.01155,-0.00260953,-0.000693219,0.0981309,1,4.42901e-05,6.12954e-06,3.06024e-06,0.00885803,0.00122591,0.000612048,0.9995,0.00237209,0.0315101,-0.000781134,0.0771057,0.518673,-0.979216,31.6875,3,21456,15302999
52,4,0.9995,0.00237209,0.0315101,-0.000781134,-0.261074,-0.068451,9.81309,0.411146,-0.629327,1.01155,-0.00260953,-0.000693219,0.0981309,1,4.42901e-05,6.12954e-06,3.06024e-06,0.00885803,0.00122591,0.000612048,0.9995,0.00237209,0.0315101,-0.000781134,0.0771057,0.518673,-0.979216,31.6875,3,21456,15302999
53,1,0.999505,0.00241099,0.0313716,-0.000777143,-0.23717,-0.141093,9.83812,0.419398,-0.740377,0.989589,-0.00238598,-0.00142201,0.0983807,1,5.57283e-05,-7.29192e-05,2.39642e-05,0.0111457,-0.0145838,0.00479284,0.999505,0.00241099,0.0313716,-0.000777143,0.0755399,0.521666,-0.982172,31.6875,3,21458,15303199
53,2,0.999507,0.00243614,0.0312863,-0.000760161,-0.108044,-0.125739,9.87129,0.548793,-0.704847,1.04175,-0.00109073,-0.00126759,0.0987127,1,5.14149e-05,-5.24757e-05,2.58636e-05,0.010283,-0.0104951,0.00517271,0.999507,0.00243614,0.0312863,-0.000760161,0.0741653,0.518254,-0.981737,31.6875,3,21459,15303299
53,3,0.999507,0.00252036,0.031288,-0.000749495,-0.113473,-0.0140389,9.82341,0.558595,-0.601969,0.954234,-0.00112775,-0.00016224,0.0982342,1,0.000110997,3.55133e-05,1.92589e-05,0.0221993,0.00710265,0.00385179,0.999507,0.00252036,0.031288,-0.000749495,0.0742389,0.516755,-0.97975,31.6875,3,21460,15303399
53,4,0.999507,0.00252036,0.031288,-0.000749495,-0.113473,-0.0140389,9.82341,0.558595,-0.601969,0.954234,-0.00112775,-0.00016224,0.0982342,1,0.000110997,3.55133e-05,1.92589e-05,0.0221993,0.00710265,0.00385179,0.999507,0.00252036,0.031288,-0.000749495,0.0742389,0.516755,-0.97975,31.6875,3,21460,15303399
54,1,0.999512,0.00251171,0.0311238,-0.000718326,-0.221257,-0.0232257,9.7661,0.411173,-0.595141,0.934449,-0.00223576,-0.000233026,0.0976605,1,3.50377e-06,-0.000118755,1.90126e-05,0.000700753,-0.023751,0.00380252,0.999512,0.00251171,0.0311238,-0.000718326,0.0751693,0.520143,-0.978669,31.6875,3,21462,15303599
54,2,0.999518,0.00246817,0.0309555,-0.000713572,0.0692841,-0.0805745,9.89661,0.714272,-0.651445,1.03244,0.000666616,-0.000802249,0.0989663,1,-1.75698e-05,-0.000132604,1.33926e-05,-0.00351396,-0.0265207,0.00267851,0.999518,0.00246817,0.0309555,-0.000713572,0.0755237,0.522641,-0.982151,31.6875,3,21463,15303699
54,3,0.999518,0.00246817,0.0309555,-0.000713572,0.0692841,-0.0805745,9.89661,0.714272,-0.651445,1.03244,0.000666616,-0.000802249,0.0989663,1,-1.75698e-05,-0.000132604,1.33926e-05,-0.00351396,-0.0265207,0.00267851,0.999518,0.00246817,0.0309555,-0.000713572,0.0755237,0.522641,-0.982151,31.6875,3,21463,15303699
54,4,0.999518,0.00246817,0.0309555,-0.000713572,0.0692841,-0.0805745,9.89661,0.714272,-0.651445,1.03244,0.000666616,-0.000802249,0.0989663,1,-1.75698e-05,-0.000132604,1.33926e-05,-0.00351396,-0.0265207,0.00267851,0.999518,0.00246817,0.0309555,-0.000713572,0.0755237,0.522641,-0.982151,31.6875,3,21463,15303699
55,1,0.999516,0.00256105,0.0309815,-0.000707748,-0.328925,-0.217824,9.76479,0.310595,-0.807234,0.904438,-0.00328135,-0.00220099,0.0976476,1,0.000116108,4.01643e-05,1.23066e-05,0.0232217,0.00803286,0.00246132,0.999516,0.00256105,0.0309815,-0.000707748,0.0726902,0.521663,-0.980644,31.6875,3,21465,15303899
55,2,0.999524,0.00251383,0.0307302,-0.000675448,-0.117343,-0.209881,9.85542,0.494541,-0.795624,1.00475,-0.00121518,-0.00209466,0.0985537,1,-2.15115e-05,-0.000212652,3.92775e-05,-0.00430229,-0.0425303,0.0078555,0.999524,0.00251383,0.0307302,-0.000675448,0.0737183,0.522088,-0.977609,31.6875,3,21466,15303999
55,3,0.999524,0.00251383,0.0307302,-0.000675448,-0.117343,-0.209881,9.85542,0.494541,-0.795624,1.00475,-0.00121518,-0.00209466,0.0985537,1,-2.15115e-05,-0.000212652,3.92775e-05,-0.00430229,-0.0425303,0.0078555,0.999524,0.00251383,0.0307302,-0.000675448,0.0737183,0.522088,-0.977609,31.6875,3,21466,15303999
55,4,0.999524,0.00251383,0.0307302,-0.000675448,-0.117343,-0.209881,9.85542,0.494541,-0.795624,1.00475,-0.00121518,-0.00209466,0.0985537,1,-2.15115e-05,-0.000212652,3.92775e-05,-0.00430229,-0.0425303,0.0078555,0.999524,0.00251383,0.0307302,-0.000675448,0.0737183,0.522088,-0.977609,31.6875,3,21466,15303999
56,1,0.999525,0.00261236,0.0307067,-0.000671773,-0.165911,0.0816669,9.96472,0.511831,-0.482294,1.13312,-0.00164468,0.000816648,0.0996475,1,-6.82124e-08,7.24844e-05,1.06661e-05,-1.36425e-05,0.0144969,0.00213322,0.999525,0.00261236,0.0307067,-0.000671773,0.0746678,0.520644,-0.979161,31.6875,3,21468,15304199
56,2,0.999527,0.00263458,0.0306261,-0.000672313,-0.179039,-0.0856991,9.79611,0.456171,-0.674654,0.958698,-0.001798,-0.000866492,0.0979609,1,4.83446e-05,-3.8924e-05,8.17545e-06,0.00966892,-0.00778481,0.00163509,0.999527,0.00263458,0.0306261,-0.000672313,0.0736728,0.521158,-0.980155,31.6875,3,21469,15304299
56,3,0.999528,0.00263925,0.0306014,-0.000660636,-0.182263,-0.0124873,9.76384,0.475322,-0.587147,0.908507,-0.00181919,-0.000130881,0.0976385,1,3.0389e-05,1.75529e-05,2.00616e-05,0.00607779,0.00351058,0.00401232,0.999528,0.00263925,0.0306014,-0.000660636,0.0722461,0.52164,-0.979127,31.6875,3,21470,15304399
56,4,0.999528,0.00263925,0.0306014,-0.000660636,-0.182263,-0.0124873,9.76384,0.475322,-0.587147,0.908507,-0.00181919,-0.000130881,0.0976385,1,3.0389e-05,1.75529e-05,2.00616e-05,0.00607779,0.00351058,0.00401232,0.999528,0.00263925,0.0306014,-0.000660636,0.0722461,0.52164,-0.979127,31.6875,3,21470,15304399
57,1,0.999536,0.00258315,0.0303387,-0.000634923,-0.0331066,-0.147709,9.86993,0.576371,-0.726124,1.01894,-0.000361864,-0.00147894,0.0986992,1,9.31574e-06,-0.000156405,2.58769e-05,0.00186315,-0.031281,0.00517539,0.999536,0.00258315,0.0303387,-0.000634923,0.0742531,0.522527,-0.975076,31.6875,3,21472,15304599
57,2,0.999536,0.00262009,0.0303382,-0.000625215,0.0852464,-0.166949,9.83197,0.746986,-0.75328,0.936482,0.000861079,-0.00168174,0.0983194,1,6.2465e-05,4.34411e-05,2.19671e-05,0.012493,0.00868823,0.00439341,0.999536,0.00262009,0.0303382,-0.000625215,0.0732657,0.521108,-0.977124,31.6875,3,21473,15304699
57,3,0.999536,0.00262009,0.0303382,-0.000625215,0.0852464,-0.166949,9.83197,0.746986,-0.75328,0.936482,0.000861079,-0.00168174,0.0983194,1,6.2465e-05,4.34411e-05,2.19671e-05,0.012493,0.00868823,0.00439341,0.999536,0.00262009,0.0303382,-0.000625215,0.0732657,0.521108,-0.977124,31.6875,3,21473,15304699
57,4,0.999536,0.00262009,0.0303382,-0.000625215,0.0852464,-0.166949,9.83197,0.746986,-0.75328,0.936482,0.000861079,-0.00168174,0.0983194,1,6.2465e-05,4.34411e-05,2.19671e-05,0.012493,0.00868823,0.00439341,0.999536,0.00262009,0.0303382,-0.000625215,0.0732657,0.521108,-0.977124,31.6875,3,21473,15304699
58,1,0.999541,0.00266167,0.0301576,-0.000588472,-0.0693822,0.000708575,9.85382,0.519888,-0.570634,0.99172,-0.000722498,5.85157e-06,0.098538,1,5.99037e-06,-0.000145504,3.78602e-05,0.00119807,-0.0291008,0.00757205,0.999541,0.00266167,0.0301576,-0.000588472,0.0732211,0.523068,-0.977585,31.6875,3,21475,15304899
58,2,0.999543,0.00261315,0.0301195,-0.000574164,0.00652738,-0.22291,9.72108,0.648243,-0.800802,0.841773,6.6954e-05,-0.00222463,0.0972109,1,-2.30199e-05,8.10937e-06,2.32381e-05,-0.00460398,0.00162187,0.00464762,0.999543,0.00261315,0.0301195,-0.000574164,0.071745,0.523586,-0.978577,31.6875,3,21476,15304999
58,3,0.999543,0.00276987,0.0301103,-0.00057737,-0.18432,0.00632816,9.86921,0.436023,-0.616835,1.04013,-0.0018357,2.71121e-05,0.0986922,1,0.000183043,3.7992e-05,1.0808e-05,0.0366085,0.00759839,0.0021616,0.999543,0.00276987,0.0301103,-0.00057737,0.0707913,0.524551,-0.977541,31.6875,3,21477,15305099
58,4,0.999543,0.00276987,0.0301103,-0.00057737,-0.18432,0.00632816,9.86921,0.436023,-0.616835,1.04013,-0.0018357,2.71121e-05,0.0986922,1,0.000183043,3.7992e-05,1.0808e-05,0.0366085,0.00759839,0.0021616,0.999543,0.00276987,0.0301103,-0.00057737,0.0707913,0.524551,-0.977541,31.6875,3,21477,15305099
59,1,0.999546,0.00262903,0.029997,-0.000551468,-0.0569807,-0.25221,9.64118,0.659405,-0.835564,0.813119,-0.000539859,-0.00252389,0.096412,1,9.2632e-06,0.000155233,3.06136e-06,0.00185264,0.0310466,0.000612272,0.999546,0.00262903,0.029997,-0.000551468,0.0708359,0.522591,-0.977079,31.6875,3,21479,15305299
59,2,0.999546,0.00262903,0.029997,-0.000551468,-0.0569807,-0.25221,9.64118,0.659405,-0.835564,0.813119,-0.000539859,-0.00252389,0.096412,1,9.2632e-06,0.000155233,3.06136e-06,0.00185264,0.0310466,0.000612272,0.999546,0.00262903,0.029997,-0.000551468,0.0708359,0.522591,-0.977079,31.6875,3,21479,15305299
59,3,0.999547,0.002762,0.0299784,-0.000549853,-0.46395,-0.0479308,9.87134,0.164076,-0.666511,1.02501,-0.00463338,-0.000510793,0.0987135,1,0.00015882,3.09369e-05,1.39688e-05,0.0317639,0.00618737,0.00279376,0.999547,0.002762,0.0299784,-0.000549853,0.0717621,0.525501,-0.976514,31.6875,3,21480,15305399
59,4,0.999547,0.002762,0.0299784,-0.000549853,-0.46395,-0.0479308,9.87134,0.164076,-0.666511,1.02501,-0.00463338,-0.000510793,0.0987135,1,0.00015882,3.09369e-05,1.39688e-05,0.0317639,0.00618737,0.00279376,0.999547,0.002762,0.0299784,-0.000549853,0.0717621,0.525501,-0.976514,31.6875,3,21480,15305399
60,1,0.999557,0.0027484,0.0296185,-0.000493894,0.33542,-0.251879,9.9722,0.978729,-0.904225,1.05951,0.00337921,-0.00257138,0.0997198,1,0.000264386,0.000124876,2.11477e-05,0.0528772,0.0249751,0.00422955,0.999557,0.0027484,0.0296185,-0.000493894,0.0688341,0.525073,-0.97853,31.6875,3,21482,15305599
60,2,0.999559,0.00268836,0.0295807,-0.000456101,0.0390283,0.099671,9.90042,0.676449,-0.470245,1.14753,0.000393035,0.00100356,0.0990041,1,-3.44368e-05,1.43469e-05,4.46849e-05,-0.00688736,0.00286938,0.00893698,0.999559,0.00268836,0.0295807,-0.000456101,0.0683406,0.525086,-0.979033,31.6875,3,21483,15305699
60,3,0.999559,0.00268836,0.0295807,-0.000456101,0.0390283,0.099671,9.90042,0.676449,-0.470245,1.14753,0.000393035,0.00100356,0.0990041,1,-3.44368e-05,1.43469e-05,4.46849e-05,-0.00688736,0.00286938,0.00893698,0.999559,0.00268836,0.0295807,-0.000456101,0.0683406,0.525086,-0.979033,31.6875,3,21483,15305699
60,4,0.999559,0.00268836,0.0295807,-0.000456101,0.0390283,0.099671,9.90042,0.676449,-0.470245,1.14753,0.000393035,0.00100356,0.0990041,1,-3.44368e-05,1.43469e-05,4.46849e-05,-0.00688736,0.00286938,0.00893698,0.999559,0.00268836,0.0295807,-0.000456101,0.0683406,0.525086,-0.979033,31.6875,3,21483,15305699
61,1,0.999561,0.0027372,0.0294893,-0.000442963,-0.17461,-0.0953321,10.0688,0.429611,-0.701321,1.17768,-0.00175371,-0.000968272,0.100688,1,7.40667e-05,-3.78885e-05,1.04347e-05,0.0148133,-0.00757769,0.00208694,0.999561,0.0027372,0.0294893,-0.000442963,0.0694058,0.525485,-0.974483,31.6875,3,21485,15305899
61,2,0.99957,0.00273155,0.0291872,-0.000429086,0.227074,0.156339,9.88771,0.858939,-0.467248,1.07322,0.00222151,0.00155951,0.0988782,1,2.00967e-05,-0.000248629,2.27281e-05,0.00401934,-0.0497258,0.00454562,0.99957,0.00273155,0.0291872,-0.000429086,0.0698584,0.526465,-0.974969,31.6875,3,21486,15305999
61,3,0.99957,0.00273155,0.0291872,-0.000429086,0.227074,0.156339,9.88771,0.858939,-0.467248,1.07322,0.00222151,0.00155951,0.0988782,1,2.00967e-05,-0.000248629,2.27281e-05,0.00401934,-0.0497258,0.00454562,0.99957,0.00273155,0.0291872,-0.000429086,0.0698584,0.526465,-0.974969,31.6875,3,21486,15305999
61,4,0.99957,0.00273155,0.0291872,-0.000429086,0.227074,0.156339,9.88771,0.858939,-0.467248,1.07322,0.00222151,0.00155951,0.0988782,1,2.00967e-05,-0.000248629,2.27281e-05,0.00401934,-0.0497258,0.00454562,0.99957,0.00273155,0.0291872,-0.000429086,0.0698584,0.526465,-0.974969,31.6875,3,21486,15305999
62,1,0.999569,0.00255321,0.0292508,-0.000419991,-0.43237,-0.364784,9.88141,0.171575,-0.91013,1.1357,-0.00436288,-0.00361151,0.0988137,1,-0.000185464,-0.000199631,3.68692e-05,-0.0370928,-0.0399262,0.00737383,0.999569,0.00255321,0.0292508,-0.000419991,0.0693645,0.525033,-0.976513,31.6875,3,21488,15306199
62,2,0.999577,0.00267251,0.0289701,-0.000434528,0.236231,-0.257159,9.7325,0.777671,-0.889309,0.772407,0.00231833,-0.00259973,0.0973254,1,0.000144599,-0.000225973,1.02098e-06,0.0289198,-0.0451946,0.000204195,0.999577,0.00267251,0.0289701,-0.000434528,0.0679255,0.525524,-0.975991,31.6875,3,21489,15306299
62,3,0.999576,0.002579,0.0290027,-0.000421538,0.167154,-0.184077,9.96327,0.842649,-0.744553,1.1253,0.00168927,-0.00182712,0.0996326,1,-6.81782e-05,8.86189e-05,1.94456e-05,-0.0136356,0.0177238,0.00388911,0.999576,0.002579,0.0290027,-0.000421538,0.0689166,0.525976,-0.97447,31.6875,3,21490,15306399
62,4,0.999576,0.002579,0.0290027,-0.000421538,0.167154,-0.184077,9.96327,0.842649,-0.744553,1.1253,0.00168927,-0.00182712,0.0996326,1,-6.81782e-05,8.86189e-05,1.94456e-05,-0.0136356,0.0177238,0.00388911,0.999576,0.002579,0.0290027,-0.000421538,0.0689166,0.525976,-0.97447,31.6875,3,21490,15306399
63,1,0.999575,0.00276242,0.0290128,-0.000423017,-0.187789,0.158195,9.63131,0.441977,-0.426819,0.770458,-0.0018506,0.00157201,0.0963138,1,5.12407e-05,0.000141921,1.71638e-05,0.0102481,0.0283843,0.00343276,0.999575,0.00276242,0.0290128,-0.000423017,0.068407,0.526965,-0.974951,31.6875,3,21492,15306599
63,2,0.999581,0.00257162,0.0288302,-0.000385132,-0.19573,-0.302839,9.92535,0.410867,-0.834222,1.09766,-0.00198185,-0.00299548,0.099254,1,-0.000166604,-0.000124941,4.21912e-05,-0.0333208,-0.0249883,0.00843824,0.999581,0.00257162,0.0288302,-0.000385132,0.0673632,0.52896,-0.976922,31.6875,3,21493,15306699
63,3,0.999581,0.00257162,0.0288302,-0.000385132,-0.19573,-0.302839,9.92535,0.410867,-0.834222,1.09766,-0.00198185,-0.00299548,0.099254,1,-0.000166604,-0.000124941,4.21912e-05,-0.0333208,-0.0249883,0.00843824,0.999581,0.00257162,0.0288302,-0.000385132,0.0673632,0.52896,-0.976922,31.6875,3,21493,15306699
63,4,0.999581,0.00257162,0.0288302,-0.000385132,-0.19573,-0.302839,9.92535,0.410867,-0.834222,1.09766,-0.00198185,-0.00299548,0.099254,1,-0.000166604,-0.000124941,4.21912e-05,-0.0333208,-0.0249883,0.00843824,0.999581,0.00257162,0.0288302,-0.000385132,0.0673632,0.52896,-0.976922,31.6875,3,21493,15306699
64,1,0.999585,0.00273492,0.028674,-0.000378845,0.131677,-0.13877,9.87126,0.786825,-0.72564,1.06986,0.00133098,-0.00140089,0.0987122,1,6.68897e-05,7.18682e-05,5.77057e-06,0.0133779,0.0143736,0.00115411,0.999585,0.00273492,0.028674,-0.000378845,0.0688881,0.526961,-0.974953,31.6875,3,21495,15306899
64,2,0.999585,0.00288657,0.0286692,-0.000377201,-0.139914,0.0437288,9.93027,0.486972,-0.562788,1.04645,-0.00138828,0.000401873,0.099303,1,0.000178097,5.47102e-05,1.57406e-05,0.0356193,0.010942,0.00314812,0.999585,0.00288657,0.0286692,-0.000377201,0.0693446,0.526975,-0.975965,31.6875,3,21496,15306999
64,3,0.999587,0.00265574,0.0286244,-0.000331904,-0.369731,-0.269224,9.66687,0.220093,-0.811214,0.812257,-0.0036942,-0.00265277,0.0966699,1,-0.000206045,1.47494e-05,4.87611e-05,-0.0412091,0.00294988,0.00975222,0.999587,0.00265574,0.0286244,-0.000331904,0.0678694,0.530383,-0.974872,31.6875,3,21497,15307099
64,4,0.999587,0.00265574,0.0286244,-0.000331904,-0.369731,-0.269224,9.66687,0.220093,-0.811214,0.812257,-0.0036942,-0.00265277,0.0966699,1,-0.000206045,1.47494e-05,4.87611e-05,-0.0412091,0.00294988,0.00975222,0.999587,0.00265574,0.0286244,-0.000331904,0.0678694,0.530383,-0.974872,31.6875,3,21497,15307099
65,1,0.999596,0.00296404,0.028257,-0.000290358,0.249453,0.313901,9.48657,0.845903,-0.233782,0.623856,0.00247564,0.0031311,0.0948665,1,4.26843e-05,-9.83397e-05,3.6988e-05,0.00853685,-0.0196679,0.00739761,0.999596,0.00296404,0.028257,-0.000290358,0.0669025,0.528467,-0.976426,31.6875,3,21499,15307299
65,2,0.999599,0.00284199,0.028172,-0.00027038,0.262525,-0.283974,10.1511,0.819694,-0.869076,1.07243,0.00262034,-0.00281994,0.101511,1,-9.68185e-05,-2.48859e-05,2.64774e-05,-0.0193637,-0.00497719,0.00529548,0.999599,0.00284199,0.028172,-0.00027038,0.0669025,0.528467,-0.976426,31.6875,3,21500,15307399
65,3,0.999599,0.00284199,0.028172,-0.00027038,0.262525,-0.283974,10.1511,0.819694,-0.869076,1.07243,0.00262034,-0.00281994,0.101511,1,-9.68185e-05,-2.48859e-05,2.64774e-05,-0.0193637,-0.00497719,0.00529548,0.999599,0.00284199,0.028172,-0.00027038,0.0669025,0.528467,-0.976426,31.6875,3,21500,15307399
65,4,0.999599,0.00284199,0.028172,-0.00027038,0.262525,-0.283974,10.1511,0.819694,-0.869076,1.07243,0.00262034,-0.00281994,0.101511,1,-9.68185e-05,-2.48859e-05,2.64774e-05,-0.0193637,-0.00497719,0.00529548,0.999599,0.00284199,0.028172,-0.00027038,0.0669025,0.528467,-0.976426,31.6875,3,21500,15307399
66,1,0.999596,0.0030785,0.0282421,-0.00028464,-0.0393683,0.188062,9.88911,0.666243,-0.379713,1.13709,-0.000333948,0.00185457,0.0988919,1,0.000131716,0.000302031,6.55215e-07,0.0263431,0.0604061,0.000131043,0.999596,0.0030785,0.0282421,-0.00028464,0.0659976,0.527951,-0.974413,31.6875,3,21502,15307599
66,2,0.999596,0.00298775,0.028267,-0.000262991,-0.825953,-0.238277,9.72423,-0.243038,-0.843082,0.909065,-0.00824229,-0.00237049,0.0972441,1,-6.56776e-05,8.78973e-05,3.03849e-05,-0.0131355,0.0175795,0.00607698,0.999596,0.00298775,0.028267,-0.000262991,0.0674861,0.527425,-0.972916,31.6875,3,21503,15307699
66,3,0.999596,0.00298775,0.028267,-0.000262991,-0.825953,-0.238277,9.72423,-0.243038,-0.843082,0.909065,-0.00824229,-0.00237049,0.0972441,1,-6.56776e-05,8.78973e-05,3.03849e-05,-0.0131355,0.0175795,0.00607698,0.999596,0.00298775,0.028267,-0.000262991,0.0674861,0.527425,-0.972916,31.6875,3,21503,15307699
66,4,0.999596,0.00298775,0.028267,-0.000262991,-0.825953,-0.238277,9.72423,-0.243038,-0.843082,0.909065,-0.00824229,-0.00237049,0.0972441,1,-6.56776e-05,8.78973e-05,3.03849e-05,-0.0131355,0.0175795,0.00607698,0.999596,0.00298775,0.028267,-0.000262991,0.0674861,0.527425,-0.972916,31.6875,3,21503,15307699
67,1,0.999616,0.00270246,0.0275671,-0.000236748,0.691746,0.0370553,9.97746,1.27982,-0.354549,1.07365,0.00688078,0.000503143,0.0997766,1,-0.00066107,-0.000183592,4.86863e-05,-0.132214,-0.0367184,0.00973726,0.999616,0.00270246,0.0275671,-0.000236748,0.0653983,0.531415,-0.976858,31.6875,3,21505,15307899
67,2,0.999612,0.00295917,0.027688,-0.000245845,0.370054,-0.745737,10.119,1.05182,-1.41379,1.22368,0.003738,-0.00751415,0.101184,1,0.000280831,0.000184665,6.36782e-06,0.0561662,0.036933,0.00127356,0.999612,0.00295917,0.027688,-0.000245845,0.0650112,0.529423,-0.974375,31.6875,3,21506,15307999
67,3,0.99961,0.00309158,0.0277461,-0.000224472,-0.114003,0.0355351,10.0749,0.529888,-0.608938,1.29371,-0.00111522,0.000323581,0.100749,1,0.000157277,0.000123221,3.47305e-05,0.0314555,0.0246442,0.00694611,0.99961,0.00309158,0.0277461,-0.000224472,0.0645913,0.527936,-0.972891,31.6875,3,21507,15308099
67,4,0.99961,0.00309158,0.0277461,-0.000224472,-0.114003,0.0355351,10.0749,0.529888,-0.608938,1.29371,-0.00111522,0.000323581,0.100749,1,0.000157277,0.000123221,3.47305e-05,0.0314555,0.0246442,0.00694611,0.99961,0.00309158,0.0277461,-0.000224472,0.0645913,0.527936,-0.972891,31.6875,3,21507,15308099
68,1,0.999615,0.00288897,0.0276011,-0.000144477,-0.366696,-0.374304,9.77502,0.154833,-0.975881,0.828878,-0.00370569,-0.00373432,0.097749,1,-4.71592e-05,-0.000200701,6.773e-05,-0.00943185,-0.0401403,0.013546,0.999615,0.00288897,0.0276011,-0.000144477,0.0636053,0.530853,-0.971812,31.6875,3,21509,15308299
68,2,0.999615,0.00288897,0.0276011,-0.000144477,-0.366696,-0.374304,9.77502,0.154833,-0.975881,0.828878,-0.00370569,-0.00373432,0.097749,1,-4.71592e-05,-0.000200701,6.773e-05,-0.00943185,-0.0401403,0.013546,0.999615,0.00288897,0.0276011,-0.000144477,0.0636053,0.530853,-0.971812,31.6875,3,21509,15308299
68,3,0.999622,0.00288573,0.0273412,-0.00010431,0.0918357,-0.109912,9.72385,0.621805,-0.708918,0.819824,0.000880253,-0.00110316,0.0972388,1,2.12695e-05,-0.000196496,5.01067e-05,0.00425391,-0.0392993,0.0100213,0.999622,0.00288573,0.0273412,-0.00010431,0.064066,0.531346,-0.972308,31.6875,3,21510,15308399
68,4,0.999622,0.00288573,0.0273412,-0.00010431,0.0918357,-0.109912,9.72385,0.621805,-0.708918,0.819824,0.000880253,-0.00110316,0.0972388,1,2.12695e-05,-0.000196496,5.01067e-05,0.00425391,-0.0392993,0.0100213,0.999622,0.00288573,0.0273412,-0.00010431,0.064066,0.531346,-0.972308,31.6875,3,21510,15308399
69,1,0.999622,0.00292158,0.0273282,-0.000108958,-0.381226,0.156105,9.82931,0.19339,-0.335474,1.06963,-0.00384123,0.00160486,0.0982913,1,-0.00022391,-0.000146925,2.70655e-05,-0.044782,-0.0293849,0.0054131,0.999622,0.00292158,0.0273282,-0.000108958,0.0644935,0.530899,-0.974845,31.6875,3,21512,15308599
69,2,0.999628,0.00277639,0.0271353,-7.80993e-05,-0.308557,-0.721413,9.56189,0.265126,-1.30933,0.748146,-0.00310979,-0.00719107,0.0956198,1,-0.000121768,-0.000129492,3.76782e-05,-0.0243537,-0.0258984,0.00753565,0.999628,0.00277639,0.0271353,-7.80993e-05,0.0630421,0.531399,-0.974827,31.6875,3,21513,15308699
69,3,0.999628,0.00277639,0.0271353,-7.80993e-05,-0.308557,-0.721413,9.56189,0.265126,-1.30933,0.748146,-0.00310979,-0.00719107,0.0956198,1,-0.000121768,-0.000129492,3.76782e-05,-0.0243537,-0.0258984,0.00753565,0.999628,0.00277639,0.0271353,-7.80993e-05,0.0630421,0.531399,-0.974827,31.6875,3,21513,15308699
69,4,0.999628,0.00277639,0.0271353,-7.80993e-05,-0.308557,-0.721413,9.56189,0.265126,-1.30933,0.748146,-0.00310979,-0.00719107,0.0956198,1,-0.000121768,-0.000129492,3.76782e-05,-0.0243537,-0.0258984,0.00753565,0.999628,0.00277639,0.0271353,-7.80993e-05,0.0630421,0.531399,-0.974827,31.6875,3,21513,15308699
70,1,0.999639,0.00315526,0.0266693,-5.08845e-05,-0.0974643,-0.0522927,10.0562,0.402145,-0.771294,1.19128,-0.00103321,-0.000584159,0.100561,1,0.000304159,-0.000291359,2.9238e-05,0.0608318,-0.0582718,0.0058476,0.999639,0.00315526,0.0266693,-5.08845e-05,0.0645965,0.531306,-0.970291,31.6875,3,21515,15308899
70,2,0.999638,0.00329575,0.0267128,-6.48155e-05,0.120396,0.957894,9.85371,0.757717,0.364217,1.03783,0.00122484,0.00954597,0.09854,1,0.00016733,0.000105963,8.50378e-09,0.0334659,0.0211927,1.70076e-06,0.999638,0.00329575,0.0267128,-6.48155e-05,0.0631365,0.530848,-0.971305,31.6875,3,21516,15308999
70,3,0.999638,0.00329575,0.0267128,-6.48155e-05,0.120396,0.957894,9.85371,0.757717,0.364217,1.03783,0.00122484,0.00954597,0.09854,1,0.00016733,0.000105963,8.50378e-09,0.0334659,0.0211927,1.70076e-06,0.999638,0.00329575,0.0267128,-6.48155e-05,0.0631365,0.530848,-0.971305,31.6875,3,21516,15308999
70,4,0.999638,0.00329575,0.0267128,-6.48155e-05,0.120396,0.957894,9.85371,0.757717,0.364217,1.03783,0.00122484,0.00954597,0.09854,1,0.00016733,0.000105963,8.50378e-09,0.0334659,0.0211927,1.70076e-06,0.999638,0.00329575,0.0267128,-6.48155e-05,0.0631365,0.530848,-0.971305,31.6875,3,21516,15308999
71,1,0.999651,0.00268644,0.0262699,-9.23859e-07,-0.28173,-0.660785,9.9327,0.252926,-1.24577,1.24401,-0.00289418,-0.00656782,0.0993274,1,-0.000202075,-0.000388322,1.99658e-05,-0.0404149,-0.0776644,0.00399315,0.999651,0.00268644,0.0262699,-9.23859e-07,0.0621007,0.532355,-0.973287,31.6875,3,21518,15309199
71,2,0.999645,0.00309399,0.0264566,-5.05543e-05,-0.101331,-0.288617,9.38139,0.439457,-0.964549,0.430741,-0.00096689,-0.00296743,0.0938118,1,0.00043341,0.000248335,-2.98777e-05,0.086682,0.0496671,-0.00597555,0.999645,0.00309399,0.0264566,-5.05543e-05,0.0606654,0.53188,-0.973291,31.6875,3,21519,15309299
71,3,0.999656,0.00267274,0.0261097,1.10516e-05,-0.367852,-0.46532,10.1817,0.169677,-0.947038,1.26654,-0.00373604,-0.00457268,0.101818,1,-0.000397664,-0.000285234,6.14608e-05,-0.0795328,-0.0570468,0.0122922,0.999656,0.00267274,0.0261097,1.10516e-05,0.0607309,0.530868,-0.971293,31.6875,3,21520,15309399
71,4,0.999656,0.00267274,0.0261097,1.10516e-05,-0.367852,-0.46532,10.1817,0.169677,-0.947038,1.26654,-0.00373604,-0.00457268,0.101818,1,-0.000397664,-0.000285234,6.14608e-05,-0.0795328,-0.0570468,0.0122922,0.999656,0.00267274,0.0261097,1.10516e-05,0.0607309,0.530868,-0.971293,31.6875,3,21520,15309399
72,1,0.999654,0.00306856,0.0261411,1.93747e-05,-0.24085,0.586057,10.0419,0.408351,0.0172959,1.15381,-0.00232889,0.00586035,0.100421,1,7.79547e-07,0.000397168,1.35313e-05,0.000155909,0.0794336,0.00270625,0.999654,0.00306856,0.0261411,1.93747e-05,0.0635033,0.533337,-0.974281,31.6875,3,21522,15309599
72,2,0.999657,0.00295667,0.0260353,4.86295e-05,-0.942703,-0.0949465,9.7365,-0.364468,-0.644295,1.04711,-0.0094355,-0.000933081,0.0973644,1,-8.77906e-05,-4.38899e-05,3.76898e-05,-0.0175581,-0.00877798,0.00753797,0.999657,0.00295667,0.0260353,4.86295e-05,0.0634748,0.534321,-0.974764,31.6875,3,21523,15309699
72,3,0.999657,0.00295667,0.0260353,4.86295e-05,-0.942703,-0.0949465,9.7365,-0.364468,-0.644295,1.04711,-0.0094355,-0.000933081,0.0973644,1,-8.77906e-05,-4.38899e-05,3.76898e-05,-0.0175581,-0.00877798,0.00753797,0.999657,0.00295667,0.0260353,4.86295e-05,0.0634748,0.534321,-0.974764,31.6875,3,21523,15309699
72,4,0.999657,0.00295667,0.0260353,4.86295e-05,-0.942703,-0.0949465,9.7365,-0.364468,-0.644295,1.04711,-0.0094355,-0.000933081,0.0973644,1,-8.77906e-05,-4.38899e-05,3.76898e-05,-0.0175581,-0.00877798,0.00753797,0.999657,0.00295667,0.0260353,4.86295e-05,0.0634748,0.534321,-0.974764,31.6875,3,21523,15309699
73,1,0.999674,0.00292122,0.0253533,0.000116002,0.0902066,-0.192769,10.0509,0.509156,-0.769292,1.14814,0.000811219,-0.00192195,0.10051,1,-2.82612e-05,-0.000452639,3.69374e-05,-0.00565225,-0.0905278,0.00738749,0.999674,0.00292122,0.0253533,0.000116002,0.0606161,0.531916,-0.97531,31.6875,3,21525,15309899
73,2,0.99968,0.00311855,0.0251001,0.000133274,0.718567,-0.00960796,10.1327,1.31534,-0.715732,1.22783,0.00714631,-0.000140686,0.10133,1,0.000222437,-0.00019424,3.29119e-05,0.0444874,-0.0388479,0.00658238,0.99968,0.00311855,0.0251001,0.000133274,0.0606782,0.533316,-0.971744,31.6875,3,21526,15309999
73,3,0.99968,0.00311855,0.0251001,0.000133274,0.718567,-0.00960796,10.1327,1.31534,-0.715732,1.22783,0.00714631,-0.000140686,0.10133,1,0.000222437,-0.00019424,3.29119e-05,0.0444874,-0.0388479,0.00658238,0.99968,0.00311855,0.0251001,0.000133274,0.0606782,0.533316,-0.971744,31.6875,3,21526,15309999
73,4,0.99968,0.00311855,0.0251001,0.000133274,0.718567,-0.00960796,10.1327,1.31534,-0.715732,1.22783,0.00714631,-0.000140686,0.10133,1,0.000222437,-0.00019424,3.29119e-05,0.0444874,-0.0388479,0.00658238,0.99968,0.00311855,0.0251001,0.000133274,0.0606782,0.533316,-0.971744,31.6875,3,21526,15309999
74,1,0.999673,0.00315871,0.0253878,0.00017965,-0.811399,-0.289097,10.6428,-0.271382,-0.973313,1.86179,-0.00814418,-0.00293612,0.106425,1,0.000209059,-0.000142912,4.0284e-05,0.0418117,-0.0285824,0.00805679,0.999673,0.00315871,0.0253878,0.00017965,0.0625614,0.532848,-0.973783,31.6875,3,21528,15310199
74,2,0.999677,0.00277447,0.0252458,0.000226253,-0.139965,0.00374373,9.24578,0.329955,-0.465761,0.463121,-0.00141497,0.000103956,0.0924575,1,-0.000360451,-8.28485e-05,4.75559e-05,-0.0720902,-0.0165697,0.00951118,0.999677,0.00277447,0.0252458,0.000226253,0.0611342,0.531885,-0.973798,31.6875,3,21529,15310299
74,3,0.999676,0.00297327,0.0252851,0.000217598,-0.187907,-1.00228,9.86314,0.31271,-1.69342,0.917443,-0.00185962,-0.0100669,0.0986273,1,0.000223513,9.81139e-05,4.8633e-06,0.0447027,0.0196228,0.000972659,0.999676,0.00297327,0.0252851,0.000217598,0.061175,0.530891,-0.97281,31.6875,3,21530,15310399
74,4,0.999676,0.00297327,0.0252851,0.000217598,-0.187907,-1.00228,9.86314,0.31271,-1.69342,0.917443,-0.00185962,-0.0100669,0.0986273,1,0.000223513,9.81139e-05,4.8633e-06,0.0447027,0.0196228,0.000972659,0.999676,0.00297327,0.0252851,0.000217598,0.061175,0.530891,-0.97281,31.6875,3,21530,15310399
75,1,0.999672,0.00321723,0.0254032,0.000252438,-0.153485,0.00762719,9.52967,0.431292,-0.607698,0.692958,-0.00144858,6.24058e-05,0.0952981,1,7.22547e-05,0.000452631,3.17606e-05,0.0144509,0.0905263,0.00635213,0.999672,0.00321723,0.0254032,0.000252438,0.0611717,0.533303,-0.971241,31.6875,3,21532,15310599
75,2,0.999677,0.00315162,0.0252129,0.000289773,-0.622684,0.0290372,9.9767,-0.0285539,-0.546641,1.17791,-0.00625311,0.000298015,0.0997653,1,-4.11301e-05,-0.000131508,4.51409e-05,-0.00822602,-0.0263017,0.00902818,0.999677,0.00315162,0.0252129,0.000289773,0.0607067,0.532331,-0.97126,31.6875,3,21533,15310699
75,3,0.999677,0.00315162,0.0252129,0.000289773,-0.622684,0.0290372,9.9767,-0.0285539,-0.546641,1.17791,-0.00625311,0.000298015,0.0997653,1,-4.11301e-05,-0.000131508,4.51409e-05,-0.00822602,-0.0263017,0.00902818,0.999677,0.00315162,0.0252129,0.000289773,0.0607067,0.532331,-0.97126,31.6875,3,21533,15310699
75,4,0.999677,0.00315162,0.0252129,0.000289773,-0.622684,0.0290372,9.9767,-0.0285539,-0.546641,1.17791,-0.00625311,0.000298015,0.0997653,1,-4.11301e-05,-0.000131508,4.51409e-05,-0.00822602,-0.0263017,0.00902818,0.999677,0.00315162,0.0252129,0.000289773,0.0607067,0.532331,-0.97126,31.6875,3,21533,15310699
76,1,0.99968,0.0031289,0.0250816,0.000340644,-0.442017,0.0859003,9.83269,0.110785,-0.429663,0.998387,-0.00440986,0.000880372,0.0983272,1,-0.000109985,5.27063e-05,2.95331e-05,-0.0219971,0.0105413,0.00590662,0.99968,0.0031289,0.0250816,0.000340644,0.0601316,0.534332,-0.973739,31.6875,3,21535,15310899
76,2,0.999691,0.00306045,0.024644,0.000390148,0.00805708,-0.550925,10.2525,0.435262,-1.22028,1.32923,2.97488e-06,-0.00549991,0.102525,1,-4.55267e-05,-0.000381607,5.92758e-05,-0.00910535,-0.0763214,0.0118552,0.999691,0.00306045,0.024644,0.000390148,0.0596263,0.535799,-0.973704,31.6875,3,21536,15310999
76,3,0.999688,0.00342647,0.024759,0.000378353,0.272891,0.581994,9.44223,0.842411,-0.115286,0.616969,0.00276114,0.005746,0.0944258,1,0.000391734,0.000171204,8.72237e-06,0.0783468,0.0342409,0.00174447,0.999688,0.00342647,0.024759,0.000378353,0.0616115,0.532847,-0.973273,31.6875,3,21537,15311099
76,4,0.999688,0.00342647,0.024759,0.000378353,0.272891,0.581994,9.44223,0.842411,-0.115286,0.616969,0.00276114,0.005746,0.0944258,1,0.000391734,0.000171204,8.72237e-06,0.0783468,0.0342409,0.00174447,0.999688,0.00342647,0.024759,0.000378353,0.0616115,0.532847,-0.973273,31.6875,3,21537,15311099
77,1,0.999693,0.0027972,0.0245961,0.000480087,-0.795068,-0.630048,9.67992,-0.335459,-1.17548,1.05923,-0.00803958,-0.00622703,0.0967966,1,-0.000385083,-0.000463609,6.85287e-05,-0.0770165,-0.0927219,0.0137058,0.999693,0.0027972,0.0245961,0.000480087,0.0621795,0.534225,-0.9687,31.6875,3,21539,15311299
77,2,0.999693,0.0027972,0.0245961,0.000480087,-0.795068,-0.630048,9.67992,-0.335459,-1.17548,1.05923,-0.00803958,-0.00622703,0.0967966,1,-0.000385083,-0.000463609,6.85287e-05,-0.0770165,-0.0927219,0.0137058,0.999693,0.0027972,0.0245961,0.000480087,0.0621795,0.534225,-0.9687,31.6875,3,21539,15311299
77,3,0.999696,0.00312377,0.0244638,0.000457397,0.056804,-0.423633,9.85761,0.544139,-1.10013,0.807798,0.00055255,-0.00430549,0.0985732,1,0.00035077,-7.83565e-05,-4.97598e-06,0.070154,-0.0156713,-0.000995196,0.999696,0.00312377,0.0244638,0.000457397,0.061176,0.533782,-0.970725,31.6875,3,21540,15311399
77,4,0.999696,0.00312377,0.0244638,0.000457397,0.056804,-0.423633,9.85761,0.544139,-1.10013,0.807798,0.00055255,-0.00430549,0.0985732,1,0.00035077,-7.83565e-05,-4.97598e-06,0.070154,-0.0156713,-0.000995196,0.999696,0.00312377,0.0244638,0.000457397,0.061176,0.533782,-0.970725,31.6875,3,21540,15311399
78,1,0.999695,0.00320772,0.0244764,0.000493035,-0.213227,-0.509665,9.56462,0.374097,-1.20544,0.671831,-0.00205788,-0.00519969,0.0956423,1,0.000538731,0.000389047,-2.41629e-06,0.107746,0.0778093,-0.000483257,0.999695,0.00320772,0.0244764,0.000493035,0.0607271,0.531834,-0.970767,31.6875,3,21542,15311599
78,2,0.999699,0.00314458,0.0243017,0.000546547,-0.744027,-0.193939,10.2284,-0.269816,-0.838962,1.35499,-0.00746449,-0.00193252,0.102283,1,-3.81032e-05,-0.000119594,6.20272e-05,-0.00762064,-0.0239187,0.0124054,0.999699,0.00314458,0.0243017,0.000546547,0.0592392,0.533807,-0.971221,31.6875,3,21543,15311699
78,3,0.999699,0.00314458,0.0243017,0.000546547,-0.744027,-0.193939,10.2284,-0.269816,-0.838962,1.35499,-0.00746449,-0.00193252,0.102283,1,-3.81032e-05,-0.000119594,6.20272e-05,-0.00762064,-0.0239187,0.0124054,0.999699,0.00314458,0.0243017,0.000546547,0.0592392,0.533807,-0.971221,31.6875,3,21543,15311699
78,4,0.999699,0.00314458,0.0243017,0.000546547,-0.744027,-0.193939,10.2284,-0.269816,-0.838962,1.35499,-0.00746449,-0.00193252,0.102283,1,-3.81032e-05,-0.000119594,6.20272e-05,-0.00762064,-0.0239187,0.0124054,0.999699,0.00314458,0.0243017,0.000546547,0.0592392,0.533807,-0.971221,31.6875,3,21543,15311699
79,1,0.999699,0.0030157,0.0243296,0.000539367,-0.411051,0.52411,8.94378,0.169572,0.158203,0.120202,-0.00401739,0.00536907,0.0894345,1,-0.000716722,0.000522342,2.86469e-05,-0.143344,0.104468,0.00572938,0.999699,0.0030157,0.0243296,0.000539367,0.0631536,0.532763,-0.969242,31.6875,3,21545,15311899
79,2,0.999703,0.0030814,0.0241833,0.000524423,-1.09073,-0.818818,9.84381,-0.683895,-1.46557,0.921573,-0.0109257,-0.00820558,0.0984346,1,8.87412e-05,-9.3464e-05,-3.29258e-06,0.0177482,-0.0186928,-0.000658516,0.999703,0.0030814,0.0241833,0.000524423,0.0636186,0.533735,-0.969222,31.6875,3,21546,15311999
79,3,0.999703,0.0030814,0.0241833,0.000524423,-1.09073,-0.818818,9.84381,-0.683895,-1.46557,0.921573,-0.0109257,-0.00820558,0.0984346,1,8.87412e-05,-9.3464e-05,-3.29258e-06,0.0177482,-0.0186928,-0.000658516,0.999703,0.0030814,0.0241833,0.000524423,0.0636186,0.533735,-0.969222,31.6875,3,21546,15311999
79,4,0.999723,0.00307925,0.0233107,0.000533775,0.257134,-0.152372,10.1584,0.633049,-0.797659,1.28937,0.00240443,-0.00152794,0.101588,1,2.13245e-05,-0.000821855,2.22761e-05,0.00426491,-0.164371,0.00445522,0.999723,0.00307925,0.0233107,0.000533775,0.0621344,0.53474,-0.970203,31.6875,3,21547,15312099
80,1,0.999717,0.00290929,0.0236018,0.000553537,0.463335,-0.460298,10.2068,1.11913,-0.982691,1.4052,0.00470359,-0.00457294,0.102066,1,-0.000146003,0.000343001,2.45891e-05,-0.0292006,0.0686001,0.00491782,0.999717,0.00290929,0.0236018,0.000553537,0.0611674,0.532824,-0.971757,31.6875,3,21548,15312199
80,2,0.999707,0.00315699,0.0239817,0.000523761,-0.873608,-0.723359,9.2257,-0.301922,-1.38067,0.377722,-0.0086565,-0.0072838,0.0922605,1,0.000273713,0.000432617,-1.65664e-05,0.0547425,0.0865233,-0.00331328,0.999707,0.00315699,0.0239817,0.000523761,0.0612414,0.53277,-0.968728,31.6875,3,21549,15312299
80,3,0.999717,0.00334501,0.0235478,0.000551519,-0.675799,-0.0892883,9.70116,-0.297949,-0.761455,0.856797,-0.0068322,-0.000934841,0.097006,1,0.000213211,-0.0003829,4.34696e-05,0.0426422,-0.07658,0.00869392,0.999717,0.00334501,0.0235478,0.000551519,0.0622041,0.534207,-0.96769,31.6875,3,21550,15312399
80,4,0.999717,0.00334501,0.0235478,0.000551519,-0.675799,-0.0892883,9.70116,-0.297949,-0.761455,0.856797,-0.0068322,-0.000934841,0.097006,1,0.000213211,-0.0003829,4.34696e-05,0.0426422,-0.07658,0.00869392,0.999717,0.00334501,0.0235478,0.000551519,0.0622041,0.534207,-0.96769,31.6875,3,21550,15312399
81,1,0.999718,0.00304859,0.0235273,0.000565891,0.1555,0.156577,9.33257,0.798506,-0.331753,0.609976,0.00164706,0.00165267,0.0933226,1,-0.00046559,0.00049326,1.77866e-06,-0.093118,0.0986519,0.000355732,0.999718,0.00304859,0.0235273,0.000565891,0.0622701,0.534641,-0.964651,31.6875,3,21552,15312599
81,2,0.999709,0.00359011,0.023852,0.000462711,-1.09151,-0.283922,9.24015,-0.557922,-1.00748,0.453359,-0.0108461,-0.00294241,0.0924064,1,0.000568012,0.000375957,-8.21468e-05,0.113602,0.0751914,-0.0164294,0.999709,0.00359011,0.023852,0.000462711,0.0641618,0.535131,-0.965659,31.6875,3,21553,15312699
81,3,0.999709,0.00359011,0.023852,0.000462711,-1.09151,-0.283922,9.24015,-0.557922,-1.00748,0.453359,-0.0108461,-0.00294241,0.0924064,1,0.000568012,0.000375957,-8.21468e-05,0.113602,0.0751914,-0.0164294,0.999709,0.00359011,0.023852,0.000462711,0.0641618,0.535131,-0.965659,31.6875,3,21553,15312699
81,4,0.999709,0.00359011,0.023852,0.000462711,-1.09151,-0.283922,9.24015,-0.557922,-1.00748,0.453359,-0.0108461,-0.00294241,0.0924064,1,0.000568012,0.000375957,-8.21468e-05,0.113602,0.0751914,-0.0164294,0.999709,0.00359011,0.023852,0.000462711,0.0641618,0.535131,-0.965659,31.6875,3,21553,15312699
82,1,0.99973,0.00335974,0.0230008,0.000406364,0.488748,-0.947442,10.6434,0.977821,-1.71423,1.72075,0.00487259,-0.00957484,0.106426,1,0.00046873,-6.40549e-05,-6.60071e-05,0.093746,-0.012811,-0.0132014,0.99973,0.00335974,0.0230008,0.000406364,0.0621591,0.534722,-0.969194,31.6875,3,21555,15312899
82,2,0.999717,0.00369537,0.0234914,0.000313514,-0.465982,0.382137,9.65794,0.159054,-0.208845,0.946652,-0.00455482,0.00375165,0.0965872,1,0.000364597,0.000540557,-7.66735e-05,0.0729194,0.108111,-0.0153347,0.999717,0.00369537,0.0234914,0.000313514,0.0632034,0.534172,-0.966181,31.6875,3,21556,15312999
82,3,0.999715,0.00365694,0.023605,0.000254567,-1.27322,-0.0622499,9.17365,-0.867702,-0.652452,0.461839,-0.0127024,-0.00061913,0.0917406,1,-1.13405e-05,0.000162867,-5.06441e-05,-0.00226809,0.0325734,-0.0101288,0.999715,0.00365694,0.023605,0.000254567,0.0651815,0.534599,-0.963655,31.6875,3,21557,15313099
82,4,0.999715,0.00365694,0.023605,0.000254567,-1.27322,-0.0622499,9.17365,-0.867702,-0.652452,0.461839,-0.0127024,-0.00061913,0.0917406,1,-1.13405e-05,0.000162867,-5.06441e-05,-0.00226809,0.0325734,-0.0101288,0.999715,0.00365694,0.023605,0.000254567,0.0651815,0.534599,-0.963655,31.6875,3,21557,15313099
83,1,0.999734,0.00364221,0.0227597,0.000175608,0.530778,-0.471625,9.95214,0.995095,-1.17481,1.05264,0.00529212,-0.00474238,0.099521,1,0.000128779,-7.64117e-05,-4.76707e-05,0.0257559,-0.0152823,-0.00953413,0.999734,0.00364221,0.0227597,0.000175608,0.0632485,0.533657,-0.964677,31.6875,3,21559,15313299
83,2,0.999734,0.00364221,0.0227597,0.000175608,0.530778,-0.471625,9.95214,0.995095,-1.17481,1.05264,0.00529212,-0.00474238,0.099521,1,0.000128779,-7.64117e-05,-4.76707e-05,0.0257559,-0.0152823,-0.00953413,0.999734,0.00364221,0.0227597,0.000175608,0.0632485,0.533657,-0.964677,31.6875,3,21559,15313299
83,3,0.999724,0.00410833,0.0231431,5.13873e-05,-0.247,0.360338,10.9288,0.412718,-0.338393,2.07943,-0.00237502,0.00349561,0.109293,1,0.000495381,0.000431095,-0.000105751,0.0990763,0.0862191,-0.0211503,0.999724,0.00410833,0.0231431,5.13873e-05,0.0628162,0.53218,-0.963698,31.6875,3,21560,15313399
83,4,0.999724,0.00410833,0.0231431,5.13873e-05,-0.247,0.360338,10.9288,0.412718,-0.338393,2.07943,-0.00237502,0.00349561,0.109293,1,0.000495381,0.000431095,-0.000105751,0.0990763,0.0862191,-0.0211503,0.999724,0.00410833,0.0231431,5.13873e-05,0.0628162,0.53218,-0.963698,31.6875,3,21560,15313399
84,1,0.999719,0.00414659,0.0233564,-0.000138642,-0.812153,0.439659,9.31147,-0.395901,-0.130198,0.471724,-0.00806707,0.004393,0.0931196,1,2.99024e-05,0.000286693,-0.000122156,0.00598047,0.0573387,-0.0244311,0.999719,0.00414659,0.0233564,-0.000138642,0.0631915,0.535627,-0.965643,31.6875,3,21562,15313599
84,2,0.99973,0.00394977,0.0229134,-0.000222525,-0.34972,-0.350159,9.42547,-0.0208249,-0.952025,0.639202,-0.00357285,-0.00346875,0.0942531,1,-0.000171269,-0.00039842,-7.82644e-05,-0.0342538,-0.0796839,-0.0156529,0.99973,0.00394977,0.0229134,-0.000222525,0.0632456,0.537515,-0.962066,31.6875,3,21563,15313699
84,3,0.99973,0.00394977,0.0229134,-0.000222525,-0.34972,-0.350159,9.42547,-0.0208249,-0.952025,0.639202,-0.00357285,-0.00346875,0.0942531,1,-0.000171269,-0.00039842,-7.82644e-05,-0.0342538,-0.0796839,-0.0156529,0.99973,0.00394977,0.0229134,-0.000222525,0.0632456,0.537515,-0.962066,31.6875,3,21563,15313699
84,4,0.99973,0.00394977,0.0229134,-0.000222525,-0.34972,-0.350159,9.42547,-0.0208249,-0.952025,0.639202,-0.00357285,-0.00346875,0.0942531,1,-0.000171269,-0.00039842,-7.82644e-05,-0.0342538,-0.0796839,-0.0156529,0.99973,0.00394977,0.0229134,-0.000222525,0.0632456,0.537515,-0.962066,31.6875,3,21563,15313699
85,1,0.999728,0.00400938,0.022973,-0.000438396,-0.229219,-0.738364,10.3281,0.236766,-1.3977,1.29377,-0.00225755,-0.00741159,0.10328,1,0.000137872,0.000176009,-0.000115786,0.0275745,0.0352019,-0.0231572,0.999728,0.00400938,0.022973,-0.000438396,0.0637552,0.536526,-0.961585,31.6875,3,21565,15313899
85,2,0.999731,0.00426627,0.0227758,-0.000549655,-0.0814468,-0.0263516,9.93577,0.395592,-0.724935,1.18694,-0.000844878,-0.000319993,0.0993572,1,0.000285008,-0.000152752,-9.52621e-05,0.0570016,-0.0305503,-0.0190524,0.999731,0.00426627,0.0227758,-0.000549655,0.064261,0.536504,-0.960578,31.6875,3,21566,15313999
85,3,0.999731,0.00426627,0.0227758,-0.000549655,-0.0814468,-0.0263516,9.93577,0.395592,-0.724935,1.18694,-0.000844878,-0.000319993,0.0993572,1,0.000285008,-0.000152752,-9.52621e-05,0.0570016,-0.0305503,-0.0190524,0.999731,0.00426627,0.0227758,-0.000549655,0.064261,0.536504,-0.960578,31.6875,3,21566,15313999
85,4,0.999731,0.00426627,0.0227758,-0.000549655,-0.0814468,-0.0263516,9.93577,0.395592,-0.724935,1.18694,-0.000844878,-0.000319993,0.0993572,1,0.000285008,-0.000152752,-9.52621e-05,0.0570016,-0.0305503,-0.0190524,0.999731,0.00426627,0.0227758,-0.000549655,0.064261,0.536504,-0.960578,31.6875,3,21566,15313999
86,1,0.999728,0.00399144,0.0229525,-0.000775712,-0.915765,-0.361722,10.1454,-0.565651,-0.842129,1.33999,-0.00923205,-0.00350717,0.101451,1,-0.000536655,-0.000364427,-6.29097e-05,-0.107331,-0.0728855,-0.012582,0.999728,0.00399144,0.0229525,-0.000775712,0.0637105,0.538486,-0.962046,31.6875,3,21568,15314199
86,2,0.999726,0.00429104,0.0229882,-0.00118809,-0.210188,0.546361,10.3594,0.370308,0.0517434,1.4287,-0.00201977,0.00552745,0.103592,1,-0.000304639,0.000386882,-0.000177455,-0.0609278,0.0773765,-0.0354911,0.999726,0.00429104,0.0229882,-0.00118809,0.064743,0.539391,-0.958496,31.6875,3,21570,15314399
86,3,0.999726,0.00429104,0.0229882,-0.00118809,-0.210188,0.546361,10.3594,0.370308,0.0517434,1.4287,-0.00201977,0.00552745,0.103592,1,-0.000304639,0.000386882,-0.000177455,-0.0609278,0.0773765,-0.0354911,0.999726,0.00429104,0.0229882,-0.00118809,0.064743,0.539391,-0.958496,31.6875,3,21570,15314399
86,4,0.999726,0.00429104,0.0229882,-0.00118809,-0.210188,0.546361,10.3594,0.370308,0.0517434,1.4287,-0.00201977,0.00552745,0.103592,1,-0.000304639,0.000386882,-0.000177455,-0.0609278,0.0773765,-0.0354911,0.999726,0.00429104,0.0229882,-0.00118809,0.064743,0.539391,-0.958496,31.6875,3,21570,15314399
87,1,0.999726,0.00447776,0.0229068,-0.00159996,-0.802831,0.509493,9.56751,-0.408574,-0.0704558,0.778373,-0.00803191,0.00508645,0.0956753,1,6.13379e-05,-2.95387e-05,-0.00020235,0.0122676,-0.00590775,-0.0404701,0.999726,0.00447776,0.0229068,-0.00159996,0.0643388,0.535483,-0.958076,31.6875,3,21572,15314599
87,2,0.999736,0.00368424,0.0226064,-0.00174416,-0.492761,-1.15125,9.6661,-0.144921,-1.61794,0.768286,-0.00498188,-0.0113626,0.0966759,1,-0.000767143,-0.000262639,-0.000152757,-0.153429,-0.0525278,-0.0305514,0.999736,0.00368424,0.0226064,-0.00174416,0.0628679,0.53937,-0.956467,31.6875,3,21573,15314699
87,3,0.999736,0.00368424,0.0226064,-0.00174416,-0.492761,-1.15125,9.6661,-0.144921,-1.61794,0.768286,-0.00498188,-0.0113626,0.0966759,1,-0.000767143,-0.000262639,-0.000152757,-0.153429,-0.0525278,-0.0305514,0.999736,0.00368424,0.0226064,-0.00174416,0.0628679,0.53937,-0.956467,31.6875,3,21573,15314699
87,4,0.999736,0.00368424,0.0226064,-0.00174416,-0.492761,-1.15125,9.6661,-0.144921,-1.61794,0.768286,-0.00498188,-0.0113626,0.0966759,1,-0.000767143,-0.000262639,-0.000152757,-0.153429,-0.0525278,-0.0305514,0.999736,0.00368424,0.0226064,-0.00174416,0.0628679,0.53937,-0.956467,31.6875,3,21573,15314699
88,1,0.999738,0.00427165,0.0223859,-0.00223789,-0.0522593,0.44353,10.2962,0.419895,-0.0641235,1.36205,-0.000520888,0.00448866,0.10296,1,-0.000258132,4.4935e-08,-0.000190152,-0.0516263,8.98701e-06,-0.0380304,0.999738,0.00427165,0.0223859,-0.00223789,0.0628645,0.541782,-0.954898,31.6875,3,21575,15314899
88,2,0.999735,0.0044302,0.0224659,-0.00246615,-0.608969,-0.564843,9.43513,-0.171322,-1.31636,0.782578,-0.00606974,-0.00568122,0.0943506,1,0.000187763,0.000118774,-0.000216911,0.0375526,0.0237549,-0.0433822,0.999735,0.0044302,0.0224659,-0.00246615,0.0629096,0.541267,-0.953395,31.6875,3,21576,15314999
88,3,0.999735,0.0044302,0.0224659,-0.00246615,-0.608969,-0.564843,9.43513,-0.171322,-1.31636,0.782578,-0.00606974,-0.00568122,0.0943506,1,0.000187763,0.000118774,-0.000216911,0.0375526,0.0237549,-0.0433822,0.999735,0.0044302,0.0224659,-0.00246615,0.0629096,0.541267,-0.953395,31.6875,3,21576,15314999
88,4,0.999735,0.0044302,0.0224659,-0.00246615,-0.608969,-0.564843,9.43513,-0.171322,-1.31636,0.782578,-0.00606974,-0.00568122,0.0943506,1,0.000187763,0.000118774,-0.000216911,0.0375526,0.0237549,-0.0433822,0.999735,0.0044302,0.0224659,-0.00246615,0.0629096,0.541267,-0.953395,31.6875,3,21576,15314999
89,1,0.999753,0.00327864,0.0217782,-0.00286653,-0.298803,-1.2582,10.7123,0.0285177,-1.52303,1.74922,-0.00316204,-0.0121854,0.107164,0.999998,-0.00184823,-0.000801469,-9.14082e-05,-0.369646,-0.160294,-0.0182816,0.999753,0.00327864,0.0217782,-0.00286653,0.0628892,0.541764,-0.953889,31.6875,3,21578,15315199
89,2,0.999731,0.0047826,0.022415,-0.00347551,-0.122469,0.988367,9.56081,0.519928,0.439813,0.928611,-0.00105333,0.0098408,0.0956146,1,0.000227246,0.0008694,-0.000259305,0.0454493,0.17388,-0.051861,0.999731,0.0047826,0.022415,-0.00347551,0.063432,0.541715,-0.951367,31.6875,3,21580,15315399
89,3,0.999731,0.0047826,0.022415,-0.00347551,-0.122469,0.988367,9.56081,0.519928,0.439813,0.928611,-0.00105333,0.0098408,0.0956146,1,0.000227246,0.0008694,-0.000259305,0.0454493,0.17388,-0.051861,0.999731,0.0047826,0.022415,-0.00347551,0.063432,0.541715,-0.951367,31.6875,3,21580,15315399
89,4,0.999731,0.0047826,0.022415,-0.00347551,-0.122469,0.988367,9.56081,0.519928,0.439813,0.928611,-0.00105333,0.0098408,0.0956146,1,0.000227246,0.0008694,-0.000259305,0.0454493,0.17388,-0.051861,0.999731,0.0047826,0.022415,-0.00347551,0.063432,0.541715,-0.951367,31.6875,3,21580,15315399
90,1,0.999739,0.00447813,0.0220799,-0.0039185,-0.499749,-0.590996,9.45908,-0.144517,-1.23235,0.603579,-0.00508843,-0.00593924,0.0945842,1,0.000168229,-0.000464922,-0.000251761,0.0336458,-0.0929844,-0.0503522,0.999739,0.00447813,0.0220799,-0.0039185,0.0633959,0.544633,-0.950797,31.6875,3,21582,15315599
90,2,0.999744,0.00466886,0.0217348,-0.00420518,0.603974,-0.497387,10.2697,1.03139,-1.29463,1.42354,0.00597333,-0.00502322,0.102698,1,0.000224332,-0.000310079,-0.000272408,0.0448665,-0.0620158,-0.0544817,0.999744,0.00466886,0.0217348,-0.00420518,0.0619687,0.543669,-0.950812,31.6875,3,21583,15315699
90,3,0.999744,0.00466886,0.0217348,-0.00420518,0.603974,-0.497387,10.2697,1.03139,-1.29463,1.42354,0.00597333,-0.00502322,0.102698,1,0.000224332,-0.000310079,-0.000272408,0.0448665,-0.0620158,-0.0544817,0.999744,0.00466886,0.0217348,-0.00420518,0.0619687,0.543669,-0.950812,31.6875,3,21583,15315699
90,4,0.999744,0.00466886,0.0217348,-0.00420518,0.603974,-0.497387,10.2697,1.03139,-1.29463,1.42354,0.00597333,-0.00502322,0.102698,1,0.000224332,-0.000310079,-0.000272408,0.0448665,-0.0620158,-0.0544817,0.999744,0.00466886,0.0217348,-0.00420518,0.0619687,0.543669,-0.950812,31.6875,3,21583,15315699
91,1,0.999723,0.00433557,0.0226297,-0.00480252,-1.76956,-1.017,9.86353,-1.19848,-1.47905,1.26644,-0.0176059,-0.00999727,0.0986689,1,-0.000833974,0.000478302,-0.000232169,-0.166795,0.0956605,-0.0464338,0.999723,0.00433557,0.0226297,-0.00480252,0.0605505,0.545108,-0.948753,31.6875,3,21585,15315899
91,2,0.999722,0.00577895,0.0222589,-0.0052741,-1.36191,-0.114092,8.86142,-1.14845,-1.06832,-0.179543,-0.0136789,-0.0013918,0.0886015,0.999999,0.00148188,-0.000331487,-0.000429494,0.296375,-0.0662974,-0.0858989,0.999722,0.00577895,0.0222589,-0.0052741,0.0616152,0.544062,-0.945246,31.6875,3,21586,15315999
91,3,0.999742,0.00477399,0.0215095,-0.00548692,-0.00988185,0.219064,9.71395,0.306557,-0.107876,0.791924,-0.000238482,0.00237913,0.0971348,0.999999,-0.000969835,-0.000724144,-0.000223083,-0.193967,-0.144829,-0.0446166,0.999742,0.00477399,0.0215095,-0.00548692,0.0601514,0.544571,-0.945733,31.6875,3,21587,15316099
91,4,0.999742,0.00477399,0.0215095,-0.00548692,-0.00988185,0.219064,9.71395,0.306557,-0.107876,0.791924,-0.000238482,0.00237913,0.0971348,0.999999,-0.000969835,-0.000724144,-0.000223083,-0.193967,-0.144829,-0.0446166,0.999742,0.00477399,0.0215095,-0.00548692,0.0601514,0.544571,-0.945733,31.6875,3,21587,15316099
92,1,0.999729,0.00640196,0.0214884,-0.00630807,0.45185,1.82603,10.2412,1.14546,1.09801,1.50652,0.00460084,0.0180186,0.102451,0.999999,0.00115981,0.000323318,-0.000443823,0.231963,0.0646637,-0.0887646,0.999729,0.00640196,0.0214884,-0.00630807,0.0591527,0.546051,-0.9462,31.6875,3,21589,15316299
92,2,0.999729,0.00640196,0.0214884,-0.00630807,0.45185,1.82603,10.2412,1.14546,1.09801,1.50652,0.00460084,0.0180186,0.102451,0.999999,0.00115981,0.000323318,-0.000443823,0.231963,0.0646637,-0.0887646,0.999729,0.00640196,0.0214884,-0.00630807,0.0591527,0.546051,-0.9462,31.6875,3,21589,15316299
92,3,0.999719,0.00467329,0.0222985,-0.00647575,-1.52163,-0.848216,9.05543,-0.965038,-1.18692,0.22235,-0.0150687,-0.00816709,0.0906079,0.999998,-0.00170531,0.000833402,-0.000202385,-0.341062,0.16668,-0.040477,0.999719,0.00467329,0.0222985,-0.00647575,0.0596874,0.54649,-0.943668,31.6875,3,21590,15316399
92,4,0.999719,0.00467329,0.0222985,-0.00647575,-1.52163,-0.848216,9.05543,-0.965038,-1.18692,0.22235,-0.0150687,-0.00816709,0.0906079,0.999998,-0.00170531,0.000833402,-0.000202385,-0.341062,0.16668,-0.040477,0.999719,0.00467329,0.0222985,-0.00647575,0.0596874,0.54649,-0.943668,31.6875,3,21590,15316399
93,1,0.999738,0.00552576,0.0209956,-0.00720744,0.634575,0.522665,9.21284,0.893311,0.00696611,-0.0454762,0.00620284,0.00535445,0.0921308,0.999999,-0.000711365,-0.000790604,-0.000260649,-0.142273,-0.158121,-0.0521298,0.999738,0.00552576,0.0209956,-0.00720744,0.0573473,0.545498,-0.941659,31.6875,3,21592,15316599
93,2,0.99974,0.00605835,0.0206426,-0.00759037,1.34762,0.444038,11.4591,1.78966,-0.43121,2.38585,0.0134061,0.00430042,0.114605,1,0.000568114,-0.000319628,-0.000362739,0.113623,-0.0639256,-0.0725478,0.99974,0.00605835,0.0206426,-0.00759037,0.0573197,0.549373,-0.940057,31.6875,3,21593,15316699
93,3,0.99974,0.00605835,0.0206426,-0.00759037,1.34762,0.444038,11.4591,1.78966,-0.43121,2.38585,0.0134061,0.00430042,0.114605,1,0.000568114,-0.000319628,-0.000362739,0.113623,-0.0639256,-0.0725478,0.99974,0.00605835,0.0206426,-0.00759037,0.0573197,0.549373,-0.940057,31.6875,3,21593,15316699
93,4,0.99974,0.00605835,0.0206426,-0.00759037,1.34762,0.444038,11.4591,1.78966,-0.43121,2.38585,0.0134061,0.00430042,0.114605,1,0.000568114,-0.000319628,-0.000362739,0.113623,-0.0639256,-0.0725478,0.99974,0.00605835,0.0206426,-0.00759037,0.0573197,0.549373,-0.940057,31.6875,3,21593,15316699
94,1,0.999701,0.00560836,0.0222939,-0.0083525,-1.91616,0.167872,8.05587,-1.39359,-0.405228,-0.83691,-0.0189638,0.00170535,0.080605,0.999999,-6.76392e-05,0.00121848,-0.000412575,-0.0135278,0.243696,-0.082515,0.999701,0.00560836,0.0222939,-0.0083525,0.0567404,0.550894,-0.943051,31.6875,3,21595,15316899
94,2,0.999716,0.00521045,0.0215772,-0.00868782,-1.72274,-0.616349,9.43204,-1.58642,-1.16979,0.594001,-0.0173616,-0.00608351,0.094301,1,-0.000363051,-0.000689905,-0.000332524,-0.0726101,-0.137981,-0.0665048,0.999716,0.00521045,0.0215772,-0.00868782,0.0563043,0.550384,-0.941545,31.6875,3,21596,15316999
94,3,0.99974,0.00460134,0.0204464,-0.00900537,1.50518,-1.44525,11.0599,1.94209,-2.01827,2.23804,0.0147974,-0.0143358,0.110648,0.999999,-0.00057015,-0.00110836,-0.000317394,-0.11403,-0.221673,-0.0634789,0.99974,0.00460134,0.0204464,-0.00900537,0.0525256,0.551328,-0.937972,31.6875,3,21597,15317099
94,4,0.99974,0.00460134,0.0204464,-0.00900537,1.50518,-1.44525,11.0599,1.94209,-2.01827,2.23804,0.0147974,-0.0143358,0.110648,0.999999,-0.00057015,-0.00110836,-0.000317394,-0.11403,-0.221673,-0.0634789,0.99974,0.00460134,0.0204464,-0.00900537,0.0525256,0.551328,-0.937972,31.6875,3,21597,15317099
95,1,0.999699,0.0051357,0.0218855,-0.00979483,-1.64361,-0.0867002,9.21612,-1.02823,-0.682867,0.14184,-0.0162322,-0.000886604,0.0921971,0.999999,0.000172999,0.00110907,-0.000376247,0.0345998,0.221813,-0.0752494,0.999699,0.0051357,0.0218855,-0.00979483,0.0550019,0.553666,-0.933385,31.6875,3,21599,15317299
95,2,0.999699,0.0051357,0.0218855,-0.00979483,-1.64361,-0.0867002,9.21612,-1.02823,-0.682867,0.14184,-0.0162322,-0.000886604,0.0921971,0.999999,0.000172999,0.00110907,-0.000376247,0.0345998,0.221813,-0.0752494,0.999699,0.0051357,0.0218855,-0.00979483,0.0550019,0.553666,-0.933385,31.6875,3,21599,15317299
95,3,0.999705,0.00525295,0.0214611,-0.0101154,-1.08511,-0.361886,10.1843,-0.691145,-1.0658,1.22282,-0.0109334,-0.00364336,0.101833,1,0.000153201,-0.000393259,-0.000308047,0.0306402,-0.0786517,-0.0616095,0.999705,0.00525295,0.0214611,-0.0101154,0.0559518,0.553667,-0.933895,31.6875,3,21600,15317399
95,4,0.999705,0.00525295,0.0214611,-0.0101154,-1.08511,-0.361886,10.1843,-0.691145,-1.0658,1.22282,-0.0109334,-0.00364336,0.101833,1,0.000153201,-0.000393259,-0.000308047,0.0306402,-0.0786517,-0.0616095,0.999705,0.00525295,0.0214611,-0.0101154,0.0559518,0.553667,-0.933895,31.6875,3,21600,15317399
96,1,0.999705,0.004925,0.0212405,-0.0107208,0.303525,-1.05957,9.61218,0.735167,-1.72679,0.565166,0.00310558,-0.0105761,0.0961217,1,-0.000112159,0.000400463,-0.000314682,-0.0224319,0.0800926,-0.0629364,0.999705,0.004925,0.0212405,-0.0107208,0.0520131,0.556174,-0.935841,31.6875,3,21602,15317599
96,2,0.999697,0.00577135,0.0212027,-0.011099,-0.322629,0.343981,9.60736,0.0556004,-0.526019,0.798604,-0.00322367,0.00327279,0.0960796,0.999999,0.000881041,1.28152e-06,-0.000353491,0.176208,0.000256304,-0.0706983,0.999697,0.00577135,0.0212027,-0.011099,0.0520701,0.554205,-0.934875,31.6875,3,21603,15317699
96,3,0.999697,0.00577135,0.0212027,-0.011099,-0.322629,0.343981,9.60736,0.0556004,-0.526019,0.798604,-0.00322367,0.00327279,0.0960796,0.999999,0.000881041,1.28152e-06,-0.000353491,0.176208,0.000256304,-0.0706983,0.999697,0.00577135,0.0212027,-0.011099,0.0520701,0.554205,-0.934875,31.6875,3,21603,15317699
96,4,0.999697,0.00577135,0.0212027,-0.011099,-0.322629,0.343981,9.60736,0.0556004,-0.526019,0.798604,-0.00322367,0.00327279,0.0960796,0.999999,0.000881041,1.28152e-06,-0.000353491,0.176208,0.000256304,-0.0706983,0.999697,0.00577135,0.0212027,-0.011099,0.0520701,0.554205,-0.934875,31.6875,3,21603,15317699
97,1,0.999691,0.00525476,0.0213087,-0.0116928,-0.466811,-0.607938,9.08569,-0.053244,-1.3303,0.0445263,-0.00465199,-0.00609187,0.0908569,1,8.53729e-05,0.000110468,-0.000324546,0.0170746,0.0220936,-0.0649092,0.999691,0.00525476,0.0213087,-0.0116928,0.0507429,0.557505,-0.927725,31.6875,3,21605,15317899
97,2,0.999695,0.0057107,0.0207657,-0.0121057,-0.106606,1.00451,11.0002,0.353832,0.140674,2.20056,-0.00117026,0.00993676,0.110011,1,0.000496378,-0.000509297,-0.000392981,0.0992756,-0.101859,-0.0785963,0.999695,0.0057107,0.0207657,-0.0121057,0.0497845,0.556546,-0.928247,31.6875,3,21606,15317999
97,3,0.999695,0.0057107,0.0207657,-0.0121057,-0.106606,1.00451,11.0002,0.353832,0.140674,2.20056,-0.00117026,0.00993676,0.110011,1,0.000496378,-0.000509297,-0.000392981,0.0992756,-0.101859,-0.0785963,0.999695,0.0057107,0.0207657,-0.0121057,0.0497845,0.556546,-0.928247,31.6875,3,21606,15317999
97,4,0.999695,0.0057107,0.0207657,-0.0121057,-0.106606,1.00451,11.0002,0.353832,0.140674,2.20056,-0.00117026,0.00993676,0.110011,1,0.000496378,-0.000509297,-0.000392981,0.0992756,-0.101859,-0.0785963,0.999695,0.0057107,0.0207657,-0.0121057,0.0497845,0.556546,-0.928247,31.6875,3,21606,15317999
98,1,0.999691,0.00407984,0.0209417,-0.0127206,0.0449595,-1.73281,11.0639,0.450681,-2.05319,1.79246,0.000450771,-0.0171147,0.110672,0.999999,-0.000965621,5.42708e-05,-0.000314575,-0.193124,0.0108542,-0.062915,0.999691,0.00407984,0.0209417,-0.0127206,0.0454188,0.560945,-0.926614,31.6875,3,21608,15318199
98,2,0.999656,0.00598819,0.0216741,-0.0135157,-0.903365,-0.4054,8.86744,-0.445409,-1.4365,-0.137903,-0.00885284,-0.0044096,0.0886757,0.999997,0.00204882,0.00104022,-0.000433907,0.409765,0.208044,-0.0867815,0.999656,0.00598819,0.0216741,-0.0135157,0.0484076,0.558437,-0.924158,31.6875,3,21610,15318399
98,3,0.999656,0.00598819,0.0216741,-0.0135157,-0.903365,-0.4054,8.86744,-0.445409,-1.4365,-0.137903,-0.00885284,-0.0044096,0.0886757,0.999997,0.00204882,0.00104022,-0.000433907,0.409765,0.208044,-0.0867815,0.999656,0.00598819,0.0216741,-0.0135157,0.0484076,0.558437,-0.924158,31.6875,3,21610,15318399
98,4,0.999656,0.00598819,0.0216741,-0.0135157,-0.903365,-0.4054,8.86744,-0.445409,-1.4365,-0.137903,-0.00885284,-0.0044096,0.0886757,0.999997,0.00204882,0.00104022,-0.000433907,0.409765,0.208044,-0.0867815,0.999656,0.00598819,0.0216741,-0.0135157,0.0484076,0.558437,-0.924158,31.6875,3,21610,15318399
99,1,0.999669,0.00566981,0.0208335,-0.0139562,-0.16205,0.0926581,10.0619,0.127126,-0.610373,1.11961,-0.00178003,0.000995652,0.100616,1,-0.000339982,-0.000794578,-0.000192148,-0.0679964,-0.158916,-0.0384296,0.999669,0.00566981,0.0208335,-0.0139562,0.0445463,0.558478,-0.924644,31.6875,3,21612,15318599
