frame_id,imu_idx,quat_w,quat_x,quat_y,quat_z,accel_x,accel_y,accel_z,free_accel_x,free_accel_y,free_accel_z,delta_v_x,delta_v_y,delta_v_z,delta_q_w,delta_q_x,delta_q_y,delta_q_z,rate_x,rate_y,rate_z,quat_w,quat_x,quat_y,quat_z,mag_x,mag_y,mag_z,temperature,status_byte,packet_counter,time_fine
1,1,0.999382,-0.00375075,0.03495,-0.00010705,-0.695651,-0.0680447,9.77892,-0.132374,0.230738,0.972796,-0.00695833,-0.000689201,0.097789,1,4.28259e-05,-9.4621e-06,2.7163e-05,0.00856519,-0.00189242,0.00543259,0.999382,-0.00375075,0.03495,-0.00010705,0.254196,-0.211165,-0.955851,26.9375,1,26577,2701943
1,2,0.999383,-0.0037004,0.0349274,-6.02342e-05,-0.691775,-0.0650213,9.78673,-0.128546,0.233014,0.976344,-0.00691975,-0.000659258,0.0978671,1,4.39122e-05,-1.04383e-05,3.24524e-05,0.00878243,-0.00208766,0.00649048,0.999383,-0.0037004,0.0349274,-6.02342e-05,0.253751,-0.212633,-0.955376,26.9375,1,26578,2702043
1,3,0.999384,-0.00361433,0.0349156,-3.3109e-05,-0.689809,-0.0633566,9.7969,-0.119502,0.23569,0.987903,-0.00689996,-0.000642564,0.0979688,1,4.51226e-05,-9.61111e-06,1.14126e-05,0.00902451,-0.00192222,0.00228251,0.999384,-0.00361433,0.0349156,-3.3109e-05,0.257002,-0.217394,-0.963578,26.9375,1,26580,2702243
1,4,0.999385,-0.00353131,0.0348883,-7.20702e-08,-0.682314,-0.0753298,9.78012,-0.120685,0.227429,0.974957,-0.00682563,-0.000759711,0.097801,1,3.12905e-05,-1.28896e-05,2.14559e-05,0.0062581,-0.00257792,0.00429117,0.999385,-0.00353131,0.0348883,-7.20702e-08,0.255519,-0.213498,-0.962474,26.9375,1,26582,2702443
2,1,0.999386,-0.00344997,0.034865,1.70993e-05,-0.698579,-0.0655335,9.7905,-0.130981,0.225144,0.990718,-0.00698877,-0.000662344,0.0979048,1,3.55709e-05,-1.52719e-05,3.08631e-06,0.00711418,-0.00305439,0.000617262,0.999386,-0.00344997,0.034865,1.70993e-05,0.253274,-0.213595,-0.9559,26.9375,1,26584,2702643
2,2,0.999387,-0.00336201,0.0348514,3.48923e-05,-0.683405,-0.0669827,9.78631,-0.117992,0.228203,0.977231,-0.00683528,-0.000679854,0.0978629,1,4.97847e-05,-6.40951e-06,2.07238e-05,0.00995695,-0.0012819,0.00414476,0.999387,-0.00336201,0.0348514,3.48923e-05,0.256027,-0.218823,-0.96512,26.9375,1,26586,2702843
2,3,0.999388,-0.00330521,0.0348395,5.1168e-05,-0.683353,-0.0688917,9.78086,-0.121307,0.225159,0.978246,-0.00683584,-0.000700189,0.0978084,1,5.63338e-05,-1.1977e-05,1.84513e-05,0.0112668,-0.0023954,0.00369027,0.999388,-0.00330521,0.0348395,5.1168e-05,0.255967,-0.214442,-0.964518,26.9375,1,26587,2702943
2,4,0.999388,-0.00322888,0.0348299,6.7664e-05,-0.691559,-0.0661723,9.78061,-0.124106,0.225158,0.981811,-0.00691598,-0.000667441,0.097806,1,2.85675e-05,-2.07299e-06,9.38935e-06,0.00571349,-0.000414598,0.00187787,0.999388,-0.00322888,0.0348299,6.7664e-05,0.254228,-0.213116,-0.955894,26.9375,1,26589,2703143
3,1,0.999389,-0.00313756,0.0348128,0.000103469,-0.686424,-0.0626228,9.79315,-0.121136,0.221609,0.98112,-0.00686632,-0.00063565,0.0979313,1,4.63797e-05,-1.0785e-05,2.46094e-05,0.00927594,-0.00215701,0.00492188,0.999389,-0.00313756,0.0348128,0.000103469,0.255131,-0.216936,-0.961034,26.9375,1,26591,2703343
3,2,0.99939,-0.00305034,0.034793,0.000120115,-0.695452,-0.0561905,9.78309,-0.137258,0.23198,0.979964,-0.00695659,-0.000569517,0.0978307,1,3.85922e-05,-1.0589e-05,4.33466e-06,0.00771844,-0.00211779,0.000866932,0.99939,-0.00305034,0.034793,0.000120115,0.258841,-0.215902,-0.966079,26.9375,1,26593,2703543
3,3,0.99939,-0.00294567,0.0347987,0.000149281,-0.6869,-0.0677149,9.79039,-0.122676,0.217274,0.991956,-0.00686714,-0.00068696,0.097904,1,4.88553e-05,9.35809e-06,1.78143e-05,0.00977105,0.00187162,0.00356287,0.99939,-0.00294567,0.0347987,0.000149281,0.25325,-0.212132,-0.955868,26.9375,1,26595,2703743
3,4,0.999391,-0.00285653,0.0347713,0.00018252,-0.695281,-0.0623181,9.79016,-0.131838,0.219928,0.984707,-0.00695547,-0.000631295,0.0979013,1,4.01734e-05,-1.36868e-05,1.78463e-05,0.00803468,-0.00273736,0.00356926,0.999391,-0.00285653,0.0347713,0.00018252,0.254189,-0.217424,-0.960535,26.9375,1,26597,2703943
4,1,0.999392,-0.00281437,0.0347572,0.000200311,-0.695532,-0.073306,9.78668,-0.131705,0.207927,0.983551,-0.0069581,-0.000741533,0.0978665,1,4.19039e-05,-1.43368e-05,1.94759e-05,0.00838078,-0.00286735,0.00389518,0.999392,-0.00281437,0.0347572,0.000200311,0.255551,-0.216895,-0.96356,26.9375,1,26598,2704043
4,2,0.999393,-0.0027229,0.0347411,0.000222903,-0.697321,-0.069854,9.79181,-0.132781,0.205624,0.991545,-0.00697409,-0.000708877,0.0979179,1,5.19882e-05,-4.59173e-06,1.11854e-05,0.0103976,-0.000918347,0.00223707,0.999393,-0.0027229,0.0347411,0.000222903,0.255984,-0.212527,-0.962455,26.9375,1,26600,2704243
4,3,0.999394,-0.00263107,0.0347112,0.000260644,-0.690386,-0.0688438,9.79177,-0.130643,0.202169,0.991292,-0.00690657,-0.000697387,0.0979175,1,4.47798e-05,-1.39571e-05,1.3016e-05,0.00895597,-0.00279141,0.0026032,0.999394,-0.00263107,0.0347112,0.000260644,0.25329,-0.214571,-0.955922,26.9375,1,26602,2704443
4,4,0.999395,-0.00256379,0.0346915,0.000289892,-0.697903,-0.0767981,9.78565,-0.13818,0.193317,0.98319,-0.00698186,-0.00077481,0.0978562,1,3.39187e-05,-1.4592e-05,1.36981e-05,0.00678374,-0.0029184,0.00273961,0.999395,-0.00256379,0.0346915,0.000289892,0.256496,-0.217372,-0.964585,26.9375,1,26604,2704643
5,1,0.999396,-0.00247398,0.0346701,0.000325689,-0.686713,-0.0654229,9.79652,-0.127902,0.205836,0.996554,-0.0068699,-0.000662332,0.097965,1,3.98363e-05,-1.42807e-05,2.16852e-05,0.00796726,-0.00285614,0.00433704,0.999396,-0.00247398,0.0346701,0.000325689,0.256005,-0.211578,-0.960919,26.9375,1,26606,2704843
5,2,0.999396,-0.00241681,0.0346535,0.00033546,-0.684215,-0.0700531,9.7958,-0.124859,0.20052,0.993299,-0.00684553,-0.000711886,0.0979577,1,5.71347e-05,-1.73321e-05,1.17235e-05,0.0114269,-0.00346643,0.00234471,0.999396,-0.00241681,0.0346535,0.00033546,0.25369,-0.211142,-0.956858,26.9375,1,26607,2704943
5,3,0.999397,-0.00233797,0.0346559,0.000353076,-0.685577,-0.0598879,9.77993,-0.127601,0.20552,0.971046,-0.00685645,-0.000605749,0.0977992,1,3.42764e-05,-3.58174e-06,1.2057e-05,0.00685528,-0.000716348,0.00241139,0.999397,-0.00233797,0.0346559,0.000353076,0.254218,-0.216964,-0.95901,26.9375,1,26609,2705143
5,4,0.999397,-0.00225361,0.0346471,0.000381707,-0.692925,-0.0629145,9.78335,-0.1266,0.20681,0.978645,-0.00693145,-0.000638017,0.0978333,1,4.42452e-05,-1.13342e-05,1.54805e-05,0.00884905,-0.00226685,0.00309611,0.999397,-0.00225361,0.0346471,0.000381707,0.257406,-0.214932,-0.96504,26.9375,1,26611,2705343
6,1,0.999398,-0.00217346,0.0346261,0.000418935,-0.693859,-0.0702725,9.79178,-0.134761,0.192688,0.996318,-0.00693987,-0.000711322,0.0979176,1,4.23584e-05,-6.7053e-06,2.1711e-05,0.00847169,-0.00134106,0.0043422,0.999398,-0.00217346,0.0346261,0.000418935,0.255178,-0.213115,-0.956404,26.9375,1,26613,2705543
6,2,0.999399,-0.00208954,0.0346033,0.000452239,-0.683299,-0.0715297,9.79305,-0.124144,0.1937,0.982905,-0.00683449,-0.000723097,0.0979304,1,3.87691e-05,-7.74654e-06,1.51191e-05,0.00775383,-0.00154931,0.00302382,0.999399,-0.00208954,0.0346033,0.000452239,0.255103,-0.215951,-0.961517,26.9375,1,26615,2705743
6,3,0.9994,-0.00201717,0.0345704,0.000495188,-0.696998,-0.0713147,9.79045,-0.141895,0.196277,0.985165,-0.00697556,-0.000721831,0.0979041,1,4.34929e-05,-2.85878e-05,1.2023e-05,0.00869858,-0.00571756,0.00240461,0.9994,-0.00201717,0.0345704,0.000495188,0.25602,-0.21689,-0.964067,26.9375,1,26617,2705943
6,4,0.999401,-0.00198083,0.0345598,0.0005009,-0.688834,-0.0684344,9.78396,-0.135117,0.197015,0.986519,-0.00689056,-0.000691868,0.0978393,1,3.79252e-05,-1.14182e-05,7.51037e-06,0.00758505,-0.00228363,0.00150207,0.999401,-0.00198083,0.0345598,0.0005009,0.255584,-0.21451,-0.960477,26.9375,1,26618,2706043
7,1,0.999402,-0.00190255,0.0345267,0.00052377,-0.693102,-0.0803589,9.78932,-0.137529,0.174298,0.984142,-0.00693384,-0.000813354,0.0978929,1,4.87156e-05,-1.45172e-05,1.63562e-05,0.00974312,-0.00290345,0.00327124,0.999402,-0.00190255,0.0345267,0.00052377,0.255227,-0.214596,-0.955427,26.9375,1,26620,2706243
7,2,0.999402,-0.00184537,0.0345142,0.00056968,-0.68707,-0.065141,9.78703,-0.133897,0.193328,0.979694,-0.0068726,-0.000657481,0.0978701,1,2.93516e-05,-9.86091e-06,2.36909e-05,0.00587032,-0.00197218,0.00473818,0.999402,-0.00184537,0.0345142,0.00056968,0.255579,-0.217879,-0.963077,26.9375,1,26622,2706443
7,3,0.999403,-0.0017625,0.0344954,0.000608426,-0.689241,-0.0537464,9.79359,-0.133621,0.204635,0.99385,-0.00689428,-0.000546248,0.0979357,1,4.38429e-05,-9.63367e-06,1.41824e-05,0.00876857,-0.00192673,0.00283648,0.999403,-0.0017625,0.0344954,0.000608426,0.257958,-0.212579,-0.960445,26.9375,1,26624,2706643
7,4,0.999404,-0.00166981,0.0344779,0.000637054,-0.695949,-0.0630154,9.78677,-0.145249,0.19138,0.984994,-0.00696167,-0.000638442,0.0978675,1,4.16935e-05,-1.12186e-05,9.13068e-06,0.0083387,-0.00224372,0.00182614,0.999404,-0.00166981,0.0344779,0.000637054,0.253787,-0.21555,-0.955946,26.9375,1,26626,2706843
8,1,0.999404,-0.00163351,0.0344768,0.000656095,-0.683665,-0.0719443,9.79237,-0.128861,0.177426,0.984808,-0.00683719,-0.000727239,0.0979236,1,3.84115e-05,-2.86303e-06,1.996e-05,0.0076823,-0.000572605,0.003992,0.999404,-0.00163351,0.0344768,0.000656095,0.254691,-0.217925,-0.960044,26.9375,1,26627,2706943
8,2,0.999405,-0.00156158,0.034455,0.000676713,-0.700321,-0.0550787,9.79841,-0.144214,0.196,0.992167,-0.0070069,-0.000558232,0.0979838,1,3.70572e-05,-1.89173e-05,1.30831e-05,0.00741144,-0.00378346,0.00261663,0.999405,-0.00156158,0.034455,0.000676713,0.255473,-0.215874,-0.966062,26.9375,1,26629,2707143
8,3,0.999405,-0.00147167,0.0344395,0.00069959,-0.698615,-0.0672986,9.79692,-0.144003,0.186284,0.99617,-0.00698796,-0.00068166,0.0979691,1,4.36008e-05,-9.30221e-06,9.3896e-06,0.00872015,-0.00186044,0.00187792,0.999405,-0.00147167,0.0344395,0.00069959,0.255586,-0.210174,-0.95735,26.9375,1,26631,2707343
8,4,0.999406,-0.00137879,0.034435,0.000732535,-0.68505,-0.0673359,9.79311,-0.132896,0.175266,0.988619,-0.00685122,-0.000684051,0.0979309,1,5.34412e-05,-3.79212e-06,1.64769e-05,0.0106882,-0.000758424,0.00329538,0.999406,-0.00137879,0.034435,0.000732535,0.254177,-0.217415,-0.96104,26.9375,1,26633,2707543
9,1,0.999406,-0.00131388,0.0344183,0.00074131,-0.684046,-0.069025,9.78257,-0.133272,0.173069,0.977194,-0.00684315,-0.000699449,0.0978254,1,4.66294e-05,-1.37596e-05,5.57513e-06,0.00932587,-0.00275192,0.00111503,0.999406,-0.00131388,0.0344183,0.00074131,0.256892,-0.214423,-0.966037,26.9375,1,26635,2707743
9,2,0.999407,-0.00127848,0.0344033,0.000750285,-0.688643,-0.0650063,9.78773,-0.13541,0.179975,0.985589,-0.00689002,-0.000658425,0.097877,1,4.17289e-05,-1.84143e-05,1.40497e-05,0.00834577,-0.00368286,0.00280994,0.999407,-0.00127848,0.0344033,0.000750285,0.25598,-0.21156,-0.961928,26.9375,1,26636,2707843
9,3,0.999407,-0.00118875,0.0343942,0.000785294,-0.683858,-0.062888,9.78702,-0.134773,0.174871,0.989257,-0.00683806,-0.000637801,0.0978702,1,4.42602e-05,2.56828e-06,1.8837e-05,0.00885204,0.000513657,0.0037674,0.999407,-0.00118875,0.0343942,0.000785294,0.255671,-0.213128,-0.955901,26.9375,1,26638,2708043
9,4,0.999408,-0.00110282,0.0343801,0.000825846,-0.689087,-0.0666722,9.79416,-0.138104,0.172039,0.994477,-0.00689246,-0.000677338,0.0979414,1,5.24297e-05,-8.26269e-06,2.5088e-05,0.0104859,-0.00165254,0.00501759,0.999408,-0.00110282,0.0343801,0.000825846,0.256077,-0.218859,-0.963101,26.9375,1,26640,2708243
10,1,0.999409,-0.00103045,0.0343633,0.000841397,-0.70027,-0.0643833,9.79086,-0.148525,0.171696,0.990819,-0.00700562,-0.000654285,0.0979083,1,5.27333e-05,-1.50207e-05,8.99449e-06,0.0105467,-0.00300414,0.0017989,0.999409,-0.00103045,0.0343633,0.000841397,0.258378,-0.211092,-0.961929,26.9375,1,26642,2708443
10,2,0.999409,-0.000947408,0.0343535,0.00087975,-0.688481,-0.0606564,9.79081,-0.138222,0.171125,0.992516,-0.00688686,-0.000614619,0.0979079,1,3.99947e-05,-1.05557e-05,1.62255e-05,0.00799894,-0.00211113,0.00324511,0.999409,-0.000947408,0.0343535,0.00087975,0.254729,-0.215062,-0.956445,26.9375,1,26644,2708643
10,3,0.99941,-0.000887777,0.0343339,0.000893693,-0.693638,-0.0683116,9.79212,-0.139541,0.165249,0.989017,-0.00693715,-0.000689844,0.0979211,1,3.34474e-05,-3.99175e-06,1.2791e-05,0.00668949,-0.000798351,0.00255819,0.99941,-0.000887777,0.0343339,0.000893693,0.257471,-0.217389,-0.964085,26.9375,1,26646,2708843
10,4,0.99941,-0.000863141,0.0343288,0.000885374,-0.689694,-0.0797273,9.7893,-0.144028,0.154541,0.984683,-0.00689884,-0.000804599,0.0978928,1,3.70369e-05,-9.72669e-06,5.40914e-06,0.00740737,-0.00194534,0.00108183,0.99941,-0.000863141,0.0343288,0.000885374,0.257434,-0.215917,-0.964557,26.9375,1,26647,2708943
11,1,0.99941,-0.000804027,0.0343209,0.000912888,-0.692538,-0.0733772,9.79073,-0.141563,0.156057,0.991249,-0.00692632,-0.000741033,0.0979072,1,3.55149e-05,-4.98649e-06,2.216e-05,0.00710299,-0.000997298,0.00443201,0.99941,-0.000804027,0.0343209,0.000912888,0.254676,-0.212614,-0.956895,26.9375,1,26649,2709143
11,2,0.999411,-0.000711761,0.0343084,0.000989732,-0.687373,-0.052936,9.78,-0.139403,0.179977,0.975901,-0.00687297,-0.000537917,0.0978,1,4.17438e-05,3.70675e-06,2.8545e-05,0.00834875,0.000741351,0.005709,0.999411,-0.000711761,0.0343084,0.000989732,0.254663,-0.216941,-0.960527,26.9375,1,26651,2709343
11,3,0.999411,-0.000674688,0.0342939,0.00099369,-0.696406,-0.0768981,9.79616,-0.14755,0.150164,0.993456,-0.00696625,-0.00077648,0.0979614,1,3.71152e-05,-1.12987e-05,1.6311e-05,0.00742303,-0.00225974,0.0032622,0.999411,-0.000674688,0.0342939,0.00099369,0.257423,-0.214463,-0.96402,26.9375,1,26653,2709543
11,4,0.999412,-0.00061451,0.034273,0.00100549,-0.686085,-0.0654446,9.78838,-0.138165,0.161683,0.987543,-0.00686283,-0.000661751,0.0978836,1,3.618e-05,-1.02578e-05,1.61584e-05,0.00723599,-0.00205157,0.00323168,0.999412,-0.00061451,0.034273,0.00100549,0.254718,-0.212162,-0.954865,26.9375,1,26655,2709743
12,1,0.999412,-0.000557561,0.034255,0.00104793,-0.683959,-0.0663819,9.78768,-0.135602,0.154509,0.985984,-0.00684238,-0.000672492,0.0978765,1,4.36473e-05,-1.4283e-05,9.42664e-06,0.00872947,-0.0028566,0.00188533,0.999412,-0.000557561,0.034255,0.00104793,0.253347,-0.215095,-0.953914,26.9375,1,26656,2709843
12,2,0.999412,-0.000494586,0.0342539,0.00109968,-0.690842,-0.0696874,9.80024,-0.143778,0.15831,0.996954,-0.00690793,-0.000704273,0.0980024,1,3.62918e-05,2.33178e-06,2.0735e-05,0.00725836,0.000466356,0.00414699,0.999412,-0.000494586,0.0342539,0.00109968,0.255554,-0.219306,-0.965129,26.9375,1,26658,2710043
12,3,0.999413,-0.000466451,0.0342283,0.00108674,-0.688233,-0.0693546,9.78769,-0.143249,0.152736,0.986935,-0.00688782,-0.000703408,0.0978765,1,4.90097e-05,-2.8184e-05,1.94274e-05,0.00980195,-0.00563679,0.00388549,0.999413,-0.000466451,0.0342283,0.00108674,0.256527,-0.212576,-0.959933,26.9375,1,26660,2710243
12,4,0.999414,-0.000362746,0.034203,0.00116658,-0.693077,-0.0697723,9.79687,-0.141868,0.153985,0.992319,-0.0069332,-0.000708331,0.0979685,1,5.23068e-05,-1.261e-05,2.58908e-05,0.0104614,-0.00252199,0.00517816,0.999414,-0.000362746,0.034203,0.00116658,0.253796,-0.214593,-0.954915,26.9375,1,26662,2710443
13,1,0.999415,-0.0002993,0.0341841,0.00122513,-0.693695,-0.0767876,9.79309,-0.144486,0.143677,0.99086,-0.00693981,-0.000775324,0.0979307,1,3.65098e-05,-1.4782e-05,2.14334e-05,0.00730195,-0.00295641,0.00428667,0.999415,-0.0002993,0.0341841,0.00122513,0.257026,-0.218858,-0.963611,26.9375,1,26664,2710643
13,2,0.999415,-0.000262743,0.0341687,0.00120826,-0.688052,-0.0687928,9.7887,-0.138178,0.149894,0.982813,-0.00688317,-0.000696774,0.0978868,1,4.4236e-05,-1.36514e-05,1.35153e-05,0.00884719,-0.00273027,0.00270306,0.999415,-0.000262743,0.0341687,0.00120826,0.256091,-0.213087,-0.958427,26.9375,1,26666,2710843
13,3,0.999416,-0.000218133,0.034149,0.00123771,-0.676018,-0.0638916,9.79309,-0.132159,0.153578,0.991152,-0.00676468,-0.000648241,0.0979305,1,4.61266e-05,-2.30744e-05,2.14147e-05,0.00922533,-0.00461487,0.00428294,0.999416,-0.000218133,0.034149,0.00123771,0.255203,-0.211687,-0.954352,26.9375,1,26667,2710943
13,4,0.999417,-0.000113487,0.0341117,0.00131096,-0.688565,-0.0671912,9.79857,-0.141621,0.149869,0.996024,-0.00689045,-0.000679981,0.0979853,1,4.00748e-05,-2.46168e-05,1.56406e-05,0.00801495,-0.00492336,0.00312813,0.999417,-0.000113487,0.0341117,0.00131096,0.254716,-0.217943,-0.959034,26.9375,1,26669,2711143
14,1,0.999417,-8.66984e-05,0.0341058,0.00133363,-0.692662,-0.0623311,9.77657,-0.148882,0.156073,0.969776,-0.00692751,-0.000629676,0.0977656,1,3.03407e-05,-4.74393e-06,3.12272e-05,0.00606815,-0.000948786,0.00624543,0.999417,-8.66984e-05,0.0341058,0.00133363,0.255041,-0.217351,-0.965083,26.9375,1,26671,2711343
14,2,0.999417,-5.15806e-05,0.0341083,0.00135336,-0.693417,-0.0588976,9.78406,-0.147725,0.160473,0.979591,-0.00693466,-0.000596745,0.0978405,1,3.83909e-05,-2.61898e-06,1.85e-05,0.00767818,-0.000523796,0.0037,0.999417,-5.15806e-05,0.0341083,0.00135336,0.255186,-0.212157,-0.955372,26.9375,1,26673,2711543
14,3,0.999418,6.18231e-05,0.0340692,0.00142621,-0.697905,-0.06622,9.78947,-0.152251,0.147887,0.983214,-0.0069816,-0.000670343,0.0978945,1,4.0656e-05,-1.31112e-05,1.31166e-05,0.0081312,-0.00262225,0.00262331,0.999418,6.18231e-05,0.0340692,0.00142621,0.254736,-0.21844,-0.95854,26.9375,1,26675,2711743
14,4,0.999419,9.97772e-05,0.0340664,0.00142987,-0.689535,-0.0704504,9.79547,-0.139768,0.143024,0.988635,-0.00689628,-0.000715131,0.0979546,1,5.3536e-05,-4.80392e-06,1.0042e-05,0.0107072,-0.000960784,0.0020084,0.999419,9.97772e-05,0.0340664,0.00142987,0.25509,-0.218833,-0.964106,26.9375,1,26676,2711843
15,1,0.999418,0.000108737,0.0340693,0.00139824,-0.681611,-0.0728147,9.78557,-0.137553,0.140557,0.981229,-0.00681801,-0.000736303,0.0978555,1,4.03803e-05,-9.84047e-06,1.85351e-05,0.00807606,-0.00196809,0.00370703,0.999418,0.000108737,0.0340693,0.00139824,0.256527,-0.212576,-0.959933,26.9375,1,26678,2712043
15,2,0.999419,0.000203385,0.0340468,0.00148314,-0.677516,-0.0703102,9.79405,-0.130604,0.138194,0.992193,-0.00677616,-0.000714212,0.0979403,1,5.5559e-05,-5.23422e-06,1.67842e-05,0.0111118,-0.00104684,0.00335684,0.999419,0.000203385,0.0340468,0.00148314,0.253294,-0.214092,-0.955406,26.9375,1,26680,2712243
15,3,0.99942,0.000268688,0.0340324,0.0015537,-0.68838,-0.0729237,9.79376,-0.143601,0.131831,0.99046,-0.00688546,-0.000738271,0.0979374,1,4.4534e-05,-8.62582e-06,2.2607e-05,0.0089068,-0.00172516,0.00452139,0.99942,0.000268688,0.0340324,0.0015537,0.258009,-0.219362,-0.963121,26.9375,1,26682,2712443
15,4,0.99942,0.000289539,0.0340132,0.00148469,-0.680937,-0.0675609,9.78866,-0.134229,0.141635,0.983112,-0.00681173,-0.00068588,0.0978864,1,5.126e-05,-1.21778e-05,1.72501e-05,0.010252,-0.00243556,0.00345001,0.99942,0.000289539,0.0340132,0.00148469,0.256584,-0.2131,-0.957925,26.9375,1,26684,2712643
16,1,0.99942,0.000325169,0.0340074,0.00150641,-0.691359,-0.0683243,9.80468,-0.147902,0.137815,1.00397,-0.00691511,-0.000690819,0.0980466,1,3.74188e-05,-7.864e-06,1.72442e-05,0.00748375,-0.0015728,0.00344885,0.99942,0.000325169,0.0340074,0.00150641,0.256194,-0.211235,-0.952831,26.9375,1,26685,2712743
16,2,0.999421,0.0004516,0.0339758,0.00160107,-0.693932,-0.0626177,9.78336,-0.153076,0.144131,0.978834,-0.00694022,-0.000635009,0.0978335,1,4.35786e-05,-4.76998e-06,2.19789e-05,0.00871573,-0.000953997,0.00439579,0.999421,0.0004516,0.0339758,0.00160107,0.254218,-0.216964,-0.95901,26.9375,1,26687,2712943
16,3,0.999421,0.000489052,0.0339827,0.00158851,-0.684672,-0.0621766,9.78908,-0.141735,0.142433,0.985332,-0.00684899,-0.00063248,0.0978905,1,5.41713e-05,-1.16229e-05,7.85085e-06,0.0108343,-0.00232459,0.00157017,0.999421,0.000489052,0.0339827,0.00158851,0.257414,-0.213975,-0.964009,26.9375,1,26689,2713143
16,4,0.999421,0.000508261,0.0339729,0.0015958,-0.689462,-0.0696519,9.78531,-0.143954,0.130367,0.980606,-0.00689738,-0.000702157,0.0978528,1,2.71963e-05,-1.4298e-05,2.28509e-05,0.00543925,-0.00285961,0.00457018,0.999421,0.000508261,0.0339729,0.0015958,0.255183,-0.211191,-0.954846,26.9375,1,26691,2713343
17,1,0.999422,0.00059733,0.0339653,0.00167897,-0.69598,-0.0674895,9.78571,-0.155581,0.132244,0.982153,-0.00696152,-0.00068395,0.0978569,1,4.50312e-05,-8.92228e-06,1.73693e-05,0.00900624,-0.00178446,0.00347386,0.999422,0.00059733,0.0339653,0.00167897,0.254259,-0.217957,-0.958022,26.9375,1,26693,2713543
17,2,0.999421,0.000644047,0.0339659,0.00169246,-0.70073,-0.0715112,9.79622,-0.156404,0.124328,0.995014,-0.0070071,-0.000725316,0.0979622,1,5.10644e-05,9.49974e-07,1.42345e-05,0.0102129,0.000189995,0.00284689,0.999421,0.000644047,0.0339659,0.00169246,0.257895,-0.215424,-0.965053,26.9375,1,26695,2713743
17,3,0.999421,0.000657728,0.0339741,0.00165598,-0.694253,-0.0642031,9.78369,-0.151927,0.135882,0.977223,-0.00694365,-0.000653317,0.0978368,1,5.65519e-05,-5.8486e-06,1.5888e-05,0.0113104,-0.00116972,0.0031776,0.999421,0.000657728,0.0339741,0.00165598,0.257045,-0.212607,-0.958421,26.9375,1,26696,2713843
17,4,0.999422,0.0007467,0.0339479,0.00172701,-0.6844,-0.066632,9.78971,-0.140893,0.127994,0.988265,-0.00684526,-0.000676536,0.0978969,1,5.12396e-05,-6.52458e-06,1.3385e-05,0.0102479,-0.00130492,0.002677,0.999422,0.0007467,0.0339479,0.00172701,0.25433,-0.2156,-0.953425,26.9375,1,26698,2714043
18,1,0.999422,0.000811965,0.0339364,0.00176458,-0.685482,-0.054594,9.78677,-0.144536,0.141084,0.983228,-0.00685689,-0.000555514,0.0978675,1,4.78867e-05,-1.06637e-05,1.46554e-05,0.00957734,-0.00213274,0.00293108,0.999422,0.000811965,0.0339364,0.00176458,0.255587,-0.218367,-0.963088,26.9375,1,26700,2714243
18,2,0.999422,0.000828284,0.0339472,0.00176734,-0.683622,-0.0690944,9.79749,-0.140466,0.125043,0.993527,-0.00683708,-0.000700181,0.0979748,1,4.56032e-05,-4.51307e-06,2.20461e-05,0.00912065,-0.000902614,0.00440922,0.999422,0.000828284,0.0339472,0.00176734,0.256506,-0.212079,-0.960427,26.9375,1,26702,2714443
18,3,0.999422,0.0008887,0.0339377,0.001832,-0.689088,-0.0650275,9.79655,-0.14301,0.120433,0.993232,-0.0068921,-0.00065878,0.0979653,1,4.11645e-05,-6.43712e-06,3.19089e-05,0.0082329,-0.00128742,0.00638178,0.999422,0.0008887,0.0339377,0.001832,0.252919,-0.216093,-0.952419,26.9375,1,26704,2714643
18,4,0.999422,0.000919181,0.0339311,0.00188616,-0.688817,-0.0712046,9.78155,-0.152684,0.118484,0.978886,-0.00688982,-0.000719357,0.0978154,1,3.55691e-05,-8.6183e-06,2.5563e-05,0.00711382,-0.00172366,0.0051126,0.999422,0.000919181,0.0339311,0.00188616,0.252828,-0.2194,-0.958553,26.9375,1,26705,2714743
19,1,0.999422,0.000946062,0.0339197,0.00186484,-0.688343,-0.0690586,9.78565,-0.145265,0.121078,0.981313,-0.00688654,-0.000699122,0.0978562,1,4.32079e-05,-1.59607e-05,5.74803e-06,0.00864158,-0.00319215,0.00114961,0.999422,0.000946062,0.0339197,0.00186484,0.257952,-0.217393,-0.964087,26.9375,1,26707,2714943
19,2,0.999422,0.000972029,0.0339195,0.00182179,-0.690384,-0.0739854,9.79851,-0.151953,0.115102,0.997482,-0.00690597,-0.000749108,0.0979849,1,4.60463e-05,-1.09935e-05,1.66243e-05,0.00920927,-0.00219871,0.00332485,0.999422,0.000972029,0.0339195,0.00182179,0.255689,-0.209767,-0.952796,26.9375,1,26709,2715143
19,3,0.999423,0.00104134,0.0338914,0.00189564,-0.695838,-0.065944,9.79795,-0.15478,0.124685,0.9938,-0.00696123,-0.000667279,0.0979792,1,3.92441e-05,-1.46385e-05,1.07437e-05,0.00784882,-0.0029277,0.00214874,0.999423,0.00104134,0.0338914,0.00189564,0.25569,-0.21796,-0.958534,26.9375,1,26711,2715343
19,4,0.999423,0.00106292,0.0338861,0.00188617,-0.689143,-0.0647533,9.78942,-0.148331,0.121495,0.982398,-0.00689261,-0.000655462,0.0978941,1,3.94658e-05,-6.13192e-06,1.46347e-05,0.00789315,-0.00122638,0.00292693,0.999423,0.00106292,0.0338861,0.00188617,0.256057,-0.215471,-0.961511,26.9375,1,26713,2715543
20,1,0.999424,0.00108514,0.0338802,0.00191631,-0.685942,-0.0705028,9.79241,-0.148127,0.115802,0.990797,-0.00686231,-0.000714331,0.0979239,1,4.57931e-05,-1.49702e-05,2.43316e-05,0.00915862,-0.00299405,0.00486632,0.999424,0.00108514,0.0338802,0.00191631,0.252781,-0.212137,-0.955361,26.9375,1,26715,2715743
20,2,0.999423,0.0011228,0.0338765,0.00198382,-0.683357,-0.067963,9.78732,-0.144458,0.117517,0.983996,-0.00683549,-0.000689688,0.097873,1,4.9578e-05,-9.97039e-06,2.58294e-05,0.0099156,-0.00199408,0.00516589,0.999423,0.0011228,0.0338765,0.00198382,0.252357,-0.214102,-0.954392,26.9375,1,26716,2715843
20,3,0.999424,0.00116537,0.0338568,0.00203549,-0.688029,-0.0745147,9.79035,-0.149746,0.103671,0.989844,-0.0068824,-0.000755101,0.0979033,1,4.9891e-05,-1.0874e-05,1.34335e-05,0.00997819,-0.00217481,0.0026867,0.999424,0.00116537,0.0338568,0.00203549,0.257516,-0.217904,-0.962582,26.9375,1,26718,2716043
20,4,0.999424,0.00115629,0.033861,0.00196157,-0.688459,-0.0690577,9.79854,-0.144746,0.113955,0.993463,-0.00688419,-0.000695872,0.0979854,1,2.66991e-05,2.03233e-06,4.53736e-06,0.00533983,0.000406466,0.000907472,0.999424,0.00115629,0.033861,0.00196157,0.257962,-0.2121,-0.959929,26.9375,1,26720,2716243
21,1,0.999423,0.00119047,0.0338743,0.00199477,-0.698222,-0.0725046,9.80129,-0.156684,0.110308,0.999516,-0.00698205,-0.00073219,0.0980129,1,3.56343e-05,7.69041e-07,1.13452e-05,0.00712686,0.000153808,0.00226904,0.999423,0.00119047,0.0338743,0.00199477,0.254298,-0.213648,-0.953381,26.9375,1,26722,2716443
21,2,0.999424,0.00123613,0.0338622,0.0020247,-0.687809,-0.0702561,9.78393,-0.149933,0.111709,0.980287,-0.00687972,-0.000713123,0.0978391,1,5.39012e-05,-8.3821e-06,1.03586e-06,0.0107802,-0.00167642,0.000207173,0.999424,0.00123613,0.0338622,0.0020247,0.255644,-0.220336,-0.962122,26.9375,1,26724,2716643
21,3,0.999424,0.00124494,0.0338493,0.00201174,-0.68908,-0.0639844,9.78909,-0.14943,0.119484,0.984641,-0.00689504,-0.000648674,0.0978906,1,4.41446e-05,-2.17669e-05,1.36162e-05,0.00882892,-0.00435338,0.00272324,0.999424,0.00124494,0.0338493,0.00201174,0.256525,-0.216912,-0.96306,26.9375,1,26725,2716743
21,4,0.999425,0.00126,0.0338305,0.00201048,-0.69252,-0.0663317,9.78265,-0.15821,0.114468,0.981238,-0.00692884,-0.000672826,0.0978261,1,4.78829e-05,-1.86677e-05,1.01181e-05,0.00957658,-0.00373354,0.00202362,0.999425,0.00126,0.0338305,0.00201048,0.255663,-0.21264,-0.95589,26.9375,1,26727,2716943
22,1,0.999425,0.00131238,0.0338216,0.00205542,-0.692431,-0.0627237,9.79728,-0.155121,0.122298,0.992182,-0.00692787,-0.000636786,0.0979724,1,4.77022e-05,-1.82951e-05,1.4605e-05,0.00954045,-0.00365902,0.002921,0.999425,0.00131238,0.0338216,0.00205542,0.255168,-0.218408,-0.960562,26.9375,1,26729,2717143
22,2,0.999424,0.00132773,0.0338484,0.00203634,-0.693077,-0.0790548,9.78831,-0.154412,0.0999207,0.986996,-0.00693251,-0.000799655,0.0978829,1,4.55193e-05,-8.98755e-06,1.41112e-05,0.00910387,-0.00179751,0.00282224,0.999424,0.00132773,0.0338484,0.00203634,0.255041,-0.215906,-0.964041,26.9375,1,26731,2717343
22,3,0.999424,0.00136858,0.0338545,0.00210487,-0.693322,-0.0646174,9.7813,-0.154018,0.115059,0.978018,-0.00693409,-0.000655537,0.0978129,1,4.55025e-05,-4.65511e-06,3.33041e-05,0.0091005,-0.000931021,0.00666082,0.999424,0.00136858,0.0338545,0.00210487,0.253262,-0.212141,-0.955363,26.9375,1,26733,2717543
22,4,0.999424,0.00143125,0.0338399,0.00221186,-0.683704,-0.0652163,9.78124,-0.146155,0.11236,0.977627,-0.00684005,-0.000661298,0.0978121,1,4.54597e-05,-1.55176e-05,1.77325e-05,0.00909194,-0.00310353,0.00354649,0.999424,0.00143125,0.0338399,0.00221186,0.252795,-0.218894,-0.959551,26.9375,1,26735,2717743
23,1,0.999424,0.0014544,0.0338329,0.00222812,-0.684634,-0.0713943,9.79646,-0.143517,0.109736,0.99346,-0.00684892,-0.000724512,0.0979643,1,5.29381e-05,-1.32733e-05,1.43856e-05,0.0105876,-0.00265467,0.00287711,0.999424,0.0014544,0.0338329,0.00222812,0.255612,-0.21983,-0.963121,26.9375,1,26736,2717843
23,2,0.999424,0.00146372,0.0338252,0.00220241,-0.686743,-0.0695524,9.79106,-0.148246,0.108335,0.988126,-0.0068681,-0.000701598,0.0979105,1,2.9577e-05,-3.57799e-06,2.05487e-05,0.00591539,-0.000715599,0.00410973,0.999424,0.00146372,0.0338252,0.00220241,0.254602,-0.21256,-0.959924,26.9375,1,26738,2718043
23,3,0.999424,0.00151208,0.033832,0.00231748,-0.691437,-0.0671662,9.79315,-0.153678,0.110768,0.993446,-0.00691609,-0.000680191,0.0979313,1,4.15259e-05,-8.99863e-06,2.86342e-05,0.00830518,-0.00179973,0.00572684,0.999424,0.00151208,0.033832,0.00231748,0.254766,-0.213643,-0.953888,26.9375,1,26740,2718243
23,4,0.999424,0.00153468,0.0338296,0.00235093,-0.693832,-0.0652754,9.79251,-0.152786,0.114075,0.987664,-0.00693979,-0.000658536,0.0979249,1,2.83179e-05,-7.57918e-06,1.70281e-05,0.00566358,-0.00151584,0.00340562,0.999424,0.00153468,0.0338296,0.00235093,0.256541,-0.219332,-0.964124,26.9375,1,26742,2718443
24,1,0.999424,0.00154773,0.0338336,0.00229869,-0.690187,-0.070501,9.78666,-0.15057,0.105688,0.983302,-0.00690348,-0.000713302,0.0978664,1,4.21237e-05,-8.23284e-06,3.35479e-06,0.00842474,-0.00164657,0.000670959,0.999424,0.00154773,0.0338336,0.00229869,0.256967,-0.211586,-0.960923,26.9375,1,26744,2718643
24,2,0.999424,0.00157188,0.0338323,0.00231211,-0.694274,-0.0727324,9.77954,-0.156764,0.104492,0.979668,-0.00694454,-0.000737333,0.0977952,1,4.99188e-05,-9.37101e-06,1.76878e-05,0.00998376,-0.0018742,0.00353757,0.999424,0.00157188,0.0338323,0.00231211,0.255655,-0.212152,-0.955879,26.9375,1,26745,2718743
24,3,0.999424,0.00161496,0.0338226,0.00239519,-0.692702,-0.0730195,9.79311,-0.159355,0.100726,0.991401,-0.00693102,-0.000738281,0.0979308,1,3.8879e-05,-2.06883e-05,3.40288e-05,0.0077758,-0.00413765,0.00680575,0.999424,0.00161496,0.0338226,0.00239519,0.255185,-0.216493,-0.958499,26.9375,1,26747,2718943
24,4,0.999424,0.00163987,0.0338227,0.0023845,-0.689858,-0.0629986,9.79181,-0.153615,0.111421,0.989809,-0.00689918,-0.0006375,0.097918,1,3.86517e-05,-3.07142e-06,-4.02524e-06,0.00773035,-0.000614284,-0.000805048,0.999424,0.00163987,0.0338227,0.0023845,0.255008,-0.2154,-0.96504,26.9375,1,26749,2719143
25,1,0.999423,0.00167006,0.0338327,0.00240392,-0.690222,-0.0652537,9.78637,-0.154492,0.109184,0.983569,-0.00690389,-0.000663312,0.0978635,1,5.39981e-05,-8.60698e-06,1.49033e-05,0.0107996,-0.0017214,0.00298065,0.999423,0.00167006,0.0338327,0.00240392,0.255162,-0.212139,-0.956382,26.9375,1,26751,2719343
25,2,0.999424,0.00170588,0.0338149,0.0024678,-0.694398,-0.0726533,9.78499,-0.156719,0.0923001,0.982895,-0.00694872,-0.000733915,0.0978495,1,3.62545e-05,-2.43449e-05,2.0638e-05,0.0072509,-0.00486898,0.0041276,0.999424,0.00170588,0.0338149,0.0024678,0.254235,-0.217939,-0.959032,26.9375,1,26753,2719543
25,3,0.999424,0.00171563,0.0338066,0.00248878,-0.699292,-0.0631612,9.79425,-0.157203,0.104881,0.990549,-0.00699599,-0.000639326,0.0979423,1,3.74355e-05,-1.5849e-05,2.72115e-05,0.00748709,-0.00316979,0.00544231,0.999424,0.00171563,0.0338066,0.00248878,0.256064,-0.21885,-0.963606,26.9375,1,26754,2719643
25,4,0.999424,0.00171827,0.0338007,0.00247342,-0.693561,-0.066036,9.78401,-0.155633,0.104123,0.980767,-0.00693754,-0.000668873,0.0978399,1,4.17176e-05,-1.00269e-05,2.52053e-05,0.00834352,-0.00200538,0.00504105,0.999424,0.00171827,0.0338007,0.00247342,0.256062,-0.212102,-0.95891,26.9375,1,26756,2719843
26,1,0.999424,0.00175716,0.033796,0.00251673,-0.67758,-0.0735355,9.78519,-0.139658,0.0967146,0.981315,-0.00677723,-0.000741658,0.0978518,1,3.12309e-05,-7.40224e-06,1.41562e-05,0.00624618,-0.00148045,0.00283124,0.999424,0.00175716,0.033796,0.00251673,0.254766,-0.216534,-0.955973,26.9375,1,26758,2720043
26,2,0.999424,0.00180052,0.0338044,0.00251619,-0.689874,-0.0701871,9.78836,-0.152597,0.0957257,0.989183,-0.00689901,-0.000709664,0.0978835,1,3.93931e-05,-1.44359e-06,5.8581e-06,0.00787862,-0.000288719,0.00117162,0.999424,0.00180052,0.0338044,0.00251619,0.257475,-0.218356,-0.964612,26.9375,1,26760,2720243
26,3,0.999424,0.00180518,0.0338025,0.00248585,-0.688062,-0.0650368,9.79043,-0.151435,0.104465,0.987965,-0.00688296,-0.000658418,0.0979041,1,4.04455e-05,-1.19878e-05,9.46033e-06,0.00808911,-0.00239757,0.00189207,0.999424,0.00180518,0.0338025,0.00248585,0.257899,-0.214945,-0.964538,26.9375,1,26761,2720343
26,4,0.999424,0.00180814,0.033807,0.0024772,-0.687592,-0.0594962,9.7847,-0.148075,0.110414,0.981338,-0.00687691,-0.000602426,0.0978469,1,3.67108e-05,-5.14258e-06,2.03719e-05,0.00734217,-0.00102852,0.00407438,0.999424,0.00180814,0.033807,0.0024772,0.257925,-0.212073,-0.961444,26.9375,1,26762,2720443
27,1,0.999424,0.00181752,0.0338012,0.0024763,-0.691591,-0.062663,9.77622,-0.154373,0.112029,0.975727,-0.00691842,-0.000633805,0.097762,1,3.61595e-05,-1.28765e-05,7.58652e-06,0.0072319,-0.0025753,0.0015173,0.999424,0.00181752,0.0338012,0.0024763,0.255145,-0.211163,-0.95636,26.9375,1,26763,2720543
27,2,0.999424,0.00186578,0.0337966,0.00254669,-0.674683,-0.0662518,9.78693,-0.135108,0.0960833,0.983677,-0.0067471,-0.000671095,0.0978692,1,4.33698e-05,-1.425e-06,6.49351e-06,0.00867396,-0.000285,0.0012987,0.999424,0.00186578,0.0337966,0.00254669,0.255156,-0.218399,-0.961066,26.9375,1,26765,2720743
27,3,0.999424,0.00186578,0.0337966,0.00254669,-0.674683,-0.0662518,9.78693,-0.135108,0.0960833,0.983677,-0.0067471,-0.000671095,0.0978692,1,4.33698e-05,-1.425e-06,6.49351e-06,0.00867396,-0.000285,0.0012987,0.999424,0.00186578,0.0337966,0.00254669,0.255156,-0.218399,-0.961066,26.9375,1,26765,2720743
27,4,0.999424,0.00186578,0.0337966,0.00254669,-0.674683,-0.0662518,9.78693,-0.135108,0.0960833,0.983677,-0.0067471,-0.000671095,0.0978692,1,4.33698e-05,-1.425e-06,6.49351e-06,0.00867396,-0.000285,0.0012987,0.999424,0.00186578,0.0337966,0.00254669,0.255156,-0.218399,-0.961066,26.9375,1,26765,2720743
28,1,0.999423,0.00188912,0.0338141,0.00254575,-0.717789,-0.0686534,9.78313,-0.184487,0.0994966,0.981615,-0.00717822,-0.000694485,0.0978312,1,3.90504e-05,-1.8347e-06,2.16216e-05,0.00781007,-0.00036694,0.00432431,0.999423,0.00188912,0.0338141,0.00254575,0.257431,-0.21495,-0.964031,26.9375,1,26767,2720943
28,2,0.999423,0.00189898,0.0338233,0.00254711,-0.683,-0.0751324,9.78488,-0.144303,0.0909418,0.983065,-0.00682994,-0.000759437,0.0978487,1,4.02258e-05,1.95789e-07,1.76166e-05,0.00804516,3.91577e-05,0.00352333,0.999423,0.00189898,0.0338233,0.00254711,0.254598,-0.211593,-0.959397,26.9375,1,26768,2721043
28,3,0.999423,0.00189898,0.0338233,0.00254711,-0.683,-0.0751324,9.78488,-0.144303,0.0909418,0.983065,-0.00682994,-0.000759437,0.0978487,1,4.02258e-05,1.95789e-07,1.76166e-05,0.00804516,3.91577e-05,0.00352333,0.999423,0.00189898,0.0338233,0.00254711,0.254598,-0.211593,-0.959397,26.9375,1,26768,2721043
28,4,0.999423,0.00189898,0.0338233,0.00254711,-0.683,-0.0751324,9.78488,-0.144303,0.0909418,0.983065,-0.00682994,-0.000759437,0.0978487,1,4.02258e-05,1.95789e-07,1.76166e-05,0.00804516,3.91577e-05,0.00352333,0.999423,0.00189898,0.0338233,0.00254711,0.254598,-0.211593,-0.959397,26.9375,1,26768,2721043
29,1,0.999422,0.00193737,0.0338268,0.00263775,-0.70776,-0.0607189,9.77973,-0.168681,0.104295,0.978798,-0.0070772,-0.000614238,0.0977973,1,3.51741e-05,1.96686e-06,1.19435e-05,0.00703483,0.000393371,0.00238869,0.999422,0.00193737,0.0338268,0.00263775,0.253821,-0.213166,-0.952863,26.9375,1,26770,2721243
29,2,0.999423,0.00197595,0.03381,0.00267528,-0.676555,-0.0685024,9.79269,-0.134947,0.0928147,0.988585,-0.00676741,-0.000693028,0.0979268,1,3.97431e-05,-9.61539e-06,1.62369e-05,0.00794863,-0.00192308,0.00324738,0.999423,0.00197595,0.03381,0.00267528,0.256015,-0.217368,-0.964583,26.9375,1,26772,2721443
29,3,0.999423,0.00197595,0.03381,0.00267528,-0.676555,-0.0685024,9.79269,-0.134947,0.0928147,0.988585,-0.00676741,-0.000693028,0.0979268,1,3.97431e-05,-9.61539e-06,1.62369e-05,0.00794863,-0.00192308,0.00324738,0.999423,0.00197595,0.03381,0.00267528,0.256015,-0.217368,-0.964583,26.9375,1,26772,2721443
29,4,0.999423,0.00197595,0.03381,0.00267528,-0.676555,-0.0685024,9.79269,-0.134947,0.0928147,0.988585,-0.00676741,-0.000693028,0.0979268,1,3.97431e-05,-9.61539e-06,1.62369e-05,0.00794863,-0.00192308,0.00324738,0.999423,0.00197595,0.03381,0.00267528,0.256015,-0.217368,-0.964583,26.9375,1,26772,2721443
30,1,0.999423,0.00201652,0.0338117,0.00268218,-0.68686,-0.0646291,9.79178,-0.145364,0.0977049,0.993948,-0.00686787,-0.000655758,0.0979178,1,4.68586e-05,3.59498e-06,2.11224e-05,0.00937171,0.000718997,0.00422447,0.999423,0.00201652,0.0338117,0.00268218,0.256992,-0.211604,-0.959914,26.9375,1,26774,2721643
30,2,0.999422,0.0020238,0.0338133,0.00268919,-0.696213,-0.0676703,9.79555,-0.156734,0.0973714,0.994002,-0.00696327,-0.00068318,0.0979554,1,3.24007e-05,-5.84317e-06,9.27958e-06,0.00648015,-0.00116863,0.00185592,0.999422,0.0020238,0.0338133,0.00268919,0.254653,-0.209705,-0.95582,26.9375,1,26775,2721743
30,3,0.999422,0.0020238,0.0338133,0.00268919,-0.696213,-0.0676703,9.79555,-0.156734,0.0973714,0.994002,-0.00696327,-0.00068318,0.0979554,1,3.24007e-05,-5.84317e-06,9.27958e-06,0.00648015,-0.00116863,0.00185592,0.999422,0.0020238,0.0338133,0.00268919,0.254653,-0.209705,-0.95582,26.9375,1,26775,2721743
30,4,0.999422,0.0020238,0.0338133,0.00268919,-0.696213,-0.0676703,9.79555,-0.156734,0.0973714,0.994002,-0.00696327,-0.00068318,0.0979554,1,3.24007e-05,-5.84317e-06,9.27958e-06,0.00648015,-0.00116863,0.00185592,0.999422,0.0020238,0.0338133,0.00268919,0.254653,-0.209705,-0.95582,26.9375,1,26775,2721743
31,1,0.999423,0.00206629,0.0337997,0.00272335,-0.690375,-0.0715016,9.79209,-0.155638,0.0845569,0.992033,-0.00690651,-0.000724774,0.0979206,1,4.90957e-05,-1.41819e-05,1.03917e-05,0.00981914,-0.00283637,0.00207834,0.999423,0.00206629,0.0337997,0.00272335,0.253708,-0.21742,-0.960533,26.9375,3,26777,2721943
31,2,0.999423,0.00207472,0.033791,0.00271949,-0.681806,-0.0798468,9.79264,-0.136348,0.0830896,0.986556,-0.0068213,-0.00080582,0.0979261,1,3.72996e-05,-1.6555e-05,3.39932e-06,0.00745991,-0.003311,0.000679864,0.999423,0.00207472,0.033791,0.00271949,0.255036,-0.21783,-0.965599,26.9375,3,26778,2722043
31,3,0.999423,0.00207566,0.0337876,0.00272271,-0.693263,-0.0559637,9.78987,-0.154006,0.100921,0.989517,-0.00693493,-0.000566059,0.0978985,1,3.14768e-05,-1.18409e-05,1.87028e-05,0.00629536,-0.00236819,0.00374056,0.999423,0.00207566,0.0337876,0.00272271,0.256452,-0.215412,-0.965047,26.9375,3,26779,2722143
31,4,0.999423,0.00207566,0.0337876,0.00272271,-0.693263,-0.0559637,9.78987,-0.154006,0.100921,0.989517,-0.00693493,-0.000566059,0.0978985,1,3.14768e-05,-1.18409e-05,1.87028e-05,0.00629536,-0.00236819,0.00374056,0.999423,0.00207566,0.0337876,0.00272271,0.256452,-0.215412,-0.965047,26.9375,3,26779,2722143
32,1,0.999423,0.00209275,0.033792,0.00272977,-0.687116,-0.0682904,9.7965,-0.14609,0.092315,0.996562,-0.00687159,-0.000687936,0.097965,1,2.46074e-05,-2.2984e-06,1.52868e-05,0.00492148,-0.00045968,0.00305736,0.999423,0.00209275,0.033792,0.00272977,0.253784,-0.211693,-0.953335,26.9375,3,26781,2722343
32,2,0.999423,0.00209275,0.033792,0.00272977,-0.687116,-0.0682904,9.7965,-0.14609,0.092315,0.996562,-0.00687159,-0.000687936,0.097965,1,2.46074e-05,-2.2984e-06,1.52868e-05,0.00492148,-0.00045968,0.00305736,0.999423,0.00209275,0.033792,0.00272977,0.253784,-0.211693,-0.953335,26.9375,3,26781,2722343
32,3,0.999423,0.00212253,0.0337967,0.00275621,-0.694695,-0.0609013,9.78508,-0.156586,0.10252,0.988623,-0.00694733,-0.000619323,0.0978507,1,5.16307e-05,-2.04315e-06,1.47967e-05,0.0103261,-0.00040863,0.00295935,0.999423,0.00212253,0.0337967,0.00275621,0.254783,-0.214619,-0.95391,26.9375,3,26782,2722443
32,4,0.999423,0.00212253,0.0337967,0.00275621,-0.694695,-0.0609013,9.78508,-0.156586,0.10252,0.988623,-0.00694733,-0.000619323,0.0978507,1,5.16307e-05,-2.04315e-06,1.47967e-05,0.0103261,-0.00040863,0.00295935,0.999423,0.00212253,0.0337967,0.00275621,0.254783,-0.214619,-0.95391,26.9375,3,26782,2722443
33,1,0.999423,0.00214414,0.0337897,0.00274808,-0.688075,-0.0671608,9.79414,-0.149256,0.0905115,0.988816,-0.00688207,-0.000678891,0.0979413,1,3.67854e-05,-6.75943e-06,5.58602e-06,0.00735708,-0.00135189,0.0011172,0.999423,0.00214414,0.0337897,0.00274808,0.256545,-0.218854,-0.963608,26.9375,3,26784,2722643
33,2,0.999423,0.00215284,0.0337922,0.00276133,-0.695271,-0.0688432,9.79112,-0.156924,0.0907792,0.986635,-0.00695379,-0.00069639,0.097911,1,3.8283e-05,-5.75329e-06,3.31663e-05,0.0076566,-0.00115066,0.00663327,0.999423,0.00215284,0.0337922,0.00276133,0.257015,-0.215958,-0.962031,26.9375,3,26785,2722743
33,3,0.999423,0.00215284,0.0337922,0.00276133,-0.695271,-0.0688432,9.79112,-0.156924,0.0907792,0.986635,-0.00695379,-0.00069639,0.097911,1,3.8283e-05,-5.75329e-06,3.31663e-05,0.0076566,-0.00115066,0.00663327,0.999423,0.00215284,0.0337922,0.00276133,0.257015,-0.215958,-0.962031,26.9375,3,26785,2722743
33,4,0.999423,0.00215284,0.0337922,0.00276133,-0.695271,-0.0688432,9.79112,-0.156924,0.0907792,0.986635,-0.00695379,-0.00069639,0.097911,1,3.8283e-05,-5.75329e-06,3.31663e-05,0.0076566,-0.00115066,0.00663327,0.999423,0.00215284,0.0337922,0.00276133,0.257015,-0.215958,-0.962031,26.9375,3,26785,2722743
34,1,0.999423,0.0021848,0.0337802,0.00277009,-0.693861,-0.0598893,9.78509,-0.159935,0.100985,0.986084,-0.00694194,-0.000607877,0.0978506,1,4.44334e-05,-1.71495e-05,2.08243e-05,0.00888668,-0.00342991,0.00416485,0.999423,0.0021848,0.0337802,0.00277009,0.253751,-0.211188,-0.954334,26.9375,3,26787,2722943
34,2,0.999423,0.0022143,0.0337766,0.00280388,-0.681887,-0.0703795,9.79035,-0.145006,0.0896843,0.985354,-0.00682092,-0.00071411,0.0979033,1,5.1748e-05,-1.05614e-05,1.34257e-05,0.0103496,-0.00211227,0.00268515,0.999423,0.0022143,0.0337766,0.00280388,0.253315,-0.214589,-0.954913,26.9375,3,26788,2723043
34,3,0.999423,0.0022143,0.0337766,0.00280388,-0.681887,-0.0703795,9.79035,-0.145006,0.0896843,0.985354,-0.00682092,-0.00071411,0.0979033,1,5.1748e-05,-1.05614e-05,1.34257e-05,0.0103496,-0.00211227,0.00268515,0.999423,0.0022143,0.0337766,0.00280388,0.253315,-0.214589,-0.954913,26.9375,3,26788,2723043
34,4,0.999423,0.0022143,0.0337766,0.00280388,-0.681887,-0.0703795,9.79035,-0.145006,0.0896843,0.985354,-0.00682092,-0.00071411,0.0979033,1,5.1748e-05,-1.05614e-05,1.34257e-05,0.0103496,-0.00211227,0.00268515,0.999423,0.0022143,0.0337766,0.00280388,0.253315,-0.214589,-0.954913,26.9375,3,26788,2723043
35,1,0.999424,0.00226443,0.0337434,0.00282592,-0.700852,-0.0640773,9.79291,-0.162765,0.0946319,0.988069,-0.00701412,-0.000651896,0.0979287,1,5.57135e-05,-2.87017e-05,1.50836e-05,0.0111427,-0.00574033,0.00301672,0.999424,0.00226443,0.0337434,0.00282592,0.256989,-0.218831,-0.965125,26.9375,3,26790,2723243
35,2,0.999424,0.00228911,0.0337346,0.00281825,-0.68598,-0.068934,9.78869,-0.148505,0.0860818,0.983024,-0.00686314,-0.000700555,0.0978866,1,5.59129e-05,-1.7153e-05,1.95728e-05,0.0111826,-0.0034306,0.00391457,0.999424,0.00228911,0.0337346,0.00281825,0.255987,-0.214938,-0.964024,26.9375,3,26791,2723343
35,3,0.999424,0.00230161,0.0337293,0.00282351,-0.675938,-0.0570109,9.78906,-0.142639,0.0955537,0.990306,-0.00676204,-0.000578471,0.0978903,1,4.17623e-05,-1.36812e-05,1.37503e-05,0.00835246,-0.00273623,0.00275005,0.999424,0.00230161,0.0337293,0.00282351,0.255573,-0.21161,-0.958897,26.9375,3,26792,2723443
35,4,0.999424,0.00230161,0.0337293,0.00282351,-0.675938,-0.0570109,9.78906,-0.142639,0.0955537,0.990306,-0.00676204,-0.000578471,0.0978903,1,4.17623e-05,-1.36812e-05,1.37503e-05,0.00835246,-0.00273623,0.00275005,0.999424,0.00230161,0.0337293,0.00282351,0.255573,-0.21161,-0.958897,26.9375,3,26792,2723443
36,1,0.999425,0.00233926,0.0337136,0.00289145,-0.696059,-0.0738976,9.78872,-0.162479,0.081309,0.989976,-0.0069651,-0.000748304,0.0978868,1,4.63873e-05,-2.31526e-05,1.76784e-05,0.00927747,-0.00463052,0.00353568,0.999425,0.00233926,0.0337136,0.00289145,0.254289,-0.214606,-0.954412,26.9375,3,26794,2723643
36,2,0.999424,0.00235333,0.0337173,0.00291025,-0.688292,-0.0507815,9.79462,-0.150884,0.0995025,0.990567,-0.0068835,-0.000515378,0.0979461,1,3.75769e-05,-3.01948e-06,1.46666e-05,0.00751538,-0.000603896,0.00293332,0.999424,0.00235333,0.0337173,0.00291025,0.255633,-0.217436,-0.960542,26.9375,3,26795,2723743
36,3,0.999424,0.00235333,0.0337173,0.00291025,-0.688292,-0.0507815,9.79462,-0.150884,0.0995025,0.990567,-0.0068835,-0.000515378,0.0979461,1,3.75769e-05,-3.01948e-06,1.46666e-05,0.00751538,-0.000603896,0.00293332,0.999424,0.00235333,0.0337173,0.00291025,0.255633,-0.217436,-0.960542,26.9375,3,26795,2723743
36,4,0.999424,0.00235333,0.0337173,0.00291025,-0.688292,-0.0507815,9.79462,-0.150884,0.0995025,0.990567,-0.0068835,-0.000515378,0.0979461,1,3.75769e-05,-3.01948e-06,1.46666e-05,0.00751538,-0.000603896,0.00293332,0.999424,0.00235333,0.0337173,0.00291025,0.255633,-0.217436,-0.960542,26.9375,3,26795,2723743
37,1,0.999425,0.00237596,0.0337136,0.00290643,-0.689066,-0.0622251,9.78877,-0.156573,0.0922727,0.987121,-0.00689408,-0.000631332,0.0978874,1,4.53722e-05,-1.75236e-05,1.43759e-05,0.00907445,-0.00350472,0.00287518,0.999425,0.00237596,0.0337136,0.00290643,0.256925,-0.214928,-0.965038,26.9375,3,26797,2723943
37,2,0.999424,0.00239595,0.0337154,0.0029131,-0.691501,-0.0636281,9.79013,-0.158982,0.0872211,0.990483,-0.00691624,-0.000646115,0.0979012,1,4.88499e-05,-6.42207e-06,1.95017e-05,0.00976998,-0.00128441,0.00390033,0.999424,0.00239595,0.0337154,0.0029131,0.255585,-0.213064,-0.959435,26.9375,3,26798,2724043
37,3,0.999424,0.00239595,0.0337154,0.0029131,-0.691501,-0.0636281,9.79013,-0.158982,0.0872211,0.990483,-0.00691624,-0.000646115,0.0979012,1,4.88499e-05,-6.42207e-06,1.95017e-05,0.00976998,-0.00128441,0.00390033,0.999424,0.00239595,0.0337154,0.0029131,0.255585,-0.213064,-0.959435,26.9375,3,26798,2724043
37,4,0.999424,0.00239595,0.0337154,0.0029131,-0.691501,-0.0636281,9.79013,-0.158982,0.0872211,0.990483,-0.00691624,-0.000646115,0.0979012,1,4.88499e-05,-6.42207e-06,1.95017e-05,0.00976998,-0.00128441,0.00390033,0.999424,0.00239595,0.0337154,0.0029131,0.255585,-0.213064,-0.959435,26.9375,3,26798,2724043
38,1,0.999424,0.00242641,0.0337335,0.0029554,-0.68618,-0.0630645,9.79077,-0.14807,0.090236,0.991565,-0.0068613,-0.000638201,0.0979077,1,3.77353e-05,2.45123e-06,1.21667e-05,0.00754707,0.000490245,0.00243335,0.999424,0.00242641,0.0337335,0.0029554,0.254253,-0.213134,-0.954885,26.9375,3,26800,2724243
38,2,0.999423,0.0024393,0.0337355,0.00298458,-0.689161,-0.0712291,9.788,-0.15414,0.0823548,0.983647,-0.00689252,-0.000719725,0.0978799,1,3.6368e-05,-4.83563e-06,2.28063e-05,0.0072736,-0.000967126,0.00456126,0.999423,0.0024393,0.0337355,0.00298458,0.254708,-0.217455,-0.959023,26.9375,3,26801,2724343
38,3,0.999424,0.00244666,0.0337284,0.00298242,-0.691764,-0.0648821,9.79385,-0.160145,0.0914248,0.988729,-0.00692043,-0.00065569,0.0979383,1,3.48036e-05,-1.42454e-05,3.74752e-06,0.00696073,-0.00284907,0.000749505,0.999424,0.00244666,0.0337284,0.00298242,0.255616,-0.219351,-0.962605,26.9375,3,26802,2724443
38,4,0.999424,0.00244666,0.0337284,0.00298242,-0.691764,-0.0648821,9.79385,-0.160145,0.0914248,0.988729,-0.00692043,-0.00065569,0.0979383,1,3.48036e-05,-1.42454e-05,3.74752e-06,0.00696073,-0.00284907,0.000749505,0.999424,0.00244666,0.0337284,0.00298242,0.255616,-0.219351,-0.962605,26.9375,3,26802,2724443
39,1,0.999423,0.00245071,0.0337401,0.00297702,-0.69175,-0.0643345,9.77756,-0.156526,0.0896903,0.974279,-0.00691639,-0.000649925,0.0977756,1,3.30825e-05,5.66408e-06,8.04843e-06,0.0066165,0.00113282,0.00160969,0.999423,0.00245071,0.0337401,0.00297702,0.255108,-0.212582,-0.958917,26.9375,3,26804,2724643
39,2,0.999423,0.00247533,0.0337361,0.00299682,-0.697852,-0.0750499,9.80127,-0.157311,0.0748374,0.999454,-0.00698068,-0.000760334,0.0980125,1,4.92594e-05,-1.11333e-05,1.27892e-05,0.00985187,-0.00222666,0.00255784,0.999423,0.00247533,0.0337361,0.00299682,0.252813,-0.212643,-0.954362,26.9375,3,26805,2724743
39,3,0.999423,0.00247533,0.0337361,0.00299682,-0.697852,-0.0750499,9.80127,-0.157311,0.0748374,0.999454,-0.00698068,-0.000760334,0.0980125,1,4.92594e-05,-1.11333e-05,1.27892e-05,0.00985187,-0.00222666,0.00255784,0.999423,0.00247533,0.0337361,0.00299682,0.252813,-0.212643,-0.954362,26.9375,3,26805,2724743
39,4,0.999423,0.00247533,0.0337361,0.00299682,-0.697852,-0.0750499,9.80127,-0.157311,0.0748374,0.999454,-0.00698068,-0.000760334,0.0980125,1,4.92594e-05,-1.11333e-05,1.27892e-05,0.00985187,-0.00222666,0.00255784,0.999423,0.00247533,0.0337361,0.00299682,0.252813,-0.212643,-0.954362,26.9375,3,26805,2724743
40,1,0.999423,0.00250156,0.0337279,0.00305729,-0.694128,-0.0644652,9.78946,-0.156456,0.0858221,0.987229,-0.00694355,-0.000652924,0.0978944,1,4.12186e-05,-1.16788e-05,1.45934e-05,0.00824373,-0.00233576,0.00291868,0.999423,0.00250156,0.0337279,0.00305729,0.255658,-0.216009,-0.95849,26.9375,3,26807,2724943
40,2,0.999423,0.00251416,0.033723,0.00306148,-0.692188,-0.0660751,9.79146,-0.158076,0.084471,0.986804,-0.00692421,-0.000668639,0.0979144,1,3.91416e-05,-1.2014e-05,1.6073e-05,0.00782832,-0.00240279,0.0032146,0.999423,0.00251416,0.033723,0.00306148,0.255575,-0.218358,-0.963593,26.9375,3,26808,2725043
40,3,0.999423,0.00251416,0.033723,0.00306148,-0.692188,-0.0660751,9.79146,-0.158076,0.084471,0.986804,-0.00692421,-0.000668639,0.0979144,1,3.91416e-05,-1.2014e-05,1.6073e-05,0.00782832,-0.00240279,0.0032146,0.999423,0.00251416,0.033723,0.00306148,0.255575,-0.218358,-0.963593,26.9375,3,26808,2725043
40,4,0.999423,0.00251416,0.033723,0.00306148,-0.692188,-0.0660751,9.79146,-0.158076,0.084471,0.986804,-0.00692421,-0.000668639,0.0979144,1,3.91416e-05,-1.2014e-05,1.6073e-05,0.00782832,-0.00240279,0.0032146,0.999423,0.00251416,0.033723,0.00306148,0.255575,-0.218358,-0.963593,26.9375,3,26808,2725043
41,1,0.999423,0.00253246,0.0337174,0.00307331,-0.685445,-0.0579132,9.79115,-0.147773,0.0915722,0.989753,-0.00685565,-0.000587081,0.0979114,1,3.88846e-05,-6.27173e-06,2.43447e-05,0.00777692,-0.00125435,0.00486894,0.999423,0.00253246,0.0337174,0.00307331,0.256057,-0.214026,-0.960468,26.9375,3,26810,2725243
41,2,0.999423,0.00254847,0.0337229,0.00307741,-0.689175,-0.0640475,9.79316,-0.158729,0.0884858,0.992033,-0.0068921,-0.000648767,0.0979315,1,4.16898e-05,-1.84007e-06,9.19024e-06,0.00833795,-0.000368015,0.00183805,0.999423,0.00254847,0.0337229,0.00307741,0.255194,-0.212645,-0.955383,26.9375,3,26811,2725343
41,3,0.999423,0.00257141,0.0337157,0.0031126,-0.695495,-0.0712231,9.79348,-0.15693,0.0798614,0.994674,-0.00695755,-0.000721278,0.0979346,1,4.43831e-05,-1.34689e-05,2.54326e-05,0.00887661,-0.00269377,0.00508652,0.999423,0.00257141,0.0337157,0.0031126,0.254794,-0.216073,-0.954447,26.9375,3,26812,2725443
41,4,0.999423,0.00257141,0.0337157,0.0031126,-0.695495,-0.0712231,9.79348,-0.15693,0.0798614,0.994674,-0.00695755,-0.000721278,0.0979346,1,4.43831e-05,-1.34689e-05,2.54326e-05,0.00887661,-0.00269377,0.00508652,0.999423,0.00257141,0.0337157,0.0031126,0.254794,-0.216073,-0.954447,26.9375,3,26812,2725443
42,1,0.999423,0.00260972,0.0337087,0.00312065,-0.695451,-0.0718845,9.78023,-0.15929,0.0769749,0.980356,-0.00695522,-0.00072687,0.0978022,1,4.0315e-05,-3.70487e-06,1.00141e-05,0.008063,-0.000740973,0.00200282,0.999423,0.00260972,0.0337087,0.00312065,0.256525,-0.218357,-0.964102,26.9375,3,26814,2725643
42,2,0.999424,0.00262251,0.033701,0.00309787,-0.689022,-0.0664963,9.79416,-0.152414,0.0809586,0.99392,-0.00689329,-0.000673392,0.0979413,1,4.29357e-05,-1.5708e-05,1.35032e-06,0.00858715,-0.00314159,0.000270064,0.999424,0.00262251,0.033701,0.00309787,0.256024,-0.214965,-0.962509,26.9375,3,26815,2725743
42,3,0.999424,0.00262251,0.033701,0.00309787,-0.689022,-0.0664963,9.79416,-0.152414,0.0809586,0.99392,-0.00689329,-0.000673392,0.0979413,1,4.29357e-05,-1.5708e-05,1.35032e-06,0.00858715,-0.00314159,0.000270064,0.999424,0.00262251,0.033701,0.00309787,0.256024,-0.214965,-0.962509,26.9375,3,26815,2725743
42,4,0.999424,0.00262251,0.033701,0.00309787,-0.689022,-0.0664963,9.79416,-0.152414,0.0809586,0.99392,-0.00689329,-0.000673392,0.0979413,1,4.29357e-05,-1.5708e-05,1.35032e-06,0.00858715,-0.00314159,0.000270064,0.999424,0.00262251,0.033701,0.00309787,0.256024,-0.214965,-0.962509,26.9375,3,26815,2725743
43,1,0.999423,0.00265831,0.0337132,0.00312383,-0.701122,-0.0666476,9.79592,-0.172331,0.0757254,0.995129,-0.00701056,-0.000674219,0.0979592,1,3.91137e-05,3.30604e-06,5.74259e-06,0.00782274,0.000661207,0.00114852,0.999423,0.00265831,0.0337132,0.00312383,0.254212,-0.210695,-0.95483,26.9375,3,26817,2725943
43,2,0.999423,0.00268387,0.0337139,0.00315513,-0.697352,-0.0636347,9.7905,-0.162528,0.0797437,0.986622,-0.00697471,-0.000645813,0.0979048,1,4.77638e-05,-6.13372e-06,8.08774e-06,0.00955275,-0.00122674,0.00161755,0.999423,0.00268387,0.0337139,0.00315513,0.252345,-0.212648,-0.953855,26.9375,3,26818,2726043
43,3,0.999423,0.00270063,0.0337101,0.00319094,-0.689581,-0.0574156,9.7793,-0.155599,0.0847297,0.975155,-0.0068979,-0.000582205,0.0977928,1,3.99854e-05,-1.08144e-05,1.65589e-05,0.00799708,-0.00216289,0.00331179,0.999423,0.00270063,0.0337101,0.00319094,0.254231,-0.216973,-0.958505,26.9375,3,26819,2726143
43,4,0.999423,0.00270063,0.0337101,0.00319094,-0.689581,-0.0574156,9.7793,-0.155599,0.0847297,0.975155,-0.0068979,-0.000582205,0.0977928,1,3.99854e-05,-1.08144e-05,1.65589e-05,0.00799708,-0.00216289,0.00331179,0.999423,0.00270063,0.0337101,0.00319094,0.254231,-0.216973,-0.958505,26.9375,3,26819,2726143
44,1,0.999423,0.00273259,0.0336964,0.00317902,-0.686953,-0.066316,9.78431,-0.153335,0.0800927,0.982805,-0.00687313,-0.000672274,0.0978428,1,4.6527e-05,-1.84029e-05,6.62752e-07,0.0093054,-0.00368058,0.00013255,0.999423,0.00273259,0.0336964,0.00317902,0.257455,-0.214968,-0.963021,26.9375,3,26821,2726343
44,2,0.999423,0.00273259,0.0336964,0.00317902,-0.686953,-0.066316,9.78431,-0.153335,0.0800927,0.982805,-0.00687313,-0.000672274,0.0978428,1,4.6527e-05,-1.84029e-05,6.62752e-07,0.0093054,-0.00368058,0.00013255,0.999423,0.00273259,0.0336964,0.00317902,0.257455,-0.214968,-0.963021,26.9375,3,26821,2726343
44,3,0.999424,0.0027417,0.0336903,0.00317029,-0.691608,-0.0633308,9.77791,-0.156607,0.0848307,0.977273,-0.00691869,-0.000640612,0.0977788,1,3.65879e-05,-1.34557e-05,1.07606e-05,0.00731758,-0.00269114,0.00215212,0.999424,0.0027417,0.0336903,0.00317029,0.257514,-0.212602,-0.958928,26.9375,3,26822,2726443
44,4,0.999424,0.0027417,0.0336903,0.00317029,-0.691608,-0.0633308,9.77791,-0.156607,0.0848307,0.977273,-0.00691869,-0.000640612,0.0977788,1,3.65879e-05,-1.34557e-05,1.07606e-05,0.00731758,-0.00269114,0.00215212,0.999424,0.0027417,0.0336903,0.00317029,0.257514,-0.212602,-0.958928,26.9375,3,26822,2726443
45,1,0.999424,0.00277111,0.0336704,0.0032077,-0.687256,-0.069536,9.79854,-0.157514,0.0712588,0.998176,-0.00687615,-0.000703597,0.097985,1,4.10938e-05,-1.84213e-05,1.34093e-05,0.00821875,-0.00368426,0.00268186,0.999424,0.00277111,0.0336704,0.0032077,0.253771,-0.21313,-0.954882,26.9375,3,26824,2726643
45,2,0.999424,0.00278961,0.0336683,0.0032294,-0.681357,-0.0585107,9.7918,-0.143389,0.0868364,0.98641,-0.00681532,-0.000593637,0.0979178,1,4.26564e-05,-9.01183e-06,1.29696e-05,0.00853128,-0.00180237,0.00259391,0.999424,0.00278961,0.0336683,0.0032294,0.254679,-0.216471,-0.959506,26.9375,3,26825,2726743
45,3,0.999424,0.00278961,0.0336683,0.0032294,-0.681357,-0.0585107,9.7918,-0.143389,0.0868364,0.98641,-0.00681532,-0.000593637,0.0979178,1,4.26564e-05,-9.01183e-06,1.29696e-05,0.00853128,-0.00180237,0.00259391,0.999424,0.00278961,0.0336683,0.0032294,0.254679,-0.216471,-0.959506,26.9375,3,26825,2726743
45,4,0.999424,0.00278961,0.0336683,0.0032294,-0.681357,-0.0585107,9.7918,-0.143389,0.0868364,0.98641,-0.00681532,-0.000593637,0.0979178,1,4.26564e-05,-9.01183e-06,1.29696e-05,0.00853128,-0.00180237,0.00259391,0.999424,0.00278961,0.0336683,0.0032294,0.254679,-0.216471,-0.959506,26.9375,3,26825,2726743
46,1,0.999424,0.00282908,0.0336587,0.00323487,-0.674941,-0.0644705,9.78253,-0.143295,0.0764736,0.980877,-0.00675185,-0.000654518,0.0978251,1,4.9075e-05,-1.25879e-05,1.57006e-05,0.00981499,-0.00251758,0.00314011,0.999424,0.00282908,0.0336587,0.00323487,0.258854,-0.214466,-0.964532,26.9375,3,26827,2726943
46,2,0.999424,0.00283953,0.0336682,0.00323499,-0.688583,-0.064747,9.78839,-0.148627,0.0794999,0.984769,-0.00688535,-0.000655006,0.0978839,1,3.70722e-05,2.3318e-06,2.02414e-05,0.00741444,0.000466361,0.00404828,0.999424,0.00283953,0.0336682,0.00323499,0.2551,-0.212094,-0.958906,26.9375,3,26828,2727043
46,3,0.999424,0.00283953,0.0336682,0.00323499,-0.688583,-0.064747,9.78839,-0.148627,0.0794999,0.984769,-0.00688535,-0.000655006,0.0978839,1,3.70722e-05,2.3318e-06,2.02414e-05,0.00741444,0.000466361,0.00404828,0.999424,0.00283953,0.0336682,0.00323499,0.2551,-0.212094,-0.958906,26.9375,3,26828,2727043
46,4,0.999424,0.00283953,0.0336682,0.00323499,-0.688583,-0.064747,9.78839,-0.148627,0.0794999,0.984769,-0.00688535,-0.000655006,0.0978839,1,3.70722e-05,2.3318e-06,2.02414e-05,0.00741444,0.000466361,0.00404828,0.999424,0.00283953,0.0336682,0.00323499,0.2551,-0.212094,-0.958906,26.9375,3,26828,2727043
47,1,0.999423,0.00288301,0.0336757,0.00328411,-0.685332,-0.0635955,9.7867,-0.15391,0.078586,0.985995,-0.00685598,-0.000644051,0.0978667,1,4.05052e-05,-1.36772e-05,1.22077e-05,0.00810104,-0.00273544,0.00244153,0.999423,0.00288301,0.0336757,0.00328411,0.253865,-0.216571,-0.953444,26.9375,3,26830,2727243
47,2,0.999423,0.00290769,0.0336723,0.00331001,-0.695187,-0.0790963,9.78967,-0.158339,0.0611539,0.985224,-0.00695376,-0.000800799,0.0978965,1,4.8464e-05,-9.8292e-06,2.49484e-05,0.00969281,-0.00196584,0.00498968,0.999423,0.00290769,0.0336723,0.00331001,0.252828,-0.2194,-0.958553,26.9375,3,26831,2727343
47,3,0.999423,0.00292917,0.0336681,0.00332654,-0.693487,-0.0647891,9.79013,-0.157888,0.0790197,0.987583,-0.00693702,-0.00065746,0.0979011,1,4.75478e-05,-1.10869e-05,1.86522e-05,0.00950955,-0.00221739,0.00373044,0.999423,0.00292917,0.0336681,0.00332654,0.256586,-0.219847,-0.96262,26.9375,3,26832,2727443
47,4,0.999423,0.00292917,0.0336681,0.00332654,-0.693487,-0.0647891,9.79013,-0.157888,0.0790197,0.987583,-0.00693702,-0.00065746,0.0979011,1,4.75478e-05,-1.10869e-05,1.86522e-05,0.00950955,-0.00221739,0.00373044,0.999423,0.00292917,0.0336681,0.00332654,0.256586,-0.219847,-0.96262,26.9375,3,26832,2727443
48,1,0.999423,0.00295264,0.0336753,0.00330146,-0.701014,-0.0678317,9.78608,-0.165329,0.0735264,0.983615,-0.00701202,-0.000686002,0.0978606,1,3.87728e-05,-9.64857e-06,6.86758e-06,0.00775456,-0.00192971,0.00137352,0.999423,0.00295264,0.0336753,0.00330146,0.255569,-0.212089,-0.959413,26.9375,3,26834,2727643
48,2,0.999423,0.00296511,0.0336642,0.00331222,-0.697117,-0.0645398,9.79899,-0.16527,0.0808041,1.00067,-0.00697468,-0.000652801,0.0979896,1,3.75344e-05,-1.79182e-05,3.31351e-06,0.00750688,-0.00358365,0.000662702,0.999423,0.00296511,0.0336642,0.00331222,0.252801,-0.212634,-0.954867,26.9375,3,26835,2727743
48,3,0.999423,0.00296511,0.0336642,0.00331222,-0.697117,-0.0645398,9.79899,-0.16527,0.0808041,1.00067,-0.00697468,-0.000652801,0.0979896,1,3.75344e-05,-1.79182e-05,3.31351e-06,0.00750688,-0.00358365,0.000662702,0.999423,0.00296511,0.0336642,0.00331222,0.252801,-0.212634,-0.954867,26.9375,3,26835,2727743
48,4,0.999423,0.00296511,0.0336642,0.00331222,-0.697117,-0.0645398,9.79899,-0.16527,0.0808041,1.00067,-0.00697468,-0.000652801,0.0979896,1,3.75344e-05,-1.79182e-05,3.31351e-06,0.00750688,-0.00358365,0.000662702,0.999423,0.00296511,0.0336642,0.00331222,0.252801,-0.212634,-0.954867,26.9375,3,26835,2727743
49,1,0.999423,0.00300274,0.033666,0.00337123,-0.708193,-0.0777598,9.77654,-0.170472,0.0616579,0.974768,-0.00708316,-0.000785566,0.0977652,1,4.00897e-05,-6.34457e-06,9.10271e-06,0.00801794,-0.00126891,0.00182054,0.999423,0.00300274,0.033666,0.00337123,0.25282,-0.218912,-0.958542,26.9375,3,26837,2727943
49,2,0.999423,0.00303923,0.0336531,0.00338089,-0.694111,-0.0659043,9.78877,-0.170284,0.0673321,0.984209,-0.00694492,-0.000671442,0.0978874,1,6.23875e-05,-1.95577e-05,1.33327e-05,0.0124775,-0.00391154,0.00266654,0.999423,0.00303923,0.0336531,0.00338089,0.256117,-0.219852,-0.962113,26.9375,3,26838,2728043
49,3,0.999423,0.00303923,0.0336531,0.00338089,-0.694111,-0.0659043,9.78877,-0.170284,0.0673321,0.984209,-0.00694492,-0.000671442,0.0978874,1,6.23875e-05,-1.95577e-05,1.33327e-05,0.0124775,-0.00391154,0.00266654,0.999423,0.00303923,0.0336531,0.00338089,0.256117,-0.219852,-0.962113,26.9375,3,26838,2728043
49,4,0.999424,0.00305854,0.0336443,0.00337457,-0.66001,-0.073765,9.80035,-0.117764,0.0636486,0.99502,-0.00660312,-0.000746857,0.0980033,1,4.58565e-05,-1.55157e-05,1.65924e-05,0.00917131,-0.00310314,0.00331847,0.999424,0.00305854,0.0336443,0.00337457,0.257015,-0.217403,-0.963073,26.9375,3,26839,2728143
50,1,0.999423,0.0030679,0.0336533,0.0033707,-0.701575,-0.0590432,9.78717,-0.159599,0.0823611,0.989647,-0.0070153,-0.000597764,0.0978717,1,3.59881e-05,2.17024e-06,2.05022e-05,0.00719762,0.000434048,0.00410043,0.999423,0.0030679,0.0336533,0.0033707,0.255071,-0.211109,-0.959389,26.9375,3,26840,2728243
50,2,0.999423,0.00308536,0.0336586,0.00338959,-0.724907,-0.0592339,9.79073,-0.190873,0.0832712,0.9909,-0.00724934,-0.000600757,0.0979072,1,4.21834e-05,-1.44363e-06,1.09112e-05,0.00843668,-0.000288726,0.00218223,0.999423,0.00308536,0.0336586,0.00338959,0.252247,-0.209685,-0.955809,26.9375,3,26841,2728343
50,3,0.999423,0.00309311,0.0336477,0.00342204,-0.668236,-0.0698068,9.79535,-0.135139,0.0655472,0.989115,-0.00668586,-0.000704293,0.0979532,1,3.12943e-05,-1.79038e-05,7.07439e-06,0.00625886,-0.00358075,0.00141488,0.999423,0.00309311,0.0336477,0.00342204,0.253812,-0.214123,-0.953894,26.9375,3,26842,2728443
50,4,0.999423,0.00309311,0.0336477,0.00342204,-0.668236,-0.0698068,9.79535,-0.135139,0.0655472,0.989115,-0.00668586,-0.000704293,0.0979532,1,3.12943e-05,-1.79038e-05,7.07439e-06,0.00625886,-0.00358075,0.00141488,0.999423,0.00309311,0.0336477,0.00342204,0.253812,-0.214123,-0.953894,26.9375,3,26842,2728443
51,1,0.999423,0.00311333,0.0336567,0.00344098,-0.709966,-0.0635301,9.78177,-0.175611,0.0725669,0.981272,-0.00710072,-0.000641667,0.0978176,1,3.1719e-05,-5.46493e-06,1.13286e-05,0.0063438,-0.00109299,0.00226571,0.999423,0.00311333,0.0336567,0.00344098,0.254592,-0.219298,-0.965124,26.9375,3,26844,2728643
51,2,0.999423,0.00313374,0.0336494,0.00343873,-0.690157,-0.0687434,9.78396,-0.15979,0.0682287,0.976386,-0.00690441,-0.000696997,0.0978393,1,4.79723e-05,-1.4592e-05,1.27556e-05,0.00959447,-0.00291841,0.00255111,0.999423,0.00313374,0.0336494,0.00343873,0.256966,-0.215922,-0.96405,26.9375,3,26845,2728743
51,3,0.999423,0.00313374,0.0336494,0.00343873,-0.690157,-0.0687434,9.78396,-0.15979,0.0682287,0.976386,-0.00690441,-0.000696997,0.0978393,1,4.79723e-05,-1.4592e-05,1.27556e-05,0.00959447,-0.00291841,0.00255111,0.999423,0.00313374,0.0336494,0.00343873,0.256966,-0.215922,-0.96405,26.9375,3,26845,2728743
51,4,0.999423,0.00313374,0.0336494,0.00343873,-0.690157,-0.0687434,9.78396,-0.15979,0.0682287,0.976386,-0.00690441,-0.000696997,0.0978393,1,4.79723e-05,-1.4592e-05,1.27556e-05,0.00959447,-0.00291841,0.00255111,0.999423,0.00313374,0.0336494,0.00343873,0.256966,-0.215922,-0.96405,26.9375,3,26845,2728743
52,1,0.999423,0.00317702,0.0336501,0.00347122,-0.699363,-0.067329,9.78574,-0.168386,0.0682181,0.988964,-0.00699461,-0.000684808,0.0978572,1,5.67214e-05,-5.20982e-06,2.98562e-05,0.0113443,-0.00104196,0.00597123,0.999423,0.00317702,0.0336501,0.00347122,0.253303,-0.213135,-0.954375,26.9375,3,26847,2728943
52,2,0.999423,0.00319642,0.0336417,0.00349725,-0.681867,-0.069474,9.79273,-0.149409,0.0642562,0.991518,-0.00682156,-0.000703213,0.097927,1,4.23808e-05,-1.48714e-05,1.26137e-05,0.00847616,-0.00297429,0.00252274,0.999423,0.00319642,0.0336417,0.00349725,0.254309,-0.216548,-0.954961,26.9375,3,26848,2729043
52,3,0.999423,0.00319642,0.0336417,0.00349725,-0.681867,-0.069474,9.79273,-0.149409,0.0642562,0.991518,-0.00682156,-0.000703213,0.097927,1,4.23808e-05,-1.48714e-05,1.26137e-05,0.00847616,-0.00297429,0.00252274,0.999423,0.00319642,0.0336417,0.00349725,0.254309,-0.216548,-0.954961,26.9375,3,26848,2729043
52,4,0.999423,0.00319642,0.0336417,0.00349725,-0.681867,-0.069474,9.79273,-0.149409,0.0642562,0.991518,-0.00682156,-0.000703213,0.097927,1,4.23808e-05,-1.48714e-05,1.26137e-05,0.00847616,-0.00297429,0.00252274,0.999423,0.00319642,0.0336417,0.00349725,0.254309,-0.216548,-0.954961,26.9375,3,26848,2729043
53,1,0.999423,0.00323803,0.0336216,0.00353416,-0.693451,-0.0674783,9.78875,-0.162438,0.0646275,0.983611,-0.00693697,-0.000683935,0.0978873,1,4.48639e-05,-1.27516e-05,2.65647e-05,0.00897278,-0.00255032,0.00531295,0.999423,0.00323803,0.0336216,0.00353416,0.256981,-0.218343,-0.965114,26.9375,3,26850,2729243
53,2,0.999423,0.00325112,0.0336217,0.00353363,-0.687874,-0.0578741,9.78845,-0.157769,0.0743125,0.988864,-0.00688007,-0.000586823,0.0978844,1,3.98494e-05,-6.88797e-06,2.04258e-05,0.00796989,-0.00137759,0.00408515,0.999423,0.00325112,0.0336217,0.00353363,0.255962,-0.216366,-0.966076,26.9375,3,26851,2729343
53,3,0.999423,0.00327542,0.0336191,0.00352827,-0.695226,-0.0711174,9.78398,-0.161471,0.0642222,0.980981,-0.00695416,-0.000721317,0.0978396,1,5.14854e-05,-9.78634e-06,4.87634e-06,0.0102971,-0.00195727,0.000975268,0.999423,0.00327542,0.0336191,0.00352827,0.256555,-0.21356,-0.95945,26.9375,3,26852,2729443
53,4,0.999423,0.00327542,0.0336191,0.00352827,-0.695226,-0.0711174,9.78398,-0.161471,0.0642222,0.980981,-0.00695416,-0.000721317,0.0978396,1,5.14854e-05,-9.78634e-06,4.87634e-06,0.0102971,-0.00195727,0.000975268,0.999423,0.00327542,0.0336191,0.00352827,0.256555,-0.21356,-0.95945,26.9375,3,26852,2729443
54,1,0.999423,0.00329914,0.0336072,0.00355559,-0.681474,-0.0653341,9.78223,-0.149191,0.0660669,0.982162,-0.00681578,-0.000661225,0.0978222,1,3.94954e-05,-5.40369e-06,1.15467e-05,0.00789909,-0.00108074,0.00230935,0.999423,0.00329914,0.0336072,0.00355559,0.254313,-0.216069,-0.954445,26.9375,3,26854,2729643
54,2,0.999424,0.00330701,0.033598,0.00357359,-0.698222,-0.0697131,9.79216,-0.165238,0.0670094,0.989915,-0.00698522,-0.000703437,0.0979213,1,3.12701e-05,-1.54264e-05,1.30628e-05,0.00625401,-0.00308529,0.00261255,0.999424,0.00330701,0.033598,0.00357359,0.254744,-0.218928,-0.958551,26.9375,3,26855,2729743
54,3,0.999424,0.00330701,0.033598,0.00357359,-0.698222,-0.0697131,9.79216,-0.165238,0.0670094,0.989915,-0.00698522,-0.000703437,0.0979213,1,3.12701e-05,-1.54264e-05,1.30628e-05,0.00625401,-0.00308529,0.00261255,0.999424,0.00330701,0.033598,0.00357359,0.254744,-0.218928,-0.958551,26.9375,3,26855,2729743
54,4,0.999424,0.00330701,0.033598,0.00357359,-0.698222,-0.0697131,9.79216,-0.165238,0.0670094,0.989915,-0.00698522,-0.000703437,0.0979213,1,3.12701e-05,-1.54264e-05,1.30628e-05,0.00625401,-0.00308529,0.00261255,0.999424,0.00330701,0.033598,0.00357359,0.254744,-0.218928,-0.958551,26.9375,3,26855,2729743
55,1,0.999424,0.00333162,0.0335909,0.00357386,-0.692836,-0.0734123,9.78937,-0.159079,0.0581471,0.98963,-0.00692945,-0.000741,0.0978936,1,3.47197e-05,-5.61048e-06,5.76484e-06,0.00694394,-0.0011221,0.00115297,0.999424,0.00333162,0.0335909,0.00357386,0.256444,-0.214924,-0.965036,26.9375,3,26857,2729943
55,2,0.999424,0.00335059,0.0335726,0.00359083,-0.692776,-0.0568031,9.7902,-0.163038,0.0743478,0.989127,-0.00693269,-0.000577211,0.0979016,1,4.5037e-05,-2.53262e-05,2.60771e-05,0.0090074,-0.00506523,0.00521542,0.999424,0.00335059,0.0335726,0.00359083,0.255577,-0.212577,-0.959424,26.9375,3,26858,2730043
55,3,0.999424,0.00335059,0.0335726,0.00359083,-0.692776,-0.0568031,9.7902,-0.163038,0.0743478,0.989127,-0.00693269,-0.000577211,0.0979016,1,4.5037e-05,-2.53262e-05,2.60771e-05,0.0090074,-0.00506523,0.00521542,0.999424,0.00335059,0.0335726,0.00359083,0.255577,-0.212577,-0.959424,26.9375,3,26858,2730043
55,4,0.999424,0.00335059,0.0335726,0.00359083,-0.692776,-0.0568031,9.7902,-0.163038,0.0743478,0.989127,-0.00693269,-0.000577211,0.0979016,1,4.5037e-05,-2.53262e-05,2.60771e-05,0.0090074,-0.00506523,0.00521542,0.999424,0.00335059,0.0335726,0.00359083,0.255577,-0.212577,-0.959424,26.9375,3,26858,2730043
56,1,0.999425,0.0033957,0.0335545,0.00364018,-0.683414,-0.0659126,9.77885,-0.156655,0.0622402,0.97746,-0.00683616,-0.000668113,0.0977883,1,4.54635e-05,-1.03711e-05,7.01102e-06,0.0090927,-0.00207421,0.0014022,0.999425,0.0033957,0.0335545,0.00364018,0.253804,-0.215081,-0.954926,26.9375,3,26860,2730243
56,2,0.999424,0.00341891,0.0335597,0.00366259,-0.686452,-0.0707965,9.79376,-0.153071,0.0571887,0.991751,-0.00686471,-0.000717361,0.0979375,1,4.67095e-05,-1.08414e-06,1.80008e-05,0.00934189,-0.000216829,0.00360016,0.999424,0.00341891,0.0335597,0.00366259,0.254732,-0.218919,-0.959056,26.9375,3,26861,2730343
56,3,0.999424,0.00343483,0.0335561,0.00367882,-0.691888,-0.0653896,9.78604,-0.165287,0.0643737,0.981853,-0.00692077,-0.000662149,0.0978602,1,4.04677e-05,-9.82753e-06,2.40914e-05,0.00809355,-0.00196551,0.00481829,0.999424,0.00343483,0.0335561,0.00367882,0.255085,-0.219311,-0.964622,26.9375,3,26862,2730443
56,4,0.999424,0.00343483,0.0335561,0.00367882,-0.691888,-0.0653896,9.78604,-0.165287,0.0643737,0.981853,-0.00692077,-0.000662149,0.0978602,1,4.04677e-05,-9.82753e-06,2.40914e-05,0.00809355,-0.00196551,0.00481829,0.999424,0.00343483,0.0335561,0.00367882,0.255085,-0.219311,-0.964622,26.9375,3,26862,2730443
57,1,0.999424,0.00347119,0.0335592,0.00369181,-0.71062,-0.0673196,9.78649,-0.184406,0.0590354,0.987825,-0.00710691,-0.000680656,0.0978648,1,3.69791e-05,-3.78135e-06,1.565e-05,0.00739581,-0.00075627,0.00312999,0.999424,0.00347119,0.0335592,0.00369181,0.256095,-0.212608,-0.957912,26.9375,3,26864,2730643
57,2,0.999424,0.00347253,0.0335507,0.0037162,-0.682992,-0.0614593,9.79077,-0.151046,0.065874,0.989851,-0.00683278,-0.00061965,0.0979075,1,2.40579e-05,-1.47746e-05,2.53151e-05,0.00481159,-0.00295492,0.00506303,0.999424,0.00347253,0.0335507,0.0037162,0.255174,-0.212148,-0.955877,26.9375,3,26865,2730743
57,3,0.999424,0.00347253,0.0335507,0.0037162,-0.682992,-0.0614593,9.79077,-0.151046,0.065874,0.989851,-0.00683278,-0.00061965,0.0979075,1,2.40579e-05,-1.47746e-05,2.53151e-05,0.00481159,-0.00295492,0.00506303,0.999424,0.00347253,0.0335507,0.0037162,0.255174,-0.212148,-0.955877,26.9375,3,26865,2730743
57,4,0.999424,0.00347253,0.0335507,0.0037162,-0.682992,-0.0614593,9.79077,-0.151046,0.065874,0.989851,-0.00683278,-0.00061965,0.0979075,1,2.40579e-05,-1.47746e-05,2.53151e-05,0.00481159,-0.00295492,0.00506303,0.999424,0.00347253,0.0335507,0.0037162,0.255174,-0.212148,-0.955877,26.9375,3,26865,2730743
58,1,0.999424,0.00350366,0.0335503,0.00377472,-0.68581,-0.0639118,9.78635,-0.155512,0.0607521,0.984552,-0.0068589,-0.000648534,0.0978634,1,4.63482e-05,-4.24306e-06,2.51606e-05,0.00926965,-0.000848612,0.00503211,0.999424,0.00350366,0.0335503,0.00377472,0.253802,-0.219417,-0.958053,26.9375,3,26867,2730943
58,2,0.999424,0.00352033,0.0335411,0.00378875,-0.683182,-0.0721672,9.79712,-0.150528,0.0573023,0.990768,-0.0068348,-0.000729989,0.097971,1,4.12091e-05,-1.53481e-05,1.77511e-05,0.00824183,-0.00306963,0.00355023,0.999424,0.00352033,0.0335411,0.00378875,0.256085,-0.219346,-0.963112,26.9375,3,26868,2731043
58,3,0.999424,0.00352033,0.0335411,0.00378875,-0.683182,-0.0721672,9.79712,-0.150528,0.0573023,0.990768,-0.0068348,-0.000729989,0.097971,1,4.12091e-05,-1.53481e-05,1.77511e-05,0.00824183,-0.00306963,0.00355023,0.999424,0.00352033,0.0335411,0.00378875,0.256085,-0.219346,-0.963112,26.9375,3,26868,2731043
58,4,0.999424,0.00352033,0.0335411,0.00378875,-0.683182,-0.0721672,9.79712,-0.150528,0.0573023,0.990768,-0.0068348,-0.000729989,0.097971,1,4.12091e-05,-1.53481e-05,1.77511e-05,0.00824183,-0.00306963,0.00355023,0.999424,0.00352033,0.0335411,0.00378875,0.256085,-0.219346,-0.963112,26.9375,3,26868,2731043
59,1,0.999423,0.0035471,0.0335546,0.00379123,-0.694558,-0.0801298,9.7883,-0.162149,0.0465669,0.983861,-0.00694521,-0.000809123,0.097883,1,3.91435e-05,1.7919e-06,1.1688e-05,0.0078287,0.000358379,0.0023376,0.999423,0.0035471,0.0335546,0.00379123,0.254614,-0.214014,-0.960461,26.9375,3,26870,2731243
59,2,0.999423,0.00357125,0.0335689,0.0038091,-0.686682,-0.0577025,9.78504,-0.149296,0.0686374,0.982003,-0.00686528,-0.0005867,0.0978505,1,4.87063e-05,7.8232e-06,1.0388e-05,0.00974126,0.00156464,0.0020776,0.999423,0.00357125,0.0335689,0.0038091,0.25424,-0.213125,-0.955389,26.9375,3,26871,2731343
59,3,0.999422,0.00359908,0.0335807,0.0038277,-0.686167,-0.0710412,9.78765,-0.155966,0.0577556,0.983823,-0.00686055,-0.000720412,0.0978765,1,5.06193e-05,5.66254e-06,6.62159e-06,0.0101239,0.00113251,0.00132432,0.999422,0.00359908,0.0335807,0.0038277,0.255276,-0.214632,-0.953407,26.9375,3,26872,2731443
59,4,0.999422,0.00359908,0.0335807,0.0038277,-0.686167,-0.0710412,9.78765,-0.155966,0.0577556,0.983823,-0.00686055,-0.000720412,0.0978765,1,5.06193e-05,5.66254e-06,6.62159e-06,0.0101239,0.00113251,0.00132432,0.999422,0.00359908,0.0335807,0.0038277,0.255276,-0.214632,-0.953407,26.9375,3,26872,2731443
60,1,0.999423,0.00363072,0.0335621,0.00384984,-0.689201,-0.0697293,9.77546,-0.159483,0.0560924,0.972113,-0.00689405,-0.000704495,0.0977544,1,3.57796e-05,-1.05349e-05,1.49553e-05,0.00715591,-0.00210699,0.00299105,0.999423,0.00363072,0.0335621,0.00384984,0.257997,-0.219353,-0.963626,26.9375,3,26874,2731643
60,2,0.999423,0.00365706,0.0335563,0.00383493,-0.69987,-0.0674913,9.79593,-0.170178,0.0548326,0.992805,-0.00700107,-0.000685321,0.097959,1,5.21579e-05,-1.21928e-05,1.35095e-05,0.0104316,-0.00243855,0.0027019,0.999423,0.00365706,0.0335563,0.00383493,0.256941,-0.215904,-0.96506,26.9375,3,26875,2731743
60,3,0.999423,0.00365706,0.0335563,0.00383493,-0.69987,-0.0674913,9.79593,-0.170178,0.0548326,0.992805,-0.00700107,-0.000685321,0.097959,1,5.21579e-05,-1.21928e-05,1.35095e-05,0.0104316,-0.00243855,0.0027019,0.999423,0.00365706,0.0335563,0.00383493,0.256941,-0.215904,-0.96506,26.9375,3,26875,2731743
60,4,0.999423,0.00365706,0.0335563,0.00383493,-0.69987,-0.0674913,9.79593,-0.170178,0.0548326,0.992805,-0.00700107,-0.000685321,0.097959,1,5.21579e-05,-1.21928e-05,1.35095e-05,0.0104316,-0.00243855,0.0027019,0.999423,0.00365706,0.0335563,0.00383493,0.256941,-0.215904,-0.96506,26.9375,3,26875,2731743
61,1,0.999423,0.00370734,0.0335303,0.00386623,-0.690983,-0.0628842,9.79421,-0.157796,0.0600691,0.994868,-0.00691464,-0.000639174,0.0979417,1,5.15914e-05,-2.46784e-05,1.63522e-05,0.0103183,-0.00493567,0.00327044,0.999423,0.00370734,0.0335303,0.00386623,0.25378,-0.212172,-0.953851,26.9375,3,26877,2731943
61,2,0.999423,0.00372566,0.033527,0.00390087,-0.696217,-0.0675441,9.79284,-0.165606,0.0519391,0.994432,-0.00696396,-0.000683676,0.0979282,1,4.07082e-05,-9.24049e-06,1.8794e-05,0.00814163,-0.0018481,0.0037588,0.999423,0.00372566,0.033527,0.00390087,0.253861,-0.215605,-0.952917,26.9375,3,26878,2732043
61,3,0.999423,0.00372566,0.033527,0.00390087,-0.696217,-0.0675441,9.79284,-0.165606,0.0519391,0.994432,-0.00696396,-0.000683676,0.0979282,1,4.07082e-05,-9.24049e-06,1.8794e-05,0.00814163,-0.0018481,0.0037588,0.999423,0.00372566,0.033527,0.00390087,0.253861,-0.215605,-0.952917,26.9375,3,26878,2732043
61,4,0.999423,0.00372566,0.033527,0.00390087,-0.696217,-0.0675441,9.79284,-0.165606,0.0519391,0.994432,-0.00696396,-0.000683676,0.0979282,1,4.07082e-05,-9.24049e-06,1.8794e-05,0.00814163,-0.0018481,0.0037588,0.999423,0.00372566,0.033527,0.00390087,0.253861,-0.215605,-0.952917,26.9375,3,26878,2732043
62,1,0.999423,0.00376258,0.0335341,0.00391617,-0.681082,-0.0717174,9.78692,-0.152638,0.0510761,0.983773,-0.00681056,-0.000727371,0.0978692,1,5.11854e-05,1.22747e-06,1.31188e-05,0.0102371,0.000245494,0.00262376,0.999423,0.00376258,0.0335341,0.00391617,0.257536,-0.221291,-0.964172,26.9375,3,26880,2732243
62,2,0.999423,0.0037755,0.0335425,0.00390114,-0.702772,-0.0723567,9.78944,-0.171602,0.0473414,0.986625,-0.00702728,-0.000731224,0.0978944,1,3.86891e-05,2.21985e-06,5.82063e-06,0.00773782,0.00044397,0.00116413,0.999423,0.0037755,0.0335425,0.00390114,0.255963,-0.21492,-0.965033,26.9375,3,26881,2732343
62,3,0.999423,0.00378559,0.0335404,0.00391575,-0.691607,-0.0565832,9.78306,-0.162298,0.0652488,0.983427,-0.00691769,-0.000572985,0.0978305,1,3.54034e-05,-8.38368e-06,1.63445e-05,0.00708068,-0.00167674,0.00326891,0.999423,0.00378559,0.0335404,0.00391575,0.255561,-0.211601,-0.959402,26.9375,3,26882,2732443
62,4,0.999423,0.00378559,0.0335404,0.00391575,-0.691607,-0.0565832,9.78306,-0.162298,0.0652488,0.983427,-0.00691769,-0.000572985,0.0978305,1,3.54034e-05,-8.38368e-06,1.63445e-05,0.00708068,-0.00167674,0.00326891,0.999423,0.00378559,0.0335404,0.00391575,0.255561,-0.211601,-0.959402,26.9375,3,26882,2732443
63,1,0.999423,0.0038278,0.0335258,0.00395248,-0.696306,-0.0630149,9.78745,-0.165936,0.0561778,0.987912,-0.00696395,-0.00063871,0.0978744,1,4.3111e-05,-4.5932e-06,8.7747e-06,0.00862219,-0.000918641,0.00175494,0.999423,0.0038278,0.0335258,0.00395248,0.254269,-0.214109,-0.954906,26.9375,3,26884,2732643
63,2,0.999423,0.00383783,0.0335086,0.00397159,-0.692319,-0.0682342,9.79316,-0.16191,0.0465345,0.989037,-0.00692771,-0.000689126,0.0979312,1,3.34829e-05,-2.31863e-05,1.63391e-05,0.00669658,-0.00463725,0.00326782,0.999423,0.00383783,0.0335086,0.00397159,0.254638,-0.216923,-0.961536,26.9375,3,26885,2732743
63,3,0.999423,0.00383783,0.0335086,0.00397159,-0.692319,-0.0682342,9.79316,-0.16191,0.0465345,0.989037,-0.00692771,-0.000689126,0.0979312,1,3.34829e-05,-2.31863e-05,1.63391e-05,0.00669658,-0.00463725,0.00326782,0.999423,0.00383783,0.0335086,0.00397159,0.254638,-0.216923,-0.961536,26.9375,3,26885,2732743
63,4,0.999423,0.00383783,0.0335086,0.00397159,-0.692319,-0.0682342,9.79316,-0.16191,0.0465345,0.989037,-0.00692771,-0.000689126,0.0979312,1,3.34829e-05,-2.31863e-05,1.63391e-05,0.00669658,-0.00463725,0.00326782,0.999423,0.00383783,0.0335086,0.00397159,0.254638,-0.216923,-0.961536,26.9375,3,26885,2732743
64,1,0.999423,0.00388537,0.0335092,0.00397565,-0.689894,-0.0705693,9.77987,-0.161392,0.0440821,0.978122,-0.00689865,-0.000716627,0.0977987,1,5.53225e-05,1.42695e-06,8.21209e-06,0.0110645,0.00028539,0.00164242,0.999423,0.00388537,0.0335092,0.00397565,0.258886,-0.216417,-0.964575,26.9375,3,26887,2732943
64,2,0.999423,0.00389911,0.0335002,0.00399766,-0.704433,-0.0638527,9.78411,-0.173006,0.0533525,0.98279,-0.00704723,-0.000646294,0.0978408,1,3.72977e-05,-1.50333e-05,3.32649e-05,0.00745954,-0.00300666,0.00665299,0.999423,0.00389911,0.0335002,0.00399766,0.258015,-0.213103,-0.958437,26.9375,3,26888,2733043
64,3,0.999423,0.00392433,0.0334873,0.00400723,-0.692438,-0.0643618,9.79217,-0.162512,0.0521568,0.994783,-0.0069281,-0.000653253,0.0979213,1,4.85778e-05,-1.90362e-05,8.73584e-06,0.00971555,-0.00380725,0.00174717,0.999423,0.00392433,0.0334873,0.00400723,0.255721,-0.211718,-0.95284,26.9375,3,26889,2733143
64,4,0.999423,0.00392433,0.0334873,0.00400723,-0.692438,-0.0643618,9.79217,-0.162512,0.0521568,0.994783,-0.0069281,-0.000653253,0.0979213,1,4.85778e-05,-1.90362e-05,8.73584e-06,0.00971555,-0.00380725,0.00174717,0.999423,0.00392433,0.0334873,0.00400723,0.255721,-0.211718,-0.95284,26.9375,3,26889,2733143
65,1,0.999423,0.0039446,0.0334882,0.00405883,-0.693546,-0.0689042,9.78738,-0.165098,0.0427395,0.984338,-0.00693692,-0.000696335,0.0978737,1,3.60105e-05,-7.57741e-06,1.75852e-05,0.0072021,-0.00151548,0.00351704,0.999423,0.0039446,0.0334882,0.00405883,0.253292,-0.219873,-0.959575,26.9375,3,26891,2733343
65,2,0.999423,0.0039446,0.0334882,0.00405883,-0.693546,-0.0689042,9.78738,-0.165098,0.0427395,0.984338,-0.00693692,-0.000696335,0.0978737,1,3.60105e-05,-7.57741e-06,1.75852e-05,0.0072021,-0.00151548,0.00351704,0.999423,0.0039446,0.0334882,0.00405883,0.253292,-0.219873,-0.959575,26.9375,3,26891,2733343
65,3,0.999423,0.00395906,0.0334876,0.00406646,-0.695028,-0.0568655,9.78749,-0.162859,0.0642261,0.985255,-0.00695155,-0.00057645,0.0978747,1,3.91118e-05,-6.56414e-06,9.92231e-06,0.00782236,-0.00131283,0.00198446,0.999423,0.00395906,0.0334876,0.00406646,0.256529,-0.219323,-0.964629,26.9375,3,26892,2733443
65,4,0.999423,0.00395906,0.0334876,0.00406646,-0.695028,-0.0568655,9.78749,-0.162859,0.0642261,0.985255,-0.00695155,-0.00057645,0.0978747,1,3.91118e-05,-6.56414e-06,9.92231e-06,0.00782236,-0.00131283,0.00198446,0.999423,0.00395906,0.0334876,0.00406646,0.256529,-0.219323,-0.964629,26.9375,3,26892,2733443
66,1,0.999423,0.00399835,0.0334924,0.0040827,-0.693939,-0.0678416,9.79485,-0.163926,0.0473227,0.993853,-0.00693994,-0.000687357,0.0979484,1,4.43756e-05,-2.93923e-06,1.78481e-05,0.00887512,-0.000587847,0.00356961,0.999423,0.00399835,0.0334924,0.0040827,0.256527,-0.212576,-0.959933,26.9375,3,26894,2733643
66,2,0.999423,0.00402054,0.0334817,0.00410667,-0.687982,-0.0735634,9.78765,-0.162802,0.0386901,0.990747,-0.00688309,-0.000744812,0.0978762,1,4.52493e-05,-1.68644e-05,2.32867e-05,0.00904985,-0.00337288,0.00465735,0.999423,0.00402054,0.0334817,0.00410667,0.255223,-0.213629,-0.9549,26.9375,3,26895,2733743
66,3,0.999423,0.00402054,0.0334817,0.00410667,-0.687982,-0.0735634,9.78765,-0.162802,0.0386901,0.990747,-0.00688309,-0.000744812,0.0978762,1,4.52493e-05,-1.68644e-05,2.32867e-05,0.00904985,-0.00337288,0.00465735,0.999423,0.00402054,0.0334817,0.00410667,0.255223,-0.213629,-0.9549,26.9375,3,26895,2733743
66,4,0.999423,0.00401993,0.0334844,0.00413039,-0.698888,-0.0762619,9.79177,-0.168462,0.0367267,0.990868,-0.00698946,-0.000767251,0.0979176,1,2.22755e-05,-3.10511e-06,1.9282e-05,0.00445509,-0.000621022,0.00385639,0.999423,0.00401993,0.0334844,0.00413039,0.255284,-0.216565,-0.954461,26.9375,3,26896,2733843
67,1,0.999422,0.00403425,0.0334851,0.00414,-0.700412,-0.0645156,9.78949,-0.167749,0.0503974,0.986949,-0.00700511,-0.000652685,0.0978948,1,3.77614e-05,-5.1149e-06,9.69506e-06,0.00755228,-0.00102298,0.00193901,0.999422,0.00403425,0.0334851,0.00414,0.256151,-0.217467,-0.95903,26.9375,3,26897,2733943
67,2,0.999423,0.00406433,0.0334781,0.00413974,-0.690154,-0.0639179,9.7857,-0.161506,0.0498344,0.98218,-0.0069041,-0.000649905,0.0978567,1,5.44022e-05,-1.31113e-05,5.66612e-06,0.0108804,-0.00262225,0.00113322,0.999423,0.00406433,0.0334781,0.00413974,0.255583,-0.218846,-0.963604,26.9375,3,26898,2734043
67,3,0.999423,0.00407807,0.0334741,0.00413732,-0.690787,-0.0661521,9.79722,-0.163218,0.0499346,0.996207,-0.00690987,-0.000669169,0.0979721,1,3.87375e-05,-1.02443e-05,4.17801e-06,0.00774749,-0.00204887,0.000835603,0.999423,0.00407807,0.0334741,0.00413732,0.256028,-0.215932,-0.963036,26.9375,3,26899,2734143
67,4,0.999423,0.00407807,0.0334741,0.00413732,-0.690787,-0.0661521,9.79722,-0.163218,0.0499346,0.996207,-0.00690987,-0.000669169,0.0979721,1,3.87375e-05,-1.02443e-05,4.17801e-06,0.00774749,-0.00204887,0.000835603,0.999423,0.00407807,0.0334741,0.00413732,0.256028,-0.215932,-0.963036,26.9375,3,26899,2734143
68,1,0.999423,0.00410784,0.0334562,0.00415974,-0.682633,-0.0606236,9.78738,-0.154829,0.0574051,0.984352,-0.00682967,-0.000613239,0.0978735,1,3.55953e-05,-1.7082e-05,2.58335e-06,0.00711906,-0.0034164,0.00051667,0.999423,0.00410784,0.0334562,0.00415974,0.252324,-0.212151,-0.954349,26.9375,3,26901,2734343
68,2,0.999423,0.00410784,0.0334562,0.00415974,-0.682633,-0.0606236,9.78738,-0.154829,0.0574051,0.984352,-0.00682967,-0.000613239,0.0978735,1,3.55953e-05,-1.7082e-05,2.58335e-06,0.00711906,-0.0034164,0.00051667,0.999423,0.00410784,0.0334562,0.00415974,0.252324,-0.212151,-0.954349,26.9375,3,26901,2734343
68,3,0.999423,0.00413127,0.0334594,0.0041945,-0.676312,-0.0627664,9.78324,-0.151076,0.0469603,0.982068,-0.00676361,-0.000637005,0.0978323,1,4.62887e-05,-2.62608e-06,2.09994e-05,0.00925773,-0.000525217,0.00419987,0.999423,0.00413127,0.0334594,0.0041945,0.254285,-0.215085,-0.954928,26.9375,3,26902,2734443
68,4,0.999423,0.00413127,0.0334594,0.0041945,-0.676312,-0.0627664,9.78324,-0.151076,0.0469603,0.982068,-0.00676361,-0.000637005,0.0978323,1,4.62887e-05,-2.62608e-06,2.09994e-05,0.00925773,-0.000525217,0.00419987,0.999423,0.00413127,0.0334594,0.0041945,0.254285,-0.215085,-0.954928,26.9375,3,26902,2734443
69,1,0.999423,0.0041552,0.0334526,0.0042156,-0.691468,-0.0727072,9.78971,-0.157649,0.0376303,0.982422,-0.00691661,-0.000732718,0.0978969,1,2.82432e-05,-9.92068e-06,8.4546e-06,0.00564865,-0.00198414,0.00169092,0.999423,0.0041552,0.0334526,0.0042156,0.25699,-0.217385,-0.964083,26.9375,3,26904,2734643
69,2,0.999423,0.00417104,0.0334379,0.00421085,-0.690642,-0.0790746,9.78524,-0.162162,0.0285083,0.986417,-0.00691044,-0.000798762,0.0978521,1,4.02965e-05,-2.06232e-05,9.41189e-06,0.00805929,-0.00412465,0.00188238,0.999423,0.00417104,0.0334379,0.00421085,0.256937,-0.214937,-0.964533,26.9375,3,26905,2734743
69,3,0.999423,0.00417104,0.0334379,0.00421085,-0.690642,-0.0790746,9.78524,-0.162162,0.0285083,0.986417,-0.00691044,-0.000798762,0.0978521,1,4.02965e-05,-2.06232e-05,9.41189e-06,0.00805929,-0.00412465,0.00188238,0.999423,0.00417104,0.0334379,0.00421085,0.256937,-0.214937,-0.964533,26.9375,3,26905,2734743
69,4,0.999423,0.00417104,0.0334379,0.00421085,-0.690642,-0.0790746,9.78524,-0.162162,0.0285083,0.986417,-0.00691044,-0.000798762,0.0978521,1,4.02965e-05,-2.06232e-05,9.41189e-06,0.00805929,-0.00412465,0.00188238,0.999423,0.00417104,0.0334379,0.00421085,0.256937,-0.214937,-0.964533,26.9375,3,26905,2734743
70,1,0.999423,0.00421817,0.0334412,0.00424093,-0.538055,-0.0888101,9.71451,-0.00859849,0.0280397,0.9277,-0.00537429,-0.000896837,0.0971454,1,4.39451e-05,3.20577e-05,1.83781e-05,0.00878902,0.00641155,0.00367561,0.999423,0.00421817,0.0334412,0.00424093,0.255664,-0.211195,-0.954848,26.9375,3,26907,2734943
70,2,0.99942,0.00424031,0.0335152,0.00428085,-0.639067,-0.160873,9.82657,-0.0990253,-0.0559165,1.02241,-0.00637699,-0.00161795,0.0982665,1,4.46614e-05,6.90672e-05,3.47406e-05,0.00893228,0.0138134,0.00694812,0.99942,0.00424031,0.0335152,0.00428085,0.254766,-0.213643,-0.953888,26.9375,3,26908,2735043
70,3,0.99942,0.00424031,0.0335152,0.00428085,-0.639067,-0.160873,9.82657,-0.0990253,-0.0559165,1.02241,-0.00637699,-0.00161795,0.0982665,1,4.46614e-05,6.90672e-05,3.47406e-05,0.00893228,0.0138134,0.00694812,0.99942,0.00424031,0.0335152,0.00428085,0.254766,-0.213643,-0.953888,26.9375,3,26908,2735043
70,4,0.99942,0.00424031,0.0335152,0.00428085,-0.639067,-0.160873,9.82657,-0.0990253,-0.0559165,1.02241,-0.00637699,-0.00161795,0.0982665,1,4.46614e-05,6.90672e-05,3.47406e-05,0.00893228,0.0138134,0.00694812,0.99942,0.00424031,0.0335152,0.00428085,0.254766,-0.213643,-0.953888,26.9375,3,26908,2735043
71,1,0.999421,0.00448083,0.0334598,0.00427997,-1.01158,0.239774,9.90238,-0.566043,0.275088,1.14558,-0.0101575,0.00234905,0.0990207,1,0.000247307,-0.000210961,-1.40888e-05,0.0494613,-0.0421923,-0.00281775,0.999421,0.00448083,0.0334598,0.00427997,0.257532,-0.220325,-0.963646,26.9375,3,26910,2735243
71,2,0.99943,0.0042458,0.0332272,0.00429045,-0.218959,0.227858,9.72959,0.219416,0.422892,0.962071,-0.00223613,0.00231986,0.0972938,1,-0.00021244,-0.00023883,1.54041e-05,-0.042488,-0.047766,0.00308083,0.99943,0.0042458,0.0332272,0.00429045,0.256472,-0.215909,-0.964553,26.9375,3,26911,2735343
71,3,0.999424,0.00421483,0.0333998,0.00431952,-0.0865129,-0.5369,9.73892,0.510241,-0.408356,0.863266,-0.000832331,-0.00536755,0.0973896,1,-7.7029e-06,0.00016664,3.17467e-05,-0.00154058,0.0333281,0.00634934,0.999424,0.00421483,0.0333998,0.00431952,0.25459,-0.212551,-0.960429,26.9375,3,26912,2735443
71,4,0.999424,0.00421483,0.0333998,0.00431952,-0.0865129,-0.5369,9.73892,0.510241,-0.408356,0.863266,-0.000832331,-0.00536755,0.0973896,1,-7.7029e-06,0.00016664,3.17467e-05,-0.00154058,0.0333281,0.00634934,0.999424,0.00421483,0.0333998,0.00431952,0.25459,-0.212551,-0.960429,26.9375,3,26912,2735443
72,1,0.999417,0.0043728,0.0335838,0.00438729,-1.00161,-0.164005,9.80486,-0.416132,-0.047302,1.04351,-0.00999942,-0.00163684,0.0980504,1,-1.97088e-05,8.44827e-05,3.27344e-05,-0.00394177,0.0168965,0.00654687,0.999417,0.0043728,0.0335838,0.00438729,0.253318,-0.215555,-0.955439,26.9375,3,26914,2735643
72,2,0.999419,0.00447589,0.0335016,0.00436506,-0.86113,-0.0487818,9.89776,-0.395975,0.0319959,1.13139,-0.00862879,-0.00051276,0.0989759,1,0.000127736,-8.82498e-05,-1.99233e-05,0.0255471,-0.01765,-0.00398465,0.999419,0.00447589,0.0335016,0.00436506,0.25474,-0.219407,-0.959067,26.9375,3,26915,2735743
72,3,0.999419,0.00447589,0.0335016,0.00436506,-0.86113,-0.0487818,9.89776,-0.395975,0.0319959,1.13139,-0.00862879,-0.00051276,0.0989759,1,0.000127736,-8.82498e-05,-1.99233e-05,0.0255471,-0.01765,-0.00398465,0.999419,0.00447589,0.0335016,0.00436506,0.25474,-0.219407,-0.959067,26.9375,3,26915,2735743
72,4,0.999423,0.00449001,0.0333788,0.00436781,-0.397162,0.0652401,9.76689,0.0791473,0.164879,0.938282,-0.00399677,0.00064492,0.097668,1,3.79396e-05,-0.00012871,8.82979e-06,0.00758792,-0.025742,0.00176596,0.999423,0.00449001,0.0333788,0.00436781,0.256528,-0.220769,-0.965671,26.9375,3,26916,2735843
73,1,0.999415,0.00451241,0.0336282,0.00440806,-0.446667,0.384196,8.7797,0.292524,0.401591,0.565109,-0.00442416,0.0038333,0.0877995,1,4.65609e-05,0.000244434,5.42172e-05,0.00931218,0.0488869,0.0108434,0.999415,0.00451241,0.0336282,0.00440806,0.256978,-0.217376,-0.964588,26.9375,3,26917,2735943
73,2,0.999417,0.00440205,0.0335734,0.00442647,-1.14279,-0.135789,10.5247,-0.342766,-0.241098,2.14398,-0.0114402,-0.00133991,0.105246,1,-8.79381e-05,-5.89961e-05,2.30688e-05,-0.0175876,-0.0117992,0.00461377,0.999417,0.00440205,0.0335734,0.00442647,0.256058,-0.212581,-0.959426,26.9375,3,26918,2736043
73,3,0.999417,0.00440205,0.0335734,0.00442647,-1.14279,-0.135789,10.5247,-0.342766,-0.241098,2.14398,-0.0114402,-0.00133991,0.105246,1,-8.79381e-05,-5.89961e-05,2.30688e-05,-0.0175876,-0.0117992,0.00461377,0.999417,0.00440205,0.0335734,0.00442647,0.256058,-0.212581,-0.959426,26.9375,3,26918,2736043
73,4,0.999417,0.00440205,0.0335734,0.00442647,-1.14279,-0.135789,10.5247,-0.342766,-0.241098,2.14398,-0.0114402,-0.00133991,0.105246,1,-8.79381e-05,-5.89961e-05,2.30688e-05,-0.0175876,-0.0117992,0.00461377,0.999417,0.00440205,0.0335734,0.00442647,0.256058,-0.212581,-0.959426,26.9375,3,26918,2736043
74,1,0.999422,0.00447961,0.0333837,0.00447761,-0.39344,-0.138661,9.50798,-0.0243709,-0.0631347,0.834752,-0.00396349,-0.00139384,0.0950785,1,3.67902e-05,-0.000153409,2.92858e-05,0.00735804,-0.0306817,0.00585716,0.999422,0.00447961,0.0333837,0.00447761,0.254786,-0.215585,-0.954436,26.9375,3,26920,2736243
74,2,0.999431,0.00441774,0.0331342,0.00451833,0.116045,-0.350165,9.51929,0.471499,-0.284411,0.873315,0.00111215,-0.00349384,0.0951937,1,-4.05684e-05,-0.00025512,3.85841e-05,-0.00811368,-0.051024,0.00771682,0.999431,0.00441774,0.0331342,0.00451833,0.254715,-0.219388,-0.960076,26.9375,3,26921,2736343
74,3,0.999419,0.00463946,0.033475,0.00450482,-0.135457,-0.0903756,10.0461,0.509034,-0.0168985,1.19884,-0.00128709,-0.000953685,0.100461,1,0.000248522,0.000335849,-1.78356e-06,0.0497044,0.0671698,-0.000356712,0.999419,0.00463946,0.033475,0.00450482,0.256528,-0.220769,-0.965671,26.9375,3,26922,2736443
74,4,0.999419,0.00463946,0.033475,0.00450482,-0.135457,-0.0903756,10.0461,0.509034,-0.0168985,1.19884,-0.00128709,-0.000953685,0.100461,1,0.000248522,0.000335849,-1.78356e-06,0.0497044,0.0671698,-0.000356712,0.999419,0.00463946,0.033475,0.00450482,0.256528,-0.220769,-0.965671,26.9375,3,26922,2736443
75,1,0.999413,0.00464223,0.0336455,0.00446518,-1.1624,0.269,9.38777,-0.519956,0.433918,0.67507,-0.0116048,0.00270327,0.0938797,1,-7.04672e-05,0.00010236,-1.38106e-06,-0.0140935,0.020472,-0.000276211,0.999413,0.00464223,0.0336455,0.00446518,0.255075,-0.213521,-0.960958,26.9375,3,26924,2736643
75,2,0.999418,0.00456408,0.0335,0.00448496,-0.968851,-0.193541,9.92009,-0.492487,-0.052669,1.18718,-0.00971825,-0.00192444,0.0991982,1,-5.66138e-05,-0.00015014,1.32428e-05,-0.0113228,-0.030028,0.00264855,0.999418,0.00456408,0.0335,0.00448496,0.255178,-0.213115,-0.956404,26.9375,3,26925,2736743
75,3,0.999418,0.00456408,0.0335,0.00448496,-0.968851,-0.193541,9.92009,-0.492487,-0.052669,1.18718,-0.00971825,-0.00192444,0.0991982,1,-5.66138e-05,-0.00015014,1.32428e-05,-0.0113228,-0.030028,0.00264855,0.999418,0.00456408,0.0335,0.00448496,0.255178,-0.213115,-0.956404,26.9375,3,26925,2736743
75,4,0.999418,0.00456408,0.0335,0.00448496,-0.968851,-0.193541,9.92009,-0.492487,-0.052669,1.18718,-0.00971825,-0.00192444,0.0991982,1,-5.66138e-05,-0.00015014,1.32428e-05,-0.0113228,-0.030028,0.00264855,0.999418,0.00456408,0.0335,0.00448496,0.255178,-0.213115,-0.956404,26.9375,3,26925,2736743
76,1,0.999416,0.00453331,0.0335504,0.00455686,-0.185157,-0.223082,9.54805,0.422434,-0.0590137,0.626588,-0.00177034,-0.00223002,0.0954821,1,-4.88967e-06,0.000424494,3.76841e-05,-0.000977935,0.0848987,0.00753682,0.999416,0.00453331,0.0335504,0.00455686,0.253733,-0.218884,-0.960566,26.9375,3,26927,2736943
76,2,0.999412,0.00461564,0.0336699,0.0045732,-1.25647,-0.135103,9.93935,-0.760069,-0.0762323,1.18406,-0.0125415,-0.00137275,0.0993961,1,0.000106536,0.000116467,2.17105e-05,0.0213071,0.0232934,0.00434209,0.999412,0.00461564,0.0336699,0.0045732,0.256964,-0.220258,-0.967177,26.9375,3,26928,2737043
76,3,0.999416,0.00470972,0.0335483,0.00454661,-0.926532,0.142929,9.76061,-0.414305,0.20901,0.966254,-0.00928989,0.00140627,0.0976041,1,0.000118857,-0.000126022,-9.56721e-06,0.0237714,-0.0252044,-0.00191344,0.999416,0.00470972,0.0335483,0.00454661,0.257397,-0.217335,-0.967114,26.9375,3,26929,2737143
76,4,0.999416,0.00470972,0.0335483,0.00454661,-0.926532,0.142929,9.76061,-0.414305,0.20901,0.966254,-0.00928989,0.00140627,0.0976041,1,0.000118857,-0.000126022,-9.56721e-06,0.0237714,-0.0252044,-0.00191344,0.999416,0.00470972,0.0335483,0.00454661,0.257397,-0.217335,-0.967114,26.9375,3,26929,2737143
77,1,0.999416,0.00456462,0.0335645,0.00453399,-1.13386,-0.130612,9.57378,-0.624504,0.0406196,0.833985,-0.0113515,-0.00129151,0.0957365,1,-7.59929e-05,-6.75855e-05,-2.68684e-06,-0.0151986,-0.0135171,-0.000537368,0.999416,0.00456462,0.0335645,0.00453399,0.255207,-0.212654,-0.954878,26.9375,3,26931,2737343
77,2,0.999416,0.00456462,0.0335645,0.00453399,-1.13386,-0.130612,9.57378,-0.624504,0.0406196,0.833985,-0.0113515,-0.00129151,0.0957365,1,-7.59929e-05,-6.75855e-05,-2.68684e-06,-0.0151986,-0.0135171,-0.000537368,0.999416,0.00456462,0.0335645,0.00453399,0.255207,-0.212654,-0.954878,26.9375,3,26931,2737343
77,3,0.999423,0.00452224,0.033349,0.00455223,-0.313518,-0.590827,9.92644,0.136233,-0.492719,1.0697,-0.00317893,-0.00590406,0.0992633,1,-2.16073e-05,-0.000221119,1.27065e-05,-0.00432147,-0.0442238,0.00254129,0.999423,0.00452224,0.033349,0.00455223,0.253808,-0.216047,-0.955452,26.9375,3,26932,2737443
77,4,0.999423,0.00452224,0.033349,0.00455223,-0.313518,-0.590827,9.92644,0.136233,-0.492719,1.0697,-0.00317893,-0.00590406,0.0992633,1,-2.16073e-05,-0.000221119,1.27065e-05,-0.00432147,-0.0442238,0.00254129,0.999423,0.00452224,0.033349,0.00455223,0.253808,-0.216047,-0.955452,26.9375,3,26932,2737443
78,1,0.99941,0.00462806,0.0337189,0.00459426,-0.552973,-0.341337,9.65192,0.100651,-0.229656,0.782451,-0.00544718,-0.00341496,0.0965239,1,6.63677e-06,0.000426634,2.84279e-05,0.00132735,0.0853267,0.00568558,0.99941,0.00462806,0.0337189,0.00459426,0.25608,-0.219825,-0.963628,26.9375,3,26934,2737643
78,2,0.999407,0.00482667,0.0337807,0.00459952,-1.46806,0.111711,9.72089,-0.953684,0.149616,0.956375,-0.0146693,0.00107306,0.0972111,1,0.000223521,5.81798e-05,2.03236e-05,0.0447042,0.011636,0.00406472,0.999407,0.00482667,0.0337807,0.00459952,0.25743,-0.216396,-0.965073,26.9375,3,26935,2737743
78,3,0.999407,0.00482667,0.0337807,0.00459952,-1.46806,0.111711,9.72089,-0.953684,0.149616,0.956375,-0.0146693,0.00107306,0.0972111,1,0.000223521,5.81798e-05,2.03236e-05,0.0447042,0.011636,0.00406472,0.999407,0.00482667,0.0337807,0.00459952,0.25743,-0.216396,-0.965073,26.9375,3,26935,2737743
78,4,0.999414,0.00483027,0.0335859,0.00458696,-0.970353,0.200534,9.92382,-0.515833,0.313383,1.11407,-0.00974311,0.00199992,0.0992344,1,2.75868e-05,-0.0001995,-2.58591e-06,0.00551736,-0.0399001,-0.000517182,0.999414,0.00483027,0.0335859,0.00458696,0.257036,-0.213564,-0.959453,26.9375,3,26936,2737843
79,1,0.999417,0.0048821,0.033486,0.0045593,-0.221401,0.209617,9.85787,0.287938,0.315186,1.0583,-0.00223469,0.00208141,0.0985785,1,7.53913e-05,-0.000105387,-2.28827e-05,0.0150783,-0.0210773,-0.00457654,0.999417,0.0048821,0.033486,0.0045593,0.255712,-0.214121,-0.954913,26.9375,3,26937,2737943
79,2,0.999418,0.00470901,0.0334784,0.00456617,-0.137952,-0.139893,9.69141,0.380541,0.0122134,0.889987,-0.00138166,-0.00136971,0.0969144,1,-0.00015072,-1.09842e-05,-2.77156e-06,-0.030144,-0.00219683,-0.000554312,0.999418,0.00470901,0.0334784,0.00456617,0.254794,-0.217519,-0.95549,26.9375,3,26938,2738043
79,3,0.999413,0.004854,0.0336117,0.00455115,-0.331496,-0.276366,9.6501,0.18606,-0.179053,0.807118,-0.00329,-0.0027962,0.0965009,1,0.000169037,0.000129692,-1.32795e-05,0.0338074,0.0259385,-0.0026559,0.999413,0.004854,0.0336117,0.00455115,0.253239,-0.218871,-0.961068,26.9375,3,26939,2738143
79,4,0.999413,0.004854,0.0336117,0.00455115,-0.331496,-0.276366,9.6501,0.18606,-0.179053,0.807118,-0.00329,-0.0027962,0.0965009,1,0.000169037,0.000129692,-1.32795e-05,0.0338074,0.0259385,-0.0026559,0.999413,0.004854,0.0336117,0.00455115,0.253239,-0.218871,-0.961068,26.9375,3,26939,2738143
80,1,0.999408,0.00492972,0.0337386,0.00451232,-0.782885,-0.0801064,9.86279,-0.165716,-0.0254316,1.157,-0.00780296,-0.000826038,0.0986298,1,0.000127706,0.000131369,-1.38831e-05,0.0255412,0.0262739,-0.00277662,0.999408,0.00492972,0.0337386,0.00451232,0.257932,-0.216896,-0.964581,26.9375,3,26941,2738343
80,2,0.999408,0.00492972,0.0337386,0.00451232,-0.782885,-0.0801064,9.86279,-0.165716,-0.0254316,1.157,-0.00780296,-0.000826038,0.0986298,1,0.000127706,0.000131369,-1.38831e-05,0.0255412,0.0262739,-0.00277662,0.999408,0.00492972,0.0337386,0.00451232,0.257932,-0.216896,-0.964581,26.9375,3,26941,2738343
80,3,0.999408,0.00496067,0.0337486,0.00449159,-0.991633,0.0744714,9.72551,-0.478867,0.167754,0.965963,-0.00991476,0.000734104,0.0972553,1,5.53409e-05,8.00532e-06,-7.74076e-06,0.0110682,0.00160107,-0.00154815,0.999408,0.00496067,0.0337486,0.00449159,0.257089,-0.214567,-0.95796,26.9375,3,26942,2738443
80,4,0.999408,0.00496067,0.0337486,0.00449159,-0.991633,0.0744714,9.72551,-0.478867,0.167754,0.965963,-0.00991476,0.000734104,0.0972553,1,5.53409e-05,8.00532e-06,-7.74076e-06,0.0110682,0.00160107,-0.00154815,0.999408,0.00496067,0.0337486,0.00449159,0.257089,-0.214567,-0.95796,26.9375,3,26942,2738443
81,1,0.999416,0.00487437,0.0335142,0.00444481,0.177024,-0.277886,9.84592,0.751014,-0.146888,0.97012,0.00178277,-0.00276763,0.0984593,1,-5.75909e-05,6.45214e-05,-3.23872e-05,-0.0115182,0.0129043,-0.00647745,0.999416,0.00487437,0.0335142,0.00444481,0.255683,-0.214582,-0.956438,26.9375,3,26944,2738643
81,2,0.999408,0.00505717,0.0337324,0.0044093,-0.466623,-0.336,9.88706,0.120455,-0.267692,1.05606,-0.00462346,-0.00340096,0.0988712,1,0.000208568,0.000217344,-3.11758e-05,0.0417135,0.0434687,-0.00623516,0.999408,0.00505717,0.0337324,0.0044093,0.25611,-0.217919,-0.96106,26.9375,3,26945,2738743
81,3,0.999408,0.00505717,0.0337324,0.0044093,-0.466623,-0.336,9.88706,0.120455,-0.267692,1.05606,-0.00462346,-0.00340096,0.0988712,1,0.000208568,0.000217344,-3.11758e-05,0.0417135,0.0434687,-0.00623516,0.999408,0.00505717,0.0337324,0.0044093,0.25611,-0.217919,-0.96106,26.9375,3,26945,2738743
81,4,0.999408,0.00505717,0.0337324,0.0044093,-0.466623,-0.336,9.88706,0.120455,-0.267692,1.05606,-0.00462346,-0.00340096,0.0988712,1,0.000208568,0.000217344,-3.11758e-05,0.0417135,0.0434687,-0.00623516,0.999408,0.00505717,0.0337324,0.0044093,0.25611,-0.217919,-0.96106,26.9375,3,26945,2738743
82,1,0.999409,0.00518905,0.0337103,0.0043619,-0.500862,-0.0768875,9.8685,0.0112952,0.00359062,1.03591,-0.00501133,-0.000778434,0.0986848,1,4.9615e-05,-1.35473e-05,-2.32702e-05,0.00992299,-0.00270946,-0.00465404,0.999409,0.00518905,0.0337103,0.0043619,0.25692,-0.216852,-0.966596,26.9375,3,26947,2738943
82,2,0.999412,0.00534399,0.0336055,0.00429115,-0.231269,0.259901,9.92693,0.296428,0.301394,1.12408,-0.00233325,0.00256324,0.0992697,1,0.000181509,-0.000105071,-5.83818e-05,0.0363019,-0.0210143,-0.0116764,0.999412,0.00534399,0.0336055,0.00429115,0.257509,-0.214526,-0.960486,26.9375,3,26948,2739043
82,3,0.999412,0.00534399,0.0336055,0.00429115,-0.231269,0.259901,9.92693,0.296428,0.301394,1.12408,-0.00233325,0.00256324,0.0992697,1,0.000181509,-0.000105071,-5.83818e-05,0.0363019,-0.0210143,-0.0116764,0.999412,0.00534399,0.0336055,0.00429115,0.257509,-0.214526,-0.960486,26.9375,3,26948,2739043
82,4,0.999412,0.00534399,0.0336055,0.00429115,-0.231269,0.259901,9.92693,0.296428,0.301394,1.12408,-0.00233325,0.00256324,0.0992697,1,0.000181509,-0.000105071,-5.83818e-05,0.0363019,-0.0210143,-0.0116764,0.999412,0.00534399,0.0336055,0.00429115,0.257509,-0.214526,-0.960486,26.9375,3,26948,2739043
83,1,0.999412,0.00527204,0.0336288,0.00419226,-0.23048,0.0109396,9.81889,0.287089,0.122819,0.985135,-0.00230221,0.000106901,0.098189,1,1.39491e-05,1.31276e-05,-5.30547e-05,0.00278983,0.00262552,-0.0106109,0.999412,0.00527204,0.0336288,0.00419226,0.256682,-0.214617,-0.954929,26.9375,3,26950,2739243
83,2,0.999418,0.00512219,0.0334744,0.00419301,0.165345,-0.347378,9.91324,0.653042,-0.19736,1.06196,0.00162356,-0.0034484,0.0991338,1,-0.000128053,-0.000150693,-1.62124e-06,-0.0256107,-0.0301387,-0.000324248,0.999418,0.00512219,0.0334744,0.00419301,0.258035,-0.21649,-0.960027,26.9375,3,26951,2739343
83,3,0.999415,0.0051783,0.0335588,0.00419763,0.328446,-0.640013,9.80966,0.90529,-0.563193,0.962512,0.00330214,-0.00641564,0.098095,1,7.94836e-05,8.92257e-05,1.37084e-05,0.0158967,0.0178451,0.00274167,0.999415,0.0051783,0.0335588,0.00419763,0.259844,-0.216903,-0.965095,26.9375,3,26952,2739443
83,4,0.999415,0.0051783,0.0335588,0.00419763,0.328446,-0.640013,9.80966,0.90529,-0.563193,0.962512,0.00330214,-0.00641564,0.098095,1,7.94836e-05,8.92257e-05,1.37084e-05,0.0158967,0.0178451,0.00274167,0.999415,0.0051783,0.0335588,0.00419763,0.259844,-0.216903,-0.965095,26.9375,3,26952,2739443
84,1,0.999404,0.00536518,0.0338401,0.00421803,-0.758672,-0.133418,9.82535,-0.251382,-0.0179404,1.01222,-0.00758993,-0.00132996,0.0982533,1,-2.47813e-05,-1.69265e-05,4.30319e-05,-0.00495627,-0.0033853,0.00860637,0.999404,0.00536518,0.0338401,0.00421803,0.259425,-0.214054,-0.960485,26.9375,3,26954,2739643
84,2,0.99941,0.005569,0.033627,0.00422079,-0.232368,0.0224663,9.97352,0.217022,0.0447283,1.11242,-0.002365,0.000179315,0.0997343,1,0.000226971,-0.000207106,1.57096e-05,0.0453941,-0.0414212,0.00314193,0.99941,0.005569,0.033627,0.00422079,0.257123,-0.213627,-0.955919,26.9375,3,26955,2739743
84,3,0.99941,0.005569,0.033627,0.00422079,-0.232368,0.0224663,9.97352,0.217022,0.0447283,1.11242,-0.002365,0.000179315,0.0997343,1,0.000226971,-0.000207106,1.57096e-05,0.0453941,-0.0414212,0.00314193,0.99941,0.005569,0.033627,0.00422079,0.257123,-0.213627,-0.955919,26.9375,3,26955,2739743
84,4,0.999413,0.00559984,0.0335359,0.0042297,0.263268,0.411732,10.0077,0.789082,0.431535,1.08217,0.00261582,0.00410653,0.100078,1,5.42368e-05,-8.36625e-05,1.30209e-05,0.0108474,-0.0167325,0.00260418,0.999413,0.00559984,0.0335359,0.0042297,0.255727,-0.217987,-0.957019,26.9375,3,26956,2739843
85,1,0.999408,0.00555469,0.0336892,0.00423887,-0.0388512,0.607157,9.58673,0.586083,0.767116,0.774855,-0.000357361,0.00607562,0.0958672,1,-2.11605e-05,0.000162976,7.97485e-06,-0.0042321,0.0325952,0.00159497,0.999408,0.00555469,0.0336892,0.00423887,0.255151,-0.220323,-0.962624,26.9375,3,26957,2739943
85,2,0.999408,0.00532534,0.0337229,0.00432873,-0.249527,-0.716259,9.83936,0.227896,-0.573716,0.940624,-0.00248509,-0.00712178,0.0983968,1,-0.00020949,4.55851e-05,8.47869e-05,-0.041898,0.00911703,0.0169574,0.999408,0.00532534,0.0337229,0.00432873,0.257947,-0.219317,-0.965645,26.9375,3,26958,2740043
85,3,0.999411,0.00575089,0.0335454,0.00436429,0.0631973,0.0820569,9.84369,0.587894,0.0815713,1.06531,0.000598817,0.000732685,0.0984378,1,0.000446771,-0.00016794,6.0035e-05,0.0893542,-0.0335879,0.012007,0.999411,0.00575089,0.0335454,0.00436429,0.261748,-0.216423,-0.965599,26.9375,3,26959,2740143
85,4,0.999411,0.00575089,0.0335454,0.00436429,0.0631973,0.0820569,9.84369,0.587894,0.0815713,1.06531,0.000598817,0.000732685,0.0984378,1,0.000446771,-0.00016794,6.0035e-05,0.0893542,-0.0335879,0.012007,0.999411,0.00575089,0.0335454,0.00436429,0.261748,-0.216423,-0.965599,26.9375,3,26959,2740143
86,1,0.999417,0.00552984,0.0333661,0.00466985,0.28678,-0.461119,9.97129,0.792254,-0.4732,1.20412,0.0027957,-0.00464189,0.0997135,1,0.000158063,-0.000368274,0.000145047,0.0316127,-0.0736549,0.0290093,0.999417,0.00552984,0.0333661,0.00466985,0.255651,-0.212631,-0.956395,26.9375,3,26961,2740343
86,2,0.999417,0.00552984,0.0333661,0.00466985,0.28678,-0.461119,9.97129,0.792254,-0.4732,1.20412,0.0027957,-0.00464189,0.0997135,1,0.000158063,-0.000368274,0.000145047,0.0316127,-0.0736549,0.0290093,0.999417,0.00552984,0.0333661,0.00466985,0.255651,-0.212631,-0.956395,26.9375,3,26961,2740343
86,3,0.999412,0.00535546,0.0335173,0.00483229,0.535384,-0.0909675,9.37454,1.07947,0.0708706,0.481533,0.00538546,-0.000878816,0.0937439,1,-0.000155408,0.000167078,0.000160327,-0.0310817,0.0334156,0.0320654,0.999412,0.00535546,0.0335173,0.00483229,0.255654,-0.215043,-0.957964,26.9375,3,26962,2740443
86,4,0.999412,0.00535546,0.0335173,0.00483229,0.535384,-0.0909675,9.37454,1.07947,0.0708706,0.481533,0.00538546,-0.000878816,0.0937439,1,-0.000155408,0.000167078,0.000160327,-0.0310817,0.0334156,0.0320654,0.999412,0.00535546,0.0335173,0.00483229,0.255654,-0.215043,-0.957964,26.9375,3,26962,2740443
87,1,0.999412,0.00559698,0.0334433,0.00505134,-0.172283,0.38418,9.85333,0.350844,0.467539,1.10039,-0.00177137,0.00383504,0.0985328,1,3.22405e-05,-0.000241752,0.000116622,0.00644811,-0.0483504,0.0233245,0.999412,0.00559698,0.0334433,0.00505134,0.258399,-0.221227,-0.968215,26.9375,3,26964,2740643
87,2,0.999405,0.00566582,0.0336163,0.00516875,-0.129764,0.184043,9.84508,0.438095,0.252977,0.994287,-0.00126049,0.00182249,0.0984516,1,8.945e-05,0.000191082,0.000127816,0.01789,0.0382164,0.0255633,0.999405,0.00566582,0.0336163,0.00516875,0.256912,-0.21781,-0.967627,26.9375,3,26965,2740743
87,3,0.999405,0.00566582,0.0336163,0.00516875,-0.129764,0.184043,9.84508,0.438095,0.252977,0.994287,-0.00126049,0.00182249,0.0984516,1,8.945e-05,0.000191082,0.000127816,0.01789,0.0382164,0.0255633,0.999405,0.00566582,0.0336163,0.00516875,0.256912,-0.21781,-0.967627,26.9375,3,26965,2740743
87,4,0.999405,0.00566582,0.0336163,0.00516875,-0.129764,0.184043,9.84508,0.438095,0.252977,0.994287,-0.00126049,0.00182249,0.0984516,1,8.945e-05,0.000191082,0.000127816,0.01789,0.0382164,0.0255633,0.999405,0.00566582,0.0336163,0.00516875,0.256912,-0.21781,-0.967627,26.9375,3,26965,2740743
88,1,0.999419,0.00530425,0.0332243,0.00543461,0.30327,-0.616945,9.74504,0.77618,-0.496933,0.868579,0.00298876,-0.00612459,0.0974546,1,-0.000225791,-0.000234365,0.000141638,-0.0451581,-0.0468731,0.0283276,0.999419,0.00530425,0.0332243,0.00543461,0.253648,-0.213039,-0.95993,26.9375,3,26967,2740943
88,2,0.999415,0.00554204,0.0332811,0.00556267,0.489304,-0.19078,9.77134,1.04583,-0.160238,0.906845,0.00490849,-0.00195656,0.0977116,1,0.000256759,7.6212e-05,0.000144402,0.0513517,0.0152424,0.0288805,0.999415,0.00554204,0.0332811,0.00556267,0.254202,-0.217433,-0.96003,26.9375,3,26968,2741043
88,3,0.999415,0.00554204,0.0332811,0.00556267,0.489304,-0.19078,9.77134,1.04583,-0.160238,0.906845,0.00490849,-0.00195656,0.0977116,1,0.000256759,7.6212e-05,0.000144402,0.0513517,0.0152424,0.0288805,0.999415,0.00554204,0.0332811,0.00556267,0.254202,-0.217433,-0.96003,26.9375,3,26968,2741043
88,4,0.999415,0.00554204,0.0332811,0.00556267,0.489304,-0.19078,9.77134,1.04583,-0.160238,0.906845,0.00490849,-0.00195656,0.0977116,1,0.000256759,7.6212e-05,0.000144402,0.0513517,0.0152424,0.0288805,0.999415,0.00554204,0.0332811,0.00556267,0.254202,-0.217433,-0.96003,26.9375,3,26968,2741043
89,1,0.999408,0.00558836,0.03343,0.00594434,-0.353929,0.023135,9.80247,0.18303,0.0705149,0.906756,-0.00352558,0.000202596,0.0980253,1,0.000139559,7.03582e-05,0.0001972,0.0279118,0.0140716,0.03944,0.999408,0.00558836,0.03343,0.00594434,0.256894,-0.22117,-0.970732,26.9375,3,26970,2741243
89,2,0.999412,0.00547243,0.0332964,0.00613226,-0.318772,0.179103,9.91911,0.22234,0.295955,1.16963,-0.00320999,0.00180956,0.0991901,1,-9.97161e-05,-0.000108682,0.000195482,-0.0199432,-0.0217364,0.0390964,0.999412,0.00547243,0.0332964,0.00613226,0.256377,-0.218249,-0.97016,26.9375,3,26971,2741343
89,3,0.999416,0.00540935,0.0331517,0.00630239,-0.115004,-0.147963,9.85918,0.445394,-0.0588915,1.12305,-0.00117315,-0.00147076,0.0985917,1,-4.71006e-05,-0.000119929,0.000181368,-0.00942012,-0.0239858,0.0362735,0.999416,0.00540935,0.0331517,0.00630239,0.253606,-0.214936,-0.963003,26.9375,3,26972,2741443
89,4,0.999416,0.00540935,0.0331517,0.00630239,-0.115004,-0.147963,9.85918,0.445394,-0.0588915,1.12305,-0.00117315,-0.00147076,0.0985917,1,-4.71006e-05,-0.000119929,0.000181368,-0.00942012,-0.0239858,0.0362735,0.999416,0.00540935,0.0331517,0.00630239,0.253606,-0.214936,-0.963003,26.9375,3,26972,2741443
90,1,0.999422,0.00538,0.0329086,0.00663025,0.39459,-0.111403,9.8112,0.886993,-0.020856,0.956133,0.00391625,-0.00110315,0.0981133,1,-4.8276e-05,-0.000153103,0.000178396,-0.0096552,-0.0306206,0.0356793,0.999422,0.00538,0.0329086,0.00663025,0.252795,-0.217448,-0.958509,26.9375,3,26974,2741643
90,2,0.999418,0.00541527,0.0329924,0.00679708,0.229451,-0.127108,9.77729,0.743549,-0.0257233,0.828023,0.00231662,-0.00128064,0.0977722,1,5.30812e-05,0.000110773,0.00017801,0.0106162,0.0221546,0.035602,0.999418,0.00541527,0.0329924,0.00679708,0.251755,-0.21931,-0.963091,26.9375,3,26975,2741743
90,3,0.999418,0.00541527,0.0329924,0.00679708,0.229451,-0.127108,9.77729,0.743549,-0.0257233,0.828023,0.00231662,-0.00128064,0.0977722,1,5.30812e-05,0.000110773,0.00017801,0.0106162,0.0221546,0.035602,0.999418,0.00541527,0.0329924,0.00679708,0.251755,-0.21931,-0.963091,26.9375,3,26975,2741743
90,4,0.999418,0.00541527,0.0329924,0.00679708,0.229451,-0.127108,9.77729,0.743549,-0.0257233,0.828023,0.00231662,-0.00128064,0.0977722,1,5.30812e-05,0.000110773,0.00017801,0.0106162,0.0221546,0.035602,0.999418,0.00541527,0.0329924,0.00679708,0.251755,-0.21931,-0.963091,26.9375,3,26975,2741743
91,1,0.999422,0.00543243,0.0327976,0.00716423,-0.0445449,0.00740223,9.78746,0.365507,0.10459,0.905669,-0.000486348,7.88199e-05,0.0978744,1,-2.55177e-05,-0.000208771,0.000211898,-0.00510353,-0.0417543,0.0423796,0.999422,0.00543243,0.0327976,0.00716423,0.253988,-0.216314,-0.968086,26.9375,3,26977,2741943
91,2,0.999424,0.00539595,0.0326816,0.00737405,0.309474,-0.144711,9.83597,0.78588,-0.0376145,0.957519,0.00307848,-0.00144144,0.0983603,1,-2.16917e-05,-8.59988e-05,0.000227048,-0.00433835,-0.0171998,0.0454095,0.999424,0.00539595,0.0326816,0.00737405,0.252563,-0.211496,-0.963931,26.9375,3,26978,2742043
91,3,0.999424,0.00539595,0.0326816,0.00737405,0.309474,-0.144711,9.83597,0.78588,-0.0376145,0.957519,0.00307848,-0.00144144,0.0983603,1,-2.16917e-05,-8.59988e-05,0.000227048,-0.00433835,-0.0171998,0.0454095,0.999424,0.00539595,0.0326816,0.00737405,0.252563,-0.211496,-0.963931,26.9375,3,26978,2742043
91,4,0.999424,0.00539595,0.0326816,0.00737405,0.309474,-0.144711,9.83597,0.78588,-0.0376145,0.957519,0.00307848,-0.00144144,0.0983603,1,-2.16917e-05,-8.59988e-05,0.000227048,-0.00433835,-0.0171998,0.0454095,0.999424,0.00539595,0.0326816,0.00737405,0.252563,-0.211496,-0.963931,26.9375,3,26978,2742043
92,1,0.999426,0.00535521,0.0325204,0.00781188,0.219189,0.00143729,9.91589,0.699823,0.109402,1.0758,0.00216637,2.97662e-05,0.0991595,1,-7.21335e-05,-0.000128646,0.000249611,-0.0144267,-0.0257291,0.0499221,0.999426,0.00535521,0.0325204,0.00781188,0.252299,-0.215024,-0.957443,26.9375,3,26980,2742243
92,2,0.999424,0.00530133,0.0325506,0.00805773,0.256763,-0.308591,9.86956,0.790882,-0.190627,0.963211,0.00258174,-0.0030769,0.0986955,1,-3.89405e-05,6.34943e-05,0.000256352,-0.0077881,0.0126989,0.0512704,0.999424,0.00530133,0.0325506,0.00805773,0.251701,-0.218308,-0.964584,26.9375,3,26981,2742343
92,3,0.99942,0.00545159,0.0325856,0.00828958,-0.0427976,-0.240842,9.95974,0.435033,-0.196335,1.03561,-0.000413277,-0.00244175,0.0995966,1,0.00016628,6.78062e-05,0.000245819,0.033256,0.0135612,0.0491639,0.99942,0.00545159,0.0325856,0.00828958,0.254016,-0.218743,-0.968645,26.9375,3,26982,2742443
92,4,0.99942,0.00545159,0.0325856,0.00828958,-0.0427976,-0.240842,9.95974,0.435033,-0.196335,1.03561,-0.000413277,-0.00244175,0.0995966,1,0.00016628,6.78062e-05,0.000245819,0.033256,0.0135612,0.0491639,0.99942,0.00545159,0.0325856,0.00828958,0.254016,-0.218743,-0.968645,26.9375,3,26982,2742443
93,1,0.99942,0.00536008,0.0324478,0.00880158,0.21678,-0.266274,9.484,0.795938,-0.147875,0.722048,0.00220163,-0.00265521,0.0948395,1,-3.32804e-05,0.00017053,0.000277997,-0.00665608,0.034106,0.0555994,0.99942,0.00536008,0.0324478,0.00880158,0.252632,-0.214919,-0.963503,26.9375,3,26984,2742643
93,2,0.999426,0.00543995,0.0321252,0.00931275,0.214802,0.0999138,10.1011,0.729191,0.213543,1.23481,0.00208636,0.00102057,0.101012,1,-0.000100232,-0.000302427,0.000278734,-0.0200463,-0.0604854,0.0557468,0.999426,0.00543995,0.0321252,0.00931275,0.249847,-0.218825,-0.962062,26.9375,3,26986,2742843
93,3,0.999418,0.00554707,0.0322632,0.00955657,0.299399,-0.0231842,9.85581,0.818763,0.0378606,0.955405,0.00302859,-0.000254719,0.098557,1,0.000123912,0.000174943,0.000257035,0.0247825,0.0349886,0.0514069,0.999418,0.00554707,0.0322632,0.00955657,0.248761,-0.220172,-0.968147,26.9375,3,26987,2742943
93,4,0.999421,0.00558071,0.0321154,0.00979891,0.103547,0.344586,9.94748,0.553143,0.43174,1.16357,0.00101201,0.00343685,0.0994754,1,4.78702e-05,-0.00010912,0.000254525,0.00957405,-0.021824,0.050905,0.999421,0.00558071,0.0321154,0.00979891,0.247716,-0.219622,-0.971161,26.9375,3,26988,2743043
94,1,0.999425,0.00533919,0.0319252,0.0100551,0.535644,-0.109622,9.91587,1.00196,0.0372614,1.02274,0.00532762,-0.00104798,0.0991608,1,-0.000228945,-0.000148147,0.000264529,-0.0457889,-0.0296294,0.0529058,0.999425,0.00533919,0.0319252,0.0100551,0.248157,-0.217187,-0.971108,26.9375,3,26989,2743143
94,2,0.999416,0.00538933,0.0320566,0.0105171,-0.0782577,0.191266,9.88636,0.419524,0.351596,0.996384,-0.000775154,0.00194663,0.098863,1,-0.000173961,4.28671e-05,0.000272967,-0.0347921,0.00857342,0.0545933,0.999416,0.00538933,0.0320566,0.0105171,0.245469,-0.214417,-0.960933,26.9375,3,26991,2743343
94,3,0.999416,0.00538933,0.0320566,0.0105171,-0.0782577,0.191266,9.88636,0.419524,0.351596,0.996384,-0.000775154,0.00194663,0.098863,1,-0.000173961,4.28671e-05,0.000272967,-0.0347921,0.00857342,0.0545933,0.999416,0.00538933,0.0320566,0.0105171,0.245469,-0.214417,-0.960933,26.9375,3,26991,2743343
94,4,0.999418,0.0052511,0.0319124,0.010815,0.023719,-0.490951,9.7436,0.533335,-0.373199,1.01711,0.00022074,-0.0048845,0.0974373,1,-0.000127643,-0.000100042,0.000310915,-0.0255286,-0.0200084,0.062183,0.999418,0.0052511,0.0319124,0.010815,0.24453,-0.217317,-0.962003,26.9375,3,26992,2743443
95,1,0.999416,0.0052911,0.0318731,0.0111223,0.189597,-0.630479,9.70844,0.675497,-0.55523,0.769804,0.00190074,-0.00631371,0.0970837,1,5.22842e-05,3.46688e-06,0.000324243,0.0104568,0.000693376,0.0648485,0.999416,0.0052911,0.0318731,0.0111223,0.244924,-0.220149,-0.967624,26.9375,3,26993,2743543
95,2,0.999414,0.00553393,0.0316513,0.0118178,0.401798,0.0509379,9.76747,0.901321,0.0716524,0.903123,0.00402153,0.000476752,0.0976747,1,0.000182356,2.00737e-05,0.000372775,0.0364712,0.00401475,0.0745549,0.999414,0.00553393,0.0316513,0.0118178,0.246204,-0.216186,-0.971582,26.9375,3,26995,2743743
95,3,0.999414,0.00553393,0.0316513,0.0118178,0.401798,0.0509379,9.76747,0.901321,0.0716524,0.903123,0.00402153,0.000476752,0.0976747,1,0.000182356,2.00737e-05,0.000372775,0.0364712,0.00401475,0.0745549,0.999414,0.00553393,0.0316513,0.0118178,0.246204,-0.216186,-0.971582,26.9375,3,26995,2743743
95,4,0.999414,0.00553393,0.0316513,0.0118178,0.401798,0.0509379,9.76747,0.901321,0.0716524,0.903123,0.00402153,0.000476752,0.0976747,1,0.000182356,2.00737e-05,0.000372775,0.0364712,0.00401475,0.0745549,0.999414,0.00553393,0.0316513,0.0118178,0.246204,-0.216186,-0.971582,26.9375,3,26995,2743743
96,1,0.99941,0.00535014,0.0315166,0.0125415,-0.192762,-0.0332012,10.0403,0.298371,0.110172,1.28037,-0.00196406,-0.00029028,0.100402,1,-0.000215287,-0.000182672,0.000385123,-0.0430573,-0.0365344,0.0770245,0.99941,0.00535014,0.0315166,0.0125415,0.244029,-0.216817,-0.962495,26.9375,3,26997,2743943
96,2,0.99941,0.00548063,0.0313533,0.0128834,0.310251,0.0229876,10.0088,0.740164,0.0527482,1.08792,0.00307866,0.000204103,0.100089,1,0.00014003,-0.000118362,0.000365238,0.0280059,-0.0236724,0.0730475,0.99941,0.00548063,0.0313533,0.0128834,0.243547,-0.219703,-0.964577,26.9375,3,26998,2744043
96,3,0.99941,0.00548063,0.0313533,0.0128834,0.310251,0.0229876,10.0088,0.740164,0.0527482,1.08792,0.00307866,0.000204103,0.100089,1,0.00014003,-0.000118362,0.000365238,0.0280059,-0.0236724,0.0730475,0.99941,0.00548063,0.0313533,0.0128834,0.243547,-0.219703,-0.964577,26.9375,3,26998,2744043
96,4,0.99941,0.00548063,0.0313533,0.0128834,0.310251,0.0229876,10.0088,0.740164,0.0527482,1.08792,0.00307866,0.000204103,0.100089,1,0.00014003,-0.000118362,0.000365238,0.0280059,-0.0236724,0.0730475,0.99941,0.00548063,0.0313533,0.0128834,0.243547,-0.219703,-0.964577,26.9375,3,26998,2744043
97,1,0.999403,0.00533369,0.031282,0.0136316,0.152697,-0.741079,9.51066,0.662387,-0.65833,0.672344,0.0015253,-0.00742564,0.0951054,1,8.41774e-05,-3.82983e-05,0.000378583,0.0168355,-0.00765965,0.0757167,0.999403,0.00533369,0.031282,0.0136316,0.244796,-0.220537,-0.973188,26.9375,3,27000,2744243
97,2,0.9994,0.00551054,0.0310366,0.0143469,0.205995,0.570827,10.1634,0.687066,0.746857,1.2631,0.0020365,0.0057541,0.101632,1,-0.0002173,-9.25295e-05,0.000404372,-0.04346,-0.0185059,0.0808744,0.9994,0.00551054,0.0310366,0.0143469,0.242499,-0.215296,-0.96498,26.9375,3,27002,2744443
97,3,0.999387,0.00556819,0.0310856,0.0151041,-0.264733,-0.223763,9.51919,0.211465,-0.218418,0.741228,-0.00262903,-0.00229129,0.0951912,1,0.00027112,8.69358e-05,0.000386523,0.054224,0.0173872,0.0773046,0.999387,0.00556819,0.0310856,0.0151041,0.239265,-0.221148,-0.96358,26.9375,3,27004,2744643
97,4,0.999389,0.00560454,0.0308462,0.0154878,0.0770682,0.393107,9.35752,0.473144,0.464028,0.459214,0.000732081,0.00392353,0.0935758,1,4.35284e-05,-0.000189273,0.000404583,0.00870569,-0.0378547,0.0809165,0.999389,0.00560454,0.0308462,0.0154878,0.239175,-0.221564,-0.967629,26.9375,3,27005,2744743
98,1,0.999392,0.00521105,0.0305675,0.0159465,0.373663,-0.148611,10.2482,0.865222,0.064666,1.3617,0.00369262,-0.00140275,0.102485,1,-0.000389764,-0.000221267,0.000467752,-0.0779529,-0.0442534,0.0935504,0.999392,0.00521105,0.0305675,0.0159465,0.240507,-0.22294,-0.973221,26.9375,3,27006,2744843
98,2,0.999368,0.00567215,0.030814,0.0168086,-0.441089,-0.0287642,9.72865,0.0974272,-0.0765221,0.955452,-0.00434955,-0.00039995,0.0972889,1,0.000556961,0.000313687,0.000449362,0.111392,0.0627375,0.0898725,0.999368,0.00567215,0.030814,0.0168086,0.240973,-0.216188,-0.969033,26.9375,3,27008,2745043
98,3,0.999368,0.00567215,0.030814,0.0168086,-0.441089,-0.0287642,9.72865,0.0974272,-0.0765221,0.955452,-0.00434955,-0.00039995,0.0972889,1,0.000556961,0.000313687,0.000449362,0.111392,0.0627375,0.0898725,0.999368,0.00567215,0.030814,0.0168086,0.240973,-0.216188,-0.969033,26.9375,3,27008,2745043
98,4,0.999368,0.00567215,0.030814,0.0168086,-0.441089,-0.0287642,9.72865,0.0974272,-0.0765221,0.955452,-0.00434955,-0.00039995,0.0972889,1,0.000556961,0.000313687,0.000449362,0.111392,0.0627375,0.0898725,0.999368,0.00567215,0.030814,0.0168086,0.240973,-0.216188,-0.969033,26.9375,3,27008,2745043
99,1,0.999375,0.00563979,0.0300742,0.0176924,0.360561,0.314811,10.051,0.695278,0.376399,1.2367,0.0034941,0.00314998,0.100514,1,6.75039e-06,-0.000540442,0.000455244,0.00135008,-0.108088,0.0910487,0.999375,0.00563979,0.0300742,0.0176924,0.236322,-0.219155,-0.964532,26.9375,3,27010,2745243
99,2,0.999373,0.00540336,0.0299221,0.0181262,0.964731,0.146362,10.1556,1.50027,0.307349,1.2362,0.00962654,0.00151893,0.101557,1,-0.00022986,-9.56851e-05,0.000447211,-0.0459719,-0.019137,0.0894423,0.999373,0.00540336,0.0299221,0.0181262,0.235737,-0.222449,-0.971168,26.9375,3,27011,2745343
99,3,0.99935,0.00538414,0.0304176,0.0185605,-0.239489,-0.244543,9.58048,0.385626,-0.0873989,0.835038,-0.00228733,-0.00244731,0.0958075,1,-1.22868e-06,0.000549853,0.000451079,-0.000245735,0.109971,0.0902159,0.99935,0.00538414,0.0304176,0.0185605,0.237138,-0.224357,-0.974247,26.9375,3,27012,2745443
99,4,0.99935,0.00538414,0.0304176,0.0185605,-0.239489,-0.244543,9.58048,0.385626,-0.0873989,0.835038,-0.00228733,-0.00244731,0.0958075,1,-1.22868e-06,0.000549853,0.000451079,-0.000245735,0.109971,0.0902159,0.99935,0.00538414,0.0304176,0.0185605,0.237138,-0.224357,-0.974247,26.9375,3,27012,2745443
100,1,0.999353,0.00583758,0.0297312,0.0193943,0.0252788,0.349747,10.4179,0.317509,0.332939,1.59711,0.000121623,0.00339552,0.104183,0.999999,0.000490049,-0.000615899,0.000411245,0.0980098,-0.12318,0.0822491,0.999353,0.00583758,0.0297312,0.0193943,0.23716,-0.220518,-0.970627,26.9375,3,27014,2745643
