frame_id,imu_idx,quat_w,quat_x,quat_y,quat_z,accel_x,accel_y,accel_z,free_accel_x,free_accel_y,free_accel_z,delta_v_x,delta_v_y,delta_v_z,delta_q_w,delta_q_x,delta_q_y,delta_q_z,rate_x,rate_y,rate_z,quat_w,quat_x,quat_y,quat_z,mag_x,mag_y,mag_z,temperature,status_byte,packet_counter,time_fine
1,1,0.998455,0.00429394,0.0554027,0.000245685,-0.962928,0.097248,9.75612,0.601832,0.0109954,0.783752,-0.00963637,0.000962303,0.0975606,1,5.08632e-05,-3.6206e-05,1.31189e-05,0.0101726,-0.00724121,0.00262378,0.998455,0.00429394,0.0554027,0.000245685,-0.29485,-0.0122612,-0.879197,29.9375,1,38813,3903141
1,2,0.998457,0.00432919,0.0553636,0.00024194,-0.910747,0.0845964,9.77499,0.663907,-0.0022017,0.809279,-0.00911392,0.000839015,0.0977494,1,3.57796e-05,-3.30321e-05,-2.51447e-06,0.00715592,-0.00660643,-0.000502895,0.998457,0.00432919,0.0553636,0.00024194,-0.294851,-0.0151517,-0.881281,29.9375,1,38814,3903241
1,3,0.998458,0.00442275,0.0553426,0.000258327,-0.912688,0.0703997,9.76501,0.660997,-0.0203134,0.790511,-0.00912716,0.000695152,0.0976502,1,4.4344e-05,-1.37654e-06,1.0103e-05,0.0088688,-0.000275307,0.00202061,0.998458,0.00442275,0.0553426,0.000258327,-0.294362,-0.0156435,-0.881294,29.9375,1,38816,3903441
1,4,0.998461,0.00449881,0.0552766,0.000280648,-0.927901,0.0653358,9.77528,0.636116,-0.0235151,0.804039,-0.00928551,0.000646124,0.0977522,1,3.55394e-05,-3.31158e-05,1.53817e-05,0.00710788,-0.00662316,0.00307635,0.998461,0.00449881,0.0552766,0.000280648,-0.293815,-0.0166591,-0.879299,29.9375,1,38818,3903641
2,1,0.998461,0.00462165,0.0552562,0.000296199,-0.841241,0.0766038,9.76697,0.722221,-0.00822054,0.783367,-0.00841349,0.000754002,0.0976697,1,6.02399e-05,-5.41287e-06,1.59627e-05,0.012048,-0.00108257,0.00319253,0.998461,0.00462165,0.0552562,0.000296199,-0.296779,-0.0141692,-0.880745,29.9375,1,38820,3903841
2,2,0.998461,0.00471831,0.0552481,0.000337449,-0.826258,0.077998,9.76993,0.742348,-0.0184152,0.787562,-0.008264,0.000770161,0.0976993,1,4.77415e-05,-7.02202e-06,2.96198e-05,0.0095483,-0.0014044,0.00592396,0.998461,0.00471831,0.0552481,0.000337449,-0.294427,-0.0146319,-0.883292,29.9375,1,38822,3904041
2,3,0.998462,0.00476654,0.0552401,0.000349734,-0.850524,0.0951053,9.77499,0.719413,-0.00908918,0.795825,-0.00850648,0.000941501,0.0977499,1,4.75516e-05,-6.22074e-06,1.50091e-05,0.00951032,-0.00124415,0.00300182,0.998462,0.00476654,0.0552401,0.000349734,-0.295361,-0.0141632,-0.881762,29.9375,1,38823,3904141
2,4,0.998462,0.0048553,0.0552261,0.000376273,-0.852473,0.0673089,9.78526,0.716117,-0.0275187,0.810983,-0.00852366,0.000664453,0.0978528,1,4.29264e-05,5.58796e-06,1.38082e-05,0.00858528,0.00111759,0.00276163,0.998462,0.0048553,0.0552261,0.000376273,-0.29432,-0.0137465,-0.878222,29.9375,1,38825,3904341
3,1,0.998461,0.00497551,0.0552371,0.000403147,-0.945703,0.101076,9.75701,0.621255,0.00715827,0.770754,-0.00945489,0.00100022,0.0975704,1,5.22101e-05,1.11423e-05,1.85796e-05,0.010442,0.00222847,0.00371593,0.998461,0.00497551,0.0552371,0.000403147,-0.294868,-0.0156215,-0.882302,29.9375,1,38827,3904541
3,2,0.998461,0.00507451,0.0552187,0.000427731,-0.993779,0.0551431,9.7556,0.57459,-0.0473778,0.794746,-0.00993941,0.000541951,0.0975559,1,4.63857e-05,-8.15614e-06,2.16045e-05,0.00927713,-0.00163123,0.0043209,0.998461,0.00507451,0.0552187,0.000427731,-0.294847,-0.0161182,-0.881808,29.9375,1,38829,3904741
3,3,0.998464,0.00516787,0.0551677,0.000451663,-0.81959,0.0650174,9.77962,0.751808,-0.0289511,0.796107,-0.00819999,0.000639891,0.0977959,1,5.11183e-05,-2.07945e-05,1.73436e-05,0.0102237,-0.00415891,0.00346872,0.998464,0.00516787,0.0551677,0.000451663,-0.294353,-0.014686,-0.880263,29.9375,1,38831,3904941
3,4,0.998465,0.00525652,0.0551413,0.000455106,-0.786382,0.115267,9.77507,0.768475,-5.02903e-05,0.78182,-0.00786472,0.00114339,0.0977507,1,4.6825e-05,-4.52621e-06,7.80057e-06,0.00936501,-0.000905243,0.00156011,0.998465,0.00525652,0.0551413,0.000455106,-0.293922,-0.0160992,-0.883327,29.9375,1,38833,3905141
4,1,0.998464,0.0053091,0.0551388,0.00046574,-0.836791,0.117827,9.78459,0.737793,0.0025696,0.803742,-0.00836716,0.0011678,0.097846,1,5.23645e-05,3.97472e-06,1.34986e-05,0.0104729,0.000794945,0.00269972,0.998464,0.0053091,0.0551388,0.00046574,-0.29437,-0.016601,-0.882326,29.9375,1,38834,3905241
4,2,0.998465,0.00540303,0.0551153,0.000479974,-0.949774,0.0897645,9.77121,0.609996,-0.0118294,0.798653,-0.00949923,0.000889453,0.097712,1,4.08292e-05,-7.50657e-06,1.12129e-05,0.00816585,-0.00150131,0.00224258,0.998465,0.00540303,0.0551153,0.000479974,-0.292428,-0.0132567,-0.87923,29.9375,1,38836,3905441
4,3,0.998466,0.00550544,0.0550874,0.000501537,-0.884119,0.0728732,9.75026,0.665719,-0.0386339,0.774758,-0.00884389,0.000718543,0.0975024,1,5.11389e-05,-1.37485e-05,1.2271e-05,0.0102278,-0.0027497,0.0024542,0.998466,0.00550544,0.0550874,0.000501537,-0.296331,-0.0136674,-0.881746,29.9375,1,38838,3905641
4,4,0.998467,0.00561741,0.0550635,0.000520918,-0.887492,0.0823349,9.77818,0.679385,-0.0304116,0.799062,-0.00887479,0.000810473,0.0977819,1,6.50138e-05,6.96384e-07,9.13593e-06,0.0130028,0.000139277,0.00182719,0.998467,0.00561741,0.0550635,0.000520918,-0.29395,-0.0151146,-0.88381,29.9375,1,38840,3905841
5,1,0.998468,0.00570811,0.05503,0.000545881,-0.932862,0.100563,9.77762,0.627143,-0.0105635,0.807194,-0.00933014,0.000996771,0.0977762,1,4.41764e-05,-7.65913e-06,1.18558e-05,0.00883527,-0.00153183,0.00237116,0.998468,0.00570811,0.05503,0.000545881,-0.293366,-0.014712,-0.879258,29.9375,1,38842,3906041
5,2,0.998469,0.00575851,0.0550176,0.000552783,-0.91356,0.0915812,9.77029,0.646064,-0.0172054,0.798958,-0.00913592,0.000905677,0.0977029,1,5.09526e-05,-1.55542e-06,9.82203e-06,0.0101905,-0.000311084,0.00196441,0.998469,0.00575851,0.0550176,0.000552783,-0.293856,-0.0142202,-0.879245,29.9375,1,38843,3906141
5,3,0.998469,0.00582193,0.054996,0.000567526,-0.83312,0.0777014,9.78659,0.716716,-0.0498251,0.798606,-0.00833025,0.000769596,0.097866,1,3.78042e-05,4.88572e-06,1.14571e-06,0.00756085,0.000977144,0.000229143,0.998469,0.00582193,0.054996,0.000567526,-0.29539,-0.0146239,-0.883287,29.9375,1,38845,3906341
5,4,0.998469,0.00589896,0.0549895,0.000584768,-1.05318,0.0720821,9.76665,0.506645,-0.0430162,0.804347,-0.0105319,0.000713214,0.0976666,1,3.71653e-05,-1.26862e-07,1.64715e-05,0.00743307,-2.53724e-05,0.0032943,0.998469,0.00589896,0.0549895,0.000584768,-0.294398,-0.0141712,-0.881766,29.9375,1,38847,3906541
6,1,0.998474,0.00596209,0.0549019,0.000608768,-1.01174,0.0239155,9.79416,0.554726,-0.0731447,0.816801,-0.0101238,0.000234409,0.097941,1,2.35068e-05,-3.22609e-05,6.98288e-06,0.00470136,-0.00645218,0.00139658,0.998474,0.00596209,0.0549019,0.000608768,-0.294843,-0.0156395,-0.881292,29.9375,1,38849,3906741
6,2,0.998478,0.00600309,0.0548248,0.000624641,-0.946701,0.0835193,9.75825,0.60188,-0.0153319,0.784665,-0.00947009,0.000831519,0.0975822,1,1.80993e-05,-1.57153e-05,7.47273e-06,0.00361986,-0.00314305,0.00149455,0.998478,0.00600309,0.0548248,0.000624641,-0.293893,-0.0156385,-0.881801,29.9375,1,38851,3906941
6,3,0.998482,0.00608841,0.0547381,0.000654425,-0.933185,0.102048,9.74509,0.609232,-0.0213479,0.782743,-0.00933803,0.00100912,0.0974504,1,5.59499e-05,-3.14809e-05,2.43095e-05,0.01119,-0.00629618,0.00486189,0.998482,0.00608841,0.0547381,0.000654425,-0.295369,-0.0136754,-0.881751,29.9375,1,38853,3907141
6,4,0.998485,0.00612299,0.0546758,0.000676174,-0.802343,0.0445736,9.797,0.73568,-0.074384,0.817811,-0.00803236,0.000438354,0.0979693,1,3.56642e-05,-4.54411e-05,2.45662e-05,0.00713285,-0.00908822,0.00491324,0.998485,0.00612299,0.0546758,0.000676174,-0.295275,-0.0156716,-0.87927,29.9375,1,38854,3907241
7,1,0.998486,0.00621471,0.0546526,0.000688824,-0.760996,0.0823977,9.76204,0.784361,-0.0527234,0.767318,-0.007607,0.000814885,0.0976207,1,4.53646e-05,1.52571e-05,1.5475e-05,0.00907293,0.00305141,0.003095,0.998486,0.00621471,0.0546526,0.000688824,-0.29435,-0.0170978,-0.881832,29.9375,1,38856,3907441
7,2,0.998487,0.00628414,0.0546255,0.000692545,-0.933293,0.0966795,9.77454,0.624405,-0.0348026,0.802614,-0.00933145,0.000959263,0.0977456,1,3.82606e-05,7.58285e-06,2.82929e-06,0.00765212,0.00151657,0.000565858,0.998487,0.00628414,0.0546255,0.000692545,-0.294868,-0.0156215,-0.882302,29.9375,1,38858,3907641
7,3,0.99849,0.00638192,0.0545562,0.00070664,-0.767001,0.0604894,9.77175,0.771217,-0.0694613,0.779158,-0.00767137,0.000593292,0.0977174,1,5.88838e-05,-6.93114e-06,6.12847e-06,0.0117768,-0.00138623,0.0012257,0.99849,0.00638192,0.0545562,0.00070664,-0.294798,-0.0161543,-0.879788,29.9375,1,38860,3907841
7,4,0.99849,0.00647123,0.0545469,0.00073323,-0.75746,0.0611195,9.77777,0.803364,-0.0776793,0.784678,-0.00756857,0.000599804,0.0977782,1,5.66002e-05,3.0942e-05,2.12644e-05,0.01132,0.0061884,0.00425288,0.99849,0.00647123,0.0545469,0.00073323,-0.294826,-0.0151698,-0.880272,29.9375,1,38862,3908041
8,1,0.998489,0.00651257,0.0545555,0.000731173,-0.90247,0.0759466,9.77717,0.656708,-0.0524291,0.792031,-0.00901743,0.000750411,0.0977725,1,4.61863e-05,3.71988e-05,1.29988e-06,0.00923726,0.00743976,0.000259976,0.998489,0.00651257,0.0545555,0.000731173,-0.293913,-0.0151417,-0.882295,29.9375,1,38863,3908141
8,2,0.998491,0.00662581,0.0545172,0.000747284,-0.943307,0.0794182,9.77751,0.613356,-0.0611,0.806953,-0.00943176,0.000782221,0.0977753,1,6.02324e-05,6.7335e-06,9.70597e-06,0.0120465,0.0013467,0.00194119,0.998491,0.00662581,0.0545172,0.000747284,-0.295303,-0.014687,-0.879754,29.9375,1,38865,3908341
8,3,0.998494,0.00670238,0.0544513,0.000763622,-0.948706,0.0860678,9.77592,0.601981,-0.0583564,0.804583,-0.0094886,0.000852295,0.0977591,1,4.14868e-05,-7.76334e-06,1.43163e-05,0.00829736,-0.00155267,0.00286325,0.998494,0.00670238,0.0544513,0.000763622,-0.294834,-0.014682,-0.880261,29.9375,1,38867,3908541
8,4,0.998499,0.00678787,0.0543355,0.000768872,-0.917752,0.09049,9.77609,0.620412,-0.0441801,0.803077,-0.00918078,0.000896122,0.0977606,1,4.39808e-05,-1.65961e-05,9.74364e-06,0.00879615,-0.00331923,0.00194873,0.998499,0.00678787,0.0543355,0.000768872,-0.294888,-0.0151247,-0.882796,29.9375,1,38869,3908741
9,1,0.998507,0.00688326,0.0541872,0.000775529,-0.749856,0.0786736,9.77825,0.796032,-0.0668961,0.786977,-0.00750381,0.00077548,0.0977822,1,5.70081e-05,-2.67792e-05,7.13219e-06,0.0114016,-0.00535585,0.00142644,0.998507,0.00688326,0.0541872,0.000775529,-0.294814,-0.0151788,-0.879767,29.9375,1,38871,3908941
9,2,0.998509,0.00692441,0.054146,0.00078813,-0.849274,0.105561,9.7615,0.70566,-0.0382614,0.784121,-0.00849554,0.0010463,0.0976149,1,4.59552e-05,-1.41486e-05,2.00253e-05,0.00919104,-0.00282972,0.00400506,0.998509,0.00692441,0.054146,0.00078813,-0.295748,-0.0161553,-0.879279,29.9375,1,38872,3909041
9,3,0.998513,0.00701614,0.0540579,0.000814525,-1.0661,0.0935153,9.7466,0.422508,-0.0683718,0.781059,-0.0106638,0.000925695,0.0974658,1,4.69707e-05,-1.41356e-05,1.41478e-05,0.00939413,-0.00282713,0.00282955,0.998513,0.00701614,0.0540579,0.000814525,-0.294374,-0.0156345,-0.881799,29.9375,1,38874,3909241
9,4,0.998519,0.00706384,0.0539388,0.000825962,-1.00318,4.26362e-05,9.72872,0.561605,-0.128155,0.789916,-0.0100317,-8.38042e-06,0.0972872,1,4.1997e-05,8.82356e-07,3.16611e-05,0.00839941,0.000176471,0.00633223,0.998519,0.00706384,0.0539388,0.000825962,-0.294414,-0.0131956,-0.881745,29.9375,1,38876,3909441
10,1,0.998523,0.00716065,0.0538612,0.000759074,-0.930342,0.0795286,9.79437,0.61541,-0.0618169,0.828916,-0.00930099,0.000783163,0.0979441,1,5.95209e-05,1.26088e-05,2.4948e-05,0.0119042,0.00252175,0.0049896,0.998523,0.00716065,0.0538612,0.000759074,-0.292902,-0.0151858,-0.880281,29.9375,1,38878,3909641
10,2,0.998525,0.00724729,0.0538106,0.000748074,-1.04041,0.0903973,9.76604,0.494264,-0.076956,0.813646,-0.0104049,0.000892226,0.0976604,1,5.8582e-05,-3.75098e-06,1.46539e-05,0.0117164,-0.000750196,0.00293078,0.998525,0.00724729,0.0538106,0.000748074,-0.293901,-0.0151507,-0.881791,29.9375,1,38880,3909841
10,3,0.99853,0.00730877,0.0537022,0.000721983,-0.94721,0.0721923,9.75737,0.573362,-0.0731155,0.78488,-0.00947217,0.000711666,0.0975738,1,5.07383e-05,-2.29115e-07,1.87683e-05,0.0101477,-4.58229e-05,0.00375366,0.99853,0.00730877,0.0537022,0.000721983,-0.294834,-0.0132367,-0.879218,30,1,38882,3910041
10,4,0.99853,0.0073487,0.0536978,0.000634831,-0.982637,0.0925242,9.77781,0.55904,-0.0570366,0.816584,-0.00982319,0.000914694,0.0977785,1,5.30537e-05,1.63653e-05,8.75783e-06,0.0106107,0.00327306,0.00175157,0.99853,0.0073487,0.0536978,0.000634831,-0.29527,-0.0137475,-0.877713,30,1,38883,3910141
11,1,0.998532,0.00742324,0.0536485,0.000537813,-0.894197,0.0686296,9.76956,0.619436,-0.0835139,0.797648,-0.00894574,0.000678204,0.0976953,1,4.09726e-05,-1.92561e-05,4.84125e-06,0.00819451,-0.00385121,0.00096825,0.998532,0.00742324,0.0536485,0.000537813,-0.293856,-0.0156655,-0.880287,30,1,38885,3910341
11,2,0.998536,0.00750876,0.0535683,0.000528467,-0.950568,0.089103,9.74431,0.583875,-0.0726368,0.767751,-0.00950385,0.000878516,0.0974434,1,6.21228e-05,9.59645e-06,2.14114e-05,0.0124246,0.00191929,0.00428227,0.998536,0.00750876,0.0535683,0.000528467,-0.293938,-0.0136784,-0.882263,30,1,38887,3910541
11,3,0.998542,0.00753419,0.0534563,0.000444169,-1.08111,0.0899844,9.75435,0.45454,-0.0591865,0.802304,-0.0108094,0.000893417,0.0975438,1,3.18791e-05,8.4975e-06,9.6133e-06,0.00637582,0.0016995,0.00192266,0.998542,0.00753419,0.0534563,0.000444169,-0.293884,-0.014681,-0.88077,30,1,38889,3910741
11,4,0.998546,0.00756633,0.0533726,0.000448878,-1.06049,0.0902081,9.76034,0.473941,-0.0646011,0.795309,-0.0106064,0.000893177,0.0976033,1,4.37796e-05,-7.72444e-06,1.68869e-05,0.00875591,-0.00154489,0.00337738,0.998546,0.00756633,0.0533726,0.000448878,-0.293876,-0.0137235,-0.879739,30,1,38891,3910941
12,1,0.99855,0.00759131,0.0533027,0.000355499,-1.13906,0.0876778,9.73784,0.29518,-0.0841213,0.78513,-0.0113981,0.000867116,0.0973776,1,4.78646e-05,-3.8458e-05,1.49598e-05,0.00957291,-0.0076916,0.00299197,0.99855,0.00759131,0.0533027,0.000355499,-0.294871,-0.0132097,-0.880733,30,1,38892,3911041
12,2,0.998563,0.00762853,0.0530472,0.000263114,-0.927361,0.0721457,9.82043,0.592014,-0.0429704,0.816342,-0.00928682,0.000708425,0.0982031,1,6.55858e-05,-6.7206e-05,8.09821e-06,0.0131172,-0.0134412,0.00161964,0.998563,0.00762853,0.0530472,0.000263114,-0.29247,-0.0151537,-0.882302,30,1,38894,3911241
12,3,0.998574,0.00763813,0.0528353,0.00025417,-0.770621,0.137021,9.79819,0.724393,-0.0268578,0.810933,-0.00771785,0.00135972,0.0979812,1,5.28731e-05,-5.9273e-05,8.69141e-06,0.0105746,-0.0118546,0.00173828,0.998574,0.00763813,0.0528353,0.00025417,-0.292449,-0.0127599,-0.879724,30,1,38896,3911441
12,4,0.998585,0.00761408,0.0526336,-0.000229104,-0.732302,0.0610526,9.78708,0.774061,-0.106211,0.78847,-0.00732894,0.000602212,0.0978704,1,4.17415e-05,-3.02201e-05,9.76977e-06,0.00834831,-0.00604401,0.00195395,0.998585,0.00761408,0.0526336,-0.000229104,-0.293962,-0.0122151,-0.88223,30,1,38898,3911641
13,1,0.998603,0.00754472,0.0522874,-0.000534265,-0.783231,0.0904402,9.79005,0.713546,-0.0839798,0.810766,-0.007837,0.000899194,0.0979002,1,2.59615e-05,-2.38438e-05,7.97198e-06,0.0051923,-0.00476876,0.0015944,0.998603,0.00754472,0.0522874,-0.000534265,-0.293902,-0.016596,-0.882833,30,1,38900,3911841
13,2,0.998615,0.00755256,0.0520573,-0.000400613,-0.818144,0.112271,9.76978,0.66755,-0.0499144,0.795271,-0.00818748,0.00111547,0.0976974,1,3.64968e-05,-3.08471e-05,7.01988e-06,0.00729936,-0.00616943,0.00140398,0.998615,0.00755256,0.0520573,-0.000400613,-0.29434,-0.0132497,-0.878716,30,1,38902,3912041
13,3,0.998617,0.0075571,0.0520226,-0.000635117,-0.721447,0.059169,9.78293,0.761058,-0.0910824,0.798364,-0.00722075,0.000587843,0.0978288,1,1.83451e-05,-3.20133e-05,1.78218e-05,0.00366902,-0.00640267,0.00356436,0.998617,0.0075571,0.0520226,-0.000635117,-0.294332,-0.0137375,-0.878727,30,1,38903,3912141
13,4,0.998625,0.00756597,0.0518769,-0.000832873,-0.635863,0.0594035,9.78267,0.858625,-0.104074,0.785939,-0.00636054,0.000587186,0.0978266,1,3.3375e-05,-9.56663e-06,2.50841e-05,0.006675,-0.00191333,0.00501682,0.998625,0.00756597,0.0518769,-0.000832873,-0.294468,-0.0136383,-0.88428,30,1,38905,3912341
14,1,0.998641,0.00749296,0.051579,-0.000777126,-0.669404,0.0384729,9.78202,0.82659,-0.123149,0.78665,-0.00668963,0.00037957,0.0978205,1,2.55705e-05,2.25992e-05,1.17273e-05,0.0051141,0.00451984,0.00234546,0.998641,0.00749296,0.051579,-0.000777126,-0.291442,-0.0161733,-0.880309,30,1,38907,3912541
14,2,0.998633,0.00756601,0.0517179,-0.000709536,-0.887904,0.0316844,9.78035,0.608886,-0.123067,0.811422,-0.00887103,0.000307847,0.0978043,1,4.48245e-05,4.10061e-05,1.29381e-05,0.00896489,0.00820123,0.00258763,0.998633,0.00756601,0.0517179,-0.000709536,-0.294831,-0.0156485,-0.880787,30,1,38909,3912741
14,3,0.998638,0.00764581,0.0516041,-0.000613116,-1.03877,0.0677413,9.7885,0.447252,-0.0892801,0.828459,-0.0103862,0.000665953,0.0978852,1,5.55497e-05,8.00188e-06,2.81463e-05,0.0111099,0.00160038,0.00562926,0.998638,0.00764581,0.0516041,-0.000613116,-0.293441,-0.0161032,-0.883329,30,1,38911,3912941
14,4,0.998643,0.00768367,0.0514978,-0.000569218,-0.996652,0.0929605,9.77488,0.486063,-0.0761455,0.820319,-0.00997014,0.000916045,0.0977485,1,6.73102e-05,-1.83198e-05,2.00643e-05,0.013462,-0.00366396,0.00401286,0.998643,0.00768367,0.0514978,-0.000569218,-0.293408,-0.016609,-0.88233,30,1,38912,3913041
15,1,0.998651,0.00777093,0.051337,-0.000577302,-0.815519,0.0670508,9.7853,0.672542,-0.101369,0.814749,-0.00815964,0.000656696,0.0978528,1,6.92381e-05,-2.26014e-05,1.60475e-05,0.0138476,-0.00452028,0.00320949,0.998651,0.00777093,0.051337,-0.000577302,-0.293399,-0.0142062,-0.880257,30,1,38914,3913241
15,2,0.998655,0.0078603,0.0512467,-0.000677139,-0.849186,0.0825953,9.75885,0.625889,-0.0921027,0.791206,-0.00849333,0.000815471,0.0975885,1,5.23757e-05,-7.39837e-06,1.52346e-05,0.0104751,-0.00147967,0.00304691,0.998655,0.0078603,0.0512467,-0.000677139,-0.292935,-0.0161252,-0.882322,30,1,38916,3913441
15,3,0.998663,0.00791301,0.051086,-0.000679494,-1.03111,0.112408,9.73015,0.480921,-0.0502894,0.783301,-0.0103155,0.00111288,0.0973012,1,5.731e-05,-2.25618e-05,2.51829e-06,0.011462,-0.00451237,0.000503658,0.998663,0.00791301,0.051086,-0.000679494,-0.29249,-0.0146569,-0.882796,30,1,38918,3913641
15,4,0.998669,0.00797625,0.0509523,-0.000667932,-0.997958,0.0895031,9.75788,0.46651,-0.122775,0.820383,-0.00997842,0.00088539,0.097579,1,4.74268e-05,6.11891e-06,1.93189e-05,0.00948536,0.00122378,0.00386379,0.998669,0.00797625,0.0509523,-0.000667932,-0.294313,-0.0171248,-0.880317,30,1,38920,3913841
16,1,0.998672,0.00800131,0.0508984,-0.00063092,-1.0584,0.074613,9.73341,0.405325,-0.0907956,0.766788,-0.0105871,0.00073904,0.0973338,1,3.41459e-05,-1.5546e-05,2.09604e-05,0.00682918,-0.00310919,0.00419207,0.998672,0.00800131,0.0508984,-0.00063092,-0.295834,-0.0146469,-0.88177,30,1,38921,3913941
16,2,0.998678,0.00807633,0.0507579,-0.000660641,-1.16898,0.0893214,9.73123,0.283179,-0.0657652,0.786815,-0.0116932,0.000880717,0.097312,1,6.2423e-05,-1.76354e-05,1.48468e-05,0.0124846,-0.00352708,0.00296935,0.998678,0.00807633,0.0507579,-0.000660641,-0.294452,-0.0146139,-0.884301,30,1,38923,3914141
16,3,0.998686,0.0081472,0.0505848,-0.000671843,-1.03042,0.0816455,9.76893,0.426045,-0.107894,0.824289,-0.0103105,0.000806717,0.0976887,1,4.82185e-05,-3.22757e-05,1.53797e-05,0.00964369,-0.00645513,0.00307594,0.998686,0.0081472,0.0505848,-0.000671843,-0.295295,-0.0137295,-0.878722,30,1,38925,3914341
16,4,0.998693,0.00819595,0.0504498,-0.000704337,-0.929202,0.10752,9.78373,0.516559,-0.0675204,0.818875,-0.00929998,0.00106706,0.0978366,1,4.08665e-05,-4.06242e-05,7.53808e-06,0.00817331,-0.00812484,0.00150762,0.998693,0.00819595,0.0504498,-0.000704337,-0.295328,-0.014669,-0.880763,30,1,38927,3914541
17,1,0.998698,0.00824206,0.0503292,-0.000677125,-0.889943,0.0797566,9.7503,0.554488,-0.0870096,0.784161,-0.0089039,0.000787974,0.0975026,1,4.88365e-05,-2.29146e-05,3.88729e-06,0.0097673,-0.00458292,0.000777458,0.998698,0.00824206,0.0503292,-0.000677125,-0.294884,-0.0160912,-0.883322,30,1,38929,3914741
17,2,0.998702,0.00828777,0.0502426,-0.000648958,-0.904117,0.0770534,9.75068,0.544745,-0.10596,0.787468,-0.00903972,0.00076064,0.097507,1,5.02802e-05,7.47314e-06,4.90995e-06,0.010056,0.00149463,0.000981989,0.998702,0.00828777,0.0502426,-0.000648958,-0.292401,-0.0171318,-0.880831,30,1,38931,3914941
17,3,0.998704,0.00832701,0.0502075,-0.000652027,-0.962849,0.0812636,9.76503,0.48693,-0.10246,0.804453,-0.00962823,0.00080139,0.0976504,1,5.7213e-05,1.40994e-06,3.72356e-06,0.0114426,0.000281987,0.000744712,0.998704,0.00832701,0.0502075,-0.000652027,-0.29289,-0.0151948,-0.879776,30,1,38932,3915041
17,4,0.998708,0.00838229,0.0501126,-0.00068061,-0.978489,0.0553663,9.77001,0.469277,-0.113333,0.807991,-0.00978594,0.000543156,0.0977001,1,5.29066e-05,-5.31636e-06,8.60913e-06,0.0105813,-0.00106327,0.00172183,0.998708,0.00838229,0.0501126,-0.00068061,-0.293926,-0.0151327,-0.8828,30,1,38934,3915241
18,1,0.998714,0.00844286,0.0499933,-0.000661149,-0.934302,0.0684491,9.75933,0.500676,-0.116182,0.801917,-0.00934756,0.000674723,0.0975929,1,4.79722e-05,-2.30729e-05,2.16328e-05,0.00959445,-0.00461459,0.00432655,0.998714,0.00844286,0.0499933,-0.000661149,-0.293864,-0.0151778,-0.880276,30,1,38936,3915441
18,2,0.99872,0.00850765,0.0498477,-0.000643844,-0.819023,0.054056,9.76522,0.626965,-0.12507,0.772018,-0.00819974,0.000529917,0.0976515,1,5.21521e-05,-4.85514e-05,2.79308e-05,0.0104304,-0.00971029,0.00558617,0.99872,0.00850765,0.0498477,-0.000643844,-0.295752,-0.0151888,-0.878752,30,1,38938,3915641
18,3,0.998726,0.00856709,0.0497297,-0.000653744,-0.737921,0.122991,9.75608,0.71255,-0.0858479,0.758678,-0.00738216,0.00121777,0.0975607,1,6.19385e-05,-1.5043e-05,3.42376e-06,0.0123877,-0.00300859,0.000684751,0.998726,0.00856709,0.0497297,-0.000653744,-0.295324,-0.0156355,-0.88129,30,1,38940,3915841
18,4,0.998728,0.0085913,0.0496835,-0.000640455,-0.794761,0.0880041,9.76634,0.65527,-0.0800739,0.785558,-0.00794793,0.0008707,0.0976634,1,4.65122e-05,-1.49607e-06,1.6076e-05,0.00930245,-0.000299214,0.00321521,0.998728,0.0085913,0.0496835,-0.000640455,-0.295345,-0.016584,-0.882826,30,1,38941,3915941
19,1,0.998734,0.00865966,0.0495572,-0.000623146,-0.901418,0.0438456,9.7633,0.528517,-0.133392,0.796739,-0.00901795,0.000426108,0.0976327,1,6.08434e-05,-1.92225e-05,2.59427e-05,0.0121687,-0.00384451,0.00518854,0.998734,0.00865966,0.0495572,-0.000623146,-0.295332,-0.0151477,-0.881279,30,1,38943,3916141
19,2,0.998738,0.008715,0.0494625,-0.000621584,-0.832521,0.0941574,9.77954,0.603551,-0.105029,0.80755,-0.00832595,0.000932591,0.0977954,1,4.42471e-05,-3.60592e-06,1.96845e-05,0.00884943,-0.000721185,0.00393689,0.998738,0.008715,0.0494625,-0.000621584,-0.293897,-0.014672,-0.881275,30,1,38945,3916341
19,3,0.998743,0.0087515,0.0493534,-0.000601117,-0.816459,0.0831637,9.7868,0.616448,-0.0955539,0.811687,-0.00816554,0.000822821,0.097868,1,4.37963e-05,-4.71839e-06,1.4948e-05,0.00875925,-0.000943678,0.00298959,0.998743,0.0087515,0.0493534,-0.000601117,-0.295353,-0.0160962,-0.882815,30,1,38947,3916541
19,4,0.998747,0.00881007,0.0492614,-0.000601626,-0.86287,0.0763701,9.78469,0.570489,-0.116192,0.813257,-0.0086298,0.000754351,0.0978468,1,4.80879e-05,-5.65489e-06,-3.52072e-06,0.00961758,-0.00113098,-0.000704144,0.998747,0.00881007,0.0492614,-0.000601626,-0.295267,-0.0161593,-0.879281,30,1,38949,3916741
20,1,0.998751,0.00886484,0.0491697,-0.000594999,-0.907823,0.0820432,9.76774,0.518859,-0.104618,0.806513,-0.00908045,0.000809724,0.0976773,1,5.29366e-05,-1.1185e-05,2.02073e-05,0.0105873,-0.00223701,0.00404146,0.998751,0.00886484,0.0491697,-0.000594999,-0.293872,-0.0132447,-0.879223,30,1,38951,3916941
20,2,0.998754,0.00889256,0.0491107,-0.00060822,-0.870359,0.0810587,9.78309,0.543642,-0.116805,0.818191,-0.00870704,0.000800234,0.0978306,1,5.21522e-05,-1.75945e-05,8.55692e-06,0.0104304,-0.0035189,0.00171139,0.998754,0.00889256,0.0491107,-0.00060822,-0.29439,-0.0146589,-0.881777,30,1,38952,3917041
20,3,0.998757,0.00893983,0.0490321,-0.000604013,-0.979994,0.0665088,9.77588,0.446445,-0.127315,0.817751,-0.00980072,0.00065504,0.0977587,1,5.02783e-05,-3.90064e-06,1.10719e-05,0.0100557,-0.000780129,0.00221439,0.998757,0.00893983,0.0490321,-0.000604013,-0.294851,-0.0151517,-0.881281,30,1,38954,3917241
20,4,0.998763,0.00898915,0.0488992,-0.000600904,-0.960701,0.08761,9.77089,0.443857,-0.108172,0.807514,-0.00961424,0.000867216,0.0977082,1,4.47967e-05,-3.69436e-05,6.76128e-06,0.00895934,-0.00738872,0.00135226,0.998763,0.00898915,0.0488992,-0.000600904,-0.294325,-0.0156705,-0.87978,30,1,38956,3917441
21,1,0.998768,0.0090297,0.0487996,-0.00057934,-0.854828,0.0693446,9.7598,0.558646,-0.123226,0.785097,-0.00855075,0.00068493,0.0975979,1,4.16822e-05,-1.24968e-05,2.21821e-05,0.00833645,-0.00249935,0.00443643,0.998768,0.0090297,0.0487996,-0.00057934,-0.296319,-0.0151217,-0.882284,30,1,38958,3917641
21,2,0.99877,0.00906761,0.0487396,-0.000552479,-0.996585,0.0777337,9.76962,0.436782,-0.120317,0.81912,-0.00996341,0.000767418,0.0976966,1,4.79481e-05,1.27051e-05,2.76177e-05,0.00958962,0.00254103,0.00552353,0.99877,0.00906761,0.0487396,-0.000552479,-0.293408,-0.0151637,-0.881288,30,1,38960,3917841
21,3,0.998773,0.00908056,0.0486859,-0.000538608,-1.01939,0.075139,9.76402,0.390815,-0.12617,0.81375,-0.0101977,0.000743625,0.0976399,1,3.71094e-05,-1.89413e-05,2.53917e-05,0.00742188,-0.00378826,0.00507833,0.998773,0.00908056,0.0486859,-0.000538608,-0.29481,-0.0147,-0.879251,30,1,38961,3917941
21,4,0.998779,0.00911736,0.0485495,-0.000526577,-0.921386,0.0886931,9.7618,0.482068,-0.106337,0.800636,-0.00922205,0.00087797,0.0976173,1,4.45414e-05,-4.18293e-05,1.43817e-05,0.00890828,-0.00836587,0.00287634,0.998779,0.00911736,0.0485495,-0.000526577,-0.294366,-0.0161222,-0.88181,30,1,38963,3918141
22,1,0.998784,0.00914907,0.0484308,-0.000512852,-0.805849,0.0583016,9.77805,0.605821,-0.136662,0.801754,-0.00806292,0.000575788,0.0977802,1,3.51518e-05,-2.25437e-05,2.19475e-05,0.00703037,-0.00450873,0.0043895,0.998784,0.00914907,0.0484308,-0.000512852,-0.295801,-0.0151527,-0.880772,30,1,38965,3918341
22,2,0.998788,0.00920526,0.0483489,-0.00050078,-0.797723,0.0768126,9.76966,0.616362,-0.122927,0.789649,-0.0079777,0.000757257,0.0976966,1,5.46408e-05,-2.3038e-06,1.20603e-05,0.0109282,-0.00046076,0.00241206,0.998788,0.00920526,0.0483489,-0.00050078,-0.294794,-0.0156756,-0.879273,30,1,38967,3918541
22,3,0.99879,0.0092673,0.0482928,-0.000521891,-0.960594,0.0786611,9.78773,0.45716,-0.108594,0.829022,-0.00960504,0.000775513,0.0978775,1,5.71181e-05,4.59854e-06,-4.33458e-06,0.0114236,0.000919709,-0.000866917,0.99879,0.0092673,0.0482928,-0.000521891,-0.291968,-0.0142092,-0.880768,30,1,38969,3918741
22,4,0.998795,0.00931235,0.0481815,-0.000525223,-0.893527,0.0937222,9.77522,0.492635,-0.111074,0.807766,-0.0089401,0.000926721,0.0977518,1,5.33742e-05,-2.4652e-05,3.6842e-06,0.0106748,-0.0049304,0.000736839,0.998795,0.00931235,0.0481815,-0.000525223,-0.294443,-0.0136563,-0.88327,30,1,38971,3918941
23,1,0.998797,0.0093163,0.0481429,-0.00051358,-0.841058,0.101334,9.78238,0.563279,-0.0970348,0.815996,-0.00841176,0.00100708,0.0978238,1,3.01878e-05,-5.8061e-06,2.07741e-05,0.00603756,-0.00116122,0.00415481,0.998797,0.0093163,0.0481429,-0.00051358,-0.293905,-0.0156295,-0.882306,30,1,38972,3919041
23,2,0.998801,0.00933118,0.0480456,-0.000517676,-0.799303,0.083765,9.77551,0.591687,-0.116074,0.799737,-0.00799754,0.000830171,0.0977548,1,3.74207e-05,-2.29531e-05,1.01627e-05,0.00748414,-0.00459062,0.00203255,0.998801,0.00933118,0.0480456,-0.000517676,-0.294814,-0.0151788,-0.879767,30,1,38974,3919241
23,3,0.998805,0.00936553,0.0479531,-0.000503619,-0.883189,0.0766578,9.75937,0.521435,-0.126083,0.800217,-0.00883323,0.00075796,0.0975937,1,4.30737e-05,-6.78748e-06,1.19414e-05,0.00861473,-0.0013575,0.00238828,0.998805,0.00936553,0.0479531,-0.000503619,-0.293983,-0.0131636,-0.883766,30,1,38976,3919441
23,4,0.998809,0.00939094,0.0478815,-0.000499267,-0.921172,0.0796627,9.7756,0.48995,-0.126736,0.821493,-0.0092123,0.000788518,0.097756,1,4.11663e-05,-2.96719e-06,3.24274e-06,0.00823327,-0.000593438,0.000648548,0.998809,0.00939094,0.0478815,-0.000499267,-0.294431,-0.0136654,-0.882765,30,1,38978,3919641
24,1,0.998813,0.00942748,0.0477821,-0.000501725,-0.915807,0.055575,9.77706,0.472031,-0.1437,0.807679,-0.00916124,0.000543885,0.0977704,1,5.92935e-05,-1.61119e-05,1.47766e-05,0.0118587,-0.00322238,0.00295531,0.998813,0.00942748,0.0477821,-0.000501725,-0.292413,-0.0156775,-0.880294,30,1,38980,3919841
24,2,0.998815,0.00943215,0.0477328,-0.000496297,-0.928698,0.0631197,9.77689,0.471475,-0.142721,0.819054,-0.00929082,0.000624754,0.0977685,1,3.15029e-05,-1.95596e-05,1.52439e-05,0.00630059,-0.00391191,0.00304879,0.998815,0.00943215,0.0477328,-0.000496297,-0.292964,-0.0151407,-0.882805,30,1,38981,3919941
24,3,0.99882,0.00946781,0.0476241,-0.000484926,-0.859041,0.0754941,9.77314,0.528282,-0.131397,0.809931,-0.00859583,0.000744922,0.097731,1,4.97829e-05,-2.75913e-05,1.68215e-05,0.00995659,-0.00551827,0.0033643,0.99882,0.00946781,0.0476241,-0.000484926,-0.294391,-0.0161042,-0.88282,30,1,38983,3920141
24,4,0.998823,0.00951614,0.0475498,-0.000479622,-0.854275,0.077902,9.77377,0.534163,-0.123597,0.806684,-0.00854385,0.0007684,0.0977377,1,5.27406e-05,-5.50787e-06,1.81966e-05,0.0105481,-0.00110157,0.00363933,0.998823,0.00951614,0.0475498,-0.000479622,-0.294802,-0.0151878,-0.879262,30,1,38985,3920341
25,1,0.998826,0.00956633,0.0474947,-0.000480955,-0.922523,0.0770681,9.77118,0.465186,-0.13205,0.81904,-0.00922619,0.000760863,0.0977118,1,4.89336e-05,-4.77393e-06,1.383e-05,0.00978672,-0.000954785,0.002766,0.998826,0.00956633,0.0474947,-0.000480955,-0.295369,-0.0151207,-0.882793,30,1,38987,3920541
25,2,0.998829,0.00960104,0.0474211,-0.000472206,-0.939377,0.0922436,9.77209,0.450737,-0.110041,0.812021,-0.00939439,0.000912707,0.097721,1,4.78439e-05,-2.95251e-06,2.01408e-05,0.00956877,-0.000590501,0.00402817,0.998829,0.00960104,0.0474211,-0.000472206,-0.292434,-0.016626,-0.88183,30,1,38989,3920741
25,3,0.998831,0.00961439,0.0473722,-0.000472233,-0.945221,0.087668,9.7728,0.443915,-0.109129,0.816682,-0.00945665,0.000868444,0.0977276,1,4.10339e-05,-2.26127e-05,1.1362e-05,0.00820679,-0.00452254,0.0022724,0.998831,0.00961439,0.0473722,-0.000472233,-0.292902,-0.016631,-0.881323,30,1,38990,3920841
25,4,0.998835,0.00965939,0.0472774,-0.0004507,-0.889533,0.0579108,9.77115,0.489492,-0.152655,0.809263,-0.00890106,0.000567197,0.097711,1,5.92245e-05,-2.92308e-05,1.89246e-05,0.0118449,-0.00584615,0.00378491,0.998835,0.00965939,0.0472774,-0.0004507,-0.294769,-0.0156936,-0.878263,30,1,38992,3921041
26,1,0.998838,0.00970611,0.0472022,-0.000457517,-0.863601,0.076126,9.77993,0.518978,-0.141253,0.811687,-0.00863801,0.000750269,0.0977993,1,5.52423e-05,-1.01293e-05,1.07307e-05,0.0110485,-0.00202586,0.00214613,0.998838,0.00970611,0.0472022,-0.000457517,-0.294407,-0.0151287,-0.882798,30,1,38994,3921241
26,2,0.99884,0.00977966,0.0471458,-0.000446156,-0.862044,0.0835291,9.77455,0.51329,-0.125542,0.809712,-0.00862151,0.000821122,0.0977456,1,7.07358e-05,-5.31407e-06,1.97794e-05,0.0141472,-0.00106281,0.00395588,0.99884,0.00977966,0.0471458,-0.000446156,-0.293408,-0.016609,-0.88233,30,1,38996,3921441
26,3,0.99884,0.00977966,0.0471458,-0.000446156,-0.862044,0.0835291,9.77455,0.51329,-0.125542,0.809712,-0.00862151,0.000821122,0.0977456,1,7.07358e-05,-5.31407e-06,1.97794e-05,0.0141472,-0.00106281,0.00395588,0.99884,0.00977966,0.0471458,-0.000446156,-0.293408,-0.016609,-0.88233,30,1,38996,3921441
26,4,0.99884,0.00977966,0.0471458,-0.000446156,-0.862044,0.0835291,9.77455,0.51329,-0.125542,0.809712,-0.00862151,0.000821122,0.0977456,1,7.07358e-05,-5.31407e-06,1.97794e-05,0.0141472,-0.00106281,0.00395588,0.99884,0.00977966,0.0471458,-0.000446156,-0.293408,-0.016609,-0.88233,30,1,38996,3921441
27,1,0.998842,0.00982356,0.0471032,-0.000443064,-0.937075,0.0828365,9.75808,0.437796,-0.123241,0.795229,-0.00937054,0.000818486,0.0975809,1,4.98444e-05,1.15673e-06,8.07472e-06,0.00996887,0.000231346,0.00161495,0.998842,0.00982356,0.0471032,-0.000443064,-0.294818,-0.0142122,-0.87924,30,1,38998,3921641
27,2,0.998842,0.00984032,0.0470846,-0.000446316,-0.933592,0.0824212,9.76891,0.439813,-0.127287,0.812669,-0.00933503,0.000815314,0.0976893,1,4.47445e-05,4.65095e-06,8.35209e-06,0.00894889,0.00093019,0.00167042,0.998842,0.00984032,0.0470846,-0.000446316,-0.294879,-0.0141672,-0.881764,30,1,38999,3921741
27,3,0.998844,0.00986679,0.0470513,-0.000425814,-0.92554,0.0658405,9.76702,0.452685,-0.148969,0.804415,-0.00925747,0.000647325,0.0976701,1,5.37185e-05,-1.03825e-05,3.16615e-05,0.0107437,-0.0020765,0.00633231,0.998844,0.00986679,0.0470513,-0.000425814,-0.295809,-0.0161102,-0.881803,30,1,39000,3921841
27,4,0.998844,0.00986679,0.0470513,-0.000425814,-0.92554,0.0658405,9.76702,0.452685,-0.148969,0.804415,-0.00925747,0.000647325,0.0976701,1,5.37185e-05,-1.03825e-05,3.16615e-05,0.0107437,-0.0020765,0.00633231,0.998844,0.00986679,0.0470513,-0.000425814,-0.295809,-0.0161102,-0.881803,30,1,39000,3921841
28,1,0.998847,0.00990789,0.0469651,-0.000420599,-0.900683,0.0838212,9.76669,0.473295,-0.129369,0.799808,-0.00901083,0.000827938,0.0976666,1,5.17352e-05,-2.03787e-05,9.36351e-06,0.010347,-0.00407575,0.0018727,0.998847,0.00990789,0.0469651,-0.000420599,-0.295348,-0.0141722,-0.881257,30,1,39002,3922041
28,2,0.998849,0.00992232,0.0469276,-0.000400576,-0.849685,0.0818791,9.7782,0.513585,-0.130327,0.810107,-0.00850002,0.000810141,0.0977818,1,4.14066e-05,-1.59649e-05,3.25199e-05,0.00828132,-0.00319297,0.00650398,0.998849,0.00992232,0.0469276,-0.000400576,-0.295332,-0.0137024,-0.880237,30,1,39003,3922141
28,3,0.998849,0.00992232,0.0469276,-0.000400576,-0.849685,0.0818791,9.7782,0.513585,-0.130327,0.810107,-0.00850002,0.000810141,0.0977818,1,4.14066e-05,-1.59649e-05,3.25199e-05,0.00828132,-0.00319297,0.00650398,0.998849,0.00992232,0.0469276,-0.000400576,-0.295332,-0.0137024,-0.880237,30,1,39003,3922141
28,4,0.998849,0.00992232,0.0469276,-0.000400576,-0.849685,0.0818791,9.7782,0.513585,-0.130327,0.810107,-0.00850002,0.000810141,0.0977818,1,4.14066e-05,-1.59649e-05,3.25199e-05,0.00828132,-0.00319297,0.00650398,0.998849,0.00992232,0.0469276,-0.000400576,-0.295332,-0.0137024,-0.880237,30,1,39003,3922141
29,1,0.998852,0.00997243,0.0468564,-0.000399095,-0.877857,0.0819508,9.77059,0.489456,-0.136105,0.807742,-0.00878221,0.000807404,0.0977057,1,6.07856e-05,-1.8485e-05,1.28539e-05,0.0121571,-0.003697,0.00257078,0.998852,0.00997243,0.0468564,-0.000399095,-0.295801,-0.0151527,-0.880772,30,1,39005,3922341
29,2,0.998853,0.0100055,0.046832,-0.000394442,-0.93534,0.0640419,9.7698,0.435144,-0.151873,0.81226,-0.00935401,0.000628166,0.097698,1,6.12458e-05,-3.00596e-06,1.52771e-05,0.0122492,-0.000601193,0.00305541,0.998853,0.0100055,0.046832,-0.000394442,-0.294383,-0.016592,-0.882831,30,1,39006,3922441
29,3,0.998853,0.0100055,0.046832,-0.000394442,-0.93534,0.0640419,9.7698,0.435144,-0.151873,0.81226,-0.00935401,0.000628166,0.097698,1,6.12458e-05,-3.00596e-06,1.52771e-05,0.0122492,-0.000601193,0.00305541,0.998853,0.0100055,0.046832,-0.000394442,-0.294383,-0.016592,-0.882831,30,1,39006,3922441
29,4,0.998853,0.0100055,0.046832,-0.000394442,-0.93534,0.0640419,9.7698,0.435144,-0.151873,0.81226,-0.00935401,0.000628166,0.097698,1,6.12458e-05,-3.00596e-06,1.52771e-05,0.0122492,-0.000601193,0.00305541,0.998853,0.0100055,0.046832,-0.000394442,-0.294383,-0.016592,-0.882831,30,1,39006,3922441
30,1,0.998856,0.0100528,0.0467592,-0.000386465,-0.94386,0.0829399,9.77783,0.428979,-0.128963,0.822931,-0.0094417,0.000819744,0.097778,1,4.77451e-05,-1.56706e-05,1.68569e-05,0.00954903,-0.00313412,0.00337138,0.998856,0.0100528,0.0467592,-0.000386465,-0.293966,-0.0126938,-0.882746,30,1,39008,3922641
30,2,0.998857,0.0100686,0.0467289,-0.00040022,-0.896109,0.0979007,9.78746,0.468396,-0.117464,0.829002,-0.00896328,0.00097026,0.0978745,1,4.4834e-05,-1.11924e-05,-1.65929e-06,0.00896679,-0.00223847,-0.000331859,0.998857,0.0100686,0.0467289,-0.00040022,-0.293897,-0.014672,-0.881275,30,1,39009,3922741
30,3,0.998858,0.0100813,0.0466948,-0.000397657,-0.875086,0.0996573,9.75952,0.491279,-0.119574,0.798247,-0.00875385,0.00098836,0.097595,1,4.08535e-05,-1.51507e-05,1.36624e-05,0.00817069,-0.00303014,0.00273249,0.998858,0.0100813,0.0466948,-0.000397657,-0.293366,-0.014712,-0.879258,30,1,39010,3922841
30,4,0.998858,0.0100813,0.0466948,-0.000397657,-0.875086,0.0996573,9.75952,0.491279,-0.119574,0.798247,-0.00875385,0.00098836,0.097595,1,4.08535e-05,-1.51507e-05,1.36624e-05,0.00817069,-0.00303014,0.00273249,0.998858,0.0100813,0.0466948,-0.000397657,-0.293366,-0.014712,-0.879258,30,1,39010,3922841
31,1,0.998861,0.0101381,0.0466261,-0.000403761,-0.846295,0.0803186,9.77612,0.513193,-0.140774,0.815475,-0.00846526,0.000792932,0.0977611,1,5.248e-05,-1.17941e-05,-3.98627e-07,0.010496,-0.00235882,-7.97254e-05,0.998861,0.0101381,0.0466261,-0.000403761,-0.292487,-0.0156234,-0.883323,30,3,39012,3923041
31,2,0.998862,0.0101625,0.0465904,-0.000400869,-0.84366,0.094912,9.76775,0.519181,-0.128319,0.800631,-0.00843992,0.000938628,0.0976774,1,5.25397e-05,-1.68494e-05,1.35283e-05,0.0105079,-0.00336988,0.00270565,0.998862,0.0101625,0.0465904,-0.000400869,-0.294403,-0.0160952,-0.883324,30,3,39013,3923141
31,3,0.998862,0.0101625,0.0465904,-0.000400869,-0.84366,0.094912,9.76775,0.519181,-0.128319,0.800631,-0.00843992,0.000938628,0.0976774,1,5.25397e-05,-1.68494e-05,1.35283e-05,0.0105079,-0.00336988,0.00270565,0.998862,0.0101625,0.0465904,-0.000400869,-0.294403,-0.0160952,-0.883324,30,3,39013,3923141
31,4,0.998862,0.0101625,0.0465904,-0.000400869,-0.84366,0.094912,9.76775,0.519181,-0.128319,0.800631,-0.00843992,0.000938628,0.0976774,1,5.25397e-05,-1.68494e-05,1.35283e-05,0.0105079,-0.00336988,0.00270565,0.998862,0.0101625,0.0465904,-0.000400869,-0.294403,-0.0160952,-0.883324,30,3,39013,3923141
32,1,0.998864,0.0101956,0.0465365,-0.000414578,-0.862283,0.0996063,9.77435,0.509466,-0.115032,0.811678,-0.0086231,0.000988336,0.0977436,1,3.9164e-05,-1.33727e-06,4.13349e-06,0.00783279,-0.000267454,0.000826698,0.998864,0.0101956,0.0465365,-0.000414578,-0.293815,-0.0166591,-0.879299,30,3,39015,3923341
32,2,0.998866,0.0102026,0.0464991,-0.000415395,-0.884747,0.0756335,9.76583,0.476652,-0.140107,0.802244,-0.00885121,0.000749363,0.097658,1,3.47737e-05,-1.9051e-05,1.01556e-05,0.00695475,-0.0038102,0.00203112,0.998866,0.0102026,0.0464991,-0.000415395,-0.294765,-0.0166601,-0.87879,30,3,39016,3923441
32,3,0.998866,0.0102026,0.0464991,-0.000415395,-0.884747,0.0756335,9.76583,0.476652,-0.140107,0.802244,-0.00885121,0.000749363,0.097658,1,3.47737e-05,-1.9051e-05,1.01556e-05,0.00695475,-0.0038102,0.00203112,0.998866,0.0102026,0.0464991,-0.000415395,-0.294765,-0.0166601,-0.87879,30,3,39016,3923441
32,4,0.998866,0.0102026,0.0464991,-0.000415395,-0.884747,0.0756335,9.76583,0.476652,-0.140107,0.802244,-0.00885121,0.000749363,0.097658,1,3.47737e-05,-1.9051e-05,1.01556e-05,0.00695475,-0.0038102,0.00203112,0.998866,0.0102026,0.0464991,-0.000415395,-0.294765,-0.0166601,-0.87879,30,3,39016,3923441
33,1,0.998868,0.0102419,0.0464522,-0.000425731,-0.906788,0.0702653,9.76865,0.454187,-0.155041,0.806537,-0.0090692,0.000695584,0.0976864,1,3.48111e-05,-6.65113e-06,1.47482e-05,0.00696222,-0.00133023,0.00294964,0.998868,0.0102419,0.0464522,-0.000425731,-0.293893,-0.0156385,-0.881801,30,3,39018,3923641
33,2,0.998869,0.0102656,0.0464299,-0.000429851,-0.903767,0.0717661,9.77236,0.456103,-0.148469,0.809827,-0.00903854,0.000707373,0.0977236,1,5.19063e-05,-4.40728e-06,7.93653e-06,0.0103813,-0.000881456,0.0015873,0.998869,0.0102656,0.0464299,-0.000429851,-0.29344,-0.0146579,-0.882287,30,3,39019,3923741
33,3,0.99887,0.0102843,0.0463999,-0.000424645,-0.860165,0.0679984,9.77136,0.493676,-0.151871,0.813939,-0.00860414,0.000670598,0.0977135,1,4.6486e-05,-1.26323e-05,1.75071e-05,0.00929721,-0.00252646,0.00350141,0.99887,0.0102843,0.0463999,-0.000424645,-0.293408,-0.0151637,-0.881288,30,3,39020,3923841
33,4,0.99887,0.0102843,0.0463999,-0.000424645,-0.860165,0.0679984,9.77136,0.493676,-0.151871,0.813939,-0.00860414,0.000670598,0.0977135,1,4.6486e-05,-1.26323e-05,1.75071e-05,0.00929721,-0.00252646,0.00350141,0.99887,0.0102843,0.0463999,-0.000424645,-0.293408,-0.0151637,-0.881288,30,3,39020,3923841
34,1,0.998871,0.0103212,0.0463619,-0.000422657,-0.9002,0.0656364,9.75498,0.455395,-0.156448,0.791254,-0.00900106,0.000648558,0.0975499,1,3.93558e-05,4.85978e-06,7.06306e-06,0.00787117,0.000971956,0.00141261,0.998871,0.0103212,0.0463619,-0.000422657,-0.293856,-0.0142202,-0.879245,30,3,39022,3924041
34,2,0.998872,0.0103368,0.0463363,-0.000421428,-0.91846,0.0814673,9.77085,0.439932,-0.148331,0.813199,-0.0091864,0.000805888,0.0977084,1,4.37591e-05,-9.07868e-06,1.27442e-05,0.00875182,-0.00181574,0.00254884,0.998872,0.0103368,0.0463363,-0.000421428,-0.29289,-0.0151948,-0.879776,30,3,39023,3924141
34,3,0.998872,0.0103368,0.0463363,-0.000421428,-0.91846,0.0814673,9.77085,0.439932,-0.148331,0.813199,-0.0091864,0.000805888,0.0977084,1,4.37591e-05,-9.07868e-06,1.27442e-05,0.00875182,-0.00181574,0.00254884,0.998872,0.0103368,0.0463363,-0.000421428,-0.29289,-0.0151948,-0.879776,30,3,39023,3924141
34,4,0.998872,0.0103368,0.0463363,-0.000421428,-0.91846,0.0814673,9.77085,0.439932,-0.148331,0.813199,-0.0091864,0.000805888,0.0977084,1,4.37591e-05,-9.07868e-06,1.27442e-05,0.00875182,-0.00181574,0.00254884,0.998872,0.0103368,0.0463363,-0.000421428,-0.29289,-0.0151948,-0.879776,30,3,39023,3924141
35,1,0.998873,0.0103671,0.0463046,-0.000435413,-0.990334,0.0707058,9.75767,0.365702,-0.149682,0.804529,-0.00990352,0.000698845,0.0975767,1,4.19077e-05,-8.86708e-07,1.73785e-06,0.00838153,-0.000177342,0.00034757,0.998873,0.0103671,0.0463046,-0.000435413,-0.294921,-0.0146189,-0.883794,30,3,39025,3924341
35,2,0.998874,0.0103792,0.0462822,-0.000429458,-0.969613,0.0590384,9.77271,0.393872,-0.165727,0.823368,-0.00969765,0.000582233,0.097727,1,4.00413e-05,-7.64625e-06,1.67134e-05,0.00800826,-0.00152925,0.00334268,0.998874,0.0103792,0.0462822,-0.000429458,-0.2934,-0.0156515,-0.881299,30,3,39026,3924441
35,3,0.998874,0.0103792,0.0462822,-0.000429458,-0.969613,0.0590384,9.77271,0.393872,-0.165727,0.823368,-0.00969765,0.000582233,0.097727,1,4.00413e-05,-7.64625e-06,1.67134e-05,0.00800826,-0.00152925,0.00334268,0.998874,0.0103792,0.0462822,-0.000429458,-0.2934,-0.0156515,-0.881299,30,3,39026,3924441
35,4,0.998874,0.0103792,0.0462822,-0.000429458,-0.969613,0.0590384,9.77271,0.393872,-0.165727,0.823368,-0.00969765,0.000582233,0.097727,1,4.00413e-05,-7.64625e-06,1.67134e-05,0.00800826,-0.00152925,0.00334268,0.998874,0.0103792,0.0462822,-0.000429458,-0.2934,-0.0156515,-0.881299,30,3,39026,3924441
36,1,0.998875,0.010423,0.0462521,-0.000452286,-0.948567,0.0664018,9.75632,0.407314,-0.166846,0.803253,-0.00948453,0.000653243,0.0975633,1,5.48958e-05,5.88068e-06,3.3549e-06,0.0109792,0.00117614,0.00067098,0.998875,0.010423,0.0462521,-0.000452286,-0.292428,-0.0132567,-0.87923,30,3,39028,3924641
36,2,0.998876,0.0104558,0.0462278,-0.000447114,-0.947093,0.0857308,9.77616,0.411781,-0.139074,0.82578,-0.00947311,0.00084506,0.0977615,1,6.0873e-05,-1.09821e-05,1.82394e-05,0.0121746,-0.00219642,0.00364787,0.998876,0.0104558,0.0462278,-0.000447114,-0.293901,-0.0151507,-0.881791,30,3,39029,3924741
36,3,0.998877,0.0104737,0.046199,-0.000461619,-0.952781,0.0851851,9.77214,0.413211,-0.137047,0.809457,-0.00953093,0.00084274,0.0977212,1,4.69611e-05,-1.59739e-05,-3.55586e-06,0.00939221,-0.00319478,-0.000711173,0.998877,0.0104737,0.046199,-0.000461619,-0.293449,-0.0156154,-0.883318,30,3,39030,3924841
36,4,0.998877,0.0104737,0.046199,-0.000461619,-0.952781,0.0851851,9.77214,0.413211,-0.137047,0.809457,-0.00953093,0.00084274,0.0977212,1,4.69611e-05,-1.59739e-05,-3.55586e-06,0.00939221,-0.00319478,-0.000711173,0.998877,0.0104737,0.046199,-0.000461619,-0.293449,-0.0156154,-0.883318,30,3,39030,3924841
37,1,0.99888,0.0105244,0.0461323,-0.0004756,-0.968758,0.0915035,9.7584,0.386087,-0.141497,0.81198,-0.00969269,0.000904427,0.0975836,1,5.37578e-05,-2.61273e-05,5.99569e-06,0.0107516,-0.00522546,0.00119914,0.99888,0.0105244,0.0461323,-0.0004756,-0.293852,-0.016632,-0.880814,30,3,39032,3925041
37,2,0.998881,0.0105459,0.0460982,-0.000473676,-0.914371,0.0542864,9.77298,0.431657,-0.174665,0.823557,-0.00914821,0.000532929,0.0977294,1,4.94756e-05,-2.29045e-05,1.44321e-05,0.00989513,-0.00458091,0.00288642,0.998881,0.0105459,0.0460982,-0.000473676,-0.295752,-0.0151888,-0.878752,30,3,39033,3925141
37,3,0.998881,0.0105459,0.0460982,-0.000473676,-0.914371,0.0542864,9.77298,0.431657,-0.174665,0.823557,-0.00914821,0.000532929,0.0977294,1,4.94756e-05,-2.29045e-05,1.44321e-05,0.00989513,-0.00458091,0.00288642,0.998881,0.0105459,0.0460982,-0.000473676,-0.295752,-0.0151888,-0.878752,30,3,39033,3925141
37,4,0.998881,0.0105459,0.0460982,-0.000473676,-0.914371,0.0542864,9.77298,0.431657,-0.174665,0.823557,-0.00914821,0.000532929,0.0977294,1,4.94756e-05,-2.29045e-05,1.44321e-05,0.00989513,-0.00458091,0.00288642,0.998881,0.0105459,0.0460982,-0.000473676,-0.295752,-0.0151888,-0.878752,30,3,39033,3925141
38,1,0.998884,0.0105931,0.0460189,-0.000471911,-0.881865,0.0803825,9.77197,0.465895,-0.144224,0.803195,-0.00882437,0.000794071,0.0977193,1,4.89318e-05,-2.91857e-05,1.08572e-05,0.00978635,-0.00583713,0.00217144,0.998884,0.0105931,0.0460189,-0.000471911,-0.294884,-0.0146459,-0.88228,30,3,39035,3925341
38,2,0.998886,0.0106325,0.0459815,-0.000477011,-0.867913,0.0814151,9.77527,0.479564,-0.15026,0.810246,-0.00868433,0.000800724,0.0977524,1,6.80293e-05,-2.65409e-05,7.30348e-06,0.0136059,-0.00530819,0.0014607,0.998886,0.0106325,0.0459815,-0.000477011,-0.295418,-0.0136393,-0.88377,30,3,39036,3925441
38,3,0.998886,0.0106325,0.0459815,-0.000477011,-0.867913,0.0814151,9.77527,0.479564,-0.15026,0.810246,-0.00868433,0.000800724,0.0977524,1,6.80293e-05,-2.65409e-05,7.30348e-06,0.0136059,-0.00530819,0.0014607,0.998886,0.0106325,0.0459815,-0.000477011,-0.295418,-0.0136393,-0.88377,30,3,39036,3925441
38,4,0.998886,0.0106325,0.0459815,-0.000477011,-0.867913,0.0814151,9.77527,0.479564,-0.15026,0.810246,-0.00868433,0.000800724,0.0977524,1,6.80293e-05,-2.65409e-05,7.30348e-06,0.0136059,-0.00530819,0.0014607,0.998886,0.0106325,0.0459815,-0.000477011,-0.295418,-0.0136393,-0.88377,30,3,39036,3925441
39,1,0.998888,0.0106647,0.0459282,-0.000477052,-0.874307,0.0693463,9.77996,0.486755,-0.15418,0.819541,-0.00874654,0.00068538,0.0977994,1,3.95476e-05,-1.76098e-05,1.9876e-05,0.00790953,-0.00352196,0.00397521,0.998888,0.0106647,0.0459282,-0.000477052,-0.293403,-0.0132397,-0.87973,30,3,39038,3925641
39,2,0.998888,0.0106856,0.04591,-0.000474589,-0.876168,0.0729212,9.77694,0.478424,-0.153569,0.813303,-0.0087632,0.000719398,0.0977693,1,4.88889e-05,-7.69993e-06,1.45285e-05,0.00977779,-0.00153999,0.0029057,0.998888,0.0106856,0.04591,-0.000474589,-0.293819,-0.0156926,-0.878773,30,3,39039,3925741
39,3,0.99889,0.0107042,0.0458739,-0.000471352,-0.8636,0.0938591,9.77773,0.474948,-0.147247,0.814492,-0.00864107,0.0009292,0.0977769,1,4.67057e-05,-2.57624e-05,1.48769e-05,0.00934114,-0.00515249,0.00297539,0.99889,0.0107042,0.0458739,-0.000471352,-0.29428,-0.0161854,-0.878276,30,3,39040,3925841
39,4,0.99889,0.0107042,0.0458739,-0.000471352,-0.8636,0.0938591,9.77773,0.474948,-0.147247,0.814492,-0.00864107,0.0009292,0.0977769,1,4.67057e-05,-2.57624e-05,1.48769e-05,0.00934114,-0.00515249,0.00297539,0.99889,0.0107042,0.0458739,-0.000471352,-0.29428,-0.0161854,-0.878276,30,3,39040,3925841
40,1,0.998892,0.0107313,0.0458296,-0.000454788,-0.857862,0.0893923,9.77799,0.49858,-0.143066,0.807214,-0.008583,0.00088647,0.0977795,1,3.59191e-05,-2.21656e-05,2.49783e-05,0.00718381,-0.00443311,0.00499566,0.998892,0.0107313,0.0458296,-0.000454788,-0.295863,-0.0151077,-0.883296,30,3,39042,3926041
40,2,0.998893,0.0107563,0.0458014,-0.000448663,-0.856829,0.0868895,9.76947,0.488375,-0.144558,0.804788,-0.00857179,0.000858253,0.0976945,1,5.29812e-05,-1.77471e-05,1.69499e-05,0.0105962,-0.00354942,0.00338997,0.998893,0.0107563,0.0458014,-0.000448663,-0.295908,-0.0145928,-0.884799,30,3,39043,3926141
40,3,0.998893,0.0107563,0.0458014,-0.000448663,-0.856829,0.0868895,9.76947,0.488375,-0.144558,0.804788,-0.00857179,0.000858253,0.0976945,1,5.29812e-05,-1.77471e-05,1.69499e-05,0.0105962,-0.00354942,0.00338997,0.998893,0.0107563,0.0458014,-0.000448663,-0.295908,-0.0145928,-0.884799,30,3,39043,3926141
40,4,0.998893,0.0107563,0.0458014,-0.000448663,-0.856829,0.0868895,9.76947,0.488375,-0.144558,0.804788,-0.00857179,0.000858253,0.0976945,1,5.29812e-05,-1.77471e-05,1.69499e-05,0.0105962,-0.00354942,0.00338997,0.998893,0.0107563,0.0458014,-0.000448663,-0.295908,-0.0145928,-0.884799,30,3,39043,3926141
41,1,0.998895,0.0107889,0.0457412,-0.000434722,-0.78099,0.0503381,9.77883,0.572998,-0.180481,0.814021,-0.00781351,0.000494369,0.097788,1,4.46588e-05,-1.83955e-05,1.77825e-05,0.00893176,-0.00367909,0.0035565,0.998895,0.0107889,0.0457412,-0.000434722,-0.293811,-0.0161803,-0.878783,30,3,39045,3926341
41,2,0.998896,0.0108084,0.0457195,-0.000437679,-0.748313,0.0355861,9.78526,0.598778,-0.192968,0.803077,-0.00748531,0.000346408,0.0978524,1,4.75961e-05,-1.10825e-05,9.24262e-06,0.00951923,-0.00221651,0.00184852,0.998896,0.0108084,0.0457195,-0.000437679,-0.295193,-0.0176587,-0.877295,30,3,39046,3926441
41,3,0.998896,0.0108084,0.0457195,-0.000437679,-0.748313,0.0355861,9.78526,0.598778,-0.192968,0.803077,-0.00748531,0.000346408,0.0978524,1,4.75961e-05,-1.10825e-05,9.24262e-06,0.00951923,-0.00221651,0.00184852,0.998896,0.0108084,0.0457195,-0.000437679,-0.295193,-0.0176587,-0.877295,30,3,39046,3926441
41,4,0.998896,0.0108084,0.0457195,-0.000437679,-0.748313,0.0355861,9.78526,0.598778,-0.192968,0.803077,-0.00748531,0.000346408,0.0978524,1,4.75961e-05,-1.10825e-05,9.24262e-06,0.00951923,-0.00221651,0.00184852,0.998896,0.0108084,0.0457195,-0.000437679,-0.295193,-0.0176587,-0.877295,30,3,39046,3926441
42,1,0.998896,0.0108784,0.0456958,-0.000449143,-0.831288,0.106759,9.76505,0.511314,-0.137621,0.794669,-0.0083136,0.0010547,0.0976506,1,6.57012e-05,-3.66533e-06,3.45096e-06,0.0131402,-0.000733066,0.000690191,0.998896,0.0108784,0.0456958,-0.000449143,-0.294419,-0.0136744,-0.88226,30,3,39048,3926641
42,2,0.998896,0.0109029,0.0456811,-0.000443148,-0.872627,0.0880541,9.77467,0.474248,-0.146211,0.808538,-0.00872687,0.000869962,0.0977467,1,5.24913e-05,-2.93347e-06,1.8224e-05,0.0104983,-0.000586694,0.0036448,0.998896,0.0109029,0.0456811,-0.000443148,-0.293942,-0.0141571,-0.882778,30,3,39049,3926741
42,3,0.998897,0.0109395,0.0456662,-0.000443094,-0.863125,0.0630905,9.79305,0.48169,-0.166863,0.827721,-0.00863191,0.000618022,0.0979305,1,6.47083e-05,-3.30657e-06,1.21296e-05,0.0129417,-0.000661314,0.00242591,0.998897,0.0109395,0.0456662,-0.000443094,-0.293897,-0.0161172,-0.882317,30,3,39050,3926841
42,4,0.998897,0.0109395,0.0456662,-0.000443094,-0.863125,0.0630905,9.79305,0.48169,-0.166863,0.827721,-0.00863191,0.000618022,0.0979305,1,6.47083e-05,-3.30657e-06,1.21296e-05,0.0129417,-0.000661314,0.00242591,0.998897,0.0109395,0.0456662,-0.000443094,-0.293897,-0.0161172,-0.882317,30,3,39050,3926841
43,1,0.998897,0.0109951,0.0456416,-0.000432737,-0.86267,0.0782648,9.77384,0.482759,-0.156079,0.809089,-0.00862772,0.000771515,0.0977384,1,5.49797e-05,-5.0217e-06,2.23629e-05,0.0109959,-0.00100434,0.00447257,0.998897,0.0109951,0.0456416,-0.000432737,-0.295316,-0.014678,-0.880258,30,3,39052,3927041
43,2,0.998897,0.0110306,0.0456332,-0.000441841,-0.897383,0.0681439,9.7733,0.455694,-0.177097,0.820812,-0.0089733,0.00066887,0.0977331,1,6.40731e-05,2.70084e-06,2.47361e-06,0.0128146,0.000540167,0.000494722,0.998897,0.0110306,0.0456332,-0.000441841,-0.295361,-0.0141632,-0.881762,30,3,39053,3927141
43,3,0.998897,0.0110306,0.0456332,-0.000441841,-0.897383,0.0681439,9.7733,0.455694,-0.177097,0.820812,-0.0089733,0.00066887,0.0977331,1,6.40731e-05,2.70084e-06,2.47361e-06,0.0128146,0.000540167,0.000494722,0.998897,0.0110306,0.0456332,-0.000441841,-0.295361,-0.0141632,-0.881762,30,3,39053,3927141
43,4,0.998897,0.0110306,0.0456332,-0.000441841,-0.897383,0.0681439,9.7733,0.455694,-0.177097,0.820812,-0.0089733,0.00066887,0.0977331,1,6.40731e-05,2.70084e-06,2.47361e-06,0.0128146,0.000540167,0.000494722,0.998897,0.0110306,0.0456332,-0.000441841,-0.295361,-0.0141632,-0.881762,30,3,39053,3927141
44,1,0.998897,0.0110659,0.045633,-0.000452955,-0.990048,0.114135,9.76379,0.368225,-0.128376,0.808684,-0.00989759,0.00113226,0.0976383,1,4.50797e-05,1.49592e-05,1.47984e-05,0.00901595,0.00299185,0.00295968,0.998897,0.0110659,0.045633,-0.000452955,-0.293473,-0.0141521,-0.883286,30,3,39055,3927341
44,2,0.998898,0.0110891,0.0456029,-0.000446693,-1.02272,0.105354,9.75921,0.325329,-0.125667,0.812547,-0.0102312,0.00104325,0.0975918,1,5.08296e-05,-2.00573e-05,1.77436e-05,0.0101659,-0.00401145,0.00354872,0.998898,0.0110891,0.0456029,-0.000446693,-0.29247,-0.0137084,-0.88126,30,3,39056,3927441
44,3,0.998898,0.0110891,0.0456029,-0.000446693,-1.02272,0.105354,9.75921,0.325329,-0.125667,0.812547,-0.0102312,0.00104325,0.0975918,1,5.08296e-05,-2.00573e-05,1.77436e-05,0.0101659,-0.00401145,0.00354872,0.998898,0.0110891,0.0456029,-0.000446693,-0.29247,-0.0137084,-0.88126,30,3,39056,3927441
44,4,0.998898,0.0110891,0.0456029,-0.000446693,-1.02272,0.105354,9.75921,0.325329,-0.125667,0.812547,-0.0102312,0.00104325,0.0975918,1,5.08296e-05,-2.00573e-05,1.77436e-05,0.0101659,-0.00401145,0.00354872,0.998898,0.0110891,0.0456029,-0.000446693,-0.29247,-0.0137084,-0.88126,30,3,39056,3927441
45,1,0.9989,0.0111244,0.0455426,-0.000428632,-0.945332,0.0879386,9.7599,0.389465,-0.16581,0.812575,-0.00945764,0.000868581,0.0975987,1,5.32922e-05,-2.19271e-05,2.12993e-05,0.0106584,-0.00438541,0.00425986,0.9989,0.0111244,0.0455426,-0.000428632,-0.29627,-0.0151578,-0.880265,30,3,39058,3927641
45,2,0.998902,0.0111388,0.0455104,-0.000423345,-0.896693,0.0813927,9.75579,0.448836,-0.162915,0.792376,-0.00897161,0.000805477,0.0975575,1,4.1874e-05,-2.38588e-05,1.55812e-05,0.0083748,-0.00477176,0.00311624,0.998902,0.0111388,0.0455104,-0.000423345,-0.294868,-0.0156215,-0.882302,30,3,39059,3927741
45,3,0.998903,0.0111672,0.0454812,-0.000403217,-0.8969,0.0738745,9.77675,0.451623,-0.162133,0.813042,-0.00897307,0.00072739,0.0977672,1,5.51973e-05,-2.0614e-05,3.13282e-05,0.0110395,-0.0041228,0.00626565,0.998903,0.0111672,0.0454812,-0.000403217,-0.293416,-0.0161212,-0.882319,30,3,39060,3927841
45,4,0.998903,0.0111672,0.0454812,-0.000403217,-0.8969,0.0738745,9.77675,0.451623,-0.162133,0.813042,-0.00897307,0.00072739,0.0977672,1,5.51973e-05,-2.0614e-05,3.13282e-05,0.0110395,-0.0041228,0.00626565,0.998903,0.0111672,0.0454812,-0.000403217,-0.293416,-0.0161212,-0.882319,30,3,39060,3927841
46,1,0.998904,0.0112061,0.0454375,-0.000377213,-0.921716,0.101927,9.76969,0.406732,-0.139847,0.824437,-0.00921905,0.00101061,0.0976968,1,4.16972e-05,-9.39143e-06,2.80999e-05,0.00833943,-0.00187829,0.00561998,0.998904,0.0112061,0.0454375,-0.000377213,-0.29293,-0.0142012,-0.880764,30,3,39062,3928041
46,2,0.998905,0.0112213,0.0454232,-0.00037741,-0.949124,0.0869645,9.77043,0.401205,-0.159155,0.825668,-0.00949262,0.000861102,0.0977042,1,4.26881e-05,-6.97572e-06,1.06449e-05,0.00853762,-0.00139514,0.00212897,0.998905,0.0112213,0.0454232,-0.00037741,-0.293383,-0.0151818,-0.880278,30,3,39063,3928141
46,3,0.998905,0.0112213,0.0454232,-0.00037741,-0.949124,0.0869645,9.77043,0.401205,-0.159155,0.825668,-0.00949262,0.000861102,0.0977042,1,4.26881e-05,-6.97572e-06,1.06449e-05,0.00853762,-0.00139514,0.00212897,0.998905,0.0112213,0.0454232,-0.00037741,-0.293383,-0.0151818,-0.880278,30,3,39063,3928141
46,4,0.998905,0.0112213,0.0454232,-0.00037741,-0.949124,0.0869645,9.77043,0.401205,-0.159155,0.825668,-0.00949262,0.000861102,0.0977042,1,4.26881e-05,-6.97572e-06,1.06449e-05,0.00853762,-0.00139514,0.00212897,0.998905,0.0112213,0.0454232,-0.00037741,-0.293383,-0.0151818,-0.880278,30,3,39063,3928141
47,1,0.998906,0.0112442,0.0453829,-0.000356438,-0.931984,0.0874162,9.78152,0.411086,-0.156646,0.828609,-0.00932223,0.000866676,0.0978151,1,3.63981e-05,-1.2051e-05,1.96044e-05,0.00727961,-0.00241019,0.00392088,0.998906,0.0112442,0.0453829,-0.000356438,-0.294847,-0.0161182,-0.881808,30,3,39065,3928341
47,2,0.998908,0.0112645,0.0453463,-0.000345305,-0.934291,0.0834555,9.76353,0.397708,-0.162447,0.805428,-0.00934885,0.000824918,0.0976349,1,4.72908e-05,-3.0201e-05,2.14929e-05,0.00945816,-0.00604019,0.00429859,0.998908,0.0112645,0.0453463,-0.000345305,-0.293461,-0.0141611,-0.882781,30,3,39066,3928441
47,3,0.998908,0.0112645,0.0453463,-0.000345305,-0.934291,0.0834555,9.76353,0.397708,-0.162447,0.805428,-0.00934885,0.000824918,0.0976349,1,4.72908e-05,-3.0201e-05,2.14929e-05,0.00945816,-0.00604019,0.00429859,0.998908,0.0112645,0.0453463,-0.000345305,-0.293461,-0.0141611,-0.882781,30,3,39066,3928441
47,4,0.998908,0.0112645,0.0453463,-0.000345305,-0.934291,0.0834555,9.76353,0.397708,-0.162447,0.805428,-0.00934885,0.000824918,0.0976349,1,4.72908e-05,-3.0201e-05,2.14929e-05,0.00945816,-0.00604019,0.00429859,0.998908,0.0112645,0.0453463,-0.000345305,-0.293461,-0.0141611,-0.882781,30,3,39066,3928441
48,1,0.99891,0.0112928,0.0452963,-0.000319663,-0.937517,0.06364,9.78102,0.400977,-0.185407,0.826931,-0.00937956,0.000628448,0.0978098,1,3.90039e-05,-2.23405e-05,1.7166e-05,0.00780078,-0.00446809,0.0034332,0.99891,0.0112928,0.0452963,-0.000319663,-0.29481,-0.0161453,-0.880293,30,3,39068,3928641
48,2,0.998911,0.0113072,0.0452684,-0.000326932,-0.927882,0.0796245,9.77464,0.396583,-0.168583,0.818649,-0.00928322,0.000787973,0.097746,1,4.20195e-05,-2.24912e-05,3.11091e-06,0.0084039,-0.00449824,0.000622183,0.998911,0.0113072,0.0452684,-0.000326932,-0.29673,-0.0142053,-0.878726,30,3,39069,3928741
48,3,0.998911,0.0113167,0.0452526,-0.000320563,-0.85147,0.0728003,9.76252,0.471798,-0.177881,0.799125,-0.00851676,0.000720583,0.0976251,1,3.64948e-05,-1.04419e-05,1.72333e-05,0.00729896,-0.00208838,0.00344665,0.998911,0.0113167,0.0452526,-0.000320563,-0.294863,-0.0136974,-0.880744,30,3,39070,3928841
48,4,0.998911,0.0113167,0.0452526,-0.000320563,-0.85147,0.0728003,9.76252,0.471798,-0.177881,0.799125,-0.00851676,0.000720583,0.0976251,1,3.64948e-05,-1.04419e-05,1.72333e-05,0.00729896,-0.00208838,0.00344665,0.998911,0.0113167,0.0452526,-0.000320563,-0.294863,-0.0136974,-0.880744,30,3,39070,3928841
49,1,0.998911,0.0113661,0.045238,-0.000320626,-0.840046,0.0516108,9.78431,0.502991,-0.194193,0.822595,-0.00840034,0.00050424,0.0978432,1,5.87981e-05,7.16835e-07,2.15789e-05,0.0117596,0.000143367,0.00431578,0.998911,0.0113661,0.045238,-0.000320626,-0.294953,-0.0141131,-0.884793,30,3,39072,3929041
49,2,0.998911,0.0114018,0.0452346,-0.000325022,-0.884067,0.0645796,9.77284,0.452819,-0.184286,0.81026,-0.00884029,0.000633255,0.0977285,1,6.35292e-05,1.95814e-06,7.02773e-06,0.0127058,0.000391629,0.00140555,0.998911,0.0114018,0.0452346,-0.000325022,-0.293482,-0.0151096,-0.884317,30,3,39073,3929141
49,3,0.998911,0.0114018,0.0452346,-0.000325022,-0.884067,0.0645796,9.77284,0.452819,-0.184286,0.81026,-0.00884029,0.000633255,0.0977285,1,6.35292e-05,1.95814e-06,7.02773e-06,0.0127058,0.000391629,0.00140555,0.998911,0.0114018,0.0452346,-0.000325022,-0.293482,-0.0151096,-0.884317,30,3,39073,3929141
49,4,0.998911,0.0114018,0.0452346,-0.000325022,-0.884067,0.0645796,9.77284,0.452819,-0.184286,0.81026,-0.00884029,0.000633255,0.0977285,1,6.35292e-05,1.95814e-06,7.02773e-06,0.0127058,0.000391629,0.00140555,0.998911,0.0114018,0.0452346,-0.000325022,-0.293482,-0.0151096,-0.884317,30,3,39073,3929141
50,1,0.998911,0.0114325,0.0452228,-0.000302304,-0.875788,0.0955071,9.77576,0.456964,-0.163791,0.815289,-0.00875894,0.000946851,0.0977576,1,4.03746e-05,-5.26912e-06,1.86397e-05,0.00807492,-0.00105382,0.00372794,0.998911,0.0114325,0.0452228,-0.000302304,-0.294296,-0.0166551,-0.879297,30,3,39075,3929341
50,2,0.998912,0.0114475,0.0452107,-0.000309966,-0.854717,0.0921838,9.77187,0.470274,-0.159933,0.804912,-0.00854855,0.000913413,0.0977186,1,4.28297e-05,-7.04072e-06,3.18175e-06,0.00856594,-0.00140814,0.00063635,0.998912,0.0114475,0.0452107,-0.000309966,-0.29479,-0.0166421,-0.879799,30,3,39076,3929441
50,3,0.998912,0.0114475,0.0452107,-0.000309966,-0.854717,0.0921838,9.77187,0.470274,-0.159933,0.804912,-0.00854855,0.000913413,0.0977186,1,4.28297e-05,-7.04072e-06,3.18175e-06,0.00856594,-0.00140814,0.00063635,0.998912,0.0114475,0.0452107,-0.000309966,-0.29479,-0.0166421,-0.879799,30,3,39076,3929441
50,4,0.998912,0.0114475,0.0452107,-0.000309966,-0.854717,0.0921838,9.77187,0.470274,-0.159933,0.804912,-0.00854855,0.000913413,0.0977186,1,4.28297e-05,-7.04072e-06,3.18175e-06,0.00856594,-0.00140814,0.00063635,0.998912,0.0114475,0.0452107,-0.000309966,-0.29479,-0.0166421,-0.879799,30,3,39076,3929441
51,1,0.998912,0.0114889,0.0452001,-0.000316041,-0.83052,0.0561409,9.78327,0.511913,-0.189024,0.819642,-0.00830607,0.000550843,0.0978327,1,5.37745e-05,-4.47237e-06,2.6749e-06,0.0107549,-0.000894473,0.000534981,0.998912,0.0114889,0.0452001,-0.000316041,-0.295365,-0.0160872,-0.88332,30,3,39078,3929641
51,2,0.998912,0.0115104,0.0451909,-0.00031359,-0.884839,0.0739654,9.76241,0.45531,-0.172663,0.802088,-0.00884914,0.000729854,0.0976242,1,4.89373e-05,-3.7366e-06,1.39027e-05,0.00978746,-0.00074732,0.00278054,0.998912,0.0115104,0.0451909,-0.00031359,-0.293433,-0.016591,-0.88334,30,3,39079,3929741
51,3,0.998912,0.0115415,0.0451815,-0.000302708,-0.858503,0.102724,9.77197,0.464257,-0.155795,0.812606,-0.00858586,0.0010155,0.0977198,1,5.80195e-05,-4.04168e-06,2.33223e-05,0.0116039,-0.000808336,0.00466446,0.998912,0.0115415,0.0451815,-0.000302708,-0.293885,-0.0161262,-0.881812,30,3,39080,3929841
51,4,0.998912,0.0115415,0.0451815,-0.000302708,-0.858503,0.102724,9.77197,0.464257,-0.155795,0.812606,-0.00858586,0.0010155,0.0977198,1,5.80195e-05,-4.04168e-06,2.33223e-05,0.0116039,-0.000808336,0.00466446,0.998912,0.0115415,0.0451815,-0.000302708,-0.293885,-0.0161262,-0.881812,30,3,39080,3929841
52,1,0.998913,0.0115805,0.0451522,-0.000288107,-0.886083,0.087123,9.77307,0.442539,-0.162768,0.817339,-0.00886351,0.000862894,0.0977306,1,4.06803e-05,-1.35044e-05,2.16864e-05,0.00813606,-0.00270088,0.00433728,0.998913,0.0115805,0.0451522,-0.000288107,-0.295813,-0.0151437,-0.881276,30,3,39082,3930041
52,2,0.998913,0.0116013,0.045139,-0.000294403,-0.895655,0.0772032,9.77744,0.447637,-0.172361,0.822566,-0.00895817,0.000762493,0.0977744,1,4.82964e-05,-8.23333e-06,5.29017e-06,0.00965929,-0.00164667,0.00105803,0.998913,0.0116013,0.045139,-0.000294403,-0.293954,-0.0141481,-0.883283,30,3,39083,3930141
52,3,0.998913,0.0116013,0.045139,-0.000294403,-0.895655,0.0772032,9.77744,0.447637,-0.172361,0.822566,-0.00895817,0.000762493,0.0977744,1,4.82964e-05,-8.23333e-06,5.29017e-06,0.00965929,-0.00164667,0.00105803,0.998913,0.0116013,0.045139,-0.000294403,-0.293954,-0.0141481,-0.883283,30,3,39083,3930141
52,4,0.998913,0.0116013,0.045139,-0.000294403,-0.895655,0.0772032,9.77744,0.447637,-0.172361,0.822566,-0.00895817,0.000762493,0.0977744,1,4.82964e-05,-8.23333e-06,5.29017e-06,0.00965929,-0.00164667,0.00105803,0.998913,0.0116013,0.045139,-0.000294403,-0.293954,-0.0141481,-0.883283,30,3,39083,3930141
53,1,0.998914,0.0116587,0.0451071,-0.000275153,-0.953143,0.0816082,9.77923,0.387505,-0.172557,0.828616,-0.00953262,0.000804556,0.0977923,1,5.61252e-05,-5.84316e-06,2.875e-05,0.011225,-0.00116863,0.00575,0.998914,0.0116587,0.0451071,-0.000275153,-0.294867,-0.0141762,-0.881259,30,3,39085,3930341
53,2,0.998915,0.011671,0.0450764,-0.000290589,-0.902007,0.085535,9.77351,0.42581,-0.171444,0.820046,-0.00902525,0.000847595,0.0977346,1,4.00693e-05,-2.65258e-05,-4.27499e-06,0.00801387,-0.00530515,-0.000854998,0.998915,0.011671,0.0450764,-0.000290589,-0.293383,-0.0151818,-0.880278,30,3,39086,3930441
53,3,0.998915,0.011671,0.0450764,-0.000290589,-0.902007,0.085535,9.77351,0.42581,-0.171444,0.820046,-0.00902525,0.000847595,0.0977346,1,4.00693e-05,-2.65258e-05,-4.27499e-06,0.00801387,-0.00530515,-0.000854998,0.998915,0.011671,0.0450764,-0.000290589,-0.293383,-0.0151818,-0.880278,30,3,39086,3930441
53,4,0.998915,0.011671,0.0450764,-0.000290589,-0.902007,0.085535,9.77351,0.42581,-0.171444,0.820046,-0.00902525,0.000847595,0.0977346,1,4.00693e-05,-2.65258e-05,-4.27499e-06,0.00801387,-0.00530515,-0.000854998,0.998915,0.011671,0.0450764,-0.000290589,-0.293383,-0.0151818,-0.880278,30,3,39086,3930441
54,1,0.998916,0.0117165,0.0450492,-0.000296632,-0.92315,0.06853,9.76738,0.408284,-0.192908,0.803175,-0.00923341,0.000675223,0.0976737,1,5.0759e-05,-9.73767e-06,8.72279e-06,0.0101518,-0.00194753,0.00174456,0.998916,0.0117165,0.0450492,-0.000296632,-0.292861,-0.0161793,-0.879293,30,3,39088,3930641
54,2,0.998917,0.0117366,0.0450224,-0.000286438,-0.960322,0.0867334,9.75965,0.372026,-0.170895,0.80034,-0.00960774,0.000857806,0.0975961,1,4.67299e-05,-2.29534e-05,2.11487e-05,0.00934599,-0.00459067,0.00422975,0.998917,0.0117366,0.0450224,-0.000286438,-0.292943,-0.0156375,-0.882311,30,3,39089,3930741
54,3,0.998918,0.0117357,0.0449989,-0.000275889,-0.928909,0.0787749,9.76921,0.398018,-0.171113,0.807395,-0.009293,0.000782317,0.0976918,1,2.59151e-05,-1.9878e-05,1.98297e-05,0.00518302,-0.0039756,0.00396594,0.998918,0.0117357,0.0449989,-0.000275889,-0.293445,-0.016582,-0.883845,30,3,39090,3930841
54,4,0.998918,0.0117357,0.0449989,-0.000275889,-0.928909,0.0787749,9.76921,0.398018,-0.171113,0.807395,-0.009293,0.000782317,0.0976918,1,2.59151e-05,-1.9878e-05,1.98297e-05,0.00518302,-0.0039756,0.00396594,0.998918,0.0117357,0.0449989,-0.000275889,-0.293445,-0.016582,-0.883845,30,3,39090,3930841
55,1,0.998919,0.0117686,0.0449718,-0.000242329,-0.855919,0.0713342,9.77203,0.482522,-0.181507,0.804541,-0.00855957,0.000703125,0.0977204,1,5.03919e-05,-1.76554e-06,2.14877e-05,0.0100784,-0.000353108,0.00429754,0.998919,0.0117686,0.0449718,-0.000242329,-0.293872,-0.01469,-0.880265,30,3,39092,3931041
55,2,0.998919,0.0117975,0.0449532,-0.000238403,-0.828124,0.0902245,9.76048,0.495935,-0.173268,0.799411,-0.00828423,0.000891089,0.0976046,1,5.57993e-05,-1.51619e-05,1.58995e-05,0.0111599,-0.00303238,0.00317991,0.998919,0.0117975,0.0449532,-0.000238403,-0.294366,-0.014677,-0.880768,30,3,39093,3931141
55,3,0.998919,0.0117975,0.0449532,-0.000238403,-0.828124,0.0902245,9.76048,0.495935,-0.173268,0.799411,-0.00828423,0.000891089,0.0976046,1,5.57993e-05,-1.51619e-05,1.58995e-05,0.0111599,-0.00303238,0.00317991,0.998919,0.0117975,0.0449532,-0.000238403,-0.294366,-0.014677,-0.880768,30,3,39093,3931141
55,4,0.998919,0.0117975,0.0449532,-0.000238403,-0.828124,0.0902245,9.76048,0.495935,-0.173268,0.799411,-0.00828423,0.000891089,0.0976046,1,5.57993e-05,-1.51619e-05,1.58995e-05,0.0111599,-0.00303238,0.00317991,0.998919,0.0117975,0.0449532,-0.000238403,-0.294366,-0.014677,-0.880768,30,3,39093,3931141
56,1,0.998919,0.0118237,0.0449507,-0.000209666,-0.936655,0.0782652,9.76754,0.408261,-0.181948,0.81238,-0.00936503,0.000773714,0.0976756,1,4.48041e-05,7.85675e-06,9.93529e-06,0.00896081,0.00157135,0.00198706,0.998919,0.0118237,0.0449507,-0.000209666,-0.293909,-0.0146629,-0.88178,30,3,39095,3931341
56,2,0.998919,0.0118438,0.0449549,-0.00020564,-0.964157,0.0680961,9.76526,0.365738,-0.185975,0.809496,-0.00964017,0.000671501,0.0976528,1,4.69759e-05,7.29417e-06,1.47542e-05,0.00939518,0.00145883,0.00295084,0.998919,0.0118438,0.0449549,-0.00020564,-0.293416,-0.014676,-0.881277,30,3,39096,3931441
56,3,0.998919,0.0118438,0.0449549,-0.00020564,-0.964157,0.0680961,9.76526,0.365738,-0.185975,0.809496,-0.00964017,0.000671501,0.0976528,1,4.69759e-05,7.29417e-06,1.47542e-05,0.00939518,0.00145883,0.00295084,0.998919,0.0118438,0.0449549,-0.00020564,-0.293416,-0.014676,-0.881277,30,3,39096,3931441
56,4,0.998919,0.0118438,0.0449549,-0.00020564,-0.964157,0.0680961,9.76526,0.365738,-0.185975,0.809496,-0.00964017,0.000671501,0.0976528,1,4.69759e-05,7.29417e-06,1.47542e-05,0.00939518,0.00145883,0.00295084,0.998919,0.0118438,0.0449549,-0.00020564,-0.293416,-0.014676,-0.881277,30,3,39096,3931441
57,1,0.998919,0.0118795,0.0449347,-0.000206037,-0.925891,0.0700582,9.77487,0.399469,-0.191048,0.821366,-0.00926023,0.000691485,0.0977486,1,4.52734e-05,-6.65337e-06,1.33293e-05,0.00905468,-0.00133068,0.00266585,0.998919,0.0118795,0.0449347,-0.000206037,-0.294366,-0.0161222,-0.88181,30,3,39098,3931641
57,2,0.998919,0.0118961,0.0449251,-0.000203649,-0.884811,0.0868642,9.77305,0.437599,-0.173799,0.815013,-0.00884956,0.000859938,0.0977304,1,4.33922e-05,-7.33713e-06,1.25746e-05,0.00867844,-0.00146743,0.00251492,0.998919,0.0118961,0.0449251,-0.000203649,-0.294329,-0.014704,-0.879253,30,3,39099,3931741
57,3,0.99892,0.0119106,0.0449045,-0.000196475,-0.837188,0.0991154,9.77928,0.48518,-0.158266,0.819397,-0.00837547,0.000982818,0.0977926,1,4.10713e-05,-1.81815e-05,1.80508e-05,0.00821426,-0.00363629,0.00361016,0.99892,0.0119106,0.0449045,-0.000196475,-0.293387,-0.0142152,-0.879752,30,3,39100,3931841
57,4,0.99892,0.0119106,0.0449045,-0.000196475,-0.837188,0.0991154,9.77928,0.48518,-0.158266,0.819397,-0.00837547,0.000982818,0.0977926,1,4.10713e-05,-1.81815e-05,1.80508e-05,0.00821426,-0.00363629,0.00361016,0.99892,0.0119106,0.0449045,-0.000196475,-0.293387,-0.0142152,-0.879752,30,3,39100,3931841
58,1,0.998921,0.0119605,0.0448849,-0.000176952,-0.867948,0.0673179,9.77548,0.453944,-0.201558,0.812126,-0.00868191,0.000662274,0.0977547,1,5.38956e-05,-1.22876e-05,2.11709e-05,0.0107791,-0.00245751,0.00423418,0.998921,0.0119605,0.0448849,-0.000176952,-0.293905,-0.0156295,-0.882306,30,3,39102,3932041
58,2,0.99892,0.0120026,0.0448766,-0.000163981,-0.886107,0.0764818,9.77941,0.448302,-0.189552,0.821798,-0.00886226,0.000751016,0.0977941,1,6.84261e-05,-5.91759e-06,2.36353e-05,0.0136852,-0.00118352,0.00472705,0.99892,0.0120026,0.0448766,-0.000163981,-0.294386,-0.0141802,-0.881262,30,3,39103,3932141
58,3,0.99892,0.0120026,0.0448766,-0.000163981,-0.886107,0.0764818,9.77941,0.448302,-0.189552,0.821798,-0.00886226,0.000751016,0.0977941,1,6.84261e-05,-5.91759e-06,2.36353e-05,0.0136852,-0.00118352,0.00472705,0.99892,0.0120026,0.0448766,-0.000163981,-0.294386,-0.0141802,-0.881262,30,3,39103,3932141
58,4,0.99892,0.0120026,0.0448766,-0.000163981,-0.886107,0.0764818,9.77941,0.448302,-0.189552,0.821798,-0.00886226,0.000751016,0.0977941,1,6.84261e-05,-5.91759e-06,2.36353e-05,0.0136852,-0.00118352,0.00472705,0.99892,0.0120026,0.0448766,-0.000163981,-0.294386,-0.0141802,-0.881262,30,3,39103,3932141
59,1,0.998922,0.0120381,0.0448258,-0.000167611,-0.908849,0.0772237,9.75685,0.424595,-0.184432,0.796674,-0.00909353,0.000763894,0.0975681,1,4.13843e-05,-2.57175e-05,1.46741e-05,0.00827685,-0.00514349,0.00293482,0.998922,0.0120381,0.0448258,-0.000167611,-0.295324,-0.0141902,-0.880247,30,3,39105,3932341
59,2,0.998923,0.0120529,0.0448132,-0.000166007,-0.895075,0.0840169,9.76665,0.421338,-0.182305,0.812935,-0.00895282,0.000831859,0.0976663,1,4.14587e-05,-1.04736e-05,1.18372e-05,0.00829174,-0.00209473,0.00236744,0.998923,0.0120529,0.0448132,-0.000166007,-0.294341,-0.014695,-0.879758,30,3,39106,3932441
59,3,0.998923,0.0120529,0.0448132,-0.000166007,-0.895075,0.0840169,9.76665,0.421338,-0.182305,0.812935,-0.00895282,0.000831859,0.0976663,1,4.14587e-05,-1.04736e-05,1.18372e-05,0.00829174,-0.00209473,0.00236744,0.998923,0.0120529,0.0448132,-0.000166007,-0.294341,-0.014695,-0.879758,30,3,39106,3932441
59,4,0.998923,0.0120529,0.0448132,-0.000166007,-0.895075,0.0840169,9.76665,0.421338,-0.182305,0.812935,-0.00895282,0.000831859,0.0976663,1,4.14587e-05,-1.04736e-05,1.18372e-05,0.00829174,-0.00209473,0.00236744,0.998923,0.0120529,0.0448132,-0.000166007,-0.294341,-0.014695,-0.879758,30,3,39106,3932441
60,1,0.998923,0.0121008,0.0447892,-0.00014185,-0.876171,0.0572403,9.77171,0.45364,-0.20563,0.80494,-0.00876311,0.000561192,0.097717,1,5.49385e-05,-6.99437e-06,2.70962e-05,0.0109877,-0.00139887,0.00541924,0.998923,0.0121008,0.0447892,-0.00014185,-0.294419,-0.0151197,-0.883303,30,3,39108,3932641
60,2,0.998923,0.0121176,0.0447908,-0.000125551,-0.927145,0.0719393,9.7569,0.392518,-0.201514,0.79657,-0.00927073,0.000710521,0.0975692,1,4.30047e-05,3.90623e-06,2.5915e-05,0.00860093,0.000781246,0.00518301,0.998923,0.0121176,0.0447908,-0.000125551,-0.293432,-0.0151457,-0.882298,30,3,39109,3932741
60,3,0.998922,0.0121424,0.0447978,-0.00012816,-0.905796,0.0899511,9.76709,0.41244,-0.186467,0.805712,-0.00905627,0.000889244,0.0976712,1,5.17946e-05,8.71375e-06,8.27005e-06,0.0103589,0.00174275,0.00165401,0.998922,0.0121424,0.0447978,-0.00012816,-0.293831,-0.0156836,-0.879277,30,3,39110,3932841
60,4,0.998922,0.0121424,0.0447978,-0.00012816,-0.905796,0.0899511,9.76709,0.41244,-0.186467,0.805712,-0.00905627,0.000889244,0.0976712,1,5.17946e-05,8.71375e-06,8.27005e-06,0.0103589,0.00174275,0.00165401,0.998922,0.0121424,0.0447978,-0.00012816,-0.293831,-0.0156836,-0.879277,30,3,39110,3932841
61,1,0.998923,0.0122076,0.044764,-0.000134685,-0.911137,0.0625946,9.75946,0.406375,-0.191824,0.8086,-0.00911551,0.000614168,0.0975943,1,6.03122e-05,-2.12421e-05,2.8682e-07,0.0120624,-0.00424843,5.73639e-05,0.998923,0.0122076,0.044764,-0.000134685,-0.294822,-0.0132457,-0.878714,30,3,39112,3933041
61,2,0.998924,0.0122324,0.0447409,-0.00012942,-0.855312,0.0732001,9.78054,0.465088,-0.195134,0.816712,-0.00855736,0.000721638,0.0978051,1,5.1558e-05,-2.15561e-05,1.62127e-05,0.0103116,-0.00431122,0.00324254,0.998924,0.0122324,0.0447409,-0.00012942,-0.295422,-0.0141181,-0.884286,30,3,39113,3933141
61,3,0.998924,0.0122324,0.0447409,-0.00012942,-0.855312,0.0732001,9.78054,0.465088,-0.195134,0.816712,-0.00855736,0.000721638,0.0978051,1,5.1558e-05,-2.15561e-05,1.62127e-05,0.0103116,-0.00431122,0.00324254,0.998924,0.0122324,0.0447409,-0.00012942,-0.295422,-0.0141181,-0.884286,30,3,39113,3933141
61,4,0.998924,0.0122324,0.0447409,-0.00012942,-0.855312,0.0732001,9.78054,0.465088,-0.195134,0.816712,-0.00855736,0.000721638,0.0978051,1,5.1558e-05,-2.15561e-05,1.62127e-05,0.0103116,-0.00431122,0.00324254,0.998924,0.0122324,0.0447409,-0.00012942,-0.295422,-0.0141181,-0.884286,30,3,39113,3933141
62,1,0.998924,0.0122913,0.0447118,-0.000130814,-0.86815,0.0880474,9.76413,0.464863,-0.185518,0.804449,-0.00868469,0.000871206,0.0976411,1,4.58042e-05,-1.61253e-05,1.86318e-05,0.00916085,-0.00322506,0.00372636,0.998924,0.0122913,0.0447118,-0.000130814,-0.293444,-0.0136914,-0.88176,30,3,39115,3933341
62,2,0.998925,0.0123172,0.044699,-0.000121484,-0.887157,0.0738745,9.76719,0.449181,-0.187535,0.803236,-0.00887378,0.000728186,0.0976717,1,5.21745e-05,-1.11594e-05,2.07109e-05,0.0104349,-0.00223188,0.00414217,0.998925,0.0123172,0.044699,-0.000121484,-0.291878,-0.0166841,-0.878804,30,3,39116,3933441
62,3,0.998925,0.0123172,0.044699,-0.000121484,-0.887157,0.0738745,9.76719,0.449181,-0.187535,0.803236,-0.00887378,0.000728186,0.0976717,1,5.21745e-05,-1.11594e-05,2.07109e-05,0.0104349,-0.00223188,0.00414217,0.998925,0.0123172,0.044699,-0.000121484,-0.291878,-0.0166841,-0.878804,30,3,39116,3933441
62,4,0.998925,0.0123172,0.044699,-0.000121484,-0.887157,0.0738745,9.76719,0.449181,-0.187535,0.803236,-0.00887378,0.000728186,0.0976717,1,5.21745e-05,-1.11594e-05,2.07109e-05,0.0104349,-0.00223188,0.00414217,0.998925,0.0123172,0.044699,-0.000121484,-0.291878,-0.0166841,-0.878804,30,3,39116,3933441
63,1,0.998924,0.0123538,0.044694,-0.000122148,-0.93741,0.0787129,9.78724,0.388034,-0.191674,0.82663,-0.00937513,0.000778472,0.0978724,1,4.36288e-05,-5.1797e-06,6.25283e-06,0.00872576,-0.00103594,0.00125057,0.998924,0.0123538,0.044694,-0.000122148,-0.293408,-0.0151637,-0.881288,30,3,39118,3933641
63,2,0.998925,0.0123772,0.0446741,-0.000116184,-0.992469,0.0747887,9.76452,0.330561,-0.191627,0.817086,-0.00992837,0.000737795,0.0976449,1,5.00641e-05,-1.87031e-05,1.58752e-05,0.0100128,-0.00374063,0.00317503,0.998925,0.0123772,0.0446741,-0.000116184,-0.293465,-0.0146399,-0.883296,30,3,39119,3933741
63,3,0.998926,0.0123987,0.0446488,-0.000124797,-0.948613,0.0867131,9.7684,0.366124,-0.190748,0.807578,-0.00949096,0.000857567,0.0976837,1,4.88385e-05,-2.47081e-05,1.19567e-06,0.0097677,-0.00494162,0.000239135,0.998926,0.0123987,0.0446488,-0.000124797,-0.295422,-0.0141181,-0.884286,30,3,39120,3933841
63,4,0.998926,0.0123987,0.0446488,-0.000124797,-0.948613,0.0867131,9.7684,0.366124,-0.190748,0.807578,-0.00949096,0.000857567,0.0976837,1,4.88385e-05,-2.47081e-05,1.19567e-06,0.0097677,-0.00494162,0.000239135,0.998926,0.0123987,0.0446488,-0.000124797,-0.295422,-0.0141181,-0.884286,30,3,39120,3933841
64,1,0.998926,0.0124366,0.0446269,-0.000126729,-0.851918,0.0895976,9.76776,0.47391,-0.176016,0.80322,-0.00851981,0.000887751,0.0976776,1,4.18481e-05,-3.18522e-06,2.96701e-06,0.00836961,-0.000637045,0.000593402,0.998926,0.0124366,0.0446269,-0.000126729,-0.294333,-0.0151828,-0.879769,30,3,39122,3934041
64,2,0.998927,0.0124442,0.0446155,-0.000115828,-0.866154,0.0829071,9.75898,0.447491,-0.182404,0.793805,-0.00866367,0.000822135,0.0975897,1,3.35836e-05,-1.07381e-05,2.19809e-05,0.00671672,-0.00214763,0.00439619,0.998927,0.0124442,0.0446155,-0.000115828,-0.293334,-0.0166631,-0.879301,30,3,39123,3934141
64,3,0.998927,0.0124442,0.0446155,-0.000115828,-0.866154,0.0829071,9.75898,0.447491,-0.182404,0.793805,-0.00866367,0.000822135,0.0975897,1,3.35836e-05,-1.07381e-05,2.19809e-05,0.00671672,-0.00214763,0.00439619,0.998927,0.0124442,0.0446155,-0.000115828,-0.293334,-0.0166631,-0.879301,30,3,39123,3934141
64,4,0.998927,0.0124442,0.0446155,-0.000115828,-0.866154,0.0829071,9.75898,0.447491,-0.182404,0.793805,-0.00866367,0.000822135,0.0975897,1,3.35836e-05,-1.07381e-05,2.19809e-05,0.00671672,-0.00214763,0.00439619,0.998927,0.0124442,0.0446155,-0.000115828,-0.293334,-0.0166631,-0.879301,30,3,39123,3934141
65,1,0.998927,0.0124779,0.0445912,-0.000129806,-0.903838,0.0811703,9.77923,0.412481,-0.185237,0.818931,-0.00903996,0.00080307,0.0977922,1,4.34908e-05,-8.01879e-06,7.02982e-06,0.00869817,-0.00160376,0.00140596,0.998927,0.0124779,0.0445912,-0.000129806,-0.295793,-0.0170858,-0.881825,30,3,39125,3934341
65,2,0.998928,0.0125042,0.0445772,-0.000119242,-0.948854,0.0930167,9.75827,0.365332,-0.181546,0.808857,-0.00949121,0.000919539,0.0975825,1,5.26255e-05,-1.34815e-05,1.88256e-05,0.0105251,-0.00269631,0.00376513,0.998928,0.0125042,0.0445772,-0.000119242,-0.296319,-0.016567,-0.883326,30,3,39126,3934441
65,3,0.998928,0.0125042,0.0445772,-0.000119242,-0.948854,0.0930167,9.75827,0.365332,-0.181546,0.808857,-0.00949121,0.000919539,0.0975825,1,5.26255e-05,-1.34815e-05,1.88256e-05,0.0105251,-0.00269631,0.00376513,0.998928,0.0125042,0.0445772,-0.000119242,-0.296319,-0.016567,-0.883326,30,3,39126,3934441
65,4,0.998928,0.0125042,0.0445772,-0.000119242,-0.948854,0.0930167,9.75827,0.365332,-0.181546,0.808857,-0.00949121,0.000919539,0.0975825,1,5.26255e-05,-1.34815e-05,1.88256e-05,0.0105251,-0.00269631,0.00376513,0.998928,0.0125042,0.0445772,-0.000119242,-0.296319,-0.016567,-0.883326,30,3,39126,3934441
66,1,0.998929,0.0125392,0.0445457,-0.000107716,-0.885524,0.0917303,9.76868,0.433714,-0.182769,0.816879,-0.00885887,0.000907633,0.0976866,1,4.77039e-05,-1.83681e-05,1.97666e-05,0.00954078,-0.00367361,0.00395332,0.998929,0.0125392,0.0445457,-0.000107716,-0.29335,-0.0156876,-0.87928,30,3,39128,3934641
66,2,0.998929,0.0125558,0.0445404,-0.000102847,-0.878268,0.0779033,9.7831,0.436573,-0.196448,0.817347,-0.00878366,0.00077042,0.097831,1,4.23752e-05,-4.85404e-06,1.83228e-05,0.00847504,-0.000970809,0.00366457,0.998929,0.0125558,0.0445404,-0.000102847,-0.293815,-0.0152138,-0.878257,30,3,39129,3934741
66,3,0.998929,0.0125564,0.0445276,-0.000102223,-0.880342,0.0747421,9.77427,0.447834,-0.200442,0.81497,-0.00880588,0.000741971,0.0977425,1,2.68573e-05,-1.25172e-05,1.13679e-05,0.00537146,-0.00250344,0.00227359,0.998929,0.0125564,0.0445276,-0.000102223,-0.294296,-0.0166551,-0.879297,30,3,39130,3934841
66,4,0.998929,0.0125564,0.0445276,-0.000102223,-0.880342,0.0747421,9.77427,0.447834,-0.200442,0.81497,-0.00880588,0.000741971,0.0977425,1,2.68573e-05,-1.25172e-05,1.13679e-05,0.00537146,-0.00250344,0.00227359,0.998929,0.0125564,0.0445276,-0.000102223,-0.294296,-0.0166551,-0.879297,30,3,39130,3934841
67,1,0.99893,0.0125946,0.0445123,-8.40579e-05,-0.861709,0.0898851,9.77597,0.443766,-0.186721,0.814894,-0.00861913,0.00088869,0.0977596,1,4.98015e-05,-1.02372e-05,2.46131e-05,0.00996029,-0.00204745,0.00492262,0.99893,0.0125946,0.0445123,-8.40579e-05,-0.294387,-0.0170707,-0.883346,30,3,39132,3935041
67,2,0.998929,0.0126107,0.0445103,-7.90366e-05,-0.901858,0.0737307,9.77168,0.41466,-0.199895,0.818484,-0.00901895,0.000728784,0.0977169,1,4.23584e-05,-1.7695e-06,1.35379e-05,0.00847167,-0.000353901,0.00270758,0.998929,0.0126107,0.0445103,-7.90366e-05,-0.294839,-0.016606,-0.881819,30,3,39133,3935141
67,3,0.998929,0.0126107,0.0445103,-7.90366e-05,-0.901858,0.0737307,9.77168,0.41466,-0.199895,0.818484,-0.00901895,0.000728784,0.0977169,1,4.23584e-05,-1.7695e-06,1.35379e-05,0.00847167,-0.000353901,0.00270758,0.998929,0.0126107,0.0445103,-7.90366e-05,-0.294839,-0.016606,-0.881819,30,3,39133,3935141
67,4,0.998929,0.0126107,0.0445103,-7.90366e-05,-0.901858,0.0737307,9.77168,0.41466,-0.199895,0.818484,-0.00901895,0.000728784,0.0977169,1,4.23584e-05,-1.7695e-06,1.35379e-05,0.00847167,-0.000353901,0.00270758,0.998929,0.0126107,0.0445103,-7.90366e-05,-0.294839,-0.016606,-0.881819,30,3,39133,3935141
68,1,0.99893,0.0126568,0.0444929,-7.7552e-05,-0.883524,0.066263,9.78033,0.437566,-0.211718,0.824579,-0.00883779,0.000654659,0.0978031,1,3.88047e-05,-1.2878e-05,2.15526e-05,0.00776093,-0.0025756,0.00431052,0.99893,0.0126568,0.0444929,-7.7552e-05,-0.295299,-0.0142082,-0.879238,30,3,39135,3935341
68,2,0.998929,0.012677,0.0444935,-7.50372e-05,-0.890468,0.0727603,9.78653,0.431912,-0.215634,0.826227,-0.00890453,0.000718297,0.0978654,1,4.63129e-05,8.3443e-07,1.35339e-05,0.00926257,0.000166886,0.00270678,0.998929,0.012677,0.0444935,-7.50372e-05,-0.295789,-0.0151618,-0.880267,30,3,39136,3935441
68,3,0.998929,0.012677,0.0444935,-7.50372e-05,-0.890468,0.0727603,9.78653,0.431912,-0.215634,0.826227,-0.00890453,0.000718297,0.0978654,1,4.63129e-05,8.3443e-07,1.35339e-05,0.00926257,0.000166886,0.00270678,0.998929,0.012677,0.0444935,-7.50372e-05,-0.295789,-0.0151618,-0.880267,30,3,39136,3935441
68,4,0.998929,0.012677,0.0444935,-7.50372e-05,-0.890468,0.0727603,9.78653,0.431912,-0.215634,0.826227,-0.00890453,0.000718297,0.0978654,1,4.63129e-05,8.3443e-07,1.35339e-05,0.00926257,0.000166886,0.00270678,0.998929,0.012677,0.0444935,-7.50372e-05,-0.295789,-0.0151618,-0.880267,30,3,39136,3935441
69,1,0.998929,0.01272,0.0444917,-5.50972e-05,-0.882724,0.080798,9.77637,0.446193,-0.198762,0.818153,-0.00882878,0.000798265,0.0977637,1,4.85387e-05,-7.77452e-06,1.27349e-05,0.00970774,-0.0015549,0.00254697,0.998929,0.01272,0.0444917,-5.50972e-05,-0.295357,-0.0151297,-0.882288,30,3,39138,3935641
69,2,0.998929,0.0127355,0.044479,-5.34858e-05,-0.884076,0.0722282,9.76545,0.435275,-0.203472,0.805421,-0.00884328,0.000713886,0.0976544,1,4.20138e-05,-1.27983e-05,1.07626e-05,0.00840275,-0.00255966,0.00215251,0.998929,0.0127355,0.044479,-5.34858e-05,-0.294411,-0.0156074,-0.883314,30,3,39139,3935741
69,3,0.998929,0.0127557,0.0444722,-4.61763e-05,-0.874606,0.0834777,9.77736,0.457695,-0.193426,0.808905,-0.0087474,0.000825383,0.0977735,1,4.64264e-05,-6.68676e-06,1.80453e-05,0.00928529,-0.00133735,0.00360907,0.998929,0.0127557,0.0444722,-4.61763e-05,-0.294798,-0.0161543,-0.879788,30,3,39140,3935841
69,4,0.998929,0.0127557,0.0444722,-4.61763e-05,-0.874606,0.0834777,9.77736,0.457695,-0.193426,0.808905,-0.0087474,0.000825383,0.0977735,1,4.64264e-05,-6.68676e-06,1.80453e-05,0.00928529,-0.00133735,0.00360907,0.998929,0.0127557,0.0444722,-4.61763e-05,-0.294798,-0.0161543,-0.879788,30,3,39140,3935841
70,1,0.99893,0.012798,0.0444502,-2.58112e-05,-0.920621,0.0653595,9.78159,0.407612,-0.210882,0.824932,-0.00920719,0.000643148,0.0978159,1,5.14911e-05,-4.87276e-06,2.02746e-05,0.0102982,-0.000974551,0.00405491,0.99893,0.012798,0.0444502,-2.58112e-05,-0.29532,-0.016602,-0.881816,30,3,39142,3936041
70,2,0.99893,0.0128182,0.0444461,-2.12806e-05,-0.942071,0.0691266,9.78142,0.365914,-0.207286,0.825239,-0.0094216,0.000681894,0.0978142,1,4.67209e-05,-4.45927e-06,1.22949e-05,0.00934417,-0.000891854,0.00245898,0.99893,0.0128182,0.0444461,-2.12806e-05,-0.29588,-0.0170227,-0.885358,30,3,39143,3936141
70,3,0.99893,0.0128182,0.0444461,-2.12806e-05,-0.942071,0.0691266,9.78142,0.365914,-0.207286,0.825239,-0.0094216,0.000681894,0.0978142,1,4.67209e-05,-4.45927e-06,1.22949e-05,0.00934417,-0.000891854,0.00245898,0.99893,0.0128182,0.0444461,-2.12806e-05,-0.29588,-0.0170227,-0.885358,30,3,39143,3936141
70,4,0.99893,0.0128182,0.0444461,-2.12806e-05,-0.942071,0.0691266,9.78142,0.365914,-0.207286,0.825239,-0.0094216,0.000681894,0.0978142,1,4.67209e-05,-4.45927e-06,1.22949e-05,0.00934417,-0.000891854,0.00245898,0.99893,0.0128182,0.0444461,-2.12806e-05,-0.29588,-0.0170227,-0.885358,30,3,39143,3936141
71,1,0.998931,0.0128691,0.0444056,-2.42083e-05,-0.913332,0.0845884,9.78204,0.395202,-0.187456,0.825969,-0.00913574,0.000835723,0.0978202,1,5.13717e-05,-1.23123e-05,6.0837e-06,0.0102743,-0.00246247,0.00121674,0.998931,0.0128691,0.0444056,-2.42083e-05,-0.293893,-0.0156385,-0.881801,30,3,39145,3936341
71,2,0.998931,0.0128939,0.0443979,-1.92274e-05,-0.912969,0.0830222,9.7671,0.400488,-0.191801,0.810211,-0.00913136,0.000820028,0.097671,1,5.05504e-05,-8.41735e-06,1.74581e-05,0.0101101,-0.00168347,0.00349163,0.998931,0.0128939,0.0443979,-1.92274e-05,-0.293856,-0.0156655,-0.880287,30,3,39146,3936441
71,3,0.998931,0.0128939,0.0443979,-1.92274e-05,-0.912969,0.0830222,9.7671,0.400488,-0.191801,0.810211,-0.00913136,0.000820028,0.097671,1,5.05504e-05,-8.41735e-06,1.74581e-05,0.0101101,-0.00168347,0.00349163,0.998931,0.0128939,0.0443979,-1.92274e-05,-0.293856,-0.0156655,-0.880287,30,3,39146,3936441
71,4,0.998931,0.0128939,0.0443979,-1.92274e-05,-0.912969,0.0830222,9.7671,0.400488,-0.191801,0.810211,-0.00913136,0.000820028,0.097671,1,5.05504e-05,-8.41735e-06,1.74581e-05,0.0101101,-0.00168347,0.00349163,0.998931,0.0128939,0.0443979,-1.92274e-05,-0.293856,-0.0156655,-0.880287,30,3,39146,3936441
72,1,0.998931,0.0129363,0.0443875,-1.61361e-05,-0.859814,0.0635828,9.77505,0.441772,-0.225929,0.814362,-0.0085995,0.000625973,0.0977505,1,5.00567e-05,-6.9195e-06,3.99165e-06,0.0100113,-0.0013839,0.000798329,0.998931,0.0129363,0.0443875,-1.61361e-05,-0.295792,-0.0141952,-0.87974,30,3,39148,3936641
72,2,0.99893,0.0129687,0.0443834,-1.59271e-08,-0.86343,0.0848492,9.76847,0.453022,-0.203613,0.808854,-0.00863527,0.000836699,0.0976847,1,5.81705e-05,-4.78328e-06,2.48084e-05,0.0116341,-0.000956657,0.00496168,0.99893,0.0129687,0.0443834,-1.59271e-08,-0.296837,-0.0136454,-0.882754,30,3,39149,3936741
72,3,0.998931,0.0129839,0.0443716,1.17911e-05,-0.868761,0.092337,9.77944,0.446778,-0.181633,0.812621,-0.00869012,0.000914974,0.0977943,1,4.14756e-05,-1.26791e-05,1.63762e-05,0.00829511,-0.00253582,0.00327523,0.998931,0.0129839,0.0443716,1.17911e-05,-0.295859,-0.0160742,-0.883822,30,3,39150,3936841
72,4,0.998931,0.0129839,0.0443716,1.17911e-05,-0.868761,0.092337,9.77944,0.446778,-0.181633,0.812621,-0.00869012,0.000914974,0.0977943,1,4.14756e-05,-1.26791e-05,1.63762e-05,0.00829511,-0.00253582,0.00327523,0.998931,0.0129839,0.0443716,1.17911e-05,-0.295859,-0.0160742,-0.883822,30,3,39150,3936841
73,1,0.998931,0.0130635,0.0443421,3.19386e-05,-0.928595,0.0847233,9.77163,0.386255,-0.201103,0.820911,-0.00928921,0.000833132,0.0977161,1,7.0395e-05,-1.65084e-05,1.85034e-05,0.014079,-0.00330168,0.00370068,0.998931,0.0130635,0.0443421,3.19386e-05,-0.293865,-0.016623,-0.881318,30,3,39152,3937041
73,2,0.998931,0.0130977,0.0443213,2.28979e-05,-0.94376,0.0688402,9.76008,0.372946,-0.221662,0.809881,-0.00944183,0.000676525,0.0976004,1,6.0374e-05,-2.16512e-05,4.8593e-06,0.0120748,-0.00433024,0.00097186,0.998931,0.0130977,0.0443213,2.28979e-05,-0.294782,-0.0171298,-0.87981,30,3,39153,3937141
73,3,0.998931,0.0130977,0.0443213,2.28979e-05,-0.94376,0.0688402,9.76008,0.372946,-0.221662,0.809881,-0.00944183,0.000676525,0.0976004,1,6.0374e-05,-2.16512e-05,4.8593e-06,0.0120748,-0.00433024,0.00097186,0.998931,0.0130977,0.0443213,2.28979e-05,-0.294782,-0.0171298,-0.87981,30,3,39153,3937141
73,4,0.998931,0.0130977,0.0443213,2.28979e-05,-0.94376,0.0688402,9.76008,0.372946,-0.221662,0.809881,-0.00944183,0.000676525,0.0976004,1,6.0374e-05,-2.16512e-05,4.8593e-06,0.0120748,-0.00433024,0.00097186,0.998931,0.0130977,0.0443213,2.28979e-05,-0.294782,-0.0171298,-0.87981,30,3,39153,3937141
74,1,0.998932,0.0131474,0.0442971,1.65058e-05,-0.861934,0.109073,9.77002,0.456881,-0.186724,0.814033,-0.00862073,0.0010813,0.0977002,1,4.90602e-05,-7.19171e-06,-8.75619e-06,0.00981205,-0.00143834,-0.00175124,0.998932,0.0131474,0.0442971,1.65058e-05,-0.294436,-0.0155894,-0.884323,30,3,39155,3937341
74,2,0.998932,0.0131707,0.0442815,3.00882e-05,-0.891075,0.0756167,9.77572,0.434286,-0.208374,0.812411,-0.00891403,0.000746178,0.097757,1,4.91795e-05,-1.66666e-05,2.09212e-05,0.00983591,-0.00333332,0.00418424,0.998932,0.0131707,0.0442815,3.00882e-05,-0.295418,-0.0150846,-0.884812,30,3,39156,3937441
74,3,0.998932,0.0131707,0.0442815,3.00882e-05,-0.891075,0.0756167,9.77572,0.434286,-0.208374,0.812411,-0.00891403,0.000746178,0.097757,1,4.91795e-05,-1.66666e-05,2.09212e-05,0.00983591,-0.00333332,0.00418424,0.998932,0.0131707,0.0442815,3.00882e-05,-0.295418,-0.0150846,-0.884812,30,3,39156,3937441
74,4,0.998932,0.0131707,0.0442815,3.00882e-05,-0.891075,0.0756167,9.77572,0.434286,-0.208374,0.812411,-0.00891403,0.000746178,0.097757,1,4.91795e-05,-1.66666e-05,2.09212e-05,0.00983591,-0.00333332,0.00418424,0.998932,0.0131707,0.0442815,3.00882e-05,-0.295418,-0.0150846,-0.884812,30,3,39156,3937441
75,1,0.998932,0.0132093,0.0442679,4.04093e-05,-0.919875,0.0856148,9.76818,0.398486,-0.205547,0.819134,-0.0092007,0.000847244,0.0976817,1,4.46309e-05,-9.86802e-06,1.00416e-05,0.00892618,-0.0019736,0.00200832,0.998932,0.0132093,0.0442679,4.04093e-05,-0.293872,-0.01469,-0.880265,30,3,39158,3937641
75,2,0.998933,0.0132314,0.0442545,3.84324e-05,-0.867895,0.0952856,9.76521,0.435857,-0.200544,0.812301,-0.00868184,0.000943296,0.0976519,1,4.79538e-05,-1.4715e-05,1.12038e-05,0.00959075,-0.002943,0.00224076,0.998933,0.0132314,0.0442545,3.84324e-05,-0.29386,-0.014699,-0.87976,30,3,39159,3937741
75,3,0.998933,0.0132638,0.0442459,5.21254e-05,-0.87982,0.106147,9.77691,0.434213,-0.185796,0.823405,-0.00880017,0.00104978,0.097769,1,5.75782e-05,-9.78289e-06,2.47003e-05,0.0115156,-0.00195658,0.00494006,0.998933,0.0132638,0.0442459,5.21254e-05,-0.294346,-0.016619,-0.881316,30,3,39160,3937841
75,4,0.998933,0.0132638,0.0442459,5.21254e-05,-0.87982,0.106147,9.77691,0.434213,-0.185796,0.823405,-0.00880017,0.00104978,0.097769,1,5.75782e-05,-9.78289e-06,2.47003e-05,0.0115156,-0.00195658,0.00494006,0.998933,0.0132638,0.0442459,5.21254e-05,-0.294346,-0.016619,-0.881316,30,3,39160,3937841
76,1,0.998933,0.0132971,0.0442224,4.61426e-05,-0.909469,0.0599219,9.77433,0.407747,-0.226776,0.818963,-0.00909635,0.000590522,0.0977432,1,4.4631e-05,-8.53047e-06,-1.54772e-06,0.00892619,-0.00170609,-0.000309543,0.998933,0.0132971,0.0442224,4.61426e-05,-0.294859,-0.0161092,-0.882312,30,3,39162,3938041
76,2,0.998934,0.0133167,0.0442046,4.36604e-05,-0.881556,0.073584,9.76749,0.424762,-0.217577,0.810628,-0.00881936,0.000726771,0.0976747,1,4.58266e-05,-1.93679e-05,6.61402e-06,0.00916533,-0.00387359,0.0013228,0.998934,0.0133167,0.0442046,4.36604e-05,-0.294868,-0.0156215,-0.882302,30,3,39163,3938141
76,3,0.998934,0.0133167,0.0442046,4.36604e-05,-0.881556,0.073584,9.76749,0.424762,-0.217577,0.810628,-0.00881936,0.000726771,0.0976747,1,4.58266e-05,-1.93679e-05,6.61402e-06,0.00916533,-0.00387359,0.0013228,0.998934,0.0133167,0.0442046,4.36604e-05,-0.294868,-0.0156215,-0.882302,30,3,39163,3938141
76,4,0.998934,0.0133167,0.0442046,4.36604e-05,-0.881556,0.073584,9.76749,0.424762,-0.217577,0.810628,-0.00881936,0.000726771,0.0976747,1,4.58266e-05,-1.93679e-05,6.61402e-06,0.00916533,-0.00387359,0.0013228,0.998934,0.0133167,0.0442046,4.36604e-05,-0.294868,-0.0156215,-0.882302,30,3,39163,3938141
77,1,0.998933,0.0133753,0.044208,6.12466e-05,-0.873555,0.106197,9.77041,0.444817,-0.186348,0.807431,-0.008735,0.001052,0.0977043,1,4.88404e-05,3.05661e-06,2.41473e-05,0.00976808,0.000611321,0.00482946,0.998933,0.0133753,0.044208,6.12466e-05,-0.295267,-0.0161593,-0.879281,30,3,39165,3938341
77,2,0.998933,0.0133904,0.0441963,6.41398e-05,-0.888732,0.0703193,9.76988,0.418578,-0.21941,0.808695,-0.00888985,0.000695035,0.0976987,1,4.05741e-05,-1.28969e-05,1.29713e-05,0.00811482,-0.00257938,0.00259425,0.998933,0.0133904,0.0441963,6.41398e-05,-0.294312,-0.0156796,-0.879275,30,3,39166,3938441
77,3,0.998933,0.0133904,0.0441963,6.41398e-05,-0.888732,0.0703193,9.76988,0.418578,-0.21941,0.808695,-0.00888985,0.000695035,0.0976987,1,4.05741e-05,-1.28969e-05,1.29713e-05,0.00811482,-0.00257938,0.00259425,0.998933,0.0133904,0.0441963,6.41398e-05,-0.294312,-0.0156796,-0.879275,30,3,39166,3938441
77,4,0.998933,0.0133904,0.0441963,6.41398e-05,-0.888732,0.0703193,9.76988,0.418578,-0.21941,0.808695,-0.00888985,0.000695035,0.0976987,1,4.05741e-05,-1.28969e-05,1.29713e-05,0.00811482,-0.00257938,0.00259425,0.998933,0.0133904,0.0441963,6.41398e-05,-0.294312,-0.0156796,-0.879275,30,3,39166,3938441
78,1,0.998934,0.0134154,0.0441677,8.4753e-05,-0.873482,0.0776726,9.77391,0.429579,-0.216194,0.813668,-0.00873831,0.000768289,0.0977389,1,4.14549e-05,-1.7686e-05,1.91313e-05,0.00829099,-0.00353719,0.00382627,0.998934,0.0134154,0.0441677,8.4753e-05,-0.294391,-0.0161042,-0.88282,30,3,39168,3938641
78,2,0.998934,0.013449,0.0441665,8.67352e-05,-0.855249,0.0715769,9.76626,0.462951,-0.225981,0.806707,-0.00855306,0.000703951,0.0976626,1,5.96698e-05,-2.84798e-06,9.54052e-06,0.011934,-0.000569596,0.0019081,0.998934,0.013449,0.0441665,8.67352e-05,-0.295344,-0.0151387,-0.881784,30,3,39169,3938741
78,3,0.998933,0.0134663,0.0441734,9.50838e-05,-0.85442,0.0935434,9.77628,0.447911,-0.203071,0.815294,-0.00854316,0.000926746,0.097763,1,4.30364e-05,5.46121e-06,1.6004e-05,0.00860727,0.00109224,0.0032008,0.998933,0.0134663,0.0441734,9.50838e-05,-0.294358,-0.0151647,-0.880779,30,3,39170,3938841
78,4,0.998933,0.0134663,0.0441734,9.50838e-05,-0.85442,0.0935434,9.77628,0.447911,-0.203071,0.815294,-0.00854316,0.000926746,0.097763,1,4.30364e-05,5.46121e-06,1.6004e-05,0.00860727,0.00109224,0.0032008,0.998933,0.0134663,0.0441734,9.50838e-05,-0.294358,-0.0151647,-0.880779,30,3,39170,3938841
79,1,0.998932,0.013509,0.0441824,0.000110002,-0.916178,0.0822811,9.76337,0.384288,-0.213363,0.802589,-0.0091617,0.000813127,0.0976338,1,4.76429e-05,5.70087e-07,2.08036e-05,0.00952858,0.000114017,0.00416072,0.998932,0.013509,0.0441824,0.000110002,-0.292425,-0.0142232,-0.879757,30,3,39172,3939041
79,2,0.998932,0.0135286,0.0441718,0.000125719,-0.93902,0.0746802,9.78451,0.371899,-0.226868,0.833268,-0.00939258,0.000737575,0.097845,1,4.46216e-05,-1.19563e-05,2.63768e-05,0.00892432,-0.00239125,0.00527536,0.998932,0.0135286,0.0441718,0.000125719,-0.293428,-0.0146669,-0.881782,30,3,39173,3939141
79,3,0.998932,0.0135286,0.0441718,0.000125719,-0.93902,0.0746802,9.78451,0.371899,-0.226868,0.833268,-0.00939258,0.000737575,0.097845,1,4.46216e-05,-1.19563e-05,2.63768e-05,0.00892432,-0.00239125,0.00527536,0.998932,0.0135286,0.0441718,0.000125719,-0.293428,-0.0146669,-0.881782,30,3,39173,3939141
79,4,0.998932,0.0135286,0.0441718,0.000125719,-0.93902,0.0746802,9.78451,0.371899,-0.226868,0.833268,-0.00939258,0.000737575,0.097845,1,4.46216e-05,-1.19563e-05,2.63768e-05,0.00892432,-0.00239125,0.00527536,0.998932,0.0135286,0.0441718,0.000125719,-0.293428,-0.0146669,-0.881782,30,3,39173,3939141
80,1,0.998933,0.013565,0.0441539,0.000138543,-0.986994,0.0712673,9.77259,0.319656,-0.230614,0.818607,-0.00987344,0.000703973,0.0977256,1,4.17139e-05,-1.76916e-05,2.76715e-05,0.00834277,-0.00353831,0.0055343,0.998933,0.013565,0.0441539,0.000138543,-0.29587,-0.0131746,-0.882243,30,3,39175,3939341
80,2,0.998933,0.0135878,0.0441348,0.000141347,-0.919637,0.070529,9.77484,0.392237,-0.232738,0.819418,-0.00920054,0.000695551,0.0977481,1,4.87062e-05,-2.12195e-05,1.18336e-05,0.00974123,-0.00424391,0.00236672,0.998933,0.0135878,0.0441348,0.000141347,-0.292906,-0.0142192,-0.879754,30,3,39176,3939441
80,3,0.998933,0.0135878,0.0441348,0.000141347,-0.919637,0.070529,9.77484,0.392237,-0.232738,0.819418,-0.00920054,0.000695551,0.0977481,1,4.87062e-05,-2.12195e-05,1.18336e-05,0.00974123,-0.00424391,0.00236672,0.998933,0.0135878,0.0441348,0.000141347,-0.292906,-0.0142192,-0.879754,30,3,39176,3939441
80,4,0.998933,0.0135878,0.0441348,0.000141347,-0.919637,0.070529,9.77484,0.392237,-0.232738,0.819418,-0.00920054,0.000695551,0.0977481,1,4.87062e-05,-2.12195e-05,1.18336e-05,0.00974123,-0.00424391,0.00236672,0.998933,0.0135878,0.0441348,0.000141347,-0.292906,-0.0142192,-0.879754,30,3,39176,3939441
81,1,0.998935,0.0136144,0.0440857,0.000131381,-0.843784,0.0578376,9.76167,0.461387,-0.246205,0.800704,-0.00844224,0.000570189,0.0976164,1,4.10695e-05,-2.24839e-05,1.00268e-05,0.00821389,-0.00449679,0.00200537,0.998935,0.0136144,0.0440857,0.000131381,-0.294839,-0.0151607,-0.880776,30,3,39178,3939641
81,2,0.998935,0.0136363,0.0440691,0.000137852,-0.804872,0.0717763,9.788,0.506505,-0.227623,0.814309,-0.00805241,0.000708175,0.0978797,1,4.78571e-05,-1.87546e-05,1.36139e-05,0.00957142,-0.00375093,0.00272278,0.998935,0.0136363,0.0440691,0.000137852,-0.295863,-0.0151077,-0.883296,30,3,39179,3939741
81,3,0.998935,0.0136617,0.0440779,0.000146546,-0.841981,0.100781,9.76302,0.476036,-0.202443,0.804417,-0.00841848,0.000997557,0.0976304,1,5.1193e-05,6.96254e-06,1.51712e-05,0.0102386,0.00139251,0.00303424,0.998935,0.0136617,0.0440779,0.000146546,-0.293918,-0.0156204,-0.882811,30,3,39180,3939841
81,4,0.998935,0.0136617,0.0440779,0.000146546,-0.841981,0.100781,9.76302,0.476036,-0.202443,0.804417,-0.00841848,0.000997557,0.0976304,1,5.1193e-05,6.96254e-06,1.51712e-05,0.0102386,0.00139251,0.00303424,0.998935,0.0136617,0.0440779,0.000146546,-0.293918,-0.0156204,-0.882811,30,3,39180,3939841
82,1,0.998934,0.0137096,0.0440745,0.000164327,-0.947957,0.0782959,9.77816,0.367541,-0.2212,0.830009,-0.00948186,0.00077584,0.0977814,1,3.4688e-05,-1.15391e-05,1.76691e-05,0.00693761,-0.00230781,0.00353382,0.998934,0.0137096,0.0440745,0.000164327,-0.292462,-0.0141962,-0.881271,30,3,39182,3940041
82,2,0.998934,0.0137387,0.0440612,0.000163692,-0.953467,0.0873758,9.77487,0.351364,-0.209111,0.813828,-0.00953772,0.000862844,0.0977485,1,5.48623e-05,-1.54749e-05,9.90563e-06,0.0109725,-0.00309498,0.00198113,0.998934,0.0137387,0.0440612,0.000163692,-0.292898,-0.014707,-0.879765,30,3,39183,3940141
82,3,0.998934,0.0137387,0.0440612,0.000163692,-0.953467,0.0873758,9.77487,0.351364,-0.209111,0.813828,-0.00953772,0.000862844,0.0977485,1,5.48623e-05,-1.54749e-05,9.90563e-06,0.0109725,-0.00309498,0.00198113,0.998934,0.0137387,0.0440612,0.000163692,-0.292898,-0.014707,-0.879765,30,3,39183,3940141
82,4,0.998934,0.0137387,0.0440612,0.000163692,-0.953467,0.0873758,9.77487,0.351364,-0.209111,0.813828,-0.00953772,0.000862844,0.0977485,1,5.48623e-05,-1.54749e-05,9.90563e-06,0.0109725,-0.00309498,0.00198113,0.998934,0.0137387,0.0440612,0.000163692,-0.292898,-0.014707,-0.879765,30,3,39183,3940141
83,1,0.998936,0.0137728,0.0440224,0.000185749,-0.887554,0.06831,9.77869,0.418575,-0.238773,0.816612,-0.00887973,0.000675314,0.0977865,1,3.75587e-05,-2.12468e-05,2.47732e-05,0.00751173,-0.00424935,0.00495464,0.998936,0.0137728,0.0440224,0.000185749,-0.296339,-0.0146249,-0.882778,30,3,39185,3940341
83,2,0.998936,0.0137874,0.0440036,0.000192616,-0.870523,0.0886723,9.76585,0.436115,-0.226626,0.814793,-0.00870937,0.000878601,0.0976582,1,4.05162e-05,-2.1087e-05,1.20048e-05,0.00810325,-0.0042174,0.00240095,0.998936,0.0137874,0.0440036,0.000192616,-0.294913,-0.0151066,-0.883805,30,3,39186,3940441
83,3,0.998936,0.0137874,0.0440036,0.000192616,-0.870523,0.0886723,9.76585,0.436115,-0.226626,0.814793,-0.00870937,0.000878601,0.0976582,1,4.05162e-05,-2.1087e-05,1.20048e-05,0.00810325,-0.0042174,0.00240095,0.998936,0.0137874,0.0440036,0.000192616,-0.294913,-0.0151066,-0.883805,30,3,39186,3940441
83,4,0.998936,0.0137874,0.0440036,0.000192616,-0.870523,0.0886723,9.76585,0.436115,-0.226626,0.814793,-0.00870937,0.000878601,0.0976582,1,4.05162e-05,-2.1087e-05,1.20048e-05,0.00810325,-0.0042174,0.00240095,0.998936,0.0137874,0.0440036,0.000192616,-0.294913,-0.0151066,-0.883805,30,3,39186,3940441
84,1,0.998936,0.0138376,0.0439919,0.00021264,-0.8536,0.0631932,9.77298,0.453464,-0.239272,0.808149,-0.00853807,0.000621141,0.0977297,1,5.28527e-05,-1.04367e-05,2.69838e-05,0.0105705,-0.00208734,0.00539675,0.998936,0.0138376,0.0439919,0.00021264,-0.292869,-0.0142463,-0.87824,30,3,39188,3940641
84,2,0.998936,0.0138464,0.0439918,0.000208932,-0.852634,0.08398,9.76771,0.454947,-0.215955,0.80782,-0.00852681,0.000832956,0.0976771,1,3.43937e-05,-2.33778e-06,7.3389e-06,0.00687874,-0.000467556,0.00146778,0.998936,0.0138464,0.0439918,0.000208932,-0.294337,-0.0142162,-0.879242,30,3,39189,3940741
84,3,0.998935,0.0138688,0.0439986,0.000218438,-0.865822,0.0775375,9.77486,0.442416,-0.225378,0.81476,-0.00865732,0.000765725,0.0977488,1,4.77936e-05,4.73333e-06,1.77211e-05,0.00955872,0.000946665,0.00354423,0.998935,0.0138688,0.0439986,0.000218438,-0.293876,-0.0151687,-0.880781,30,3,39190,3940841
84,4,0.998935,0.0138688,0.0439986,0.000218438,-0.865822,0.0775375,9.77486,0.442416,-0.225378,0.81476,-0.00865732,0.000765725,0.0977488,1,4.77936e-05,4.73333e-06,1.77211e-05,0.00955872,0.000946665,0.00354423,0.998935,0.0138688,0.0439986,0.000218438,-0.293876,-0.0151687,-0.880781,30,3,39190,3940841
85,1,0.998935,0.0139128,0.0440006,0.000226879,-0.923992,0.0823981,9.78107,0.390741,-0.224224,0.822338,-0.00923901,0.000814659,0.0978108,1,4.64078e-05,4.76452e-06,1.31764e-05,0.00928156,0.000952904,0.00263527,0.998935,0.0139128,0.0440006,0.000226879,-0.293938,-0.0151237,-0.883305,30,3,39192,3941041
85,2,0.998934,0.0139345,0.0440009,0.000231727,-0.933731,0.0716912,9.77663,0.373932,-0.236561,0.817733,-0.00933772,0.000707422,0.0977664,1,4.72963e-05,-2.00776e-06,1.29584e-05,0.00945926,-0.000401552,0.00259169,0.998934,0.0139345,0.0440009,0.000231727,-0.293922,-0.0146539,-0.882284,30,3,39193,3941141
85,3,0.998934,0.0139345,0.0440009,0.000231727,-0.933731,0.0716912,9.77663,0.373932,-0.236561,0.817733,-0.00933772,0.000707422,0.0977664,1,4.72963e-05,-2.00776e-06,1.29584e-05,0.00945926,-0.000401552,0.00259169,0.998934,0.0139345,0.0440009,0.000231727,-0.293922,-0.0146539,-0.882284,30,3,39193,3941141
85,4,0.998934,0.0139345,0.0440009,0.000231727,-0.933731,0.0716912,9.77663,0.373932,-0.236561,0.817733,-0.00933772,0.000707422,0.0977664,1,4.72963e-05,-2.00776e-06,1.29584e-05,0.00945926,-0.000401552,0.00259169,0.998934,0.0139345,0.0440009,0.000231727,-0.293922,-0.0146539,-0.882284,30,3,39193,3941141
86,1,0.998934,0.0139769,0.0439858,0.000228463,-0.827446,0.0649772,9.78469,0.48577,-0.226467,0.821095,-0.00827702,0.000639016,0.0978467,1,5.43202e-05,-1.30127e-05,7.60153e-06,0.010864,-0.00260255,0.00152031,0.998934,0.0139769,0.0439858,0.000228463,-0.294777,-0.0166511,-0.879295,30,3,39195,3941341
86,2,0.998934,0.0140067,0.0439783,0.000228838,-0.832819,0.0513719,9.77612,0.48726,-0.220241,0.808195,-0.00833015,0.00050272,0.0977611,1,5.54118e-05,-9.95048e-06,9.89808e-06,0.0110824,-0.0019901,0.00197962,0.998934,0.0140067,0.0439783,0.000228838,-0.293922,-0.0146539,-0.882284,30,3,39196,3941441
86,3,0.998934,0.0140067,0.0439783,0.000228838,-0.832819,0.0513719,9.77612,0.48726,-0.220241,0.808195,-0.00833015,0.00050272,0.0977611,1,5.54118e-05,-9.95048e-06,9.89808e-06,0.0110824,-0.0019901,0.00197962,0.998934,0.0140067,0.0439783,0.000228838,-0.293922,-0.0146539,-0.882284,30,3,39196,3941441
86,4,0.998934,0.0140067,0.0439783,0.000228838,-0.832819,0.0513719,9.77612,0.48726,-0.220241,0.808195,-0.00833015,0.00050272,0.0977611,1,5.54118e-05,-9.95048e-06,9.89808e-06,0.0110824,-0.0019901,0.00197962,0.998934,0.0140067,0.0439783,0.000228838,-0.293922,-0.0146539,-0.882284,30,3,39196,3941441
87,1,0.998934,0.0140564,0.0439759,0.000220378,-0.824474,0.09334,9.76352,0.489289,-0.215201,0.792337,-0.00824561,0.000924332,0.0976352,1,4.67822e-05,-4.46645e-06,-4.09028e-06,0.00935644,-0.000893291,-0.000818056,0.998934,0.0140564,0.0439759,0.000220378,-0.293885,-0.0161262,-0.881812,30,3,39198,3941641
87,2,0.998933,0.0140792,0.043977,0.000223192,-0.869967,0.0932226,9.77706,0.436153,-0.232735,0.81961,-0.00869984,0.000922538,0.0977707,1,4.83859e-05,-7.18739e-07,1.30105e-05,0.00967719,-0.000143748,0.00260211,0.998933,0.0140792,0.043977,0.000223192,-0.292927,-0.016613,-0.882333,30,3,39199,3941741
87,3,0.998934,0.0141015,0.0439639,0.000226146,-0.921356,0.0993557,9.76289,0.384592,-0.220123,0.813933,-0.00921651,0.000984021,0.0976287,1,4.75925e-05,-1.4981e-05,1.31748e-05,0.00951851,-0.00299619,0.00263495,0.998934,0.0141015,0.0439639,0.000226146,-0.293335,-0.0181084,-0.880344,30,3,39200,3941841
87,4,0.998934,0.0141015,0.0439639,0.000226146,-0.921356,0.0993557,9.76289,0.384592,-0.220123,0.813933,-0.00921651,0.000984021,0.0976287,1,4.75925e-05,-1.4981e-05,1.31748e-05,0.00951851,-0.00299619,0.00263495,0.998934,0.0141015,0.0439639,0.000226146,-0.293335,-0.0181084,-0.880344,30,3,39200,3941841
88,1,0.998935,0.0141377,0.0439248,0.000240117,-0.878095,0.0694834,9.77558,0.431482,-0.226915,0.81144,-0.00878471,0.000685743,0.0977555,1,4.45825e-05,-1.90864e-05,2.13161e-05,0.0089165,-0.00381727,0.00426322,0.998935,0.0141377,0.0439248,0.000240117,-0.295764,-0.0151798,-0.879257,30,3,39202,3942041
88,2,0.998935,0.0141652,0.0439135,0.000236249,-0.817155,0.0930032,9.77468,0.479615,-0.220472,0.811853,-0.0081742,0.000919535,0.0977467,1,5.32902e-05,-1.34877e-05,4.81501e-06,0.010658,-0.00269755,0.000963002,0.998935,0.0141652,0.0439135,0.000236249,-0.296344,-0.0151037,-0.883293,30,3,39203,3942141
88,3,0.998935,0.0141652,0.0439135,0.000236249,-0.817155,0.0930032,9.77468,0.479615,-0.220472,0.811853,-0.0081742,0.000919535,0.0977467,1,5.32902e-05,-1.34877e-05,4.81501e-06,0.010658,-0.00269755,0.000963002,0.998935,0.0141652,0.0439135,0.000236249,-0.296344,-0.0151037,-0.883293,30,3,39203,3942141
88,4,0.998935,0.0141652,0.0439135,0.000236249,-0.817155,0.0930032,9.77468,0.479615,-0.220472,0.811853,-0.0081742,0.000919535,0.0977467,1,5.32902e-05,-1.34877e-05,4.81501e-06,0.010658,-0.00269755,0.000963002,0.998935,0.0141652,0.0439135,0.000236249,-0.296344,-0.0151037,-0.883293,30,3,39203,3942141
89,1,0.998935,0.0141864,0.0439002,0.000267059,-0.615946,0.100669,9.85651,0.691482,-0.226969,0.890924,-0.00615703,0.000999521,0.0985653,1,3.47065e-05,1.25901e-05,2.67718e-05,0.0069413,0.00251803,0.00535437,0.998935,0.0141864,0.0439002,0.000267059,-0.294366,-0.0161222,-0.88181,30,3,39205,3942341
89,2,0.998934,0.0142002,0.0439219,0.000275416,-1.01413,0.0392751,9.74872,0.317419,-0.246189,0.826708,-0.0101374,0.000384835,0.0974876,1,3.85625e-05,2.04958e-05,1.95561e-05,0.00771249,0.00409917,0.00391122,0.998934,0.0142002,0.0439219,0.000275416,-0.294337,-0.0156615,-0.880285,30,3,39206,3942441
89,3,0.998934,0.0142002,0.0439219,0.000275416,-1.01413,0.0392751,9.74872,0.317419,-0.246189,0.826708,-0.0101374,0.000384835,0.0974876,1,3.85625e-05,2.04958e-05,1.95561e-05,0.00771249,0.00409917,0.00391122,0.998934,0.0142002,0.0439219,0.000275416,-0.294337,-0.0156615,-0.880285,30,3,39206,3942441
89,4,0.998934,0.0142002,0.0439219,0.000275416,-1.01413,0.0392751,9.74872,0.317419,-0.246189,0.826708,-0.0101374,0.000384835,0.0974876,1,3.85625e-05,2.04958e-05,1.95561e-05,0.00771249,0.00409917,0.00391122,0.998934,0.0142002,0.0439219,0.000275416,-0.294337,-0.0156615,-0.880285,30,3,39206,3942441
90,1,0.998933,0.0142623,0.0439239,0.000260787,-0.904464,0.0257385,9.78892,0.400355,-0.273396,0.842499,-0.00904293,0.000247675,0.0978894,1,4.89353e-05,8.7267e-06,7.16177e-06,0.00978707,0.00174534,0.00143235,0.998933,0.0142623,0.0439239,0.000260787,-0.294358,-0.0151647,-0.880779,30,3,39208,3942641
90,2,0.998933,0.0142732,0.0439108,0.000265075,-0.961757,0.0320521,9.73849,0.316371,-0.300303,0.782918,-0.00962052,0.000313216,0.0973847,1,3.62545e-05,-1.51135e-05,1.26922e-05,0.00725091,-0.0030227,0.00253843,0.998933,0.0142732,0.0439108,0.000265075,-0.295846,-0.0160832,-0.883317,30,3,39209,3942741
90,3,0.998933,0.0143175,0.043905,0.00027892,-0.952208,0.0354816,9.76321,0.352077,-0.299436,0.814703,-0.00952365,0.000340791,0.097632,1,7.01248e-05,-7.98689e-06,1.74536e-05,0.014025,-0.00159738,0.00349072,0.998933,0.0143175,0.043905,0.00027892,-0.295406,-0.0150936,-0.884308,30,3,39210,3942841
90,4,0.998933,0.0143175,0.043905,0.00027892,-0.952208,0.0354816,9.76321,0.352077,-0.299436,0.814703,-0.00952365,0.000340791,0.097632,1,7.01248e-05,-7.98689e-06,1.74536e-05,0.014025,-0.00159738,0.00349072,0.998933,0.0143175,0.043905,0.00027892,-0.295406,-0.0150936,-0.884308,30,3,39210,3942841
91,1,0.998933,0.014397,0.0438693,0.000294595,-0.939877,0.17338,9.76297,0.33062,-0.194108,0.830358,-0.00940275,0.00172395,0.0976294,1,4.80768e-05,-1.995e-05,2.47216e-05,0.00961537,-0.00398999,0.00494433,0.998933,0.014397,0.0438693,0.000294595,-0.294822,-0.0161363,-0.880798,30,3,39212,3943041
91,2,0.998934,0.0144177,0.0438542,0.000301174,-0.96365,0.114856,9.76398,0.357888,-0.245531,0.822852,-0.00963999,0.0011393,0.0976396,1,4.54951e-05,-1.76722e-05,1.92346e-05,0.00909902,-0.00353443,0.00384692,0.998934,0.0144177,0.0438542,0.000301174,-0.295813,-0.0151437,-0.881276,30,3,39213,3943141
91,3,0.998934,0.0144177,0.0438542,0.000301174,-0.96365,0.114856,9.76398,0.357888,-0.245531,0.822852,-0.00963999,0.0011393,0.0976396,1,4.54951e-05,-1.76722e-05,1.92346e-05,0.00909902,-0.00353443,0.00384692,0.998934,0.0144177,0.0438542,0.000301174,-0.295813,-0.0151437,-0.881276,30,3,39213,3943141
91,4,0.998934,0.0144177,0.0438542,0.000301174,-0.96365,0.114856,9.76398,0.357888,-0.245531,0.822852,-0.00963999,0.0011393,0.0976396,1,4.54951e-05,-1.76722e-05,1.92346e-05,0.00909902,-0.00353443,0.00384692,0.998934,0.0144177,0.0438542,0.000301174,-0.295813,-0.0151437,-0.881276,30,3,39213,3943141
92,1,0.998935,0.0144751,0.0438213,0.000316778,-0.941073,0.0595237,9.75725,0.355553,-0.23117,0.796114,-0.00941443,0.00058305,0.0975722,1,6.07873e-05,-1.88579e-05,1.72217e-05,0.0121575,-0.00377157,0.00344434,0.998935,0.0144751,0.0438213,0.000316778,-0.293889,-0.016605,-0.882328,30,3,39215,3943341
92,2,0.998934,0.0145145,0.04381,0.000324779,-0.898324,0.0654607,9.75803,0.407588,-0.24438,0.790115,-0.00898599,0.000641682,0.0975801,1,6.44382e-05,-1.39362e-05,1.94386e-05,0.0128876,-0.00278724,0.00388771,0.998934,0.0145145,0.04381,0.000324779,-0.293885,-0.0161262,-0.881812,30,3,39216,3943441
92,3,0.998934,0.0145145,0.04381,0.000324779,-0.898324,0.0654607,9.75803,0.407588,-0.24438,0.790115,-0.00898599,0.000641682,0.0975801,1,6.44382e-05,-1.39362e-05,1.94386e-05,0.0128876,-0.00278724,0.00388771,0.998934,0.0145145,0.04381,0.000324779,-0.293885,-0.0161262,-0.881812,30,3,39216,3943441
92,4,0.998934,0.0145145,0.04381,0.000324779,-0.898324,0.0654607,9.75803,0.407588,-0.24438,0.790115,-0.00898599,0.000641682,0.0975801,1,6.44382e-05,-1.39362e-05,1.94386e-05,0.0128876,-0.00278724,0.00388771,0.998934,0.0145145,0.04381,0.000324779,-0.293885,-0.0161262,-0.881812,30,3,39216,3943441
93,1,0.998933,0.0145624,0.0438219,0.000365689,-0.94208,0.113763,9.76041,0.370713,-0.221736,0.81257,-0.00941897,0.00112527,0.0976044,1,6.04335e-05,9.69003e-06,2.98206e-05,0.0120867,0.00193801,0.00596413,0.998933,0.0145624,0.0438219,0.000365689,-0.294325,-0.0156705,-0.87978,30,3,39218,3943641
93,2,0.998933,0.0145781,0.0438165,0.000384668,-0.949103,0.107661,9.7577,0.354543,-0.231362,0.806008,-0.0094927,0.00106824,0.0975769,1,3.99461e-05,-8.25732e-06,2.99218e-05,0.00798921,-0.00165146,0.00598436,0.998933,0.0145781,0.0438165,0.000384668,-0.294349,-0.0142072,-0.879747,30,3,39219,3943741
93,3,0.998933,0.0145862,0.0438246,0.00039501,-0.941698,0.103843,9.76032,0.372103,-0.226657,0.802686,-0.009416,0.00103168,0.0976034,1,3.27042e-05,5.20823e-06,1.97591e-05,0.00654084,0.00104165,0.00395182,0.998933,0.0145862,0.0438246,0.00039501,-0.294834,-0.014682,-0.880261,30,3,39220,3943841
93,4,0.998933,0.0145862,0.0438246,0.00039501,-0.941698,0.103843,9.76032,0.372103,-0.226657,0.802686,-0.009416,0.00103168,0.0976034,1,3.27042e-05,5.20823e-06,1.97591e-05,0.00654084,0.00104165,0.00395182,0.998933,0.0145862,0.0438246,0.00039501,-0.294834,-0.014682,-0.880261,30,3,39220,3943841
94,1,0.998931,0.0146321,0.0438397,0.000437279,-1.09738,0.0698756,9.75974,0.208223,-0.245858,0.81266,-0.0109743,0.000687439,0.0975975,1,5.58552e-05,-2.01706e-06,1.88796e-05,0.011171,-0.000403413,0.00377592,0.998931,0.0146321,0.0438397,0.000437279,-0.293428,-0.0161122,-0.882824,30,3,39222,3944041
94,2,0.998932,0.0146358,0.0438275,0.000452506,-1.10805,0.0663672,9.77133,0.188492,-0.244683,0.841443,-0.0110837,0.000657611,0.097713,1,2.84612e-05,-1.62404e-05,2.25343e-05,0.00569223,-0.00324809,0.00450687,0.998932,0.0146358,0.0438275,0.000452506,-0.293396,-0.016618,-0.881826,30,3,39223,3944141
94,3,0.998932,0.0146358,0.0438275,0.000452506,-1.10805,0.0663672,9.77133,0.188492,-0.244683,0.841443,-0.0110837,0.000657611,0.097713,1,2.84612e-05,-1.62404e-05,2.25343e-05,0.00569223,-0.00324809,0.00450687,0.998932,0.0146358,0.0438275,0.000452506,-0.293396,-0.016618,-0.881826,30,3,39223,3944141
94,4,0.998932,0.0146358,0.0438275,0.000452506,-1.10805,0.0663672,9.77133,0.188492,-0.244683,0.841443,-0.0110837,0.000657611,0.097713,1,2.84612e-05,-1.62404e-05,2.25343e-05,0.00569223,-0.00324809,0.00450687,0.998932,0.0146358,0.0438275,0.000452506,-0.293396,-0.016618,-0.881826,30,3,39223,3944141
95,1,0.998933,0.0146933,0.0437822,0.000472667,-0.999907,0.0781733,9.76935,0.300242,-0.251456,0.813333,-0.0100043,0.000771002,0.0976931,1,5.3495e-05,-2.65411e-05,1.39457e-05,0.010699,-0.00530822,0.00278914,0.998933,0.0146933,0.0437822,0.000472667,-0.295299,-0.0156535,-0.88028,30,3,39225,3944341
95,2,0.998933,0.0147221,0.0437796,0.000486876,-0.974235,0.0807315,9.77156,0.324811,-0.261545,0.822747,-0.00974376,0.000796434,0.0977155,1,5.35809e-05,-7.07601e-06,2.10086e-05,0.0107162,-0.0014152,0.00420173,0.998933,0.0147221,0.0437796,0.000486876,-0.294329,-0.0161493,-0.880296,30,3,39226,3944441
95,3,0.998933,0.0147221,0.0437796,0.000486876,-0.974235,0.0807315,9.77156,0.324811,-0.261545,0.822747,-0.00974376,0.000796434,0.0977155,1,5.35809e-05,-7.07601e-06,2.10086e-05,0.0107162,-0.0014152,0.00420173,0.998933,0.0147221,0.0437796,0.000486876,-0.294329,-0.0161493,-0.880296,30,3,39226,3944441
95,4,0.998933,0.0147221,0.0437796,0.000486876,-0.974235,0.0807315,9.77156,0.324811,-0.261545,0.822747,-0.00974376,0.000796434,0.0977155,1,5.35809e-05,-7.07601e-06,2.10086e-05,0.0107162,-0.0014152,0.00420173,0.998933,0.0147221,0.0437796,0.000486876,-0.294329,-0.0161493,-0.880296,30,3,39226,3944441
96,1,0.998933,0.0147535,0.043756,0.000512976,-0.916155,0.0961371,9.77131,0.400107,-0.222496,0.809817,-0.00916496,0.000952611,0.0977129,1,4.2783e-05,-1.72371e-05,2.17613e-05,0.00855661,-0.00344742,0.00435226,0.998933,0.0147535,0.043756,0.000512976,-0.293926,-0.0151327,-0.8828,30,3,39228,3944641
96,2,0.998933,0.0147732,0.0437585,0.000534049,-0.973037,0.0963814,9.72926,0.358134,-0.21313,0.790076,-0.00973085,0.000954636,0.0972927,1,4.43812e-05,-2.16834e-06,2.78466e-05,0.00887624,-0.000433669,0.00556933,0.998933,0.0147732,0.0437585,0.000534049,-0.293428,-0.0161122,-0.882824,30,3,39229,3944741
96,3,0.998933,0.0147977,0.0437444,0.000553416,-1.04049,0.100987,9.7386,0.264744,-0.217826,0.781047,-0.0104086,0.000999746,0.0973857,1,4.874e-05,-1.88105e-05,3.03424e-05,0.00974799,-0.0037621,0.00606848,0.998933,0.0147977,0.0437444,0.000553416,-0.294333,-0.0151828,-0.879769,30,3,39230,3944841
96,4,0.998933,0.0147977,0.0437444,0.000553416,-1.04049,0.100987,9.7386,0.264744,-0.217826,0.781047,-0.0104086,0.000999746,0.0973857,1,4.874e-05,-1.88105e-05,3.03424e-05,0.00974799,-0.0037621,0.00606848,0.998933,0.0147977,0.0437444,0.000553416,-0.294333,-0.0151828,-0.879769,30,3,39230,3944841
97,1,0.998935,0.0147778,0.0437028,0.00057064,-0.878405,0.0828632,9.77436,0.425512,-0.261287,0.805189,-0.00879087,0.000824586,0.097743,1,1.94687e-05,-3.47642e-05,1.36868e-05,0.00389374,-0.00695283,0.00273735,0.998935,0.0147778,0.0437028,0.00057064,-0.294358,-0.0151647,-0.880779,30,3,39232,3945041
97,2,0.998936,0.0148017,0.0436818,0.00058153,-0.859684,0.0591252,9.75875,0.428631,-0.259367,0.793569,-0.00860197,0.000581443,0.0975871,1,4.87083e-05,-2.62111e-05,1.75774e-05,0.00974166,-0.00524222,0.00351548,0.998936,0.0148017,0.0436818,0.00058153,-0.294415,-0.0146409,-0.882787,30,3,39233,3945141
97,3,0.998936,0.0148017,0.0436818,0.00058153,-0.859684,0.0591252,9.75875,0.428631,-0.259367,0.793569,-0.00860197,0.000581443,0.0975871,1,4.87083e-05,-2.62111e-05,1.75774e-05,0.00974166,-0.00524222,0.00351548,0.998936,0.0148017,0.0436818,0.00058153,-0.294415,-0.0146409,-0.882787,30,3,39233,3945141
97,4,0.998936,0.0148017,0.0436818,0.00058153,-0.859684,0.0591252,9.75875,0.428631,-0.259367,0.793569,-0.00860197,0.000581443,0.0975871,1,4.87083e-05,-2.62111e-05,1.75774e-05,0.00974166,-0.00524222,0.00351548,0.998936,0.0148017,0.0436818,0.00058153,-0.294415,-0.0146409,-0.882787,30,3,39233,3945141
98,1,0.998937,0.0148611,0.0436258,0.00060483,-0.880405,0.0486546,9.78052,0.424603,-0.271439,0.821348,-0.00881095,0.000474473,0.0978047,1,5.92546e-05,-3.51221e-05,2.73805e-05,0.0118509,-0.00702442,0.0054761,0.998937,0.0148611,0.0436258,0.00060483,-0.293379,-0.0161483,-0.880805,30,3,39235,3945341
98,2,0.998938,0.0148932,0.0435933,0.000611023,-0.874084,0.120316,9.79772,0.435011,-0.202315,0.831875,-0.0087482,0.00119172,0.0979767,1,5.68312e-05,-3.73554e-05,1.73017e-05,0.0113662,-0.00747109,0.00346035,0.998938,0.0148932,0.0435933,0.000611023,-0.294292,-0.0161763,-0.878781,30,3,39236,3945441
98,3,0.998938,0.0148932,0.0435933,0.000611023,-0.874084,0.120316,9.79772,0.435011,-0.202315,0.831875,-0.0087482,0.00119172,0.0979767,1,5.68312e-05,-3.73554e-05,1.73017e-05,0.0113662,-0.00747109,0.00346035,0.998938,0.0148932,0.0435933,0.000611023,-0.294292,-0.0161763,-0.878781,30,3,39236,3945441
98,4,0.998939,0.0149071,0.0435667,0.000609521,-0.915736,0.122052,9.7858,0.36858,-0.212674,0.833702,-0.00916354,0.00121276,0.0978575,1,3.88453e-05,-3.14659e-05,8.8345e-06,0.00776905,-0.00629317,0.0017669,0.998939,0.0149071,0.0435667,0.000609521,-0.29479,-0.0166421,-0.879799,30,3,39237,3945541
99,1,0.998941,0.0149239,0.0435271,0.000620116,-0.915502,0.142625,9.78157,0.38472,-0.191767,0.821071,-0.00916378,0.00141781,0.097815,1,4.14755e-05,-4.45508e-05,1.80399e-05,0.00829509,-0.00891015,0.00360798,0.998941,0.0149239,0.0435271,0.000620116,-0.294358,-0.01661,-0.881821,30,3,39238,3945641
99,2,0.998942,0.0149446,0.0434923,0.000631369,-0.863928,0.0600324,9.77474,0.39502,-0.284042,0.814727,-0.0086471,0.00059109,0.0977467,1,4.57576e-05,-3.98569e-05,1.66766e-05,0.00915152,-0.00797138,0.00333532,0.998942,0.0149446,0.0434923,0.000631369,-0.294419,-0.0151197,-0.883303,30,3,39239,3945741
99,3,0.998943,0.0149669,0.0434623,0.000640436,-0.83769,0.00391854,9.75644,0.414604,-0.314195,0.784126,-0.00838375,2.9691e-05,0.0975638,1,4.76076e-05,-3.51424e-05,1.2224e-05,0.00952151,-0.00702848,0.00244479,0.998943,0.0149669,0.0434623,0.000640436,-0.295353,-0.0160962,-0.882815,30,3,39240,3945841
99,4,0.998943,0.0149669,0.0434623,0.000640436,-0.83769,0.00391854,9.75644,0.414604,-0.314195,0.784126,-0.00838375,2.9691e-05,0.0975638,1,4.76076e-05,-3.51424e-05,1.2224e-05,0.00952151,-0.00702848,0.00244479,0.998943,0.0149669,0.0434623,0.000640436,-0.295353,-0.0160962,-0.882815,30,3,39240,3945841
100,1,0.998942,0.0150326,0.0434603,0.000671146,-0.622585,0.0912267,9.79981,0.676183,-0.243719,0.826564,-0.00622527,0.000902099,0.0979982,1,5.03081e-05,3.19446e-06,2.47007e-05,0.0100616,0.000638893,0.00494015,0.998942,0.0150326,0.0434603,0.000671146,-0.293326,-0.0157056,-0.87827,30,3,39242,3946041
100,2,0.998941,0.0150557,0.0434821,0.000663989,-0.722274,0.101109,9.78393,0.569729,-0.227481,0.804819,-0.00721925,0.00100163,0.0978396,1,4.75272e-05,1.79484e-05,1.12992e-05,0.00950544,0.00358968,0.00225985,0.998941,0.0150557,0.0434821,0.000663989,-0.294321,-0.0151918,-0.879264,30,3,39243,3946141
100,3,0.998941,0.0150557,0.0434821,0.000663989,-0.722274,0.101109,9.78393,0.569729,-0.227481,0.804819,-0.00721925,0.00100163,0.0978396,1,4.75272e-05,1.79484e-05,1.12992e-05,0.00950544,0.00358968,0.00225985,0.998941,0.0150557,0.0434821,0.000663989,-0.294321,-0.0151918,-0.879264,30,3,39243,3946141
100,4,0.998941,0.0150557,0.0434821,0.000663989,-0.722274,0.101109,9.78393,0.569729,-0.227481,0.804819,-0.00721925,0.00100163,0.0978396,1,4.75272e-05,1.79484e-05,1.12992e-05,0.00950544,0.00358968,0.00225985,0.998941,0.0150557,0.0434821,0.000663989,-0.294321,-0.0151918,-0.879264,30,3,39243,3946141
