frame_id,imu_idx,quat_w,quat_x,quat_y,quat_z,accel_x,accel_y,accel_z,free_accel_x,free_accel_y,free_accel_z,delta_v_x,delta_v_y,delta_v_z,delta_q_w,delta_q_x,delta_q_y,delta_q_z,rate_x,rate_y,rate_z,quat_w,quat_x,quat_y,quat_z,mag_x,mag_y,mag_z,temperature,status_byte,packet_counter,time_fine
1,1,0.999506,0.00554401,0.0306775,0.00400557,-0.639368,-0.0561663,9.79081,0.0766157,-0.694836,0.982839,-0.00639686,-0.000571361,0.0979079,1,4.86933e-05,-1.62923e-05,1.27629e-05,0.00973866,-0.00325846,0.00255258,0.999506,0.00554401,0.0306775,0.00400557,0.0157226,0.501557,-1.00305,34.75,3,27595,2808187
1,2,0.999506,0.00554401,0.0306775,0.00400557,-0.66242,-0.0736935,7.36855,0.0766157,-0.694836,0.982839,-0.00662444,-0.000737564,0.0736855,1,2.40478e-06,-1.79929e-06,2.0707e-05,0.000480957,-0.000359859,0.0041414,0.999506,0.00554401,0.0306775,0.00400557,0.0241384,0.496016,-0.997152,34.6875,1,34000,3450175
1,3,0.999506,0.00554401,0.0306775,0.00400557,-0.66242,-0.0736935,7.36855,0.0766157,-0.694836,0.982839,-0.00662444,-0.000737564,0.0736855,1,2.40478e-06,-1.79929e-06,2.0707e-05,0.000480957,-0.000359859,0.0041414,0.999506,0.00554401,0.0306775,0.00400557,0.0241384,0.496016,-0.997152,34.6875,1,34000,3450175
1,4,0.999506,0.00554401,0.0306775,0.00400557,-0.66242,-0.0736935,7.36855,0.0766157,-0.694836,0.982839,-0.00662444,-0.000737564,0.0736855,1,2.40478e-06,-1.79929e-06,2.0707e-05,0.000480957,-0.000359859,0.0041414,0.999506,0.00554401,0.0306775,0.00400557,0.0241384,0.496016,-0.997152,34.6875,1,34000,3450175
2,1,0.998984,-0.00499111,0.0447846,-0.000213911,-0.919671,-0.166545,9.81831,0.116916,-0.544121,1.04485,-0.00920261,-0.00166325,0.0981826,1,-1.19899e-05,-3.01936e-05,8.79319e-06,-0.00239797,-0.00603871,0.00175864,0.998984,-0.00499111,0.0447846,-0.000213911,0.0217167,0.497011,-0.997119,34.6875,1,34001,3450275
2,2,0.998984,-0.00499111,0.0447846,-0.000213911,-0.919671,-0.166545,9.81831,0.116916,-0.544121,1.04485,-0.00920261,-0.00166325,0.0981826,1,-1.19899e-05,-3.01936e-05,8.79319e-06,-0.00239797,-0.00603871,0.00175864,0.998984,-0.00499111,0.0447846,-0.000213911,0.0217167,0.497011,-0.997119,34.6875,1,34001,3450275
2,3,0.998984,-0.00499111,0.0447846,-0.000213911,-0.919671,-0.166545,9.81831,0.116916,-0.544121,1.04485,-0.00920261,-0.00166325,0.0981826,1,-1.19899e-05,-3.01936e-05,8.79319e-06,-0.00239797,-0.00603871,0.00175864,0.998984,-0.00499111,0.0447846,-0.000213911,0.0217167,0.497011,-0.997119,34.6875,1,34001,3450275
2,4,0.998988,-0.00493866,0.0447164,-0.000246951,-0.953211,-0.141529,9.73228,0.0618447,-0.540771,0.968428,-0.00954316,-0.00142669,0.0973216,1,5.92812e-05,-5.66387e-05,-7.62291e-06,0.0118562,-0.0113277,-0.00152458,0.998988,-0.00493866,0.0447164,-0.000246951,0.0226666,0.497012,-0.997628,34.6875,1,34002,3450375
3,1,0.998988,-0.00493866,0.0447164,-0.000246951,-0.953211,-0.141529,9.73228,0.0618447,-0.540771,0.968428,-0.00954316,-0.00142669,0.0973216,1,5.92812e-05,-5.66387e-05,-7.62291e-06,0.0118562,-0.0113277,-0.00152458,0.998988,-0.00493866,0.0447164,-0.000246951,0.0226666,0.497012,-0.997628,34.6875,1,34002,3450375
3,2,0.998988,-0.00493866,0.0447164,-0.000246951,-0.953211,-0.141529,9.73228,0.0618447,-0.540771,0.968428,-0.00954316,-0.00142669,0.0973216,1,5.92812e-05,-5.66387e-05,-7.62291e-06,0.0118562,-0.0113277,-0.00152458,0.998988,-0.00493866,0.0447164,-0.000246951,0.0226666,0.497012,-0.997628,34.6875,1,34002,3450375
3,3,0.998991,-0.00488145,0.0446406,-0.000256791,-0.876752,-0.0018223,9.75977,0.137428,-0.386795,0.970198,-0.00878231,-2.93339e-05,0.0975964,1,5.75971e-05,-7.57627e-05,-7.50754e-06,0.0115194,-0.0151525,-0.00150151,0.998991,-0.00488145,0.0446406,-0.000256791,0.024982,0.498022,-1.00065,34.6875,1,34003,3450475
3,4,0.998991,-0.00488145,0.0446406,-0.000256791,-0.876752,-0.0018223,9.75977,0.137428,-0.386795,0.970198,-0.00878231,-2.93339e-05,0.0975964,1,5.75971e-05,-7.57627e-05,-7.50754e-06,0.0115194,-0.0151525,-0.00150151,0.998991,-0.00488145,0.0446406,-0.000256791,0.024982,0.498022,-1.00065,34.6875,1,34003,3450475
3,5,0.998991,-0.00488145,0.0446406,-0.000256791,-0.876752,-0.0018223,9.75977,0.137428,-0.386795,0.970198,-0.00878231,-2.93339e-05,0.0975964,1,5.75971e-05,-7.57627e-05,-7.50754e-06,0.0115194,-0.0151525,-0.00150151,0.998991,-0.00488145,0.0446406,-0.000256791,0.024982,0.498022,-1.00065,34.6875,1,34003,3450475
3,6,0.998993,-0.00484677,0.0446094,-0.000285237,-0.787652,-0.049509,9.78619,0.236628,-0.436872,1.01536,-0.0078826,-0.000501947,0.0978613,1,3.71841e-05,-3.09351e-05,-2.67078e-05,0.00743682,-0.00618702,-0.00534156,0.998993,-0.00484677,0.0446094,-0.000285237,0.0249407,0.49757,-1.00268,34.6875,1,34004,3450575
3,7,0.998993,-0.00484677,0.0446094,-0.000285237,-0.787652,-0.049509,9.78619,0.236628,-0.436872,1.01536,-0.0078826,-0.000501947,0.0978613,1,3.71841e-05,-3.09351e-05,-2.67078e-05,0.00743682,-0.00618702,-0.00534156,0.998993,-0.00484677,0.0446094,-0.000285237,0.0249407,0.49757,-1.00268,34.6875,1,34004,3450575
3,8,0.998993,-0.00484677,0.0446094,-0.000285237,-0.787652,-0.049509,9.78619,0.236628,-0.436872,1.01536,-0.0078826,-0.000501947,0.0978613,1,3.71841e-05,-3.09351e-05,-2.67078e-05,0.00743682,-0.00618702,-0.00534156,0.998993,-0.00484677,0.0446094,-0.000285237,0.0249407,0.49757,-1.00268,34.6875,1,34004,3450575
3,9,0.998992,-0.00483167,0.0446223,-0.000283316,-0.82426,-0.0645052,9.73675,0.204495,-0.442881,0.984711,-0.00824008,-0.000648125,0.0973677,1,1.55662e-05,1.28894e-05,2.4924e-06,0.00311325,0.00257787,0.00049848,0.998992,-0.00483167,0.0446223,-0.000283316,0.0239695,0.495175,-1.00475,34.6875,1,34005,3450675
3,10,0.998992,-0.00483167,0.0446223,-0.000283316,-0.82426,-0.0645052,9.73675,0.204495,-0.442881,0.984711,-0.00824008,-0.000648125,0.0973677,1,1.55662e-05,1.28894e-05,2.4924e-06,0.00311325,0.00257787,0.00049848,0.998992,-0.00483167,0.0446223,-0.000283316,0.0239695,0.495175,-1.00475,34.6875,1,34005,3450675
3,11,0.998992,-0.00483167,0.0446223,-0.000283316,-0.82426,-0.0645052,9.73675,0.204495,-0.442881,0.984711,-0.00824008,-0.000648125,0.0973677,1,1.55662e-05,1.28894e-05,2.4924e-06,0.00311325,0.00257787,0.00049848,0.998992,-0.00483167,0.0446223,-0.000283316,0.0239695,0.495175,-1.00475,34.6875,1,34005,3450675
3,12,0.998992,-0.00479232,0.0446272,-0.000286933,-1.00165,-0.142951,9.74576,0.0321457,-0.53451,0.988441,-0.0100155,-0.00143732,0.0974576,1,4.02275e-05,4.95285e-06,-1.79929e-06,0.00804551,0.000990571,-0.000359857,0.998992,-0.00479232,0.0446272,-0.000286933,0.0230932,0.493675,-1.00225,34.6875,1,34006,3450775
3,13,0.998992,-0.00479232,0.0446272,-0.000286933,-1.00165,-0.142951,9.74576,0.0321457,-0.53451,0.988441,-0.0100155,-0.00143732,0.0974576,1,4.02275e-05,4.95285e-06,-1.79929e-06,0.00804551,0.000990571,-0.000359857,0.998992,-0.00479232,0.0446272,-0.000286933,0.0230932,0.493675,-1.00225,34.6875,1,34006,3450775
3,14,0.998992,-0.00479232,0.0446272,-0.000286933,-1.00165,-0.142951,9.74576,0.0321457,-0.53451,0.988441,-0.0100155,-0.00143732,0.0974576,1,4.02275e-05,4.95285e-06,-1.79929e-06,0.00804551,0.000990571,-0.000359857,0.998992,-0.00479232,0.0446272,-0.000286933,0.0230932,0.493675,-1.00225,34.6875,1,34006,3450775
4,1,0.998993,-0.00469105,0.0446132,-0.000284223,-1.18252,-0.00408905,9.75703,-0.164137,-0.404174,1.01797,-0.011828,-6.0742e-05,0.09757,1,0.000100874,-1.4137e-05,7.06069e-06,0.0201747,-0.00282739,0.00141214,0.998993,-0.00469105,0.0446132,-0.000284223,0.0231468,0.494118,-0.999715,34.6875,1,34007,3450875
4,2,0.998993,-0.00469105,0.0446132,-0.000284223,-1.18252,-0.00408905,9.75703,-0.164137,-0.404174,1.01797,-0.011828,-6.0742e-05,0.09757,1,0.000100874,-1.4137e-05,7.06069e-06,0.0201747,-0.00282739,0.00141214,0.998993,-0.00469105,0.0446132,-0.000284223,0.0231468,0.494118,-0.999715,34.6875,1,34007,3450875
4,3,0.998993,-0.00469105,0.0446132,-0.000284223,-1.18252,-0.00408905,9.75703,-0.164137,-0.404174,1.01797,-0.011828,-6.0742e-05,0.09757,1,0.000100874,-1.4137e-05,7.06069e-06,0.0201747,-0.00282739,0.00141214,0.998993,-0.00469105,0.0446132,-0.000284223,0.0231468,0.494118,-0.999715,34.6875,1,34007,3450875
4,4,0.998997,-0.00474918,0.0445312,-0.000267079,-1.1033,-0.0905792,9.78228,-0.0761012,-0.445971,1.05945,-0.0110492,-0.000894606,0.0978211,1,-5.8692e-05,-8.28133e-05,1.34288e-05,-0.0117384,-0.0165627,0.00268577,0.998997,-0.00474918,0.0445312,-0.000267079,0.0236122,0.496534,-0.998653,34.6875,1,34008,3450975
4,5,0.998997,-0.00474918,0.0445312,-0.000267079,-1.1033,-0.0905792,9.78228,-0.0761012,-0.445971,1.05945,-0.0110492,-0.000894606,0.0978211,1,-5.8692e-05,-8.28133e-05,1.34288e-05,-0.0117384,-0.0165627,0.00268577,0.998997,-0.00474918,0.0445312,-0.000267079,0.0236122,0.496534,-0.998653,34.6875,1,34008,3450975
4,6,0.998997,-0.00474918,0.0445312,-0.000267079,-1.1033,-0.0905792,9.78228,-0.0761012,-0.445971,1.05945,-0.0110492,-0.000894606,0.0978211,1,-5.8692e-05,-8.28133e-05,1.34288e-05,-0.0117384,-0.0165627,0.00268577,0.998997,-0.00474918,0.0445312,-0.000267079,0.0236122,0.496534,-0.998653,34.6875,1,34008,3450975
4,7,0.999,-0.00462996,0.0444699,-0.000275203,-0.898628,-0.164829,9.78803,0.112704,-0.59045,1.02152,-0.00899832,-0.00167162,0.0978788,1,0.000119361,-6.14539e-05,-2.20066e-06,0.0238721,-0.0122908,-0.000440132,0.999,-0.00462996,0.0444699,-0.000275203,0.0235102,0.499018,-1.00112,34.6875,1,34009,3451075
4,8,0.999,-0.00462996,0.0444699,-0.000275203,-0.898628,-0.164829,9.78803,0.112704,-0.59045,1.02152,-0.00899832,-0.00167162,0.0978788,1,0.000119361,-6.14539e-05,-2.20066e-06,0.0238721,-0.0122908,-0.000440132,0.999,-0.00462996,0.0444699,-0.000275203,0.0235102,0.499018,-1.00112,34.6875,1,34009,3451075
12,1,0.999,-0.00462996,0.0444699,-0.000275203,-0.898628,-0.164829,9.78803,0.112704,-0.59045,1.02152,-0.00899832,-0.00167162,0.0978788,1,0.000119361,-6.14539e-05,-2.20066e-06,0.0238721,-0.0122908,-0.000440132,0.999,-0.00462996,0.0444699,-0.000275203,0.0235102,0.499018,-1.00112,34.6875,1,34009,3451075
12,2,0.998999,-0.0046104,0.0444865,-0.000269447,-0.954419,0.141004,9.75906,0.0825168,-0.22945,0.952984,-0.00954112,0.00140626,0.097591,1,1.86935e-05,1.5821e-05,6.73096e-06,0.0037387,0.00316421,0.00134619,0.998999,-0.0046104,0.0444865,-0.000269447,0.0249241,0.4971,-1.0037,34.6875,1,34010,3451175
12,3,0.998999,-0.0046104,0.0444865,-0.000269447,-0.954419,0.141004,9.75906,0.0825168,-0.22945,0.952984,-0.00954112,0.00140626,0.097591,1,1.86935e-05,1.5821e-05,6.73096e-06,0.0037387,0.00316421,0.00134619,0.998999,-0.0046104,0.0444865,-0.000269447,0.0249241,0.4971,-1.0037,34.6875,1,34010,3451175
12,4,0.998999,-0.0046104,0.0444865,-0.000269447,-0.954419,0.141004,9.75906,0.0825168,-0.22945,0.952984,-0.00954112,0.00140626,0.097591,1,1.86935e-05,1.5821e-05,6.73096e-06,0.0037387,0.00316421,0.00134619,0.998999,-0.0046104,0.0444865,-0.000269447,0.0249241,0.4971,-1.0037,34.6875,1,34010,3451175
12,5,0.998998,-0.00461946,0.0445071,-0.000256381,-1.0572,-0.147203,9.79052,-0.0224847,-0.526582,1.02597,-0.0105681,-0.00147044,0.0979057,1,-9.50139e-06,1.9838e-05,1.31097e-05,-0.00190028,0.00396761,0.00262194,0.998998,-0.00461946,0.0445071,-0.000256381,0.0230073,0.495183,-1.00474,34.6875,1,34011,3451275
12,6,0.998998,-0.00461946,0.0445071,-0.000256381,-1.0572,-0.147203,9.79052,-0.0224847,-0.526582,1.02597,-0.0105681,-0.00147044,0.0979057,1,-9.50139e-06,1.9838e-05,1.31097e-05,-0.00190028,0.00396761,0.00262194,0.998998,-0.00461946,0.0445071,-0.000256381,0.0230073,0.495183,-1.00474,34.6875,1,34011,3451275
10,1,0.998998,-0.00461946,0.0445071,-0.000256381,-1.0572,-0.147203,9.79052,-0.0224847,-0.526582,1.02597,-0.0105681,-0.00147044,0.0979057,1,-9.50139e-06,1.9838e-05,1.31097e-05,-0.00190028,0.00396761,0.00262194,0.998998,-0.00461946,0.0445071,-0.000256381,0.0230073,0.495183,-1.00474,34.6875,1,34011,3451275
10,2,0.998997,-0.00450694,0.0445471,-0.000277061,-1.12439,0.0188573,9.7503,-0.0941907,-0.379638,1.01307,-0.0112362,0.000167028,0.0975039,1,0.000112291,3.92002e-05,-1.5688e-05,0.0224583,0.00784004,-0.00313761,0.998997,-0.00450694,0.0445471,-0.000277061,0.0216251,0.493705,-1.00325,34.6875,1,34012,3451375
10,3,0.998997,-0.00450694,0.0445471,-0.000277061,-1.12439,0.0188573,9.7503,-0.0941907,-0.379638,1.01307,-0.0112362,0.000167028,0.0975039,1,0.000112291,3.92002e-05,-1.5688e-05,0.0224583,0.00784004,-0.00313761,0.998997,-0.00450694,0.0445471,-0.000277061,0.0216251,0.493705,-1.00325,34.6875,1,34012,3451375
10,4,0.998997,-0.00450694,0.0445471,-0.000277061,-1.12439,0.0188573,9.7503,-0.0941907,-0.379638,1.01307,-0.0112362,0.000167028,0.0975039,1,0.000112291,3.92002e-05,-1.5688e-05,0.0224583,0.00784004,-0.00313761,0.998997,-0.00450694,0.0445471,-0.000277061,0.0216251,0.493705,-1.00325,34.6875,1,34012,3451375
10,5,0.998995,-0.00454259,0.0445891,-0.000258759,-1.04634,-0.160412,9.75198,-0.0215634,-0.527386,1.00442,-0.0104555,-0.00159725,0.0975208,1,-3.70295e-05,4.05128e-05,1.67033e-05,-0.00740591,0.00810255,0.00334066,0.998995,-0.00454259,0.0445891,-0.000258759,0.0211896,0.494639,-1.0007,34.6875,1,34013,3451475
10,6,0.998995,-0.00454259,0.0445891,-0.000258759,-1.04634,-0.160412,9.75198,-0.0215634,-0.527386,1.00442,-0.0104555,-0.00159725,0.0975208,1,-3.70295e-05,4.05128e-05,1.67033e-05,-0.00740591,0.00810255,0.00334066,0.998995,-0.00454259,0.0445891,-0.000258759,0.0211896,0.494639,-1.0007,34.6875,1,34013,3451475
10,7,0.998995,-0.00454259,0.0445891,-0.000258759,-1.04634,-0.160412,9.75198,-0.0215634,-0.527386,1.00442,-0.0104555,-0.00159725,0.0975208,1,-3.70295e-05,4.05128e-05,1.67033e-05,-0.00740591,0.00810255,0.00334066,0.998995,-0.00454259,0.0445891,-0.000258759,0.0211896,0.494639,-1.0007,34.6875,1,34013,3451475
10,8,0.998994,-0.00441143,0.0446243,-0.000247162,-1.06306,-0.108901,9.74406,-0.0369568,-0.523998,0.999692,-0.0106241,-0.00111473,0.0974411,1,0.000130078,3.34776e-05,1.7455e-05,0.0260155,0.00669552,0.003491,0.998994,-0.00441143,0.0446243,-0.000247162,0.0231268,0.49606,-0.999167,34.6875,1,34014,3451575
14,1,0.998994,-0.00441143,0.0446243,-0.000247162,-1.06306,-0.108901,9.74406,-0.0369568,-0.523998,0.999692,-0.0106241,-0.00111473,0.0974411,1,0.000130078,3.34776e-05,1.7455e-05,0.0260155,0.00669552,0.003491,0.998994,-0.00441143,0.0446243,-0.000247162,0.0231268,0.49606,-0.999167,34.6875,1,34014,3451575
14,2,0.998994,-0.00441143,0.0446243,-0.000247162,-1.06306,-0.108901,9.74406,-0.0369568,-0.523998,0.999692,-0.0106241,-0.00111473,0.0974411,1,0.000130078,3.34776e-05,1.7455e-05,0.0260155,0.00669552,0.003491,0.998994,-0.00441143,0.0446243,-0.000247162,0.0231268,0.49606,-0.999167,34.6875,1,34014,3451575
14,3,0.998991,-0.00441093,0.0446969,-0.000217158,-1.12191,-0.0270087,9.73969,-0.0861771,-0.394985,0.976388,-0.0112053,-0.000270531,0.0973985,1,-1.21629e-06,7.06578e-05,3.03756e-05,-0.000243259,0.0141316,0.00607511,0.998991,-0.00441093,0.0446969,-0.000217158,0.025047,0.495565,-0.999691,34.6875,1,34015,3451675
14,4,0.998991,-0.00441093,0.0446969,-0.000217158,-1.12191,-0.0270087,9.73969,-0.0861771,-0.394985,0.976388,-0.0112053,-0.000270531,0.0973985,1,-1.21629e-06,7.06578e-05,3.03756e-05,-0.000243259,0.0141316,0.00607511,0.998991,-0.00441093,0.0446969,-0.000217158,0.025047,0.495565,-0.999691,34.6875,1,34015,3451675
14,5,0.998991,-0.00441093,0.0446969,-0.000217158,-1.12191,-0.0270087,9.73969,-0.0861771,-0.394985,0.976388,-0.0112053,-0.000270531,0.0973985,1,-1.21629e-06,7.06578e-05,3.03756e-05,-0.000243259,0.0141316,0.00607511,0.998991,-0.00441093,0.0446969,-0.000217158,0.025047,0.495565,-0.999691,34.6875,1,34015,3451675
14,6,0.998993,-0.00432077,0.0446578,-0.000218415,-1.09,-0.0115261,9.77231,-0.0805335,-0.428074,1.00852,-0.0109082,-0.000132782,0.0977222,1,8.93959e-05,-4.17249e-05,2.28231e-06,0.0178792,-0.00834498,0.000456463,0.998993,-0.00432077,0.0446578,-0.000218415,0.0245498,0.496544,-0.999667,34.6875,1,34016,3451775
15,1,0.998993,-0.00432077,0.0446578,-0.000218415,-1.09,-0.0115261,9.77231,-0.0805335,-0.428074,1.00852,-0.0109082,-0.000132782,0.0977222,1,8.93959e-05,-4.17249e-05,2.28231e-06,0.0178792,-0.00834498,0.000456463,0.998993,-0.00432077,0.0446578,-0.000218415,0.0245498,0.496544,-0.999667,34.6875,1,34016,3451775
15,2,0.998993,-0.00432077,0.0446578,-0.000218415,-1.09,-0.0115261,9.77231,-0.0805335,-0.428074,1.00852,-0.0109082,-0.000132782,0.0977222,1,8.93959e-05,-4.17249e-05,2.28231e-06,0.0178792,-0.00834498,0.000456463,0.998993,-0.00432077,0.0446578,-0.000218415,0.0245498,0.496544,-0.999667,34.6875,1,34016,3451775
15,3,0.998996,-0.00430921,0.0446022,-0.000208973,-0.876871,-0.0155891,9.76675,0.132648,-0.393238,0.979787,-0.00878017,-0.000158182,0.0976665,1,1.08945e-05,-5.86901e-05,9.27951e-06,0.0021789,-0.011738,0.0018559,0.998996,-0.00430921,0.0446022,-0.000208973,0.0235586,0.496092,-1.00119,34.6875,1,34017,3451875
15,4,0.998996,-0.00430921,0.0446022,-0.000208973,-0.876871,-0.0155891,9.76675,0.132648,-0.393238,0.979787,-0.00878017,-0.000158182,0.0976665,1,1.08945e-05,-5.86901e-05,9.27951e-06,0.0021789,-0.011738,0.0018559,0.998996,-0.00430921,0.0446022,-0.000208973,0.0235586,0.496092,-1.00119,34.6875,1,34017,3451875
15,5,0.998996,-0.00430921,0.0446022,-0.000208973,-0.876871,-0.0155891,9.76675,0.132648,-0.393238,0.979787,-0.00878017,-0.000158182,0.0976665,1,1.08945e-05,-5.86901e-05,9.27951e-06,0.0021789,-0.011738,0.0018559,0.998996,-0.00430921,0.0446022,-0.000208973,0.0235586,0.496092,-1.00119,34.6875,1,34017,3451875
15,6,0.998997,-0.00423071,0.0445723,-0.000194007,-0.73607,-0.0377713,9.828,0.300554,-0.445855,1.03498,-0.00736718,-0.000393074,0.0982794,1,7.68059e-05,-3.30714e-05,1.78933e-05,0.0153612,-0.00661429,0.00357866,0.998997,-0.00423071,0.0445723,-0.000194007,0.0235871,0.495107,-1.0007,34.6875,1,34018,3451975
15,7,0.998997,-0.00423071,0.0445723,-0.000194007,-0.73607,-0.0377713,9.828,0.300554,-0.445855,1.03498,-0.00736718,-0.000393074,0.0982794,1,7.68059e-05,-3.30714e-05,1.78933e-05,0.0153612,-0.00661429,0.00357866,0.998997,-0.00423071,0.0445723,-0.000194007,0.0235871,0.495107,-1.0007,34.6875,1,34018,3451975
15,8,0.998997,-0.00423071,0.0445723,-0.000194007,-0.73607,-0.0377713,9.828,0.300554,-0.445855,1.03498,-0.00736718,-0.000393074,0.0982794,1,7.68059e-05,-3.30714e-05,1.78933e-05,0.0153612,-0.00661429,0.00357866,0.998997,-0.00423071,0.0445723,-0.000194007,0.0235871,0.495107,-1.0007,34.6875,1,34018,3451975
16,1,0.998998,-0.00423956,0.044564,-0.000166441,-0.74708,-0.00696303,9.7649,0.286432,-0.392134,0.983162,-0.007473,-6.79292e-05,0.0976489,1,-1.0712e-05,-1.12901e-05,2.6155e-05,-0.0021424,-0.00225802,0.00523099,0.998998,-0.00423956,0.044564,-0.000166441,0.022658,0.496055,-0.998659,34.6875,1,34019,3452075
16,2,0.998998,-0.00423956,0.044564,-0.000166441,-0.74708,-0.00696303,9.7649,0.286432,-0.392134,0.983162,-0.007473,-6.79292e-05,0.0976489,1,-1.0712e-05,-1.12901e-05,2.6155e-05,-0.0021424,-0.00225802,0.00523099,0.998998,-0.00423956,0.044564,-0.000166441,0.022658,0.496055,-0.998659,34.6875,1,34019,3452075
16,3,0.998998,-0.00423956,0.044564,-0.000166441,-0.74708,-0.00696303,9.7649,0.286432,-0.392134,0.983162,-0.007473,-6.79292e-05,0.0976489,1,-1.0712e-05,-1.12901e-05,2.6155e-05,-0.0021424,-0.00225802,0.00523099,0.998998,-0.00423956,0.044564,-0.000166441,0.022658,0.496055,-0.998659,34.6875,1,34019,3452075
16,4,0.998997,-0.00420733,0.0445873,-0.000155302,-0.788011,-0.15629,9.77134,0.248855,-0.555554,0.99316,-0.00787603,-0.00156909,0.0977136,1,3.06925e-05,2.07058e-05,1.22519e-05,0.0061385,0.00414116,0.00245039,0.998997,-0.00420733,0.0445873,-0.000155302,0.0231273,0.497505,-0.998124,34.6875,1,34020,3452175
16,5,0.998997,-0.00420733,0.0445873,-0.000155302,-0.788011,-0.15629,9.77134,0.248855,-0.555554,0.99316,-0.00787603,-0.00156909,0.0977136,1,3.06925e-05,2.07058e-05,1.22519e-05,0.0061385,0.00414116,0.00245039,0.998997,-0.00420733,0.0445873,-0.000155302,0.0231273,0.497505,-0.998124,34.6875,1,34020,3452175
16,6,0.998997,-0.00420733,0.0445873,-0.000155302,-0.788011,-0.15629,9.77134,0.248855,-0.555554,0.99316,-0.00787603,-0.00156909,0.0977136,1,3.06925e-05,2.07058e-05,1.22519e-05,0.0061385,0.00414116,0.00245039,0.998997,-0.00420733,0.0445873,-0.000155302,0.0231273,0.497505,-0.998124,34.6875,1,34020,3452175
16,7,0.998996,-0.00411801,0.0446115,-0.000137208,-0.885222,-0.019539,9.7691,0.136964,-0.423748,0.981081,-0.00884803,-0.000212887,0.0976913,1,8.76694e-05,2.13898e-05,2.07625e-05,0.0175339,0.00427797,0.00415251,0.998996,-0.00411801,0.0446115,-0.000137208,0.023021,0.49951,-1.00111,34.6875,1,34021,3452275
16,8,0.998996,-0.00411801,0.0446115,-0.000137208,-0.885222,-0.019539,9.7691,0.136964,-0.423748,0.981081,-0.00884803,-0.000212887,0.0976913,1,8.76694e-05,2.13898e-05,2.07625e-05,0.0175339,0.00427797,0.00415251,0.998996,-0.00411801,0.0446115,-0.000137208,0.023021,0.49951,-1.00111,34.6875,1,34021,3452275
17,1,0.998996,-0.00411801,0.0446115,-0.000137208,-0.885222,-0.019539,9.7691,0.136964,-0.423748,0.981081,-0.00884803,-0.000212887,0.0976913,1,8.76694e-05,2.13898e-05,2.07625e-05,0.0175339,0.00427797,0.00415251,0.998996,-0.00411801,0.0446115,-0.000137208,0.023021,0.49951,-1.00111,34.6875,1,34021,3452275
17,2,0.998997,-0.0040852,0.0445879,-0.000126968,-0.823922,-0.0366514,9.75703,0.18909,-0.432596,0.969704,-0.00824429,-0.000372863,0.0975699,1,3.15978e-05,-2.60399e-05,1.10809e-05,0.00631956,-0.00520799,0.00221617,0.998997,-0.0040852,0.0445879,-0.000126968,0.0234689,0.498567,-1.00315,34.6875,1,34022,3452375
17,3,0.998997,-0.0040852,0.0445879,-0.000126968,-0.823922,-0.0366514,9.75703,0.18909,-0.432596,0.969704,-0.00824429,-0.000372863,0.0975699,1,3.15978e-05,-2.60399e-05,1.10809e-05,0.00631956,-0.00520799,0.00221617,0.998997,-0.0040852,0.0445879,-0.000126968,0.0234689,0.498567,-1.00315,34.6875,1,34022,3452375
17,4,0.998997,-0.0040852,0.0445879,-0.000126968,-0.823922,-0.0366514,9.75703,0.18909,-0.432596,0.969704,-0.00824429,-0.000372863,0.0975699,1,3.15978e-05,-2.60399e-05,1.10809e-05,0.00631956,-0.00520799,0.00221617,0.998997,-0.0040852,0.0445879,-0.000126968,0.0234689,0.498567,-1.00315,34.6875,1,34022,3452375
17,5,0.998999,-0.00403857,0.044538,-0.000129687,-0.520206,-0.00975888,9.81424,0.480853,-0.420007,1.01529,-0.00521227,-0.000106519,0.0981419,1,4.55549e-05,-5.20291e-05,-1.06326e-06,0.00911097,-0.0104058,-0.000212653,0.998999,-0.00403857,0.044538,-0.000129687,0.0224696,0.498602,-1.00466,34.6875,1,34023,3452475
17,6,0.998999,-0.00403857,0.044538,-0.000129687,-0.520206,-0.00975888,9.81424,0.480853,-0.420007,1.01529,-0.00521227,-0.000106519,0.0981419,1,4.55549e-05,-5.20291e-05,-1.06326e-06,0.00911097,-0.0104058,-0.000212653,0.998999,-0.00403857,0.044538,-0.000129687,0.0224696,0.498602,-1.00466,34.6875,1,34023,3452475
17,7,0.998999,-0.00403857,0.044538,-0.000129687,-0.520206,-0.00975888,9.81424,0.480853,-0.420007,1.01529,-0.00521227,-0.000106519,0.0981419,1,4.55549e-05,-5.20291e-05,-1.06326e-06,0.00911097,-0.0104058,-0.000212653,0.998999,-0.00403857,0.044538,-0.000129687,0.0224696,0.498602,-1.00466,34.6875,1,34023,3452475
17,8,0.998996,-0.00403791,0.0446255,-0.000119265,-0.448591,-0.0465579,9.78318,0.604784,-0.43662,0.973166,-0.00446904,-0.000465481,0.0978325,1,-9.70928e-07,8.61902e-05,1.02682e-05,-0.000194186,0.017238,0.00205364,0.998996,-0.00403791,0.0446255,-0.000119265,0.022054,0.497594,-1.00266,34.6875,1,34024,3452575
18,1,0.998996,-0.00403791,0.0446255,-0.000119265,-0.448591,-0.0465579,9.78318,0.604784,-0.43662,0.973166,-0.00446904,-0.000465481,0.0978325,1,-9.70928e-07,8.61902e-05,1.02682e-05,-0.000194186,0.017238,0.00205364,0.998996,-0.00403791,0.0446255,-0.000119265,0.022054,0.497594,-1.00266,34.6875,1,34024,3452575
18,2,0.998996,-0.00403791,0.0446255,-0.000119265,-0.448591,-0.0465579,9.78318,0.604784,-0.43662,0.973166,-0.00446904,-0.000465481,0.0978325,1,-9.70928e-07,8.61902e-05,1.02682e-05,-0.000194186,0.017238,0.00205364,0.998996,-0.00403791,0.0446255,-0.000119265,0.022054,0.497594,-1.00266,34.6875,1,34024,3452575
18,3,0.99899,-0.00396987,0.0447486,-0.000101028,-0.770574,-0.0486655,9.77885,0.289617,-0.465011,1.00016,-0.00768163,-0.000499887,0.0977904,1,6.59872e-05,0.000123156,2.11803e-05,0.0131974,0.0246312,0.00423606,0.99899,-0.00396987,0.0447486,-0.000101028,0.0216749,0.495114,-1.00019,34.6875,1,34025,3452675
18,4,0.99899,-0.00396987,0.0447486,-0.000101028,-0.770574,-0.0486655,9.77885,0.289617,-0.465011,1.00016,-0.00768163,-0.000499887,0.0977904,1,6.59872e-05,0.000123156,2.11803e-05,0.0131974,0.0246312,0.00423606,0.99899,-0.00396987,0.0447486,-0.000101028,0.0216749,0.495114,-1.00019,34.6875,1,34025,3452675
18,5,0.99899,-0.00396987,0.0447486,-0.000101028,-0.770574,-0.0486655,9.77885,0.289617,-0.465011,1.00016,-0.00768163,-0.000499887,0.0977904,1,6.59872e-05,0.000123156,2.11803e-05,0.0131974,0.0246312,0.00423606,0.99899,-0.00396987,0.0447486,-0.000101028,0.0216749,0.495114,-1.00019,34.6875,1,34025,3452675
18,6,0.998992,-0.00395124,0.0447224,-9.50463e-05,-0.847625,0.0172647,9.80246,0.164318,-0.376419,1.03346,-0.00848142,0.000169104,0.0980242,1,1.75706e-05,-2.63507e-05,5.77925e-06,0.00351413,-0.00527015,0.00115585,0.998992,-0.00395124,0.0447224,-9.50463e-05,0.0212308,0.495091,-0.998674,34.6875,1,34026,3452775
19,1,0.998992,-0.00395124,0.0447224,-9.50463e-05,-0.847625,0.0172647,9.80246,0.164318,-0.376419,1.03346,-0.00848142,0.000169104,0.0980242,1,1.75706e-05,-2.63507e-05,5.77925e-06,0.00351413,-0.00527015,0.00115585,0.998992,-0.00395124,0.0447224,-9.50463e-05,0.0212308,0.495091,-0.998674,34.6875,1,34026,3452775
19,2,0.998992,-0.00395124,0.0447224,-9.50463e-05,-0.847625,0.0172647,9.80246,0.164318,-0.376419,1.03346,-0.00848142,0.000169104,0.0980242,1,1.75706e-05,-2.63507e-05,5.77925e-06,0.00351413,-0.00527015,0.00115585,0.998992,-0.00395124,0.0447224,-9.50463e-05,0.0212308,0.495091,-0.998674,34.6875,1,34026,3452775
19,3,0.998992,-0.00396024,0.0447116,-9.27775e-05,-0.583755,-0.0988461,9.79489,0.444999,-0.498044,0.989397,-0.00583963,-0.000986363,0.0979488,1,-1.07549e-05,-1.06618e-05,7.65474e-07,-0.00215099,-0.00213235,0.000153095,0.998992,-0.00396024,0.0447116,-9.27775e-05,0.0220872,0.498534,-1.00062,34.6875,1,34027,3452875
19,4,0.998992,-0.00396024,0.0447116,-9.27775e-05,-0.583755,-0.0988461,9.79489,0.444999,-0.498044,0.989397,-0.00583963,-0.000986363,0.0979488,1,-1.07549e-05,-1.06618e-05,7.65474e-07,-0.00215099,-0.00213235,0.000153095,0.998992,-0.00396024,0.0447116,-9.27775e-05,0.0220872,0.498534,-1.00062,34.6875,1,34027,3452875
19,5,0.99899,-0.00388898,0.0447556,-7.25087e-05,-0.607619,-0.00967204,9.83989,0.433662,-0.42791,1.03502,-0.00606733,-0.000110393,0.0983994,1,6.80891e-05,4.49714e-05,2.24992e-05,0.0136178,0.00899429,0.00449984,0.99899,-0.00388898,0.0447556,-7.25087e-05,0.0244269,0.49808,-1.00367,34.6875,1,34028,3452975
19,6,0.99899,-0.00388898,0.0447556,-7.25087e-05,-0.607619,-0.00967204,9.83989,0.433662,-0.42791,1.03502,-0.00606733,-0.000110393,0.0983994,1,6.80891e-05,4.49714e-05,2.24992e-05,0.0136178,0.00899429,0.00449984,0.99899,-0.00388898,0.0447556,-7.25087e-05,0.0244269,0.49808,-1.00367,34.6875,1,34028,3452975
19,7,0.99899,-0.00388898,0.0447556,-7.25087e-05,-0.607619,-0.00967204,9.83989,0.433662,-0.42791,1.03502,-0.00606733,-0.000110393,0.0983994,1,6.80891e-05,4.49714e-05,2.24992e-05,0.0136178,0.00899429,0.00449984,0.99899,-0.00388898,0.0447556,-7.25087e-05,0.0244269,0.49808,-1.00367,34.6875,1,34028,3452975
19,8,0.998991,-0.00392526,0.0447411,-6.48051e-05,-0.656014,-0.090248,9.79886,0.383672,-0.475061,1.00099,-0.00656252,-0.000894938,0.0979885,1,-3.88547e-05,-1.22225e-05,5.53418e-06,-0.00777095,-0.0024445,0.00110684,0.998991,-0.00392526,0.0447411,-6.48051e-05,0.0243941,0.498586,-1.00467,34.6875,1,34029,3453075
20,1,0.998991,-0.00392526,0.0447411,-6.48051e-05,-0.656014,-0.090248,9.79886,0.383672,-0.475061,1.00099,-0.00656252,-0.000894938,0.0979885,1,-3.88547e-05,-1.22225e-05,5.53418e-06,-0.00777095,-0.0024445,0.00110684,0.998991,-0.00392526,0.0447411,-6.48051e-05,0.0243941,0.498586,-1.00467,34.6875,1,34029,3453075
20,2,0.998991,-0.00392526,0.0447411,-6.48051e-05,-0.656014,-0.090248,9.79886,0.383672,-0.475061,1.00099,-0.00656252,-0.000894938,0.0979885,1,-3.88547e-05,-1.22225e-05,5.53418e-06,-0.00777095,-0.0024445,0.00110684,0.998991,-0.00392526,0.0447411,-6.48051e-05,0.0243941,0.498586,-1.00467,34.6875,1,34029,3453075
20,3,0.998991,-0.00387062,0.0447409,-6.84195e-05,-0.617864,-0.194142,9.81059,0.421546,-0.612623,1.00779,-0.00617815,-0.00195181,0.0981057,1,5.30649e-05,2.50511e-06,-1.9037e-06,0.010613,0.000501022,-0.000380741,0.998991,-0.00387062,0.0447409,-6.84195e-05,0.0225271,0.498078,-1.00265,34.6875,1,34030,3453175
20,4,0.998991,-0.00387062,0.0447409,-6.84195e-05,-0.617864,-0.194142,9.81059,0.421546,-0.612623,1.00779,-0.00617815,-0.00195181,0.0981057,1,5.30649e-05,2.50511e-06,-1.9037e-06,0.010613,0.000501022,-0.000380741,0.998991,-0.00387062,0.0447409,-6.84195e-05,0.0225271,0.498078,-1.00265,34.6875,1,34030,3453175
20,5,0.998991,-0.00387062,0.0447409,-6.84195e-05,-0.617864,-0.194142,9.81059,0.421546,-0.612623,1.00779,-0.00617815,-0.00195181,0.0981057,1,5.30649e-05,2.50511e-06,-1.9037e-06,0.010613,0.000501022,-0.000380741,0.998991,-0.00387062,0.0447409,-6.84195e-05,0.0225271,0.498078,-1.00265,34.6875,1,34030,3453175
20,6,0.998992,-0.00380519,0.0447206,-8.20058e-05,-0.599167,-0.148458,9.81596,0.427244,-0.554299,1.02302,-0.00599491,-0.00149714,0.0981592,1,6.45797e-05,-1.63854e-05,-1.00498e-05,0.0129159,-0.00327708,-0.00200996,0.998992,-0.00380519,0.0447206,-8.20058e-05,0.0211696,0.496581,-1.00016,34.6875,1,34031,3453275
21,1,0.998992,-0.00380519,0.0447206,-8.20058e-05,-0.599167,-0.148458,9.81596,0.427244,-0.554299,1.02302,-0.00599491,-0.00149714,0.0981592,1,6.45797e-05,-1.63854e-05,-1.00498e-05,0.0129159,-0.00327708,-0.00200996,0.998992,-0.00380519,0.0447206,-8.20058e-05,0.0211696,0.496581,-1.00016,34.6875,1,34031,3453275
21,2,0.998992,-0.00380519,0.0447206,-8.20058e-05,-0.599167,-0.148458,9.81596,0.427244,-0.554299,1.02302,-0.00599491,-0.00149714,0.0981592,1,6.45797e-05,-1.63854e-05,-1.00498e-05,0.0129159,-0.00327708,-0.00200996,0.998992,-0.00380519,0.0447206,-8.20058e-05,0.0211696,0.496581,-1.00016,34.6875,1,34031,3453275
21,3,0.998994,-0.00372218,0.0446904,-7.50421e-05,-0.491283,-0.0921761,9.77093,0.531297,-0.510991,0.962832,-0.00491787,-0.000937804,0.0977089,1,8.16172e-05,-2.58688e-05,9.51354e-06,0.0163234,-0.00517376,0.00190271,0.998994,-0.00372218,0.0446904,-7.50421e-05,0.0221978,0.497007,-0.997121,34.6875,1,34032,3453375
21,4,0.998994,-0.00372218,0.0446904,-7.50421e-05,-0.491283,-0.0921761,9.77093,0.531297,-0.510991,0.962832,-0.00491787,-0.000937804,0.0977089,1,8.16172e-05,-2.58688e-05,9.51354e-06,0.0163234,-0.00517376,0.00190271,0.998994,-0.00372218,0.0446904,-7.50421e-05,0.0221978,0.497007,-0.997121,34.6875,1,34032,3453375
21,5,0.998994,-0.00372218,0.0446904,-7.50421e-05,-0.491283,-0.0921761,9.77093,0.531297,-0.510991,0.962832,-0.00491787,-0.000937804,0.0977089,1,8.16172e-05,-2.58688e-05,9.51354e-06,0.0163234,-0.00517376,0.00190271,0.998994,-0.00372218,0.0446904,-7.50421e-05,0.0221978,0.497007,-0.997121,34.6875,1,34032,3453375
21,6,0.998994,-0.00369215,0.0446873,-7.81374e-05,-0.522164,-0.0656273,9.79441,0.510831,-0.471635,0.970879,-0.0052213,-0.000661917,0.097944,1,2.90107e-05,1.76024e-06,-3.71776e-06,0.00580214,0.000352048,-0.000743552,0.998994,-0.00369215,0.0446873,-7.81374e-05,0.0235353,0.500446,-0.999071,34.6875,1,34033,3453475
22,1,0.998994,-0.00369215,0.0446873,-7.81374e-05,-0.522164,-0.0656273,9.79441,0.510831,-0.471635,0.970879,-0.0052213,-0.000661917,0.097944,1,2.90107e-05,1.76024e-06,-3.71776e-06,0.00580214,0.000352048,-0.000743552,0.998994,-0.00369215,0.0446873,-7.81374e-05,0.0235353,0.500446,-0.999071,34.6875,1,34033,3453475
22,2,0.998994,-0.00369215,0.0446873,-7.81374e-05,-0.522164,-0.0656273,9.79441,0.510831,-0.471635,0.970879,-0.0052213,-0.000661917,0.097944,1,2.90107e-05,1.76024e-06,-3.71776e-06,0.00580214,0.000352048,-0.000743552,0.998994,-0.00369215,0.0446873,-7.81374e-05,0.0235353,0.500446,-0.999071,34.6875,1,34033,3453475
22,3,0.998995,-0.00362004,0.0446746,-9.58865e-05,-0.625874,-0.128544,9.80747,0.430277,-0.542328,0.998727,-0.00625981,-0.00129933,0.0980744,1,7.17119e-05,-5.24764e-06,-1.42339e-05,0.0143424,-0.00104953,-0.00284678,0.998995,-0.00362004,0.0446746,-9.58865e-05,0.0234285,0.501005,-1.0031,34.6875,1,34034,3453575
22,4,0.998995,-0.00362004,0.0446746,-9.58865e-05,-0.625874,-0.128544,9.80747,0.430277,-0.542328,0.998727,-0.00625981,-0.00129933,0.0980744,1,7.17119e-05,-5.24764e-06,-1.42339e-05,0.0143424,-0.00104953,-0.00284678,0.998995,-0.00362004,0.0446746,-9.58865e-05,0.0234285,0.501005,-1.0031,34.6875,1,34034,3453575
22,5,0.998995,-0.00362004,0.0446746,-9.58865e-05,-0.625874,-0.128544,9.80747,0.430277,-0.542328,0.998727,-0.00625981,-0.00129933,0.0980744,1,7.17119e-05,-5.24764e-06,-1.42339e-05,0.0143424,-0.00104953,-0.00284678,0.998995,-0.00362004,0.0446746,-9.58865e-05,0.0234285,0.501005,-1.0031,34.6875,1,34034,3453575
22,6,0.998996,-0.00354207,0.0446638,-9.19596e-05,-0.819833,-0.0735223,9.75022,0.226153,-0.492569,0.96487,-0.00819892,-0.000750287,0.0975021,1,7.67168e-05,-3.06407e-06,6.37019e-06,0.0153434,-0.000612814,0.00127404,0.998996,-0.00354207,0.0446638,-9.19596e-05,0.0224863,0.499071,-1.00364,34.6875,1,34035,3453675
23,1,0.998996,-0.00354207,0.0446638,-9.19596e-05,-0.819833,-0.0735223,9.75022,0.226153,-0.492569,0.96487,-0.00819892,-0.000750287,0.0975021,1,7.67168e-05,-3.06407e-06,6.37019e-06,0.0153434,-0.000612814,0.00127404,0.998996,-0.00354207,0.0446638,-9.19596e-05,0.0224863,0.499071,-1.00364,34.6875,1,34035,3453675
23,2,0.998996,-0.00354207,0.0446638,-9.19596e-05,-0.819833,-0.0735223,9.75022,0.226153,-0.492569,0.96487,-0.00819892,-0.000750287,0.0975021,1,7.67168e-05,-3.06407e-06,6.37019e-06,0.0153434,-0.000612814,0.00127404,0.998996,-0.00354207,0.0446638,-9.19596e-05,0.0224863,0.499071,-1.00364,34.6875,1,34035,3453675
23,3,0.998999,-0.00350141,0.0445978,-8.52579e-05,-0.952845,-0.0819603,9.78199,0.0857704,-0.49722,0.999671,-0.00953958,-0.000827486,0.0978187,1,3.93787e-05,-5.70096e-05,9.42315e-06,0.00787574,-0.0114019,0.00188463,0.998999,-0.00350141,0.0445978,-8.52579e-05,0.0235178,0.497085,-1.00218,34.6875,1,34036,3453775
23,4,0.998999,-0.00350141,0.0445978,-8.52579e-05,-0.952845,-0.0819603,9.78199,0.0857704,-0.49722,0.999671,-0.00953958,-0.000827486,0.0978187,1,3.93787e-05,-5.70096e-05,9.42315e-06,0.00787574,-0.0114019,0.00188463,0.998999,-0.00350141,0.0445978,-8.52579e-05,0.0235178,0.497085,-1.00218,34.6875,1,34036,3453775
23,5,0.998999,-0.00350141,0.0445978,-8.52579e-05,-0.952845,-0.0819603,9.78199,0.0857704,-0.49722,0.999671,-0.00953958,-0.000827486,0.0978187,1,3.93787e-05,-5.70096e-05,9.42315e-06,0.00787574,-0.0114019,0.00188463,0.998999,-0.00350141,0.0445978,-8.52579e-05,0.0235178,0.497085,-1.00218,34.6875,1,34036,3453775
23,6,0.999004,-0.00342313,0.0444894,-7.45887e-05,-0.983572,-0.0520903,9.76518,0.0449863,-0.472642,0.999238,-0.00985536,-0.000536106,0.0976497,1,7.64639e-05,-0.00010062,1.367e-05,0.0152928,-0.0201239,0.00273401,0.999004,-0.00342313,0.0444894,-7.45887e-05,0.0231192,0.497993,-0.998113,34.6875,1,34037,3453875
23,7,0.999004,-0.00342313,0.0444894,-7.45887e-05,-0.983572,-0.0520903,9.76518,0.0449863,-0.472642,0.999238,-0.00985536,-0.000536106,0.0976497,1,7.64639e-05,-0.00010062,1.367e-05,0.0152928,-0.0201239,0.00273401,0.999004,-0.00342313,0.0444894,-7.45887e-05,0.0231192,0.497993,-0.998113,34.6875,1,34037,3453875
23,8,0.999004,-0.00342313,0.0444894,-7.45887e-05,-0.983572,-0.0520903,9.76518,0.0449863,-0.472642,0.999238,-0.00985536,-0.000536106,0.0976497,1,7.64639e-05,-0.00010062,1.367e-05,0.0152928,-0.0201239,0.00273401,0.999004,-0.00342313,0.0444894,-7.45887e-05,0.0231192,0.497993,-0.998113,34.6875,1,34037,3453875
24,1,0.999008,-0.00334963,0.044393,-6.11456e-05,-0.998244,-0.0257278,9.78483,0.0304429,-0.445394,1.02529,-0.00999993,-0.000271726,0.0978465,1,7.22655e-05,-8.94161e-05,1.53139e-05,0.0144531,-0.0178832,0.00306279,0.999008,-0.00334963,0.044393,-6.11456e-05,0.0231073,0.499447,-0.997576,34.6875,1,34038,3453975
24,2,0.999008,-0.00334963,0.044393,-6.11456e-05,-0.998244,-0.0257278,9.78483,0.0304429,-0.445394,1.02529,-0.00999993,-0.000271726,0.0978465,1,7.22655e-05,-8.94161e-05,1.53139e-05,0.0144531,-0.0178832,0.00306279,0.999008,-0.00334963,0.044393,-6.11456e-05,0.0231073,0.499447,-0.997576,34.6875,1,34038,3453975
24,3,0.999008,-0.00334963,0.044393,-6.11456e-05,-0.998244,-0.0257278,9.78483,0.0304429,-0.445394,1.02529,-0.00999993,-0.000271726,0.0978465,1,7.22655e-05,-8.94161e-05,1.53139e-05,0.0144531,-0.0178832,0.00306279,0.999008,-0.00334963,0.044393,-6.11456e-05,0.0231073,0.499447,-0.997576,34.6875,1,34038,3453975
24,4,0.999015,-0.00325957,0.0442525,-4.5655e-05,-0.903554,0.0339117,9.7766,0.103668,-0.398906,1.00732,-0.00906154,0.000321468,0.0977637,1,8.82987e-05,-0.000132879,2.12035e-05,0.0176597,-0.0265758,0.00424071,0.999015,-0.00325957,0.0442525,-4.5655e-05,0.0239343,0.500983,-1.00209,34.6875,1,34039,3454075
24,5,0.999015,-0.00325957,0.0442525,-4.5655e-05,-0.903554,0.0339117,9.7766,0.103668,-0.398906,1.00732,-0.00906154,0.000321468,0.0977637,1,8.82987e-05,-0.000132879,2.12035e-05,0.0176597,-0.0265758,0.00424071,0.999015,-0.00325957,0.0442525,-4.5655e-05,0.0239343,0.500983,-1.00209,34.6875,1,34039,3454075
24,6,0.999015,-0.00325957,0.0442525,-4.5655e-05,-0.903554,0.0339117,9.7766,0.103668,-0.398906,1.00732,-0.00906154,0.000321468,0.0977637,1,8.82987e-05,-0.000132879,2.12035e-05,0.0176597,-0.0265758,0.00424071,0.999015,-0.00325957,0.0442525,-4.5655e-05,0.0239343,0.500983,-1.00209,34.6875,1,34039,3454075
24,7,0.999019,-0.00324456,0.0441596,-2.30126e-05,-0.712135,0.01903,9.75646,0.297102,-0.385554,0.974111,-0.00713818,0.000187531,0.0975633,1,1.252e-05,-8.62129e-05,2.28313e-05,0.00250401,-0.0172426,0.00456627,0.999019,-0.00324456,0.0441596,-2.30126e-05,0.024814,0.500072,-1.00616,34.6875,1,34040,3454175
24,8,0.999019,-0.00324456,0.0441596,-2.30126e-05,-0.712135,0.01903,9.75646,0.297102,-0.385554,0.974111,-0.00713818,0.000187531,0.0975633,1,1.252e-05,-8.62129e-05,2.28313e-05,0.00250401,-0.0172426,0.00456627,0.999019,-0.00324456,0.0441596,-2.30126e-05,0.024814,0.500072,-1.00616,34.6875,1,34040,3454175
25,1,0.999019,-0.00324456,0.0441596,-2.30126e-05,-0.712135,0.01903,9.75646,0.297102,-0.385554,0.974111,-0.00713818,0.000187531,0.0975633,1,1.252e-05,-8.62129e-05,2.28313e-05,0.00250401,-0.0172426,0.00456627,0.999019,-0.00324456,0.0441596,-2.30126e-05,0.024814,0.500072,-1.00616,34.6875,1,34040,3454175
25,2,0.999019,-0.00318222,0.0441582,7.80404e-06,-0.711606,-0.120374,9.78945,0.325403,-0.547278,0.994601,-0.00711484,-0.0012156,0.0978944,1,5.81737e-05,5.81193e-06,3.29806e-05,0.0116347,0.00116239,0.00659612,0.999019,-0.00318222,0.0441582,7.80404e-06,0.0224122,0.499126,-1.00667,34.6875,1,34041,3454275
25,3,0.999019,-0.00318222,0.0441582,7.80404e-06,-0.711606,-0.120374,9.78945,0.325403,-0.547278,0.994601,-0.00711484,-0.0012156,0.0978944,1,5.81737e-05,5.81193e-06,3.29806e-05,0.0116347,0.00116239,0.00659612,0.999019,-0.00318222,0.0441582,7.80404e-06,0.0224122,0.499126,-1.00667,34.6875,1,34041,3454275
25,4,0.999019,-0.00318222,0.0441582,7.80404e-06,-0.711606,-0.120374,9.78945,0.325403,-0.547278,0.994601,-0.00711484,-0.0012156,0.0978944,1,5.81737e-05,5.81193e-06,3.29806e-05,0.0116347,0.00116239,0.00659612,0.999019,-0.00318222,0.0441582,7.80404e-06,0.0224122,0.499126,-1.00667,34.6875,1,34041,3454275
25,5,0.999018,-0.00312272,0.0441842,2.88537e-05,-0.933566,-0.0524373,9.74673,0.10742,-0.478396,0.985284,-0.00932906,-0.000536039,0.0974679,1,5.76809e-05,3.3743e-05,2.25978e-05,0.0115362,0.00674861,0.00451956,0.999018,-0.00312272,0.0441842,2.88537e-05,0.0220336,0.498091,-1.00316,34.6875,1,34042,3454375
25,6,0.999018,-0.00312272,0.0441842,2.88537e-05,-0.933566,-0.0524373,9.74673,0.10742,-0.478396,0.985284,-0.00932906,-0.000536039,0.0974679,1,5.76809e-05,3.3743e-05,2.25978e-05,0.0115362,0.00674861,0.00451956,0.999018,-0.00312272,0.0441842,2.88537e-05,0.0220336,0.498091,-1.00316,34.6875,1,34042,3454375
26,1,0.999018,-0.00312272,0.0441842,2.88537e-05,-0.933566,-0.0524373,9.74673,0.10742,-0.478396,0.985284,-0.00932906,-0.000536039,0.0974679,1,5.76809e-05,3.3743e-05,2.25978e-05,0.0115362,0.00674861,0.00451956,0.999018,-0.00312272,0.0441842,2.88537e-05,0.0220336,0.498091,-1.00316,34.6875,1,34042,3454375
26,2,0.999018,-0.0031094,0.0442018,6.0411e-05,-1.1212,-0.134356,9.75001,-0.0894651,-0.555768,0.994373,-0.011207,-0.00134632,0.0975007,1,1.05203e-05,2.52597e-05,3.18584e-05,0.00210405,0.00505194,0.00637167,0.999018,-0.0031094,0.0442018,6.0411e-05,0.0215691,0.498565,-1.00213,34.6875,1,34043,3454475
26,3,0.999018,-0.0031094,0.0442018,6.0411e-05,-1.1212,-0.134356,9.75001,-0.0894651,-0.555768,0.994373,-0.011207,-0.00134632,0.0975007,1,1.05203e-05,2.52597e-05,3.18584e-05,0.00210405,0.00505194,0.00637167,0.999018,-0.0031094,0.0442018,6.0411e-05,0.0215691,0.498565,-1.00213,34.6875,1,34043,3454475
26,4,0.999018,-0.0031094,0.0442018,6.0411e-05,-1.1212,-0.134356,9.75001,-0.0894651,-0.555768,0.994373,-0.011207,-0.00134632,0.0975007,1,1.05203e-05,2.52597e-05,3.18584e-05,0.00210405,0.00505194,0.00637167,0.999018,-0.0031094,0.0442018,6.0411e-05,0.0215691,0.498565,-1.00213,34.6875,1,34043,3454475
26,5,0.999019,-0.00301735,0.0441736,8.2799e-05,-1.10607,-0.0786643,9.76368,-0.102277,-0.52284,1.01461,-0.0110649,-0.000804894,0.0976362,1,9.04709e-05,-2.15914e-05,2.64317e-05,0.0180942,-0.00431829,0.00528635,0.999019,-0.00301735,0.0441736,8.2799e-05,0.0221162,0.498994,-0.999097,34.6875,1,34044,3454575
26,6,0.999019,-0.00301735,0.0441736,8.2799e-05,-1.10607,-0.0786643,9.76368,-0.102277,-0.52284,1.01461,-0.0110649,-0.000804894,0.0976362,1,9.04709e-05,-2.15914e-05,2.64317e-05,0.0180942,-0.00431829,0.00528635,0.999019,-0.00301735,0.0441736,8.2799e-05,0.0221162,0.498994,-0.999097,34.6875,1,34044,3454575
27,1,0.999019,-0.00301735,0.0441736,8.2799e-05,-1.10607,-0.0786643,9.76368,-0.102277,-0.52284,1.01461,-0.0110649,-0.000804894,0.0976362,1,9.04709e-05,-2.15914e-05,2.64317e-05,0.0180942,-0.00431829,0.00528635,0.999019,-0.00301735,0.0441736,8.2799e-05,0.0221162,0.498994,-0.999097,34.6875,1,34044,3454575
27,2,0.999021,-0.00299375,0.0441403,9.70989e-05,-0.987777,-0.00294556,9.75368,0.0171811,-0.419341,0.988777,-0.0098832,-3.41362e-05,0.0975363,1,2.24505e-05,-2.78521e-05,1.52363e-05,0.00449011,-0.00557043,0.00304726,0.999021,-0.00299375,0.0441403,9.70989e-05,0.0225607,0.500463,-0.999571,34.6875,1,34045,3454675
27,3,0.999021,-0.00299375,0.0441403,9.70989e-05,-0.987777,-0.00294556,9.75368,0.0171811,-0.419341,0.988777,-0.0098832,-3.41362e-05,0.0975363,1,2.24505e-05,-2.78521e-05,1.52363e-05,0.00449011,-0.00557043,0.00304726,0.999021,-0.00299375,0.0441403,9.70989e-05,0.0225607,0.500463,-0.999571,34.6875,1,34045,3454675
27,4,0.999021,-0.00299375,0.0441403,9.70989e-05,-0.987777,-0.00294556,9.75368,0.0171811,-0.419341,0.988777,-0.0098832,-3.41362e-05,0.0975363,1,2.24505e-05,-2.78521e-05,1.52363e-05,0.00449011,-0.00557043,0.00304726,0.999021,-0.00299375,0.0441403,9.70989e-05,0.0225607,0.500463,-0.999571,34.6875,1,34045,3454675
27,5,0.999021,-0.0029316,0.0441467,0.000112475,-0.885725,-0.0142164,9.76404,0.134242,-0.453381,0.989688,-0.00885517,-0.000154228,0.0976406,1,6.02304e-05,1.06301e-05,1.70659e-05,0.0120461,0.00212603,0.00341318,0.999021,-0.0029316,0.0441467,0.000112475,0.0228981,0.501046,-1.00512,34.6875,1,34046,3454775
27,6,0.999021,-0.0029316,0.0441467,0.000112475,-0.885725,-0.0142164,9.76404,0.134242,-0.453381,0.989688,-0.00885517,-0.000154228,0.0976406,1,6.02304e-05,1.06301e-05,1.70659e-05,0.0120461,0.00212603,0.00341318,0.999021,-0.0029316,0.0441467,0.000112475,0.0228981,0.501046,-1.00512,34.6875,1,34046,3454775
27,7,0.999021,-0.0029316,0.0441467,0.000112475,-0.885725,-0.0142164,9.76404,0.134242,-0.453381,0.989688,-0.00885517,-0.000154228,0.0976406,1,6.02304e-05,1.06301e-05,1.70659e-05,0.0120461,0.00212603,0.00341318,0.999021,-0.0029316,0.0441467,0.000112475,0.0228981,0.501046,-1.00512,34.6875,1,34046,3454775
27,8,0.99902,-0.00292987,0.0441691,0.000132968,-0.919929,-0.00348826,9.75793,0.103895,-0.415161,0.990445,-0.00919401,-3.51718e-05,0.0975798,1,-3.94826e-07,2.70415e-05,1.9916e-05,-7.89652e-05,0.00540829,0.00398319,0.99902,-0.00292987,0.0441691,0.000132968,0.0229304,0.499094,-1.00516,34.6875,1,34047,3454875
28,1,0.99902,-0.00292987,0.0441691,0.000132968,-0.919929,-0.00348826,9.75793,0.103895,-0.415161,0.990445,-0.00919401,-3.51718e-05,0.0975798,1,-3.94826e-07,2.70415e-05,1.9916e-05,-7.89652e-05,0.00540829,0.00398319,0.99902,-0.00292987,0.0441691,0.000132968,0.0229304,0.499094,-1.00516,34.6875,1,34047,3454875
28,2,0.99902,-0.00292987,0.0441691,0.000132968,-0.919929,-0.00348826,9.75793,0.103895,-0.415161,0.990445,-0.00919401,-3.51718e-05,0.0975798,1,-3.94826e-07,2.70415e-05,1.9916e-05,-7.89652e-05,0.00540829,0.00398319,0.99902,-0.00292987,0.0441691,0.000132968,0.0229304,0.499094,-1.00516,34.6875,1,34047,3454875
28,3,0.999019,-0.00288235,0.0441845,0.000142861,-0.98808,-0.2011,9.79096,0.0445362,-0.633567,1.02321,-0.00987689,-0.00201998,0.0979098,1,4.47315e-05,1.972e-05,1.13856e-05,0.0089463,0.00394401,0.00227713,0.999019,-0.00288235,0.0441845,0.000142861,0.0230651,0.496105,-1.00169,34.6875,1,34048,3454975
28,4,0.999019,-0.00288235,0.0441845,0.000142861,-0.98808,-0.2011,9.79096,0.0445362,-0.633567,1.02321,-0.00987689,-0.00201998,0.0979098,1,4.47315e-05,1.972e-05,1.13856e-05,0.0089463,0.00394401,0.00227713,0.999019,-0.00288235,0.0441845,0.000142861,0.0230651,0.496105,-1.00169,34.6875,1,34048,3454975
28,5,0.999019,-0.00288235,0.0441845,0.000142861,-0.98808,-0.2011,9.79096,0.0445362,-0.633567,1.02321,-0.00987689,-0.00201998,0.0979098,1,4.47315e-05,1.972e-05,1.13856e-05,0.0089463,0.00394401,0.00227713,0.999019,-0.00288235,0.0441845,0.000142861,0.0230651,0.496105,-1.00169,34.6875,1,34048,3454975
28,6,0.99902,-0.00278583,0.0441846,0.000135561,-1.02435,-0.114018,9.78247,-0.00695878,-0.559634,1.0203,-0.0102428,-0.00115888,0.0978245,1,9.59859e-05,3.63532e-06,-4.02918e-06,0.0191972,0.000727064,-0.000805835,0.99902,-0.00278583,0.0441846,0.000135561,0.0231349,0.495572,-0.999177,34.6875,1,34049,3455075
28,7,0.99902,-0.00278583,0.0441846,0.000135561,-1.02435,-0.114018,9.78247,-0.00695878,-0.559634,1.0203,-0.0102428,-0.00115888,0.0978245,1,9.59859e-05,3.63532e-06,-4.02918e-06,0.0191972,0.000727064,-0.000805835,0.99902,-0.00278583,0.0441846,0.000135561,0.0231349,0.495572,-0.999177,34.6875,1,34049,3455075
28,8,0.99902,-0.00278583,0.0441846,0.000135561,-1.02435,-0.114018,9.78247,-0.00695878,-0.559634,1.0203,-0.0102428,-0.00115888,0.0978245,1,9.59859e-05,3.63532e-06,-4.02918e-06,0.0191972,0.000727064,-0.000805835,0.99902,-0.00278583,0.0441846,0.000135561,0.0231349,0.495572,-0.999177,34.6875,1,34049,3455075
29,1,0.999021,-0.00271264,0.0441547,0.0001437,-0.973019,-0.0615247,9.76223,0.0393001,-0.500338,0.998176,-0.00973546,-0.000629526,0.0976217,1,7.20527e-05,-2.70138e-05,1.0854e-05,0.0144105,-0.00540277,0.0021708,0.999021,-0.00271264,0.0441547,0.0001437,0.0226457,0.496064,-0.999164,34.6875,1,34050,3455175
29,2,0.999021,-0.00271264,0.0441547,0.0001437,-0.973019,-0.0615247,9.76223,0.0393001,-0.500338,0.998176,-0.00973546,-0.000629526,0.0976217,1,7.20527e-05,-2.70138e-05,1.0854e-05,0.0144105,-0.00540277,0.0021708,0.999021,-0.00271264,0.0441547,0.0001437,0.0226457,0.496064,-0.999164,34.6875,1,34050,3455175
29,3,0.999021,-0.00271264,0.0441547,0.0001437,-0.973019,-0.0615247,9.76223,0.0393001,-0.500338,0.998176,-0.00973546,-0.000629526,0.0976217,1,7.20527e-05,-2.70138e-05,1.0854e-05,0.0144105,-0.00540277,0.0021708,0.999021,-0.00271264,0.0441547,0.0001437,0.0226457,0.496064,-0.999164,34.6875,1,34050,3455175
29,4,0.999022,-0.00263181,0.0441464,0.00014597,-0.954171,0.0631086,9.76349,0.0691782,-0.390302,1.00359,-0.0095429,0.000615398,0.0976349,1,7.98087e-05,-6.06305e-06,5.44111e-06,0.0159617,-0.00121261,0.00108822,0.999022,-0.00263181,0.0441464,0.00014597,0.0220502,0.498561,-1.00214,34.6875,1,34051,3455275
29,5,0.999022,-0.00263181,0.0441464,0.00014597,-0.954171,0.0631086,9.76349,0.0691782,-0.390302,1.00359,-0.0095429,0.000615398,0.0976349,1,7.98087e-05,-6.06305e-06,5.44111e-06,0.0159617,-0.00121261,0.00108822,0.999022,-0.00263181,0.0441464,0.00014597,0.0220502,0.498561,-1.00214,34.6875,1,34051,3455275
29,6,0.999022,-0.00263181,0.0441464,0.00014597,-0.954171,0.0631086,9.76349,0.0691782,-0.390302,1.00359,-0.0095429,0.000615398,0.0976349,1,7.98087e-05,-6.06305e-06,5.44111e-06,0.0159617,-0.00121261,0.00108822,0.999022,-0.00263181,0.0441464,0.00014597,0.0220502,0.498561,-1.00214,34.6875,1,34051,3455275
29,7,0.999024,-0.00262265,0.0441027,0.000153313,-0.944178,0.0431452,9.79112,0.0695619,-0.378202,1.02677,-0.00944998,0.000429849,0.0979104,1,7.46912e-06,-4.18537e-05,7.44489e-06,0.00149382,-0.00837073,0.00148898,0.999024,-0.00262265,0.0441027,0.000153313,0.0229308,0.50054,-1.00412,34.6875,1,34052,3455375
29,8,0.999024,-0.00262265,0.0441027,0.000153313,-0.944178,0.0431452,9.79112,0.0695619,-0.378202,1.02677,-0.00944998,0.000429849,0.0979104,1,7.46912e-06,-4.18537e-05,7.44489e-06,0.00149382,-0.00837073,0.00148898,0.999024,-0.00262265,0.0441027,0.000153313,0.0229308,0.50054,-1.00412,34.6875,1,34052,3455375
30,1,0.999024,-0.00262265,0.0441027,0.000153313,-0.944178,0.0431452,9.79112,0.0695619,-0.378202,1.02677,-0.00944998,0.000429849,0.0979104,1,7.46912e-06,-4.18537e-05,7.44489e-06,0.00149382,-0.00837073,0.00148898,0.999024,-0.00262265,0.0441027,0.000153313,0.0229308,0.50054,-1.00412,34.6875,1,34052,3455375
30,2,0.999025,-0.00256641,0.0440787,0.000161522,-0.910086,-0.0227029,9.76688,0.113665,-0.459468,0.995091,-0.00910521,-0.000237729,0.0976684,1,5.38155e-05,-2.23073e-05,1.03226e-05,0.0107631,-0.00446146,0.00206452,0.999025,-0.00256641,0.0440787,0.000161522,0.0224492,0.499098,-1.00516,34.6875,1,34053,3455475
30,3,0.999025,-0.00256641,0.0440787,0.000161522,-0.910086,-0.0227029,9.76688,0.113665,-0.459468,0.995091,-0.00910521,-0.000237729,0.0976684,1,5.38155e-05,-2.23073e-05,1.03226e-05,0.0107631,-0.00446146,0.00206452,0.999025,-0.00256641,0.0440787,0.000161522,0.0224492,0.499098,-1.00516,34.6875,1,34053,3455475
30,4,0.999025,-0.00256641,0.0440787,0.000161522,-0.910086,-0.0227029,9.76688,0.113665,-0.459468,0.995091,-0.00910521,-0.000237729,0.0976684,1,5.38155e-05,-2.23073e-05,1.03226e-05,0.0107631,-0.00446146,0.00206452,0.999025,-0.00256641,0.0440787,0.000161522,0.0224492,0.499098,-1.00516,34.6875,1,34053,3455475
30,5,0.999025,-0.00256402,0.0440632,0.000182198,-0.948849,-0.0991988,9.78243,0.0696938,-0.524302,1.01396,-0.00949123,-0.000992277,0.097824,1,-4.71307e-07,-1.42102e-05,2.0083e-05,-9.42614e-05,-0.00284204,0.00401659,0.999025,-0.00256402,0.0440632,0.000182198,0.0225347,0.496145,-1.00371,34.6875,1,34054,3455575
30,6,0.999025,-0.00256402,0.0440632,0.000182198,-0.948849,-0.0991988,9.78243,0.0696938,-0.524302,1.01396,-0.00949123,-0.000992277,0.097824,1,-4.71307e-07,-1.42102e-05,2.0083e-05,-9.42614e-05,-0.00284204,0.00401659,0.999025,-0.00256402,0.0440632,0.000182198,0.0225347,0.496145,-1.00371,34.6875,1,34054,3455575
30,7,0.999025,-0.00256402,0.0440632,0.000182198,-0.948849,-0.0991988,9.78243,0.0696938,-0.524302,1.01396,-0.00949123,-0.000992277,0.097824,1,-4.71307e-07,-1.42102e-05,2.0083e-05,-9.42614e-05,-0.00284204,0.00401659,0.999025,-0.00256402,0.0440632,0.000182198,0.0225347,0.496145,-1.00371,34.6875,1,34054,3455575
30,8,0.999026,-0.00251567,0.0440581,0.000209398,-0.970434,-0.158532,9.76645,0.0549083,-0.624961,0.983853,-0.00970512,-0.00159481,0.0976643,1,4.57556e-05,-4.47016e-06,2.86294e-05,0.00915112,-0.000894032,0.00572588,0.999026,-0.00251567,0.0440581,0.000209398,0.0216711,0.496081,-0.999664,34.6875,1,34055,3455675
31,1,0.999026,-0.00251567,0.0440581,0.000209398,-0.970434,-0.158532,9.76645,0.0549083,-0.624961,0.983853,-0.00970512,-0.00159481,0.0976643,1,4.57556e-05,-4.47016e-06,2.86294e-05,0.00915112,-0.000894032,0.00572588,0.999026,-0.00251567,0.0440581,0.000209398,0.0216711,0.496081,-0.999664,34.6875,1,34055,3455675
31,2,0.999026,-0.00251567,0.0440581,0.000209398,-0.970434,-0.158532,9.76645,0.0549083,-0.624961,0.983853,-0.00970512,-0.00159481,0.0976643,1,4.57556e-05,-4.47016e-06,2.86294e-05,0.00915112,-0.000894032,0.00572588,0.999026,-0.00251567,0.0440581,0.000209398,0.0216711,0.496081,-0.999664,34.6875,1,34055,3455675
31,3,0.99903,-0.00245194,0.0439635,0.000245649,-0.653516,-0.0296892,9.85811,0.368573,-0.4581,1.05221,-0.00655381,-0.000309463,0.0985798,1,6.1216e-05,-9.47061e-05,3.83225e-05,0.0122432,-0.0189412,0.0076645,0.99903,-0.00245194,0.0439635,0.000245649,0.0231273,0.497505,-0.998124,34.6875,1,34056,3455775
31,4,0.99903,-0.00245194,0.0439635,0.000245649,-0.653516,-0.0296892,9.85811,0.368573,-0.4581,1.05221,-0.00655381,-0.000309463,0.0985798,1,6.1216e-05,-9.47061e-05,3.83225e-05,0.0122432,-0.0189412,0.0076645,0.99903,-0.00245194,0.0439635,0.000245649,0.0231273,0.497505,-0.998124,34.6875,1,34056,3455775
31,5,0.99903,-0.00245194,0.0439635,0.000245649,-0.653516,-0.0296892,9.85811,0.368573,-0.4581,1.05221,-0.00655381,-0.000309463,0.0985798,1,6.1216e-05,-9.47061e-05,3.83225e-05,0.0122432,-0.0189412,0.0076645,0.99903,-0.00245194,0.0439635,0.000245649,0.0231273,0.497505,-0.998124,34.6875,1,34056,3455775
31,6,0.999028,-0.00241445,0.0440045,0.000279682,-0.580901,-0.162079,9.75055,0.452252,-0.613588,0.933186,-0.00580066,-0.00162804,0.0975059,1,3.50974e-05,4.2184e-05,3.52194e-05,0.00701949,0.0084368,0.00704388,0.999028,-0.00241445,0.0440045,0.000279682,0.0230376,0.49998,-1.00009,34.6875,1,34057,3455875
31,7,0.999028,-0.00241445,0.0440045,0.000279682,-0.580901,-0.162079,9.75055,0.452252,-0.613588,0.933186,-0.00580066,-0.00162804,0.0975059,1,3.50974e-05,4.2184e-05,3.52194e-05,0.00701949,0.0084368,0.00704388,0.999028,-0.00241445,0.0440045,0.000279682,0.0230376,0.49998,-1.00009,34.6875,1,34057,3455875
31,8,0.999028,-0.00241445,0.0440045,0.000279682,-0.580901,-0.162079,9.75055,0.452252,-0.613588,0.933186,-0.00580066,-0.00162804,0.0975059,1,3.50974e-05,4.2184e-05,3.52194e-05,0.00701949,0.0084368,0.00704388,0.999028,-0.00241445,0.0440045,0.000279682,0.0230376,0.49998,-1.00009,34.6875,1,34057,3455875
32,1,0.999028,-0.00228865,0.0440176,0.000288989,-0.649873,0.180382,9.76649,0.427226,-0.262579,0.967688,-0.00649565,0.0017793,0.0976655,1,0.000124594,1.60332e-05,1.38336e-05,0.0249187,0.00320664,0.00276672,0.999028,-0.00228865,0.0440176,0.000288989,0.0210391,0.50005,-1.00311,34.6875,1,34058,3455975
32,2,0.999028,-0.00228865,0.0440176,0.000288989,-0.649873,0.180382,9.76649,0.427226,-0.262579,0.967688,-0.00649565,0.0017793,0.0976655,1,0.000124594,1.60332e-05,1.38336e-05,0.0249187,0.00320664,0.00276672,0.999028,-0.00228865,0.0440176,0.000288989,0.0210391,0.50005,-1.00311,34.6875,1,34058,3455975
32,3,0.999028,-0.00228865,0.0440176,0.000288989,-0.649873,0.180382,9.76649,0.427226,-0.262579,0.967688,-0.00649565,0.0017793,0.0976655,1,0.000124594,1.60332e-05,1.38336e-05,0.0249187,0.00320664,0.00276672,0.999028,-0.00228865,0.0440176,0.000288989,0.0210391,0.50005,-1.00311,34.6875,1,34058,3455975
32,4,0.99903,-0.00240402,0.0439631,0.000308438,-0.791448,-0.204345,9.82462,0.211054,-0.60816,1.00909,-0.00792424,-0.00202063,0.0982459,1,-0.000117339,-4.99812e-05,1.49068e-05,-0.0234678,-0.00999625,0.00298136,0.99903,-0.00240402,0.0439631,0.000308438,0.0205248,0.499114,-1.00515,34.6875,1,34059,3456075
32,5,0.99903,-0.00240402,0.0439631,0.000308438,-0.791448,-0.204345,9.82462,0.211054,-0.60816,1.00909,-0.00792424,-0.00202063,0.0982459,1,-0.000117339,-4.99812e-05,1.49068e-05,-0.0234678,-0.00999625,0.00298136,0.99903,-0.00240402,0.0439631,0.000308438,0.0205248,0.499114,-1.00515,34.6875,1,34059,3456075
32,6,0.99903,-0.00240402,0.0439631,0.000308438,-0.791448,-0.204345,9.82462,0.211054,-0.60816,1.00909,-0.00792424,-0.00202063,0.0982459,1,-0.000117339,-4.99812e-05,1.49068e-05,-0.0234678,-0.00999625,0.00298136,0.99903,-0.00240402,0.0439631,0.000308438,0.0205248,0.499114,-1.00515,34.6875,1,34059,3456075
32,7,0.999031,-0.00216096,0.0439544,0.000297504,-0.731192,0.0282389,9.77967,0.318986,-0.469907,0.968786,-0.00731251,0.000234988,0.0977968,1,0.000242306,-3.00135e-06,5.0621e-07,0.0484612,-0.00060027,0.000101242,0.999031,-0.00216096,0.0439544,0.000297504,0.021544,0.497137,-1.00419,34.6875,1,34060,3456175
32,8,0.999031,-0.00216096,0.0439544,0.000297504,-0.731192,0.0282389,9.77967,0.318986,-0.469907,0.968786,-0.00731251,0.000234988,0.0977968,1,0.000242306,-3.00135e-06,5.0621e-07,0.0484612,-0.00060027,0.000101242,0.999031,-0.00216096,0.0439544,0.000297504,0.021544,0.497137,-1.00419,34.6875,1,34060,3456175
33,1,0.999031,-0.00216096,0.0439544,0.000297504,-0.731192,0.0282389,9.77967,0.318986,-0.469907,0.968786,-0.00731251,0.000234988,0.0977968,1,0.000242306,-3.00135e-06,5.0621e-07,0.0484612,-0.00060027,0.000101242,0.999031,-0.00216096,0.0439544,0.000297504,0.021544,0.497137,-1.00419,34.6875,1,34060,3456175
33,2,0.999033,-0.00233987,0.0439079,0.000329364,-0.810109,-0.112682,9.74071,0.192336,-0.494349,0.951786,-0.00810896,-0.00109182,0.0974069,1,-0.000181573,-4.0648e-05,2.31554e-05,-0.0363145,-0.00812961,0.00463109,0.999033,-0.00233987,0.0439079,0.000329364,0.0220991,0.497079,-1.00116,34.6875,1,34061,3456275
33,3,0.999033,-0.00233987,0.0439079,0.000329364,-0.810109,-0.112682,9.74071,0.192336,-0.494349,0.951786,-0.00810896,-0.00109182,0.0974069,1,-0.000181573,-4.0648e-05,2.31554e-05,-0.0363145,-0.00812961,0.00463109,0.999033,-0.00233987,0.0439079,0.000329364,0.0220991,0.497079,-1.00116,34.6875,1,34061,3456275
33,4,0.999033,-0.00233987,0.0439079,0.000329364,-0.810109,-0.112682,9.74071,0.192336,-0.494349,0.951786,-0.00810896,-0.00109182,0.0974069,1,-0.000181573,-4.0648e-05,2.31554e-05,-0.0363145,-0.00812961,0.00463109,0.999033,-0.00233987,0.0439079,0.000329364,0.0220991,0.497079,-1.00116,34.6875,1,34061,3456275
33,5,0.999035,-0.00204297,0.0438723,0.000330102,-0.943884,-0.0698247,9.74304,0.0987464,-0.598874,0.991343,-0.00944493,-0.000756081,0.0974294,1,0.000295718,-3.13415e-05,1.11301e-05,0.0591435,-0.00626829,0.00222602,0.999035,-0.00204297,0.0438723,0.000330102,0.0220915,0.499012,-1.00011,34.6875,1,34062,3456375
33,6,0.999035,-0.00204297,0.0438723,0.000330102,-0.943884,-0.0698247,9.74304,0.0987464,-0.598874,0.991343,-0.00944493,-0.000756081,0.0974294,1,0.000295718,-3.13415e-05,1.11301e-05,0.0591435,-0.00626829,0.00222602,0.999035,-0.00204297,0.0438723,0.000330102,0.0220915,0.499012,-1.00011,34.6875,1,34062,3456375
34,1,0.999035,-0.00204297,0.0438723,0.000330102,-0.943884,-0.0698247,9.74304,0.0987464,-0.598874,0.991343,-0.00944493,-0.000756081,0.0974294,1,0.000295718,-3.13415e-05,1.11301e-05,0.0591435,-0.00626829,0.00222602,0.999035,-0.00204297,0.0438723,0.000330102,0.0220915,0.499012,-1.00011,34.6875,1,34062,3456375
34,2,0.999037,-0.00217836,0.0438114,0.000366615,-0.875004,0.147592,9.74581,0.129018,-0.240454,0.952653,-0.00876128,0.00150206,0.0974567,1,-0.0001368,-5.71836e-05,2.97898e-05,-0.0273601,-0.0114367,0.00595795,0.999037,-0.00217836,0.0438114,0.000366615,0.0224663,0.501013,-1.00309,34.6875,1,34063,3456475
34,3,0.999037,-0.00217836,0.0438114,0.000366615,-0.875004,0.147592,9.74581,0.129018,-0.240454,0.952653,-0.00876128,0.00150206,0.0974567,1,-0.0001368,-5.71836e-05,2.97898e-05,-0.0273601,-0.0114367,0.00595795,0.999037,-0.00217836,0.0438114,0.000366615,0.0224663,0.501013,-1.00309,34.6875,1,34063,3456475
34,4,0.999037,-0.00217836,0.0438114,0.000366615,-0.875004,0.147592,9.74581,0.129018,-0.240454,0.952653,-0.00876128,0.00150206,0.0974567,1,-0.0001368,-5.71836e-05,2.97898e-05,-0.0273601,-0.0114367,0.00595795,0.999037,-0.00217836,0.0438114,0.000366615,0.0224663,0.501013,-1.00309,34.6875,1,34063,3456475
34,5,0.99904,-0.00205364,0.0437582,0.000376835,-0.928068,-0.115957,9.81069,0.0860788,-0.599055,1.0436,-0.0092901,-0.00118386,0.0981057,1,0.000122188,-4.82392e-05,1.70992e-05,0.0244376,-0.00964783,0.00341985,0.99904,-0.00205364,0.0437582,0.000376835,0.0219847,0.499572,-1.00413,34.6875,1,34064,3456575
34,6,0.99904,-0.00205364,0.0437582,0.000376835,-0.928068,-0.115957,9.81069,0.0860788,-0.599055,1.0436,-0.0092901,-0.00118386,0.0981057,1,0.000122188,-4.82392e-05,1.70992e-05,0.0244376,-0.00964783,0.00341985,0.99904,-0.00205364,0.0437582,0.000376835,0.0219847,0.499572,-1.00413,34.6875,1,34064,3456575
35,1,0.99904,-0.00205364,0.0437582,0.000376835,-0.928068,-0.115957,9.81069,0.0860788,-0.599055,1.0436,-0.0092901,-0.00118386,0.0981057,1,0.000122188,-4.82392e-05,1.70992e-05,0.0244376,-0.00964783,0.00341985,0.99904,-0.00205364,0.0437582,0.000376835,0.0219847,0.499572,-1.00413,34.6875,1,34064,3456575
35,2,0.999039,-0.00209558,0.0437715,0.000415792,-0.956289,0.046405,9.76777,0.0660535,-0.373002,0.984544,-0.00955923,0.000472198,0.097678,1,-4.54503e-05,1.88914e-05,3.8239e-05,-0.00909007,0.00377828,0.00764781,0.999039,-0.00209558,0.0437715,0.000415792,0.0210016,0.498632,-1.00567,34.6875,1,34065,3456675
35,3,0.999039,-0.00209558,0.0437715,0.000415792,-0.956289,0.046405,9.76777,0.0660535,-0.373002,0.984544,-0.00955923,0.000472198,0.097678,1,-4.54503e-05,1.88914e-05,3.8239e-05,-0.00909007,0.00377828,0.00764781,0.999039,-0.00209558,0.0437715,0.000415792,0.0210016,0.498632,-1.00567,34.6875,1,34065,3456675
35,4,0.999039,-0.00209558,0.0437715,0.000415792,-0.956289,0.046405,9.76777,0.0660535,-0.373002,0.984544,-0.00955923,0.000472198,0.097678,1,-4.54503e-05,1.88914e-05,3.8239e-05,-0.00909007,0.00377828,0.00764781,0.999039,-0.00209558,0.0437715,0.000415792,0.0210016,0.498632,-1.00567,34.6875,1,34065,3456675
36,1,0.999042,-0.00203345,0.0437132,0.000433317,-0.965174,-0.18949,9.76554,0.0280774,-0.657859,1.00832,-0.00966202,-0.00190685,0.0976541,1,5.90701e-05,-5.30455e-05,2.11412e-05,0.011814,-0.0106091,0.00422825,0.999042,-0.00203345,0.0437132,0.000433317,0.0229835,0.498092,-1.00367,34.6875,1,34066,3456775
36,2,0.999042,-0.00203345,0.0437132,0.000433317,-0.965174,-0.18949,9.76554,0.0280774,-0.657859,1.00832,-0.00966202,-0.00190685,0.0976541,1,5.90701e-05,-5.30455e-05,2.11412e-05,0.011814,-0.0106091,0.00422825,0.999042,-0.00203345,0.0437132,0.000433317,0.0229835,0.498092,-1.00367,34.6875,1,34066,3456775
36,3,0.999042,-0.00203345,0.0437132,0.000433317,-0.965174,-0.18949,9.76554,0.0280774,-0.657859,1.00832,-0.00966202,-0.00190685,0.0976541,1,5.90701e-05,-5.30455e-05,2.11412e-05,0.011814,-0.0106091,0.00422825,0.999042,-0.00203345,0.0437132,0.000433317,0.0229835,0.498092,-1.00367,34.6875,1,34066,3456775
36,4,0.999041,-0.00200598,0.0437287,0.000450454,-0.966718,-0.0768418,9.74572,0.054794,-0.515836,0.970689,-0.00966351,-0.000773734,0.0974576,1,2.56131e-05,1.86687e-05,1.67183e-05,0.00512262,0.00373373,0.00334366,0.999041,-0.00200598,0.0437287,0.000450454,0.0225479,0.499026,-1.00112,34.6875,1,34067,3456875
36,5,0.999041,-0.00200598,0.0437287,0.000450454,-0.966718,-0.0768418,9.74572,0.054794,-0.515836,0.970689,-0.00966351,-0.000773734,0.0974576,1,2.56131e-05,1.86687e-05,1.67183e-05,0.00512262,0.00373373,0.00334366,0.999041,-0.00200598,0.0437287,0.000450454,0.0225479,0.499026,-1.00112,34.6875,1,34067,3456875
36,6,0.999041,-0.00200598,0.0437287,0.000450454,-0.966718,-0.0768418,9.74572,0.054794,-0.515836,0.970689,-0.00966351,-0.000773734,0.0974576,1,2.56131e-05,1.86687e-05,1.67183e-05,0.00512262,0.00373373,0.00334366,0.999041,-0.00200598,0.0437287,0.000450454,0.0225479,0.499026,-1.00112,34.6875,1,34067,3456875
37,1,0.999042,-0.00197441,0.0437082,0.000481663,-0.957506,-0.218804,9.7635,0.0546753,-0.678805,1.00118,-0.00957874,-0.00219443,0.0976345,1,2.9655e-05,-1.95549e-05,3.11239e-05,0.005931,-0.00391099,0.00622479,0.999042,-0.00197441,0.0437082,0.000481663,0.0239955,0.499493,-1.00061,34.6875,1,34068,3456975
37,2,0.999042,-0.00197441,0.0437082,0.000481663,-0.957506,-0.218804,9.7635,0.0546753,-0.678805,1.00118,-0.00957874,-0.00219443,0.0976345,1,2.9655e-05,-1.95549e-05,3.11239e-05,0.005931,-0.00391099,0.00622479,0.999042,-0.00197441,0.0437082,0.000481663,0.0239955,0.499493,-1.00061,34.6875,1,34068,3456975
37,3,0.999042,-0.00197441,0.0437082,0.000481663,-0.957506,-0.218804,9.7635,0.0546753,-0.678805,1.00118,-0.00957874,-0.00219443,0.0976345,1,2.9655e-05,-1.95549e-05,3.11239e-05,0.005931,-0.00391099,0.00622479,0.999042,-0.00197441,0.0437082,0.000481663,0.0239955,0.499493,-1.00061,34.6875,1,34068,3456975
37,4,0.999044,-0.00185048,0.0436732,0.000475408,-0.935261,-0.00130533,9.75844,0.0530331,-0.470522,0.989238,-0.00935933,-3.73136e-05,0.0975838,1,0.000124496,-3.43954e-05,-1.99061e-06,0.0248991,-0.00687909,-0.000398122,0.999044,-0.00185048,0.0436732,0.000475408,0.0239709,0.499511,-1.00162,34.6875,1,34069,3457075
37,5,0.999044,-0.00185048,0.0436732,0.000475408,-0.935261,-0.00130533,9.75844,0.0530331,-0.470522,0.989238,-0.00935933,-3.73136e-05,0.0975838,1,0.000124496,-3.43954e-05,-1.99061e-06,0.0248991,-0.00687909,-0.000398122,0.999044,-0.00185048,0.0436732,0.000475408,0.0239709,0.499511,-1.00162,34.6875,1,34069,3457075
37,6,0.999044,-0.00185048,0.0436732,0.000475408,-0.935261,-0.00130533,9.75844,0.0530331,-0.470522,0.989238,-0.00935933,-3.73136e-05,0.0975838,1,0.000124496,-3.43954e-05,-1.99061e-06,0.0248991,-0.00687909,-0.000398122,0.999044,-0.00185048,0.0436732,0.000475408,0.0239709,0.499511,-1.00162,34.6875,1,34069,3457075
38,1,0.999045,-0.00185969,0.0436534,0.000507121,-0.760432,-0.0410823,9.77623,0.257228,-0.483921,0.981075,-0.00760813,-0.000409247,0.097762,1,-1.0521e-05,-1.96375e-05,3.1661e-05,-0.0021042,-0.00392751,0.0063322,0.999045,-0.00185969,0.0436534,0.000507121,0.0215036,0.499576,-1.00413,34.6875,1,34070,3457175
38,2,0.999045,-0.00185969,0.0436534,0.000507121,-0.760432,-0.0410823,9.77623,0.257228,-0.483921,0.981075,-0.00760813,-0.000409247,0.097762,1,-1.0521e-05,-1.96375e-05,3.1661e-05,-0.0021042,-0.00392751,0.0063322,0.999045,-0.00185969,0.0436534,0.000507121,0.0215036,0.499576,-1.00413,34.6875,1,34070,3457175
38,3,0.999045,-0.00185969,0.0436534,0.000507121,-0.760432,-0.0410823,9.77623,0.257228,-0.483921,0.981075,-0.00760813,-0.000409247,0.097762,1,-1.0521e-05,-1.96375e-05,3.1661e-05,-0.0021042,-0.00392751,0.0063322,0.999045,-0.00185969,0.0436534,0.000507121,0.0215036,0.499576,-1.00413,34.6875,1,34070,3457175
38,4,0.999045,-0.00177389,0.0436462,0.000524634,-0.851004,-0.0517101,9.78251,0.15107,-0.525655,1.01673,-0.00851104,-0.000534197,0.097825,1,8.53912e-05,-5.2583e-06,2.28543e-05,0.0170782,-0.00105166,0.00457086,0.999045,-0.00177389,0.0436462,0.000524634,0.0219719,0.498136,-1.00568,34.6875,1,34071,3457275
38,5,0.999045,-0.00177389,0.0436462,0.000524634,-0.851004,-0.0517101,9.78251,0.15107,-0.525655,1.01673,-0.00851104,-0.000534197,0.097825,1,8.53912e-05,-5.2583e-06,2.28543e-05,0.0170782,-0.00105166,0.00457086,0.999045,-0.00177389,0.0436462,0.000524634,0.0219719,0.498136,-1.00568,34.6875,1,34071,3457275
38,6,0.999045,-0.00177389,0.0436462,0.000524634,-0.851004,-0.0517101,9.78251,0.15107,-0.525655,1.01673,-0.00851104,-0.000534197,0.097825,1,8.53912e-05,-5.2583e-06,2.28543e-05,0.0170782,-0.00105166,0.00457086,0.999045,-0.00177389,0.0436462,0.000524634,0.0219719,0.498136,-1.00568,34.6875,1,34071,3457275
38,7,0.999046,-0.00176773,0.0436439,0.000544983,-0.839066,-0.0519685,9.78312,0.172679,-0.49451,1.00258,-0.00839054,-0.000521048,0.0978312,1,5.12811e-06,5.12258e-07,2.14241e-05,0.00102562,0.000102452,0.00428482,0.999046,-0.00176773,0.0436439,0.000544983,0.0235667,0.495604,-1.0012,34.6875,1,34072,3457375
38,8,0.999046,-0.00176773,0.0436439,0.000544983,-0.839066,-0.0519685,9.78312,0.172679,-0.49451,1.00258,-0.00839054,-0.000521048,0.0978312,1,5.12811e-06,5.12258e-07,2.14241e-05,0.00102562,0.000102452,0.00428482,0.999046,-0.00176773,0.0436439,0.000544983,0.0235667,0.495604,-1.0012,34.6875,1,34072,3457375
39,1,0.999046,-0.00176773,0.0436439,0.000544983,-0.839066,-0.0519685,9.78312,0.172679,-0.49451,1.00258,-0.00839054,-0.000521048,0.0978312,1,5.12811e-06,5.12258e-07,2.14241e-05,0.00102562,0.000102452,0.00428482,0.999046,-0.00176773,0.0436439,0.000544983,0.0235667,0.495604,-1.0012,34.6875,1,34072,3457375
39,2,0.999048,-0.00169112,0.0435951,0.000570893,-0.728567,-0.0172801,9.78947,0.258548,-0.484989,0.999512,-0.00729512,-0.000188097,0.0978939,1,7.62266e-05,-4.83246e-05,2.5476e-05,0.0152453,-0.00966493,0.00509521,0.999048,-0.00169112,0.0435951,0.000570893,0.0221807,0.495092,-0.999184,34.6875,1,34073,3457475
39,3,0.999048,-0.00169112,0.0435951,0.000570893,-0.728567,-0.0172801,9.78947,0.258548,-0.484989,0.999512,-0.00729512,-0.000188097,0.0978939,1,7.62266e-05,-4.83246e-05,2.5476e-05,0.0152453,-0.00966493,0.00509521,0.999048,-0.00169112,0.0435951,0.000570893,0.0221807,0.495092,-0.999184,34.6875,1,34073,3457475
39,4,0.999048,-0.00169112,0.0435951,0.000570893,-0.728567,-0.0172801,9.78947,0.258548,-0.484989,0.999512,-0.00729512,-0.000188097,0.0978939,1,7.62266e-05,-4.83246e-05,2.5476e-05,0.0152453,-0.00966493,0.00509521,0.999048,-0.00169112,0.0435951,0.000570893,0.0221807,0.495092,-0.999184,34.6875,1,34073,3457475
39,5,0.999047,-0.00169872,0.0436095,0.000599017,-0.737599,-0.0986438,9.7854,0.274095,-0.540612,0.98953,-0.00737278,-0.000985107,0.0978543,1,-8.69847e-06,1.61533e-05,2.51549e-05,-0.00173969,0.00323066,0.00503097,0.999047,-0.00169872,0.0436095,0.000599017,0.0216427,0.497065,-1.00015,34.6875,1,34074,3457575
39,6,0.999047,-0.00169872,0.0436095,0.000599017,-0.737599,-0.0986438,9.7854,0.274095,-0.540612,0.98953,-0.00737278,-0.000985107,0.0978543,1,-8.69847e-06,1.61533e-05,2.51549e-05,-0.00173969,0.00323066,0.00503097,0.999047,-0.00169872,0.0436095,0.000599017,0.0216427,0.497065,-1.00015,34.6875,1,34074,3457575
40,1,0.999047,-0.00169872,0.0436095,0.000599017,-0.737599,-0.0986438,9.7854,0.274095,-0.540612,0.98953,-0.00737278,-0.000985107,0.0978543,1,-8.69847e-06,1.61533e-05,2.51549e-05,-0.00173969,0.00323066,0.00503097,0.999047,-0.00169872,0.0436095,0.000599017,0.0216427,0.497065,-1.00015,34.6875,1,34074,3457575
40,2,0.999047,-0.00156402,0.0436212,0.00061862,-0.786546,-0.0509121,9.76951,0.231865,-0.532092,0.985765,-0.00786268,-0.000535855,0.0976951,1,0.000134784,1.40642e-05,2.52878e-05,0.0269569,0.00281285,0.00505755,0.999047,-0.00156402,0.0436212,0.00061862,0.0220464,0.499527,-1.00161,34.6875,1,34075,3457675
40,3,0.999047,-0.00156402,0.0436212,0.00061862,-0.786546,-0.0509121,9.76951,0.231865,-0.532092,0.985765,-0.00786268,-0.000535855,0.0976951,1,0.000134784,1.40642e-05,2.52878e-05,0.0269569,0.00281285,0.00505755,0.999047,-0.00156402,0.0436212,0.00061862,0.0220464,0.499527,-1.00161,34.6875,1,34075,3457675
40,4,0.999047,-0.00156402,0.0436212,0.00061862,-0.786546,-0.0509121,9.76951,0.231865,-0.532092,0.985765,-0.00786268,-0.000535855,0.0976951,1,0.000134784,1.40642e-05,2.52878e-05,0.0269569,0.00281285,0.00505755,0.999047,-0.00156402,0.0436212,0.00061862,0.0220464,0.499527,-1.00161,34.6875,1,34075,3457675
40,5,0.999048,-0.00155431,0.0435963,0.000628117,-0.807322,-0.0454035,9.80162,0.199293,-0.480825,1.01857,-0.00807743,-0.00045624,0.0980158,1,1.02556e-05,-2.14969e-05,1.20605e-05,0.00205113,-0.00429937,0.0024121,0.999048,-0.00155431,0.0435963,0.000628117,0.021031,0.500538,-1.0031,34.6875,1,34076,3457775
40,6,0.999048,-0.00155431,0.0435963,0.000628117,-0.807322,-0.0454035,9.80162,0.199293,-0.480825,1.01857,-0.00807743,-0.00045624,0.0980158,1,1.02556e-05,-2.14969e-05,1.20605e-05,0.00205113,-0.00429937,0.0024121,0.999048,-0.00155431,0.0435963,0.000628117,0.021031,0.500538,-1.0031,34.6875,1,34076,3457775
41,1,0.999048,-0.00155431,0.0435963,0.000628117,-0.807322,-0.0454035,9.80162,0.199293,-0.480825,1.01857,-0.00807743,-0.00045624,0.0980158,1,1.02556e-05,-2.14969e-05,1.20605e-05,0.00205113,-0.00429937,0.0024121,0.999048,-0.00155431,0.0435963,0.000628117,0.021031,0.500538,-1.0031,34.6875,1,34076,3457775
41,2,0.999048,-0.00149344,0.0435903,0.000640522,-0.795047,-0.12056,9.79985,0.226656,-0.595141,1.02048,-0.00795067,-0.00121806,0.0979983,1,6.21713e-05,-1.20387e-06,1.69803e-05,0.0124343,-0.000240774,0.00339605,0.999048,-0.00149344,0.0435903,0.000640522,0.020529,0.499593,-1.00463,34.6875,1,34077,3457875
41,3,0.999048,-0.00149344,0.0435903,0.000640522,-0.795047,-0.12056,9.79985,0.226656,-0.595141,1.02048,-0.00795067,-0.00121806,0.0979983,1,6.21713e-05,-1.20387e-06,1.69803e-05,0.0124343,-0.000240774,0.00339605,0.999048,-0.00149344,0.0435903,0.000640522,0.020529,0.499593,-1.00463,34.6875,1,34077,3457875
41,4,0.999048,-0.00149344,0.0435903,0.000640522,-0.795047,-0.12056,9.79985,0.226656,-0.595141,1.02048,-0.00795067,-0.00121806,0.0979983,1,6.21713e-05,-1.20387e-06,1.69803e-05,0.0124343,-0.000240774,0.00339605,0.999048,-0.00149344,0.0435903,0.000640522,0.020529,0.499593,-1.00463,34.6875,1,34077,3457875
41,5,0.999049,-0.00144559,0.0435646,0.000658287,-0.797036,-0.0717028,9.7813,0.203524,-0.534475,1.00039,-0.00797426,-0.000727037,0.0978126,1,4.92036e-05,-2.01594e-05,2.40002e-05,0.00984072,-0.00403189,0.00480004,0.999049,-0.00144559,0.0435646,0.000658287,0.0216218,0.496117,-1.00168,34.6875,1,34078,3457975
41,6,0.999049,-0.00144559,0.0435646,0.000658287,-0.797036,-0.0717028,9.7813,0.203524,-0.534475,1.00039,-0.00797426,-0.000727037,0.0978126,1,4.92036e-05,-2.01594e-05,2.40002e-05,0.00984072,-0.00403189,0.00480004,0.999049,-0.00144559,0.0435646,0.000658287,0.0216218,0.496117,-1.00168,34.6875,1,34078,3457975
41,7,0.999049,-0.00144559,0.0435646,0.000658287,-0.797036,-0.0717028,9.7813,0.203524,-0.534475,1.00039,-0.00797426,-0.000727037,0.0978126,1,4.92036e-05,-2.01594e-05,2.40002e-05,0.00984072,-0.00403189,0.00480004,0.999049,-0.00144559,0.0435646,0.000658287,0.0216218,0.496117,-1.00168,34.6875,1,34078,3457975
41,8,0.999052,-0.00137651,0.0435121,0.000663817,-0.757434,-0.0374119,9.7895,0.254347,-0.513794,0.997959,-0.00758392,-0.000387908,0.0978942,1,7.00335e-05,-4.89188e-05,5.1272e-06,0.0140067,-0.00978377,0.00102544,0.999052,-0.00137651,0.0435121,0.000663817,0.0216958,0.496063,-0.998655,34.6875,1,34079,3458075
41,9,0.999052,-0.00137651,0.0435121,0.000663817,-0.757434,-0.0374119,9.7895,0.254347,-0.513794,0.997959,-0.00758392,-0.000387908,0.0978942,1,7.00335e-05,-4.89188e-05,5.1272e-06,0.0140067,-0.00978377,0.00102544,0.999052,-0.00137651,0.0435121,0.000663817,0.0216958,0.496063,-0.998655,34.6875,1,34079,3458075
41,10,0.999052,-0.00137651,0.0435121,0.000663817,-0.757434,-0.0374119,9.7895,0.254347,-0.513794,0.997959,-0.00758392,-0.000387908,0.0978942,1,7.00335e-05,-4.89188e-05,5.1272e-06,0.0140067,-0.00978377,0.00102544,0.999052,-0.00137651,0.0435121,0.000663817,0.0216958,0.496063,-0.998655,34.6875,1,34079,3458075
42,1,0.999053,-0.0013228,0.0434764,0.000677849,-0.720749,0.00586358,9.79129,0.290057,-0.465084,0.99002,-0.00721388,4.78075e-05,0.0979125,1,5.4335e-05,-3.26428e-05,1.30448e-05,0.010867,-0.00652857,0.00260896,0.999053,-0.0013228,0.0434764,0.000677849,0.0226139,0.49946,-0.998078,34.6875,1,34080,3458175
42,2,0.999053,-0.0013228,0.0434764,0.000677849,-0.720749,0.00586358,9.79129,0.290057,-0.465084,0.99002,-0.00721388,4.78075e-05,0.0979125,1,5.4335e-05,-3.26428e-05,1.30448e-05,0.010867,-0.00652857,0.00260896,0.999053,-0.0013228,0.0434764,0.000677849,0.0226139,0.49946,-0.998078,34.6875,1,34080,3458175
42,3,0.999053,-0.0013228,0.0434764,0.000677849,-0.720749,0.00586358,9.79129,0.290057,-0.465084,0.99002,-0.00721388,4.78075e-05,0.0979125,1,5.4335e-05,-3.26428e-05,1.30448e-05,0.010867,-0.00652857,0.00260896,0.999053,-0.0013228,0.0434764,0.000677849,0.0226139,0.49946,-0.998078,34.6875,1,34080,3458175
42,4,0.999056,-0.00128714,0.0434296,0.00068405,-0.788843,-0.0256893,9.79456,0.217012,-0.486256,1.01297,-0.00789673,-0.00026427,0.0979449,1,3.70072e-05,-4.24161e-05,8.05581e-06,0.00740143,-0.00848322,0.00161116,0.999056,-0.00128714,0.0434296,0.00068405,0.0230091,0.500964,-1.00057,34.6875,1,34081,3458275
42,5,0.999056,-0.00128714,0.0434296,0.00068405,-0.788843,-0.0256893,9.79456,0.217012,-0.486256,1.01297,-0.00789673,-0.00026427,0.0979449,1,3.70072e-05,-4.24161e-05,8.05581e-06,0.00740143,-0.00848322,0.00161116,0.999056,-0.00128714,0.0434296,0.00068405,0.0230091,0.500964,-1.00057,34.6875,1,34081,3458275
42,6,0.999056,-0.00128714,0.0434296,0.00068405,-0.788843,-0.0256893,9.79456,0.217012,-0.486256,1.01297,-0.00789673,-0.00026427,0.0979449,1,3.70072e-05,-4.24161e-05,8.05581e-06,0.00740143,-0.00848322,0.00161116,0.999056,-0.00128714,0.0434296,0.00068405,0.0230091,0.500964,-1.00057,34.6875,1,34081,3458275
43,1,0.999058,-0.00121582,0.0433723,0.000685086,-0.778219,-0.049254,9.77156,0.228495,-0.526423,0.981654,-0.00779215,-0.000506848,0.0977148,1,7.25818e-05,-5.10084e-05,7.9072e-06,0.0145163,-0.0102017,0.00158144,0.999058,-0.00121582,0.0433723,0.000685086,0.0239215,0.499547,-1.00364,34.6875,1,34082,3458375
43,2,0.999058,-0.00121582,0.0433723,0.000685086,-0.778219,-0.049254,9.77156,0.228495,-0.526423,0.981654,-0.00779215,-0.000506848,0.0977148,1,7.25818e-05,-5.10084e-05,7.9072e-06,0.0145163,-0.0102017,0.00158144,0.999058,-0.00121582,0.0433723,0.000685086,0.0239215,0.499547,-1.00364,34.6875,1,34082,3458375
43,3,0.999058,-0.00121582,0.0433723,0.000685086,-0.778219,-0.049254,9.77156,0.228495,-0.526423,0.981654,-0.00779215,-0.000506848,0.0977148,1,7.25818e-05,-5.10084e-05,7.9072e-06,0.0145163,-0.0102017,0.00158144,0.999058,-0.00121582,0.0433723,0.000685086,0.0239215,0.499547,-1.00364,34.6875,1,34082,3458375
43,4,0.999062,-0.00120137,0.0432862,0.000691918,-0.738417,-0.0549542,9.78382,0.253269,-0.513405,0.990052,-0.00739932,-0.000552887,0.097837,1,1.62159e-05,-7.74583e-05,1.16235e-05,0.00324317,-0.0154917,0.0023247,0.999062,-0.00120137,0.0432862,0.000691918,0.0219762,0.498615,-1.00517,34.6875,1,34083,3458475
43,5,0.999062,-0.00120137,0.0432862,0.000691918,-0.738417,-0.0549542,9.78382,0.253269,-0.513405,0.990052,-0.00739932,-0.000552887,0.097837,1,1.62159e-05,-7.74583e-05,1.16235e-05,0.00324317,-0.0154917,0.0023247,0.999062,-0.00120137,0.0432862,0.000691918,0.0219762,0.498615,-1.00517,34.6875,1,34083,3458475
43,6,0.999062,-0.00120137,0.0432862,0.000691918,-0.738417,-0.0549542,9.78382,0.253269,-0.513405,0.990052,-0.00739932,-0.000552887,0.097837,1,1.62159e-05,-7.74583e-05,1.16235e-05,0.00324317,-0.0154917,0.0023247,0.999062,-0.00120137,0.0432862,0.000691918,0.0219762,0.498615,-1.00517,34.6875,1,34083,3458475
44,1,0.999065,-0.00115888,0.0432202,0.000708978,-0.732536,-0.130675,9.78955,0.273161,-0.606242,1.00122,-0.00733626,-0.00131576,0.0978946,1,4.4355e-05,-5.59593e-05,2.1626e-05,0.008871,-0.0111919,0.00432519,0.999065,-0.00115888,0.0432202,0.000708978,0.0210833,0.496645,-1.00369,34.6875,1,34084,3458575
44,2,0.999065,-0.00115888,0.0432202,0.000708978,-0.732536,-0.130675,9.78955,0.273161,-0.606242,1.00122,-0.00733626,-0.00131576,0.0978946,1,4.4355e-05,-5.59593e-05,2.1626e-05,0.008871,-0.0111919,0.00432519,0.999065,-0.00115888,0.0432202,0.000708978,0.0210833,0.496645,-1.00369,34.6875,1,34084,3458575
44,3,0.999065,-0.00115888,0.0432202,0.000708978,-0.732536,-0.130675,9.78955,0.273161,-0.606242,1.00122,-0.00733626,-0.00131576,0.0978946,1,4.4355e-05,-5.59593e-05,2.1626e-05,0.008871,-0.0111919,0.00432519,0.999065,-0.00115888,0.0432202,0.000708978,0.0210833,0.496645,-1.00369,34.6875,1,34084,3458575
44,4,0.999068,-0.00110176,0.04314,0.000730758,-0.670063,-0.0902075,9.79933,0.303228,-0.567149,1.00963,-0.00671457,-0.000913866,0.0979922,1,5.86901e-05,-7.13375e-05,2.1515e-05,0.011738,-0.0142675,0.004303,0.999068,-0.00110176,0.04314,0.000730758,0.0220996,0.498525,-1.00012,34.6875,1,34085,3458675
45,1,0.999068,-0.00110176,0.04314,0.000730758,-0.670063,-0.0902075,9.79933,0.303228,-0.567149,1.00963,-0.00671457,-0.000913866,0.0979922,1,5.86901e-05,-7.13375e-05,2.1515e-05,0.011738,-0.0142675,0.004303,0.999068,-0.00110176,0.04314,0.000730758,0.0220996,0.498525,-1.00012,34.6875,1,34085,3458675
45,2,0.999068,-0.00110176,0.04314,0.000730758,-0.670063,-0.0902075,9.79933,0.303228,-0.567149,1.00963,-0.00671457,-0.000913866,0.0979922,1,5.86901e-05,-7.13375e-05,2.1515e-05,0.011738,-0.0142675,0.004303,0.999068,-0.00110176,0.04314,0.000730758,0.0220996,0.498525,-1.00012,34.6875,1,34085,3458675
45,3,0.99907,-0.00104324,0.0431086,0.000755037,-0.547245,-0.0426507,9.76188,0.452642,-0.517744,0.952459,-0.0054772,-0.000438595,0.0976185,1,6.04275e-05,-2.44491e-05,2.6536e-05,0.0120855,-0.00488982,0.00530721,0.99907,-0.00104324,0.0431086,0.000755037,0.0225769,0.499487,-0.999593,34.6875,1,34086,3458775
45,4,0.99907,-0.00104324,0.0431086,0.000755037,-0.547245,-0.0426507,9.76188,0.452642,-0.517744,0.952459,-0.0054772,-0.000438595,0.0976185,1,6.04275e-05,-2.44491e-05,2.6536e-05,0.0120855,-0.00488982,0.00530721,0.99907,-0.00104324,0.0431086,0.000755037,0.0225769,0.499487,-0.999593,34.6875,1,34086,3458775
45,5,0.99907,-0.00104324,0.0431086,0.000755037,-0.547245,-0.0426507,9.76188,0.452642,-0.517744,0.952459,-0.0054772,-0.000438595,0.0976185,1,6.04275e-05,-2.44491e-05,2.6536e-05,0.0120855,-0.00488982,0.00530721,0.99907,-0.00104324,0.0431086,0.000755037,0.0225769,0.499487,-0.999593,34.6875,1,34086,3458775
45,6,0.999068,-0.000987808,0.0431565,0.00077504,-0.674308,-0.0353307,9.78955,0.346139,-0.503794,0.986403,-0.00673194,-0.000364851,0.0978962,1,5.7172e-05,5.67921e-05,2.60118e-05,0.0114344,0.0113584,0.00520236,0.999068,-0.000987808,0.0431565,0.00077504,0.0225399,0.499514,-1.00111,34.6875,1,34087,3458875
46,1,0.999068,-0.000987808,0.0431565,0.00077504,-0.674308,-0.0353307,9.78955,0.346139,-0.503794,0.986403,-0.00673194,-0.000364851,0.0978962,1,5.7172e-05,5.67921e-05,2.60118e-05,0.0114344,0.0113584,0.00520236,0.999068,-0.000987808,0.0431565,0.00077504,0.0225399,0.499514,-1.00111,34.6875,1,34087,3458875
46,2,0.999068,-0.000987808,0.0431565,0.00077504,-0.674308,-0.0353307,9.78955,0.346139,-0.503794,0.986403,-0.00673194,-0.000364851,0.0978962,1,5.7172e-05,5.67921e-05,2.60118e-05,0.0114344,0.0113584,0.00520236,0.999068,-0.000987808,0.0431565,0.00077504,0.0225399,0.499514,-1.00111,34.6875,1,34087,3458875
46,3,0.999069,-0.000917447,0.0431331,0.000786623,-0.823744,-0.0419786,9.78039,0.177423,-0.522693,1.00319,-0.00823956,-0.000434396,0.0978036,1,7.31314e-05,-1.09114e-05,1.85062e-05,0.0146263,-0.00218228,0.00370124,0.999069,-0.000917447,0.0431331,0.000786623,0.0219933,0.50053,-1.0031,34.6875,1,34088,3458975
46,4,0.999069,-0.000917447,0.0431331,0.000786623,-0.823744,-0.0419786,9.78039,0.177423,-0.522693,1.00319,-0.00823956,-0.000434396,0.0978036,1,7.31314e-05,-1.09114e-05,1.85062e-05,0.0146263,-0.00218228,0.00370124,0.999069,-0.000917447,0.0431331,0.000786623,0.0219933,0.50053,-1.0031,34.6875,1,34088,3458975
46,5,0.999069,-0.000917447,0.0431331,0.000786623,-0.823744,-0.0419786,9.78039,0.177423,-0.522693,1.00319,-0.00823956,-0.000434396,0.0978036,1,7.31314e-05,-1.09114e-05,1.85062e-05,0.0146263,-0.00218228,0.00370124,0.999069,-0.000917447,0.0431331,0.000786623,0.0219933,0.50053,-1.0031,34.6875,1,34088,3458975
46,6,0.99907,-0.000864402,0.0431079,0.000808325,-0.831336,-0.0212424,9.7711,0.171554,-0.4988,0.97182,-0.00831551,-0.000223959,0.0977108,1,5.64063e-05,-1.10696e-05,3.08289e-05,0.0112813,-0.00221392,0.00616579,0.99907,-0.000864402,0.0431079,0.000808325,0.0205414,0.499584,-1.00413,34.6875,1,34089,3459075
46,7,0.99907,-0.000864402,0.0431079,0.000808325,-0.831336,-0.0212424,9.7711,0.171554,-0.4988,0.97182,-0.00831551,-0.000223959,0.0977108,1,5.64063e-05,-1.10696e-05,3.08289e-05,0.0112813,-0.00221392,0.00616579,0.99907,-0.000864402,0.0431079,0.000808325,0.0205414,0.499584,-1.00413,34.6875,1,34089,3459075
46,8,0.99907,-0.000864402,0.0431079,0.000808325,-0.831336,-0.0212424,9.7711,0.171554,-0.4988,0.97182,-0.00831551,-0.000223959,0.0977108,1,5.64063e-05,-1.10696e-05,3.08289e-05,0.0112813,-0.00221392,0.00616579,0.99907,-0.000864402,0.0431079,0.000808325,0.0205414,0.499584,-1.00413,34.6875,1,34089,3459075
46,9,0.999071,-0.000823969,0.0430698,0.000831468,-0.932311,-0.0592582,9.78912,0.0716328,-0.533968,1.01586,-0.00932774,-0.000601678,0.0978907,1,4.37501e-05,-2.38284e-05,2.84406e-05,0.00875002,-0.00476568,0.00568812,0.999071,-0.000823969,0.0430698,0.000831468,0.0225555,0.497093,-1.00217,34.6875,1,34090,3459175
46,10,0.999071,-0.000823969,0.0430698,0.000831468,-0.932311,-0.0592582,9.78912,0.0716328,-0.533968,1.01586,-0.00932774,-0.000601678,0.0978907,1,4.37501e-05,-2.38284e-05,2.84406e-05,0.00875002,-0.00476568,0.00568812,0.999071,-0.000823969,0.0430698,0.000831468,0.0225555,0.497093,-1.00217,34.6875,1,34090,3459175
47,1,0.999071,-0.000823969,0.0430698,0.000831468,-0.932311,-0.0592582,9.78912,0.0716328,-0.533968,1.01586,-0.00932774,-0.000601678,0.0978907,1,4.37501e-05,-2.38284e-05,2.84406e-05,0.00875002,-0.00476568,0.00568812,0.999071,-0.000823969,0.0430698,0.000831468,0.0225555,0.497093,-1.00217,34.6875,1,34090,3459175
47,2,0.999075,-0.000783933,0.0429998,0.000840093,-0.946894,-0.094619,9.79066,0.0452471,-0.574165,1.01847,-0.00948055,-0.000954632,0.0979054,1,4.26265e-05,-5.93142e-05,5.05902e-06,0.00852529,-0.0118628,0.0010118,0.999075,-0.000783933,0.0429998,0.000840093,0.0245132,0.498017,-1.00014,34.6875,1,34091,3459275
47,3,0.999075,-0.000783933,0.0429998,0.000840093,-0.946894,-0.094619,9.79066,0.0452471,-0.574165,1.01847,-0.00948055,-0.000954632,0.0979054,1,4.26265e-05,-5.93142e-05,5.05902e-06,0.00852529,-0.0118628,0.0010118,0.999075,-0.000783933,0.0429998,0.000840093,0.0245132,0.498017,-1.00014,34.6875,1,34091,3459275
47,4,0.999075,-0.000783933,0.0429998,0.000840093,-0.946894,-0.094619,9.79066,0.0452471,-0.574165,1.01847,-0.00948055,-0.000954632,0.0979054,1,4.26265e-05,-5.93142e-05,5.05902e-06,0.00852529,-0.0118628,0.0010118,0.999075,-0.000783933,0.0429998,0.000840093,0.0245132,0.498017,-1.00014,34.6875,1,34091,3459275
47,5,0.99908,-0.000724451,0.0428796,0.000853603,-0.831415,-0.128294,9.77673,0.149913,-0.612651,1.00929,-0.00833602,-0.00129539,0.0977653,1,6.23492e-05,-0.000112085,1.53964e-05,0.0124698,-0.022417,0.00307928,0.99908,-0.000724451,0.0428796,0.000853603,0.0240202,0.499475,-0.9996,34.6875,1,34092,3459375
47,6,0.99908,-0.000724451,0.0428796,0.000853603,-0.831415,-0.128294,9.77673,0.149913,-0.612651,1.00929,-0.00833602,-0.00129539,0.0977653,1,6.23492e-05,-0.000112085,1.53964e-05,0.0124698,-0.022417,0.00307928,0.99908,-0.000724451,0.0428796,0.000853603,0.0240202,0.499475,-0.9996,34.6875,1,34092,3459375
47,7,0.99908,-0.000724451,0.0428796,0.000853603,-0.831415,-0.128294,9.77673,0.149913,-0.612651,1.00929,-0.00833602,-0.00129539,0.0977653,1,6.23492e-05,-0.000112085,1.53964e-05,0.0124698,-0.022417,0.00307928,0.99908,-0.000724451,0.0428796,0.000853603,0.0240202,0.499475,-0.9996,34.6875,1,34092,3459375
47,8,0.999084,-0.000641517,0.0427808,0.000853997,-0.705747,-0.0843765,9.83593,0.277254,-0.577801,1.01194,-0.00707513,-0.000860997,0.0983579,1,8.70186e-05,-8.98396e-05,8.05592e-06,0.0174037,-0.0179679,0.00161118,0.999084,-0.000641517,0.0427808,0.000853997,0.0229882,0.500016,-1.00211,34.6875,1,34093,3459475
48,1,0.999084,-0.000641517,0.0427808,0.000853997,-0.705747,-0.0843765,9.83593,0.277254,-0.577801,1.01194,-0.00707513,-0.000860997,0.0983579,1,8.70186e-05,-8.98396e-05,8.05592e-06,0.0174037,-0.0179679,0.00161118,0.999084,-0.000641517,0.0427808,0.000853997,0.0229882,0.500016,-1.00211,34.6875,1,34093,3459475
48,2,0.999084,-0.000641517,0.0427808,0.000853997,-0.705747,-0.0843765,9.83593,0.277254,-0.577801,1.01194,-0.00707513,-0.000860997,0.0983579,1,8.70186e-05,-8.98396e-05,8.05592e-06,0.0174037,-0.0179679,0.00161118,0.999084,-0.000641517,0.0427808,0.000853997,0.0229882,0.500016,-1.00211,34.6875,1,34093,3459475
48,3,0.999086,-0.000560754,0.0427372,0.000855737,-0.859436,0.296266,9.78216,0.135401,-0.21368,0.900459,-0.00860058,0.00294558,0.0978216,1,8.63708e-05,-3.14919e-05,1.04591e-05,0.0172742,-0.00629837,0.00209182,0.999086,-0.000560754,0.0427372,0.000855737,0.0224416,0.501032,-1.0041,34.6875,1,34094,3459575
48,4,0.999086,-0.000560754,0.0427372,0.000855737,-0.859436,0.296266,9.78216,0.135401,-0.21368,0.900459,-0.00860058,0.00294558,0.0978216,1,8.63708e-05,-3.14919e-05,1.04591e-05,0.0172742,-0.00629837,0.00209182,0.999086,-0.000560754,0.0427372,0.000855737,0.0224416,0.501032,-1.0041,34.6875,1,34094,3459575
48,5,0.999086,-0.000560754,0.0427372,0.000855737,-0.859436,0.296266,9.78216,0.135401,-0.21368,0.900459,-0.00860058,0.00294558,0.0978216,1,8.63708e-05,-3.14919e-05,1.04591e-05,0.0172742,-0.00629837,0.00209182,0.999086,-0.000560754,0.0427372,0.000855737,0.0224416,0.501032,-1.0041,34.6875,1,34094,3459575
48,6,0.99911,-0.000530338,0.0421763,0.000782742,0.917543,0.30998,9.99688,1.82362,-0.169303,1.22104,0.00906614,0.00309115,0.0999791,1,3.71476e-05,-0.000548661,-6.68302e-05,0.00742953,-0.109732,-0.013366,0.99911,-0.000530338,0.0421763,0.000782742,0.0215074,0.49861,-1.00466,34.6875,1,34095,3459675
48,7,0.99911,-0.000530338,0.0421763,0.000782742,0.917543,0.30998,9.99688,1.82362,-0.169303,1.22104,0.00906614,0.00309115,0.0999791,1,3.71476e-05,-0.000548661,-6.68302e-05,0.00742953,-0.109732,-0.013366,0.99911,-0.000530338,0.0421763,0.000782742,0.0215074,0.49861,-1.00466,34.6875,1,34095,3459675
48,8,0.99911,-0.000530338,0.0421763,0.000782742,0.917543,0.30998,9.99688,1.82362,-0.169303,1.22104,0.00906614,0.00309115,0.0999791,1,3.71476e-05,-0.000548661,-6.68302e-05,0.00742953,-0.109732,-0.013366,0.99911,-0.000530338,0.0421763,0.000782742,0.0215074,0.49861,-1.00466,34.6875,1,34095,3459675
49,1,0.9991,-0.000689587,0.0424128,0.000817166,0.915773,-0.572532,9.53173,1.85315,-1.09023,0.348278,0.00920798,-0.00569449,0.0953143,1,-0.000159121,0.000261966,2.72354e-05,-0.0318241,0.0523932,0.00544707,0.9991,-0.000689587,0.0424128,0.000817166,0.0196726,0.496151,-1.00268,34.6875,1,34096,3459775
49,2,0.9991,-0.000689587,0.0424128,0.000817166,0.915773,-0.572532,9.53173,1.85315,-1.09023,0.348278,0.00920798,-0.00569449,0.0953143,1,-0.000159121,0.000261966,2.72354e-05,-0.0318241,0.0523932,0.00544707,0.9991,-0.000689587,0.0424128,0.000817166,0.0196726,0.496151,-1.00268,34.6875,1,34096,3459775
49,3,0.9991,-0.000689587,0.0424128,0.000817166,0.915773,-0.572532,9.53173,1.85315,-1.09023,0.348278,0.00920798,-0.00569449,0.0953143,1,-0.000159121,0.000261966,2.72354e-05,-0.0318241,0.0523932,0.00544707,0.9991,-0.000689587,0.0424128,0.000817166,0.0196726,0.496151,-1.00268,34.6875,1,34096,3459775
49,4,0.999095,-8.65282e-05,0.0425161,0.000720953,0.315228,0.593231,10.0336,1.36225,0.0425838,1.0659,0.00318095,0.00580906,0.100342,1,0.00061169,0.000138246,-7.85644e-05,0.122338,0.0276492,-0.0157129,0.999095,-8.65282e-05,0.0425161,0.000720953,0.0186909,0.499546,-1.00109,34.6875,1,34097,3459875
49,5,0.999095,-8.65282e-05,0.0425161,0.000720953,0.315228,0.593231,10.0336,1.36225,0.0425838,1.0659,0.00318095,0.00580906,0.100342,1,0.00061169,0.000138246,-7.85644e-05,0.122338,0.0276492,-0.0157129,0.999095,-8.65282e-05,0.0425161,0.000720953,0.0186909,0.499546,-1.00109,34.6875,1,34097,3459875
49,6,0.999095,-8.65282e-05,0.0425161,0.000720953,0.315228,0.593231,10.0336,1.36225,0.0425838,1.0659,0.00318095,0.00580906,0.100342,1,0.00061169,0.000138246,-7.85644e-05,0.122338,0.0276492,-0.0157129,0.999095,-8.65282e-05,0.0425161,0.000720953,0.0186909,0.499546,-1.00109,34.6875,1,34097,3459875
49,7,0.999105,-0.00117595,0.0422729,0.000764488,0.292928,-0.819882,9.88676,1.07892,-1.05732,1.02984,0.00288939,-0.00798336,0.0988864,0.999999,-0.00108955,-0.000201728,-1.93922e-07,-0.21791,-0.0403456,-3.87844e-05,0.999105,-0.00117595,0.0422729,0.000764488,0.022528,0.500968,-1.00057,34.6875,1,34098,3459975
49,8,0.999105,-0.00117595,0.0422729,0.000764488,0.292928,-0.819882,9.88676,1.07892,-1.05732,1.02984,0.00288939,-0.00798336,0.0988864,0.999999,-0.00108955,-0.000201728,-1.93922e-07,-0.21791,-0.0403456,-3.87844e-05,0.999105,-0.00117595,0.0422729,0.000764488,0.022528,0.500968,-1.00057,34.6875,1,34098,3459975
50,1,0.999105,-0.00117595,0.0422729,0.000764488,0.292928,-0.819882,9.88676,1.07892,-1.05732,1.02984,0.00288939,-0.00798336,0.0988864,0.999999,-0.00108955,-0.000201728,-1.93922e-07,-0.21791,-0.0403456,-3.87844e-05,0.999105,-0.00117595,0.0422729,0.000764488,0.022528,0.500968,-1.00057,34.6875,1,34098,3459975
50,2,0.999079,-0.000246889,0.0429061,0.000680845,-0.657031,-0.914699,9.62155,0.493433,-1.66025,0.873645,-0.00643947,-0.00932684,0.096207,0.999999,0.000937347,0.000683773,-3.98387e-05,0.187469,0.136755,-0.00796775,0.999079,-0.000246889,0.0429061,0.000680845,0.0239059,0.501968,-1.00257,34.6875,1,34099,3460075
50,3,0.999079,-0.000246889,0.0429061,0.000680845,-0.657031,-0.914699,9.62155,0.493433,-1.66025,0.873645,-0.00643947,-0.00932684,0.096207,0.999999,0.000937347,0.000683773,-3.98387e-05,0.187469,0.136755,-0.00796775,0.999079,-0.000246889,0.0429061,0.000680845,0.0239059,0.501968,-1.00257,34.6875,1,34099,3460075
50,4,0.999079,-0.000246889,0.0429061,0.000680845,-0.657031,-0.914699,9.62155,0.493433,-1.66025,0.873645,-0.00643947,-0.00932684,0.096207,0.999999,0.000937347,0.000683773,-3.98387e-05,0.187469,0.136755,-0.00796775,0.999079,-0.000246889,0.0429061,0.000680845,0.0239059,0.501968,-1.00257,34.6875,1,34099,3460075
50,5,0.999081,-0.000391476,0.0428644,0.000703551,-1.7777,0.339364,9.72611,-0.889467,-0.0706962,1.21539,-0.017775,0.00341835,0.0972606,1,-0.000133461,1.13913e-05,3.51255e-05,-0.0266922,0.00227827,0.0070251,0.999081,-0.000391476,0.0428644,0.000703551,0.0224293,0.501041,-1.00461,34.6875,1,34100,3460175
50,6,0.999081,-0.000391476,0.0428644,0.000703551,-1.7777,0.339364,9.72611,-0.889467,-0.0706962,1.21539,-0.017775,0.00341835,0.0972606,1,-0.000133461,1.13913e-05,3.51255e-05,-0.0266922,0.00227827,0.0070251,0.999081,-0.000391476,0.0428644,0.000703551,0.0224293,0.501041,-1.00461,34.6875,1,34100,3460175
50,7,0.999081,-0.000391476,0.0428644,0.000703551,-1.7777,0.339364,9.72611,-0.889467,-0.0706962,1.21539,-0.017775,0.00341835,0.0972606,1,-0.000133461,1.13913e-05,3.51255e-05,-0.0266922,0.00227827,0.0070251,0.999081,-0.000391476,0.0428644,0.000703551,0.0224293,0.501041,-1.00461,34.6875,1,34100,3460175
50,8,0.999097,-0.000141935,0.0424899,0.000705138,-1.17745,-0.372641,9.93367,-0.295864,-0.985656,1.3221,-0.0118394,-0.00377848,0.0993271,1,0.000259753,-0.000327345,1.95599e-05,0.0519505,-0.065469,0.00391198,0.999097,-0.000141935,0.0424899,0.000705138,0.0210059,0.49911,-1.00515,34.6875,1,34101,3460275
50,9,0.999097,-0.000141935,0.0424899,0.000705138,-1.17745,-0.372641,9.93367,-0.295864,-0.985656,1.3221,-0.0118394,-0.00377848,0.0993271,1,0.000259753,-0.000327345,1.95599e-05,0.0519505,-0.065469,0.00391198,0.999097,-0.000141935,0.0424899,0.000705138,0.0210059,0.49911,-1.00515,34.6875,1,34101,3460275
50,10,0.999097,-0.000141935,0.0424899,0.000705138,-1.17745,-0.372641,9.93367,-0.295864,-0.985656,1.3221,-0.0118394,-0.00377848,0.0993271,1,0.000259753,-0.000327345,1.95599e-05,0.0519505,-0.065469,0.00391198,0.999097,-0.000141935,0.0424899,0.000705138,0.0210059,0.49911,-1.00515,34.6875,1,34101,3460275
51,1,0.999099,5.47089e-06,0.042442,0.000766756,-0.15359,0.713795,9.92053,0.840356,0.231864,1.11899,-0.00153797,0.00710646,0.0992075,1,0.00015767,-5.52084e-06,6.85953e-05,0.031534,-0.00110417,0.0137191,0.999099,5.47089e-06,0.042442,0.000766756,0.0220166,0.496176,-1.00522,34.6875,1,34102,3460375
51,2,0.999099,5.47089e-06,0.042442,0.000766756,-0.15359,0.713795,9.92053,0.840356,0.231864,1.11899,-0.00153797,0.00710646,0.0992075,1,0.00015767,-5.52084e-06,6.85953e-05,0.031534,-0.00110417,0.0137191,0.999099,5.47089e-06,0.042442,0.000766756,0.0220166,0.496176,-1.00522,34.6875,1,34102,3460375
51,3,0.999099,5.47089e-06,0.042442,0.000766756,-0.15359,0.713795,9.92053,0.840356,0.231864,1.11899,-0.00153797,0.00710646,0.0992075,1,0.00015767,-5.52084e-06,6.85953e-05,0.031534,-0.00110417,0.0137191,0.999099,5.47089e-06,0.042442,0.000766756,0.0220166,0.496176,-1.00522,34.6875,1,34102,3460375
51,4,0.9991,-0.000213046,0.0424161,0.000884924,-0.631657,-0.154749,9.91623,0.341065,-0.621483,1.17896,-0.00631225,-0.00150587,0.0991632,1,-0.000216366,2.02009e-05,0.000102275,-0.0432732,0.00404018,0.020455,0.9991,-0.000213046,0.0424161,0.000884924,0.0220621,0.497106,-1.00267,34.6875,1,34103,3460475
51,5,0.9991,-0.000213046,0.0424161,0.000884924,-0.631657,-0.154749,9.91623,0.341065,-0.621483,1.17896,-0.00631225,-0.00150587,0.0991632,1,-0.000216366,2.02009e-05,0.000102275,-0.0432732,0.00404018,0.020455,0.9991,-0.000213046,0.0424161,0.000884924,0.0220621,0.497106,-1.00267,34.6875,1,34103,3460475
51,6,0.9991,-0.000213046,0.0424161,0.000884924,-0.631657,-0.154749,9.91623,0.341065,-0.621483,1.17896,-0.00631225,-0.00150587,0.0991632,1,-0.000216366,2.02009e-05,0.000102275,-0.0432732,0.00404018,0.020455,0.9991,-0.000213046,0.0424161,0.000884924,0.0220621,0.497106,-1.00267,34.6875,1,34103,3460475
51,7,0.999099,9.83489e-05,0.0424341,0.000927918,-0.587466,0.36441,9.69331,0.413833,-0.19429,0.865899,-0.00586311,0.00358204,0.0969362,1,0.000316932,6.15522e-05,5.24641e-05,0.0633864,0.0123104,0.0104928,0.999099,9.83489e-05,0.0424341,0.000927918,0.0225607,0.500463,-0.999571,34.6875,1,34104,3460575
51,8,0.999099,9.83489e-05,0.0424341,0.000927918,-0.587466,0.36441,9.69331,0.413833,-0.19429,0.865899,-0.00586311,0.00358204,0.0969362,1,0.000316932,6.15522e-05,5.24641e-05,0.0633864,0.0123104,0.0104928,0.999099,9.83489e-05,0.0424341,0.000927918,0.0225607,0.500463,-0.999571,34.6875,1,34104,3460575
51,9,0.999099,9.83489e-05,0.0424341,0.000927918,-0.587466,0.36441,9.69331,0.413833,-0.19429,0.865899,-0.00586311,0.00358204,0.0969362,1,0.000316932,6.15522e-05,5.24641e-05,0.0633864,0.0123104,0.0104928,0.999099,9.83489e-05,0.0424341,0.000927918,0.0225607,0.500463,-0.999571,34.6875,1,34104,3460575
51,10,0.999103,-0.000163955,0.0423441,0.000961392,-0.328482,0.0968809,9.78172,0.590377,-0.316277,0.95524,-0.00329421,0.00101925,0.0978164,1,-0.000258791,-4.77131e-05,2.80715e-05,-0.0517581,-0.00954262,0.0056143,0.999103,-0.000163955,0.0423441,0.000961392,0.0210476,0.501007,-1.00208,34.6875,1,34105,3460675
51,11,0.999103,-0.000163955,0.0423441,0.000961392,-0.328482,0.0968809,9.78172,0.590377,-0.316277,0.95524,-0.00329421,0.00101925,0.0978164,1,-0.000258791,-4.77131e-05,2.80715e-05,-0.0517581,-0.00954262,0.0056143,0.999103,-0.000163955,0.0423441,0.000961392,0.0210476,0.501007,-1.00208,34.6875,1,34105,3460675
51,12,0.999103,-0.000163955,0.0423441,0.000961392,-0.328482,0.0968809,9.78172,0.590377,-0.316277,0.95524,-0.00329421,0.00101925,0.0978164,1,-0.000258791,-4.77131e-05,2.80715e-05,-0.0517581,-0.00954262,0.0056143,0.999103,-0.000163955,0.0423441,0.000961392,0.0210476,0.501007,-1.00208,34.6875,1,34105,3460675
52,1,0.999094,5.62578e-06,0.0425492,0.000937452,-0.566726,-0.146528,9.77086,0.502608,-0.680904,0.947353,-0.00561712,-0.00149948,0.0977109,1,0.000175527,0.00025675,-9.4207e-06,0.0351053,0.05135,-0.00188414,0.999094,5.62578e-06,0.0425492,0.000937452,0.0215117,0.499088,-1.00414,34.6875,1,34106,3460775
52,2,0.999094,5.62578e-06,0.0425492,0.000937452,-0.566726,-0.146528,9.77086,0.502608,-0.680904,0.947353,-0.00561712,-0.00149948,0.0977109,1,0.000175527,0.00025675,-9.4207e-06,0.0351053,0.05135,-0.00188414,0.999094,5.62578e-06,0.0425492,0.000937452,0.0215117,0.499088,-1.00414,34.6875,1,34106,3460775
52,3,0.999094,5.62578e-06,0.0425492,0.000937452,-0.566726,-0.146528,9.77086,0.502608,-0.680904,0.947353,-0.00561712,-0.00149948,0.0977109,1,0.000175527,0.00025675,-9.4207e-06,0.0351053,0.05135,-0.00188414,0.999094,5.62578e-06,0.0425492,0.000937452,0.0215117,0.499088,-1.00414,34.6875,1,34106,3460775
52,4,0.999089,-0.000111518,0.0426561,0.000940306,-0.845269,-0.109892,9.71398,0.171208,-0.554903,0.923283,-0.00842136,-0.00107735,0.0971428,1,-0.00011107,0.000161243,4.25241e-07,-0.0222139,0.0322486,8.50481e-05,0.999089,-0.000111518,0.0426561,0.000940306,0.0229342,0.498128,-1.00569,34.6875,1,34107,3460875
52,5,0.999089,-0.000111518,0.0426561,0.000940306,-0.845269,-0.109892,9.71398,0.171208,-0.554903,0.923283,-0.00842136,-0.00107735,0.0971428,1,-0.00011107,0.000161243,4.25241e-07,-0.0222139,0.0322486,8.50481e-05,0.999089,-0.000111518,0.0426561,0.000940306,0.0229342,0.498128,-1.00569,34.6875,1,34107,3460875
52,6,0.999089,-0.000111518,0.0426561,0.000940306,-0.845269,-0.109892,9.71398,0.171208,-0.554903,0.923283,-0.00842136,-0.00107735,0.0971428,1,-0.00011107,0.000161243,4.25241e-07,-0.0222139,0.0322486,8.50481e-05,0.999089,-0.000111518,0.0426561,0.000940306,0.0229342,0.498128,-1.00569,34.6875,1,34107,3460875
52,7,0.999091,8.5165e-05,0.0426198,0.000927926,-1.04125,-0.218468,9.78821,-0.0835979,-0.775415,1.03255,-0.0104091,-0.00222442,0.0978815,1,0.00020324,1.72342e-05,-2.66369e-06,0.0406481,0.00344683,-0.000532737,0.999091,8.5165e-05,0.0426198,0.000927926,0.0230281,0.496132,-1.0032,34.6875,1,34108,3460975
52,8,0.999091,8.5165e-05,0.0426198,0.000927926,-1.04125,-0.218468,9.78821,-0.0835979,-0.775415,1.03255,-0.0104091,-0.00222442,0.0978815,1,0.00020324,1.72342e-05,-2.66369e-06,0.0406481,0.00344683,-0.000532737,0.999091,8.5165e-05,0.0426198,0.000927926,0.0230281,0.496132,-1.0032,34.6875,1,34108,3460975
52,9,0.999091,8.5165e-05,0.0426198,0.000927926,-1.04125,-0.218468,9.78821,-0.0835979,-0.775415,1.03255,-0.0104091,-0.00222442,0.0978815,1,0.00020324,1.72342e-05,-2.66369e-06,0.0406481,0.00344683,-0.000532737,0.999091,8.5165e-05,0.0426198,0.000927926,0.0230281,0.496132,-1.0032,34.6875,1,34108,3460975
52,10,0.99909,2.72255e-05,0.0426477,0.000964112,-0.689141,0.080819,9.79981,0.32442,-0.375436,0.986058,-0.00687696,0.000817958,0.0979991,1,-5.15693e-05,7.39418e-05,2.46262e-05,-0.0103139,0.0147884,0.00492525,0.99909,2.72255e-05,0.0426477,0.000964112,0.0216545,0.495611,-1.00068,34.6875,1,34109,3461075
53,1,0.99909,2.72255e-05,0.0426477,0.000964112,-0.689141,0.080819,9.79981,0.32442,-0.375436,0.986058,-0.00687696,0.000817958,0.0979991,1,-5.15693e-05,7.39418e-05,2.46262e-05,-0.0103139,0.0147884,0.00492525,0.99909,2.72255e-05,0.0426477,0.000964112,0.0216545,0.495611,-1.00068,34.6875,1,34109,3461075
53,2,0.99909,2.72255e-05,0.0426477,0.000964112,-0.689141,0.080819,9.79981,0.32442,-0.375436,0.986058,-0.00687696,0.000817958,0.0979991,1,-5.15693e-05,7.39418e-05,2.46262e-05,-0.0103139,0.0147884,0.00492525,0.99909,2.72255e-05,0.0426477,0.000964112,0.0216545,0.495611,-1.00068,34.6875,1,34109,3461075
53,3,0.999091,8.24104e-05,0.042606,0.000997935,-0.705488,-0.198382,9.80235,0.244774,-0.725355,1.02218,-0.00705433,-0.00199608,0.0980233,1,6.08082e-05,2.30801e-06,2.42125e-05,0.0121616,0.000461601,0.00484251,0.999091,8.24104e-05,0.042606,0.000997935,0.0235548,0.497058,-1.00066,34.6875,1,34110,3461175
53,4,0.999091,8.24104e-05,0.042606,0.000997935,-0.705488,-0.198382,9.80235,0.244774,-0.725355,1.02218,-0.00705433,-0.00199608,0.0980233,1,6.08082e-05,2.30801e-06,2.42125e-05,0.0121616,0.000461601,0.00484251,0.999091,8.24104e-05,0.042606,0.000997935,0.0235548,0.497058,-1.00066,34.6875,1,34110,3461175
53,5,0.999091,8.24104e-05,0.042606,0.000997935,-0.705488,-0.198382,9.80235,0.244774,-0.725355,1.02218,-0.00705433,-0.00199608,0.0980233,1,6.08082e-05,2.30801e-06,2.42125e-05,0.0121616,0.000461601,0.00484251,0.999091,8.24104e-05,0.042606,0.000997935,0.0235548,0.497058,-1.00066,34.6875,1,34110,3461175
53,6,0.99909,0.000140694,0.0426297,0.00100618,-0.74738,0.174352,9.74233,0.282485,-0.320867,0.932885,-0.00746022,0.00173054,0.0974246,1,6.55508e-05,6.9939e-05,1.3866e-05,0.0131102,0.0139878,0.0027732,0.99909,0.000140694,0.0426297,0.00100618,0.0244145,0.498089,-1.00418,34.6875,1,34111,3461275
53,7,0.99909,0.000140694,0.0426297,0.00100618,-0.74738,0.174352,9.74233,0.282485,-0.320867,0.932885,-0.00746022,0.00173054,0.0974246,1,6.55508e-05,6.9939e-05,1.3866e-05,0.0131102,0.0139878,0.0027732,0.99909,0.000140694,0.0426297,0.00100618,0.0244145,0.498089,-1.00418,34.6875,1,34111,3461275
53,8,0.99909,0.000140694,0.0426297,0.00100618,-0.74738,0.174352,9.74233,0.282485,-0.320867,0.932885,-0.00746022,0.00173054,0.0974246,1,6.55508e-05,6.9939e-05,1.3866e-05,0.0131102,0.0139878,0.0027732,0.99909,0.000140694,0.0426297,0.00100618,0.0244145,0.498089,-1.00418,34.6875,1,34111,3461275
54,1,0.999092,8.75143e-05,0.0425886,0.00100828,-0.941815,-0.0628246,9.81489,0.0537744,-0.548577,1.03319,-0.00941581,-0.000619482,0.0981492,1,-4.63056e-05,1.17842e-05,1.72713e-05,-0.00926111,0.00235685,0.00345426,0.999092,8.75143e-05,0.0425886,0.00100828,0.0234195,0.498603,-1.00517,34.6875,1,34112,3461375
54,2,0.999092,8.75143e-05,0.0425886,0.00100828,-0.941815,-0.0628246,9.81489,0.0537744,-0.548577,1.03319,-0.00941581,-0.000619482,0.0981492,1,-4.63056e-05,1.17842e-05,1.72713e-05,-0.00926111,0.00235685,0.00345426,0.999092,8.75143e-05,0.0425886,0.00100828,0.0234195,0.498603,-1.00517,34.6875,1,34112,3461375
54,3,0.999092,8.75143e-05,0.0425886,0.00100828,-0.941815,-0.0628246,9.81489,0.0537744,-0.548577,1.03319,-0.00941581,-0.000619482,0.0981492,1,-4.63056e-05,1.17842e-05,1.72713e-05,-0.00926111,0.00235685,0.00345426,0.999092,8.75143e-05,0.0425886,0.00100828,0.0234195,0.498603,-1.00517,34.6875,1,34112,3461375
54,4,0.999097,0.000101657,0.0424804,0.000999023,-1.19039,-0.0778838,9.81149,-0.203745,-0.579947,1.06224,-0.011915,-0.000783411,0.0981136,1,2.23409e-05,-5.64307e-05,7.91989e-06,0.00446818,-0.0112861,0.00158398,0.999097,0.000101657,0.0424804,0.000999023,0.0205367,0.49766,-1.00568,34.6875,1,34113,3461475
54,5,0.999097,0.000101657,0.0424804,0.000999023,-1.19039,-0.0778838,9.81149,-0.203745,-0.579947,1.06224,-0.011915,-0.000783411,0.0981136,1,2.23409e-05,-5.64307e-05,7.91989e-06,0.00446818,-0.0112861,0.00158398,0.999097,0.000101657,0.0424804,0.000999023,0.0205367,0.49766,-1.00568,34.6875,1,34113,3461475
54,6,0.999097,0.000101657,0.0424804,0.000999023,-1.19039,-0.0778838,9.81149,-0.203745,-0.579947,1.06224,-0.011915,-0.000783411,0.0981136,1,2.23409e-05,-5.64307e-05,7.91989e-06,0.00446818,-0.0112861,0.00158398,0.999097,0.000101657,0.0424804,0.000999023,0.0205367,0.49766,-1.00568,34.6875,1,34113,3461475
54,7,0.999106,8.8775e-05,0.042271,0.00100711,-0.887612,-0.14193,9.78722,0.0679994,-0.641558,1.00566,-0.00890785,-0.00141866,0.0978694,1,-4.25753e-06,-0.000162256,1.10174e-05,-0.000851506,-0.0324513,0.00220349,0.999106,8.8775e-05,0.042271,0.00100711,0.0201457,0.496635,-1.00268,34.6875,1,34114,3461575
54,8,0.999106,8.8775e-05,0.042271,0.00100711,-0.887612,-0.14193,9.78722,0.0679994,-0.641558,1.00566,-0.00890785,-0.00141866,0.0978694,1,-4.25753e-06,-0.000162256,1.10174e-05,-0.000851506,-0.0324513,0.00220349,0.999106,8.8775e-05,0.042271,0.00100711,0.0201457,0.496635,-1.00268,34.6875,1,34114,3461575
55,1,0.999106,8.8775e-05,0.042271,0.00100711,-0.887612,-0.14193,9.78722,0.0679994,-0.641558,1.00566,-0.00890785,-0.00141866,0.0978694,1,-4.25753e-06,-0.000162256,1.10174e-05,-0.000851506,-0.0324513,0.00220349,0.999106,8.8775e-05,0.042271,0.00100711,0.0201457,0.496635,-1.00268,34.6875,1,34114,3461575
55,2,0.999115,0.000169645,0.0420566,0.00100593,-0.640197,-0.0707486,9.77733,0.29169,-0.588897,0.986691,-0.00643656,-0.000724886,0.0977709,1,8.96262e-05,-0.000176802,-9.7766e-06,0.0179252,-0.0353603,-0.00195532,0.999115,0.000169645,0.0420566,0.00100593,0.0211535,0.497557,-1.00013,34.6875,1,34115,3461675
55,3,0.999115,0.000169645,0.0420566,0.00100593,-0.640197,-0.0707486,9.77733,0.29169,-0.588897,0.986691,-0.00643656,-0.000724886,0.0977709,1,8.96262e-05,-0.000176802,-9.7766e-06,0.0179252,-0.0353603,-0.00195532,0.999115,0.000169645,0.0420566,0.00100593,0.0211535,0.497557,-1.00013,34.6875,1,34115,3461675
55,4,0.999115,0.000169645,0.0420566,0.00100593,-0.640197,-0.0707486,9.77733,0.29169,-0.588897,0.986691,-0.00643656,-0.000724886,0.0977709,1,8.96262e-05,-0.000176802,-9.7766e-06,0.0179252,-0.0353603,-0.00195532,0.999115,0.000169645,0.0420566,0.00100593,0.0211535,0.497557,-1.00013,34.6875,1,34115,3461675
56,1,0.999117,0.000136392,0.0420012,0.00102302,-0.61754,-0.0920943,9.76872,0.395316,-0.569003,0.954398,-0.00617916,-0.00091597,0.097687,1,-2.61685e-05,-1.93625e-05,1.12425e-05,-0.00523369,-0.00387249,0.0022485,0.999117,0.000136392,0.0420012,0.00102302,0.0225313,0.498557,-1.00214,34.6875,1,34116,3461775
56,2,0.999117,0.000136392,0.0420012,0.00102302,-0.61754,-0.0920943,9.76872,0.395316,-0.569003,0.954398,-0.00617916,-0.00091597,0.097687,1,-2.61685e-05,-1.93625e-05,1.12425e-05,-0.00523369,-0.00387249,0.0022485,0.999117,0.000136392,0.0420012,0.00102302,0.0225313,0.498557,-1.00214,34.6875,1,34116,3461775
56,3,0.999117,0.000136392,0.0420012,0.00102302,-0.61754,-0.0920943,9.76872,0.395316,-0.569003,0.954398,-0.00617916,-0.00091597,0.097687,1,-2.61685e-05,-1.93625e-05,1.12425e-05,-0.00523369,-0.00387249,0.0022485,0.999117,0.000136392,0.0420012,0.00102302,0.0225313,0.498557,-1.00214,34.6875,1,34116,3461775
56,4,0.999122,0.000235781,0.0418758,0.00101721,-0.846389,-0.127177,9.76156,0.11714,-0.660128,0.978734,-0.00847987,-0.0012931,0.0976139,1,0.000108421,-8.19784e-05,9.51479e-06,0.0216842,-0.0163957,0.00190296,0.999122,0.000235781,0.0418758,0.00101721,0.0234366,0.500518,-1.00311,34.6875,1,34117,3461875
56,5,0.999122,0.000235781,0.0418758,0.00101721,-0.846389,-0.127177,9.76156,0.11714,-0.660128,0.978734,-0.00847987,-0.0012931,0.0976139,1,0.000108421,-8.19784e-05,9.51479e-06,0.0216842,-0.0163957,0.00190296,0.999122,0.000235781,0.0418758,0.00101721,0.0234366,0.500518,-1.00311,34.6875,1,34117,3461875
56,6,0.999122,0.000235781,0.0418758,0.00101721,-0.846389,-0.127177,9.76156,0.11714,-0.660128,0.978734,-0.00847987,-0.0012931,0.0976139,1,0.000108421,-8.19784e-05,9.51479e-06,0.0216842,-0.0163957,0.00190296,0.999122,0.000235781,0.0418758,0.00101721,0.0234366,0.500518,-1.00311,34.6875,1,34117,3461875
57,1,0.999127,0.000253518,0.0417598,0.00101964,-0.937774,0.0946469,9.7478,0.0276917,-0.405569,0.964503,-0.0093918,0.000940618,0.0974767,1,2.76062e-05,-7.1899e-05,2.49933e-05,0.00552124,-0.0143798,0.00499866,0.999127,0.000253518,0.0417598,0.00101964,0.0244065,0.498577,-1.00417,34.6875,1,34118,3461975
57,2,0.999127,0.000253518,0.0417598,0.00101964,-0.937774,0.0946469,9.7478,0.0276917,-0.405569,0.964503,-0.0093918,0.000940618,0.0974767,1,2.76062e-05,-7.1899e-05,2.49933e-05,0.00552124,-0.0143798,0.00499866,0.999127,0.000253518,0.0417598,0.00101964,0.0244065,0.498577,-1.00417,34.6875,1,34118,3461975
57,3,0.999127,0.000253518,0.0417598,0.00101964,-0.937774,0.0946469,9.7478,0.0276917,-0.405569,0.964503,-0.0093918,0.000940618,0.0974767,1,2.76062e-05,-7.1899e-05,2.49933e-05,0.00552124,-0.0143798,0.00499866,0.999127,0.000253518,0.0417598,0.00101964,0.0244065,0.498577,-1.00417,34.6875,1,34118,3461975
57,4,0.99913,0.000224492,0.041694,0.00105605,-0.963188,-0.0688399,9.88453,0.00759725,-0.598021,1.04194,-0.00963636,-0.000685065,0.0988449,1,-2.08888e-05,-2.29382e-05,4.1259e-05,-0.00417775,-0.00458764,0.0082518,0.99913,0.000224492,0.041694,0.00105605,0.022,0.495706,-1.00624,34.6875,1,34119,3462075
57,5,0.99913,0.000224492,0.041694,0.00105605,-0.963188,-0.0688399,9.88453,0.00759725,-0.598021,1.04194,-0.00963636,-0.000685065,0.0988449,1,-2.08888e-05,-2.29382e-05,4.1259e-05,-0.00417775,-0.00458764,0.0082518,0.99913,0.000224492,0.041694,0.00105605,0.022,0.495706,-1.00624,34.6875,1,34119,3462075
57,6,0.99913,0.000224492,0.041694,0.00105605,-0.963188,-0.0688399,9.88453,0.00759725,-0.598021,1.04194,-0.00963636,-0.000685065,0.0988449,1,-2.08888e-05,-2.29382e-05,4.1259e-05,-0.00417775,-0.00458764,0.0082518,0.99913,0.000224492,0.041694,0.00105605,0.022,0.495706,-1.00624,34.6875,1,34119,3462075
58,1,0.99913,0.000123703,0.0417003,0.00114169,-1.24917,-0.0929386,9.45363,-0.17182,-0.627456,0.729327,-0.0124823,-0.000913582,0.0945377,1,-9.32875e-05,4.92492e-05,7.34701e-05,-0.0186575,0.00984984,0.014694,0.99913,0.000123703,0.0417003,0.00114169,0.0201737,0.494205,-1.00323,34.6875,1,34120,3462175
58,2,0.99913,0.000123703,0.0417003,0.00114169,-1.24917,-0.0929386,9.45363,-0.17182,-0.627456,0.729327,-0.0124823,-0.000913582,0.0945377,1,-9.32875e-05,4.92492e-05,7.34701e-05,-0.0186575,0.00984984,0.014694,0.99913,0.000123703,0.0417003,0.00114169,0.0201737,0.494205,-1.00323,34.6875,1,34120,3462175
58,3,0.99913,0.000123703,0.0417003,0.00114169,-1.24917,-0.0929386,9.45363,-0.17182,-0.627456,0.729327,-0.0124823,-0.000913582,0.0945377,1,-9.32875e-05,4.92492e-05,7.34701e-05,-0.0186575,0.00984984,0.014694,0.99913,0.000123703,0.0417003,0.00114169,0.0201737,0.494205,-1.00323,34.6875,1,34120,3462175
58,4,0.999132,0.000376856,0.0416358,0.00115504,-1.72117,-0.029977,9.79621,-0.679476,-0.701489,1.2652,-0.017218,-0.000351633,0.0979608,1,0.000263442,-3.18948e-05,7.22167e-06,0.0526884,-0.00637897,0.00144433,0.999132,0.000376856,0.0416358,0.00115504,0.0206676,0.495637,-1.00169,34.6875,1,34121,3462275
59,1,0.999132,0.000376856,0.0416358,0.00115504,-1.72117,-0.029977,9.79621,-0.679476,-0.701489,1.2652,-0.017218,-0.000351633,0.0979608,1,0.000263442,-3.18948e-05,7.22167e-06,0.0526884,-0.00637897,0.00144433,0.999132,0.000376856,0.0416358,0.00115504,0.0206676,0.495637,-1.00169,34.6875,1,34121,3462275
59,2,0.999132,0.000376856,0.0416358,0.00115504,-1.72117,-0.029977,9.79621,-0.679476,-0.701489,1.2652,-0.017218,-0.000351633,0.0979608,1,0.000263442,-3.18948e-05,7.22167e-06,0.0526884,-0.00637897,0.00144433,0.999132,0.000376856,0.0416358,0.00115504,0.0206676,0.495637,-1.00169,34.6875,1,34121,3462275
59,3,0.999143,0.000140405,0.041365,0.00117617,-1.17013,0.179456,9.90279,-0.261302,-0.231156,1.12251,-0.0117502,0.00183937,0.0990213,1,-0.0002272,-0.000246621,8.38501e-06,-0.04544,-0.0493243,0.001677,0.999143,0.000140405,0.041365,0.00117617,0.0230779,0.497541,-1.00014,34.6875,1,34122,3462375
59,4,0.999143,0.000140405,0.041365,0.00117617,-1.17013,0.179456,9.90279,-0.261302,-0.231156,1.12251,-0.0117502,0.00183937,0.0990213,1,-0.0002272,-0.000246621,8.38501e-06,-0.04544,-0.0493243,0.001677,0.999143,0.000140405,0.041365,0.00117617,0.0230779,0.497541,-1.00014,34.6875,1,34122,3462375
59,5,0.999143,0.000140405,0.041365,0.00117617,-1.17013,0.179456,9.90279,-0.261302,-0.231156,1.12251,-0.0117502,0.00183937,0.0990213,1,-0.0002272,-0.000246621,8.38501e-06,-0.04544,-0.0493243,0.001677,0.999143,0.000140405,0.041365,0.00117617,0.0230779,0.497541,-1.00014,34.6875,1,34122,3462375
59,6,0.999142,0.000272392,0.0413916,0.00119104,-0.995938,-0.549091,9.86287,-0.136982,-1.10784,0.905832,-0.00994979,-0.00551871,0.0986281,1,0.000138278,4.71525e-05,2.61212e-05,0.0276557,0.00943049,0.00522424,0.999142,0.000272392,0.0413916,0.00119104,0.023477,0.498079,-1.00316,34.6875,1,34123,3462475
60,1,0.999142,0.000272392,0.0413916,0.00119104,-0.995938,-0.549091,9.86287,-0.136982,-1.10784,0.905832,-0.00994979,-0.00551871,0.0986281,1,0.000138278,4.71525e-05,2.61212e-05,0.0276557,0.00943049,0.00522424,0.999142,0.000272392,0.0413916,0.00119104,0.023477,0.498079,-1.00316,34.6875,1,34123,3462475
60,2,0.999142,0.000272392,0.0413916,0.00119104,-0.995938,-0.549091,9.86287,-0.136982,-1.10784,0.905832,-0.00994979,-0.00551871,0.0986281,1,0.000138278,4.71525e-05,2.61212e-05,0.0276557,0.00943049,0.00522424,0.999142,0.000272392,0.0413916,0.00119104,0.023477,0.498079,-1.00316,34.6875,1,34123,3462475
60,3,0.999141,0.000267514,0.0414139,0.00120333,-1.30471,0.185075,9.57159,-0.47949,-0.268397,0.712689,-0.0130382,0.00184854,0.0957172,1,7.82507e-06,4.6995e-05,2.73488e-05,0.00156501,0.00939901,0.00546977,0.999141,0.000267514,0.0414139,0.00120333,0.0229052,0.497667,-1.00721,34.6875,1,34124,3462575
60,4,0.999141,0.000267514,0.0414139,0.00120333,-1.30471,0.185075,9.57159,-0.47949,-0.268397,0.712689,-0.0130382,0.00184854,0.0957172,1,7.82507e-06,4.6995e-05,2.73488e-05,0.00156501,0.00939901,0.00546977,0.999141,0.000267514,0.0414139,0.00120333,0.0229052,0.497667,-1.00721,34.6875,1,34124,3462575
60,5,0.999141,0.000267514,0.0414139,0.00120333,-1.30471,0.185075,9.57159,-0.47949,-0.268397,0.712689,-0.0130382,0.00184854,0.0957172,1,7.82507e-06,4.6995e-05,2.73488e-05,0.00156501,0.00939901,0.00546977,0.999141,0.000267514,0.0414139,0.00120333,0.0229052,0.497667,-1.00721,34.6875,1,34124,3462575
60,6,0.999148,0.000268661,0.0412464,0.00119568,-0.881559,-0.437946,9.63817,-0.0345015,-0.970325,0.937572,-0.00884316,-0.00438242,0.096379,1,1.46651e-05,-0.000143335,7.31331e-06,0.00293301,-0.028667,0.00146266,0.999148,0.000268661,0.0412464,0.00119568,0.0224939,0.497138,-1.0047,34.6875,1,34125,3462675
61,1,0.999148,0.000268661,0.0412464,0.00119568,-0.881559,-0.437946,9.63817,-0.0345015,-0.970325,0.937572,-0.00884316,-0.00438242,0.096379,1,1.46651e-05,-0.000143335,7.31331e-06,0.00293301,-0.028667,0.00146266,0.999148,0.000268661,0.0412464,0.00119568,0.0224939,0.497138,-1.0047,34.6875,1,34125,3462675
61,2,0.999148,0.000268661,0.0412464,0.00119568,-0.881559,-0.437946,9.63817,-0.0345015,-0.970325,0.937572,-0.00884316,-0.00438242,0.096379,1,1.46651e-05,-0.000143335,7.31331e-06,0.00293301,-0.028667,0.00146266,0.999148,0.000268661,0.0412464,0.00119568,0.0224939,0.497138,-1.0047,34.6875,1,34125,3462675
61,3,0.999144,0.000466521,0.041343,0.00119787,-0.674525,0.213799,9.79844,0.303614,-0.333366,1.04353,-0.00672287,0.0020962,0.0979869,1,0.000212208,0.000114513,1.51798e-05,0.0424417,0.0229026,0.00303596,0.999144,0.000466521,0.041343,0.00119787,0.0216299,0.495629,-1.00169,34.6875,1,34126,3462775
61,4,0.999144,0.000466521,0.041343,0.00119787,-0.674525,0.213799,9.79844,0.303614,-0.333366,1.04353,-0.00672287,0.0020962,0.0979869,1,0.000212208,0.000114513,1.51798e-05,0.0424417,0.0229026,0.00303596,0.999144,0.000466521,0.041343,0.00119787,0.0216299,0.495629,-1.00169,34.6875,1,34126,3462775
62,1,0.999144,0.000466521,0.041343,0.00119787,-0.674525,0.213799,9.79844,0.303614,-0.333366,1.04353,-0.00672287,0.0020962,0.0979869,1,0.000212208,0.000114513,1.51798e-05,0.0424417,0.0229026,0.00303596,0.999144,0.000466521,0.041343,0.00119787,0.0216299,0.495629,-1.00169,34.6875,1,34126,3462775
62,2,0.999139,0.000287044,0.0414737,0.00125674,-0.984759,-0.258191,9.80389,0.0223553,-0.728789,1.04679,-0.00981857,-0.00254939,0.0980426,1,-0.000170387,0.000146834,4.50018e-05,-0.0340774,0.0293668,0.00900036,0.999139,0.000287044,0.0414737,0.00125674,0.0211611,0.495624,-1.00119,34.6875,1,34127,3462875
62,3,0.999139,0.000287044,0.0414737,0.00125674,-0.984759,-0.258191,9.80389,0.0223553,-0.728789,1.04679,-0.00981857,-0.00254939,0.0980426,1,-0.000170387,0.000146834,4.50018e-05,-0.0340774,0.0293668,0.00900036,0.999139,0.000287044,0.0414737,0.00125674,0.0211611,0.495624,-1.00119,34.6875,1,34127,3462875
62,4,0.999139,0.000287044,0.0414737,0.00125674,-0.984759,-0.258191,9.80389,0.0223553,-0.728789,1.04679,-0.00981857,-0.00254939,0.0980426,1,-0.000170387,0.000146834,4.50018e-05,-0.0340774,0.0293668,0.00900036,0.999139,0.000287044,0.0414737,0.00125674,0.0211611,0.495624,-1.00119,34.6875,1,34127,3462875
62,5,0.999137,0.000600189,0.041523,0.00125072,-1.232,0.0566124,9.71201,-0.254219,-0.52132,0.9849,-0.0123074,0.000502588,0.097122,1,0.000326615,6.46998e-05,3.7733e-06,0.0653229,0.01294,0.00075466,0.999137,0.000600189,0.041523,0.00125072,0.0216303,0.497074,-1.00065,34.6875,1,34128,3462975
62,6,0.999137,0.000600189,0.041523,0.00125072,-1.232,0.0566124,9.71201,-0.254219,-0.52132,0.9849,-0.0123074,0.000502588,0.097122,1,0.000326615,6.46998e-05,3.7733e-06,0.0653229,0.01294,0.00075466,0.999137,0.000600189,0.041523,0.00125072,0.0216303,0.497074,-1.00065,34.6875,1,34128,3462975
62,7,0.999137,0.000600189,0.041523,0.00125072,-1.232,0.0566124,9.71201,-0.254219,-0.52132,0.9849,-0.0123074,0.000502588,0.097122,1,0.000326615,6.46998e-05,3.7733e-06,0.0653229,0.01294,0.00075466,0.999137,0.000600189,0.041523,0.00125072,0.0216303,0.497074,-1.00065,34.6875,1,34128,3462975
62,8,0.999137,0.00040314,0.0415187,0.00127401,-1.19343,-0.0485657,9.79235,-0.231421,-0.483517,1.0265,-0.0119327,-0.000449956,0.0979238,1,-0.000184761,8.15018e-06,2.02799e-05,-0.0369522,0.00163003,0.00405598,0.999137,0.00040314,0.0415187,0.00127401,0.022947,0.499564,-1.00414,34.6875,1,34129,3463075
63,1,0.999137,0.00040314,0.0415187,0.00127401,-1.19343,-0.0485657,9.79235,-0.231421,-0.483517,1.0265,-0.0119327,-0.000449956,0.0979238,1,-0.000184761,8.15018e-06,2.02799e-05,-0.0369522,0.00163003,0.00405598,0.999137,0.00040314,0.0415187,0.00127401,0.022947,0.499564,-1.00414,34.6875,1,34129,3463075
63,2,0.999137,0.00040314,0.0415187,0.00127401,-1.19343,-0.0485657,9.79235,-0.231421,-0.483517,1.0265,-0.0119327,-0.000449956,0.0979238,1,-0.000184761,8.15018e-06,2.02799e-05,-0.0369522,0.00163003,0.00405598,0.999137,0.00040314,0.0415187,0.00127401,0.022947,0.499564,-1.00414,34.6875,1,34129,3463075
63,3,0.999138,0.000582885,0.041484,0.001241,-1.1762,-0.231511,9.79577,-0.2292,-0.790595,1.00594,-0.0117665,-0.00235336,0.0979563,1,0.000196358,-2.24924e-05,-9.06932e-06,0.0392717,-0.00449847,-0.00181386,0.999138,0.000582885,0.041484,0.001241,0.0233621,0.499126,-1.00718,34.6875,1,34130,3463175
63,4,0.999138,0.000582885,0.041484,0.001241,-1.1762,-0.231511,9.79577,-0.2292,-0.790595,1.00594,-0.0117665,-0.00235336,0.0979563,1,0.000196358,-2.24924e-05,-9.06932e-06,0.0392717,-0.00449847,-0.00181386,0.999138,0.000582885,0.041484,0.001241,0.0233621,0.499126,-1.00718,34.6875,1,34130,3463175
63,5,0.999138,0.000582885,0.041484,0.001241,-1.1762,-0.231511,9.79577,-0.2292,-0.790595,1.00594,-0.0117665,-0.00235336,0.0979563,1,0.000196358,-2.24924e-05,-9.06932e-06,0.0392717,-0.00449847,-0.00181386,0.999138,0.000582885,0.041484,0.001241,0.0233621,0.499126,-1.00718,34.6875,1,34130,3463175
63,6,0.999142,0.000549283,0.0413921,0.00123215,-1.16022,0.000652799,9.75939,-0.231326,-0.478111,0.969323,-0.011618,9.47999e-06,0.097592,1,-1.56945e-05,-8.13328e-05,4.7949e-06,-0.0031389,-0.0162666,0.000958981,0.999142,0.000549283,0.0413921,0.00123215,0.0209969,0.496708,-1.00722,34.6875,1,34131,3463275
