frame_id,accel_x,accel_y,accel_z,free_accel_x,free_accel_y,free_accel_z,delta_v_x,delta_v_y,delta_v_z,delta_q_w,delta_q_x,delta_q_y,delta_q_z,rate_x,rate_y,rate_z,quat_w,quat_x,quat_y,quat_z,mag_x,mag_y,mag_z,temperature,status_byte,packet_counter,time_fine
1,0,0,0,0,0,0,0,0,0,0,0,0,0,0,0,0,0,0,0,0,0,0,0,0,0,0,0
2,0,0,0,0,0,0,0,0,0,0,0,0,0,0,0,0,0,0,0,0,0,0,0,0,0,0,0
3,0,0,0,0,0,0,0,0,0,0,0,0,0,0,0,0,0,0,0,0,0,0,0,0,0,0,0
4,0,0,0,0,0,0,0,0,0,0,0,0,0,0,0,0,0,0,0,0,0,0,0,0,0,0,0
5,0,0,0,0,0,0,0,0,0,0,0,0,0,0,0,0,0,0,0,0,0,0,0,0,0,0,0
6,-0.649425,-0.0829434,9.7931,0.00774827,-0.887496,0.954407,-0.00649495,-0.000839668,0.0979309,1,5.11E-05,-3.72E-06,1.73E-05,0.0102215,-0.000743194,0.0034563,0,0,0,0,0.0580579,0.517591,-0.991778,30.875,3,6242,668407
7,-0.649425,-0.0829434,9.7931,0.00774827,-0.887496,0.954407,-0.00649495,-0.000839668,0.0979309,1,5.11E-05,-3.72E-06,1.73E-05,0.0102215,-0.000743194,0.0034563,0,0,0,0,0.0580579,0.517591,-0.991778,30.875,3,6242,668407
8,-0.649425,-0.0829434,9.7931,0.00774827,-0.887496,0.954407,-0.00649495,-0.000839668,0.0979309,1,5.11E-05,-3.72E-06,1.73E-05,0.0102215,-0.000743194,0.0034563,0,0,0,0,0.0580579,0.517591,-0.991778,30.875,3,6242,668407
9,-0.649425,-0.0829434,9.7931,0.00774827,-0.887496,0.954407,-0.00649495,-0.000839668,0.0979309,1,5.11E-05,-3.72E-06,1.73E-05,0.0102215,-0.000743194,0.0034563,0,0,0,0,0.0580579,0.517591,-0.991778,30.875,3,6242,668407
10,-0.649425,-0.0829434,9.7931,0.00774827,-0.887496,0.954407,-0.00649495,-0.000839668,0.0979309,1,5.11E-05,-3.72E-06,1.73E-05,0.0102215,-0.000743194,0.0034563,0,0,0,0,0.0580579,0.517591,-0.991778,30.875,3,6242,668407
11,-0.78956,0.0354464,9.78057,0.0661047,-0.411851,0.993095,-0.00790107,0.00034981,0.0978053,1,2.23E-05,-2.79E-05,1.80E-05,0.00446697,-0.00557791,0.00360496,0,0,0,0,0.0678397,0.514503,-0.987347,32.875,1,19738,2019482
12,-0.873378,-0.0385395,9.78931,-0.0197036,-0.506491,1.00519,-0.0087353,-0.00039744,0.0978929,1,5.92E-05,-7.86E-06,2.64E-05,0.0118338,-0.00157215,0.00527643,0,0,0,0,0.0673216,0.514534,-0.988859,32.875,1,19741,2019782
10,-0.864901,0.00940641,9.76525,-0.0178589,-0.450427,0.988811,-0.00865634,8.00E-05,0.0976519,1,7.06E-05,-3.76E-05,1.75E-05,0.0141177,-0.00751021,0.0035078,0,0,0,0,0.067305,0.514065,-0.989879,32.875,1,19744,2020082
14,-0.92904,-0.0629745,9.77018,-0.073476,-0.541289,0.99483,-0.00929857,-0.000645077,0.0977009,1,7.62E-05,-4.20E-05,2.42E-05,0.0152313,-0.00839415,0.00484793,0,0,0,0,0.0673007,0.513586,-0.990395,32.875,1,19748,2020482
15,-0.900145,-0.0103637,9.77549,-0.0563178,-0.481057,0.988387,-0.00900723,-0.000115215,0.0977543,1,5.79E-05,-2.96E-05,1.47E-05,0.0115726,-0.0059225,0.00294041,0,0,0,0,0.0673828,0.513044,-0.987377,32.875,1,19751,2020782
16,-0.868345,0.0175537,9.78098,-0.0304456,-0.46135,0.991189,-0.0086966,0.000166106,0.0978087,1,4.62E-05,-6.71E-05,2.22E-05,0.00924655,-0.0134293,0.00444397,0,0,0,0,0.0673453,0.511626,-0.989934,32.875,1,19754,2021082
17,-0.720363,0.0215067,9.78406,0.130392,-0.462605,0.986137,-0.0072091,0.000211107,0.0978402,1,1.82E-05,-2.79E-05,2.81E-05,0.00363441,-0.00558128,0.00561544,0,0,0,0,0.0658896,0.511647,-0.990431,32.875,1,19758,2021482
18,-0.774033,-0.0519948,9.77708,0.0459788,-0.543536,0.98912,-0.00776474,-0.000532309,0.0977688,1,6.35E-05,-0.000124853,-3.35E-06,0.0126956,-0.0249707,-0.000670663,0,0,0,0,0.0644543,0.511171,-0.990435,32.875,1,19761,2021782
19,-0.727688,-0.0296756,9.78777,0.0975241,-0.519389,0.9906,-0.00729032,-0.000303793,0.0978766,1,3.45E-05,-6.87E-05,1.94E-05,0.00690038,-0.0137396,0.00388432,0,0,0,0,0.0649317,0.512134,-0.989911,32.875,1,19764,2022082
20,-0.688303,-0.0197056,9.77844,0.117523,-0.524282,1.00909,-0.00690092,-0.000215702,0.0977831,1,9.37E-05,-9.15E-05,2.36E-05,0.0187363,-0.0183027,0.0047136,0,0,0,0,0.0654209,0.511642,-0.989924,32.875,1,19768,2022482
21,-0.514078,-0.045687,9.76067,0.0646286,-0.606625,1.02383,-0.005127,-0.00046413,0.0976074,1,3.61E-05,7.05E-05,2.05E-05,0.00722152,0.0141042,0.00409822,0,0,0,0,0.065343,0.512662,-0.992427,32.875,1,19771,2022782
22,-0.396328,0.259372,9.56662,0.275373,-0.433689,0.676274,-0.00399606,0.00256407,0.0956656,1,0.000154612,-0.00017107,9.22E-06,0.0309223,-0.0342139,0.00184458,0,0,0,0,0.0668685,0.512109,-0.989416,32.875,1,19774,2023082
23,-1.58928,-0.733552,9.59625,-0.311764,-1.05132,1.025,-0.0159191,-0.00730798,0.0959603,1,-0.000149097,-0.000139395,3.37E-05,-0.0298193,-0.027879,0.00674914,0,0,0,0,0.0643647,0.513646,-0.9924,32.875,1,19778,2023482
24,-0.694904,0.103866,9.80043,0.133766,-0.42977,0.958991,-0.00692332,0.00100456,0.0980065,1,0.000173087,0.000131375,1.29E-05,0.0346175,0.026275,0.00257196,0,0,0,0,0.0658982,0.512604,-0.9894,32.875,1,19781,2023782
25,-0.730918,0.0666794,9.77233,0.0765879,-0.449606,0.974596,-0.00732555,0.000643673,0.0977223,1,0.000117965,-8.37E-05,4.49E-06,0.023593,-0.0167467,0.000898176,0,0,0,0,0.0648742,0.512657,-0.991919,32.875,1,19784,2024082
26,-0.715701,0.00260755,9.7998,0.0998842,-0.521418,0.995158,-0.00716311,1.55E-05,0.0979976,1,5.36E-05,-3.11E-05,5.89E-06,0.0107102,-0.0062246,0.00117718,0,0,0,0,0.0648866,0.512648,-0.991415,32.875,1,19788,2024482
27,-0.478382,0.101226,9.73346,0.347433,-0.330591,0.907018,-0.00474961,0.00103312,0.097336,1,-0.000108768,0.000176094,3.24E-05,-0.0217536,0.0352187,0.00648299,0,0,0,0,0.0663916,0.512591,-0.988898,32.875,1,19791,2024782
28,-0.464729,0.112857,9.94117,0.42715,-0.416113,1.18935,-0.00463766,0.00112644,0.0994121,1,9.82E-06,4.87E-05,1.92E-05,0.00196334,0.00973319,0.00383836,0,0,0,0,0.064964,0.510182,-0.989955,32.875,1,19794,2025082
29,-0.630459,-0.0197942,9.80409,0.244468,-0.56774,0.959775,-0.00629972,-0.000211788,0.0980412,1,7.00E-05,2.48E-05,1.03E-05,0.0139903,0.00495394,0.00205804,0,0,0,0,0.0673121,0.510686,-0.991974,32.875,1,19798,2025482
30,-0.820654,-0.0317396,9.78729,0.00648912,-0.582397,0.98742,-0.00820601,-0.000325123,0.097873,1,3.67E-05,2.61E-06,3.30E-05,0.00734174,0.000521932,0.00659197,0,0,0,0,0.0653468,0.511696,-0.992953,32.875,1,19801,2025782
31,-0.784837,-0.029079,9.7447,0.0130353,-0.582752,0.952196,-0.0078552,-0.000305631,0.0974464,1,7.37E-05,-3.52E-05,2.98E-05,0.0147495,-0.00703632,0.00596049,0,0,0,0,0.0649193,0.512143,-0.990416,32.875,1,19804,2026082
32,-0.772874,0.0139619,9.77958,0.0418758,-0.557327,0.978184,-0.00773139,0.000130664,0.0977956,1,4.42E-05,-1.35E-05,1.96E-05,0.0088472,-0.00270638,0.00392422,0,0,0,0,0.0639685,0.509251,-0.991991,32.875,1,19808,2026482
33,-0.754456,0.00206856,9.77664,0.062172,-0.561605,0.98403,-0.00754848,7.11E-06,0.0977661,1,6.76E-05,-2.00E-05,2.39E-05,0.0135138,-0.00400507,0.00478567,0,0,0,0,0.0654081,0.510206,-0.991471,32.875,1,19811,2026782
34,-0.738232,0.00533445,9.78368,0.0717591,-0.566808,0.984879,-0.00738169,4.20E-05,0.0978369,1,5.60E-05,3.24E-06,2.50E-05,0.0112049,0.000648244,0.00500378,0,0,0,0,0.0644292,0.509744,-0.992487,32.875,1,19814,2027082
35,-0.776938,-0.000104984,9.76015,0.0287743,-0.57045,0.966943,-0.00777392,-7.37E-06,0.0976012,1,3.06E-05,-2.32E-05,2.21E-05,0.00612096,-0.00464996,0.00441228,0,0,0,0,0.0654166,0.511163,-0.99044,32.875,1,19818,2027482
36,-0.689178,0.0122038,9.78341,0.128167,-0.564986,0.985945,-0.00689498,0.000113381,0.0978339,1,4.29E-05,-1.63E-05,1.87E-05,0.0085853,-0.00326,0.00373685,0,0,0,0,0.0649065,0.510706,-0.991963,32.875,1,19821,2027782
37,-0.572327,0.105329,9.81196,0.18639,-0.527018,1.07139,-0.00573099,0.00107322,0.0981189,1,-0.000102897,-3.91E-05,2.33E-05,-0.0205794,-0.00781497,0.00465431,0,0,0,0,0.0658118,0.512667,-0.992934,32.875,1,19824,2028082
38,-0.692092,0.0337425,9.69928,0.0617616,-0.481669,0.957329,-0.00694449,0.000356497,0.096991,1,-0.000100105,-0.000121419,2.50E-05,-0.020021,-0.0242839,0.00500869,0,0,0,0,0.064887,0.514094,-0.990372,32.875,1,19828,2028482
39,-1.03409,-0.180441,9.85652,-0.628838,-0.489691,0.860645,-0.0103167,-0.00176708,0.0985684,1,-0.000195054,0.00012158,5.43E-05,-0.0390109,0.0243159,0.0108522,0,0,0,0,0.0677334,0.516508,-0.990332,32.875,1,19831,2028782
40,-1.03709,-0.775973,10.52,0.301079,-1.15069,1.35565,-0.0103483,-0.00777479,0.105201,1,7.03E-05,0.000106467,1.28E-05,0.0140626,0.0212934,0.002556,0,0,0,0,0.0648994,0.514085,-0.989868,32.875,1,19834,2029082
41,-0.844501,-0.0453068,9.84001,-0.104807,-0.567222,1.03878,-0.00846024,-0.000465073,0.0983987,1,6.03E-05,-7.74E-05,7.98E-06,0.0120628,-0.0154832,0.00159553,0,0,0,0,0.0653648,0.516501,-0.988806,32.875,1,19838,2029482
42,-0.962174,-0.107828,9.7236,-0.165743,-0.643043,0.956159,-0.00963563,-0.00106435,0.0972348,1,-7.46E-05,-7.18E-05,3.03E-05,-0.0149218,-0.0143523,0.00606461,0,0,0,0,0.067285,0.516007,-0.989331,32.875,1,19841,2029782
43,-0.871763,-0.0648099,9.77244,-0.0438247,-0.608378,0.988979,-0.00871062,-0.000657415,0.0977249,1,4.61E-05,3.58E-05,1.74E-05,0.00922274,0.00715114,0.00348282,0,0,0,0,0.0658782,0.514546,-0.988852,32.875,1,19844,2030082
44,-0.735127,-0.0726908,9.77115,0.0723363,-0.620434,0.962564,-0.00736093,-0.000734157,0.0977108,1,3.46E-05,-4.97E-05,3.36E-05,0.00691311,-0.00993233,0.00671183,0,0,0,0,0.0667754,0.516995,-0.989812,32.875,1,19848,2030482
45,-0.710013,-0.00585258,9.77322,0.109694,-0.545262,0.97304,-0.00709684,-5.77E-05,0.0977324,1,-5.75E-06,1.68E-05,2.30E-05,-0.00114996,0.0033669,0.00459814,0,0,0,0,0.0659437,0.513535,-0.986854,32.875,1,19851,2030782
46,-0.666587,-0.0954547,9.79318,0.169029,-0.641159,0.991024,-0.00666602,-0.000963586,0.0979317,1,4.40E-05,-1.06E-06,3.16E-05,0.00879952,-0.00021267,0.00631361,0,0,0,0,0.0672561,0.515546,-0.990856,32.875,1,19854,2031082
47,-0.67018,-0.00728596,9.78887,0.159245,-0.550822,0.990347,-0.00670029,-8.06E-05,0.0978888,1,3.73E-05,7.69E-06,3.31E-05,0.00746955,0.00153741,0.00661578,0,0,0,0,0.0677704,0.516481,-0.988817,32.875,1,19858,2031482
48,-0.734428,-0.0353607,9.78805,0.0908219,-0.584102,0.985447,-0.00734633,-0.000363996,0.0978803,1,5.12E-05,-1.06E-05,2.52E-05,0.0102356,-0.00211627,0.0050389,0,0,0,0,0.0667916,0.51602,-0.989833,32.875,1,19861,2031782
49,-0.76371,-0.0107168,9.7759,0.0731143,-0.567799,0.991259,-0.00763906,-0.000115628,0.0977589,1,4.20E-05,-1.00E-05,1.62E-05,0.00840012,-0.00200496,0.00324744,0,0,0,0,0.0668698,0.516444,-0.986289,32.875,1,19864,2032082
50,-0.768969,-0.0418834,9.7848,0.070237,-0.592001,0.985357,-0.00767999,-0.000420914,0.0978487,1,7.28E-06,4.94E-05,4.27E-05,0.00145546,0.00987907,0.00853467,0,0,0,0,0.0662744,0.518941,-0.989261,32.875,1,19868,2032482
51,-0.775973,-0.0242244,9.78196,0.0594012,-0.576472,0.974433,-0.00775543,-0.00024916,0.0978199,1,3.38E-05,2.19E-05,1.90E-05,0.00676846,0.00438133,0.00380428,0,0,0,0,0.0658379,0.516985,-0.988797,32.875,1,19871,2032782
52,-0.7828,-0.0566533,9.78821,0.0452643,-0.604905,0.996891,-0.00783157,-0.000569735,0.0978817,1,1.48E-05,-1.84E-05,1.94E-05,0.00296124,-0.00367645,0.00387285,0,0,0,0,0.0667507,0.517013,-0.990821,32.875,1,19874,2033082
53,-0.695349,-0.0622246,9.79742,0.129853,-0.620389,0.997707,-0.00696234,-0.000631981,0.0979735,1,4.72E-05,-4.54E-05,3.50E-05,0.00943834,-0.00907935,0.00700055,0,0,0,0,0.0686591,0.517973,-0.990809,32.875,1,19878,2033482
54,-0.760542,-0.0659838,9.78662,0.0669275,-0.619801,0.988874,-0.0076078,-0.000665194,0.097866,1,2.56E-05,-1.24E-05,2.30E-05,0.00511561,-0.00247025,0.00459472,0,0,0,0,0.0682885,0.51645,-0.987305,32.875,1,19881,2033782
55,-0.790272,-0.07539,9.77215,0.0364634,-0.642543,0.979731,-0.00790397,-0.000768432,0.0977212,1,7.27E-05,-6.52E-06,2.00E-05,0.014548,-0.00130459,0.00399053,0,0,0,0,0.0657852,0.519433,-0.989248,32.875,1,19884,2034082
56,-0.683861,-0.0126429,9.79741,0.144062,-0.563602,0.988167,-0.00684011,-0.000125226,0.097974,1,-8.21E-06,-7.71E-06,2.97E-05,-0.00164286,-0.0015415,0.00593738,0,0,0,0,0.0673267,0.517904,-0.986258,32.875,1,19888,2034482
57,-0.741408,-0.0559373,9.78965,0.0747399,-0.61976,0.988436,-0.00742234,-0.000567542,0.0978958,1,4.08E-05,-4.23E-05,1.22E-05,0.00815954,-0.00845037,0.00244919,0,0,0,0,0.0686956,0.5165,-0.990336,32.875,1,19891,2034782
58,-0.699294,-0.0813189,9.79119,0.114952,-0.636986,0.988883,-0.00700345,-0.000817328,0.0979111,1,1.97E-05,-5.38E-05,1.94E-05,0.00394985,-0.0107676,0.00388322,0,0,0,0,0.0682762,0.516459,-0.98781,32.875,1,19894,2035082
59,-0.779718,0.0100836,9.80539,0.0368441,-0.547813,1.0126,-0.00779978,9.42E-05,0.0980537,1,3.26E-05,-1.32E-05,1.42E-05,0.00651407,-0.00264791,0.00283562,0,0,0,0,0.0667801,0.518919,-0.988254,32.875,1,19898,2035482
60,-0.683218,-0.116717,9.80127,0.142018,-0.678878,0.987569,-0.00683449,-0.00117431,0.0980125,1,3.47E-05,-1.21E-05,2.43E-05,0.00694062,-0.00241551,0.00486555,0,0,0,0,0.0658298,0.517473,-0.988786,32.875,1,19901,2035782
61,-0.643881,-0.0566809,9.8239,0.181497,-0.616136,1.01923,-0.00643776,-0.000573956,0.098239,1,3.50E-05,5.22E-06,2.17E-05,0.00699055,0.00104344,0.00434213,0,0,0,0,0.0648718,0.51796,-0.988266,32.875,1,19904,2036082
62,-0.708711,-0.0356457,9.82214,0.125421,-0.597168,1.02602,-0.00708669,-0.000366207,0.0982214,1,4.74E-05,2.05E-06,3.07E-05,0.009482,0.000410031,0.00614892,0,0,0,0,0.0687374,0.518397,-0.987264,32.875,1,19908,2036482
63,-0.906376,-0.0993143,9.7395,-0.0971192,-0.661811,0.958231,-0.00906987,-0.000998894,0.0973944,1,2.78E-05,-3.16E-05,1.83E-05,0.00556449,-0.00631586,0.00366529,0,0,0,0,0.0649373,0.516948,-0.986269,32.875,1,19911,2036782
64,-0.879961,-0.0358316,9.76804,-0.0714817,-0.597591,0.977337,-0.00880982,-0.000367198,0.0976795,1,4.30E-05,-5.24E-05,2.73E-05,0.00860177,-0.0104732,0.00545197,0,0,0,0,0.067787,0.516951,-0.987797,32.875,1,19914,2037082
65,-0.800494,-0.10782,9.77502,-0.00125958,-0.671957,0.96066,-0.00801317,-0.00109018,0.0977494,1,5.94E-05,-4.23E-05,2.32E-05,0.0118811,-0.00846414,0.00463765,0,0,0,0,0.0639423,0.517462,-0.987263,32.875,1,19918,2037482
66,-0.707334,0.0133745,9.80529,0.103156,-0.570322,1.0228,-0.00708545,0.000111163,0.098052,1,0.000114132,-6.17E-05,1.41E-05,0.0228263,-0.0123457,0.00282856,0,0,0,0,0.0668082,0.516489,-0.988813,32.875,1,19921,2037782
67,-0.733585,-0.0487725,9.77407,0.0641421,-0.588166,0.987031,-0.0073458,-0.000483574,0.09774,1,-2.31E-05,-5.10E-05,2.47E-05,-0.00461855,-0.0101973,0.00494332,0,0,0,0,0.0644358,0.517449,-0.98676,32.875,1,19924,2038082
68,-0.679958,0.00298435,9.79003,0.147774,-0.55329,0.982476,-0.00679644,2.55E-05,0.0979005,1,1.93E-05,1.61E-05,4.23E-05,0.0038593,0.00321708,0.00845648,0,0,0,0,0.065834,0.517952,-0.988271,32.875,1,19928,2038482
69,-0.797561,-0.0840898,9.78875,0.0212217,-0.637381,0.992416,-0.00797663,-0.000842664,0.0978874,1,8.74E-06,-5.26E-06,3.47E-06,0.00174791,-0.00105279,0.000693256,0,0,0,0,0.0673267,0.517904,-0.986258,32.875,1,19931,2038782
70,-0.791872,-0.0669807,9.8272,0.0088402,-0.614794,1.02028,-0.00791977,-0.000666965,0.098272,1,-1.78E-05,-5.61E-06,4.17E-05,-0.00356421,-0.00112174,0.00834549,0,0,0,0,0.0648884,0.518429,-0.987246,32.875,1,19934,2039082
71,-0.5638,-0.085323,9.78446,0.231935,-0.6558,0.967947,-0.00564922,-0.000864217,0.0978438,1,5.48E-05,-5.75E-05,2.28E-05,0.0109659,-0.0115035,0.00456805,0,0,0,0,0.0662952,0.51989,-0.987725,32.875,3,19938,2039482
72,-0.908385,-0.0885549,9.74233,-0.118374,-0.644091,0.955201,-0.00908981,-0.000889616,0.0974227,1,1.90E-05,-3.08E-05,2.06E-05,0.00379092,-0.00615012,0.00411411,0,0,0,0,0.0672702,0.521318,-0.986182,32.875,3,19941,2039782
73,-0.768648,-0.121312,9.70773,0.0559706,-0.697276,0.909271,-0.00768371,-0.00122821,0.0970773,1,7.48E-05,1.38E-05,3.77E-05,0.014951,0.00275416,0.00754019,0,0,0,0,0.0662914,0.520856,-0.987198,32.9375,3,19944,2040082
74,0.0364772,-0.00200617,9.89197,0.862137,-0.553971,1.0042,0.000357547,-2.52E-05,0.0989197,1,2.60E-05,-3.65E-05,1.58E-05,0.00520707,-0.00730492,0.00315851,0,0,0,0,0.0669277,0.517366,-0.983238,32.9375,3,19948,2040482
75,-0.13843,-0.171628,9.81401,0.671181,-0.725582,1.01366,-0.00139549,-0.00171852,0.0981399,1,1.10E-05,-5.76E-05,3.02E-05,0.00219185,-0.0115123,0.00604132,0,0,0,0,0.0663892,0.517894,-0.985244,32.9375,3,19951,2040782
76,0.0483066,-0.0340473,9.85906,0.817854,-0.585141,0.965873,0.000455269,-0.000346868,0.0985907,1,3.26E-05,-0.000141101,3.60E-05,0.00652056,-0.0282202,0.00719434,0,0,0,0,0.0659047,0.520309,-0.983673,32.9375,3,19954,2041082
77,0.0143541,-0.0896108,9.83404,0.896733,-0.666765,0.980822,0.000145639,-0.000907071,0.0983403,1,5.58E-05,1.04E-05,3.04E-05,0.0111567,0.00207838,0.0060781,0,0,0,0,0.0659451,0.517871,-0.983728,32.9375,3,19958,2041482
78,1.12353,0.0749962,9.92222,1.93711,-0.513109,0.992755,0.0112086,0.000733516,0.0992253,1,8.55E-05,-0.000134359,2.35E-05,0.0171059,-0.0268717,0.00469729,0,0,0,0,0.063605,0.516879,-0.981719,32.9375,3,19961,2041782
79,-1.93373,-0.344042,9.64898,-0.990498,-0.803314,0.615563,-0.0192662,-0.00341448,0.096505,1,-0.000151097,0.000365586,8.35E-05,-0.0302194,0.0731173,0.0166924,0,0,0,0,0.0626878,0.516372,-0.98021,32.9375,3,19964,2042082
80,0.440978,-0.00340597,9.99327,1.23609,-0.440864,1.18055,0.00444405,3.99E-05,0.0999312,1,-0.000363604,0.000171461,0.000141717,-0.0727208,0.0342923,0.0283434,0,0,0,0,0.0644154,0.517946,-0.987254,32.9375,3,19967,2042382
81,0.309253,-0.502191,10.0951,1.24868,-1.04527,1.22038,0.00318594,-0.00498998,0.10095,1,-0.000154735,0.000457166,0.000109992,-0.030947,0.0914332,0.0219984,0,0,0,0,0.0607429,0.516885,-0.980695,32.9375,3,19971,2042782
82,0.0847115,-0.217004,9.86369,0.803033,-0.847122,1.02062,0.000906249,-0.00217864,0.0986362,1,4.42E-05,0.000298278,6.72E-05,0.00883251,0.0596556,0.0134419,0,0,0,0,0.0586628,0.518942,-0.98569,32.9375,3,19974,2043082
83,0.0798584,-0.0463538,9.86961,0.848239,-0.669512,1.03179,0.000788961,-0.000494514,0.098696,1,0.00015694,-4.88E-05,1.40E-06,0.031388,-0.00975215,0.000280743,0,0,0,0,0.0612122,0.518335,-0.98016,32.9375,3,19978,2043482
84,-0.426727,0.0428398,9.69258,0.342565,-0.526277,0.899197,-0.00427587,0.000413686,0.0969255,1,7.56E-05,-4.43E-05,6.29E-06,0.0151235,-0.00886687,0.0012586,0,0,0,0,0.0615823,0.518412,-0.984706,32.9375,3,19981,2043782
85,-0.245259,0.0417905,9.74603,0.387258,-0.481937,0.830474,-0.00245533,0.000447197,0.0974601,1,-0.000150752,-1.40E-05,1.89E-05,-0.0301504,-0.00279665,0.00377124,0,0,0,0,0.0620425,0.51746,-0.986244,32.9375,3,19984,2044082
86,-0.160144,-0.162576,9.88452,0.571599,-0.717618,0.9014,-0.00163227,-0.0016316,0.0988446,1,2.94E-05,-0.00015603,5.25E-06,0.0058852,-0.031206,0.00104975,0,0,0,0,0.0610684,0.518922,-0.985702,32.9375,3,19987,2044382
87,0.413242,0.155497,9.56303,1.21175,-0.446583,0.739259,0.0041162,0.00153808,0.0956313,1,8.88E-05,-8.46E-05,1.13E-05,0.0177543,-0.0169246,0.00225131,0,0,0,0,0.0626194,0.521241,-0.979597,32.9375,3,19991,2044782
88,0.730438,-0.234507,9.938,1.4763,-0.772578,1.05448,0.00732566,-0.00234503,0.0993784,1,-5.10E-07,0.00010716,-3.66E-06,-0.000102038,0.021432,-0.000732694,0,0,0,0,0.05879,0.517886,-0.981169,32.9375,3,19994,2045082
89,0.0916381,-0.122736,10.0274,0.975723,-0.784123,1.26148,0.000974109,-0.00125701,0.100273,1,0.000147531,0.000288264,-3.30E-05,0.0295062,0.0576528,-0.00659214,0,0,0,0,0.0582149,0.519886,-0.983647,32.9375,3,19998,2045482
90,-0.668185,-0.163618,9.97963,0.0261698,-0.84324,1.13057,-0.00669751,-0.00169567,0.0997943,1,0.000304943,-7.67E-05,-0.000102422,0.0609886,-0.015347,-0.0204843,0,0,0,0,0.0616852,0.518819,-0.980151,32.9375,3,20001,2045782
91,-1.05273,0.171914,9.79675,-0.36056,-0.485443,0.912776,-0.010526,0.00166646,0.0979686,1,0.000282596,4.64E-06,-0.000127521,0.0565192,0.000927069,-0.0255042,0,0,0,0,0.0591729,0.519399,-0.984167,32.9375,3,20004,2046082
92,0.120427,0.0398461,9.93763,0.742435,-0.494478,1.25009,0.0011456,0.000394443,0.099377,1,1.86E-05,-0.000295744,-0.0001376,0.00371842,-0.0591488,-0.02752,0,0,0,0,0.0592507,0.518378,-0.981665,32.9375,3,20008,2046482
93,-0.186269,-0.577135,10.0454,0.434837,-1.14349,1.2551,-0.0019069,-0.00576549,0.100454,1,-2.78E-05,-0.000215845,-7.39E-05,-0.00555957,-0.0431691,-0.0147783,0,0,0,0,0.058753,0.517913,-0.982683,32.9375,3,20011,2046782
94,0.184249,-0.416648,10.1002,0.926892,-1.06952,1.39,0.0018021,-0.00419064,0.101002,1,0.000117625,-0.000195419,-0.000109857,0.023525,-0.0390838,-0.0219714,0,0,0,0,0.0569182,0.515454,-0.980709,32.9375,3,20014,2047082
95,0.672981,-0.0155906,9.53449,1.37291,-0.546902,0.661785,0.00673764,-0.000139794,0.0953444,1,-9.23E-05,4.13E-05,-0.000110976,-0.0184664,0.00825021,-0.0221953,0,0,0,0,0.0531931,0.516841,-0.9746,32.9375,3,20018,2047482
96,0.408368,-0.288328,9.93667,1.08224,-0.812647,1.04172,0.00414871,-0.0028134,0.099366,1,-0.000353799,0.000328764,-5.30E-05,-0.0707599,0.0657527,-0.0105987,0,0,0,0,0.0545088,0.51644,-0.980171,32.9375,3,20021,2047782
97,0.00809319,-0.107215,10.0237,0.65222,-0.587299,0.9647,0.000139673,-0.00100732,0.100237,1,-0.000323441,0.00029393,-8.87E-05,-0.0646882,0.0587859,-0.0177319,0,0,0,0,0.0527243,0.516836,-0.974093,32.9375,3,20024,2048082
98,-0.507936,0.310948,9.38025,0.0932076,-0.329989,0.632833,-0.00507229,0.00309557,0.0938033,1,8.39E-05,3.17E-05,-0.000180208,0.0167846,0.00633857,-0.0360416,0,0,0,0,0.0544765,0.518391,-0.980128,32.9375,3,20028,2048482
99,-0.40863,-0.273163,10.156,0.167972,-0.882291,1.24979,-0.00409733,-0.00275025,0.101559,1,9.96E-05,-4.90E-05,-0.000195902,0.0199139,-0.00979944,-0.0391804,0,0,0,0,0.0536576,0.516367,-0.975623,32.9375,3,20031,2048782
100,-0.131859,0.00753788,9.82441,0.52661,-0.737011,1.21002,-0.00137136,7.76E-07,0.0982435,1,0.000382544,-0.000268653,-0.000209264,0.0765089,-0.0537306,-0.0418528,0,0,0,0,0.0541302,0.515406,-0.976657,32.9375,3,20034,2049082
101,0.818168,0.620445,10.3626,1.27484,0.0284394,1.5787,0.00805152,0.00621121,0.103636,1,-5.15E-05,-0.000642418,-0.000241097,-0.0103005,-0.128484,-0.0482193,0,0,0,0,0.0523623,0.516271,-0.969559,32.9375,3,20038,2049482
102,0.483497,0.507699,9.8472,0.790598,-0.115396,0.946887,0.0047494,0.00505087,0.0984776,1,0.000118299,-0.000449633,-0.000294481,0.0236597,-0.0899267,-0.0588962,0,0,0,0,0.0466553,0.518198,-0.965449,32.9375,3,20041,2049782
103,0.665923,-0.620574,10.7339,1.14895,-1.08135,1.79605,0.00655987,-0.00610698,0.107351,1,-0.000473095,-0.000450639,-0.00021239,-0.0946189,-0.0901278,-0.0424781,0,0,0,0,0.0485717,0.51867,-0.965447,32.9375,3,20044,2050082
104,0.401925,0.0135115,9.67193,0.879266,-0.66369,0.892435,0.00406233,9.67E-05,0.0967175,1,0.000189366,0.00022245,-0.000221653,0.0378733,0.04449,-0.0443307,0,0,0,0,0.0481195,0.519134,-0.96392,32.9375,3,20048,2050482
105,-0.762061,-0.260135,8.71766,-0.287769,-0.947309,-0.145236,-0.00754736,-0.00260733,0.0871827,1,5.22E-05,0.000426238,-0.000205713,0.0104366,0.0852477,-0.0411425,0,0,0,0,0.049514,0.520604,-0.964904,32.9375,3,20051,2050782
106,-1.29769,0.100508,9.19144,-0.772194,-0.430999,0.352922,-0.0128761,0.00103026,0.0919283,1,-0.000106026,0.000545834,-0.000219876,-0.0212053,0.109167,-0.0439751,0,0,0,0,0.0528533,0.52156,-0.965403,32.9375,3,20054,2051082
107,-0.31949,0.374322,10.1974,0.262735,-0.378101,1.3746,-0.0032593,0.0036787,0.101974,1,0.000326582,-0.000327552,-0.000323791,0.0653165,-0.0655104,-0.0647582,0,0,0,0,0.0479505,0.530823,-0.962649,32.9375,3,20058,2051482
108,-0.0980079,1.37643,11.0881,0.418228,0.671641,2.29596,-0.00106033,0.0136139,0.110899,1,0.000682077,-0.000409658,-0.00038735,0.136415,-0.0819316,-0.0774699,0,0,0,0,0.0456763,0.530265,-0.9576,32.9375,3,20061,2051782
109,-1.39723,-0.585971,8.8926,-1.06058,-1.11936,-0.095084,-0.013941,-0.00575795,0.0889376,1,-0.000543864,0.000187716,-0.000180201,-0.108773,0.0375433,-0.0360401,0,0,0,0,0.0471367,0.532168,-0.955545,32.9375,3,20064,2052082
110,1.1031,-0.73894,10.9795,1.30295,-1.47466,2.32085,0.0107867,-0.0073775,0.10982,0.999999,-9.10E-05,-0.00108778,-0.000370114,-0.018193,-0.217556,-0.0740228,0,0,0,0,0.0443781,0.534026,-0.948925,32.9375,3,20068,2052482
111,0.637323,-1.81433,10.4359,1.34205,-2.79404,1.75014,0.00637484,-0.018048,0.104375,1,-0.000472199,5.24E-05,-0.000257812,-0.0944398,0.0104762,-0.0515625,0,0,0,0,0.0419501,0.54129,-0.944712,32.9375,3,20071,2052782
112,-0.905562,-0.643175,9.54004,-0.536608,-1.4525,0.749219,-0.00911784,-0.00655666,0.0953859,1,0.000683025,-0.000305828,-0.000297555,0.136605,-0.0611657,-0.0595111,0,0,0,0,0.0391099,0.545135,-0.940068,32.9375,3,20074,2053082
113,-0.0914979,0.225108,10.3146,0.397315,-0.681198,1.69879,-0.00104512,0.00217944,0.103146,1,0.000350431,-0.000637908,-0.000328775,0.0700862,-0.127582,-0.065755,0,0,0,0,0.0386203,0.544182,-0.941097,32.9375,3,20078,2053482
114,-0.27031,-1.09642,9.15003,0.0710255,-2.00299,0.521845,-0.00278438,-0.0110384,0.091489,1,0.000416011,-0.000401926,-0.00035128,0.0832023,-0.0803851,-0.070256,0,0,0,0,0.0381533,0.549958,-0.93642,32.9375,3,20081,2053782
115,-0.58955,-0.611527,10.1883,-0.0906899,-1.23803,1.49759,-0.00591192,-0.00611323,0.101882,1,2.57E-06,-6.75E-05,-0.000217552,0.000513563,-0.0135041,-0.0435104,0,0,0,0,0.0348723,0.551368,-0.931828,32.9375,3,20084,2054082
116,-0.424518,1.16686,9.38309,-0.0723352,0.48658,0.212462,-0.00422006,0.0115929,0.0938414,1,0.000416262,9.96E-05,-0.000276876,0.0832524,0.0199165,-0.0553753,0,0,0,0,0.0335158,0.552762,-0.927246,32.9375,3,20088,2054482
117,0.0553333,0.31229,10.4567,0.411545,-0.358742,1.64513,0.000493573,0.00311857,0.104568,1,1.92E-05,-0.000294652,-0.000298323,0.00384036,-0.0589304,-0.0596647,0,0,0,0,0.0298272,0.552677,-0.920665,32.9375,3,20091,2054782
118,0.017587,-0.269522,10.0907,0.458466,-0.978946,1.27659,0.000168976,-0.00272034,0.100906,1,0.000123989,-2.67E-05,-0.000277391,0.0247979,-0.0053427,-0.0554782,0,0,0,0,0.0269575,0.554616,-0.918588,32.9375,3,20094,2055082
119,0.247016,-0.00589985,9.84724,0.98421,-0.858085,1.11009,0.00243338,-0.000334311,0.0984728,0.999999,0.0013877,-0.000185925,-0.000409975,0.277541,-0.0371851,-0.0819951,0,0,0,0,0.0280095,0.552133,-0.916628,32.9375,3,20098,2055482
120,-0.650533,0.146668,9.44078,-0.139898,-0.464754,0.691223,-0.00654342,0.00144981,0.0944055,1,9.74E-05,-0.00020352,-0.000117107,0.0194867,-0.040704,-0.0234213,0,0,0,0,0.0261016,0.552619,-0.915598,32.9375,3,20101,2055782
121,-1.26464,0.250011,10.1101,-0.951784,-0.408609,1.37805,-0.0127496,0.00248889,0.101088,1,6.31E-05,-0.000511875,-6.00E-05,0.0126133,-0.102375,-0.0120018,0,0,0,0,0.0252091,0.552094,-0.91308,32.9375,3,20104,2056082
122,-1.12214,-0.346434,10.1498,-0.840263,-1.29076,1.27387,-0.0113537,-0.00365667,0.101477,0.999999,0.000964715,-0.000646486,-0.000154228,0.192943,-0.129297,-0.0308456,0,0,0,0,0.028288,0.548556,-0.907618,32.9375,3,20108,2056482
123,-0.750007,-0.586804,10.046,-0.329221,-1.35137,1.07552,-0.00750938,-0.00595359,0.100454,1,0.000424084,-4.77E-05,2.31E-05,0.0848167,-0.0095408,0.00461354,0,0,0,0,0.0274287,0.548971,-0.903059,32.9375,3,20111,2056782
124,-0.849743,-0.891452,9.55067,-0.288601,-1.53566,0.704171,-0.00841029,-0.00883681,0.0955217,1,-0.000426388,0.000435625,0.000220947,-0.0852775,0.087125,0.0441893,0,0,0,0,0.0280242,0.546474,-0.900087,32.9375,3,20114,2057082
125,-1.69477,1.03525,9.51185,-1.06078,0.450126,0.82869,-0.0168703,0.0103724,0.0951301,1,-0.000112148,0.000411663,4.15E-05,-0.0224295,0.0823327,0.00829338,0,0,0,0,0.0300593,0.544932,-0.896595,32.9375,3,20118,2057482
126,-0.265439,0.0201856,10.0278,0.272746,-0.674312,1.22858,-0.00276739,0.000294624,0.100275,1,-0.000464954,-0.000563222,8.86E-05,-0.0929908,-0.112644,0.0177216,0,0,0,0,0.0335671,0.545283,-0.890543,32.9375,3,20121,2057782
127,-0.585826,0.897335,10.1884,-0.0719006,-0.00514869,1.35002,-0.00591535,0.00873902,0.101901,0.999999,0.00115353,-0.000285614,-6.28E-05,0.230707,-0.0571229,-0.0125587,0,0,0,0,0.0346399,0.543749,-0.887046,32.9375,3,20124,2058082
128,-0.49358,-0.560939,9.83192,0.0245403,-1.25983,1.15595,-0.00493229,-0.00556804,0.0983217,1,-0.000216859,1.04E-05,0.000131151,-0.0433718,0.00208307,0.0262302,0,0,0,0,0.0382046,0.542131,-0.880028,32.9375,3,20128,2058482
129,0.0932616,0.736331,10.2859,0.949986,0.0750313,1.19168,0.000855703,0.00716959,0.102874,0.999999,0.00094093,-0.000379337,-7.77E-05,0.188186,-0.0758674,-0.015539,0,0,0,0,0.0407463,0.543457,-0.873444,32.9375,3,20131,2058782
130,-1.71133,-0.706132,9.22417,-1.34909,-1.27621,0.153824,-0.0170744,-0.0069676,0.0922561,1,-0.000540554,0.000197563,0.000175928,-0.108111,0.0395126,0.0351855,0,0,0,0,0.0455954,0.546281,-0.869869,32.9375,3,20134,2059082
131,-2.34585,1.0424,8.47396,-2.30662,0.726549,-0.945619,-0.0234834,0.0104473,0.0847298,1,-0.000163,-0.000135548,9.38E-05,-0.0325999,-0.0271096,0.0187618,0,0,0,0,0.048206,0.544184,-0.862856,32.9375,3,20138,2059482
132,-2.62661,0.112947,8.12717,-2.10929,-0.346793,-1.13246,-0.0261478,0.00117733,0.0813092,1,-0.000349688,0.000730454,0.000171659,-0.0699375,0.146091,0.0343318,0,0,0,0,0.0529892,0.546573,-0.86232,32.9375,3,20141,2059782
133,-0.62737,0.265637,10.2406,-0.174662,-0.545704,1.39354,-0.00629087,0.00262106,0.102406,1,0.000165949,-8.11E-05,0.000105158,0.0331898,-0.0162269,0.0210317,0,0,0,0,0.0550944,0.545943,-0.855273,32.9375,3,20144,2060082
134,-0.160726,0.729703,9.99353,0.501253,0.0721394,1.23126,-0.00159702,0.00732846,0.0999332,1,-0.0001586,5.76E-05,8.64E-05,-0.03172,0.0115156,0.01728,0,0,0,0,0.0604042,0.54926,-0.852194,32.9375,3,20148,2060482
135,0.148563,-0.611293,10.6305,0.505534,-1.27982,2.15525,0.0013956,-0.00599109,0.106313,1,-0.000571989,-0.000428019,8.05E-05,-0.114398,-0.0856038,0.0161078,0,0,0,0,0.0644135,0.54911,-0.84565,32.9375,3,20151,2060782
136,-0.910864,0.0417323,10.2783,-0.587338,-0.703759,1.75008,-0.00920209,0.000346046,0.102775,1,0.000344007,-0.000454515,3.08E-05,0.0688015,-0.090903,0.00615336,0,0,0,0,0.0687768,0.550014,-0.843629,32.9375,3,20154,2061082
137,-0.990719,0.00193846,9.36503,-0.651183,-0.569947,0.176817,-0.00993263,0.000142331,0.0936475,1,-0.000682849,-0.000135603,0.000249507,-0.13657,-0.0271205,0.0499014,0,0,0,0,0.0703108,0.550418,-0.839587,32.9375,3,20158,2061482
138,-1.20196,0.0597846,9.4377,-0.678236,-0.576298,0.592148,-0.0119763,0.000672326,0.094382,1,-0.000414011,0.00023012,0.000152897,-0.0828022,0.046024,0.0305794,0,0,0,0,0.074637,0.551348,-0.839081,32.9375,3,20161,2061782
139,-0.946116,0.0765332,9.56363,-0.540367,-0.50969,0.871706,-0.00943847,0.000816599,0.0956381,1,-0.000279774,0.000119615,0.000118875,-0.0559549,0.0239231,0.023775,0,0,0,0,0.0780988,0.549324,-0.836617,32.9375,3,20164,2062082
140,-0.59377,0.170983,9.25665,-0.279815,-0.558356,0.403981,-0.0059524,0.00174678,0.0925649,1,-0.000205266,-7.77E-05,8.89E-05,-0.0410533,-0.0155498,0.0177898,0,0,0,0,0.0786777,0.546357,-0.834665,32.9375,3,20167,2062382
141,-0.912288,-0.225547,9.2704,-0.492522,-0.971683,0.227849,-0.00912319,-0.00227419,0.0927036,1,9.43E-05,-3.35E-06,6.73E-05,0.0188691,-0.000669658,0.0134526,0,0,0,0,0.0833864,0.547356,-0.8382,32.9375,3,20171,2062782
142,-0.800108,0.908237,8.87057,-0.321249,0.0169779,0.16797,-0.00797486,0.00885469,0.0887311,0.999999,0.00128992,0.00014019,-7.51E-05,0.257984,0.028038,-0.015018,0,0,0,0,0.0848905,0.544408,-0.837768,32.9375,3,20174,2063082
143,-1.16573,0.773608,10.1372,-0.797301,0.404365,1.23362,-0.0115927,0.00797643,0.10136,0.999999,-0.00121844,0.000340874,0.000286797,-0.243689,0.0681749,0.0573593,0,0,0,0,0.0901448,0.541501,-0.841392,32.9375,3,20178,2063482
144,0.235132,-0.583491,10.5071,0.469022,-1.46499,1.54439,0.00230152,-0.00593812,0.105067,1,0.000492139,-0.000239439,4.42E-05,0.0984279,-0.0478877,0.00883659,0,0,0,0,0.0902341,0.537581,-0.840469,32.9375,3,20181,2063782
145,-1.11132,-1.00862,9.70425,-0.709978,-1.71286,0.610099,-0.0111336,-0.0101509,0.0970334,1,0.000327983,-0.000110404,5.00E-05,0.0655965,-0.0220809,0.0099913,0,0,0,0,0.0954804,0.535161,-0.844083,32.9375,3,20184,2064082
146,-1.86459,0.411527,9.81461,-1.36446,-0.273444,1.03707,-0.0186007,0.00414468,0.0981534,1,-0.000165597,0.000234208,8.31E-05,-0.0331195,0.0468415,0.0166219,0,0,0,0,0.101171,0.532764,-0.849213,32.9375,3,20188,2064482
147,-0.477414,-0.641193,11.1846,-0.0102462,-1.37172,2.1553,-0.00481362,-0.00637513,0.111846,1,-0.000167663,-0.000180694,7.31E-05,-0.0335327,-0.0361388,0.0146219,0,0,0,0,0.0992853,0.526006,-0.852385,32.9375,3,20191,2064782
148,-1.39735,0.00678694,9.44173,-1.18829,-0.922444,0.58855,-0.0140816,-8.26E-05,0.0944013,1,0.000804146,-0.000572317,-5.05E-05,0.160829,-0.114463,-0.0101093,0,0,0,0,0.104573,0.525483,-0.852926,32.9375,3,20194,2065082
149,-0.681224,-0.126392,9.58288,-0.154761,-0.631744,0.457223,-0.00676124,-0.00116511,0.0958337,1,-0.000527744,0.000263915,0.000172167,-0.105549,0.0527829,0.0344333,0,0,0,0,0.105534,0.519694,-0.8571,32.9375,3,20198,2065482
150,-1.36169,0.130795,9.49735,-0.854315,-0.602523,0.719281,-0.0135484,0.00129803,0.0949835,1,3.49E-05,0.000362431,0.000121195,0.00697756,0.0724861,0.024239,0,0,0,0,0.107346,0.516868,-0.863737,32.9375,3,20201,2065782
151,-0.891517,0.271501,10.6482,-0.50465,-0.380085,1.58514,-0.00891932,0.00273774,0.106482,1,-0.000108686,-1.89E-05,2.35E-05,-0.0217371,-0.00377136,0.00470676,0,0,0,0,0.110294,0.513909,-0.863311,32.9375,3,20204,2066082
152,-0.205026,0.0850044,9.71263,0.419297,-0.60023,0.997103,-0.00209075,0.000701996,0.0971266,1,0.000762267,-0.000208473,-5.91E-06,0.152453,-0.0416946,-0.00118199,0,0,0,0,0.111675,0.512496,-0.866884,32.9375,3,20208,2066482
153,-1.31595,0.254992,9.74366,-0.993398,-0.507105,0.945145,-0.0132501,0.00243762,0.0974272,1,0.000569032,-0.000463768,5.36E-05,0.113806,-0.0927535,0.0107255,0,0,0,0,0.115046,0.508611,-0.869511,32.9375,3,20211,2066782
154,-2.11252,1.10428,8.96367,-1.52308,0.340984,0.37638,-0.0210737,0.0110303,0.0896504,1,4.28E-05,0.000301223,0.000114522,0.00855159,0.0602446,0.0229044,0,0,0,0,0.115003,0.505269,-0.873626,32.9375,3,20214,2067082
155,0.231421,-0.822813,10.6474,0.531671,-1.41947,1.81051,0.00220565,-0.00811273,0.106486,1,-0.000539212,-0.000519564,0.000127671,-0.107842,-0.103913,0.0255341,0,0,0,0,0.117417,0.503316,-0.87469,32.9375,3,20218,2067482
156,-0.30478,-0.061125,10.2202,-0.0388115,-0.842136,1.42201,-0.00307629,-0.000619721,0.102201,1,3.89E-05,-0.000139888,8.34E-05,0.00778889,-0.0279777,0.0166714,0,0,0,0,0.115949,0.503346,-0.875693,32.9375,3,20221,2067782
157,-0.0371858,-1.25224,10.0365,0.320766,-2.01925,1.10524,-0.000389325,-0.0125584,0.100361,1,0.00017903,-9.05E-05,2.82E-05,0.0358061,-0.0181087,0.00564523,0,0,0,0,0.115814,0.506336,-0.879162,32.9375,3,20224,2068082
158,-1.50593,0.377699,9.73681,-1.08484,-0.36931,0.647679,-0.0149907,0.00368894,0.0973821,1,0.000437268,0.000356179,9.60E-05,0.0874536,0.0712358,0.0192099,0,0,0,0,0.117292,0.500516,-0.881823,32.9375,3,20228,2068482
159,-1.43001,0.101702,9.72795,-1.06776,-0.648481,1.113,-0.0143755,0.000955915,0.097269,1,0.000306334,-0.000387242,5.25E-05,0.0612667,-0.0774484,0.0104972,0,0,0,0,0.117186,0.502521,-0.884808,32.9375,3,20231,2068782
160,-0.898208,-0.531365,10.2,-0.515025,-1.29077,1.11969,-0.00897893,-0.00535358,0.101998,1,0.000182264,7.46E-06,0.000152969,0.0364529,0.00149181,0.0305938,0,0,0,0,0.115763,0.500591,-0.88535,32.9375,3,20234,2069082
161,-0.0814842,0.0387998,10.0759,0.337292,-0.784282,1.44316,-0.000752265,0.000351216,0.10076,1,0.00018191,0.000310815,7.86E-05,0.0363819,0.0621631,0.0157264,0,0,0,0,0.116177,0.498708,-0.889434,32.9375,3,20238,2069482
162,-0.279955,0.14872,9.08933,0.00201442,-0.777368,0.0687721,-0.00287005,0.00131647,0.0908938,0.999999,0.000942813,-0.000389603,-0.00011577,0.188563,-0.0779206,-0.023154,0,0,0,0,0.114792,0.501086,-0.885334,32.9375,3,20241,2069782
163,-0.724933,0.721585,9.20513,-0.401277,-0.166682,0.109969,-0.00719076,0.00707801,0.0920666,1,0.000751729,0.000315111,-3.86E-05,0.150346,0.0630221,-0.0077119,0,0,0,0,0.111362,0.499714,-0.888884,32.9375,3,20244,2070082
164,-1.10913,-0.297711,10.1146,-0.702869,-0.818357,1.35157,-0.0111177,-0.00287738,0.101146,1,-0.000503527,-0.000132905,9.60E-05,-0.100705,-0.026581,0.0192028,0,0,0,0,0.1142,0.501172,-0.889875,32.9375,3,20248,2070482
165,-1.16765,-1.2919,9.21303,-0.891253,-1.99641,0.0987601,-0.0116749,-0.0129134,0.0921312,1,-4.52E-05,-7.56E-06,0.00011372,-0.00903975,-0.00151112,0.022744,0,0,0,0,0.114167,0.501677,-0.890874,32.9375,3,20251,2070782
166,-0.247,0.297647,9.84401,0.375899,-0.571053,1.46744,-0.00241949,0.00289657,0.0984437,1,0.000404971,0.000257598,3.47E-05,0.0809942,0.0515196,0.00694393,0,0,0,0,0.108842,0.502227,-0.891847,32.9375,3,20254,2071082
167,1.03075,0.193425,10.9173,1.49446,-0.301353,2.00824,0.0102255,0.00207114,0.109178,1,-0.000622024,-0.000374735,5.17E-05,-0.124405,-0.074947,0.0103462,0,0,0,0,0.106057,0.496877,-0.891448,32.9375,3,20258,2071482
168,-0.737092,-0.11713,9.60398,-0.192078,-0.70857,0.964883,-0.00739196,-0.00103926,0.0960397,1,-0.000696376,-0.000110859,0.000116558,-0.139275,-0.0221718,0.0233115,0,0,0,0,0.106933,0.498377,-0.893944,32.9375,3,20261,2071782
169,-1.52648,-0.495738,8.85848,-0.813475,-1.24361,0.166181,-0.0151534,-0.00494126,0.0886048,1,-0.000106487,0.000623216,9.03E-05,-0.0212974,0.124643,0.0180595,0,0,0,0,0.102127,0.500341,-0.892363,32.9375,3,20264,2072082
170,-0.741162,-0.0484002,10.2214,-0.245686,-0.855913,1.37033,-0.00746537,-0.000561928,0.10221,1,0.000380324,-0.000262997,1.20E-05,0.0760649,-0.0525993,0.00239677,0,0,0,0,0.1016,0.499415,-0.894907,32.9375,3,20268,2072482
171,-0.0702293,-0.504363,10.5802,0.309205,-1.15564,1.84952,-0.000791831,-0.00495725,0.105806,1,-0.000408886,-0.000427815,9.91E-05,-0.0817772,-0.085563,0.019821,0,0,0,0,0.0987495,0.496521,-0.895463,32.9375,3,20271,2072782
172,0.0430068,0.318124,9.95391,0.470474,-0.358497,1.05624,0.000401358,0.00322825,0.0995377,1,-0.000236089,-0.000144044,5.34E-06,-0.0472177,-0.0288088,0.00106892,0,0,0,0,0.0948873,0.493672,-0.898034,32.9375,3,20274,2073082
173,0.205008,0.176646,10.5037,0.670086,-0.36644,1.54039,0.00202877,0.0018665,0.105036,1,-0.000477407,-0.000102525,-6.12E-05,-0.0954814,-0.020505,-0.0122322,0,0,0,0,0.0920741,0.492196,-0.896033,32.9375,3,20278,2073482
174,0.708698,-0.555218,9.90328,1.10554,-1.24522,1.05136,0.00708136,-0.0054785,0.0990373,1,-0.000377213,-2.43E-05,-7.26E-05,-0.0754426,-0.00486387,-0.0145286,0,0,0,0,0.0872867,0.489328,-0.897085,32.9375,3,20281,2073782
175,-0.135054,0.463232,9.64054,0.589087,-0.387636,0.989022,-0.00128371,0.00458888,0.0964084,1,0.000227472,0.000338911,-0.000161112,0.0454943,0.0677822,-0.0322224,0,0,0,0,0.0857395,0.486042,-0.903717,32.9375,3,20284,2074082
176,-1.47626,-0.268922,9.304,-1.16653,-0.858337,0.378216,-0.0147848,-0.00257577,0.0930398,1,-0.000597924,-0.000117159,-7.41E-05,-0.119585,-0.0234318,-0.0148228,0,0,0,0,0.0843152,0.481222,-0.906343,32.9375,3,20288,2074482
177,-0.549441,0.117269,9.92943,0.00877769,-0.654265,0.819412,-0.00543616,0.00114681,0.0992979,1,0.000137535,0.000291765,-0.000131754,0.0275069,0.058353,-0.0263508,0,0,0,0,0.0857125,0.478834,-0.909938,32.9375,3,20291,2074782
178,-0.808452,0.427555,9.84499,-0.559416,-0.190202,0.694556,-0.00809568,0.00418196,0.098453,1,0.000491501,-6.51E-05,-0.000196668,0.0983003,-0.0130289,-0.0393336,0,0,0,0,0.0843304,0.477356,-0.908449,32.9375,3,20294,2075082
179,-0.884344,-0.666163,9.26381,-0.426311,-1.25117,0.205826,-0.00883099,-0.00657447,0.0926455,1,-0.000463101,7.27E-05,-7.71E-05,-0.0926203,0.0145404,-0.0154239,0,0,0,0,0.0809944,0.473987,-0.909518,32.9375,3,20298,2075482
180,-0.346576,-0.251976,10.4935,0.019433,-0.943306,1.35395,-0.00343393,-0.00249185,0.104937,1,-0.000130876,0.000153176,-6.45E-05,-0.0261752,0.0306353,-0.0128974,0,0,0,0,0.0795786,0.470124,-0.911113,32.9375,3,20301,2075782
181,-0.627424,0.693613,10.1172,-0.245211,0.0155113,0.956962,-0.00620337,0.00693113,0.101177,1,3.47E-05,0.000339101,-0.000162312,0.00694468,0.0678203,-0.0324624,0,0,0,0,0.0757696,0.466272,-0.912191,32.9375,3,20304,2076082
182,-0.212999,-1.16916,8.88386,-0.0273347,-2.02407,-0.164627,-0.00212658,-0.011791,0.0888255,1,0.000564491,4.54E-05,-0.000198186,0.112898,0.00908559,-0.0396372,0,0,0,0,0.0738451,0.466288,-0.912182,32.9375,3,20308,2076482
183,-0.962937,0.462714,9.76861,-0.392242,-0.0799287,0.620023,-0.00958238,0.0046913,0.0976876,1,-0.000314545,0.000233736,-0.000141078,-0.062909,0.0467472,-0.0282156,0,0,0,0,0.0737872,0.465367,-0.915232,32.9375,3,20311,2076782
184,0.160864,0.164028,10.1477,0.745641,-0.542663,1.3993,0.00150938,0.00167763,0.101478,1,-0.000187166,-0.000492434,-0.000204332,-0.0374332,-0.0984867,-0.0408663,0,0,0,0,0.0733312,0.466798,-0.913178,32.9375,3,20314,2077082
185,0.0329591,-0.189787,9.71747,0.375133,-0.947436,0.815946,0.000239662,-0.0019959,0.097173,1,0.000503683,-0.000457752,-0.000247867,0.100737,-0.0915505,-0.0495735,0,0,0,0,0.0690709,0.466301,-0.910644,32.9375,3,20318,2077482
186,0.226383,1.01413,10.3892,0.628066,0.205452,0.99019,0.00220413,0.0101015,0.103897,1,0.000187054,-0.000306569,-0.000197612,0.0374107,-0.0613138,-0.0395223,0,0,0,0,0.0700042,0.465832,-0.912174,32.9375,3,20321,2077782
187,-0.720181,0.022603,9.87222,-0.193056,-0.753264,0.964395,-0.00718607,0.000187425,0.0987234,1,0.000212921,7.92E-05,-0.000238775,0.0425842,0.0158499,-0.0477551,0,0,0,0,0.0647665,0.46921,-0.907529,32.9375,3,20324,2078082
188,-0.830984,-0.305979,9.80085,-0.527049,-1.3098,0.829875,-0.00830325,-0.00323251,0.0980035,0.999999,0.000912213,4.54E-05,-0.000366489,0.182443,0.00907812,-0.0732977,0,0,0,0,0.0647422,0.470673,-0.907497,32.9375,3,20328,2078482
189,-1.36142,-0.18804,9.78502,-0.923687,-0.907457,0.736179,-0.0135748,-0.00185827,0.0978561,1,-8.46E-05,0.00020498,-0.00020509,-0.0169151,0.0409959,-0.041018,0,0,0,0,0.0652404,0.472584,-0.905436,32.9375,3,20331,2078782
190,-0.37119,-0.0318628,10.1484,-0.0146389,-1.15488,1.15889,-0.00384693,-0.000480117,0.101478,0.999999,0.000806478,-0.000664152,-0.00029044,0.161296,-0.13283,-0.0580881,0,0,0,0,0.0604174,0.474078,-0.904876,32.9375,3,20334,2079082
191,-0.635187,-0.585746,9.37965,-0.213281,-1.19131,0.678842,-0.00646319,-0.00577304,0.0937942,1,-0.00044029,-0.000584623,-0.000142013,-0.0880581,-0.116925,-0.0284026,0,0,0,0,0.0575928,0.475502,-0.901296,32.9375,3,20338,2079482
192,-0.316524,-1.19343,10.218,0.215149,-1.74627,1.1957,-0.00315694,-0.0117315,0.102204,0.999999,-0.000992042,4.07E-05,-4.20E-07,-0.198408,0.00813756,-8.40E-05,0,0,0,0,0.0543279,0.475937,-0.896725,32.9375,3,20341,2079782
193,0.207706,-0.797641,9.8786,0.547937,-1.48799,0.869124,0.00207007,-0.00786803,0.0987948,1,-0.000549358,-3.24E-05,-3.67E-05,-0.109872,-0.00648698,-0.00733251,0,0,0,0,0.0514816,0.473522,-0.896766,32.9375,3,20344,2080082
194,-0.164479,-0.885709,10.4918,0.260572,-1.8642,1.24661,-0.00163335,-0.00902314,0.104904,1,0.000792009,5.81E-05,-4.17E-05,0.158402,0.0116201,-0.00833329,0,0,0,0,0.0490551,0.472594,-0.898291,32.9375,3,20348,2080482
195,-1.33404,-1.11659,10.3865,-1.07624,-1.61882,1.49422,-0.0134507,-0.0109597,0.103873,0.999999,-0.00100982,-0.000545338,0.000135311,-0.201963,-0.109068,0.0270622,0,0,0,0,0.0499884,0.472125,-0.899821,32.9375,3,20351,2080782
196,-0.682849,-0.839288,10.0761,-0.12868,-1.61827,1.49924,-0.0067533,-0.00841414,0.100765,1,9.88E-05,0.000364769,9.98E-05,0.0197554,0.0729538,0.0199681,0,0,0,0,0.0509251,0.469244,-0.902919,32.9375,3,20354,2081082
197,0.13063,0.980225,9.65691,0.555187,0.145719,0.49462,0.00129391,0.00960141,0.0965894,0.999999,0.00104006,-6.23E-05,1.86E-05,0.208011,-0.0124576,0.00372739,0,0,0,0,0.0490647,0.463913,-0.904039,32.9375,3,20358,2081482
198,-1.61694,0.192721,8.71582,-1.24309,-0.583461,-0.313706,-0.0161736,0.00185341,0.087159,1,0.000408953,-2.25E-05,7.75E-05,0.0817905,-0.0045049,0.0154927,0,0,0,0,0.0486529,0.461939,-0.902566,32.9375,3,20361,2081782
199,0.76298,-0.261225,10.3267,1.15381,-1.02004,0.793643,0.00767224,-0.0025889,0.103264,1,-0.00010252,0.000201887,0.000142075,-0.020504,0.0403774,0.028415,0,0,0,0,0.0467479,0.458568,-0.904147,32.9375,3,20364,2082082
200,0.0866658,0.69707,9.96152,0.716304,-0.0331043,1.18712,0.000806251,0.00718649,0.0996004,0.999999,-0.00108157,-0.000289237,0.000196856,-0.216314,-0.0578473,0.0393712,0,0,0,0,0.0486553,0.456636,-0.906219,32.9375,3,20368,2082482
201,-1.06784,-0.00632582,10.2965,-0.656924,-0.796006,1.2514,-0.0107233,-8.74E-05,0.10296,1,0.000107831,-0.000218211,9.27E-05,0.0215661,-0.0436421,0.0185359,0,0,0,0,0.0486957,0.454198,-0.906274,32.9375,3,20372,2082882
202,-0.012707,0.051296,10.516,0.782433,-1.15435,2.18729,-6.25E-05,0.000309038,0.105161,0.999999,0.000969555,0.000306919,1.77E-05,0.193911,0.0613838,0.00354845,0,0,0,0,0.0477045,0.453745,-0.907794,32.9375,3,20374,2083082
203,-0.836101,-0.498396,9.41575,-0.384793,-1.38651,0.704948,-0.00831646,-0.00512166,0.0941541,1,0.000732707,0.00023748,-1.64E-05,0.146541,0.0474961,-0.00328003,0,0,0,0,0.050604,0.455157,-0.906261,32.9375,3,20378,2083482
204,-0.923305,0.268334,9.71265,-0.26637,-0.245887,0.920133,-0.00911487,0.00282013,0.0971338,0.999999,-0.00072559,0.000614839,0.000226728,-0.145118,0.122968,0.0453457,0,0,0,0,0.0534537,0.45516,-0.90779,32.9375,3,20381,2083782
205,-1.18606,-0.942951,9.10846,-0.530043,-1.78306,0.428821,-0.0118151,-0.00933141,0.0911006,1,-0.000554387,0.00023733,0.000122908,-0.110878,0.0474659,0.0245816,0,0,0,0,0.0525208,0.457074,-0.905217,32.9375,3,20385,2084182
206,0.376342,-0.587793,9.7049,0.997212,-1.41519,0.665472,0.00378442,-0.00598936,0.0970414,1,0.000575485,0.000106029,3.55E-05,0.115097,0.0212057,0.0071031,0,0,0,0,0.0496797,0.458029,-0.902658,32.9375,3,20388,2084482
207,-0.551938,1.53972,9.42595,-0.154102,0.731325,0.385978,-0.00545004,0.0153277,0.0942749,1,0.000367562,0.000370766,1.84E-05,0.0735124,0.0741532,0.00368704,0,0,0,0,0.0492858,0.46086,-0.897037,32.9375,3,20391,2084782
208,0.149977,-1.09112,9.90816,0.496653,-1.79788,0.636578,0.00152418,-0.0107712,0.0990966,1,-0.000704989,0.000112827,9.47E-05,-0.140998,0.0225655,0.0189321,0,0,0,0,0.0497356,0.465698,-0.894912,32.9375,3,20395,2085182
209,-0.473128,-2.56565,10.5978,-0.197433,-3.23706,1.46039,-0.00478876,-0.0255612,0.105998,1,-0.000452803,-0.000287847,6.89E-05,-0.0905607,-0.0575694,0.0137823,0,0,0,0,0.0468137,0.47153,-0.892243,32.9375,3,20398,2085482
210,-1.76607,-0.594796,11.0821,-1.21082,-1.51728,1.94405,-0.0176755,-0.00583665,0.110824,1,-0.000537379,-7.83E-05,0.000220535,-0.107476,-0.0156602,0.044107,0,0,0,0,0.0497702,0.470973,-0.889744,32.9375,3,20401,2085782
211,-0.416897,-0.855189,10.703,0.402421,-2.00767,1.85677,-0.00432815,-0.00854236,0.107024,1,-4.50E-05,-0.000744559,1.16E-05,-0.00899635,-0.148912,0.00231122,0,0,0,0,0.0483367,0.476278,-0.885579,32.9375,3,20405,2086182
212,-0.52908,0.0679339,10.8235,0.0203032,-0.813744,1.84807,-0.00534812,0.000576536,0.108233,1,0.000476076,-0.000264937,-2.37E-05,0.0952152,-0.0529874,-0.00473968,0,0,0,0,0.0475145,0.476666,-0.879506,32.9375,3,20408,2086482
213,-1.23966,0.307469,9.42166,-0.745265,-0.668423,0.584285,-0.0123251,0.00291699,0.094231,1,0.000829011,0.000381748,5.96E-05,0.165802,0.0763496,0.0119205,0,0,0,0,0.0461821,0.476597,-0.874956,32.9375,3,20411,2086782
214,0.786917,1.24639,9.96937,1.32905,0.391052,1.18942,0.00787682,0.0124702,0.0996923,1,-2.79E-05,4.47E-05,5.08E-05,-0.00557187,0.00894316,0.010164,0,0,0,0,0.0434881,0.474553,-0.868423,32.9375,3,20415,2087182
215,0.94172,-0.323347,10.2677,1.37068,-1.25974,1.04519,0.0093383,-0.00348639,0.102676,0.999999,0.00121789,-0.000379298,-0.000150063,0.243578,-0.0758596,-0.0300126,0,0,0,0,0.045915,0.476926,-0.865856,32.9375,3,20418,2087482
216,-1.01519,-0.29849,9.32802,-0.561723,-1.33387,0.774894,-0.0101534,-0.00318675,0.0932733,0.999999,0.00108634,-6.27E-06,-3.98E-05,0.217268,-0.00125423,-0.0079575,0,0,0,0,0.0489692,0.473407,-0.861403,32.9375,3,20421,2087782
217,-1.83681,-0.283753,8.31688,-1.31636,-1.25342,-0.40749,-0.018223,-0.00286413,0.0831998,0.999999,0.000144655,0.0008695,6.90E-05,0.028931,0.1739,0.0138002,0,0,0,0,0.0533472,0.468999,-0.862531,32.9375,3,20425,2088182
218,-1.15386,0.0320504,9.27634,-0.66169,-0.572439,0.332524,-0.0115763,0.000307828,0.0927587,1,6.55E-05,-0.000203255,2.28E-05,0.0130958,-0.0406511,0.0045661,0,0,0,0,0.0566994,0.471392,-0.861483,32.9375,3,20428,2088482
219,-0.846539,-0.124728,9.63336,-0.246907,-0.810319,0.854501,-0.00846943,-0.00121394,0.0963337,1,-0.000185286,-2.28E-05,0.000139164,-0.0370573,-0.00455268,0.0278329,0,0,0,0,0.0635646,0.464977,-0.860647,32.9375,3,20431,2088782
220,-1.43866,-0.634513,8.84716,-0.93833,-1.63574,0.0106559,-0.014371,-0.00654398,0.0884596,0.999999,0.00113215,9.17E-05,-5.09E-05,0.226429,0.018348,-0.0101864,0,0,0,0,0.0684379,0.466337,-0.857104,32.9375,3,20435,2089182
221,0.0980002,1.02975,10.1953,0.817673,0.0840097,1.75292,0.000964785,0.0101513,0.101968,1,0.000717134,-7.67E-05,-2.10E-05,0.143427,-0.0153447,-0.00419605,0,0,0,0,0.0705669,0.462798,-0.851132,32.9375,3,20438,2089482
222,-0.0606048,-0.676549,10.2413,0.629842,-1.61721,1.63375,-0.000722762,-0.0068393,0.102407,1,0.000360484,-0.000568469,-2.06E-05,0.0720969,-0.113694,-0.00411286,0,0,0,0,0.0792109,0.463702,-0.851152,32.9375,3,20441,2089782
223,-0.724901,0.196916,8.41974,-0.220914,-0.500465,-0.534405,-0.00719462,0.00194948,0.0842025,1,0.00011296,0.000324006,4.50E-05,0.0225919,0.0648013,0.00899978,0,0,0,0,0.0845606,0.463134,-0.849169,32.9375,3,20445,2090182
224,-0.4639,0.50859,9.64973,0.120459,-0.0622754,0.794447,-0.00458863,0.00525091,0.0964909,0.999999,-0.000862991,0.000269942,0.000166178,-0.172598,0.0539885,0.0332355,0,0,0,0,0.0893722,0.464539,-0.84815,32.9375,3,20448,2090482
225,-1.0872,-0.134957,9.76845,-0.605837,-1.19885,0.688415,-0.010869,-0.00148523,0.0976829,1,0.000686096,1.45E-05,7.47E-05,0.137219,0.00289383,0.0149348,0,0,0,0,0.096569,0.466421,-0.847636,32.9375,3,20451,2090782
226,-1.32168,-0.426838,9.04601,-0.93855,-1.02638,0.000707865,-0.0132302,-0.00401481,0.0904697,0.999999,-0.00144486,-8.76E-05,0.000296469,-0.288972,-0.0175121,0.0592939,0,0,0,0,0.103815,0.466822,-0.846145,32.9375,3,20455,2091182
227,0.876909,-1.00134,11.3734,1.53554,-1.89893,2.72197,0.00872099,-0.0098542,0.113751,1,-0.000690147,-0.000222527,0.000127234,-0.138029,-0.0445055,0.0254468,0,0,0,0,0.108089,0.471646,-0.845048,32.9375,3,20458,2091482
228,-0.289044,-1.80421,10.6622,0.0170645,-2.91851,1.88094,-0.00297459,-0.0181981,0.106593,1,0.000730806,-0.000400074,3.18E-05,0.146161,-0.0800149,0.00636754,0,0,0,0,0.111037,0.471577,-0.842538,32.9375,3,20461,2091782
229,-1.22363,0.780163,8.33653,-0.657766,0.278714,-0.619037,-0.0121765,0.00800714,0.0833545,0.999999,-0.00126186,0.000377712,0.000199183,-0.252373,0.0755424,0.0398366,0,0,0,0,0.117649,0.471611,-0.847618,32.9375,3,20465,2092182
230,0.0430746,-0.994698,10.2164,0.695523,-1.84212,1.5487,0.000501794,-0.00989085,0.102169,1,-0.000274358,0.00034051,7.42E-05,-0.0548716,0.0681021,0.0148315,0,0,0,0,0.120577,0.470593,-0.846644,32.9375,3,20468,2092482
231,-1.84387,0.596107,9.99427,-1.47092,0.00579644,0.69654,-0.0184397,0.00603212,0.0999383,1,-0.000369283,-1.23E-07,7.51E-05,-0.0738567,-2.47E-05,0.015018,0,0,0,0,0.124384,0.468664,-0.849735,32.9375,3,20471,2092782
232,-0.401694,-1.02462,11.0383,0.130901,-2.07266,2.21867,-0.00410218,-0.0103777,0.110368,1,0.000596408,-0.000383879,-2.45E-05,0.119282,-0.0767758,-0.00490595,0,0,0,0,0.126666,0.467289,-0.855837,32.9375,3,20475,2093182
233,-1.03034,-0.613084,9.91872,-0.55175,-1.28575,0.785721,-0.0103753,-0.00601496,0.0991869,1,-0.000598398,-0.000370822,0.00013636,-0.11968,-0.0741643,0.027272,0,0,0,0,0.129034,0.465851,-0.858405,32.9375,3,20478,2093482
234,0.531026,-0.252383,10.5542,0.941975,-1.05875,1.10813,0.00534825,-0.00257791,0.105539,1,0.000262772,0.000176831,0.000129798,0.0525544,0.0353663,0.0259596,0,0,0,0,0.130105,0.459981,-0.858035,32.9375,3,20481,2093782
235,-1.22747,1.65734,10.8945,-0.88294,1.02223,1.66585,-0.0122996,0.0167213,0.108919,1,-0.000692924,-9.56E-05,0.000124475,-0.138585,-0.0191199,0.0248949,0,0,0,0,0.133443,0.455156,-0.862703,32.9375,3,20484,2094082
236,-0.392665,0.063492,9.93775,0.279848,-0.602335,1.23315,-0.00402163,0.000681581,0.0993734,1,-0.000236611,-0.000477587,4.60E-05,-0.0473222,-0.0955174,0.00919738,0,0,0,0,0.139145,0.451305,-0.868371,32.9375,3,20488,2094482
237,-1.56629,-0.194439,9.23379,-1.14784,-0.817621,0.208522,-0.015586,-0.00184073,0.092353,1,-0.000598883,0.000412161,0.000222429,-0.119777,0.0824322,0.0444857,0,0,0,0,0.143461,0.444052,-0.874108,32.9375,3,20491,2094782
238,-0.0294111,-0.859862,9.76736,0.827345,-1.80003,1.25161,-0.000226225,-0.00868835,0.0976658,1,0.000459155,0.000342279,5.93E-05,0.0918311,0.0684559,0.0118534,0,0,0,0,0.14582,0.441656,-0.877707,32.9375,3,20495,2095182
239,0.845082,-0.64367,11.5429,1.4537,-1.50956,2.509,0.00838531,-0.00642131,0.115435,1,-5.68E-05,-0.000291239,0.000134618,-0.0113672,-0.0582477,0.0269237,0,0,0,0,0.150141,0.439217,-0.879802,32.9375,3,20498,2095482
240,-1.82209,-0.795478,9.83658,-1.45897,-1.56776,0.577992,-0.0182045,-0.00798703,0.0983662,1,0.000141288,7.35E-05,0.000122059,0.0282577,0.0147044,0.0244117,0,0,0,0,0.154434,0.437763,-0.882379,32.9375,3,20501,2095782
241,-0.359432,-0.802803,10.5042,0.206531,-1.52807,1.84679,-0.00359348,-0.0079769,0.105046,1,-0.000247917,-6.10E-06,0.000132229,-0.0495835,-0.00121971,0.0264458,0,0,0,0,0.15392,0.436828,-0.884418,32.9375,3,20505,2096182
242,-1.27046,-0.2179,10.2827,-0.841471,-0.940644,1.35467,-0.0127198,-0.00209604,0.102827,1,-0.000424225,-7.74E-05,0.000168395,-0.0848451,-0.0154802,0.033679,0,0,0,0,0.160565,0.436356,-0.888499,32.9375,3,20508,2096482
243,-1.55381,-1.09421,8.81254,-1.32951,-2.08401,-0.660579,-0.0155109,-0.0110192,0.0881207,1,0.000417446,0.000140345,0.000111139,0.0834893,0.028069,0.0222277,0,0,0,0,0.16246,0.435879,-0.890034,32.9375,3,20511,2096782
244,-0.746657,-0.536995,9.87286,-0.171731,-1.27591,1.33541,-0.00744458,-0.00532378,0.0987327,1,-0.000243699,0.000104244,0.000131473,-0.0487398,0.0208488,0.0262946,0,0,0,0,0.163895,0.43491,-0.891072,32.9375,3,20515,2097182
245,-1.13997,0.596214,9.15816,-0.785688,-0.0191642,-0.231042,-0.0113557,0.00598739,0.0915855,1,-0.000143108,0.000243212,4.24E-05,-0.0286216,0.0486425,0.00847097,0,0,0,0,0.165187,0.438863,-0.894526,32.9375,3,20518,2097482
246,-1.23292,-0.386685,9.57702,-0.77552,-0.813556,0.494125,-0.0122544,-0.00360878,0.0957898,0.999999,-0.00138136,0.000379708,0.000266326,-0.276272,0.0759417,0.0532652,0,0,0,0,0.164266,0.439323,-0.892491,32.9375,3,20521,2097782
247,-0.837464,0.604525,9.99932,-0.50754,-0.0404966,1.00468,-0.00841224,0.0060718,0.0999885,1,-0.000137808,-0.00018437,6.01E-05,-0.0275617,-0.036874,0.012017,0,0,0,0,0.166549,0.439393,-0.897551,32.9375,3,20525,2098182
248,-0.0851289,-0.567262,10.4536,0.305829,-1.45645,1.30644,-0.000945188,-0.00570565,0.104533,1,0.000157874,-0.000449997,1.59E-05,0.0315748,-0.0899994,0.00318212,0,0,0,0,0.166048,0.441339,-0.897,32.9375,3,20528,2098482
249,-1.27105,0.492582,9.39392,-0.718695,-0.664552,0.70227,-0.0126745,0.00480537,0.0939503,1,0.000638983,0.000192553,1.51E-05,0.127797,0.0385106,0.0030278,0,0,0,0,0.165508,0.438976,-0.901091,32.9375,3,20531,2098782
250,-1.04394,-0.0086762,9.23174,-0.685761,-0.743116,-0.0485044,-0.0104338,-8.47E-05,0.092318,1,-1.97E-05,3.05E-05,7.70E-05,-0.00393856,0.00609123,0.0154063,0,0,0,0,0.164545,0.436094,-0.90317,32.9375,3,20535,2099182
251,-2.16972,0.365494,7.96979,-1.78582,-0.14205,-1.00479,-0.0216003,0.00380651,0.0797171,0.999999,-0.00100489,0.000617416,0.000199171,-0.200979,0.123483,0.0398342,0,0,0,0,0.165363,0.435227,-0.909759,32.9375,3,20538,2099482
252,-1.31622,-0.42321,7.7697,-1.01536,-1.21282,-0.790817,-0.0131757,-0.00417723,0.0776977,1,-0.000372024,-9.28E-05,0.000111594,-0.0744049,-0.0185624,0.0223188,0,0,0,0,0.163462,0.432335,-0.910825,32.9375,3,20541,2099782
253,-0.819093,0.389576,10.1254,-0.331603,-0.42018,1.05389,-0.00811914,0.00402523,0.101255,1,-0.000653713,0.000361473,0.000178617,-0.130743,0.0722946,0.0357235,0,0,0,0,0.163509,0.423627,-0.915059,33,3,20545,2100182
254,-2.51988,-0.544597,7.93183,-1.89979,-1.3477,-0.74415,-0.0251408,-0.00543196,0.0793377,1,-0.000115306,0.000359908,8.52E-05,-0.0230611,0.0719816,0.0170438,0,0,0,0,0.167222,0.423694,-0.92063,33,3,20548,2100482
255,-0.937708,0.329465,9.82743,-0.560012,-0.247287,0.612899,-0.00935753,0.00329283,0.0982762,1,6.99E-07,0.000102471,8.98E-05,0.000139857,0.0204942,0.0179541,0,0,0,0,0.167258,0.420777,-0.921201,33,3,20551,2100782
256,-1.74083,0.86091,8.06477,-1.39271,0.116964,-0.824761,-0.0173487,0.00859421,0.0806621,1,6.07E-05,0.000385027,0.000146969,0.0121379,0.0770055,0.0293937,0,0,0,0,0.169564,0.416493,-0.928377,33,3,20555,2101182
257,-0.544884,0.942433,9.31735,0.0320663,0.282932,0.980145,-0.0053861,0.00936284,0.0931833,1,0.00032522,0.000344874,8.17E-05,0.0650439,0.0689747,0.0163315,0,0,0,0,0.172005,0.41211,-0.930001,33,3,20558,2101482
258,-0.978954,0.269798,9.87477,-0.692857,-0.853029,1.00159,-0.00985024,0.00245859,0.0987479,0.999999,0.00121479,-0.000308001,-2.67E-05,0.242959,-0.0616002,-0.00534382,0,0,0,0,0.173436,0.410662,-0.931555,33,3,20561,2101782
259,0.122217,-0.143264,10.902,0.824453,-0.880044,2.31839,0.00120507,-0.00145603,0.10902,1,0.000107834,-7.91E-05,4.93E-05,0.0215668,-0.0158192,0.00985283,0,0,0,0,0.176852,0.409152,-0.930594,33,3,20565,2102182
260,-0.760505,-0.369483,10.8741,-0.550033,-1.1524,2.00822,-0.00771506,-0.00365854,0.108735,1,-0.00017033,-0.000507499,4.95E-05,-0.034066,-0.1015,0.0099056,0,0,0,0,0.176313,0.408235,-0.933643,33,3,20568,2102482
261,-1.33587,-0.502686,9.38859,-0.741961,-1.29396,0.812288,-0.0133491,-0.00483961,0.0938971,0.999999,-0.00102298,4.18E-05,0.000181594,-0.204596,0.00836755,0.0363189,0,0,0,0,0.178691,0.410645,-0.933095,33,3,20571,2102782
262,-1.06547,-1.06955,10.4919,-0.331632,-2.16727,1.98819,-0.0106129,-0.0108392,0.104909,1,0.000680722,0.000195324,4.17E-05,0.136144,0.0390648,0.00833886,0,0,0,0,0.181112,0.408204,-0.93417,33,3,20574,2103082
263,-1.00105,-0.341791,10.0531,-0.570786,-1.53435,1.07056,-0.0100479,-0.00358642,0.100522,1,0.00084636,-0.000183077,-8.21E-05,0.169272,-0.0366154,-0.0164114,0,0,0,0,0.181908,0.414582,-0.936558,33,3,20578,2103482
264,-0.54017,0.00354285,11.009,-0.117668,-0.882726,1.79036,-0.00540979,-8.31E-05,0.110089,1,0.000541498,-3.67E-05,-6.42E-05,0.1083,-0.00734815,-0.0128324,0,0,0,0,0.184921,0.412056,-0.933092,33,3,20581,2103782
265,-1.03771,-1.03865,9.66267,-0.442625,-1.97738,1.05912,-0.0104463,-0.0104601,0.0966113,1,0.000384686,-0.00035475,-3.22E-05,0.0769372,-0.07095,-0.00643345,0,0,0,0,0.18535,0.415945,-0.932503,33,3,20585,2104182
266,-1.04341,1.09903,9.58022,-0.559895,0.364826,0.685644,-0.0104382,0.0110856,0.0957908,1,-0.000512828,-5.17E-06,0.000142109,-0.102566,-0.00103473,0.0284218,0,0,0,0,0.186312,0.414492,-0.93355,33,3,20588,2104482
267,-0.349217,0.0957996,9.6256,-0.0367103,-0.492631,0.672044,-0.00354568,0.0010539,0.096253,1,-0.000500471,-0.000277312,6.29E-05,-0.100094,-0.0554624,0.0125757,0,0,0,0,0.185313,0.414527,-0.935059,33,3,20591,2104782
268,-0.359674,0.943229,9.76351,-0.0836,0.134697,0.8031,-0.00364502,0.0092854,0.0976474,1,0.000755128,-0.000254809,-7.87E-05,0.151026,-0.0509619,-0.015731,0,0,0,0,0.186217,0.415043,-0.937072,33,3,20595,2105182
266,-1.56414,0.724171,9.18558,-1.22406,-0.0687815,0.580569,-0.0156248,0.00710616,0.0918692,1,0.000740809,8.91E-05,-1.78E-05,0.148162,0.0178282,-0.00355232,0,0,0,0,0.186759,0.412103,-0.936635,33,3,20598,2105482
270,-0.624038,-0.329613,10.9997,0.0473075,-1.16853,2.08095,-0.00623235,-0.00310529,0.110003,1,-0.000881132,2.95E-05,0.000240692,-0.176226,0.00589375,0.0481383,0,0,0,0,0.188115,0.409264,-0.94226,33,3,20601,2105782
271,-0.67532,-0.0588281,10.0357,0.221581,-1.1391,1.35716,-0.00685677,-0.000567175,0.10035,1,-0.000113042,-0.000516721,0.000116272,-0.0226084,-0.103344,0.0232545,0,0,0,0,0.189574,0.405386,-0.944373,33,3,20605,2106182
272,-0.455208,0.475324,10.1688,0.102614,-0.400087,1.26555,-0.00460226,0.00472403,0.101687,1,0.000140467,-0.000243381,7.10E-05,0.0280935,-0.0486761,0.0142045,0,0,0,0,0.192879,0.402512,-0.948998,33,3,20608,2106482
273,-1.35463,1.58124,9.66306,-0.886011,0.655703,0.90989,-0.013521,0.0158258,0.0966319,1,-8.50E-05,0.000149131,0.000110651,-0.0170043,0.0298263,0.0221303,0,0,0,0,0.194353,0.396213,-0.952175,33,3,20611,2106782
274,-1.4784,0.28092,10.3878,-0.923619,-0.418621,1.39826,-0.0147553,0.00289697,0.10388,1,-0.000447481,0.000143294,0.000176099,-0.0894962,0.0286589,0.0352197,0,0,0,0,0.19863,0.395735,-0.954731,33,3,20614,2107082
275,-0.182677,-0.744125,10.3434,0.40267,-1.53389,1.6157,-0.00185557,-0.00742693,0.103435,1,-7.10E-05,-0.000146516,0.000101226,-0.0142077,-0.0293032,0.0202452,0,0,0,0,0.200084,0.389932,-0.958402,33,3,20618,2107482
276,-0.434723,-0.0460818,10.7734,0.147109,-0.972276,2.09313,-0.00445611,-0.000538151,0.107729,1,0.000357447,-0.00050547,3.59E-05,0.0714894,-0.101094,0.0071799,0,0,0,0,0.205321,0.386555,-0.963047,33,3,20621,2107782
277,-1.24766,-0.364869,10.1156,-0.968335,-1.04655,0.940775,-0.0125825,-0.00362708,0.101144,1,-0.000112085,-0.000524931,4.27E-05,-0.0224169,-0.104986,0.00853491,0,0,0,0,0.20875,0.382146,-0.963666,33,3,20624,2108082
278,-0.280047,-0.0124171,10.4419,0.178781,-0.818448,1.55687,-0.00288001,-0.000120696,0.104417,1,-1.86E-05,-0.000380923,7.26E-05,-0.00372307,-0.0761846,0.0145231,0,0,0,0,0.208642,0.381261,-0.968735,33,3,20628,2108482
279,-0.468195,-0.167773,11.26,-0.460282,-1.2792,2.25656,-0.00484457,-0.00181661,0.112591,0.999999,0.000620182,-0.000720884,-8.22E-05,0.124036,-0.144177,-0.0164322,0,0,0,0,0.211507,0.377398,-0.97237,33,3,20631,2108782
280,-0.475083,1.33135,10.5602,-0.00764998,0.568628,1.51167,-0.00481327,0.0131469,0.10562,1,0.000791301,-0.000302534,-5.53E-05,0.15826,-0.0605069,-0.0110683,0,0,0,0,0.212415,0.375502,-0.975952,33,3,20634,2109082
281,-0.523023,0.793121,9.53628,-0.144424,-0.115995,0.966672,-0.00525996,0.00777134,0.0953743,1,0.00084012,-0.000158791,-3.58E-05,0.168024,-0.0317582,-0.00716912,0,0,0,0,0.216195,0.377448,-0.977441,33,3,20638,2109482
282,-1.32971,0.101205,10.1035,-1.02646,-1.01095,1.3287,-0.0133587,0.000865318,0.101029,1,0.000735348,-0.000305374,-6.97E-05,0.14707,-0.0610749,-0.0139449,0,0,0,0,0.219582,0.374033,-0.979048,33,3,20641,2109782
283,-0.721869,0.218809,9.64981,-0.253197,-0.59445,0.823888,-0.00719845,0.00225159,0.0964982,1,-0.000341689,0.000108756,0.00016983,-0.0683378,0.0217512,0.033966,0,0,0,0,0.219989,0.374083,-0.982079,33,3,20645,2110182
284,-0.448752,-0.242712,9.65135,-0.0503249,-1.27265,0.883561,-0.00455072,-0.0025427,0.0965076,1,0.000599875,-0.000326808,-2.28E-05,0.119975,-0.0653617,-0.00455472,0,0,0,0,0.219463,0.374602,-0.98358,33,3,20648,2110482
285,-0.581804,0.287944,9.54971,-0.139229,-0.534728,0.738111,-0.00581475,0.00284872,0.0954983,1,0.000158806,1.82E-05,3.37E-05,0.0317612,0.0036441,0.00674779,0,0,0,0,0.220878,0.374129,-0.985112,33,3,20651,2110782
286,-1.09743,0.348047,8.68741,-0.575998,-0.472571,0.168164,-0.0108766,0.0034634,0.086887,1,9.04E-05,0.000564498,6.22E-05,0.0180794,0.1129,0.0124463,0,0,0,0,0.221754,0.375629,-0.987608,33,3,20655,2111182
287,-0.777211,-0.667566,9.81582,-0.388585,-1.70029,0.856762,-0.00770357,-0.006784,0.0981562,1,0.000545066,0.000343211,8.63E-05,0.109013,0.0686422,0.0172668,0,0,0,0,0.221671,0.374726,-0.991669,33,3,20658,2111482
288,-1.50132,0.196113,8.76758,-1.01993,-0.623634,0.180104,-0.0150482,0.00192998,0.0876705,1,0.000169657,-0.000198366,4.65E-05,0.0339314,-0.0396733,0.00930536,0,0,0,0,0.224069,0.376639,-0.990627,33,3,20661,2111782
289,-0.65513,-1.17315,10.0491,-0.135947,-1.80833,1.04097,-0.0065858,-0.011495,0.100517,0.999999,-0.00119447,-0.000202791,0.000269741,-0.238894,-0.0405583,0.0539481,0,0,0,0,0.221154,0.376202,-0.992138,33,3,20664,2112082
290,-0.621406,0.330453,9.75576,-0.156173,-0.573245,0.977501,-0.00616295,0.00318977,0.0975647,1,0.000585173,0.000263498,4.76E-05,0.117035,0.0526995,0.00951462,0,0,0,0,0.221511,0.373398,-0.999273,33,3,20668,2112482
291,-0.971791,-0.335782,10.0949,-0.622775,-1.17248,1.08096,-0.00979928,-0.00323919,0.100945,1,-0.000601964,-0.000407896,0.000148897,-0.120393,-0.0815792,0.0297793,0,0,0,0,0.222888,0.372952,-1.00232,33,3,20671,2112782
292,-1.27319,-0.263239,10.1335,-0.864786,-1.33573,1.48968,-0.012793,-0.00275849,0.101324,1,0.000620323,-0.00030209,1.50E-05,0.124065,-0.060418,0.00299215,0,0,0,0,0.222814,0.373006,-1.00535,33,3,20674,2113082
293,-1.67961,-1.3598,8.86823,-1.23055,-2.26795,0.0276487,-0.0168009,-0.0136398,0.0886751,1,0.000218039,-4.11E-05,9.19E-05,0.0436077,-0.00822225,0.018375,0,0,0,0,0.222784,0.36821,-1.01,33,3,20678,2113482
294,-1.03337,0.352538,8.68577,-0.268578,-0.75893,0.270557,-0.0102586,0.00335692,0.0868733,0.999999,0.000965912,0.000433594,3.17E-05,0.193182,0.0867188,0.00634279,0,0,0,0,0.220299,0.36636,-1.01458,33,3,20681,2113782
295,-0.415188,-0.231569,10.3282,0.333348,-1.01349,1.81731,-0.00420089,-0.00230661,0.10328,1,-4.73E-05,-0.000239093,8.24E-05,-0.00945749,-0.0478187,0.0164791,0,0,0,0,0.219348,0.362023,-1.01719,33,3,20684,2114082
296,-1.31659,0.804707,9.10466,-0.874476,-0.0738066,0.519014,-0.0131406,0.00796491,0.0910574,1,0.000449947,0.00013976,8.58E-06,0.0899894,0.027952,0.001716,0,0,0,0,0.219272,0.356296,-1.02439,33,3,20688,2114482
297,-1.57505,0.97719,9.36681,-1.05744,0.273342,0.597223,-0.0157045,0.00989799,0.0936626,1,-0.000706335,0.00026627,0.0001979,-0.141267,0.0532539,0.03958,0,0,0,0,0.22215,0.353869,-1.02648,33,3,20691,2114782
298,-1.28137,-0.425242,9.76542,-0.782001,-1.34839,1.0024,-0.0128307,-0.00422106,0.0976533,1,-0.000163923,-8.80E-05,2.55E-05,-0.0327847,-0.0175919,0.00510005,0,0,0,0,0.222125,0.352442,-1.02853,33,3,20694,2115082
299,-1.31261,0.645814,8.67752,-1.04625,-0.283407,-0.133933,-0.0130554,0.00636095,0.086793,1,0.000549088,0.00041272,7.20E-05,0.109818,0.0825441,0.0143999,0,0,0,0,0.22201,0.352044,-1.03359,33,3,20698,2115482
300,-0.735431,-0.239723,9.90945,-0.0686852,-1.10688,1.2467,-0.00728461,-0.00240908,0.0990993,1,5.47E-05,0.00034997,6.82E-05,0.0109436,0.0699941,0.0136397,0,0,0,0,0.222135,0.345206,-1.03324,33,3,20701,2115782
301,-1.87797,0.0730837,8.57441,-1.33246,-0.828532,-0.160528,-0.0186936,0.000729517,0.085763,1,-1.01E-05,0.000502995,8.16E-05,-0.00202765,0.100599,0.0163261,0,0,0,0,0.223479,0.342376,-1.03937,33,3,20705,2116182
302,-1.24884,-0.50521,9.44566,-0.723266,-1.17022,0.575458,-0.0124295,-0.00493255,0.0944707,1,-0.000649164,0.000305124,0.000124196,-0.129833,0.0610247,0.0248392,0,0,0,0,0.226349,0.341882,-1.0404,33,3,20708,2116482
303,-1.12329,0.191551,9.72285,-0.648723,-0.545354,0.847685,-0.0112345,0.00198568,0.0972269,1,-0.000370637,-6.45E-06,8.46E-05,-0.0741273,-0.00129097,0.0169262,0,0,0,0,0.227176,0.343419,-1.04492,33,3,20711,2116782
304,-0.582536,-0.490181,11.1749,-0.120054,-1.40297,2.48409,-0.00588513,-0.00485252,0.111748,1,-0.000223941,-0.000270254,6.53E-05,-0.0447883,-0.0540507,0.0130596,0,0,0,0,0.225757,0.341967,-1.04494,33,3,20714,2117082
305,-1.41658,0.37609,9.31108,-0.944184,-0.418,0.475736,-0.014151,0.00371647,0.0931149,1,0.000230305,8.17E-05,5.43E-05,0.0460609,0.0163341,0.0108658,0,0,0,0,0.225748,0.339565,-1.04702,33,3,20718,2117482
306,-0.845253,0.63221,9.89836,-0.469229,-0.191668,1.31339,-0.00854327,0.0063605,0.0989734,1,-0.000198406,-0.000455108,5.14E-05,-0.0396812,-0.0910217,0.0102819,0,0,0,0,0.229047,0.34296,-1.04746,33,3,20721,2117782
307,-1.43726,-0.844521,10.2471,-0.945246,-1.63537,1.56652,-0.0143164,-0.00823373,0.102496,0.999999,-0.00105423,0.000261381,0.000160336,-0.210846,0.0522763,0.0320673,0,0,0,0,0.227093,0.342515,-1.04898,33,3,20724,2118082
308,-0.346716,-0.13494,10.1258,0.320258,-1.07393,1.61706,-0.00346725,-0.00145504,0.101257,1,0.000520679,-7.98E-07,2.75E-05,0.104136,-0.000159668,0.00550426,0,0,0,0,0.227065,0.3435,-1.04946,33,3,20728,2118482
309,-1.341,0.840715,8.73189,-0.935709,0.0479265,-0.120306,-0.0134355,0.00843687,0.0873121,1,-0.000179686,-0.000139527,6.18E-05,-0.0359371,-0.0279055,0.012369,0,0,0,0,0.229951,0.34203,-1.05052,33,3,20731,2118782
310,-1.01053,-0.0982926,9.52867,-0.494321,-0.917681,0.894836,-0.0101026,-0.000943474,0.0952874,1,-0.000216437,1.35E-05,8.89E-05,-0.0432874,0.00270721,0.0177738,0,0,0,0,0.227382,0.346025,-1.05446,33,3,20734,2119082
311,-0.826347,0.0976248,10.1494,-0.335318,-0.790238,1.4038,-0.00835606,0.000954996,0.101487,1,0.000102626,-0.000455948,2.54E-05,0.0205252,-0.0911895,0.00507151,0,0,0,0,0.226918,0.346498,-1.05343,33,3,20738,2119482
312,-0.886696,-0.659444,10.3064,-0.216347,-1.50382,1.65466,-0.00891269,-0.00653728,0.103064,1,-0.000280917,-0.000224507,4.17E-05,-0.0561835,-0.0449015,0.00834853,0,0,0,0,0.22916,0.349008,-1.05844,33,3,20741,2119782
313,-0.667565,-0.617741,10.0535,-0.170598,-1.5384,1.54267,-0.0067558,-0.00617825,0.10053,1,1.88E-06,-0.000400779,3.45E-05,0.000375848,-0.0801557,0.00690788,0,0,0,0,0.226779,0.349009,-1.05742,33,3,20744,2120082
314,-1.23269,0.49858,9.81909,-0.747987,-0.325456,0.995816,-0.0122939,0.00500199,0.0981942,1,-9.80E-05,0.000174108,0.000123773,-0.0195966,0.0348216,0.0247546,0,0,0,0,0.223838,0.347145,-1.06098,33,3,20748,2120482
315,-1.2883,-0.186654,9.1286,-0.856757,-0.961988,0.263121,-0.0128867,-0.00181993,0.0912864,1,-0.000270659,-2.26E-05,0.000109009,-0.0541319,-0.00451487,0.0218018,0,0,0,0,0.226684,0.34956,-1.06094,33,3,20751,2120782
316,-1.36236,0.0681411,9.42779,-0.818718,-0.787947,0.68836,-0.0135774,0.000687435,0.0942845,1,-4.41E-05,0.00024588,8.45E-05,-0.00882702,0.0491761,0.0168988,0,0,0,0,0.222774,0.349637,-1.06344,33,3,20754,2121082
317,-1.19494,-0.818128,11.0985,-0.657356,-1.62137,2.3595,-0.0120168,-0.00807875,0.110986,1,-0.000472028,-0.000310486,9.39E-05,-0.0944056,-0.0620971,0.0187731,0,0,0,0,0.221676,0.35119,-1.06795,33,3,20758,2121482
318,-1.25506,-0.607927,10.3596,-0.587685,-1.50848,1.54656,-0.0125349,-0.00604825,0.1036,1,-0.000157271,7.23E-05,6.23E-05,-0.0314543,0.0144556,0.0124663,0,0,0,0,0.223633,0.349223,-1.068,33,3,20761,2121782
319,-1.29656,-0.3522,10.3372,-0.776118,-1.25994,1.28622,-0.0129759,-0.00359213,0.103369,1,0.00033905,-4.94E-05,1.57E-06,0.0678099,-0.00988902,0.000313355,0,0,0,0,0.220186,0.347381,-1.07257,33,3,20764,2122082
320,-0.399519,-0.148299,10.2095,0.218578,-1.07501,1.55744,-0.00407076,-0.00154626,0.102091,1,0.000310819,-0.000369743,-2.45E-05,0.0621639,-0.0739486,-0.00490121,0,0,0,0,0.220174,0.34739,-1.07308,33,3,20768,2122482
321,-0.91492,-0.661158,10.3469,-0.340691,-1.59114,1.70644,-0.00922193,-0.0066241,0.103462,1,6.18E-05,-0.000350585,-1.42E-05,0.0123567,-0.070117,-0.00284979,0,0,0,0,0.216238,0.34604,-1.07764,33,3,20771,2122782
322,-0.913851,-0.616564,10.0137,-0.31684,-1.66075,1.20638,-0.00923382,-0.00625464,0.100123,1,0.000448984,-0.000472835,-4.97E-05,0.0897969,-0.094567,-0.00994464,0,0,0,0,0.217652,0.344122,-1.08021,33,3,20774,2123082
323,-0.515625,0.525463,9.75866,-0.0382804,-0.374924,1.18455,-0.00515613,0.00522813,0.0975881,1,0.00013426,2.16E-06,2.85E-05,0.026852,0.000432337,0.00569989,0,0,0,0,0.21432,0.339787,-1.08181,33,3,20778,2123482
324,-0.375555,-0.0872994,10.1639,0.135225,-1.02052,1.22155,-0.00383202,-0.000987512,0.101635,1,0.000563364,-0.000376236,1.63E-07,0.112673,-0.0752472,3.26E-05,0,0,0,0,0.215195,0.338397,-1.08639,33,3,20781,2123782
325,-1.37323,-0.77461,9.73513,-0.743709,-1.84623,1.02484,-0.0137543,-0.00782516,0.0973419,1,0.000403969,-0.000114509,1.50E-05,0.0807938,-0.0229019,0.00299141,0,0,0,0,0.212826,0.336944,-1.0859,33,3,20784,2124082
326,-1.18759,0.706967,10.0664,-0.739647,-0.266963,1.63282,-0.0119314,0.00705323,0.100659,1,8.24E-05,-0.000276242,-6.41E-06,0.0164763,-0.0552485,-0.00128194,0,0,0,0,0.212188,0.334654,-1.09403,33,3,20788,2124482
327,-0.748155,-1.1785,10.3871,0.0504878,-2.11386,1.7279,-0.00755831,-0.0117537,0.103869,1,-0.000153149,-0.000372801,2.92E-05,-0.0306299,-0.0745603,0.00584376,0,0,0,0,0.212303,0.332161,-1.09106,33,3,20791,2124782
328,-0.419877,-0.258797,10.5012,-0.029326,-1.31965,1.8108,-0.0043311,-0.00268603,0.105004,1,0.000466951,-0.000630043,-1.55E-06,0.0933902,-0.126009,-0.000310734,0,0,0,0,0.211677,0.331306,-1.09764,33,3,20794,2125082
329,-0.746589,0.100506,9.8697,-0.119809,-0.816788,1.28983,-0.00751801,0.000946587,0.0986936,1,0.00030013,-0.000264568,-5.12E-05,0.060026,-0.0529137,-0.0102354,0,0,0,0,0.210776,0.328379,-1.0972,33,3,20798,2125482
330,-0.882418,-0.700367,10.1937,-0.266585,-1.74686,1.51718,-0.00888298,-0.00708497,0.101926,1,0.000399224,-0.000288076,-5.04E-06,0.0798449,-0.0576152,-0.00100828,0,0,0,0,0.211692,0.325995,-1.10079,33,3,20801,2125782
331,-1.65351,0.0206722,9.79984,-1.08834,-0.868903,0.930213,-0.0165556,0.000223452,0.0979949,1,-0.000100321,-0.000104491,8.86E-05,-0.0200642,-0.0208982,0.0177253,0,0,0,0,0.212206,0.325485,-1.09979,33,3,20804,2126082
332,-1.06644,-0.794525,10.0334,-0.495012,-1.7606,1.25792,-0.010718,-0.00798849,0.100324,1,0.000217156,-0.000266181,-1.56E-05,0.0434311,-0.0532363,-0.00312489,0,0,0,0,0.209733,0.320736,-1.10595,33,3,20808,2126482
333,-1.36705,-0.300735,9.37215,-0.827965,-1.23997,0.698683,-0.0136485,-0.00300347,0.0937249,1,-2.77E-05,0.000115477,4.84E-05,-0.00554533,0.0230953,0.00968856,0,0,0,0,0.212082,0.322685,-1.10692,33,3,20811,2126782
334,-0.379993,0.00987495,10.0536,0.37832,-1.02334,1.60572,-0.00377846,-3.26E-05,0.100537,1,0.000653167,0.000106786,6.51E-06,0.130634,0.0213571,0.00130125,0,0,0,0,0.205781,0.318916,-1.11153,33,3,20814,2127082
335,-0.929527,0.837276,9.23075,-0.339328,0.0859955,0.636881,-0.00925595,0.00843268,0.092306,1,-0.000329377,0.000217363,4.79E-05,-0.0658754,0.0434726,0.00957904,0,0,0,0,0.211036,0.320344,-1.11202,33,3,20818,2127482
336,-0.947453,-0.0273498,9.30818,-0.244659,-1.0263,0.912061,-0.00946434,-0.00031486,0.0930827,1,0.000219554,5.46E-05,2.58E-05,0.0439108,0.0109215,0.00516758,0,0,0,0,0.208231,0.316936,-1.11108,33,3,20821,2127782
337,-0.897657,0.279947,9.15374,-0.260112,-0.654647,0.534845,-0.00897529,0.00273935,0.0915393,1,0.000327429,7.26E-06,9.96E-06,0.0654858,0.00145125,0.00199253,0,0,0,0,0.20576,0.317967,-1.11306,33,3,20824,2128082
338,-1.40469,-0.311078,9.8901,-0.688807,-1.26701,1.41942,-0.0140992,-0.00309297,0.0988941,1,-0.000100216,-0.000266688,7.16E-05,-0.0200431,-0.0533377,0.0143175,0,0,0,0,0.207211,0.317468,-1.11308,33,3,20828,2128482
339,-1.77941,0.403661,9.44605,-1.27441,-0.480724,0.919473,-0.0177275,0.00410152,0.0944703,1,-0.000365471,0.000357565,0.000116473,-0.0730942,0.071513,0.0232946,0,0,0,0,0.20476,0.316557,-1.11561,33,3,20831,2128782
340,-1.25253,-0.0746378,9.18472,-0.582834,-0.918342,0.529782,-0.0124748,-0.000734381,0.0918541,1,-7.61E-05,0.00027403,7.92E-05,-0.0152184,0.0548059,0.0158491,0,0,0,0,0.206126,0.317566,-1.11812,33,3,20834,2129082
341,-1.18738,0.137053,9.87982,-0.553091,-0.773832,1.28243,-0.0118184,0.00142642,0.098804,1,-0.000297351,0.000282049,0.000121187,-0.0594701,0.0564098,0.0242375,0,0,0,0,0.204254,0.315134,-1.11766,33,3,20838,2129482
342,-1.43605,0.417481,9.8792,-0.867595,-0.534995,1.14409,-0.0143506,0.00420751,0.098792,1,-0.00017486,5.32E-05,6.43E-05,-0.034972,0.0106454,0.0128626,0,0,0,0,0.203723,0.315174,-1.11968,33,3,20841,2129782
343,-1.48931,-0.226406,9.7404,-0.774282,-1.06908,0.999497,-0.014861,-0.00218483,0.0974107,1,-0.000420727,0.000162479,9.18E-05,-0.0841454,0.0324958,0.0183668,0,0,0,0,0.203715,0.315662,-1.11967,33,3,20844,2130082
344,-1.02622,-0.231103,9.92144,-0.307524,-1.21079,1.38791,-0.0102973,-0.00234187,0.09921,1,0.000158928,-0.000176161,-3.38E-05,0.0317855,-0.0352321,-0.00676221,0,0,0,0,0.200788,0.318125,-1.1196,33,3,20848,2130482
345,-1.10491,0.0221216,9.86381,-0.403612,-0.969312,1.3189,-0.0111044,0.000182802,0.098632,1,0.000198867,-0.00028062,-3.69E-05,0.0397733,-0.0561241,-0.00737311,0,0,0,0,0.199377,0.316185,-1.11964,33,3,20851,2130782
346,-1.46826,-0.45421,9.50113,-0.742816,-1.48863,0.9338,-0.0146948,-0.00456736,0.0950082,1,0.000140494,-6.20E-05,-4.89E-05,0.0280988,-0.012403,-0.00978922,0,0,0,0,0.19689,0.318193,-1.1216,33,3,20854,2131082
347,-1.29855,0.0847636,9.57177,-0.585064,-0.809668,1.10842,-0.0129528,0.000887441,0.0957217,1,-0.000205295,0.000170464,-1.94E-05,-0.0410589,0.0340928,-0.00387994,0,0,0,0,0.196384,0.318215,-1.12261,33,3,20858,2131482
348,-0.816965,-0.150749,9.95573,-0.0856235,-1.08465,1.28534,-0.0081742,-0.00147077,0.0995575,1,-0.000183627,-2.27E-05,-9.62E-06,-0.0367253,-0.00454813,-0.00192412,0,0,0,0,0.195833,0.318751,-1.12512,33,3,20861,2131782
349,-1.15022,-0.163172,9.75108,-0.490757,-1.16318,0.991546,-0.0115199,-0.00162606,0.0975088,1,-2.40E-05,-8.97E-05,-4.24E-05,-0.00480837,-0.017932,-0.00848919,0,0,0,0,0.19441,0.318267,-1.12462,33,3,20864,2132082
350,-1.15506,-0.037586,9.78184,-0.435312,-0.974856,1.14306,-0.011547,-0.00036887,0.0978189,1,-2.90E-05,1.88E-05,-5.73E-05,-0.00579466,0.00375689,-0.0114502,0,0,0,0,0.192963,0.319245,-1.12409,33,3,20868,2132482
351,-1.05736,-0.386002,9.59864,-0.419166,-1.36132,0.813967,-0.0105999,-0.00386357,0.0959833,1,2.44E-05,-0.000134783,-5.36E-05,0.00488746,-0.0269566,-0.0107254,0,0,0,0,0.190048,0.320254,-1.12455,33,3,20871,2132782
352,-1.23174,0.0964377,9.6689,-0.5628,-0.976756,0.974952,-0.0123171,0.000914848,0.0966895,1,0.00026686,5.78E-07,-8.43E-05,0.053372,0.000115531,-0.0168509,0,0,0,0,0.188164,0.317831,-1.1246,33,3,20874,2133082
353,-1.02224,-0.146789,9.98745,-0.340923,-1.06259,1.24667,-0.010234,-0.00143367,0.0998738,1,-0.000166179,-5.75E-05,-5.01E-05,-0.0332359,-0.0115045,-0.0100265,0,0,0,0,0.187149,0.320287,-1.12505,33,3,20878,2133482
354,-1.26184,-0.338993,9.86203,-0.548896,-1.39083,1.03529,-0.0126353,-0.00341398,0.0986173,1,0.000128062,-8.40E-05,-4.79E-05,0.0256124,-0.0167961,-0.0095802,0,0,0,0,0.184662,0.322294,-1.12701,33,3,20881,2133782
355,-1.07199,0.244153,9.6921,-0.395228,-0.726646,0.951699,-0.0107065,0.00243508,0.0969226,1,3.66E-05,6.85E-05,-2.99E-05,0.00732384,0.0137036,-0.00597755,0,0,0,0,0.182701,0.323782,-1.12747,33,3,20884,2134082
356,-1.44008,-0.333769,9.54727,-0.663942,-1.38989,1.06244,-0.0143915,-0.00334243,0.0954739,1,2.72E-05,4.94E-05,-1.57E-05,0.00543695,0.00987073,-0.00313899,0,0,0,0,0.180377,0.32326,-1.12444,33,3,20888,2134482
357,-1.15162,-0.0788877,10.1763,-0.372286,-1.09269,1.49493,-0.0114914,-0.000810786,0.101766,1,0.000109288,0.000122257,-1.45E-05,0.0218576,0.0244514,-0.00290489,0,0,0,0,0.180307,0.323793,-1.12696,33,3,20891,2134782
358,-1.50889,-0.150667,9.68961,-0.80276,-1.24721,1.04041,-0.0151074,-0.00154843,0.0968926,1,0.000222914,-9.46E-05,-4.76E-05,0.0445828,-0.0189137,-0.00951451,0,0,0,0,0.178395,0.322355,-1.12748,33,3,20894,2135082
359,-1.35372,0.00737921,9.34938,-0.62692,-0.956282,0.804938,-0.013531,0.000109494,0.0934947,1,-0.000187606,3.33E-05,-2.30E-05,-0.0375212,0.00666127,-0.00459635,0,0,0,0,0.177955,0.322811,-1.12545,33,3,20898,2135482
360,-1.23161,-0.266325,9.61782,-0.441829,-1.27715,0.847967,-0.0122889,-0.00267871,0.0961812,1,8.53E-05,0.000142376,-3.89E-05,0.0170693,0.0284752,-0.00777099,0,0,0,0,0.174489,0.325801,-1.12739,33,3,20901,2135782
361,-0.981165,0.281948,9.87715,-0.243708,-0.667978,1.34984,-0.00981467,0.00282908,0.098771,1,-4.59E-05,-1.61E-05,-2.70E-05,-0.00918797,-0.00321799,-0.005396,0,0,0,0,0.173054,0.32388,-1.12844,33,3,20904,2136082
362,-0.896781,-0.163782,9.80793,-0.073993,-1.20466,1.18657,-0.00896919,-0.00166799,0.0980786,1,0.000157473,-6.36E-06,-4.00E-05,0.0314946,-0.00127232,-0.00800839,0,0,0,0,0.171157,0.321466,-1.12899,33,3,20908,2136482
363,-1.02419,0.208186,9.68416,-0.330322,-0.816434,0.99853,-0.0102632,0.0020596,0.0968398,1,0.000119371,-0.000110846,-4.19E-05,0.0238743,-0.0221693,-0.00837525,0,0,0,0,0.171178,0.322415,-1.12745,33,3,20911,2136782
364,-1.00978,-0.0344225,9.8318,-0.23244,-0.988771,1.21636,-0.0100952,-0.000331843,0.0983183,1,-6.12E-05,1.33E-05,-1.75E-05,-0.0122345,0.00265136,-0.00350471,0,0,0,0,0.16768,0.327357,-1.12934,33,3,20914,2137082
365,-0.887913,-0.0868383,9.75404,-0.161477,-1.13714,1.0151,-0.00890687,-0.000905897,0.0975376,1,0.000193622,-0.000142106,-1.45E-05,0.0387244,-0.0284212,-0.00289363,0,0,0,0,0.167762,0.32537,-1.12737,33,3,20918,2137482
366,-1.00002,-0.240689,9.79184,-0.219408,-1.17604,1.04964,-0.0100283,-0.00241654,0.0979153,1,5.10E-05,-0.000142961,-1.71E-05,0.0101987,-0.0285922,-0.00341483,0,0,0,0,0.165303,0.324947,-1.12989,33,3,20921,2137782
367,-1.05245,-0.11234,9.80764,-0.240562,-1.0935,1.0313,-0.0105147,-0.00113167,0.0980773,1,4.27E-05,4.99E-05,-5.08E-06,0.00854324,0.00997112,-0.00101699,0,0,0,0,0.162905,0.324479,-1.12989,33,3,20924,2138082
368,-1.22317,-0.199431,9.64295,-0.51547,-1.19109,0.907817,-0.0121812,-0.00196663,0.0964365,1,-0.000147578,0.000261249,3.18E-05,-0.0295155,0.0522499,0.00635304,0,0,0,0,0.162987,0.322492,-1.12791,33,3,20928,2138482
369,-0.935747,-0.0662963,9.86679,-0.225903,-1.04858,1.12925,-0.00931735,-0.000664155,0.0986717,1,5.12E-06,0.000203229,9.79E-06,0.00102329,0.0406458,0.00195739,0,0,0,0,0.162424,0.325928,-1.12885,33,3,20931,2138782
370,-1.1825,-0.0334163,9.79214,-0.453942,-1.06123,1.13585,-0.011802,-0.000354706,0.0979241,1,0.000107167,0.000117205,-1.88E-05,0.0214334,0.023441,-0.00376996,0,0,0,0,0.162461,0.324456,-1.12837,33,3,20934,2139082
371,-1.1168,-0.0218671,9.77924,-0.381054,-1.01091,1.05168,-0.0111935,-0.000222196,0.0977895,1,2.12E-05,-0.000130471,-2.82E-05,0.00424995,-0.0260941,-0.00564352,0,0,0,0,0.160451,0.32598,-1.13086,33,3,20938,2139482
372,-1.24297,-0.178698,9.69213,-0.449506,-1.16192,0.927311,-0.0124331,-0.00179762,0.0969207,1,5.68E-05,-1.76E-05,-1.50E-05,0.0113561,-0.00351214,-0.0029984,0,0,0,0,0.158603,0.322085,-1.13043,33,3,20941,2139782
373,-1.31691,0.025003,9.77873,-0.531724,-1.02173,1.0321,-0.0131582,0.000234087,0.0977888,1,8.13E-05,5.56E-05,1.51E-06,0.016263,0.011115,0.000301409,0,0,0,0,0.159998,0.325,-1.13037,33,3,20944,2140082
374,-1.29364,-0.192851,9.67196,-0.538266,-1.24301,0.97919,-0.0129382,-0.00193411,0.0967192,1,2.82E-05,-9.36E-06,5.78E-06,0.00563972,-0.00187229,0.00115557,0,0,0,0,0.155814,0.317701,-1.1295,33,3,20948,2140482
375,-1.22278,-0.083496,9.67876,-0.425716,-1.12272,1.0922,-0.0122145,-0.000859023,0.0967891,1,0.000125825,6.93E-05,-1.20E-05,0.025165,0.0138514,-0.00240125,0,0,0,0,0.153812,0.321628,-1.12991,33,3,20951,2140782
376,-1.04384,0.0767902,9.85303,-0.273282,-0.945989,1.12284,-0.0104354,0.000748908,0.0985307,1,9.66E-05,1.54E-05,-2.38E-06,0.0193279,0.00307903,-0.000476526,0,0,0,0,0.153299,0.325029,-1.12882,33,3,20954,2141082
377,-1.15734,-0.0899705,9.79437,-0.324014,-1.11447,1.16241,-0.0115799,-0.000905528,0.0979429,1,3.01E-05,-3.31E-05,-3.30E-06,0.00602344,-0.00661876,-0.000660967,0,0,0,0,0.155757,0.321116,-1.12943,33,3,20958,2141482
378,-1.23367,0.0239673,9.7522,-0.478601,-0.998452,1.04784,-0.0123542,0.000228747,0.0975198,1,5.72E-05,-9.00E-05,-8.97E-06,0.0114305,-0.0179969,-0.00179318,0,0,0,0,0.152308,0.324576,-1.13034,33,3,20961,2141782
379,-1.11212,-0.105018,9.74109,-0.370781,-1.12678,1.04695,-0.0111307,-0.00106255,0.0974097,1,6.29E-05,-4.89E-05,5.13E-06,0.0125848,-0.00978378,0.00102579,0,0,0,0,0.152386,0.32211,-1.12888,33,3,20964,2142082
380,-1.15055,0.0779458,9.67188,-0.379251,-0.944608,1.00081,-0.0114979,0.000772801,0.0967197,1,3.42E-05,3.94E-05,1.47E-06,0.00684786,0.00787448,0.000294575,0,0,0,0,0.150411,0.320717,-1.13194,33,3,20968,2142482
381,-1.14124,-0.129052,9.82656,-0.306323,-1.13971,1.17754,-0.0114188,-0.00128829,0.0982649,1,-1.45E-05,-3.29E-05,2.73E-05,-0.00289881,-0.00657793,0.00546539,0,0,0,0,0.149425,0.322188,-1.1319,33,3,20971,2142782
382,-1.20419,-0.0467627,9.74074,-0.367404,-1.07473,1.11613,-0.0120438,-0.000476911,0.0974071,1,4.72E-05,-9.89E-06,3.84E-06,0.00943649,-0.00197851,0.000768406,0,0,0,0,0.14936,0.324645,-1.13285,33,3,20974,2143082
383,-1.34236,-0.196873,9.81773,-0.503951,-1.24656,1.08324,-0.0134111,-0.00198063,0.0981787,1,5.96E-05,6.32E-05,7.10E-06,0.0119228,0.012649,0.00142045,0,0,0,0,0.150853,0.326042,-1.1298,33,3,20978,2143482
384,-1.31259,-0.0383823,9.76689,-0.46192,-1.09086,1.09689,-0.0131057,-0.000403749,0.0976716,1,9.98E-05,0.000103544,1.67E-05,0.0199523,0.0207089,0.00334081,0,0,0,0,0.147562,0.320714,-1.13041,33,3,20981,2143782
385,-1.30945,0.032021,9.78762,-0.483287,-0.990768,1.13807,-0.0130949,0.000322456,0.0978761,1,-1.32E-05,-1.69E-06,1.28E-05,-0.00263826,-0.000337169,0.00256373,0,0,0,0,0.150424,0.322153,-1.13039,33,3,20984,2144082
386,-1.23062,-0.149238,9.79639,-0.386493,-1.20149,1.11364,-0.0123047,-0.00150529,0.0979639,1,6.48E-05,7.74E-06,8.77E-06,0.012961,0.00154733,0.0017543,0,0,0,0,0.146151,0.32022,-1.1294,33,3,20988,2144482
387,-1.23023,-0.00199459,9.78568,-0.370068,-1.04365,1.11838,-0.0122881,-3.19E-05,0.0978586,1,6.09E-05,7.22E-05,2.24E-06,0.0121854,0.0144411,0.000448272,0,0,0,0,0.149959,0.321182,-1.13041,33,3,20991,2144782
388,-1.15482,0.023723,9.78898,-0.347264,-0.996021,1.10482,-0.0115647,0.000233093,0.0978879,1,1.84E-05,-8.43E-05,2.33E-05,0.00367612,-0.0168552,0.00465912,0,0,0,0,0.14901,0.322626,-1.12886,33,3,20994,2145082
389,-0.729181,-0.129756,9.74424,0.13425,-1.10358,1.04244,-0.00727909,-0.00130621,0.0974433,1,4.23E-05,6.49E-05,2.81E-05,0.00846043,0.0129785,0.00562398,0,0,0,0,0.147566,0.322638,-1.12885,33,3,20998,2145482
390,-1.01203,-0.0811329,9.75443,-0.173327,-1.07977,1.05509,-0.0101188,-0.000812566,0.0975444,1,3.51E-06,7.67E-06,2.73E-05,0.000702551,0.00153362,0.00545124,0,0,0,0,0.149503,0.322613,-1.12836,33,3,21001,2145782
391,-1.0443,-0.0110811,9.75764,-0.20441,-1.01641,1.07384,-0.0104431,-0.000113537,0.0975764,1,1.10E-05,-6.00E-07,2.77E-05,0.00220094,-0.000119956,0.00553206,0,0,0,0,0.148923,0.322689,-1.13239,33,3,21004,2146082
392,-0.838858,-0.051668,9.77832,0.00891298,-1.04002,1.07501,-0.00839553,-0.000524275,0.0977826,1,3.71E-05,-3.57E-05,1.98E-05,0.00742748,-0.00713132,0.00396372,0,0,0,0,0.149951,0.323115,-1.12936,33,3,21008,2146482
393,-0.711738,-0.0227473,9.77499,0.121912,-0.992198,1.06737,-0.00712187,-0.00022912,0.0977495,1,7.01E-06,-2.30E-05,1.94E-05,0.00140221,-0.00459475,0.00387506,0,0,0,0,0.150428,0.322632,-1.12987,33,3,21011,2146782
394,-0.732851,-0.0893246,9.77796,0.113115,-1.07093,1.04612,-0.00733404,-0.000909314,0.097779,1,8.09E-05,-2.84E-05,1.72E-05,0.0161752,-0.0056856,0.0034362,0,0,0,0,0.148472,0.324599,-1.12982,33,3,21014,2147082
395,-0.877495,-0.137423,9.7643,-0.0369864,-1.12145,1.05873,-0.00878472,-0.00136949,0.0976422,1,-2.60E-05,-5.03E-05,1.95E-05,-0.00520534,-0.0100574,0.00390847,0,0,0,0,0.148982,0.325056,-1.1283,33,3,21018,2147482
396,-0.986475,-0.0784121,9.76652,-0.130812,-1.09208,1.07214,-0.00986646,-0.0007946,0.097665,1,5.06E-05,-8.99E-06,2.99E-05,0.010125,-0.00179899,0.00598533,0,0,0,0,0.150816,0.326069,-1.13131,33,3,21021,2147782
397,-0.695936,-0.0706397,9.80056,0.179601,-1.04154,1.09764,-0.00695627,-0.000712655,0.0980058,1,2.97E-05,1.55E-05,3.12E-05,0.00594255,0.00309975,0.00623768,0,0,0,0,0.149939,0.323124,-1.12986,33,3,21024,2148082
398,-0.651928,-0.0193532,9.78715,0.202666,-1.00091,1.07185,-0.00652133,-0.000210708,0.0978713,1,8.58E-05,-1.05E-05,2.90E-05,0.0171628,-0.00210836,0.00580214,0,0,0,0,0.150342,0.32414,-1.13237,33,3,21028,2148482
399,-0.6223,-0.0258822,9.79027,0.241979,-0.999886,1.07509,-0.00621837,-0.000268175,0.0979029,1,4.68E-05,2.36E-05,1.55E-05,0.00935682,0.00471915,0.00309204,0,0,0,0,0.149018,0.322138,-1.12887,33,3,21031,2148782
400,-0.644886,-0.0624335,9.79961,0.228699,-1.04007,1.08191,-0.00644777,-0.000638813,0.0979961,1,7.24E-05,5.39E-06,2.21E-05,0.0144835,0.00107873,0.0044276,0,0,0,0,0.148813,0.325661,-1.13485,33,3,21034,2149082
401,-0.635503,-0.034063,9.79539,0.232679,-1.01972,1.0831,-0.00635675,-0.000354463,0.0979537,1,6.98E-05,-8.80E-06,1.30E-05,0.0139538,-0.00175994,0.00259399,0,0,0,0,0.151847,0.324083,-1.12985,33,3,21038,2149482
402,-0.774154,-0.0428517,9.80201,0.105787,-1.04268,1.09719,-0.00774209,-0.0004406,0.09802,1,6.01E-05,-2.88E-06,1.91E-05,0.012026,-0.000576692,0.0038114,0,0,0,0,0.149911,0.324108,-1.13034,33,3,21041,2149782
403,-0.80024,-0.0808064,9.76391,0.0730092,-1.08305,1.05519,-0.00801077,-0.000818033,0.0976383,1,5.07E-05,-4.29E-05,3.97E-06,0.0101444,-0.00858491,0.000793543,0,0,0,0,0.150339,0.325107,-1.13184,33,3,21044,2150082
404,-0.797795,-0.0703239,9.79041,0.0773358,-1.08709,1.06654,-0.00797806,-0.000714988,0.097904,1,5.83E-05,-7.17E-07,2.13E-05,0.0116535,-0.000143423,0.00426433,0,0,0,0,0.149976,0.321651,-1.12939,33,3,21048,2150482
405,-1.20265,-0.00372591,9.76087,-0.348736,-1.05518,1.03727,-0.0120348,-4.58E-05,0.0976077,1,4.05E-05,-4.27E-05,2.76E-05,0.0081003,-0.00853623,0.00551771,0,0,0,0,0.150812,0.325591,-1.13183,33,3,21051,2150782
406,-0.836185,-0.131331,9.76301,0.0567377,-1.12132,1.0593,-0.00836441,-0.00131741,0.0976298,1,1.91E-05,-1.34E-05,2.20E-05,0.00382364,-0.00268218,0.00439364,0,0,0,0,0.149462,0.323607,-1.12934,33,3,21054,2151082
407,-0.911746,-0.00938251,9.77306,-0.0386564,-1.042,1.07153,-0.00912199,-0.000106241,0.0977302,1,6.08E-05,-2.32E-05,2.91E-05,0.0121612,-0.00464769,0.0058229,0,0,0,0,0.150318,0.324158,-1.13338,33,3,21058,2151482
408,-0.779267,-0.0990439,9.79037,0.117299,-1.1081,1.08403,-0.007792,-0.000996535,0.0979037,1,2.90E-05,3.17E-06,2.63E-05,0.00580884,0.000634545,0.00525265,0,0,0,0,0.149903,0.324596,-1.13033,33,3,21061,2151782
409,-0.746013,-0.0968442,9.77321,0.135599,-1.10073,1.0492,-0.00746028,-0.000977597,0.097732,1,4.45E-05,-1.10E-06,3.06E-05,0.0089001,-0.000220432,0.00611991,0,0,0,0,0.150338,0.323662,-1.13288,33,3,21064,2152082
410,-0.826967,-0.05809,9.78496,0.0539627,-1.07843,1.08452,-0.00827437,-0.000587761,0.0978491,1,3.30E-05,-2.42E-05,2.45E-05,0.00659709,-0.00483171,0.0049014,0,0,0,0,0.150396,0.323138,-1.13087,33,3,21068,2152482
411,-0.771458,-0.0589735,9.78523,0.111072,-1.06773,1.06851,-0.00771396,-0.000597537,0.0978523,1,3.85E-05,3.04E-06,1.76E-05,0.00769495,0.00060762,0.003526,0,0,0,0,0.149951,0.321669,-1.1304,33,3,21071,2152782
412,-0.743942,-0.0633244,9.79041,0.162846,-1.0763,1.06216,-0.00742967,-0.000645913,0.0979047,1,6.24E-05,4.96E-05,2.97E-05,0.0124898,0.00991785,0.00593291,0,0,0,0,0.150346,0.323174,-1.13289,33,3,21074,2153082
413,-0.897403,0.000281438,9.77171,-0.0222687,-1.03309,1.0728,-0.00898064,-5.53E-06,0.0977165,1,4.08E-05,-3.38E-05,2.13E-05,0.00815061,-0.00676771,0.00426465,0,0,0,0,0.149931,0.322166,-1.13089,33,3,21078,2153482
414,-0.708381,-0.10517,9.78304,0.198344,-1.10654,1.07471,-0.0070806,-0.00106188,0.0978305,1,5.04E-05,1.62E-05,2.29E-05,0.0100709,0.00323358,0.00458477,0,0,0,0,0.14984,0.323196,-1.1339,33,3,21081,2153782
415,-0.926441,-0.0364721,9.76684,-0.0404948,-1.07603,1.07585,-0.00927023,-0.000375735,0.0976678,1,5.46E-05,-2.99E-05,1.92E-05,0.0109121,-0.00597099,0.00384065,0,0,0,0,0.151337,0.323627,-1.13137,33,3,21084,2154082
416,-0.595093,-0.11403,9.77205,0.305206,-1.11034,1.04545,-0.00595359,-0.00115052,0.0977203,1,5.10E-05,-1.38E-05,2.10E-05,0.0102028,-0.0027657,0.00420732,0,0,0,0,0.151324,0.320745,-1.13396,33,3,21088,2154482
417,-0.818094,-0.0418031,9.78499,0.0808121,-1.06037,1.07372,-0.0081729,-0.000428411,0.0978506,1,5.21E-05,4.11E-05,1.08E-05,0.0104279,0.00821388,0.00215162,0,0,0,0,0.151835,0.322647,-1.1314,33,3,21091,2154782
418,-0.908974,-0.0467048,9.78799,-0.00913935,-1.08463,1.09938,-0.00909405,-0.000473226,0.0978794,1,3.03E-05,-2.21E-05,1.32E-05,0.00606737,-0.00441785,0.00263708,0,0,0,0,0.150889,0.323125,-1.13037,33,3,21094,2155082
419,-0.740629,-0.0434583,9.7838,0.17198,-1.06515,1.07527,-0.00740532,-0.000446031,0.0978381,1,5.72E-05,4.86E-06,1.68E-05,0.0114471,0.000972631,0.00335273,0,0,0,0,0.151806,0.323632,-1.13188,33,3,21098,2155482
420,-0.768114,-0.0646075,9.79841,0.143175,-1.09153,1.08971,-0.0076815,-0.000657324,0.0979839,1,5.59E-05,-1.94E-06,1.89E-05,0.0111837,-0.000387667,0.00378593,0,0,0,0,0.149474,0.320707,-1.13092,33,3,21101,2155782
421,-0.784589,-0.0676997,9.7666,0.117548,-1.09518,1.04739,-0.00785052,-0.00068737,0.0976655,1,5.16E-05,-2.39E-05,1.92E-05,0.0103115,-0.00477029,0.00384274,0,0,0,0,0.149874,0.324135,-1.13186,33,3,21104,2156082
422,-0.934589,-0.0474249,9.78679,-0.0463132,-1.11076,1.08818,-0.00934878,-0.000484138,0.0978676,1,4.74E-05,-1.49E-05,3.23E-05,0.00948794,-0.00298772,0.00645218,0,0,0,0,0.151325,0.323636,-1.13188,33,3,21108,2156482
423,-0.971683,-0.0598429,9.79099,-0.071397,-1.11494,1.0868,-0.00971648,-0.000603207,0.0979099,1,2.20E-05,1.66E-06,2.40E-05,0.00440366,0.000331226,0.00480786,0,0,0,0,0.15325,0.32362,-1.13189,33,3,21111,2156782
424,-1.0062,-0.0686075,9.76098,-0.0969095,-1.13389,1.07183,-0.0100677,-0.000693974,0.0976092,1,3.79E-05,-2.90E-05,2.46E-05,0.00758506,-0.00580321,0.00492191,0,0,0,0,0.150901,0.323116,-1.12987,33,3,21114,2157082
425,-0.85616,-0.0328575,9.76299,0.0372871,-1.06643,1.04372,-0.00856796,-0.000329819,0.0976294,1,3.04E-06,-3.27E-05,3.80E-05,0.000607222,-0.00653267,0.00760592,0,0,0,0,0.150309,0.323201,-1.13441,33,3,21118,2157482
426,-0.913163,-0.0527523,9.79236,0.0016047,-1.11713,1.09672,-0.00913386,-0.0005273,0.0979234,1,-4.62E-06,-1.16E-05,3.73E-05,-0.000924314,-0.00232154,0.0074666,0,0,0,0,0.15179,0.323162,-1.1329,33,3,21121,2157782
427,-0.893421,-0.03495,9.75202,-0.00271617,-1.07728,1.05055,-0.0089401,-0.000347179,0.0975197,1,-1.60E-05,-3.04E-05,4.49E-05,-0.00320307,-0.00607595,0.00898016,0,0,0,0,0.148924,0.324134,-1.13135,33,3,21124,2158082
428,-1.02094,-0.137812,9.80803,-0.109266,-1.21305,1.11766,-0.0102188,-0.00138202,0.0980792,1,1.54E-05,-4.86E-05,4.36E-05,0.00307657,-0.0097103,0.00872273,0,0,0,0,0.152247,0.326066,-1.13183,33,3,21128,2158482
429,-0.552121,0.436726,9.80847,0.188025,-0.525417,1.1799,-0.00553548,0.00434918,0.0980847,1,9.20E-05,-7.26E-05,2.76E-06,0.0183978,-0.0145225,0.000551845,0,0,0,0,0.150926,0.323098,-1.12886,33,3,21131,2158782
430,-0.972677,0.664384,9.81583,-0.154104,-0.270578,1.18427,-0.00976339,0.00669202,0.0981514,1,-0.000248172,-0.000184693,2.77E-05,-0.0496343,-0.0369386,0.00554121,0,0,0,0,0.151297,0.32462,-1.13236,33,3,21134,2159082
431,-0.726139,-0.0514196,9.81564,0.116491,-1.10956,1.11434,-0.00728532,-0.0005429,0.0981545,1,0.000145463,-0.00012192,1.02E-05,0.0290926,-0.024384,0.00203956,0,0,0,0,0.150445,0.323102,-1.12885,33,3,21138,2159482
432,-0.624162,-0.125194,9.74402,0.262936,-1.11041,1.0195,-0.00624756,-0.00124203,0.0974399,1,-5.23E-05,-3.08E-05,2.20E-05,-0.0104516,-0.00615203,0.00439435,0,0,0,0,0.150338,0.323662,-1.13288,33,3,21141,2159782
433,-0.526956,-0.156951,9.74646,0.348175,-1.12706,1.01751,-0.00527272,-0.00156444,0.0974645,1,-2.67E-05,-1.64E-05,1.31E-05,-0.00534356,-0.00328717,0.00262485,0,0,0,0,0.150872,0.322655,-1.13139,33,3,21144,2160082
434,-0.827159,-0.0259986,9.77566,0.0665509,-1.04482,1.06094,-0.00825456,-0.000270491,0.097758,1,5.22E-05,8.71E-05,1.86E-05,0.0104319,0.0174138,0.00371698,0,0,0,0,0.152303,0.322652,-1.1319,33,3,21148,2160482
435,-0.922889,-0.236956,9.80317,-0.0138641,-1.27191,1.08367,-0.00924733,-0.00237657,0.0980298,1,3.47E-05,-9.44E-05,1.13E-05,0.00693633,-0.0188703,0.00225001,0,0,0,0,0.151856,0.323596,-1.12986,33,3,21151,2160782
436,-0.629383,-0.0996939,9.77182,0.250604,-1.11921,1.02981,-0.00631843,-0.00101686,0.0977165,1,0.000100632,-0.000126104,2.02E-05,0.0201265,-0.0252208,0.00404871,0,0,0,0,0.151321,0.323157,-1.13239,33,3,21154,2161082
437,-0.607224,-0.0712391,9.76637,0.28725,-1.0642,1.04434,-0.00606171,-0.000711753,0.0976643,1,-4.84E-06,5.37E-05,2.53E-05,-0.000967737,0.0107441,0.00506465,0,0,0,0,0.150853,0.324597,-1.13084,33,3,21158,2161482
438,-0.893467,-0.0646587,9.81652,0.0264239,-1.11986,1.13606,-0.0089268,-0.000656838,0.0981659,1,5.19E-05,4.00E-05,3.81E-06,0.0103726,0.0080087,0.000761422,0,0,0,0,0.150391,0.322659,-1.13139,33,3,21161,2161782
439,-1.05598,-0.0410763,9.8172,-0.147664,-1.11557,1.13084,-0.0105616,-0.000427594,0.0981717,1,8.21E-05,-9.28E-06,3.38E-05,0.016419,-0.00185625,0.00675209,0,0,0,0,0.151814,0.323144,-1.13189,33,3,21164,2162082
440,-0.737395,0.0414098,9.75609,0.143306,-0.964296,1.0288,-0.00739017,0.000421436,0.0975596,1,-4.06E-05,-8.29E-05,3.94E-05,-0.00811759,-0.0165881,0.00788473,0,0,0,0,0.151321,0.324602,-1.13135,33,3,21168,2162482
441,-0.681801,-0.12616,9.7362,0.226983,-1.13922,1.00477,-0.00681429,-0.00126689,0.0973622,1,2.44E-05,1.86E-05,4.04E-05,0.00487401,0.00371177,0.00808403,0,0,0,0,0.150811,0.324145,-1.13287,33,3,21171,2162782
442,-1.17799,0.00561882,9.74582,-0.30223,-1.05838,1.0926,-0.0117842,5.33E-05,0.0974577,1,1.26E-05,-2.20E-05,1.78E-05,0.00251346,-0.00440219,0.00356061,0,0,0,0,0.148924,0.32558,-1.13031,33,3,21174,2163082
443,-1.12526,-0.1041,9.75674,-0.223396,-1.1712,1.06756,-0.0112585,-0.00104734,0.0975666,1,2.92E-05,-3.02E-05,2.85E-05,0.00584056,-0.00603947,0.00570221,0,0,0,0,0.150791,0.326087,-1.13232,33,3,21177,2163382
444,-1.05812,-0.168699,9.75201,-0.151165,-1.24203,1.05443,-0.0105859,-0.0017038,0.0975193,1,8.61E-05,-2.44E-05,5.79E-07,0.0172239,-0.00487261,0.00011576,0,0,0,0,0.149438,0.32507,-1.12931,33,3,21181,2163782
445,-1.06286,-0.0156669,9.7496,-0.172902,-1.08534,1.05931,-0.0106346,-0.000168568,0.0974953,1,5.95E-05,-3.10E-05,1.37E-05,0.0119057,-0.00619927,0.00274624,0,0,0,0,0.14841,0.324644,-1.13235,33,3,21184,2164082
446,-1.01182,-0.121289,9.78469,-0.117418,-1.1923,1.08185,-0.0101272,-0.00122667,0.0978458,1,6.85E-05,-4.62E-05,1.88E-05,0.0137023,-0.00923134,0.00376841,0,0,0,0,0.151261,0.327538,-1.13179,33,3,21188,2164482
447,-0.966038,-0.0406929,9.77044,-0.0704457,-1.11827,1.06353,-0.00966115,-0.000422362,0.0977042,1,7.58E-05,-4.08E-06,3.23E-05,0.0151564,-0.000816729,0.00646397,0,0,0,0,0.151358,0.324575,-1.12984,33,3,21191,2164782
448,-0.763312,-0.093085,9.78591,0.135289,-1.14379,1.06535,-0.00763355,-0.000946687,0.0978589,1,7.91E-05,-2.38E-06,2.27E-05,0.0158295,-0.000475952,0.00454043,0,0,0,0,0.15082,0.325103,-1.13184,33,3,21194,2165082
449,-0.824052,-0.0720392,9.78684,0.0705909,-1.12233,1.08257,-0.00823804,-0.000723224,0.0978686,1,1.32E-05,1.26E-05,1.49E-05,0.00264236,0.00251457,0.00298432,0,0,0,0,0.150404,0.32265,-1.13088,33,3,21197,2165382
450,-0.775491,-0.033606,9.76513,0.12192,-1.07401,1.05694,-0.00775655,-0.000345718,0.0976511,1,4.76E-05,-8.49E-06,2.31E-05,0.00952441,-0.0016981,0.00461195,0,0,0,0,0.150832,0.323649,-1.13238,33,3,21201,2165782
451,-0.669707,-0.0806116,9.79356,0.215668,-1.121,1.07341,-0.00670553,-0.000814732,0.0979349,1,4.29E-05,-4.33E-05,1.53E-05,0.00858872,-0.00866829,0.00305516,0,0,0,0,0.149886,0.324126,-1.13135,33,3,21204,2166082
452,-0.693421,-0.0964378,9.78506,0.21358,-1.12767,1.05968,-0.00693029,-0.000966803,0.0978508,1,1.07E-05,1.98E-05,2.42E-05,0.00213608,0.00396826,0.00483425,0,0,0,0,0.150938,0.321643,-1.12939,33,3,21208,2166482
453,-0.706051,-0.0882585,9.77809,0.194466,-1.13292,1.05259,-0.00705924,-0.000892601,0.0977809,1,4.97E-05,6.30E-06,2.04E-05,0.00994912,0.00126098,0.00407327,0,0,0,0,0.151807,0.325077,-1.13084,33,3,21211,2166782
454,-0.746498,-0.10488,9.80231,0.149287,-1.15116,1.08195,-0.00746452,-0.00105503,0.0980231,1,3.14E-05,2.30E-06,5.05E-06,0.0062771,0.000459657,0.00100921,0,0,0,0,0.153298,0.322138,-1.13091,33,3,21214,2167082
455,-0.815576,-0.07037,9.74336,0.145819,-1.10554,1.09308,-0.00815274,-0.000705354,0.0974338,1,6.16E-06,1.53E-05,2.78E-05,0.00123209,0.00306019,0.00555945,0,0,0,0,0.151864,0.323108,-1.12987,33,3,21218,2167482
456,-0.625143,-0.262964,9.80387,0.266805,-1.27104,1.1063,-0.00625199,-0.00261115,0.0980392,1,-9.54E-05,-3.32E-06,1.71E-05,-0.0190806,-0.000664769,0.00342995,0,0,0,0,0.152394,0.323068,-1.12785,33,3,21221,2167782
457,-0.753272,-0.168718,9.76078,0.238653,-1.24301,1.11364,-0.00753676,-0.0017024,0.0976072,1,7.74E-05,-2.08E-05,7.06E-06,0.0154864,-0.00416415,0.00141298,0,0,0,0,0.152777,0.324581,-1.13085,33,3,21224,2168082
458,-0.641832,-0.177102,9.78132,0.269814,-1.23978,1.04687,-0.00641529,-0.00179075,0.097813,1,9.95E-05,1.51E-05,2.00E-05,0.0199094,0.00302304,0.00399284,0,0,0,0,0.151851,0.321672,-1.13142,33,3,21228,2168482
459,-0.688643,-0.101162,9.77922,0.233118,-1.17814,1.07521,-0.00688847,-0.00103578,0.0977918,1,0.000123536,-1.04E-05,-2.37E-07,0.0247072,-0.00207842,-4.74E-05,0,0,0,0,0.149861,0.324144,-1.13236,33,3,21231,2168782
460,-0.819245,-0.157875,9.75862,0.0541841,-1.23489,0.960293,-0.00819554,-0.00160102,0.0975856,1,0.000112757,-1.61E-05,1.59E-05,0.0225514,-0.00321641,0.00317035,0,0,0,0,0.15234,0.322625,-1.13039,33,3,21234,2169082
461,-0.868737,-0.0334056,9.78816,0.0177649,-1.11054,1.04499,-0.00869003,-0.000341382,0.0978813,1,3.54E-05,-1.36E-05,2.25E-05,0.007084,-0.00272684,0.00450465,0,0,0,0,0.149914,0.321697,-1.13191,33,3,21238,2169482
462,-0.848287,-0.150771,9.76564,0.0577344,-1.23505,1.05101,-0.00848407,-0.00151743,0.0976562,1,4.91E-05,-6.28E-06,7.60E-06,0.00982025,-0.00125649,0.00152,0,0,0,0,0.152813,0.321664,-1.13142,33,3,21241,2169782
463,-0.846752,0.0588524,9.75283,0.0395359,-1.08167,1.04598,-0.00846928,0.000539727,0.0975284,1,0.000249559,-9.00E-06,7.01E-06,0.0499118,-0.00179921,0.00140251,0,0,0,0,0.151847,0.321193,-1.13193,33,3,21244,2170082
464,-0.960085,-0.217417,9.76415,-0.0684219,-1.28422,1.01103,-0.00960454,-0.00216105,0.0976415,1,-6.96E-05,-1.94E-05,2.40E-05,-0.0139154,-0.00388802,0.00479145,0,0,0,0,0.153286,0.322147,-1.13141,33,3,21248,2170482
465,-0.96646,-0.10815,9.82826,-0.0650652,-1.2495,1.10494,-0.00967215,-0.00111175,0.0982815,1,0.000152165,-3.86E-05,1.74E-05,0.0304331,-0.00771813,0.00348166,0,0,0,0,0.151349,0.322172,-1.13191,33,3,21251,2170782
466,-0.907777,0.0618293,9.74078,-0.0483172,-1.04606,1.05915,-0.00908665,0.000600293,0.0974071,1,9.10E-05,-4.55E-05,1.52E-05,0.018197,-0.00909659,0.00303342,0,0,0,0,0.152279,0.32267,-1.13291,33,3,21254,2171082
467,-0.890006,-0.16911,9.80182,0.0071699,-1.34484,1.09884,-0.00890835,-0.00174019,0.0980166,1,0.000250938,-4.22E-05,-5.73E-06,0.0501876,-0.00843704,-0.00114616,0,0,0,0,0.150884,0.321201,-1.13193,33,3,21258,2171482
468,-0.815637,-0.104467,9.75397,0.0881929,-1.23715,1.0486,-0.00815886,-0.00107935,0.0975391,1,0.000176439,-1.29E-05,1.63E-05,0.0352878,-0.0025844,0.00326317,0,0,0,0,0.153273,0.320711,-1.13296,33,3,21261,2171782
469,-0.766463,-0.0285827,9.76849,0.110839,-1.12978,1.04559,-0.00766394,-0.000297973,0.0976849,1,6.06E-05,3.47E-06,1.96E-05,0.0121265,0.000693978,0.00391949,0,0,0,0,0.152842,0.320679,-1.13094,33,3,21264,2172082
470,-0.802201,-0.0608961,9.78612,0.0767394,-1.17273,1.08066,-0.00802378,-0.000626574,0.0978609,1,8.82E-05,-9.19E-06,2.17E-05,0.0176415,-0.00183806,0.00434583,0,0,0,0,0.151378,0.321188,-1.13143,33,3,21268,2172482
471,-0.807909,-0.0414671,9.80327,0.0763798,-1.14573,1.09027,-0.00807694,-0.000421575,0.0980328,1,3.30E-05,1.08E-05,2.69E-05,0.00659973,0.00216993,0.0053704,0,0,0,0,0.153323,0.32212,-1.1299,33,3,21271,2172782
472,-0.80984,-0.0855981,9.78358,0.072117,-1.20385,1.06405,-0.00810148,-0.000869783,0.0978355,1,6.92E-05,-1.59E-05,1.66E-05,0.013832,-0.00318293,0.00332114,0,0,0,0,0.153274,0.322156,-1.13192,33,3,21274,2173082
473,-0.926237,-0.0363431,9.79666,-0.0401599,-1.15525,1.09639,-0.00926191,-0.000372801,0.0979666,1,4.51E-05,2.23E-06,2.88E-05,0.00901932,0.000446762,0.00576859,0,0,0,0,0.149926,0.321688,-1.13141,33,3,21278,2173482
474,-0.776626,-0.0728225,9.77329,0.101959,-1.18409,1.05553,-0.0077711,-0.00073823,0.0977325,1,4.97E-05,-2.49E-05,1.89E-05,0.00993681,-0.00497402,0.00377414,0,0,0,0,0.153339,0.321145,-1.12992,33,3,21281,2173782
475,-0.755507,-0.0393014,9.78157,0.122125,-1.14964,1.05752,-0.00755896,-0.000402884,0.0978154,1,4.84E-05,-2.00E-05,2.72E-05,0.00967002,-0.00399963,0.0054453,0,0,0,0,0.153282,0.323114,-1.13089,33,3,21284,2174082
476,-0.791064,-0.0850308,9.7855,0.0834579,-1.19908,1.06339,-0.00791466,-0.000860184,0.0978546,1,4.83E-05,-2.08E-05,2.70E-05,0.00965599,-0.00415845,0.00539946,0,0,0,0,0.150884,0.321201,-1.13193,33,3,21288,2174482
477,-0.765844,-0.0644664,9.78516,0.106092,-1.1797,1.05872,-0.00766104,-0.000653312,0.0978513,1,4.24E-05,-1.35E-05,2.29E-05,0.00847987,-0.0026945,0.00457877,0,0,0,0,0.153237,0.322183,-1.13343,33,3,21291,2174782
478,-0.818269,-0.0676196,9.78856,0.0493021,-1.18636,1.0683,-0.00818773,-0.000684785,0.0978851,1,4.20E-05,-2.59E-05,2.30E-05,0.00839013,-0.00518113,0.00459584,0,0,0,0,0.152275,0.322191,-1.13343,33,3,21294,2175082
479,-0.872828,-0.0384818,9.77593,-0.0183317,-1.16288,1.06021,-0.00873106,-0.000395109,0.0977591,1,4.99E-05,-1.43E-05,3.05E-05,0.00998267,-0.00286403,0.00609939,0,0,0,0,0.152349,0.322137,-1.1304,33,3,21298,2175482
480,-0.83967,-0.0311261,9.77779,0.0230505,-1.15217,1.06144,-0.00839762,-0.000319595,0.0977778,1,4.10E-05,-4.81E-06,1.92E-05,0.00819265,-0.000961553,0.00384264,0,0,0,0,0.152352,0.321171,-1.13093,33,3,21301,2175782
481,-0.93361,-0.0450708,9.78073,-0.0771556,-1.17883,1.07704,-0.00934291,-0.000457286,0.0978066,1,3.14E-05,-3.49E-05,2.32E-05,0.00628166,-0.00698086,0.00464643,0,0,0,0,0.15095,0.320189,-1.12993,33,3,21304,2176082
482,-0.270124,0.0427488,9.80448,0.557805,-1.01742,1.05866,-0.00271844,0.000419923,0.0980444,1,3.87E-05,-8.78E-05,-3.53E-06,0.00773472,-0.0175514,-0.000706235,0,0,0,0,0.152772,0.322657,-1.13241,33,3,21308,2176482
483,-0.918539,-0.313709,9.67648,-0.0200836,-1.46412,0.934054,-0.00917353,-0.00315618,0.0967653,1,9.71E-05,6.07E-05,1.60E-05,0.0194244,0.0121483,0.00319215,0,0,0,0,0.150436,0.320699,-1.13093,33,3,21311,2176782
484,0.41754,0.116272,9.58293,1.06978,-0.751362,0.919505,0.00414817,0.00125013,0.0958294,1,-0.000454093,-0.000141466,4.62E-05,-0.0908186,-0.0282933,0.00923226,0,0,0,0,0.152266,0.322679,-1.13342,33,3,21314,2177082
485,-1.80764,-0.336432,9.71804,-0.863796,-1.71994,1.067,-0.0180305,-0.00349694,0.0971843,1,0.000688485,0.0002371,-3.31E-05,0.137697,0.04742,-0.00661391,0,0,0,0,0.150893,0.322158,-1.1309,33,3,21318,2177482
486,-2.14798,-0.377498,9.71641,-1.16731,-1.65474,0.992889,-0.0214195,-0.00382326,0.0971755,1,0.000247347,0.000310203,4.92E-06,0.0494694,0.0620407,0.000983915,0,0,0,0,0.153273,0.320711,-1.13296,33,3,21321,2177782
487,-0.561006,0.534846,9.87041,0.134052,-0.520862,1.13503,-0.00567694,0.00537863,0.0986986,1,-0.000154454,-0.000337238,2.82E-05,-0.0308907,-0.0674475,0.00564497,0,0,0,0,0.150416,0.321196,-1.13142,33,3,21324,2178082
488,-0.0479496,-0.361388,9.70553,0.824123,-1.4132,0.86672,-0.000477111,-0.0036404,0.0970543,1,0.00013645,1.11E-05,3.20E-05,0.02729,0.00221902,0.00639252,0,0,0,0,0.151357,0.320239,-1.13296,33,3,21328,2178482
489,-2.05569,-0.0803603,9.63691,-1.17692,-1.26174,0.961122,-0.0205505,-0.000784781,0.0963706,1,-0.000116272,3.24E-05,8.73E-05,-0.0232545,0.00648876,0.017458,0,0,0,0,0.153767,0.322143,-1.13142,33,3,21331,2178782
490,-0.873622,0.289452,9.89151,-0.189857,-0.813514,1.21655,-0.0088117,0.00289701,0.0989083,1,-1.14E-05,-0.000381949,-1.34E-05,-0.00228681,-0.0763899,-0.0026723,0,0,0,0,0.149901,0.32026,-1.13346,33,3,21334,2179082
491,-0.436617,0.272248,10.0253,0.0435027,-0.973882,1.11079,-0.00437045,0.0027134,0.100253,1,4.58E-05,-2.16E-05,-1.20E-05,0.00916425,-0.00432852,-0.00240209,0,0,0,0,0.150856,0.322185,-1.13241,33,3,21338,2179482
492,0.325277,0.388339,9.89642,1.01148,-0.72463,0.948143,0.0033333,0.00372221,0.0989677,1,0.000812381,0.00040466,-5.75E-05,0.162476,0.0809319,-0.011502,0,0,0,0,0.14951,0.319235,-1.13045,33,3,21341,2179782
493,-1.85296,0.819202,9.7113,-1.39549,-0.299266,1.08471,-0.0185351,0.00818881,0.0971122,1,1.01E-05,-2.57E-05,3.37E-05,0.00202027,-0.00514775,0.00673891,0,0,0,0,0.154236,0.320703,-1.13296,33,3,21344,2180082
494,-1.45848,-0.36747,9.88016,-0.579562,-1.69409,1.15089,-0.0145884,-0.00376651,0.0987976,1,0.000463199,-1.86E-05,9.45E-06,0.0926398,-0.0037184,0.00189078,0,0,0,0,0.152386,0.32211,-1.12888,33,3,21348,2180482
495,-0.568843,0.475423,9.87153,0.15109,-0.7308,1.16216,-0.00569358,0.00469611,0.0987178,1,0.000295028,-2.66E-05,-1.06E-05,0.0590055,-0.00532106,-0.00211939,0,0,0,0,0.15037,0.320265,-1.13397,33,3,21351,2180782
496,-0.0792192,-0.951269,9.56009,0.849851,-2.0323,0.710056,-0.000746353,-0.00953253,0.0955993,1,0.000103525,0.00023673,3.02E-05,0.020705,0.047346,0.00604947,0,0,0,0,0.151382,0.321667,-1.13091,33,3,21354,2181082
497,-2.21257,-0.11338,9.42022,-1.43191,-1.34039,0.752594,-0.0221124,-0.00113998,0.0942053,1,1.93E-05,7.00E-05,5.74E-05,0.00386509,0.0140008,0.0114709,0,0,0,0,0.150444,0.321656,-1.1299,33,3,21358,2181482
498,-1.62322,-0.644496,9.75307,-0.508842,-1.7275,0.860566,-0.0162143,-0.00641126,0.0975359,1,-0.000187493,8.57E-05,8.86E-05,-0.0374986,0.0171339,0.0177228,0,0,0,0,0.149906,0.32363,-1.13086,33,3,21361,2181782
499,-0.798762,0.204898,9.75958,0.0315578,-0.918689,1.03749,-0.00801512,0.00203515,0.0975939,1,6.96E-05,-0.000140552,1.55E-05,0.013915,-0.0281105,0.00309258,0,0,0,0,0.148984,0.318308,-1.13299,33,3,21364,2182082
500,-0.652508,0.135774,9.82005,0.0565414,-1.04383,1.12208,-0.00652738,0.00131662,0.0982009,1,0.000209274,-1.17E-05,9.65E-07,0.0418547,-0.00233873,0.000192996,0,0,0,0,0.151752,0.321744,-1.13546,33,3,21368,2182482
501,-0.715456,-0.0862711,9.81546,0.125789,-1.22067,1.0846,-0.0071418,-0.000872744,0.0981554,1,5.07E-05,6.49E-05,5.50E-06,0.010142,0.0129894,0.00110026,0,0,0,0,0.151871,0.321175,-1.13092,33,3,21371,2182782
502,-0.907581,-0.067416,9.85333,-0.082801,-1.24484,1.11756,-0.00908299,-0.000702299,0.0985324,1,0.000140898,-3.66E-05,2.05E-05,0.0281797,-0.0073147,0.00410392,0,0,0,0,0.153241,0.324107,-1.13187,33,3,21374,2183082
503,-0.656551,-0.153173,9.78031,0.160234,-1.28729,1.04194,-0.00657948,-0.00153645,0.0978021,1,2.25E-05,-7.18E-05,2.48E-05,0.00449468,-0.0143563,0.00494999,0,0,0,0,0.153797,0.324049,-1.12885,33,3,21378,2183482
504,-0.660624,-0.0504952,9.76628,0.125985,-1.21421,1.02536,-0.00661714,-0.00052475,0.0976619,1,9.99E-05,-5.59E-05,2.21E-05,0.0199726,-0.0111813,0.00441157,0,0,0,0,0.151822,0.322656,-1.1319,33,3,21381,2183782
505,-0.832599,-0.0302912,9.75639,-0.0242272,-1.18808,1.03572,-0.0083264,-0.000308737,0.0975639,1,2.97E-05,-2.11E-06,1.60E-06,0.0059437,-0.000422471,0.000320691,0,0,0,0,0.153245,0.323141,-1.1324,33,3,21384,2184082
506,-0.785274,-0.0321186,9.74521,0.00620267,-1.19051,1.02289,-0.00785515,-0.000334966,0.0974519,1,6.92E-05,-1.24E-05,1.83E-05,0.0138458,-0.00248663,0.00365064,0,0,0,0,0.152316,0.322643,-1.1314,33,3,21388,2184482
507,-0.723878,-0.0540671,9.78903,0.0722909,-1.21239,1.06495,-0.00723706,-0.000548765,0.0978904,1,3.97E-05,8.65E-06,2.21E-05,0.00794232,0.00173008,0.00441406,0,0,0,0,0.151798,0.324119,-1.13187,33,3,21391,2184782
508,-0.768716,-0.0919804,9.79136,0.045588,-1.25579,1.05456,-0.00768217,-0.000936198,0.0979138,1,8.21E-05,2.53E-05,2.02E-05,0.0164266,0.00505912,0.00404164,0,0,0,0,0.150371,0.323156,-1.13188,33,3,21394,2185082
509,-0.761999,-0.113745,9.80506,0.0393376,-1.27833,1.07534,-0.00761862,-0.00114275,0.0980507,1,2.53E-05,6.71E-06,2.20E-05,0.00505971,0.0013427,0.00439056,0,0,0,0,0.152756,0.323633,-1.13239,33,3,21398,2185482
510,-0.734992,0.0267899,9.80508,0.0519595,-1.14785,1.08407,-0.00735522,0.000250011,0.0980504,1,9.02E-05,-2.70E-05,1.36E-05,0.0180397,-0.00539862,0.00272579,0,0,0,0,0.153348,0.322102,-1.12889,33,3,21401,2185782
511,-0.798591,0.0145613,9.76638,-0.00859577,-1.15007,1.04526,-0.00798802,0.000139664,0.0976636,1,2.74E-05,-1.07E-05,3.71E-05,0.00548509,-0.00214145,0.00741666,0,0,0,0,0.152279,0.324115,-1.13187,33,3,21404,2186082
512,-0.753606,-0.0174866,9.80551,0.0311991,-1.18815,1.07746,-0.00754026,-0.00018579,0.0980548,1,5.54E-05,-2.14E-05,3.89E-06,0.0110809,-0.00428861,0.00077881,0,0,0,0,0.152263,0.325091,-1.13185,33,3,21408,2186482
513,-0.839157,-0.0670891,9.78903,-0.057544,-1.2398,1.0657,-0.00839529,-0.000674468,0.09789,1,1.81E-05,-1.90E-05,2.18E-06,0.00361649,-0.00380019,0.000436206,0,0,0,0,0.153731,0.323616,-1.13189,33,3,21411,2186782
514,-0.749452,-0.108778,9.77891,0.0352657,-1.27378,1.04924,-0.00749817,-0.00109268,0.0977888,1,2.43E-05,-1.88E-05,9.76E-06,0.00486149,-0.00375547,0.00195244,0,0,0,0,0.152292,0.324106,-1.13137,33,3,21414,2187082
515,-0.885423,-0.0730464,9.77366,-0.104319,-1.23282,1.05292,-0.00885229,-0.000736024,0.0977367,1,2.60E-05,9.72E-06,2.66E-05,0.00520683,0.0019438,0.00531713,0,0,0,0,0.152315,0.321198,-1.13244,33,3,21418,2187482
516,-0.925861,-0.0953413,9.78325,-0.15158,-1.26636,1.06501,-0.00925933,-0.000962562,0.0978323,1,4.46E-05,-3.86E-06,2.31E-05,0.00891348,-0.000772928,0.00462312,0,0,0,0,0.152263,0.325091,-1.13185,33,3,21421,2187782
517,-0.787335,-0.0330517,9.77609,-0.0300519,-1.20424,1.05481,-0.00788075,-0.000339497,0.0977603,1,4.50E-05,-3.79E-05,1.14E-05,0.00900104,-0.00758694,0.00228658,0,0,0,0,0.150885,0.324091,-1.12984,33,3,21424,2188082
518,-0.842462,-0.0265783,9.7982,-0.0748293,-1.19614,1.07633,-0.00842039,-0.000273863,0.0979823,1,3.93E-05,2.15E-05,2.29E-05,0.00785181,0.00430531,0.00458433,0,0,0,0,0.152242,0.324142,-1.13338,33,3,21428,2188482
519,-0.810775,-0.0788132,9.86238,-0.0737902,-1.2589,1.12058,-0.008112,-0.000796124,0.0986234,1,3.90E-05,-2.17E-05,1.86E-05,0.00779825,-0.00433658,0.00372068,0,0,0,0,0.151383,0.323112,-1.12987,33,3,21431,2188782
520,-1.46718,-0.159571,9.78344,-0.717474,-1.36665,1.06915,-0.014673,-0.00160809,0.097834,1,6.04E-05,-6.67E-06,1.93E-05,0.0120736,-0.00133301,0.0038652,0,0,0,0,0.153706,0.325079,-1.13186,33,3,21434,2189082
521,-1.70305,-0.154525,9.65309,-0.988294,-1.38649,0.973295,-0.0170396,-0.0015699,0.0965289,1,0.000126308,-4.72E-05,7.76E-06,0.0252616,-0.00944582,0.00155244,0,0,0,0,0.153262,0.325056,-1.13034,33,3,21438,2189482
522,-1.68483,-0.105146,9.68017,-0.856261,-1.29991,0.977093,-0.0168255,-0.00106422,0.0968055,1,6.12E-05,0.000117127,2.74E-05,0.0122334,0.0234255,0.00548001,0,0,0,0,0.153732,0.326506,-1.1298,33,3,21441,2189782
523,-1.1906,0.0104733,9.81801,-0.480596,-1.19349,1.08954,-0.0119437,8.30E-05,0.0981756,1,0.000109545,-0.000191711,9.87E-06,0.021909,-0.0383423,0.00197475,0,0,0,0,0.154266,0.326945,-1.12727,33.0625,3,21444,2190082
524,-2.55886,-0.00693191,9.22293,-1.79599,-1.20624,0.649326,-0.0255818,-7.07E-05,0.0922311,1,-7.95E-06,3.69E-05,5.50E-05,-0.00158907,0.00737584,0.0110031,0,0,0,0,0.157266,0.321537,-1.12639,33.0625,3,21448,2190482
522,0.0460166,0.0690215,10.6202,0.478943,-1.10754,1.9069,0.000425818,0.000680643,0.106202,1,4.53E-05,-0.000161416,4.61E-05,0.00905104,-0.0322832,0.00922022,0,0,0,0,0.157568,0.325038,-1.13137,33.0625,3,21451,2190782
526,-1.86521,-0.188385,9.86353,-1.07662,-1.3382,0.971453,-0.0187219,-0.00189837,0.0986218,1,7.13E-05,-0.000354108,1.22E-05,0.0142606,-0.0708216,0.00244872,0,0,0,0,0.157663,0.325932,-1.1268,33.0625,3,21454,2191082
527,-3.59437,0.0753683,8.76849,-2.76918,-1.06776,0.250542,-0.0358859,0.000790324,0.0877082,1,-0.000267358,0.000330708,0.000142721,-0.0534716,0.0661416,0.0285442,0,0,0,0,0.158755,0.321011,-1.1249,33.0625,3,21458,2191482
528,-2.1016,0.0823321,8.92917,-1.42524,-1.1756,0.475723,-0.0210193,0.000787832,0.0892912,1,0.00018937,-1.80E-05,3.98E-05,0.0378739,-0.00359289,0.00795439,0,0,0,0,0.158275,0.323905,-1.12281,33.0625,3,21461,2191782
529,-1.72774,-0.0134107,9.31377,-1.07196,-1.26804,0.737596,-0.0172706,-0.000178346,0.0931389,1,0.000230127,3.68E-05,3.97E-05,0.0460253,0.00735945,0.00794186,0,0,0,0,0.158645,0.323982,-1.12736,33.0625,3,21464,2192082
530,-1.46345,-0.0483236,9.64287,-0.941797,-1.19574,0.774125,-0.0146324,-0.000464395,0.0964291,1,-0.000112909,1.04E-05,0.000100263,-0.0225818,0.00207237,0.0200527,0,0,0,0,0.162005,0.325887,-1.12632,33.0625,3,21468,2192482
531,-1.02303,0.216068,9.96685,-0.289519,-0.988137,1.30008,-0.0102452,0.00216628,0.0996669,1,-3.71E-05,-7.26E-05,8.78E-05,-0.00742698,-0.0145159,0.0175565,0,0,0,0,0.163408,0.326869,-1.12731,33.0625,3,21471,2192782
532,-0.359167,0.342423,10.1056,0.3093,-0.860036,1.49803,-0.00365044,0.00341681,0.101054,1,3.52E-05,-0.000289307,4.33E-05,0.00703842,-0.0578613,0.00866811,0,0,0,0,0.161486,0.324473,-1.12887,33.0625,3,21474,2193082
533,-0.779721,0.029086,9.50182,-0.0543602,-1.15385,0.838205,-0.0077574,0.000294852,0.0950214,1,-3.03E-05,0.000209833,0.000114146,-0.00606959,0.0419666,0.0228291,0,0,0,0,0.163949,0.323929,-1.12688,33.0625,3,21478,2193482
534,-0.507694,-0.0300285,10.0548,0.167028,-1.21022,1.24414,-0.00508681,-0.000302498,0.100547,1,7.13E-06,-4.93E-05,7.67E-05,0.00142525,-0.00986637,0.0153307,0,0,0,0,0.167215,0.326385,-1.12936,33.0625,3,21481,2193782
535,-1.02739,0.0206666,9.55254,-0.308397,-1.09626,0.696423,-0.0102385,0.000214607,0.0955292,1,-5.21E-05,0.000185249,9.83E-05,-0.0104249,0.0370498,0.019669,0,0,0,0,0.167856,0.323373,-1.12489,33.0625,3,21485,2194182
536,-0.48372,-0.154799,10.1519,0.223261,-1.38213,1.44389,-0.00483062,-0.00156665,0.101519,1,8.77E-05,3.10E-05,8.82E-05,0.0175397,0.0062098,0.0176405,0,0,0,0,0.16872,0.326328,-1.12685,33.0625,3,21488,2194482
537,-0.778674,0.160901,9.77313,-0.0778224,-1.02638,1.07913,-0.00784988,0.00157395,0.0977268,1,0.000177428,-0.00032262,2.45E-05,0.0354855,-0.0645239,0.00489537,0,0,0,0,0.169303,0.32384,-1.12438,33.0625,3,21491,2194782
538,-0.737473,-0.301549,9.88237,-0.073511,-1.49295,1.06983,-0.00738452,-0.00301317,0.0988231,1,-1.81E-05,-5.21E-05,8.53E-05,-0.00362256,-0.0104266,0.0170659,0,0,0,0,0.172108,0.324358,-1.12741,33.0625,3,21495,2195182
539,-0.674389,-0.12215,10.0087,0.123371,-1.42738,1.39294,-0.00678535,-0.0012844,0.100084,1,0.000309871,-0.000207944,6.42E-05,0.0619742,-0.0415889,0.012846,0,0,0,0,0.174523,0.326741,-1.12535,33.0625,3,21498,2195482
540,-1.22392,0.0362194,9.47032,-0.634543,-1.18201,0.780716,-0.0122731,0.000313099,0.094699,1,0.000256943,-0.000178681,1.75E-05,0.0513887,-0.0357361,0.00350145,0,0,0,0,0.176019,0.324281,-1.1249,33.0625,3,21501,2195782
541,-1.43165,0.280438,9.91558,-0.76739,-0.997842,1.29245,-0.0143222,0.00275432,0.0991563,1,0.000242637,-2.70E-05,6.79E-05,0.0485274,-0.00540397,0.0135761,0,0,0,0,0.178424,0.324261,-1.12492,33.0625,3,21505,2196182
542,-1.59472,0.0384178,9.72006,-0.997992,-1.1455,1.02085,-0.015975,0.000391563,0.097196,1,-5.40E-05,-0.000142444,9.74E-05,-0.0107951,-0.0284889,0.019474,0,0,0,0,0.180349,0.324245,-1.12493,33.0625,3,21508,2196482
543,-2.06606,-0.438619,9.42913,-1.35655,-1.60159,0.744999,-0.0206015,-0.00437078,0.094305,1,-0.000107345,0.000307723,0.000117155,-0.021469,0.0615446,0.023431,0,0,0,0,0.182685,0.326203,-1.12641,33.0625,3,21511,2196782
544,-1.31333,-0.200459,9.9654,-0.629804,-1.44403,1.22007,-0.0131303,-0.00201932,0.099654,1,6.14E-05,1.30E-05,9.48E-05,0.0122839,0.00260928,0.0189604,0,0,0,0,0.183378,0.320743,-1.12148,33.0625,3,21515,2197182
545,-1.77464,0.20729,9.85011,-1.05189,-1.01132,1.26026,-0.0177266,0.00205526,0.098505,1,7.19E-05,0.000102656,9.82E-05,0.0143704,0.0205311,0.0196438,0,0,0,0,0.188515,0.322741,-1.12651,33.0625,3,21518,2197482
546,-2.36288,-0.23097,9.37403,-1.66496,-1.44026,0.756867,-0.0236243,-0.0023091,0.0937415,1,-2.92E-05,2.13E-05,0.000103276,-0.00584721,0.00426928,0.0206553,0,0,0,0,0.186767,0.321664,-1.11996,33.0625,3,21521,2197782
547,-1.66994,-0.0661851,9.69708,-1.02399,-1.31462,1.01773,-0.0167503,-0.000687469,0.0969619,1,0.000113979,-0.000263384,0.000105068,0.0227957,-0.0526768,0.0210136,0,0,0,0,0.188687,0.319724,-1.12153,33.0625,3,21525,2198182
548,-1.45051,0.127682,9.44215,-0.745587,-1.04159,0.977862,-0.0144872,0.00130304,0.0944239,1,-0.000164028,9.73E-05,0.000164248,-0.0328055,0.0194583,0.0328497,0,0,0,0,0.193388,0.324101,-1.12297,33.0625,3,21528,2198482
549,-0.789857,-0.319219,10.3067,0.077186,-1.60204,1.63168,-0.00794833,-0.00321545,0.103062,1,0.000102449,-0.000245608,0.00013554,0.0204899,-0.0491216,0.0271081,0,0,0,0,0.191626,0.317252,-1.12109,33.0625,3,21531,2198782
550,-0.838621,0.117372,9.64183,-0.314023,-1.16774,0.991855,-0.00844209,0.00110338,0.0964142,1,0.000357408,-0.000288777,8.44E-05,0.0714815,-0.0577555,0.0168873,0,0,0,0,0.19585,0.319221,-1.1241,33.0625,3,21535,2199182
551,-1.57071,-0.199761,9.62063,-0.994625,-1.46913,0.979796,-0.0157052,-0.0020508,0.0962055,1,0.000255468,7.38E-06,0.000128381,0.0510935,0.001476,0.0256761,0,0,0,0,0.196968,0.317172,-1.1191,33.0625,3,21538,2199482
552,-1.74492,-0.00356282,9.41118,-1.00627,-1.21258,0.776935,-0.0173599,-5.11E-05,0.0941284,1,4.28E-05,0.000474675,0.000212399,0.00856303,0.0949351,0.0424797,0,0,0,0,0.198329,0.319147,-1.12108,33.0625,3,21541,2199782
553,-0.74392,0.520042,10.1212,-0.0276912,-0.667891,1.45454,-0.00747557,0.00517473,0.10121,1,0.000117082,-0.000172824,0.000132981,0.0234165,-0.0345649,0.0265962,0,0,0,0,0.201277,0.317633,-1.11961,33.0625,3,21544,2200082
554,-1.10183,0.0980515,9.8214,-0.394443,-1.25124,1.27279,-0.010995,0.000894955,0.0982174,1,0.000420236,0.000119842,0.000136829,0.0840473,0.0239684,0.0273658,0,0,0,0,0.20226,0.317128,-1.11912,33.0625,3,21548,2200482
555,-0.880691,0.00814345,10.1819,-0.0485983,-1.35025,1.56305,-0.00885361,8.59E-06,0.101815,1,0.000347106,-0.000229247,0.000122432,0.0694212,-0.0458494,0.0244864,0,0,0,0,0.203765,0.315626,-1.11765,33.0625,3,21551,2200782
556,-1.63379,-0.461174,10.0037,-1.20239,-1.60631,1.1148,-0.0163656,-0.00451304,0.100037,1,-0.000531224,-0.000149092,0.000231862,-0.106245,-0.0298185,0.0463725,0,0,0,0,0.205759,0.315077,-1.11515,33.0625,3,21555,2201182
557,-2.19332,-0.687115,9.24522,-1.31247,-1.82996,0.667263,-0.021893,-0.0068031,0.0924668,1,-0.000422367,0.000200917,0.000229394,-0.0844734,0.0401834,0.0458788,0,0,0,0,0.207154,0.317991,-1.11509,33.0625,3,21558,2201482
558,-0.572208,-0.290362,10.1527,0.115304,-1.6001,1.28939,-0.00572287,-0.00296335,0.101525,1,0.000286948,-7.58E-06,0.000128208,0.0573897,-0.00151627,0.0256417,0,0,0,0,0.207671,0.316515,-1.11462,33.0625,3,21561,2201782
559,-1.78059,0.716095,8.82925,-1.40923,-0.274523,0.108733,-0.0177441,0.00718901,0.0883026,1,-0.000194526,0.000364345,0.000176963,-0.0389052,0.072869,0.0353925,0,0,0,0,0.211011,0.317472,-1.11512,33.0625,3,21565,2202182
560,-1.81144,0.587185,8.80978,-1.34978,-0.431985,0.0167985,-0.0180695,0.00589906,0.0881052,1,-0.000198007,0.000268891,0.000212072,-0.0396013,0.0537782,0.0424143,0,0,0,0,0.208766,0.317374,-1.10854,33.0625,3,21568,2202482
561,-0.812637,-0.0080238,9.5918,-0.201078,-0.969768,0.805653,-0.008107,8.96E-05,0.0959196,0.999999,-0.00090988,0.00010096,0.00028936,-0.181976,0.020192,0.057872,0,0,0,0,0.211991,0.322269,-1.11097,33.0625,3,21571,2202782
562,-0.841926,0.284892,10.1181,-0.221657,-1.1574,1.50524,-0.00845738,0.00279641,0.101179,1,0.000249679,-0.000185105,0.000117549,0.0499358,-0.0370209,0.0235098,0,0,0,0,0.212191,0.318268,-1.10551,33.0625,3,21574,2203082
