frame_id	accel_x	accel_y	accel_z	free_accel_x	free_accel_y	free_accel_z	delta_v_x	delta_v_y	delta_v_z	delta_q_w	delta_q_x	delta_q_y	delta_q_z	rate_x	rate_y	rate_z	quat_w	quat_x	quat_y	quat_z	mag_x	mag_y	mag_z	temperature	status_byte	packet_counter	time_fine
1	0	0	0	0	0	0	0	0	0	0	0	0	0	0	0	0	0	0	0	0	0	0	0	0	0	0	0
2	0	0	0	0	0	0	0	0	0	0	0	0	0	0	0	0	0	0	0	0	0	0	0	0	0	0	0
3	0	0	0	0	0	0	0	0	0	0	0	0	0	0	0	0	0	0	0	0	0	0	0	0	0	0	0
4	0	0	0	0	0	0	0	0	0	0	0	0	0	0	0	0	0	0	0	0	0	0	0	0	0	0	0
5	0	0	0	0	0	0	0	0	0	0	0	0	0	0	0	0	0	0	0	0	0	0	0	0	0	0	0
6	-0.704518	-0.0718411	9.7958	0.977622	-0.716887	0.881371	-0.00704866	-0.000726283	0.0979577	1	3.8119e-05	-1.7952e-05	2.86328e-05	0.0076238	-0.00359039	0.00572656	0	0	0	0	0.0646161	0.51539	-0.980746	33.9375	3	44877	4537777
7	-0.704518	-0.0718411	9.7958	0.977622	-0.716887	0.881371	-0.00704866	-0.000726283	0.0979577	1	3.8119e-05	-1.7952e-05	2.86328e-05	0.0076238	-0.00359039	0.00572656	0	0	0	0	0.0646161	0.51539	-0.980746	33.9375	3	44877	4537777
8	-0.704518	-0.0718411	9.7958	0.977622	-0.716887	0.881371	-0.00704866	-0.000726283	0.0979577	1	3.8119e-05	-1.7952e-05	2.86328e-05	0.0076238	-0.00359039	0.00572656	0	0	0	0	0.0646161	0.51539	-0.980746	33.9375	3	44877	4537777
9	-0.704518	-0.0718411	9.7958	0.977622	-0.716887	0.881371	-0.00704866	-0.000726283	0.0979577	1	3.8119e-05	-1.7952e-05	2.86328e-05	0.0076238	-0.00359039	0.00572656	0	0	0	0	0.0646161	0.51539	-0.980746	33.9375	3	44877	4537777
10	-0.704518	-0.0718411	9.7958	0.977622	-0.716887	0.881371	-0.00704866	-0.000726283	0.0979577	1	3.8119e-05	-1.7952e-05	2.86328e-05	0.0076238	-0.00359039	0.00572656	0	0	0	0	0.0646161	0.51539	-0.980746	33.9375	3	44877	4537777
11	-0.772982	-0.0878817	9.76383	0.0386845	-0.508329	0.961946	-0.00773172	-0.000889718	0.097638	1	5.43744e-05	-9.87403e-06	1.83376e-05	0.0108749	-0.00197481	0.00366751	0	0	0	0	0.0674387	0.520713	-0.979631	34	1	47925	4844064
12	-0.737455	-0.0957304	9.78625	0.0786837	-0.519037	0.988999	-0.00737495	-0.000968143	0.0978624	1	5.4069e-05	-2.2037e-06	1.73204e-05	0.0108138	-0.000440741	0.00346409	0	0	0	0	0.0604336	0.513872	-0.97571	34	1	47928	4844364
10	-0.714622	-0.0802121	9.77503	0.0884559	-0.506102	0.971913	-0.00714563	-0.000806672	0.0977503	1	2.2091e-05	2.91503e-06	1.62999e-05	0.00441821	0.000583007	0.00325998	0	0	0	0	0.0625853	0.517411	-0.983722	34	1	47932	4844764
14	-0.663537	-0.093753	9.78171	0.116651	-0.532212	0.968735	-0.00663819	-0.000948715	0.0978168	1	5.59615e-05	-1.45904e-05	1.78564e-05	0.0111923	-0.00291808	0.00357128	0	0	0	0	0.0638474	0.51622	-0.972138	34	1	47935	4845064
15	-0.703226	-0.0833906	9.78951	0.116695	-0.522177	0.979399	-0.00703149	-0.000840708	0.0978951	1	3.36376e-05	3.80542e-06	1.53648e-05	0.00672752	0.000761085	0.00307295	0	0	0	0	0.0644851	0.517413	-0.984741	34	1	47938	4845364
16	-0.684264	-0.103469	9.78989	0.119601	-0.53586	0.983181	-0.00684813	-0.00103951	0.0978985	1	2.1377e-05	-2.85322e-05	4.65849e-05	0.0042754	-0.00570644	0.00931699	0	0	0	0	0.0651195	0.52067	-0.976086	34	1	47942	4845764
17	-0.723376	-0.116074	9.77075	0.0799796	-0.567069	0.96522	-0.00724431	-0.0011744	0.0977066	1	6.83868e-05	-5.41882e-05	2.02736e-05	0.0136774	-0.0108376	0.00405473	0	0	0	0	0.062712	0.514909	-0.980243	34	1	47945	4846064
18	-0.782814	-0.0429341	9.75039	0.0269975	-0.479799	0.945805	-0.00783338	-0.00043724	0.0975034	1	3.99818e-05	-2.69077e-05	6.55625e-06	0.00799636	-0.00538153	0.00131125	0	0	0	0	0.0656329	0.518715	-0.976131	34	1	47948	4846364
19	-0.551501	-0.0517698	9.80913	0.25705	-0.491759	0.997451	-0.00552224	-0.00052234	0.0980908	1	2.2402e-05	-3.69442e-05	2.239e-05	0.00448041	-0.00738884	0.004478	0	0	0	0	0.0619097	0.513354	-0.974718	34	1	47952	4846764
20	-0.659779	-0.0560586	9.73215	0.111847	-0.500981	0.903556	-0.00660239	-0.00055668	0.0973212	1	-2.04519e-05	-2.36277e-05	5.64909e-06	-0.00409038	-0.00472554	0.00112982	0	0	0	0	0.0659868	0.519768	-0.980655	34	1	47955	4847064
21	-0.52415	-0.0581803	9.84278	0.273596	-0.521296	0.985126	-0.00523541	-0.000592672	0.0984281	1	5.32941e-05	3.0713e-05	3.60274e-05	0.0106588	0.00614261	0.00720547	0	0	0	0	0.0613512	0.515824	-0.976176	34	1	47958	4847364
22	-0.686203	-0.161748	9.78389	0.176599	-0.617296	0.959872	-0.0068442	-0.00163337	0.0978399	1	7.92362e-05	9.06491e-05	2.82263e-05	0.0158472	0.0181298	0.00564526	0	0	0	0	0.0635229	0.517421	-0.984737	34	1	47962	4847764
23	-0.521568	-0.127024	9.82825	0.312152	-0.564079	1.00712	-0.00521201	-0.0012707	0.0982827	1	1.60155e-06	1.84887e-05	1.43549e-05	0.00032031	0.00369775	0.00287098	0	0	0	0	0.0644064	0.515195	-0.969638	34	1	47965	4848064
24	-0.612129	-0.0967347	9.80239	0.195676	-0.535952	0.984116	-0.0061367	-0.000966492	0.0980229	1	-4.99213e-06	-7.8693e-05	1.01116e-05	-0.000998427	-0.0157386	0.00202232	0	0	0	0	0.0664675	0.518318	-0.9817	34	1	47968	4848364
25	-0.618498	-0.14995	9.80328	0.204748	-0.618625	0.980343	-0.00618449	-0.00150777	0.0980327	1	4.114e-05	2.27606e-06	1.70439e-05	0.00822799	0.000455212	0.00340878	0	0	0	0	0.0661386	0.518693	-0.975124	34	1	47972	4848764
26	-0.655367	-0.106497	9.7944	0.174272	-0.608149	0.988611	-0.00655273	-0.00106446	0.097944	1	-3.41083e-06	4.68081e-06	1.24312e-05	-0.000682166	0.000936163	0.00248623	0	0	0	0	0.0622717	0.513919	-0.979253	34	1	47975	4849064
27	-0.637692	-0.0979825	9.80663	0.178682	-0.428108	0.903618	-0.00639321	-0.000976028	0.0980652	1	-2.02793e-05	-8.317e-05	1.40717e-05	-0.00405586	-0.016634	0.00281434	0	0	0	0	0.0656779	0.5182	-0.974628	34	1	47978	4849364
28	-0.857713	-0.0234388	9.75683	-0.0710832	-0.541561	0.961478	-0.00858239	-0.000250485	0.0975678	1	8.10252e-05	-2.69747e-05	1.66794e-05	0.016205	-0.00539495	0.00333587	0	0	0	0	0.0618566	0.514357	-0.976211	34	1	47982	4849764
29	-0.725372	-0.136622	9.81059	0.0903368	-0.591423	1.00285	-0.00725413	-0.00136859	0.0981058	1	1.4154e-05	-1.70598e-06	-2.79398e-05	0.00283079	-0.000341196	-0.00558795	0	0	0	0	0.0669448	0.519281	-0.981175	34	1	47985	4850064
30	-0.862179	-0.0837956	9.75429	-0.0461474	-0.579548	0.947045	-0.00862317	-0.000850093	0.0975427	1	6.14822e-05	-7.16951e-06	8.30144e-06	0.0122964	-0.0014339	0.00166029	0	0	0	0	0.0624525	0.513305	-0.972197	34	1	47988	4850364
31	-0.77805	-0.11257	9.78433	0.0395491	-0.621812	0.94393	-0.00777802	-0.00113691	0.0978434	1	5.49609e-05	1.23071e-05	2.95434e-05	0.0109922	0.00246142	0.00590869	0	0	0	0	0.0635684	0.518351	-0.982191	34	1	47992	4850764
32	-0.701207	-0.0931624	9.78227	0.127882	-0.612268	0.956797	-0.00700768	-0.000944861	0.0978229	1	6.61833e-05	2.22658e-05	2.05498e-05	0.0132367	0.00445316	0.00410995	0	0	0	0	0.0638806	0.517159	-0.970097	34	1	47995	4851064
33	-0.750345	-0.130847	9.77787	0.050134	-0.571409	1.01791	-0.00750388	-0.00132362	0.0977785	1	7.50717e-05	-2.59726e-06	3.11777e-05	0.0150143	-0.000519453	0.00623555	0	0	0	0	0.0635642	0.517873	-0.982706	34	1	47998	4851364
34	-0.673926	-0.0763312	9.7676	0.222366	-0.389627	0.916808	-0.00673367	-0.000771389	0.0976763	1	4.06306e-05	2.85197e-05	1.04384e-05	0.00812612	0.00570394	0.00208768	0	0	0	0	0.0661467	0.518205	-0.975135	34	1	48002	4851764
35	-0.644565	-0.0203635	9.77474	0.141642	-0.489376	0.936673	-0.00645506	-0.000205605	0.0977468	1	1.0036e-05	-4.81345e-05	5.48108e-07	0.0020072	-0.0096269	0.000109622	0	0	0	0	0.0608939	0.51292	-0.977248	34	1	48005	4852064
36	-0.663985	-0.111387	9.76563	0.105976	-0.625843	0.918413	-0.00664884	-0.00112035	0.0976556	1	3.27862e-05	-4.61286e-05	5.5999e-06	0.00655723	-0.00922572	0.00111998	0	0	0	0	0.0651683	0.519189	-0.975109	34	1	48008	4852364
37	-0.830517	-0.0911254	9.74825	-0.00440462	-0.556538	0.989977	-0.00830799	-0.000917323	0.0974822	1	3.01991e-05	-1.4607e-05	1.09652e-05	0.00603982	-0.0029214	0.00219303	0	0	0	0	0.0633981	0.512828	-0.973222	34	1	48012	4852764
38	-0.511937	-0.153205	9.83037	0.295091	-0.663031	0.994393	-0.00512503	-0.00153954	0.0983033	1	3.606e-05	-2.94158e-05	3.95288e-05	0.00721199	-0.00588315	0.00790576	0	0	0	0	0.065045	0.519279	-0.980157	34	1	48015	4853064
39	-0.701862	-0.13636	9.77483	0.0955583	-0.648176	0.956701	-0.00702721	-0.00137281	0.0977475	1	4.53313e-05	-4.42636e-05	2.42519e-05	0.00906626	-0.00885272	0.00485038	0	0	0	0	0.0604948	0.512382	-0.974228	34	1	48018	4853364
40	-0.761505	-0.0761896	9.78832	0.0197514	-0.58634	0.984169	-0.00762746	-0.000772758	0.0978822	1	5.5086e-05	-6.34269e-05	5.1007e-06	0.0110172	-0.0126854	0.00102014	0	0	0	0	0.0635803	0.516897	-0.982728	34	1	48022	4853764
41	-0.705124	-0.0707074	9.79166	0.091524	-0.587008	0.985266	-0.00704951	-0.000720214	0.0979167	1	6.55875e-05	8.67994e-06	2.10254e-05	0.0131175	0.00173599	0.00420509	0	0	0	0	0.0662976	0.51424	-0.971688	34	1	48025	4854064
42	-0.732608	-0.131183	9.78558	0.0635821	-0.633655	0.974532	-0.00733134	-0.00131878	0.0978553	1	3.25959e-05	-2.74301e-05	3.88155e-05	0.00651919	-0.00548601	0.00776309	0	0	0	0	0.0636823	0.514413	-0.980259	34	1	48028	4854364
43	-0.854498	-0.0726477	9.76863	-0.0772881	-0.575089	0.966707	-0.00855782	-0.000738604	0.0976851	1	6.02079e-05	-6.58767e-05	2.13077e-05	0.0120416	-0.0131753	0.00426155	0	0	0	0	0.0661548	0.517717	-0.975146	34	1	48032	4854764
44	-0.644717	-0.0809159	9.78507	0.151429	-0.596164	0.973359	-0.00645031	-0.000819224	0.0978504	1	4.97549e-05	-1.62851e-05	2.54551e-05	0.00995097	-0.00325702	0.00509103	0	0	0	0	0.0632833	0.513875	-0.977238	34	1	48035	4855064
45	-0.757157	-0.0906368	9.77965	0.0379329	-0.604375	0.975357	-0.00757452	-0.000911539	0.0977962	1	2.63956e-05	-1.51004e-05	5.41891e-07	0.00527912	-0.00302007	0.000108378	0	0	0	0	0.0637126	0.51921	-0.975607	34	1	48038	4855364
46	-0.749159	-0.110775	9.79027	0.0456583	-0.626789	0.982412	-0.00749329	-0.00111458	0.0979025	1	3.43212e-05	-8.76373e-06	7.279e-06	0.00686423	-0.00175275	0.0014558	0	0	0	0	0.0629166	0.511386	-0.974262	34	1	48042	4855764
47	-0.617744	-0.121053	9.78794	0.168571	-0.641917	0.971057	-0.00618219	-0.00122002	0.097879	1	4.69779e-05	-2.45419e-05	2.37731e-05	0.00939558	-0.00490838	0.00475461	0	0	0	0	0.06511	0.516822	-0.979201	34	1	48045	4856064
48	-0.693883	-0.0893071	9.78601	0.0941735	-0.606856	0.973739	-0.00694238	-0.000901131	0.0978598	1	3.99798e-05	-1.8323e-05	1.68997e-05	0.00799595	-0.00366461	0.00337994	0	0	0	0	0.0628919	0.511404	-0.975271	34	1	48048	4856364
49	-0.677184	-0.1236	9.78629	0.104851	-0.640661	0.97353	-0.00677599	-0.00124766	0.0978625	1	5.82991e-05	-2.14355e-05	1.87916e-05	0.0116598	-0.00428709	0.00375831	0	0	0	0	0.0641184	0.514924	-0.981764	34	1	48052	4856764
50	-0.556578	-0.0607304	9.81145	0.241702	-0.590349	0.993258	-0.00556996	-0.000620667	0.0981142	1	6.6787e-05	-2.1437e-05	2.31231e-05	0.0133574	-0.0042874	0.00462462	0	0	0	0	0.0629009	0.513807	-0.973198	34	1	48055	4857064
51	-0.677989	-0.148191	9.7746	0.0688463	-0.662026	0.961172	-0.00679395	-0.00148135	0.097745	1	-3.83452e-06	-7.21462e-05	1.45362e-05	-0.000766904	-0.0144292	0.00290725	0	0	0	0	0.0621284	0.515952	-0.983753	34	1	48058	4857364
52	-0.771711	-0.121422	9.80052	0.00184486	-0.613902	0.984223	-0.00772082	-0.00120359	0.0980051	1	-5.4542e-05	-1.89597e-05	4.12975e-06	-0.0109084	-0.00379195	0.00082595	0	0	0	0	0.0637369	0.517746	-0.975639	34	1	48062	4857764
53	-0.806401	-0.122862	9.77392	-0.0131516	-0.67187	0.968655	-0.00806401	-0.00123591	0.0977391	1	3.60627e-05	-2.01082e-07	1.49552e-05	0.00721254	-4.02164e-05	0.00299103	0	0	0	0	0.0608891	0.510996	-0.978806	34	1	48065	4858064
54	-0.765515	-0.0808727	9.79333	0.0202011	-0.594272	0.987315	-0.00765602	-0.000821191	0.0979331	1	6.16068e-05	-4.68617e-06	2.59619e-05	0.0123214	-0.000937235	0.00519238	0	0	0	0	0.0637165	0.518243	-0.976133	34	1	48068	4858364
55	-0.681681	-0.0707006	9.75487	0.137416	-0.584604	0.915705	-0.0068161	-0.000703882	0.0975487	1	-1.64975e-05	3.57237e-06	6.98266e-06	-0.00329951	0.000714475	0.00139653	0	0	0	0	0.0623946	0.512384	-0.975247	34	1	48072	4858764
56	-0.6739	-0.172706	9.79395	0.113194	-0.706379	0.975746	-0.00673895	-0.00173723	0.0979393	1	5.0615e-05	-6.48152e-08	1.86615e-05	0.010123	-1.2963e-05	0.00373229	0	0	0	0	0.0645383	0.51641	-0.983248	34	1	48075	4859064
57	-0.646154	-0.103527	9.79029	0.134188	-0.63579	0.975993	-0.00645904	-0.0010431	0.097903	1	3.862e-05	1.25264e-05	2.08003e-05	0.007724	0.00250528	0.00416006	0	0	0	0	0.0614737	0.512844	-0.973212	34	1	48078	4859364
58	-0.719984	-0.119016	9.77638	0.0846588	-0.657076	0.962019	-0.00718771	-0.0012003	0.0977646	1	5.06085e-05	6.18098e-05	1.69665e-05	0.0101217	0.012362	0.00339329	0	0	0	0	0.0636007	0.5164	-0.982234	34	1	48082	4859764
59	-0.685617	-0.0972122	9.80995	0.110823	-0.632914	0.997435	-0.00685044	-0.000979591	0.0980998	1	3.65734e-05	2.90105e-05	2.14015e-05	0.00731468	0.00580209	0.0042803	0	0	0	0	0.0638759	0.515235	-0.971655	34	1	48085	4860064
60	-0.730615	-0.106877	9.79898	0.0604703	-0.640843	0.989902	-0.00730483	-0.00107705	0.0979898	1	4.1306e-05	6.60893e-06	1.27367e-05	0.0082612	0.00132179	0.00254734	0	0	0	0	0.0640776	0.515917	-0.982752	34	1	48088	4860364
61	-0.665498	-0.08141	9.7723	0.132615	-0.620632	0.957463	-0.00665092	-0.000824049	0.0977232	1	4.90379e-05	2.05633e-05	2.74351e-05	0.00980758	0.00411266	0.00548702	0	0	0	0	0.0642223	0.518221	-0.975126	34	1	48092	4860764
62	-0.695862	-0.0989318	9.8005	0.104817	-0.64146	0.987786	-0.00695494	-0.000998026	0.0980052	1	4.29617e-05	1.85408e-05	2.06645e-05	0.00859234	0.00370817	0.00413291	0	0	0	0	0.0622959	0.512456	-0.979286	34	1	48095	4861064
63	-0.74965	-0.0960756	9.78836	0.0302374	-0.645231	0.974284	-0.00749942	-0.000973102	0.0978833	1	6.20036e-05	-1.50838e-05	1.3849e-05	0.0124007	-0.00301676	0.0027698	0	0	0	0	0.0665989	0.51774	-0.976663	34	1	48098	4861364
64	-0.894802	-0.150647	9.74511	-0.0965929	-0.695372	0.952564	-0.00894811	-0.00151965	0.0974508	1	6.68e-05	-5.96055e-07	8.68921e-06	0.01336	-0.000119211	0.00173784	0	0	0	0	0.0614571	0.512374	-0.974233	34	1	48102	4861764
65	-0.615693	-0.0846512	9.77839	0.172471	-0.639072	0.960107	-0.00615901	-0.000854656	0.0977837	1	3.93887e-05	-1.092e-05	3.58121e-05	0.00787774	-0.002184	0.00716242	0	0	0	0	0.066003	0.518792	-0.980677	34	1	48105	4862064
66	-0.711096	-0.127175	9.7787	0.0633062	-0.676604	0.964374	-0.00711924	-0.00128106	0.0977862	1	4.61356e-05	-4.2636e-05	2.024e-05	0.00922712	-0.0085272	0.004048	0	0	0	0	0.0610011	0.513805	-0.972179	34	1	48108	4862364
67	-0.799468	-0.0934718	9.7762	-0.0156651	-0.650933	0.964107	-0.00800183	-0.000949753	0.0977612	1	7.53534e-05	-3.6746e-05	1.89021e-05	0.0150707	-0.00734921	0.00378042	0	0	0	0	0.0631234	0.515438	-0.982758	34	1	48112	4862764
68	-0.670639	-0.116501	9.80023	0.112142	-0.662135	0.987697	-0.00671526	-0.00117728	0.0980015	1	6.16927e-05	-4.54149e-05	1.31094e-05	0.0123385	-0.00908299	0.00262189	0	0	0	0	0.0638517	0.516699	-0.971622	34	1	48115	4863064
69	-0.762093	-0.0944273	9.78372	0.0203215	-0.643646	0.982208	-0.0076255	-0.000957956	0.0978368	1	6.81245e-05	-2.357e-05	2.30869e-05	0.0136249	-0.004714	0.00461737	0	0	0	0	0.0640776	0.515917	-0.982752	34	1	48118	4863364
70	-0.781392	-0.140596	9.80584	-0.00957378	-0.676011	1.00173	-0.00781826	-0.00141032	0.098058	1	2.05599e-05	-2.24334e-05	2.13741e-05	0.00411198	-0.00448668	0.00427482	0	0	0	0	0.0651636	0.517265	-0.976667	34	1	48122	4863764
71	-0.680122	-0.116068	9.76568	0.0937336	-0.664661	0.948189	-0.006806	-0.00116771	0.0976564	1	3.39337e-05	-2.48255e-05	2.91391e-05	0.00678673	-0.0049651	0.00582781	0	0	0	0	0.0613788	0.511949	-0.977777	34	3	48125	4864064
72	-0.412467	-0.192346	9.78629	0.379361	-0.748244	0.94866	-0.00413082	-0.00193202	0.0978625	1	4.33847e-05	-3.16033e-05	8.20573e-06	0.00867693	-0.00632065	0.00164115	0	0	0	0	0.0642099	0.51823	-0.975631	34	3	48128	4864364
73	-0.987737	-0.195028	9.78845	-0.186298	-0.77967	1.00089	-0.00987328	-0.00197832	0.0978843	1	0.00014166	2.06107e-05	1.54525e-05	0.028332	0.00412214	0.00309049	0	0	0	0	0.0600056	0.512874	-0.974215	34	3	48132	4864764
74	-0.769684	-0.00274474	9.81683	-0.01009	-0.56303	1.01099	-0.00771116	-4.1e-05	0.0981671	1	6.66607e-05	-7.29354e-05	3.01635e-05	0.0133321	-0.0145871	0.00603269	0	0	0	0	0.0660352	0.516841	-0.98072	34	3	48135	4865064
75	0.53889	-0.419886	9.52955	1.16404	-0.83309	0.564517	0.00536068	-0.00415975	0.0952988	1	-0.000206251	-0.000147245	-1.90414e-05	-0.0412502	-0.0294489	-0.00380827	0	0	0	0	0.0595535	0.513338	-0.972687	34	3	48138	4865364
76	-1.82165	-0.0789078	9.69257	-0.996411	-0.722384	1.00754	-0.0181542	-0.000860984	0.0969367	1	0.000365005	0.000320782	3.14761e-05	0.0730009	0.0641565	0.00629522	0	0	0	0	0.0612317	0.514948	-0.981751	34	3	48142	4865764
77	-0.983422	-0.380132	9.86741	-0.167287	-0.975093	1.06719	-0.00978948	-0.00383994	0.098677	1	0.000194179	0.00022609	1.50832e-05	0.0388358	0.045218	0.00301664	0	0	0	0	0.0642792	0.516252	-0.97416	34	3	48145	4866064
78	-0.866412	0.159709	9.81802	-0.0683727	-0.403491	1.0181	-0.00864478	0.00158592	0.0981821	1	5.47846e-05	9.88637e-05	2.40326e-05	0.0109569	0.0197727	0.00480653	0	0	0	0	0.0631438	0.514941	-0.982265	34	3	48148	4866364
79	-0.273563	-0.320569	9.82594	0.57834	-0.851826	0.98273	-0.00272355	-0.00320199	0.0982599	1	-1.85263e-05	6.18307e-05	-1.14883e-05	-0.00370526	0.0123662	-0.00229766	0	0	0	0	0.0651726	0.519667	-0.974593	34	3	48152	4866764
80	-1.25472	0.0564443	9.81094	-0.449347	-0.505615	1.02543	-0.0125334	0.000579587	0.0981111	1	-7.84237e-05	7.03868e-05	9.74826e-06	-0.0156847	0.0140774	0.00194965	0	0	0	0	0.0627486	0.513436	-0.979771	34	3	48155	4867064
81	-1.2861	0.0720882	9.6994	-0.494164	-0.450141	1.02675	-0.0128982	0.000723724	0.0969891	1	-1.6708e-05	-0.000191995	1.54887e-05	-0.0033416	-0.038399	0.00309773	0	0	0	0	0.0670193	0.520672	-0.977104	34	3	48158	4867364
82	-0.546778	0.09263	9.66722	0.220165	-0.36171	0.892164	-0.00548577	0.000925927	0.0966712	1	-1.64513e-07	-9.27067e-05	3.69006e-05	-3.29026e-05	-0.0185413	0.00738012	0	0	0	0	0.0628401	0.516743	-0.973637	34	3	48162	4867764
83	-0.589651	-0.205562	9.7833	0.196453	-0.778181	0.946277	-0.00590125	-0.00205488	0.0978328	1	-6.53326e-06	-2.51877e-05	4.54444e-05	-0.00130665	-0.00503753	0.00908889	0	0	0	0	0.0650037	0.518827	-0.982187	34	3	48165	4868064
84	-0.51729	-0.0209998	9.78101	0.242118	-0.555139	0.965184	-0.00517533	-0.000206605	0.09781	1	-1.89483e-05	-1.24552e-05	3.02542e-05	-0.00378966	-0.00249105	0.00605084	0	0	0	0	0.0638835	0.513302	-0.972708	34	3	48168	4868364
85	-0.719119	-0.118873	9.79755	0.0340542	-0.688014	0.976748	-0.00721327	-0.00119536	0.0979738	1	3.15837e-05	-0.000113048	3.05703e-05	0.00631674	-0.0226096	0.00611406	0	0	0	0	0.0631315	0.51495	-0.982769	34	3	48172	4868764
86	-0.648542	-0.103296	9.77951	0.134269	-0.671002	0.96631	-0.00649524	-0.0010395	0.0977944	1	3.05008e-05	-5.07163e-05	4.38296e-05	0.00610017	-0.0101433	0.00876593	0	0	0	0	0.0633455	0.515275	-0.973672	34	3	48175	4869064
87	-0.56862	-0.0515741	9.7794	0.209774	-0.627184	0.950088	-0.0056917	-0.000522281	0.0977936	1	3.21625e-05	-2.82338e-05	2.186e-05	0.0064325	-0.00564676	0.004372	0	0	0	0	0.0636003	0.514955	-0.983276	34	3	48178	4869364
88	-0.722854	-0.108445	9.77993	0.0547206	-0.701664	0.972446	-0.00722833	-0.00110394	0.0977991	1	9.76436e-05	7.84042e-07	2.70156e-05	0.0195287	0.000156808	0.00540313	0	0	0	0	0.0670762	0.518703	-0.976138	34	3	48182	4869764
89	-0.657031	-0.063175	9.80429	0.12174	-0.633911	0.985814	-0.00657105	-0.000640956	0.0980428	1	4.55156e-05	-3.93412e-06	2.13663e-05	0.00910313	-0.000786824	0.00427325	0	0	0	0	0.0622959	0.512456	-0.979286	34	3	48185	4870064
90	-0.526205	-0.0912601	9.80691	0.255674	-0.66979	0.980301	-0.00526276	-0.000924796	0.098069	1	6.18566e-05	-3.70063e-06	5.98645e-06	0.0123713	-0.000740127	0.00119729	0	0	0	0	0.0666074	0.518698	-0.975631	34	3	48188	4870364
91	-0.756747	-0.0632676	9.77513	0.0247127	-0.647802	0.96631	-0.00757002	-0.000644891	0.097751	1	6.14673e-05	-1.3132e-05	1.31108e-05	0.0122935	-0.0026264	0.00262216	0	0	0	0	0.0633896	0.51187	-0.974253	34	3	48192	4870764
92	-0.781952	-0.0885754	9.78797	-0.00284912	-0.669879	0.974296	-0.00782437	-0.000894422	0.0978793	1	4.37555e-05	-2.4786e-05	6.56059e-06	0.00875109	-0.00495719	0.00131212	0	0	0	0	0.0655541	0.516845	-0.980718	34	3	48195	4871064
93	-0.803694	-0.0784558	9.77937	-0.0309728	-0.668265	0.973774	-0.00803895	-0.000793862	0.0977935	1	4.74806e-05	-1.02503e-05	1.09385e-06	0.00949612	-0.00205005	0.000218771	0	0	0	0	0.0624155	0.513332	-0.973711	34	3	48198	4871364
94	-0.74965	-0.0949534	9.78055	0.0286195	-0.673644	0.967684	-0.00749343	-0.000954786	0.0978057	1	2.56895e-05	1.55588e-05	1.51396e-05	0.00513791	0.00311177	0.00302792	0	0	0	0	0.0641345	0.513948	-0.981786	34	3	48202	4871764
95	-0.800668	-0.0883796	9.79389	-0.030685	-0.68084	0.991946	-0.00801559	-0.000895324	0.0979381	1	5.69915e-05	-4.57055e-05	2.27336e-05	0.0113983	-0.00914109	0.00454672	0	0	0	0	0.065743	0.515743	-0.973673	34	3	48205	4872064
96	-0.856371	-0.0977132	9.77013	-0.101058	-0.678938	0.967909	-0.00857265	-0.000984675	0.0977004	1	3.66164e-05	-4.59903e-05	2.26437e-05	0.00732329	-0.00919806	0.00452874	0	0	0	0	0.0626342	0.515929	-0.982745	34	3	48208	4872364
97	-0.740324	-0.0808324	9.75692	0.0171632	-0.675645	0.947521	-0.00741417	-0.000824505	0.0975683	1	8.12469e-05	-5.62257e-05	2.2072e-05	0.0162494	-0.0112451	0.00441439	0	0	0	0	0.0646621	0.517765	-0.977158	34	3	48212	4872764
98	-0.828622	-0.0656372	9.65731	-0.106349	-0.640767	0.850898	-0.00830216	-0.000667563	0.0965716	1	5.61989e-05	-8.26419e-05	2.02775e-05	0.0112398	-0.0165284	0.00405549	0	0	0	0	0.0623738	0.511435	-0.976783	34	3	48215	4873064
99	-0.0762219	-0.0623921	9.90929	0.705787	-0.639691	1.07021	-0.000773716	-0.000635124	0.0990928	1	5.64957e-05	-5.80366e-05	4.1953e-06	0.0112991	-0.0116073	0.00083906	0	0	0	0	0.0656125	0.519212	-0.976625	34	3	48218	4873364
100	-0.0605205	-0.13542	9.84242	0.72538	-0.733832	1.00894	-0.000624465	-0.001374	0.0984238	1	0.000100612	-9.77965e-05	-3.22296e-06	0.0201225	-0.0195593	-0.000644593	0	0	0	0	0.0594884	0.515795	-0.973643	34	3	48222	4873764
101	-0.167427	-0.0337713	9.79214	0.572667	-0.655804	0.979768	-0.00170615	-0.000354254	0.0979208	1	8.52142e-05	-0.000162607	-4.36225e-05	0.0170428	-0.0325213	-0.00872451	0	0	0	0	0.0625986	0.520292	-0.981133	34	3	48225	4874064
102	-0.177725	-0.0586879	9.84825	0.653264	-0.653755	1.02955	-0.00176699	-0.000601973	0.0984826	1	7.77569e-05	5.24977e-05	-6.2436e-05	0.0155514	0.0104995	-0.0124872	0	0	0	0	0.0600431	0.514292	-0.971658	34	3	48228	4874364
103	1.02807	0.0184359	10.1111	1.83772	-0.613178	1.25889	0.0102417	0.000167117	0.101115	1	7.43602e-05	-0.000193116	-0.000107444	0.014872	-0.0386232	-0.0214889	0	0	0	0	0.0574691	0.514917	-0.978198	34	3	48232	4874764
104	-1.02851	-0.35596	9.37095	-0.106307	-0.888578	0.49604	-0.0102737	-0.00355943	0.0937107	1	1.6001e-05	6.66631e-05	-0.000154038	0.0032002	0.0133326	-0.0308076	0	0	0	0	0.0605669	0.519075	-0.966504	34	3	48235	4875064
105	1.93524	0.13599	10.0438	2.84127	-0.493283	1.0851	0.0192668	0.00139868	0.100454	1	-0.00021345	-0.000427682	-0.000106328	-0.04269	-0.0855364	-0.0212656	0	0	0	0	0.0565448	0.517788	-0.974595	34	3	48238	4875364
106	0.791149	0.00424556	9.99524	1.44494	-0.561355	1.02245	0.00788852	4.8506e-05	0.0999542	1	-5.16136e-05	-0.000115043	-0.000270097	-0.0103227	-0.0230086	-0.0540195	0	0	0	0	0.0594898	0.520131	-0.970516	34	3	48242	4875764
107	0.88196	0.229759	10.2524	1.49176	-0.347482	1.38548	0.00882614	0.0022834	0.102524	1	4.07917e-05	2.45032e-05	-0.000329784	0.00815834	0.00490064	-0.0659567	0	0	0	0	0.0544206	0.510375	-0.968184	34	3	48245	4876064
108	1.69719	-0.449229	9.76681	2.39359	-0.915896	0.603743	0.0170146	-0.00444741	0.0976628	1	-0.000300079	0.000237316	-0.000404019	-0.0600159	0.0474632	-0.0808038	0	0	0	0	0.0501882	0.519977	-0.957345	34	3	48248	4876364
109	1.31561	0.0722567	9.95782	2.00744	-0.567049	1.06563	0.0131286	0.000672035	0.0995822	1	0.000198185	-0.000140609	-0.00042083	0.0396371	-0.0281218	-0.084166	0	0	0	0	0.0536145	0.509787	-0.962133	34	3	48252	4876764
110	0.375982	-0.390985	9.3612	1.03216	-1.04015	0.375455	0.00377971	-0.0039776	0.0936083	1	0.00034545	0.000123445	-0.000408421	0.06909	0.024689	-0.0816842	0	0	0	0	0.0546616	0.518256	-0.972556	34	3	48255	4877064
111	0.81967	-0.276316	9.87204	1.5439	-0.889013	0.833616	0.00821774	-0.00277753	0.0987182	1	3.7203e-05	0.000118591	-0.000427846	0.0074406	0.0237183	-0.0855692	0	0	0	0	0.0478795	0.514143	-0.957464	34	3	48258	4877364
112	0.686308	-0.176019	10.1923	1.48541	-0.835999	1.29901	0.00687872	-0.00179681	0.101921	1	0.000153588	8.34414e-05	-0.000386574	0.0307177	0.0166883	-0.0773147	0	0	0	0	0.0504374	0.514842	-0.970592	34	3	48262	4877764
113	1.27693	0.316893	10.1427	1.93988	-0.362789	1.26475	0.0127138	0.00314213	0.101435	1	8.25375e-05	-0.000285751	-0.000394518	0.0165075	-0.0571502	-0.0789036	0	0	0	0	0.0464536	0.517516	-0.954352	34	3	48265	4878064
114	1.5407	-0.213621	10.1172	2.16023	-0.855384	1.19483	0.0153565	-0.00214505	0.10118	1	-2.07949e-05	-0.000240653	-0.000424145	-0.00415898	-0.0481305	-0.0848291	0	0	0	0	0.0435005	0.515661	-0.95842	34	3	48269	4878464
115	1.59107	0.0400863	10.508	2.13505	-0.469347	1.52166	0.0158691	0.000414589	0.105086	1	-0.000131811	-0.000199775	-0.000439769	-0.0263621	-0.0399551	-0.0879539	0	0	0	0	0.0473186	0.521916	-0.955268	34	3	48272	4878764
116	0.145412	-0.16197	9.99753	0.63165	-0.793089	1.01491	0.00144306	-0.00163956	0.0999751	1	9.40679e-05	-4.94288e-05	-0.000361464	0.0188136	-0.00988575	-0.0722927	0	0	0	0	0.0411324	0.517099	-0.955852	34	3	48275	4879064
117	-0.185104	-0.18755	9.11919	0.463313	-0.80907	0.359043	-0.00182454	-0.00191725	0.0911916	1	0.000233076	0.000149609	-0.000206477	0.0466152	0.0299219	-0.0412953	0	0	0	0	0.0456745	0.524484	-0.961769	34	3	48279	4879464
118	-0.146794	0.278944	9.1557	0.423607	-0.275706	0.153039	-0.0014582	0.00284009	0.0915556	1	-0.000272994	4.61818e-05	-0.000228298	-0.0545988	0.00923635	-0.0456596	0	0	0	0	0.0440618	0.521863	-0.950709	34	3	48282	4879764
119	-0.00968728	-0.896834	8.95105	0.486253	-1.45016	-0.0297947	-0.000102275	-0.0089452	0.0895128	1	-0.000129044	-1.14114e-05	-0.000187523	-0.0258088	-0.00228228	-0.0375047	0	0	0	0	0.0442529	0.528335	-0.958142	34	3	48285	4880064
120	1.04997	0.548624	10.3307	1.82156	-0.310648	1.65388	0.0104679	0.00544277	0.103313	1	0.00020036	-0.000158744	-9.89221e-05	0.040072	-0.0317488	-0.0197844	0	0	0	0	0.0407831	0.530499	-0.940906	34	3	48289	4880464
121	0.877298	0.726983	9.27061	1.52736	-0.37224	-0.0848985	0.008976	0.00722237	0.0926904	0.999999	0.000237372	0.00107981	-0.000194922	0.0474743	0.215961	-0.0389845	0	0	0	0	0.0401416	0.53062	-0.947466	34	3	48292	4880764
122	1.03417	0.0298073	9.05855	1.00561	-0.626336	0.0432091	0.00998909	0.000473447	0.0906244	0.999997	-0.000991338	-0.00194662	-0.000209876	-0.198268	-0.389324	-0.0419752	0	0	0	0	0.0347562	0.535203	-0.928147	34	3	48295	4881064
123	-3.24168	0.0232736	9.15058	-1.06781	1.20727	-0.204879	-0.0324196	0.00023601	0.0915048	1	6.72438e-05	-1.5632e-05	-0.00024031	0.0134488	-0.00312641	-0.048062	0	0	0	0	0.0351054	0.534332	-0.934228	34	3	48299	4881464
124	2.02645	-1.21635	10.7904	2.49205	-2.13036	1.93152	0.020415	-0.0122806	0.107863	1	0.000506402	0.000719385	-0.000193193	0.10128	0.143877	-0.0386386	0	0	0	0	0.033625	0.5469	-0.926871	34	3	48302	4881764
125	-0.683454	0.996124	8.43235	-0.352392	0.323283	-0.44231	-0.00684191	0.00998433	0.0843201	1	-0.000116436	-7.36397e-05	-0.00025294	-0.0232872	-0.0147279	-0.0505881	0	0	0	0	0.0322989	0.540562	-0.926501	34	3	48305	4882064
126	-1.06611	-1.195	8.24925	-0.45502	-1.9862	-0.534734	-0.0105851	-0.0120303	0.0824906	1	0.000509436	0.000486361	-0.000178058	0.101887	0.0972721	-0.0356116	0	0	0	0	0.0312577	0.551229	-0.922219	34	3	48309	4882464
127	1.89955	1.02411	9.73652	2.77064	0.423621	0.921512	0.0189809	0.0102168	0.0973706	1	8.82297e-05	-9.50527e-05	-0.000186814	0.0176459	-0.0190105	-0.0373629	0	0	0	0	0.0267379	0.549128	-0.911638	34	3	48312	4882764
128	2.11883	-1.25824	10.431	2.24986	-2.09397	1.03512	0.0211331	-0.0125801	0.104322	1	-6.32275e-05	-0.000233258	-0.000259131	-0.0126455	-0.0466516	-0.0518263	0	0	0	0	0.0285276	0.552102	-0.915116	34	3	48315	4883064
129	0.909257	-0.555897	10.7833	1.51514	-0.778475	1.79553	0.00913472	-0.00555725	0.107829	1	-2.95929e-05	0.000208653	-0.000256097	-0.00591857	0.0417305	-0.0512194	0	0	0	0	0.0240196	0.548547	-0.905073	34	3	48318	4883364
130	-0.353002	-0.215444	8.4497	-0.16956	-1.23937	-0.409562	-0.00352504	-0.00217529	0.0844967	1	0.000137415	3.81324e-05	-0.000336879	0.0274831	0.00762649	-0.0673759	0	0	0	0	0.0243575	0.550575	-0.909575	34	3	48322	4883764
131	0.360515	0.362897	10.4566	0.857951	-0.692519	1.64943	0.00361945	0.00361845	0.104566	1	4.23395e-05	6.03908e-05	-0.000231128	0.00846791	0.0120782	-0.0462257	0	0	0	0	0.0235841	0.549482	-0.902525	34	3	48325	4884064
132	0.665294	0.67444	10.2863	0.900074	-0.0853485	1.01492	0.00662995	0.00673944	0.102865	1	5.15878e-06	-0.000131038	-0.000293757	0.00103176	-0.0262076	-0.0587515	0	0	0	0	0.0185035	0.542625	-0.898613	34	3	48329	4884464
133	0.868372	-0.137848	11.1068	1.21742	-1.40311	2.24824	0.00869588	-0.00141018	0.111067	1	0.000120395	5.83243e-05	-0.000285564	0.024079	0.0116649	-0.0571128	0	0	0	0	0.0229098	0.549761	-0.890394	34	3	48332	4884764
134	-0.115001	0.0238632	8.70564	-0.431194	-0.929946	-0.387445	-0.00116183	0.000223517	0.0870563	1	9.04741e-05	-6.86671e-05	-0.000276034	0.0180948	-0.0137334	-0.0552067	0	0	0	0	0.0213152	0.539417	-0.884051	34	3	48335	4885064
135	-1.54884	0.98709	10.8981	3.0053	0.748638	0.507979	-0.0154598	0.00990405	0.108983	1	-0.000123947	0.000113201	-0.00019829	-0.0247894	0.0226401	-0.039658	0	0	0	0	0.0274406	0.547169	-0.883907	34	3	48338	4885364
136	1.21145	0.749826	10.015	1.43477	-0.20497	0.63162	0.0120963	0.00743439	0.100157	1	0.000278757	-0.000115566	-0.000331891	0.0557515	-0.0231131	-0.0663781	0	0	0	0	0.0254531	0.542547	-0.869859	34	3	48342	4885764
137	-0.0811035	-0.189405	9.32922	0.381228	-1.4286	0.27085	-0.00077697	-0.00193515	0.0932917	1	0.000222906	0.000188978	-0.00031197	0.0445811	0.0377956	-0.062394	0	0	0	0	0.0300602	0.547475	-0.874821	34	3	48345	4886064
138	0.100405	0.484184	9.55145	-0.136431	-0.14587	0.237545	0.000974677	0.00481494	0.0955162	1	0.000137004	-0.000172525	-0.000371565	0.0274007	-0.0345051	-0.074313	0	0	0	0	0.0345012	0.54701	-0.850609	34	3	48349	4886464
139	-0.915307	0.0958125	8.33677	-1.15214	-0.188395	-0.861816	-0.00914659	0.000990253	0.083368	1	-0.000157844	3.51359e-05	-0.000317496	-0.0315688	0.00702718	-0.0634992	0	0	0	0	0.0326831	0.545021	-0.847614	34	3	48352	4886764
140	2.22095	0.227967	12.1158	2.85016	-0.689292	3.14252	0.0222051	0.00221593	0.12116	1	0.000210221	-2.33504e-05	-0.000288113	0.0420441	-0.00467009	-0.0576226	0	0	0	0	0.0387667	0.550528	-0.830853	34	3	48355	4887064
141	0.389391	-1.09843	9.14086	0.738122	-2.17926	0.164973	0.0038744	-0.0109991	0.0914076	1	6.58388e-05	-6.39133e-05	-0.000355731	0.0131678	-0.0127827	-0.0711462	0	0	0	0	0.0411837	0.547609	-0.832444	34	3	48358	4887364
142	0.413758	-2.08437	10.8833	0.560206	-2.90742	1.43393	0.00416065	-0.0208872	0.108824	1	0.000187099	0.00016847	-0.000326047	0.0374199	0.0336939	-0.0652095	0	0	0	0	0.0489375	0.555214	-0.824735	34	3	48362	4887764
143	-1.04172	0.63624	9.46737	-0.782874	0.110205	0.752298	-0.010395	0.00639219	0.0946741	1	-0.000113859	9.04835e-05	-0.000395394	-0.0227719	0.0180967	-0.0790787	0	0	0	0	0.0525901	0.54534	-0.819921	34	3	48365	4888064
144	1.11145	0.783647	11.8528	1.57007	-0.151538	2.99322	0.0111314	0.00781192	0.118528	1	6.70371e-05	4.57381e-05	-0.000389297	0.0134074	0.00914762	-0.0778594	0	0	0	0	0.0596346	0.546852	-0.82598	34	3	48369	4888464
145	-0.0778229	0.166573	8.62191	0.403298	-0.412817	-0.122156	-0.000812815	0.00165498	0.0862189	1	6.53841e-05	-0.000206981	-0.000332853	0.0130768	-0.0413963	-0.0665706	0	0	0	0	0.062465	0.537366	-0.815093	34	3	48372	4888764
146	-1.2171	1.58109	9.65291	-1.30968	1.26178	0.332508	-0.0121597	0.0158129	0.0965302	1	2.76694e-05	9.21595e-06	-0.000302407	0.00553388	0.00184319	-0.0604814	0	0	0	0	0.0722876	0.533632	-0.829363	34	3	48375	4889064
147	-1.00669	0.455487	8.7724	-0.555167	-0.282438	-0.0159519	-0.0100729	0.00454904	0.0877236	1	8.11453e-05	-5.61611e-05	-0.000417719	0.0162291	-0.0112322	-0.0835437	0	0	0	0	0.0795969	0.52724	-0.830044	34	3	48379	4889464
148	-2.69765	-0.577067	6.99295	-2.02889	-0.490238	-1.86793	-0.0269641	-0.00574557	0.0699363	1	-3.13125e-05	0.000120539	-0.000384047	-0.0062625	0.0241079	-0.0768094	0	0	0	0	0.0836979	0.518216	-0.84592	34	3	48382	4889764
149	-0.836787	0.248471	9.57023	-0.755065	-0.616754	0.491768	-0.00833972	0.00244731	0.0957057	1	0.000226946	0.000137758	-0.000361624	0.0453892	0.0275516	-0.0723248	0	0	0	0	0.0900455	0.513277	-0.845554	34	3	48385	4890064
150	-1.0094	-0.55457	10.1439	-0.947834	-1.67519	0.86782	-0.0101257	-0.00554815	0.101435	1	4.89135e-05	-0.000136061	-0.000369692	0.00978271	-0.0272123	-0.0739385	0	0	0	0	0.0928882	0.50413	-0.853852	34	3	48389	4890464
151	0.221053	0.224132	11.0238	0.206985	-0.267976	1.48879	0.00217218	0.00224451	0.110239	1	-2.17535e-05	-0.000181336	-0.00036494	-0.0043507	-0.0362673	-0.072988	0	0	0	0	0.0969729	0.50861	-0.860842	34	3	48392	4890764
152	0.550747	-0.386463	12.1538	0.30745	-1.66003	2.93239	0.00552557	-0.00393154	0.121535	1	0.00025081	9.17337e-05	-0.000538765	0.050162	0.0183467	-0.107753	0	0	0	0	0.0951083	0.5028	-0.862478	34	3	48396	4891164
153	0.0842457	0.125461	10.7532	0.247344	-0.719059	1.43807	0.000841184	0.00117973	0.107533	1	0.000342313	-1.44153e-05	-0.000750268	0.0684627	-0.00288306	-0.150054	0	0	0	0	0.0956852	0.506928	-0.87552	34	3	48399	4891464
154	-1.91463	-1.95108	8.02223	-2.15248	-2.51816	-1.09729	-0.0192218	-0.0194977	0.0802074	0.999999	0.00013278	-0.000253243	-0.000895837	0.0265561	-0.0506486	-0.179167	0	0	0	0	0.0882246	0.502964	-0.868503	34	3	48402	4891764
155	0.34153	0.0480505	11.7744	1.13892	-0.742739	3.21735	0.00345303	0.000497803	0.117743	0.999999	-9.93181e-05	0.000156518	-0.000886756	-0.0198636	0.0313037	-0.177351	0	0	0	0	0.0845042	0.506623	-0.880526	34	3	48405	4892064
156	-1.19528	0.115923	8.73898	-1.50701	-0.528955	-0.72359	-0.0119894	0.00115434	0.0873848	1	0.00013772	-0.000220124	-0.000801062	0.027544	-0.0440249	-0.160213	0	0	0	0	0.0749877	0.503252	-0.878537	34	3	48409	4892464
157	-1.02614	-1.34964	9.4787	-0.2455	-1.9002	1.22412	-0.0102531	-0.0134692	0.0947918	0.999999	-3.85512e-05	0.000181786	-0.000968914	-0.00771024	0.0363571	-0.193783	0	0	0	0	0.0681307	0.496651	-0.888248	34	3	48412	4892764
158	-4.02582	0.38247	6.84525	-4.04826	0.127401	-1.74216	-0.0402364	0.00390874	0.0684606	0.999999	-2.90877e-05	0.000103029	-0.000994527	-0.00581754	0.0206058	-0.198905	0	0	0	0	0.0638495	0.495206	-0.88725	34	3	48415	4893064
159	1.84351	0.35437	12.8327	2.09854	-0.928753	3.90585	0.0184156	0.00348491	0.128331	0.999999	0.000104582	-9.97461e-05	-0.000867072	0.0209164	-0.0199492	-0.173414	0	0	0	0	0.0528907	0.482209	-0.892034	34	3	48419	4893464
160	-1.19836	-1.38265	9.69605	-1.10072	-2.27383	1.23105	-0.0119491	-0.0138902	0.0969557	0.999999	0.000449264	0.000318011	-0.000981733	0.0898528	0.0636023	-0.196347	0	0	0	0	0.0492486	0.486292	-0.900512	34	3	48422	4893764
161	-0.4338	1.34618	9.89173	0.0012677	0.507118	0.842939	-0.00429778	0.013452	0.0989204	0.999999	8.89522e-05	8.03957e-05	-0.000903506	0.0177904	0.0160791	-0.180701	0	0	0	0	0.042319	0.471204	-0.899301	34	3	48425	4894064
162	-1.62776	-1.17975	7.83845	-1.81472	-1.89751	-0.977976	-0.016305	-0.0118186	0.0783757	0.999999	0.000315357	-4.4086e-05	-0.000869975	0.0630713	-0.00881721	-0.173995	0	0	0	0	0.0396425	0.472868	-0.909352	34	3	48429	4894464
163	-1.52767	0.414486	9.03975	-0.821221	0.540586	0.206969	-0.0152342	0.00416523	0.0904038	1	2.91252e-05	0.000196926	-0.000840211	0.00582503	0.0393853	-0.168042	0	0	0	0	0.0346189	0.464042	-0.904475	34	3	48432	4894764
164	-0.295166	0.720587	10.6283	0.4374	0.663741	1.8927	-0.00288226	0.00721847	0.106285	1	-3.7847e-05	0.000273504	-0.000780926	-0.00756941	0.0547009	-0.156185	0	0	0	0	0.0311035	0.465623	-0.909474	34	3	48435	4895064
165	-0.980139	-0.309944	9.4062	-1.48178	-0.533693	-0.0370455	-0.00980058	-0.00308692	0.0940625	0.999999	3.02231e-05	3.48393e-05	-0.000928602	0.00604461	0.00696786	-0.18572	0	0	0	0	0.0250676	0.467925	-0.898789	34	3	48439	4895464
166	1.03012	0.149432	12.8059	1.85809	-1.10695	3.91588	0.0103275	0.00142295	0.128058	1	0.000213872	9.36118e-05	-0.000804617	0.0427744	0.0187224	-0.160923	0	0	0	0	0.0211191	0.465139	-0.904893	34	3	48442	4895764
167	-0.757014	-0.350581	9.71411	-0.962829	-1.13168	0.662521	-0.00759872	-0.00352275	0.0971383	0.999999	0.000155417	-0.00011545	-0.000874405	0.0310835	-0.02309	-0.174881	0	0	0	0	0.0145243	0.468465	-0.896708	34	3	48445	4896064
168	-0.663312	-0.721689	9.48148	-0.519313	-1.98367	0.379841	-0.00663916	-0.00726367	0.0948108	0.999999	0.000313455	4.09853e-05	-0.000953351	0.062691	0.00819706	-0.19067	0	0	0	0	0.00737732	0.467992	-0.89416	34	3	48449	4896464
169	-2.12807	-0.183838	8.32007	-2.35417	-0.585907	-0.821427	-0.0213339	-0.00183557	0.0831871	0.999999	0.000208483	-0.000300674	-0.000879886	0.0416967	-0.0601348	-0.175977	0	0	0	0	0.000470808	0.473955	-0.897026	34	3	48452	4896764
170	0.740118	-0.0685464	11.1794	0.730987	-0.721619	1.95737	0.00737245	-0.000654701	0.111796	0.999999	-0.000199918	-0.00012284	-0.000943296	-0.0399837	-0.024568	-0.188659	0	0	0	0	-0.00698645	0.467579	-0.891578	34	3	48455	4897064
171	1.35349	0.748857	12.0499	1.70816	-0.194009	2.50176	0.0135276	0.0074834	0.1205	0.999999	-7.82529e-05	-8.55461e-05	-0.000887876	-0.0156506	-0.0171092	-0.177575	0	0	0	0	-0.0148642	0.471148	-0.896513	34	3	48459	4897464
172	0.210924	-0.974736	10.5312	-0.0406807	-1.74841	1.5986	0.00203872	-0.00971368	0.105316	0.999999	-0.000178715	-0.000246583	-0.0009548	-0.0357431	-0.0493167	-0.19096	0	0	0	0	-0.0208036	0.466151	-0.887	34	3	48462	4897764
173	-1.90317	1.32218	9.7224	-1.38593	0.715757	0.750429	-0.0189919	0.0131526	0.0972412	0.999999	0.000514717	9.4502e-05	-0.00081344	0.102944	0.0189004	-0.162688	0	0	0	0	-0.0234887	0.466857	-0.898083	34	3	48465	4898064
174	-0.3365	-0.535158	9.6374	-0.627744	-1.46215	0.31614	-0.00340895	-0.00539317	0.0963702	0.999999	0.000247124	-0.000178314	-0.000891921	0.0494248	-0.0356629	-0.178384	0	0	0	0	-0.0280379	0.46285	-0.89007	34	3	48469	4898464
175	-1.32363	-0.318326	8.91694	-0.976688	-1.3464	0.0357831	-0.0132413	-0.0032099	0.0891677	0.999999	0.000288922	5.69813e-06	-0.000939951	0.0577844	0.00113963	-0.18799	0	0	0	0	-0.0304534	0.457577	-0.894217	34	3	48472	4898764
176	-2.28045	0.380395	8.18545	-2.12384	0.0849041	-1.06176	-0.0227893	0.00386268	0.081856	0.999999	-8.90519e-05	4.72223e-05	-0.000968273	-0.0178104	0.00944446	-0.193655	0	0	0	0	-0.0313118	0.460882	-0.887574	34	3	48475	4899064
177	0.749924	0.249564	11.802	0.697111	-0.959307	2.77032	0.00747108	0.00242683	0.118023	0.999999	0.000232798	-0.000138628	-0.000925884	0.0465596	-0.0277255	-0.185177	0	0	0	0	-0.0355037	0.455517	-0.885653	34	3	48479	4899464
178	0.257059	0.675429	9.93565	0.378863	-0.353673	1.18798	0.0025402	0.00671843	0.0993597	0.999999	0.000156529	-0.00021611	-0.000931869	0.0313059	-0.043222	-0.186374	0	0	0	0	-0.0424373	0.4668	-0.885876	34	3	48482	4899764
179	-0.972888	-0.946365	10.0277	-1.36926	-2.06535	1.2212	-0.00970535	-0.00960867	0.100266	0.999999	0.00081484	0.000207359	-0.000946534	0.162968	0.0414718	-0.189307	0	0	0	0	-0.044487	0.460778	-0.875394	34	3	48485	4900064
180	-1.19568	0.651894	9.88143	-0.542657	-0.00615925	1.33893	-0.0119446	0.00657889	0.0988118	0.999999	-0.000182871	-4.38099e-06	-0.000996146	-0.0365741	-0.000876198	-0.199229	0	0	0	0	-0.0514248	0.471583	-0.876132	34	3	48489	4900464
181	-1.2865	-1.84472	8.44992	-1.79619	-2.2414	-0.699154	-0.0129156	-0.018433	0.0844947	0.999999	5.83107e-05	-9.52577e-05	-0.000935113	0.0116621	-0.0190516	-0.187023	0	0	0	0	-0.0562892	0.472278	-0.857912	34	3	48492	4900764
182	-0.42307	0.382732	9.4398	0.0465867	-0.324015	1.05875	-0.00418453	0.0038921	0.0943974	0.999999	-0.000300459	0.000205428	-0.000957172	-0.0600918	0.0410856	-0.191434	0	0	0	0	-0.0607726	0.481581	-0.857684	34	3	48495	4901064
183	-1.01003	0.337929	10.1709	-0.623583	-0.577313	1.26724	-0.0100796	0.00335467	0.101712	0.999999	0.000208169	7.30234e-05	-0.000878103	0.0416338	0.0146047	-0.175621	0	0	0	0	-0.0700481	0.485745	-0.840377	34	3	48499	4901464
184	0.3214	-2.98074	10.5102	-0.138127	-4.76179	1.63847	0.00314406	-0.0299117	0.105075	0.999999	0.000469763	-8.0779e-05	-0.000886774	0.0939527	-0.0161558	-0.177355	0	0	0	0	-0.0726909	0.476917	-0.83652	34	3	48502	4901764
185	-1.71147	1.46669	8.68231	-1.52191	1.23478	-0.538522	-0.0171048	0.0147107	0.0868176	0.999999	-8.11786e-05	-9.00391e-05	-0.000866996	-0.0162357	-0.0180078	-0.173399	0	0	0	0	-0.0753874	0.480175	-0.826334	34	3	48505	4902064
186	1.75887	-0.767213	13.335	1.61333	-2.77324	4.54095	0.0176576	-0.007817	0.133332	0.999999	0.000432817	0.000307027	-0.000835558	0.0865634	0.0614055	-0.167112	0	0	0	0	-0.0749878	0.469282	-0.817487	34	3	48509	4902464
187	-0.460963	-1.12688	10.6284	-0.727114	-1.82281	1.44632	-0.00464387	-0.0112834	0.106281	0.999999	0.000110708	-5.95762e-05	-0.000956868	0.0221417	-0.0119152	-0.191374	0	0	0	0	-0.0696376	0.470159	-0.814462	34	3	48512	4902764
188	0.286527	-0.2515	10.8651	0.951387	-1.60684	2.69404	0.00286136	-0.00252334	0.108651	0.999999	1.40906e-05	3.38306e-06	-0.000921914	0.00281812	0.000676613	-0.184383	0	0	0	0	-0.0653729	0.458258	-0.805655	34	3	48515	4903064
189	0.347802	1.65445	10.4195	0.630657	0.93261	1.13997	0.00346847	0.0164667	0.104208	1	0.000345687	-0.000179016	-0.000840992	0.0691373	-0.0358032	-0.168198	0	0	0	0	-0.0609646	0.458647	-0.802131	34	3	48519	4903464
190	-0.72401	0.113631	9.83175	-0.369552	-0.117254	0.495321	-0.00724747	0.0011631	0.0983166	0.999999	-6.08757e-05	-4.94212e-05	-0.00102319	-0.0121752	-0.00988425	-0.204639	0	0	0	0	-0.0537487	0.455349	-0.784561	34	3	48522	4903764
191	-1.46341	-1.40439	8.44002	-2.02456	-1.81441	-0.975347	-0.0146871	-0.0140489	0.0843902	0.999999	0.000197742	-0.000152886	-0.00096669	0.0395485	-0.0305773	-0.193338	0	0	0	0	-0.0473401	0.461796	-0.793538	34	3	48525	4904064
192	-0.336308	0.0146801	9.51028	-0.636528	-1.16377	0.542842	-0.00337208	8.12053e-05	0.0951026	0.999999	0.000378713	-4.84416e-05	-0.000955839	0.0757426	-0.00968832	-0.191168	0	0	0	0	-0.0350483	0.463431	-0.781437	34	3	48529	4904464
193	-1.09085	0.431651	9.05696	-1.597	-0.724986	-0.305479	-0.0109025	0.00430342	0.0905709	0.999999	0.000196014	-1.60192e-05	-0.00102806	0.0392027	-0.00320385	-0.205611	0	0	0	0	-0.0274083	0.462445	-0.784525	34	3	48532	4904764
194	-1.63127	-2.59738	8.28437	-1.81901	-2.96493	-0.295873	-0.0163653	-0.025947	0.0828417	0.999999	1.4142e-05	-3.81239e-05	-0.000890331	0.0028284	-0.00762479	-0.178066	0	0	0	0	-0.0195777	0.466139	-0.776398	34	3	48535	4905064
195	-0.399603	-1.3929	9.33166	-1.55521	-2.14158	-0.331535	-0.00399926	-0.0139606	0.0933118	0.999999	0.000211055	0.000128947	-0.000978806	0.0422111	0.0257893	-0.195761	0	0	0	0	-0.0117531	0.463573	-0.772955	34	3	48539	4905464
196	-0.270117	-2.43168	9.95351	-0.944037	-3.10696	0.532104	-0.00274566	-0.0242965	0.0995389	0.999999	-7.87536e-05	-1.26798e-05	-0.000863205	-0.0157507	-0.00253595	-0.172641	0	0	0	0	-0.00830938	0.46962	-0.785463	34	3	48542	4905764
197	-1.83366	0.418126	9.11584	-1.54937	-0.454028	0.143337	-0.0183467	0.00415963	0.0911574	0.999999	0.000311009	-9.88285e-05	-0.000956026	0.0622019	-0.0197657	-0.191205	0	0	0	0	-0.000450544	0.458355	-0.78676	34	3	48545	4906064
198	-0.86416	-3.05179	10.3009	-1.94537	-3.05858	0.824256	-0.00872742	-0.0305483	0.102993	1	0.000212044	-0.000189483	-0.000766218	0.0424088	-0.0378966	-0.153244	0	0	0	0	0.00727156	0.457176	-0.806519	34	3	48549	4906464
199	1.35754	0.238997	11.5815	1.40938	-1.07368	2.45152	0.0135906	0.00232852	0.115814	1	0.000196404	5.37953e-05	-0.000587344	0.0392807	0.0107591	-0.117469	0	0	0	0	0.0123837	0.446314	-0.801734	34	3	48552	4906764
200	0.9934	-0.171902	11.5379	1.05631	-1.45439	2.25682	0.00991459	-0.00174986	0.115381	1	7.74865e-05	-7.43086e-05	-0.000653238	0.0154973	-0.0148617	-0.130648	0	0	0	0	0.0192047	0.443652	-0.820007	34	3	48555	4907064
201	-0.746625	-0.394512	9.18904	-0.518789	-1.22134	0.329977	-0.00748192	-0.00399498	0.091887	1	0.000317639	-6.06517e-05	-0.000569457	0.0635278	-0.0121303	-0.113891	0	0	0	0	0.0287228	0.43883	-0.827734	34	3	48559	4907464
202	-0.948617	-0.456998	9.64363	-1.03291	-0.96972	1.29014	-0.00942209	-0.00459924	0.0964411	1	0.000199946	0.000355613	-0.000491872	0.0399893	0.0711226	-0.0983745	0	0	0	0	0.0366523	0.430271	-0.844122	34	3	48562	4907764
203	-1.23283	0.247636	9.53476	-0.891529	0.455856	0.748481	-0.0123111	0.00253107	0.0953484	1	-0.000227032	7.83779e-05	-0.000463506	-0.0454064	0.0156756	-0.0927012	0	0	0	0	0.0403294	0.433255	-0.849124	34	3	48565	4908064
204	-1.13485	0.466865	7.87236	-0.636324	-0.482222	-0.776484	-0.0113541	0.00464349	0.0787243	1	0.000193991	-4.95032e-05	-0.000237143	0.0387982	-0.00990063	-0.0474286	0	0	0	0	0.0488762	0.426038	-0.85892	34	3	48569	4908464
205	-2.10344	-0.406614	7.84991	-2.31	-0.238235	-1.31384	-0.0210027	-0.00404301	0.0785088	1	-8.87114e-05	0.000213335	-0.000218881	-0.0177423	0.042667	-0.0437762	0	0	0	0	0.0489122	0.435997	-0.870315	34	3	48572	4908764
206	-0.853071	1.49207	8.27852	-0.704618	1.09612	-1.08297	-0.00854564	0.0148906	0.0827891	1	0.000186348	-9.82862e-05	-4.52328e-05	0.0372696	-0.0196572	-0.00904657	0	0	0	0	0.0542805	0.429151	-0.872007	34	3	48575	4909064
207	-2.4885	-0.65496	8.2748	-2.92796	-0.723884	-0.992646	-0.0248762	-0.00653673	0.0827516	1	-4.2051e-05	6.23067e-05	-0.000118752	-0.0084102	0.0124613	-0.0237504	0	0	0	0	0.0513624	0.434364	-0.889555	34	3	48579	4909464
208	0.671237	-0.302931	11.552	1.03763	-1.96744	3.10027	0.0066794	-0.0030119	0.115522	1	-8.07561e-05	-0.000140273	-9.31836e-05	-0.0161512	-0.0280546	-0.0186367	0	0	0	0	0.0499594	0.431937	-0.889602	34	3	48582	4909764
209	1.44684	0.365807	11.1781	0.854856	-0.869998	1.62823	0.0143823	0.00365736	0.111792	1	-5.975e-06	-0.000387349	-7.07426e-05	-0.001195	-0.0774698	-0.0141485	0	0	0	0	0.0476435	0.42983	-0.907316	34	3	48585	4910064
210	-0.6916	0.1259	10.1807	-1.22526	-0.183108	0.940351	-0.00696851	0.00122181	0.101804	1	0.000186751	-0.000258596	-5.98589e-05	0.0373502	-0.0517193	-0.0119718	0	0	0	0	0.0456484	0.427488	-0.911904	34	3	48589	4910464
211	-0.733126	0.0876029	10.0529	-0.126165	-0.227654	1.54496	-0.00727024	0.000913695	0.100533	1	-0.000184166	0.000303124	-4.35745e-05	-0.0368332	0.0606248	-0.00871491	0	0	0	0	0.0407638	0.416499	-0.922732	34	3	48592	4910764
212	0.402064	0.107619	11.5976	0.746075	-1.99125	3.31711	0.00405576	0.000984335	0.115975	1	0.000392662	0.000150566	-9.58501e-05	0.0785324	0.0301132	-0.01917	0	0	0	0	0.0392052	0.416113	-0.927784	34	3	48595	4911064
213	1.40908	-2.57398	13.3235	0.519507	-4.85916	4.75735	0.0140656	-0.0258688	0.133213	1	0.000497844	-0.000119768	0.000131323	0.0995688	-0.0239537	0.0262645	0	0	0	0	0.0406377	0.407918	-0.934033	34	3	48599	4911464
214	-1.35586	0.306242	8.57539	-1.1646	-0.143659	0.00853658	-0.0135636	0.00305231	0.0857535	1	3.61423e-05	-2.40145e-05	0.000144222	0.00722846	-0.0048029	0.0288445	0	0	0	0	0.0398623	0.413919	-0.941977	34	3	48602	4911764
215	-1.84165	-2.50215	9.0045	-2.88889	-2.53844	0.147731	-0.0183315	-0.0250936	0.0900422	1	0.000332475	0.000379456	0.000332628	0.0664949	0.0758912	0.0665255	0	0	0	0	0.0405466	0.406057	-0.939125	34	3	48605	4912064
216	0.296728	1.71741	11.5957	0.478983	0.392894	2.10026	0.00291829	0.017145	0.115963	1	0.000135418	-0.000153837	0.000387742	0.0270835	-0.0307675	0.0775484	0	0	0	0	0.0397072	0.417406	-0.94594	34	3	48609	4912464
217	-0.721533	-0.398919	10.6272	-1.44509	-1.8678	1.46497	-0.00722316	-0.00409618	0.106267	1	0.00047737	-5.13948e-05	0.000383363	0.095474	-0.010279	0.0766726	0	0	0	0	0.0404065	0.418206	-0.936329	34	3	48612	4912764
218	-1.4537	-0.642622	7.09782	-1.89075	-0.477831	-2.13358	-0.0145931	-0.00644949	0.0709646	1	5.39391e-05	-0.000443203	0.000535757	0.0107878	-0.0886407	0.107151	0	0	0	0	0.0405535	0.428083	-0.943181	34	3	48615	4913064
219	-3.02749	-0.16887	8.42857	-2.86288	0.568881	-0.494415	-0.0303136	-0.00170682	0.0842715	1	-9.08434e-05	-0.000240647	0.000551869	-0.0181687	-0.0481293	0.110374	0	0	0	0	0.0387628	0.434748	-0.932923	34	3	48619	4913464
220	-2.83538	-0.445907	6.94404	-2.49658	0.524898	-2.07348	-0.0283707	-0.00447628	0.0694324	1	-0.000124076	-0.000160333	0.000607042	-0.0248153	-0.0320665	0.121408	0	0	0	0	0.0376639	0.431965	-0.940556	34	3	48622	4913764
221	-2.74524	-1.36172	8.5041	-2.20831	-1.72061	0.698665	-0.0273201	-0.0136601	0.0850767	1	4.88282e-05	0.000676092	0.000631737	0.00976564	0.135218	0.126348	0	0	0	0	0.0381592	0.437733	-0.935885	34	3	48625	4914064
222	-0.664383	1.81319	9.68577	-0.608666	0.992285	0.527641	-0.00668594	0.0181339	0.0968545	1	-5.86294e-05	-8.45298e-05	0.000709558	-0.0117259	-0.016906	0.141912	0	0	0	0	0.0425074	0.429973	-0.940623	34	3	48629	4914464
223	-1.85767	0.0899763	7.81193	-1.98008	0.0536308	-0.887926	-0.0185867	0.000883194	0.0781172	1	-3.60326e-05	-5.71945e-05	0.000597333	-0.00720652	-0.0114389	0.119467	0	0	0	0	0.0461081	0.438315	-0.944999	34	3	48632	4914764
224	-1.72001	-0.0323298	7.21446	-1.19526	0.662407	-1.51387	-0.017189	-0.000298739	0.0721474	1	-0.000328706	7.40161e-05	0.000665054	-0.0657412	0.0148032	0.133011	0	0	0	0	0.0511152	0.433795	-0.940072	34	3	48635	4915064
225	-1.37276	0.46709	9.13694	-0.977756	0.0367885	0.698235	-0.0137012	0.00469668	0.091372	1	-0.000231039	0.00017521	0.000599063	-0.0462077	0.035042	0.119813	0	0	0	0	0.0575286	0.442166	-0.947492	34	3	48639	4915464
226	-0.824762	0.73387	10.2811	-0.932969	0.0893008	1.35105	-0.00825455	0.00735608	0.102809	1	-0.000128989	5.86746e-06	0.0005541	-0.0257977	0.00117349	0.11082	0	0	0	0	0.0633741	0.448811	-0.939795	34	3	48642	4915764
227	-0.866702	-1.3125	8.44736	-2.08344	-1.53191	-1.07989	-0.00869726	-0.0131706	0.0844634	1	0.000199126	-0.000286425	0.000690266	0.0398253	-0.0572851	0.138053	0	0	0	0	0.0649716	0.455299	-0.948749	34	3	48645	4916064
228	-1.1029	-1.84737	9.5258	-1.70796	-2.67275	0.47675	-0.0110244	-0.0184665	0.0952599	1	-9.47939e-05	-7.07139e-05	0.000487775	-0.0189588	-0.0141428	0.097555	0	0	0	0	0.0711444	0.469763	-0.941891	34	3	48649	4916464
229	-2.20572	-0.335766	7.52004	-1.85333	-0.681	-1.20446	-0.0220881	-0.00337901	0.0751904	1	-2.46831e-05	-0.00023104	0.000567655	-0.00493662	-0.046208	0.113531	0	0	0	0	0.0762611	0.473702	-0.946372	34	3	48652	4916764
230	-0.168495	-1.20938	10.3227	-1.05132	-2.04427	1.1144	-0.00166941	-0.0120517	0.103232	1	-0.000213018	1.01553e-05	0.000556718	-0.0426035	0.00203106	0.111344	0	0	0	0	0.0761461	0.487278	-0.941524	34	3	48655	4917064
231	0.165887	-1.11611	11.0316	-0.507708	-1.3669	1.93099	0.001657	-0.0110794	0.110324	1	-0.000360917	-7.22991e-05	0.00063312	-0.0721833	-0.0144598	0.126624	0	0	0	0	0.0803817	0.487793	-0.945068	34	3	48659	4917464
232	0.107186	2.36988	10.7425	0.483323	1.85083	2.07083	0.00105539	0.0237275	0.107419	1	-0.000127257	6.79756e-05	0.000655088	-0.0254514	0.0135951	0.131018	0	0	0	0	0.0790275	0.496761	-0.954964	34	3	48662	4917764
233	-0.531536	-0.519178	8.77835	-1.51643	-0.526462	-0.586408	-0.0053445	-0.00522605	0.0877797	1	0.000157311	-0.00020298	0.000624082	0.0314621	-0.0405959	0.124816	0	0	0	0	0.0825206	0.489896	-0.954627	34	3	48665	4918064
234	-1.50633	-0.200017	9.58615	-1.77745	-1.46066	0.985773	-0.0150723	-0.00208185	0.0958583	1	0.000337497	-5.90152e-05	0.000563474	0.0674994	-0.011803	0.112695	0	0	0	0	0.0903637	0.493928	-0.965685	34	3	48669	4918464
235	-0.572049	-0.490234	10.6185	-1.05465	-1.26782	1.5194	-0.0057324	-0.00484696	0.106187	1	-0.000291175	-8.19733e-05	0.000564346	-0.0582351	-0.0163947	0.112869	0	0	0	0	0.0957703	0.491391	-0.962736	34	3	48672	4918764
236	0.635209	0.284219	11.0567	0.523957	-1.03533	1.83443	0.00633984	0.00282108	0.110569	1	0.00013136	-3.93507e-05	0.000625516	0.026272	-0.00787013	0.125103	0	0	0	0	0.0988587	0.492049	-0.973847	34	3	48675	4919064
237	0.275102	0.0671326	11.854	1.22831	-1.08449	3.61246	0.00276779	0.000706772	0.118539	1	-0.000138749	7.34066e-05	0.000462336	-0.0277498	0.0146813	0.0924672	0	0	0	0	0.107936	0.498766	-0.97172	34	3	48679	4919464
238	0.96984	-2.05408	11.7065	0.724485	-3.31029	3.29161	0.00972889	-0.0205168	0.117067	1	-6.32454e-05	4.6427e-05	0.00047773	-0.0126491	0.00928541	0.0955461	0	0	0	0	0.11255	0.49887	-0.979819	34	3	48682	4919764
239	0.73321	2.78645	11.7962	1.75293	1.25404	3.46657	0.00735613	0.0278933	0.117954	1	-0.000103964	0.000169462	0.000286016	-0.0207928	0.0338924	0.0572032	0	0	0	0	0.116205	0.510545	-0.979577	34	3	48685	4920064
240	-1.38362	-1.66101	10.5858	-1.69295	-1.57712	1.93627	-0.0137845	-0.0165836	0.105868	1	-0.000121458	0.000248653	-2.6842e-05	-0.0242915	0.0497305	-0.0053684	0	0	0	0	0.123738	0.508674	-0.987734	34	3	48689	4920464
241	0.975022	2.32592	11.5608	1.49667	2.62593	2.42553	0.00971979	0.0233898	0.115585	1	-0.000567031	-0.000137381	-2.86418e-05	-0.113406	-0.0274761	-0.00572835	0	0	0	0	0.124293	0.521492	-0.995533	34	3	48692	4920764
242	-0.688149	-0.327566	10.5155	-0.984209	-2.03305	1.67209	-0.00686393	-0.00334692	0.105154	1	0.000353797	9.06703e-05	-0.000228448	0.0707594	0.0181341	-0.0456895	0	0	0	0	0.12386	0.518569	-0.995596	34	3	48695	4921064
243	-0.145829	1.70082	10.7077	0.240761	0.808835	1.82567	-0.00146193	0.0170097	0.107077	1	-5.01785e-06	-4.06672e-05	-0.000148863	-0.00100357	-0.00813345	-0.0297725	0	0	0	0	0.126246	0.520839	-1.01475	34	3	48699	4921464
244	-0.246962	-3.1947	10.9448	-0.461747	-3.91954	2.56971	-0.0024944	-0.0319853	0.109436	1	0.000180587	-4.35564e-05	-0.000238388	0.0361174	-0.00871128	-0.0476776	0	0	0	0	0.12574	0.519416	-1.0168	34	3	48702	4921764
245	-1.2163	1.44597	10.5521	-0.254881	1.52028	2.44743	-0.0120782	0.0144434	0.105533	1	9.75858e-05	0.000377197	-0.000177933	0.0195172	0.0754394	-0.0355867	0	0	0	0	0.127007	0.520844	-1.04304	34	3	48705	4922064
246	-1.20195	1.7068	9.71547	-0.331381	1.42267	0.917718	-0.0119887	0.0171119	0.0971508	1	-0.000179663	9.29149e-05	-0.000373975	-0.0359325	0.018583	-0.0747951	0	0	0	0	0.128675	0.51716	-1.05626	34	3	48709	4922464
247	-0.867383	-2.44987	9.4825	-1.16755	-3.08308	0.675689	-0.00872736	-0.0244883	0.0948228	1	-3.15832e-05	-0.000217909	-0.000249029	-0.00631664	-0.0435819	-0.0498058	0	0	0	0	0.125637	0.508621	-1.06855	34	3	48712	4922764
248	-0.436753	-1.07011	10.429	0.0248645	-2.49108	2.28375	-0.00432934	-0.010721	0.10429	1	0.000105794	0.000208842	-0.00025058	0.0211588	0.0417683	-0.0501159	0	0	0	0	0.120923	0.517129	-1.07844	34	3	48715	4923064
249	-0.970531	-0.653898	8.64449	-1.62215	-1.05719	-0.31354	-0.009762	-0.0065348	0.0864389	1	1.2603e-05	-0.000303242	-0.000326605	0.0025206	-0.0606484	-0.0653209	0	0	0	0	0.118275	0.514918	-1.0901	34	3	48719	4923464
250	-0.673351	-1.35602	9.02295	-1.83948	-1.59944	-0.0309274	-0.00674081	-0.0136063	0.0902221	1	0.000269448	-1.18691e-05	-0.000189928	0.0538896	-0.00237381	-0.0379855	0	0	0	0	0.110424	0.527488	-1.10746	34	3	48722	4923764
251	-0.386416	0.315075	9.17501	-1.57481	0.0584198	-0.367603	-0.00387038	0.00321287	0.0917477	1	-0.000327725	-4.27857e-05	-0.00025582	-0.065545	-0.00855713	-0.051164	0	0	0	0	0.104104	0.527106	-1.11047	34	3	48725	4924064
252	-2.80154	-0.367779	7.90068	-3.33817	-0.352436	-1.23129	-0.0280119	-0.00371163	0.0790064	1	0.000286578	3.18673e-05	-0.000204187	0.0573157	0.00637347	-0.0408374	0	0	0	0	0.0928776	0.540192	-1.1278	34	3	48729	4924464
253	-1.08528	-0.761546	10.027	-0.842158	-0.4679	1.01644	-0.0108881	-0.00755431	0.100271	1	-0.000279167	-0.000158114	-0.000237242	-0.0558333	-0.0316228	-0.0474484	0	0	0	0	0.0823186	0.543152	-1.12466	34	3	48732	4924764
254	-1.68028	1.4227	8.80495	-0.837375	1.62233	0.288959	-0.016833	0.0142765	0.0880357	1	-0.000229638	-0.000214439	-0.000267378	-0.0459276	-0.0428878	-0.0534756	0	0	0	0	0.0689346	0.546439	-1.13867	34	3	48735	4925064
255	-1.11764	1.36441	8.80872	-0.754873	1.22578	-0.236076	-0.011181	0.0136892	0.0880796	1	-0.0002259	-6.26481e-05	-0.00023792	-0.04518	-0.0125296	-0.0475841	0	0	0	0	0.049613	0.55051	-1.13899	34	3	48739	4925464
256	-0.0863919	-2.88223	11.1239	-1.23631	-3.37941	1.59051	-0.000958603	-0.028859	0.111229	1	0.000166855	-0.000368253	-0.000221209	0.0333709	-0.0736506	-0.0442418	0	0	0	0	0.0356175	0.544393	-1.14512	34	3	48742	4925764
257	-1.93152	0.377842	8.86112	-2.09716	0.866026	-0.348971	-0.0193273	0.00377089	0.0886089	1	0.000100725	-7.99274e-05	-0.000267201	0.020145	-0.0159855	-0.0534402	0	0	0	0	0.0259633	0.54787	-1.14399	34	3	48745	4926064
258	-0.940189	0.244933	10.5091	-0.447379	-0.653044	1.95602	-0.00938682	0.00243523	0.105092	1	8.62523e-05	6.67279e-05	-0.000214612	0.0172505	0.0133456	-0.0429225	0	0	0	0	0.0107541	0.53967	-1.14208	34	3	48749	4926464
259	-0.0869911	0.46471	10.6278	-0.427233	-0.915194	1.43172	-0.000934402	0.00457538	0.10628	1	0.000338416	-0.000308346	-0.000113898	0.0676831	-0.0616692	-0.0227797	0	0	0	0	0.000896296	0.549559	-1.14485	34	3	48752	4926764
260	-0.302599	-1.20718	10.2529	-1.28402	-2.61852	1.15826	-0.00305628	-0.0121305	0.102521	1	0.000293522	-0.000119319	-0.000240343	0.0587044	-0.0238638	-0.0480685	0	0	0	0	-0.0102861	0.54457	-1.13329	34	3	48755	4927064
261	0.20155	-0.844048	11.2411	-0.212888	-1.90422	2.26435	0.00201101	-0.00847472	0.112408	1	0.000148943	-5.77864e-06	-0.000188381	0.0297887	-0.00115573	-0.0376761	0	0	0	0	-0.0233356	0.55195	-1.13054	34	3	48759	4927464
262	-0.167488	0.999458	11.2071	-0.00192626	0.540577	2.14246	-0.00169277	0.0100203	0.112068	1	-0.000110596	-0.000103199	-0.000262219	-0.0221191	-0.0206399	-0.0524439	0	0	0	0	-0.0302345	0.555632	-1.11477	34	3	48762	4927764
263	-1.72572	0.249463	9.76258	-1.73113	-0.186399	0.702647	-0.0172847	0.00252691	0.0976201	1	-0.000113796	-0.000148267	-0.000291327	-0.0227593	-0.0296535	-0.0582653	0	0	0	0	-0.0389949	0.563969	-1.11303	34	3	48765	4928064
264	2.22499	0.366091	12.7778	2.18436	-0.919197	3.44727	0.0221819	0.00365642	0.12779	1	-4.19918e-06	-0.000269399	-0.000125292	-0.000839837	-0.0538797	-0.0250584	0	0	0	0	-0.049709	0.570069	-1.09416	34	3	48769	4928464
265	-1.8197	1.38729	9.01959	-1.48769	1.34129	0.0661001	-0.018188	0.0139134	0.0901915	1	-0.000163942	3.9088e-06	-0.000300322	-0.0327885	0.00078176	-0.0600644	0	0	0	0	-0.0619144	0.568023	-1.08303	34	3	48772	4928764
266	-0.466462	-1.32589	10.9892	-0.445858	-2.87506	2.76711	-0.00466619	-0.0132925	0.109888	1	0.000160947	1.58403e-05	-0.000190265	0.0321894	0.00316807	-0.038053	0	0	0	0	-0.0670811	0.575204	-1.07275	34	3	48775	4929064
267	-1.93272	-2.16633	8.19822	-2.4202	-1.66327	-0.699028	-0.0193319	-0.0216167	0.0819934	1	-0.000235436	2.62792e-05	-0.000208135	-0.0470873	0.00525585	-0.041627	0	0	0	0	-0.0780959	0.566719	-1.05673	34	3	48779	4929464
268	-3.00864	1.47813	7.05539	-2.64458	1.85563	-1.71653	-0.0300963	0.0147749	0.0705511	1	0.000137395	-0.000114858	-0.000216008	0.027479	-0.0229716	-0.0432017	0	0	0	0	-0.0800123	0.566247	-1.05673	34	3	48782	4929764
266	-2.92734	-2.00205	7.14887	-3.35075	-2.45702	-1.43554	-0.0292836	-0.0200549	0.0714749	1	0.000285047	-4.07857e-05	-0.00010772	0.0570094	-0.00815715	-0.021544	0	0	0	0	-0.0856409	0.555722	-1.03825	34	3	48785	4930064
270	-2.15795	0.384109	8.13004	-1.97365	0.538998	-0.595741	-0.0215645	0.00384921	0.081304	1	-1.95432e-06	8.38602e-05	-0.000180656	-0.000390864	0.016772	-0.0361311	0	0	0	0	-0.0859336	0.553179	-1.03224	34	3	48789	4930464
271	-0.518807	0.163925	10.5418	-0.344659	-0.654757	1.51514	-0.0051371	0.00157919	0.105422	1	0.000289699	0.000240211	-9.9196e-05	0.0579398	0.0480422	-0.0198392	0	0	0	0	-0.0854705	0.548022	-1.0167	34	3	48792	4930764
272	-1.81598	-0.792283	9.65279	-1.81756	-1.46552	1.02553	-0.0181784	-0.00792308	0.0965244	1	4.25427e-05	-7.81332e-05	-0.000219097	0.00850855	-0.0156266	-0.0438193	0	0	0	0	-0.0838872	0.54839	-1.01064	34	3	48795	4931064
273	-0.57714	-0.990502	10.5077	-1.12236	-1.47604	1.23436	-0.00576849	-0.00992108	0.105075	1	8.99436e-05	3.70569e-05	-0.000245685	0.0179887	0.00741139	-0.0491371	0	0	0	0	-0.079068	0.547514	-0.990985	34	3	48799	4931464
274	0.877228	1.76458	11.1237	0.966377	-0.217409	1.69481	0.00873603	0.0175504	0.111255	1	0.00041423	-0.000192708	-0.000188101	0.0828459	-0.0385416	-0.0376201	0	0	0	0	-0.0753604	0.542419	-0.980509	34	3	48802	4931764
275	-0.859532	0.211605	10.3199	-0.502147	0.0509581	1.24854	-0.00857563	0.00217295	0.103199	1	-0.000250428	8.91156e-05	-0.000303528	-0.0500857	0.0178231	-0.0607055	0	0	0	0	-0.0717805	0.549465	-0.966733	34	3	48805	4932064
276	-0.618653	1.10706	9.27403	-0.750957	0.522553	-0.276072	-0.0062363	0.0110814	0.0927357	1	-4.44898e-05	-0.000293451	-0.000210217	-0.00889797	-0.0586903	-0.0420433	0	0	0	0	-0.0664365	0.543735	-0.948702	34	3	48809	4932464
277	-2.27662	0.604184	8.35346	-1.78429	-0.606297	0.0267012	-0.0227164	0.00600607	0.0835508	1	0.0002757	0.000281711	-0.000226413	0.05514	0.0563421	-0.0452826	0	0	0	0	-0.0625786	0.546105	-0.946647	34	3	48812	4932764
278	-0.29663	-0.992783	10.6282	-0.907819	-1.49259	1.12036	-0.0030067	-0.00988463	0.106285	1	-0.00019593	-0.000165856	-0.000259888	-0.039186	-0.0331712	-0.0519777	0	0	0	0	-0.0606156	0.537522	-0.93119	34	3	48815	4933064
279	-0.498263	0.429447	10.2349	0.400367	-0.350504	1.97937	-0.00495067	0.00434756	0.102348	1	-0.000254059	0.000151514	-0.000109217	-0.0508119	0.0303028	-0.0218433	0	0	0	0	-0.0513723	0.534962	-0.928765	34	3	48819	4933464
280	-0.363642	-1.68984	10.3774	-1.16569	-2.41817	0.847453	-0.00366736	-0.0169161	0.10377	1	9.03321e-05	-0.000125544	-0.000144532	0.0180664	-0.0251088	-0.0289063	0	0	0	0	-0.0471105	0.526918	-0.917347	34	3	48822	4933764
281	-1.54565	0.0173858	9.69394	-1.12604	-0.349516	0.648155	-0.0154169	0.00017893	0.0969458	1	-2.66906e-05	0.000204295	3.34356e-06	-0.00533813	0.0408589	0.000668711	0	0	0	0	-0.0374981	0.521545	-0.921551	34	3	48825	4934064
282	0.302756	-0.242978	11.8178	0.30568	-0.73079	2.57086	0.00301508	-0.00238842	0.118179	1	-0.000172499	-5.47891e-05	9.70015e-05	-0.0344998	-0.0109578	0.0194003	0	0	0	0	-0.0270809	0.512076	-0.915244	34	3	48829	4934464
283	-1.70251	-1.06683	8.78688	-1.7006	-1.7102	0.294284	-0.0170494	-0.0107354	0.0878559	1	0.00033707	-0.000166304	0.000230727	0.067414	-0.0332608	0.0461454	0	0	0	0	-0.0171866	0.500714	-0.912006	34	3	48832	4934764
284	-2.62675	1.23993	6.50816	-1.89382	1.08075	-2.08894	-0.0262787	0.0123378	0.0650888	1	0.000307155	-8.3233e-06	0.000409295	0.061431	-0.00166466	0.081859	0	0	0	0	-0.00508415	0.502005	-0.907993	34	3	48835	4935064
285	-0.669288	-1.12747	9.93975	-1.17241	-2.30429	0.916348	-0.00672983	-0.0112984	0.0993923	1	8.7731e-05	-0.000238566	0.000463833	0.0175462	-0.0477132	0.0927667	0	0	0	0	0.00579755	0.492063	-0.902709	34	3	48839	4935464
286	-1.13862	-0.268918	9.25807	-0.820893	-0.822335	0.409213	-0.0113933	-0.00275181	0.092578	1	0.000265288	-5.56846e-05	0.000592906	0.0530575	-0.0111369	0.118581	0	0	0	0	0.017071	0.498913	-0.909174	34	3	48842	4935764
287	-1.79674	0.65816	8.75123	-1.83914	-0.00484062	-0.36736	-0.0179702	0.00657872	0.0875119	1	-0.000109062	2.99958e-05	0.000611432	-0.0218124	0.00599916	0.122286	0	0	0	0	0.0260377	0.492834	-0.900765	34	3	48845	4936064
288	-2.37438	1.12071	7.56544	-1.81584	0.519371	-1.41958	-0.0237845	0.0111518	0.0756498	1	0.000111169	-0.000149428	0.000810396	0.0222337	-0.0298855	0.162079	0	0	0	0	0.0393538	0.496209	-0.904792	34	3	48849	4936464
289	0.881552	0.92447	11.9719	1.42963	-1.11999	3.74262	0.00883914	0.00923784	0.119718	0.999999	9.7186e-05	0.000170366	0.000929226	0.0194372	0.0340732	0.185845	0	0	0	0	0.0438926	0.493129	-0.898315	34	3	48852	4936764
290	-0.877766	-0.632003	9.65962	-0.889223	-0.574185	0.579386	-0.0087719	-0.00629352	0.0965985	0.999999	-0.000222797	-3.16768e-05	0.000942285	-0.0445593	-0.00633537	0.188457	0	0	0	0	0.0514373	0.489804	-0.90701	34	3	48855	4937064
291	-1.71375	0.874883	8.49735	-1.93872	-0.364819	-0.650642	-0.0171393	0.00867433	0.0849808	0.999999	0.000229036	9.58167e-05	0.00103794	0.0458072	0.0191633	0.207588	0	0	0	0	0.0643487	0.487826	-0.911659	34	3	48859	4937464
292	-1.6455	-0.0263154	8.90031	-1.43676	0.1142	0.0505815	-0.0164647	-0.000261617	0.0890013	0.999999	-0.000209479	-5.75831e-05	0.00108602	-0.0418959	-0.0115166	0.217205	0	0	0	0	0.0682875	0.47279	-0.918577	34	3	48862	4937764
293	1.00039	-1.00222	12.4857	0.383095	-2.16382	2.70773	0.00997894	-0.0100192	0.124859	0.999999	8.29113e-05	-0.000195205	0.00118637	0.0165823	-0.0390411	0.237274	0	0	0	0	0.074961	0.471334	-0.922176	34	3	48865	4938064
294	-0.204474	0.0913694	10.7267	0.40425	-1.06841	2.32205	-0.00204659	0.000905674	0.107267	0.999999	1.24412e-05	2.4901e-06	0.00130797	0.00248824	0.00049802	0.261594	0	0	0	0	0.0857493	0.452304	-0.927194	34	3	48869	4938464
295	-1.30759	0.25629	9.19188	-1.48408	-0.390511	0.401003	-0.013126	0.0025501	0.0919121	0.999999	-0.000146138	-0.000230034	0.00151408	-0.0292277	-0.0460069	0.302816	0	0	0	0	0.0911475	0.449157	-0.944966	34	3	48872	4938764
296	0.61821	0.262162	11.3332	0.359611	-0.977419	1.97823	0.00615507	0.00264667	0.113333	0.999999	-1.61713e-05	-7.89756e-05	0.00173345	-0.00323427	-0.0157951	0.346691	0	0	0	0	0.0971886	0.437349	-0.942226	34	3	48875	4939064
297	-0.834262	1.43991	11.0908	-0.489676	0.822926	2.22583	-0.00838533	0.0144314	0.1109	0.999998	-0.000290783	5.755e-05	0.00192412	-0.0581567	0.01151	0.384824	0	0	0	0	0.109453	0.432123	-0.956036	34	3	48879	4939464
298	-2.25002	1.17223	8.1799	-1.99798	0.543367	-0.643233	-0.0225386	0.0116313	0.0818014	0.999997	-5.06925e-05	7.99393e-05	0.00220428	-0.0101385	0.0159879	0.440857	0	0	0	0	0.114893	0.430525	-0.951046	34	3	48882	4939764
299	-0.372146	0.590776	9.83767	-0.0386967	-0.589342	0.913013	-0.00378401	0.00587431	0.0983763	0.999997	7.88845e-05	-0.000174845	0.0023889	0.0157769	-0.034969	0.47778	0	0	0	0	0.120932	0.425812	-0.9633	34	3	48885	4940064
300	-0.643997	0.948538	10.6288	-0.518887	0.149384	1.78284	-0.00648617	0.00951026	0.106283	0.999997	-0.000275241	1.5155e-05	0.00260148	-0.0550482	0.00303101	0.520296	0	0	0	0	0.123379	0.424798	-0.962324	34	3	48889	4940464
301	-1.42063	1.50153	8.68667	-1.00618	1.43219	0.068337	-0.0143062	0.0150029	0.0868525	0.999996	-0.000386818	-9.28351e-05	0.00279282	-0.0773637	-0.018567	0.558565	0	0	0	0	0.125856	0.417498	-0.964518	34	3	48892	4940764
302	-2.67948	1.20683	7.90215	-2.60304	0.521873	-1.15205	-0.0268643	0.0119277	0.0790192	0.999995	-0.000157835	2.86624e-05	0.00308532	-0.0315671	0.00573248	0.617065	0	0	0	0	0.128587	0.419515	-0.969536	34	3	48895	4941064
303	-0.817411	0.666989	9.93191	-0.694009	-0.408672	0.926921	-0.00821678	0.00665211	0.0993168	0.999994	-0.000201055	2.13245e-05	0.00352123	-0.0402111	0.00426491	0.704248	0	0	0	0	0.126861	0.408303	-0.969272	34	3	48899	4941464
304	-0.64577	1.46799	11.4964	-0.474683	0.952581	2.34003	-0.00662007	0.0147347	0.114948	0.999993	-0.000446372	-0.000237951	0.0036601	-0.0892745	-0.0475903	0.732021	0	0	0	0	0.13043	0.407512	-0.981428	34	3	48902	4941764
305	-0.763958	-1.18597	10.4552	-0.193248	-2.09673	1.46798	-0.00760448	-0.0118951	0.10455	0.999992	-0.000115261	-0.000275501	0.00390299	-0.0230524	-0.0551003	0.7806	0	0	0	0	0.127431	0.391851	-0.977216	34	3	48905	4942064
306	-2.19006	1.21091	8.78658	-1.95151	0.931752	-0.100266	-0.0219849	0.0119954	0.0878604	0.999992	-0.000356777	7.15333e-05	0.00401888	-0.0713557	0.0143067	0.803779	0	0	0	0	0.133955	0.384721	-0.991042	34	3	48909	4942464
307	-0.0433747	1.40483	10.175	-0.0963366	0.466993	1.10125	-0.000608302	0.0141025	0.101741	0.999991	-0.000287932	-0.000267318	0.00426832	-0.0575865	-0.0534639	0.853666	0	0	0	0	0.135202	0.376313	-0.985173	34	3	48912	4942764
308	-0.721408	2.35149	8.62712	-0.561141	1.61754	0.53006	-0.00739913	0.0234835	0.0862641	0.999991	-0.000172525	6.85005e-05	0.00418877	-0.0345052	0.0137001	0.837757	0	0	0	0	0.139497	0.368111	-0.992446	34	3	48915	4943064
309	-1.58045	1.80565	8.87561	-2.03339	1.28133	-0.524381	-0.0159405	0.0179445	0.0887545	0.99999	-0.000158949	0.000129952	0.00441576	-0.03179	0.0259904	0.883155	0	0	0	0	0.144982	0.365999	-0.985953	34	3	48919	4943464
310	-1.70584	0.573861	9.08259	-1.31408	-0.266169	0.631589	-0.0170813	0.00567689	0.0908256	0.999991	-0.00045883	0.000141301	0.00424935	-0.0917664	0.0282603	0.849873	0	0	0	0	0.148116	0.356156	-0.982651	34	3	48922	4943764
311	-1.27002	1.78887	8.76428	-1.79671	0.973407	-0.0913627	-0.0128514	0.0178651	0.0876255	0.99999	-0.000493877	1.70664e-05	0.00431146	-0.0987757	0.0034133	0.862294	0	0	0	0	0.154833	0.360933	-0.98005	34	3	48925	4944064
312	-0.741342	1.48394	9.92589	-0.0307306	0.540979	1.49909	-0.00749903	0.0148061	0.0992574	0.999991	-0.000159898	0.000220238	0.00436232	-0.0319798	0.0440477	0.872467	0	0	0	0	0.155242	0.355333	-0.967045	34	3	48929	4944464
313	-0.537673	1.04981	10.9085	0.140905	-0.0706456	2.02882	-0.00546934	0.0105329	0.109077	0.999991	-0.000371014	-1.49233e-05	0.00424847	-0.0742031	-0.00298467	0.849696	0	0	0	0	0.161848	0.360191	-0.968988	34	3	48932	4944764
314	1.76279	3.17823	12.5119	2.17805	2.76444	4.20424	0.0173567	0.0320229	0.125096	0.99999	-0.000343628	4.33237e-05	0.00442043	-0.0687259	0.00866477	0.884089	0	0	0	0	0.161188	0.355159	-0.960006	34	3	48935	4945064
315	-0.582006	0.859536	10.2907	-0.489973	0.284305	1.28313	-0.00586588	0.00861127	0.102903	0.999991	-0.000320163	0.000134933	0.00427723	-0.0640328	0.0269867	0.855449	0	0	0	0	0.162974	0.359099	-0.962957	34	3	48939	4945464
316	-1.74468	-0.398164	8.29881	-1.18999	-1.4302	-0.799546	-0.0174444	-0.00407038	0.0829843	0.99999	-0.000393303	-0.000199794	0.00441412	-0.0786608	-0.0399588	0.882827	0	0	0	0	0.165202	0.354043	-0.953988	34	3	48942	4945764
317	-2.63739	1.41518	7.4114	-2.56794	0.203813	-1.43078	-0.0265011	0.0139657	0.0741039	0.999991	-0.000296175	-3.36621e-05	0.004349	-0.0592352	-0.00673243	0.869802	0	0	0	0	0.169946	0.352124	-0.958093	34	3	48945	4946064
318	1.59461	2.85088	11.6304	0.723099	2.43411	2.3224	0.01565	0.0287196	0.116292	0.99999	-0.000302287	-0.000179037	0.00444625	-0.0604576	-0.0358075	0.889253	0	0	0	0	0.178406	0.343177	-0.952775	34	3	48949	4946464
319	-1.07339	0.964958	9.59115	-1.01757	0.526914	0.686793	-0.0108467	0.00963515	0.0959003	0.999991	-0.000405165	-0.000158907	0.00426962	-0.0810333	-0.0317815	0.853926	0	0	0	0	0.180543	0.33626	-0.948898	34	3	48952	4946764
320	-2.39235	2.0469	8.3555	-2.79178	0.171344	-0.498493	-0.0240939	0.0203273	0.0835406	0.99999	-0.000405967	4.52484e-05	0.00436361	-0.0811936	0.0090497	0.872725	0	0	0	0	0.192138	0.334683	-0.947977	34	3	48955	4947064
321	0.499094	2.12006	10.9795	0.0893116	1.82836	2.56627	0.00486196	0.021323	0.109777	0.999991	-0.000363067	0.00025209	0.00433484	-0.0726137	0.0504182	0.86697	0	0	0	0	0.197945	0.324143	-0.934096	34	3	48959	4947464
322	-0.843924	2.08146	9.96242	-2.5149	0.492775	0.114898	-0.00868927	0.0208133	0.099603	0.99999	-0.000365635	-0.000350037	0.00433076	-0.0731273	-0.0700076	0.866155	0	0	0	0	0.210275	0.327544	-0.939128	34	3	48962	4947764
323	-0.889793	3.00072	9.0325	-1.66629	1.80721	-0.211787	-0.00917066	0.0299888	0.0903038	0.99999	-0.000332989	-6.58768e-05	0.00434744	-0.066598	-0.0131754	0.869491	0	0	0	0	0.215145	0.319885	-0.922149	34	3	48965	4948064
324	-0.297719	3.56594	10.1655	-2.60966	1.95439	0.266761	-0.00331281	0.0356391	0.101652	0.999991	-3.30463e-05	-0.000140766	0.00430579	-0.00660927	-0.0281532	0.86116	0	0	0	0	0.229677	0.319693	-0.91818	34	3	48969	4948464
325	-0.888052	1.60351	9.9963	-0.927895	0.23539	0.851916	-0.00902382	0.0160011	0.0999557	0.99999	-0.000222668	-1.43079e-05	0.00438385	-0.0445337	-0.00286158	0.876774	0	0	0	0	0.238189	0.317936	-0.905632	34	3	48972	4948764
326	0.0422954	1.02443	9.74511	0.0386189	0.330073	0.992764	0.000327395	0.0102901	0.0974467	0.99999	-0.000218256	-3.11338e-05	0.0043581	-0.0436513	-0.00622678	0.871624	0	0	0	0	0.244439	0.317405	-0.906177	34	3	48975	4949064
327	-0.241545	1.73468	10.3391	-0.168739	0.200715	1.75275	-0.00255432	0.0173724	0.103383	0.99999	-0.000230644	7.61036e-05	0.00445304	-0.0461289	0.0152208	0.89061	0	0	0	0	0.260668	0.312197	-0.895257	34	3	48979	4949464
328	-0.692518	0.405089	10.4664	0.120416	-0.588545	2.16618	-0.00693947	0.00405473	0.104663	0.99999	-0.000308071	0.00010107	0.00437375	-0.0616145	0.0202141	0.874753	0	0	0	0	0.258096	0.304282	-0.887845	34	3	48982	4949764
329	0.7856	2.55169	11.5269	-0.991771	2.49704	2.4917	0.00762102	0.0256328	0.115259	0.99999	-0.000204092	-3.12923e-05	0.00445281	-0.0408185	-0.00625848	0.890565	0	0	0	0	0.27303	0.302216	-0.888465	34	3	48985	4950064
330	0.37174	2.06285	9.81945	-0.961432	2.20882	1.0417	0.00350392	0.0207001	0.0981873	0.99999	-0.0002033	-0.000163686	0.00438771	-0.0406602	-0.0327373	0.877545	0	0	0	0	0.278856	0.283953	-0.879301	34	3	48989	4950464
331	-1.33772	0.740094	9.5819	-0.931526	-0.614673	0.347087	-0.0134641	0.00734094	0.0958115	0.99999	-0.00030301	-0.000114797	0.00439876	-0.0606021	-0.0229595	0.879756	0	0	0	0	0.293571	0.279637	-0.890577	34	3	48992	4950764
332	0.698534	3.6043	10.55	-0.935457	2.71021	1.53587	0.00663991	0.0361403	0.105489	0.999991	-0.000183588	-0.000165896	0.00430053	-0.0367177	-0.0331793	0.860108	0	0	0	0	0.299854	0.264279	-0.880341	34	3	48995	4951064
333	-0.55873	1.43613	11.059	-1.29316	0.543111	1.90246	-0.00570922	0.0143511	0.110585	0.999992	-0.000159448	-2.95845e-05	0.00401831	-0.0318896	-0.00591691	0.803665	0	0	0	0	0.31813	0.256422	-0.886155	34	3	48999	4951464
334	-1.01689	1.31099	8.60907	-0.876586	-0.865337	-0.403139	-0.0102852	0.0130402	0.0860875	0.999992	-7.08232e-05	-6.68346e-05	0.00400731	-0.0141647	-0.0133669	0.801463	0	0	0	0	0.329509	0.246945	-0.879853	34	3	49002	4951764
335	-1.12596	-0.209924	9.19456	-0.438698	-0.367685	0.273714	-0.0112405	-0.00205356	0.0919489	0.999992	-0.0007231	1.59722e-05	0.00388008	-0.14462	0.00319446	0.776017	0	0	0	0	0.340072	0.243018	-0.883524	34	3	49005	4952064
336	-0.821483	3.52685	8.65306	-3.33876	0.958948	-0.706125	-0.00847267	0.0352361	0.0865189	0.999992	-0.00019111	0.000109467	0.00392578	-0.0382221	0.0218935	0.785158	0	0	0	0	0.359153	0.232511	-0.877785	34	3	49009	4952464
337	-2.41311	1.89382	8.22822	-2.43336	-0.82214	-0.317513	-0.0242813	0.0187978	0.0822702	0.999992	-0.000284552	-2.57927e-05	0.00386741	-0.0569106	-0.00515856	0.773483	0	0	0	0	0.363288	0.225524	-0.870889	34	3	49012	4952764
338	-0.915201	0.303722	9.47199	-0.545651	-0.446354	0.726678	-0.00919797	0.0030839	0.094714	0.999992	-0.000624079	-0.000116644	0.00389863	-0.124816	-0.0233288	0.779728	0	0	0	0	0.37677	0.221067	-0.873575	34	3	49015	4953064
339	-1.26401	1.07017	9.85214	-1.22853	-0.517149	0.530113	-0.0127178	0.0107232	0.0985091	0.999992	-0.000603926	2.42835e-05	0.00384696	-0.120785	0.0048567	0.769395	0	0	0	0	0.379628	0.206261	-0.865332	34	3	49019	4953464
340	0.00194661	2.68676	9.8661	-2.18271	1.36499	1.07032	-0.000224822	0.0269679	0.0986333	0.999992	-0.000512766	-0.000173878	0.00390042	-0.102554	-0.0347757	0.780087	0	0	0	0	0.391901	0.201992	-0.87811	34	3	49022	4953764
341	-0.325645	0.28606	9.05021	0.18438	-0.893784	-0.438601	-0.00331315	0.00282396	0.0905012	0.999992	6.11803e-05	-0.000190987	0.00389236	0.0122361	-0.0381974	0.778474	0	0	0	0	0.390963	0.18766	-0.867313	34	3	49025	4954064
342	-0.933003	1.455	9.16806	-1.76693	0.160441	0.248261	-0.00946613	0.0145385	0.0916684	0.999993	-0.000324737	-0.000142469	0.00378086	-0.0649476	-0.0284938	0.756173	0	0	0	0	0.39857	0.171762	-0.882348	34	3	49029	4954464
343	0.765251	2.29621	11.9468	-1.03832	1.70427	3.20127	0.00750434	0.0230687	0.119457	0.999993	-0.000203839	0.00011624	0.00382226	-0.0407678	0.023248	0.764455	0	0	0	0	0.407993	0.154614	-0.882772	34	3	49032	4954764
344	-0.346025	0.650803	9.77982	-0.140258	-0.428366	0.793696	-0.00349574	0.00650997	0.0977968	0.999993	-0.000138616	5.94167e-05	0.00361928	-0.0277232	0.0118834	0.723858	0	0	0	0	0.411781	0.142098	-0.894179	34	3	49035	4955064
345	-0.140066	1.28926	10.2735	-1.83857	0.628051	1.22346	-0.0014547	0.0129723	0.102724	0.999994	-0.000435693	0.000169172	0.0034332	-0.0871387	0.0338344	0.686641	0	0	0	0	0.42493	0.126453	-0.898628	34	3	49039	4955464
346	-1.45884	1.39169	10.3224	-1.37442	0.109943	2.04775	-0.0145855	0.0138712	0.103231	0.999994	-0.000242514	0.000455932	0.00328405	-0.048503	0.0911865	0.656812	0	0	0	0	0.424133	0.11574	-0.899368	34	3	49042	4955764
347	0.204944	2.09574	10.8342	-1.69405	1.39493	2.29349	0.00190712	0.0210777	0.108321	0.999995	-0.000496097	-2.8304e-05	0.00323987	-0.0992197	-0.00566081	0.647974	0	0	0	0	0.438519	0.106017	-0.908236	34	3	49045	4956064
348	-1.09865	0.629534	9.47025	-0.905756	-0.640753	0.169455	-0.0109887	0.00628773	0.0947027	0.999995	-0.0003307	0.000200916	0.00319657	-0.0661401	0.0401832	0.639316	0	0	0	0	0.437931	0.0951502	-0.900394	34	3	49049	4956464
349	-0.402732	1.77707	10.9492	-1.34963	0.143036	1.92878	-0.00414926	0.0178085	0.109481	0.999995	-0.000292687	-3.43471e-05	0.0032158	-0.0585375	-0.00686943	0.64316	0	0	0	0	0.446314	0.090462	-0.915184	34	3	49052	4956764
350	-0.307816	0.702837	10.3169	-0.380905	-0.237764	1.23786	-0.00312624	0.00707167	0.103165	0.999995	-0.000305122	-1.65746e-05	0.00316742	-0.0610245	-0.00331493	0.633485	0	0	0	0	0.441418	0.0820246	-0.904743	34	3	49055	4957064
351	0.411458	2.37297	11.3486	-1.4836	1.75955	2.64676	0.00394608	0.0237795	0.113482	0.999995	-0.000107757	-8.48523e-05	0.0031412	-0.0215514	-0.0169705	0.62824	0	0	0	0	0.442219	0.0777979	-0.914436	34	3	49059	4957464
352	-0.54284	0.532574	10.6967	-0.332951	-0.0597958	2.28925	-0.00546852	0.00535354	0.106964	0.999995	-0.00029296	-2.77618e-05	0.00320049	-0.0585921	-0.00555236	0.640099	0	0	0	0	0.442943	0.0674967	-0.911638	34	3	49062	4957764
353	-1.87829	0.513431	8.48688	-0.125888	-1.87565	-0.206269	-0.0188119	0.00508576	0.0848653	0.999995	-0.000429288	2.35588e-05	0.00322985	-0.0858578	0.00471177	0.645971	0	0	0	0	0.438554	0.0608301	-0.918837	34	3	49065	4958064
354	-2.22533	0.135645	8.06876	-0.625187	-1.98524	-1.16952	-0.0222759	0.0012632	0.0806829	0.999995	-0.00032034	-8.74126e-05	0.00325521	-0.0640682	-0.0174826	0.651043	0	0	0	0	0.441045	0.046773	-0.925222	34	3	49069	4958464
355	-0.630704	1.50961	8.86087	-0.85581	-0.785972	-0.284113	-0.00645286	0.0150827	0.0886005	0.999995	-0.000154328	-0.000278684	0.00319521	-0.0308657	-0.055737	0.639044	0	0	0	0	0.432669	0.0326636	-0.923477	34	3	49072	4958764
356	-2.06638	1.81663	8.14161	-2.05472	-1.82225	-0.54055	-0.0207912	0.018053	0.0814089	0.999995	-0.000119859	-6.96376e-05	0.00320491	-0.0239718	-0.0139275	0.640983	0	0	0	0	0.440868	0.0195701	-0.931886	34	3	49075	4959064
357	-0.835386	0.385324	8.88592	0.184945	-0.655957	0.155979	-0.0083913	0.00384429	0.0888561	0.999995	-0.000253762	-7.08656e-05	0.00322788	-0.0507524	-0.0141731	0.645576	0	0	0	0	0.431163	0.00442502	-0.926117	34	3	49079	4959464
358	-1.7397	0.887186	8.65262	-1.43228	-1.39671	-0.216736	-0.0175013	0.00881889	0.0865106	0.999995	-0.000331035	-0.000279781	0.00315929	-0.066207	-0.0559563	0.63186	0	0	0	0	0.433825	-0.00266309	-0.940429	34	3	49082	4959764
359	-1.88911	0.226311	8.38526	-0.379198	-2.18077	-0.768396	-0.0189412	0.0021469	0.0838444	0.999995	-3.53954e-05	-0.000213586	0.00322839	-0.00707909	-0.0427173	0.64568	0	0	0	0	0.428036	-0.0145159	-0.929554	34	3	49085	4960064
360	-1.03845	0.63803	9.18599	-0.552399	-0.786405	0.274135	-0.0104772	0.00633463	0.0918526	0.999995	-0.000108064	-0.000287302	0.00314058	-0.0216128	-0.0574605	0.628117	0	0	0	0	0.4284	-0.0192534	-0.937742	34	3	49089	4960464
361	-2.18828	0.531304	8.05571	-0.520049	-2.636	-1.26074	-0.0219745	0.0051724	0.0805412	0.999995	1.80778e-06	-0.000361393	0.00320011	0.000361557	-0.0722788	0.640024	0	0	0	0	0.429672	-0.0291249	-0.931907	34	3	49092	4960764
362	-2.64339	1.17034	7.97677	-1.51713	-2.55741	-1.41911	-0.026525	0.0115797	0.0797556	0.999995	-0.000279502	-0.00010724	0.00317737	-0.0559005	-0.021448	0.635476	0	0	0	0	0.424379	-0.0305262	-0.932924	34	3	49095	4961064
363	-1.49686	-0.590383	8.15483	0.0849567	-1.78938	-0.77868	-0.0149431	-0.00597568	0.0815478	0.999994	-0.000161251	-8.23475e-05	0.0032812	-0.0322504	-0.0164695	0.65624	0	0	0	0	0.422214	-0.0383917	-0.928543	34	3	49099	4961464
364	-3.4402	1.45195	7.39292	-1.22353	-3.49923	-1.6789	-0.034463	0.0143235	0.073939	0.999995	-0.000199835	0.000226337	0.00327629	-0.0399671	0.0452675	0.655258	0	0	0	0	0.413771	-0.0418513	-0.922015	34	3	49102	4961764
365	-0.991913	1.26605	10.506	-1.21758	-0.463171	1.53201	-0.0100244	0.0126074	0.105057	0.999994	-7.85378e-05	-8.09532e-05	0.0034942	-0.0157076	-0.0161907	0.698842	0	0	0	0	0.41853	-0.0490816	-0.929269	34	3	49105	4962064
366	0.773011	2.26047	11.8212	-1.66906	1.13805	2.90333	0.00754308	0.0226317	0.118219	0.999993	0.000129335	-6.98914e-05	0.00376911	0.025867	-0.0139783	0.753824	0	0	0	0	0.403604	-0.0603796	-0.917835	34	3	49109	4962464
367	-1.08805	1.80722	9.30632	-1.73802	-0.995398	0.572035	-0.011064	0.0180325	0.0930492	0.999993	-0.000228904	-0.000258258	0.00375218	-0.045781	-0.0516517	0.750439	0	0	0	0	0.405573	-0.0748845	-0.926247	34	3	49112	4962764
368	0.978606	2.73387	12.1052	-3.49909	0.43219	2.5034	0.00951026	0.0274989	0.121038	0.999991	-0.00033566	-0.00021287	0.00408959	-0.0671322	-0.0425742	0.81792	0	0	0	0	0.393957	-0.0842414	-0.915795	34	3	49115	4963064
369	-1.50261	1.65943	9.09029	-1.18211	-1.62907	0.202294	-0.0151815	0.0165034	0.0908936	0.999991	-0.000184909	-0.000104122	0.00412401	-0.036982	-0.0208244	0.824804	0	0	0	0	0.391596	-0.100156	-0.925229	34	3	49119	4963464
370	-1.42995	1.30275	7.35558	-1.09648	-2.26258	-1.96535	-0.0144414	0.0129549	0.0735409	0.999991	-0.000326385	-0.000223698	0.00419687	-0.0652773	-0.0447397	0.839376	0	0	0	0	0.392839	-0.110488	-0.920919	34	3	49122	4963764
371	-1.68654	3.72159	10.0416	-4.56908	-1.51369	1.08795	-0.0171348	0.0372208	0.100369	0.99999	-0.000769824	0.000290448	0.00440309	-0.153965	0.0580898	0.880622	0	0	0	0	0.390969	-0.119667	-0.925155	34	3	49125	4964064
372	-0.762782	0.18251	9.95531	-1.13713	-0.592321	1.16899	-0.00760592	0.00181523	0.099555	0.99999	-0.000288884	0.000190891	0.00442373	-0.0577769	0.0381783	0.884748	0	0	0	0	0.391857	-0.135388	-0.919448	34	3	49129	4964464
373	-2.35009	1.04229	9.49867	-0.527349	-1.8456	0.934191	-0.0235233	0.0102616	0.0949987	0.999991	-0.000218291	0.000351605	0.00431078	-0.0436584	0.0703212	0.862158	0	0	0	0	0.38167	-0.139446	-0.905854	34	3	49132	4964764
374	0.675988	2.10373	12.6275	-2.55943	1.16889	3.98634	0.0066078	0.0212048	0.126255	0.99999	-0.000427081	0.000143681	0.00445911	-0.0854165	0.0287363	0.891825	0	0	0	0	0.386458	-0.14477	-0.91054	34	3	49135	4965064
375	0.0592322	1.31001	9.60812	-0.441429	0.431269	0.803692	0.000503801	0.0131076	0.0960807	0.99999	-1.37737e-05	0.000146763	0.00445378	-0.00275475	0.0293527	0.890758	0	0	0	0	0.373996	-0.152276	-0.893982	34	3	49139	4965464
376	0.558329	2.44055	11.2491	-2.9352	0.621829	2.42994	0.00537378	0.0246141	0.112456	0.99999	-0.000712271	2.91463e-05	0.00440763	-0.142455	0.00582929	0.881529	0	0	0	0	0.372379	-0.156474	-0.904169	34	3	49142	4965764
377	-0.203877	0.610056	11.1733	-1.01575	0.214136	2.48957	-0.00209667	0.00612279	0.111731	0.99999	-0.000181978	-1.5281e-05	0.00445755	-0.0363956	-0.00305621	0.891513	0	0	0	0	0.361735	-0.161991	-0.890606	34	3	49145	4966064
378	-1.26355	0.304737	9.1262	-0.0845236	-0.782545	0.150113	-0.0126831	0.00298293	0.0912576	0.99999	-0.000258976	-0.000115111	0.00441193	-0.0517954	-0.0230223	0.88239	0	0	0	0	0.353521	-0.168643	-0.896777	34	3	49149	4966464
379	-0.961467	-0.333068	9.53616	1.08866	-0.408968	0.792265	-0.00960417	-0.00342932	0.0953592	0.99999	6.60138e-05	-0.000103643	0.00447746	0.0132028	-0.0207287	0.895495	0	0	0	0	0.349894	-0.182748	-0.897579	34	3	49152	4966764
380	0.372497	2.4421	9.29849	-2.02701	-0.666002	-0.0967624	0.00347281	0.0245074	0.0929719	0.99999	-0.000294079	-0.000195457	0.00441085	-0.058816	-0.0390916	0.882174	0	0	0	0	0.343148	-0.18943	-0.902747	34	3	49155	4967064
381	0.469058	0.295156	10.7544	-0.384279	0.627464	1.77234	0.00465705	0.00297904	0.107545	0.99999	6.51079e-05	-3.35757e-05	0.00443774	0.0130216	-0.00671516	0.887552	0	0	0	0	0.340033	-0.20838	-0.905679	34	3	49159	4967464
382	-1.82037	1.53911	8.44036	-1.6058	-3.14028	-0.863956	-0.0183614	0.0153117	0.0843839	0.99999	-0.000485715	-0.000131144	0.00441408	-0.0971433	-0.0262289	0.882818	0	0	0	0	0.327704	-0.211781	-0.900647	34	3	49162	4967764
383	0.624873	3.52207	10.0534	-3.51855	-0.908675	0.980858	0.00592475	0.0353248	0.100518	0.99999	-0.000249826	-6.07321e-05	0.00441945	-0.0499653	-0.0121465	0.883893	0	0	0	0	0.330591	-0.224333	-0.909525	34	3	49165	4968064
384	1.19724	2.02457	12.4609	-3.28947	0.569086	3.92056	0.0118395	0.0204281	0.124592	0.99999	-0.000307868	0.000190598	0.00443606	-0.0615738	0.0381197	0.887215	0	0	0	0	0.316649	-0.230355	-0.893433	34	3	49169	4968464
385	1.19853	0.760986	12.3582	-2.14543	0.454957	3.56954	0.011907	0.00781901	0.123576	0.99999	-0.000415063	-3.82682e-05	0.00446004	-0.0830129	-0.00765366	0.892011	0	0	0	0	0.317543	-0.236578	-0.900646	34	3	49172	4968764
386	1.46436	3.32517	12.4772	-3.93541	-1.06177	2.62354	0.0142932	0.0334608	0.124756	0.99999	-0.000326984	-0.000226386	0.00440467	-0.065397	-0.0452774	0.880937	0	0	0	0	0.301164	-0.240629	-0.884499	34	3	49175	4969064
387	0.458776	0.931917	10.7203	-1.76649	0.769693	2.32645	0.00450387	0.00943308	0.107196	0.999991	-0.000348494	-1.42389e-05	0.00431048	-0.0696991	-0.00284779	0.862099	0	0	0	0	0.292536	-0.241062	-0.883458	34	3	49179	4969464
388	0.697448	2.10656	11.3249	-2.47708	-0.317392	2.49173	0.00678697	0.0211509	0.113244	0.99999	-0.000102449	1.37806e-05	0.00451558	-0.0204899	0.00275614	0.903118	0	0	0	0	0.283742	-0.247986	-0.873976	34	3	49182	4969764
389	-0.332884	2.26213	10.3067	-2.39185	-1.79321	1.29597	-0.00352317	0.022694	0.103044	0.99999	-0.000498011	1.86022e-05	0.004373	-0.0996025	0.00372046	0.874603	0	0	0	0	0.274565	-0.246438	-0.874404	34	3	49185	4970064
390	-1.34235	1.14601	8.88241	0.473747	-0.736049	0.0856586	-0.0135042	0.0113203	0.0888298	0.99999	0.000121823	0.000108029	0.00438493	0.0243646	0.0216059	0.876989	0	0	0	0	0.263664	-0.257068	-0.875095	34	3	49189	4970464
391	-2.22858	2.66053	8.13878	-0.710268	-3.23315	-0.721742	-0.0225321	0.0264232	0.0813793	0.99999	-0.000129407	-3.67623e-05	0.00453191	-0.0258814	-0.00735248	0.906386	0	0	0	0	0.249975	-0.256663	-0.863911	34	3	49192	4970764
392	0.812662	2.2865	10.9962	-2.90388	-0.66973	1.74829	0.00788543	0.0229163	0.109969	0.999989	9.88739e-05	-0.000146472	0.00456448	0.0197749	-0.0292945	0.912899	0	0	0	0	0.246705	-0.272126	-0.870806	34	3	49195	4971064
393	-0.921909	2.65651	9.53447	-1.77634	-2.12226	0.433286	-0.00948484	0.0266101	0.0953061	0.99999	-0.000659982	-0.000189203	0.00431934	-0.131997	-0.0378408	0.863871	0	0	0	0	0.233089	-0.274665	-0.858678	34	3	49199	4971464
394	-0.577736	-0.673192	10.5832	0.401787	0.669516	1.12085	-0.00574039	-0.00673159	0.105834	0.999989	-0.000251295	-0.00011728	0.00458968	-0.0502593	-0.0234561	0.91794	0	0	0	0	0.233889	-0.280337	-0.869414	34	3	49202	4971764
395	-2.11961	3.52046	8.04302	-0.983834	-3.95376	-0.7116	-0.0214942	0.0350982	0.0803976	0.99999	-0.00050868	7.30934e-05	0.00440759	-0.101736	0.0146187	0.881521	0	0	0	0	0.222711	-0.286293	-0.858383	34	3	49206	4972164
396	-0.975193	-0.502799	10.1654	0.22919	-0.147525	1.59516	-0.00968218	-0.00502474	0.101661	0.999989	-0.000454661	0.000116189	0.00458924	-0.0909325	0.0232379	0.917851	0	0	0	0	0.219653	-0.280361	-0.861268	34	3	49209	4972464
397	-2.2691	2.25732	8.04695	0.0530741	-3.81359	-1.16641	-0.0229178	0.0224533	0.0804388	0.99999	-0.000536513	-0.000143921	0.0045207	-0.107303	-0.0287842	0.904143	0	0	0	0	0.213714	-0.285358	-0.851755	34	3	49212	4972764
398	0.0218523	2.9378	9.69357	-1.72304	-1.34282	1.15493	-9.92218e-06	0.0294385	0.0969176	0.99999	-0.000307199	0.000194992	0.00452666	-0.06144	0.0389985	0.905334	0	0	0	0	0.206568	-0.281495	-0.846081	34	3	49215	4973064
399	-1.88496	0.40151	8.74122	0.16635	-1.46007	-0.188405	-0.0189216	0.00394605	0.0873999	0.99999	-0.000564264	-0.000209386	0.00443962	-0.112853	-0.0418773	0.887928	0	0	0	0	0.200359	-0.280513	-0.843505	34	3	49219	4973464
400	-1.28329	-0.170876	10.6741	-0.352037	-0.438935	1.99408	-0.0127768	-0.00172651	0.106747	0.999989	-0.000463905	0.000189369	0.00456053	-0.0927812	0.037874	0.912109	0	0	0	0	0.188013	-0.2733	-0.831671	34	3	49222	4973764
401	-0.304835	3.13821	10.071	-2.00117	-2.96764	0.921379	-0.00333875	0.0313892	0.100698	0.999989	-0.000181148	-8.73241e-06	0.00459832	-0.0362298	-0.00174649	0.919666	0	0	0	0	0.183779	-0.282008	-0.833865	34	3	49225	4974064
402	1.68586	2.42061	11.8844	-3.57456	-0.643951	2.79002	0.0166172	0.0244277	0.118833	0.999989	-0.00027645	-6.30283e-05	0.00465538	-0.0552902	-0.0126057	0.93108	0	0	0	0	0.167599	-0.277183	-0.823077	34	3	49229	4974464
403	-1.23256	1.43054	8.93815	-0.117492	-2.25397	-0.547879	-0.0124813	0.0142472	0.0893692	0.99999	-0.000305672	-0.000144462	0.00454892	-0.0611346	-0.0288925	0.909788	0	0	0	0	0.164521	-0.281839	-0.834278	34	3	49232	4974764
404	0.483444	4.58982	11.965	-3.24074	-4.04532	2.59401	0.00442637	0.046032	0.119615	0.99999	-0.000384664	2.53941e-05	0.00450491	-0.076933	0.00507884	0.900985	0	0	0	0	0.153739	-0.283399	-0.823656	34	3	49235	4975064
405	-0.8784	3.02657	10.62	-1.37853	-2.5037	1.75864	-0.00902946	0.0302042	0.106197	0.999989	-9.40286e-05	0.000146053	0.00457218	-0.0188058	0.0292107	0.914439	0	0	0	0	0.148812	-0.285202	-0.829735	34	3	49239	4975464
406	-0.833432	0.256806	9.03484	-0.760126	-0.591902	0.162996	-0.00836135	0.00252849	0.090347	0.99999	-0.000201338	-2.13003e-05	0.00454947	-0.0402678	-0.00426007	0.909897	0	0	0	0	0.145167	-0.291583	-0.825819	34	3	49242	4975764
407	-2.07579	3.01127	8.56773	0.249579	-3.89943	-0.792763	-0.0209994	0.030003	0.085657	0.99999	-0.000443565	0.000151129	0.00444688	-0.0887133	0.0302258	0.889378	0	0	0	0	0.144507	-0.283739	-0.827662	34	3	49245	4976064
408	-2.22253	1.54394	8.01105	1.44375	-1.82876	-0.983228	-0.0223575	0.0152984	0.0801007	0.999991	-0.000318566	1.31631e-06	0.0043093	-0.0637134	0.000263263	0.861863	0	0	0	0	0.142672	-0.286198	-0.825688	34	3	49249	4976464
409	0.219514	-0.924939	10.5318	-0.885605	1.40438	1.63387	0.00228955	-0.00920131	0.10532	0.99999	-0.000136243	6.9584e-05	0.00432224	-0.0272487	0.0139168	0.864451	0	0	0	0	0.137442	-0.27367	-0.814274	34	3	49252	4976764
410	-2.00242	1.84142	9.08758	0.0610714	-2.32022	0.260262	-0.020159	0.0183764	0.0908536	0.999992	-0.000675485	6.69344e-05	0.00399567	-0.135097	0.0133869	0.799135	0	0	0	0	0.13744	-0.278006	-0.817401	34	3	49255	4977064
411	-0.76181	1.02638	8.82742	-0.184783	-1.56933	-0.41497	-0.00771832	0.0102464	0.0882675	0.999992	-0.000252722	-9.83176e-05	0.0040403	-0.0505445	-0.0196636	0.808063	0	0	0	0	0.131696	-0.264968	-0.806983	34	3	49259	4977464
412	-2.62825	1.15894	7.53322	1.77816	-0.56509	-1.42422	-0.0263557	0.0114083	0.0753343	0.999992	-0.000209134	0.000131065	0.00403983	-0.0418268	0.0262132	0.807968	0	0	0	0	0.130018	-0.26334	-0.815525	34	3	49262	4977764
413	-0.361965	2.79269	9.45144	-1.33871	-2.80339	0.716535	-0.00385245	0.0279652	0.0944939	0.999991	-0.00036398	-2.66171e-05	0.00407516	-0.0727962	-0.00532343	0.815034	0	0	0	0	0.126335	-0.260056	-0.806344	34	3	49265	4978064
414	1.01922	1.19825	12.8987	-2.96912	-1.80646	4.07084	0.0102029	0.0121469	0.128971	0.999992	-0.000322489	0.000413773	0.00397952	-0.0644981	0.0827548	0.795906	0	0	0	0	0.124609	-0.256946	-0.815863	34	3	49269	4978464
415	1.39522	-0.0661925	12.0897	-2.52445	1.30194	3.24138	0.0139385	-0.000641338	0.120899	0.999992	0.000369137	-7.799e-05	0.00393833	0.0738275	-0.0155981	0.787668	0	0	0	0	0.120881	-0.26423	-0.816008	34	3	49272	4978764
416	0.482019	1.38468	11.8673	-2.14015	-2.14949	2.66599	0.00475809	0.0140601	0.11865	0.999993	-0.000749343	0.000174446	0.00370872	-0.149869	0.0348894	0.741746	0	0	0	0	0.123069	-0.263609	-0.82459	34	3	49275	4979064
417	0.841359	0.160099	11.4765	-1.67159	-0.73181	2.31768	0.00837803	0.0017622	0.114765	0.999994	-0.000453763	-0.000105145	0.00339796	-0.0907529	-0.0210291	0.679594	0	0	0	0	0.122544	-0.271283	-0.831829	34	3	49279	4979464
418	0.472372	0.528833	10.432	-0.934551	-0.91132	0.993907	0.00464887	0.00535014	0.10432	0.999995	-0.000153505	-0.000196774	0.00317731	-0.0307011	-0.039355	0.635462	0	0	0	0	0.122542	-0.265981	-0.828176	34	3	49282	4979764
419	-0.521716	-0.306593	10.4926	-0.345032	0.81942	1.69623	-0.00516943	-0.00305092	0.104929	0.999995	-0.000218626	0.00014083	0.0029721	-0.0437253	0.028166	0.594422	0	0	0	0	0.126167	-0.271632	-0.84145	34	3	49285	4980064
420	-1.69531	2.12595	8.10865	0.659	-2.55212	-0.831524	-0.0170833	0.0212277	0.0810675	0.999996	-0.000373752	-9.1674e-05	0.00271658	-0.0747506	-0.0183348	0.543316	0	0	0	0	0.12848	-0.263875	-0.839773	34	3	49289	4980464
421	-0.910894	0.884699	9.08173	0.692181	-0.7587	-0.353079	-0.00916387	0.0087635	0.0908198	0.999997	0.000204707	-5.66895e-05	0.00253446	0.0409415	-0.0113379	0.506893	0	0	0	0	0.131438	-0.261193	-0.854879	34	3	49292	4980764
422	-0.121109	2.70988	10.2416	-0.860106	-2.73935	1.21959	-0.00137609	0.0271221	0.102408	0.999997	-0.000146117	-0.000133064	0.00254036	-0.0292234	-0.0266128	0.508072	0	0	0	0	0.13143	-0.257815	-0.852783	34	3	49296	4981164
423	-0.26125	-2.16578	9.97321	-1.06847	1.81394	0.752937	-0.00252514	-0.0216748	0.0997307	0.999997	2.00566e-05	-0.000109146	0.00251833	0.00401132	-0.0218293	0.503667	0	0	0	0	0.133387	-0.246906	-0.863661	34	3	49299	4981464
424	-0.956043	2.71489	8.70879	0.575559	-3.17964	-0.447332	-0.00971683	0.0271311	0.0870762	0.999997	-0.000177329	-0.000109362	0.00253045	-0.0354658	-0.0218723	0.506091	0	0	0	0	0.125199	-0.250686	-0.866738	34	3	49302	4981764
425	-0.303808	-1.29186	11.5446	-1.34861	0.47332	2.67577	-0.00289593	-0.012869	0.115455	0.999997	-0.000277385	0.00034394	0.00243285	-0.055477	0.0687881	0.486571	0	0	0	0	0.12625	-0.243183	-0.877687	34	3	49305	4982064
426	-0.422147	0.501136	9.89805	-0.976717	-0.563694	1.13398	-0.00423808	0.00506277	0.0989771	0.999997	-0.000364385	4.07496e-05	0.00244898	-0.072877	0.00814992	0.489796	0	0	0	0	0.121736	-0.251205	-0.890976	34	3	49309	4982464
427	0.319097	1.41903	10.6041	-1.33902	-1.84696	1.72815	0.00308552	0.0142265	0.106039	0.999997	-9.83142e-05	-0.000168347	0.00245436	-0.0196629	-0.0336694	0.490872	0	0	0	0	0.118164	-0.246209	-0.895899	34	3	49312	4982764
428	-2.37147	-0.338069	8.8884	0.659495	0.584237	1.06905	-0.0236624	-0.00350993	0.0888929	0.999997	0.000105265	0.00020377	0.00233296	0.0210531	0.0407539	0.466593	0	0	0	0	0.115154	-0.258623	-0.909798	34	3	49315	4983064
429	-1.58008	1.74728	8.52865	0.584451	-1.65777	-0.643772	-0.0158922	0.0174137	0.0852816	0.999997	-0.000105446	-3.81437e-05	0.00243442	-0.0210893	-0.00762876	0.486885	0	0	0	0	0.109739	-0.255599	-0.912736	34	3	49319	4983464
430	-0.0411457	0.713032	9.80088	-1.36099	-0.906454	1.19365	-0.000435437	0.00712694	0.098009	0.999997	6.91131e-06	5.18988e-05	0.00239549	0.00138226	0.0103798	0.479099	0	0	0	0	0.108887	-0.25966	-0.931005	34	3	49322	4983764
431	-1.69397	0.106807	9.32508	0.167034	-0.860044	0.837692	-0.0169361	0.0010122	0.0932521	0.999997	-0.000153728	4.71918e-05	0.00249547	-0.0307457	0.00943838	0.499095	0	0	0	0	0.106005	-0.256267	-0.928391	34	3	49325	4984064
432	-2.57566	1.41347	7.79938	2.38783	-1.06196	-1.31853	-0.0258304	0.0140374	0.077987	0.999997	-0.000196236	-2.52941e-05	0.00247954	-0.0392472	-0.00505882	0.495908	0	0	0	0	0.102174	-0.251082	-0.943915	34	3	49329	4984464
433	0.473749	2.12443	10.6285	-1.88994	-2.13359	1.54748	0.00460737	0.0212457	0.10629	0.999997	0.000106009	-0.000102256	0.00255091	0.0212019	-0.0204513	0.510182	0	0	0	0	0.0940846	-0.254934	-0.942953	34	3	49332	4984764
434	-2.01877	-0.50121	9.50702	0.14505	0.750719	1.34733	-0.0201255	-0.00509918	0.0950788	0.999997	-6.03332e-05	0.00019701	0.00244468	-0.0120666	0.039402	0.488937	0	0	0	0	0.0919085	-0.244133	-0.945733	34	3	49335	4985064
435	0.0704392	2.0294	9.94493	0.00580353	-1.64512	0.488005	0.000577319	0.0202748	0.099454	0.999997	0.000112445	-0.000131017	0.00248991	0.0224891	-0.0262034	0.497983	0	0	0	0	0.0783423	-0.244915	-0.950233	34	3	49339	4985464
436	0.103521	-0.00606433	10.5467	-0.576556	-0.229025	1.08669	0.00105569	1.30557e-05	0.105467	0.999997	-0.000324596	9.65033e-05	0.00250163	-0.0649192	0.0193007	0.500326	0	0	0	0	0.0729261	-0.233698	-0.947434	34	3	49342	4985764
437	-2.50941	1.34515	8.42727	1.5208	-1.2356	0.0834055	-0.0251467	0.0133451	0.084274	0.999997	-9.80481e-05	7.66107e-05	0.00244636	-0.0196096	0.0153222	0.489272	0	0	0	0	0.0645972	-0.239302	-0.957621	34	3	49345	4986064
438	-2.34369	0.900666	7.83659	1.60737	-0.627068	-0.583211	-0.0234571	0.00892458	0.0783693	0.999997	-0.000217318	0.000154776	0.00247673	-0.0434636	0.0309553	0.495346	0	0	0	0	0.0573078	-0.234853	-0.957489	34	3	49349	4986464
439	-0.895956	0.662214	9.42223	0.0217225	-0.945501	0.176924	-0.00900682	0.00657799	0.0942209	0.999997	-2.57408e-06	-7.67654e-05	0.00248425	-0.000514816	-0.0153531	0.496851	0	0	0	0	0.0527662	-0.240444	-0.970218	34	3	49352	4986764
440	-0.687591	-0.215807	9.6927	-0.428677	0.152948	1.13214	-0.00689313	-0.00216572	0.0969256	0.999997	-0.000138456	-0.00014467	0.00250506	-0.0276912	-0.0289339	0.501012	0	0	0	0	0.0448088	-0.241984	-0.962135	34	3	49355	4987064
441	-1.94661	-0.384108	8.74272	1.43308	-0.0797863	-0.0220575	-0.019424	-0.00389656	0.0874341	0.999997	-0.000234785	0.000130866	0.00248232	-0.0469571	0.0261733	0.496465	0	0	0	0	0.0450067	-0.240335	-0.972705	34	3	49359	4987464
442	1.80498	-0.6099	12.3678	-2.46071	-0.181265	2.89134	0.0180682	-0.00602435	0.123679	0.999996	8.29569e-05	-5.47796e-05	0.00263503	0.0165914	-0.0109559	0.527007	0	0	0	0	0.0407858	-0.246162	-0.97231	34	3	49362	4987764
443	-2.62688	1.71711	9.03804	2.24483	-1.4584	-0.244918	-0.026349	0.0171118	0.0903684	0.999997	-0.000393011	2.66605e-05	0.00247853	-0.0786022	0.0053321	0.495707	0	0	0	0	0.0434888	-0.241714	-0.97677	34	3	49365	4988064
444	0.352704	-0.0169371	10.731	-1.10848	-1.13423	1.70065	0.00348401	-4.75012e-05	0.107312	0.999997	-0.000490791	-0.000202868	0.00235841	-0.0981583	-0.0405737	0.471682	0	0	0	0	0.0382905	-0.243667	-0.974264	34	3	49369	4988464
445	2.18573	1.69242	13.8348	-2.76386	-2.73931	4.42671	0.0217794	0.0170071	0.13835	0.999997	7.50897e-05	9.87052e-06	0.00237707	0.015018	0.00197411	0.475415	0	0	0	0	0.0368703	-0.23548	-0.967509	34	3	49372	4988764
446	-0.160284	0.509135	11.097	-1.2409	-1.2728	2.25108	-0.00162544	0.00517489	0.110966	0.999998	-0.000406484	-6.21304e-06	0.00206617	-0.0812969	-0.00124261	0.413235	0	0	0	0	0.0310633	-0.237816	-0.970565	34	3	49375	4989064
447	0.250831	1.6128	10.8205	-0.660969	-2.50827	1.79075	0.00245045	0.0161415	0.108205	0.999998	-1.65003e-05	3.03923e-05	0.00199679	-0.00330007	0.00607846	0.399358	0	0	0	0	0.0261243	-0.225636	-0.967241	34	3	49379	4989464
448	-1.66674	-0.0586882	9.03296	0.653479	-0.0737937	0.298564	-0.0166624	-0.000591462	0.0903305	0.999999	-0.000276689	1.67034e-05	0.00163717	-0.0553379	0.00334067	0.327435	0	0	0	0	0.0248133	-0.222964	-0.979802	34	3	49382	4989764
449	-2.10042	0.697569	7.30712	1.53323	0.147252	-1.5132	-0.0210666	0.0069345	0.0730572	0.999999	-0.000127079	-0.000291441	0.00142044	-0.0254158	-0.0582882	0.284087	0	0	0	0	0.0200975	-0.220584	-0.974172	34	3	49385	4990064
450	-1.72056	0.983383	8.57563	0.495337	-0.328407	0.219905	-0.0172543	0.00972652	0.0857587	0.999999	0.000394872	-0.000152771	0.00114864	0.0789744	-0.0305543	0.229729	0	0	0	0	0.0193407	-0.220861	-0.985791	34	3	49389	4990464
451	1.53152	1.05458	10.7462	-1.5585	-3.08628	1.2764	0.0152277	0.010643	0.107465	0.999999	-0.00031208	-0.000310431	0.000983144	-0.062416	-0.0620861	0.196629	0	0	0	0	0.0117601	-0.227147	-0.98539	34	3	49392	4990764
452	-2.97771	2.34044	7.08577	2.60748	-0.968547	-1.56471	-0.0297976	0.0233449	0.0708687	1	0.000106573	0.000100557	0.000744368	0.0213147	0.0201114	0.148874	0	0	0	0	0.0201654	-0.226551	-0.995517	34	3	49395	4991064
453	-1.50986	0.300998	9.52528	-0.338205	-0.226136	1.50964	-0.0150702	0.00302068	0.095257	1	-0.000171894	0.000172366	0.000730899	-0.0343789	0.0344731	0.14618	0	0	0	0	0.0128762	-0.23463	-1.00425	34	3	49399	4991464
454	1.08521	0.746335	12.8067	-1.99586	-2.73132	3.84489	0.0108564	0.0075332	0.128062	1	-0.000206622	6.22974e-05	0.000779592	-0.0413244	0.0124595	0.155918	0	0	0	0	0.0176109	-0.229313	-1.00365	34	3	49402	4991764
455	-0.05755	0.106116	12.0726	-0.986209	0.0318456	2.77879	-0.000597083	0.000975234	0.120727	1	0.000352704	-8.38772e-05	0.000653664	0.0705409	-0.0167755	0.130733	0	0	0	0	0.0151741	-0.23698	-1.01037	34	3	49405	4992064
456	0.259038	0.928999	10.7263	-1.3554	-2.22043	2.43837	0.00256562	0.00928172	0.107265	1	5.50652e-05	-5.59828e-05	0.000686751	0.011013	-0.0111966	0.13735	0	0	0	0	0.0147569	-0.229795	-1.00264	34	3	49409	4992464
457	1.47709	0.95576	13.0115	-2.87911	-2.93995	4.79118	0.0148082	0.00956264	0.13011	1	5.82657e-05	0.000193745	0.000682994	0.0116531	0.038749	0.136599	0	0	0	0	0.0106817	-0.230079	-1.01222	34	3	49412	4992764
458	-0.389905	2.12908	9.92875	0.56053	-2.39779	0.920437	-0.00395713	0.0212991	0.0992835	1	-6.49438e-05	-0.000165918	0.000589963	-0.0129888	-0.0331836	0.117993	0	0	0	0	0.00654612	-0.226331	-1.00151	34	3	49415	4993064
459	1.52216	1.03399	12.8364	-3.01844	-2.18801	4.07957	0.0152372	0.0102908	0.128366	1	0.000270508	0.000114152	0.000667463	0.0541016	0.0228304	0.133493	0	0	0	0	0.00425767	-0.219784	-1.01196	34	3	49419	4993464
460	-1.01491	-1.77951	10.4524	-0.810392	0.911556	1.74759	-0.0101211	-0.0177542	0.104534	1	-0.00026303	1.65444e-05	0.00069112	-0.0526061	0.00330887	0.138224	0	0	0	0	-0.00434411	-0.217346	-1.00783	34	3	49422	4993764
461	-0.245331	-0.0373499	9.71748	-0.529181	-0.645533	0.734498	-0.00249085	-0.000403667	0.0971738	1	0.000138079	-0.000195865	0.000674101	0.0276158	-0.039173	0.13482	0	0	0	0	-0.00175682	-0.214741	-1.01839	34	3	49425	4994064
462	-2.22821	0.247979	8.8337	1.56763	0.297221	0.0344729	-0.0222715	0.002482	0.0883397	1	-0.000175852	7.86578e-05	0.000647779	-0.0351705	0.0157316	0.129556	0	0	0	0	-0.0133752	-0.219894	-1.02501	34	3	49429	4994464
463	-0.128955	1.75044	10.8242	-0.690338	-2.33761	2.10402	-0.00133584	0.0174445	0.108251	1	0.000269196	-0.000110457	0.000640442	0.0538391	-0.0220914	0.128089	0	0	0	0	-0.013863	-0.215066	-1.02187	34	3	49432	4994764
464	-0.566902	0.323398	10.118	0.0761207	-0.616072	1.06756	-0.00568062	0.00325622	0.101179	1	-0.000144272	-3.77125e-05	0.000612485	-0.0288545	-0.0075425	0.122497	0	0	0	0	-0.0193137	-0.221652	-1.03311	34	3	49435	4995064
465	-0.804228	-2.29651	9.85391	-1.08809	1.39734	1.05441	-0.00804262	-0.0228889	0.0985569	1	-0.000437374	-0.000145904	0.000619645	-0.0874748	-0.0291809	0.123929	0	0	0	0	-0.0174087	-0.218281	-1.03152	34	3	49439	4995464
466	1.00046	2.26388	11.6625	-0.927471	-3.35793	2.59263	0.00992856	0.0227134	0.116617	1	-0.00026269	-0.000196265	0.000666633	-0.052538	-0.039253	0.133327	0	0	0	0	-0.018724	-0.216088	-1.0446	34	3	49442	4995764
467	-1.54498	0.384841	10.3305	-0.365431	1.04368	2.09687	-0.0153729	0.00366299	0.103323	0.999999	0.000812818	0.000392934	0.000566756	0.162564	0.0785867	0.113351	0	0	0	0	-0.0199439	-0.211902	-1.03238	34	3	49445	4996064
468	-1.28994	0.736665	8.46509	0.771612	-0.193765	-0.515691	-0.0129644	0.00738767	0.0846392	1	-0.000220054	-0.000328995	0.000628035	-0.0440107	-0.065799	0.125607	0	0	0	0	-0.016932	-0.205888	-1.04287	34	3	49449	4996464
469	-0.144229	2.71031	10.6261	1.06832	-2.77546	1.43923	-0.00147813	0.0270672	0.10627	1	0.000161196	-2.06862e-05	0.000580452	0.0322392	-0.00413725	0.11609	0	0	0	0	-0.0245678	-0.204423	-1.03926	34	3	49452	4996764
470	-1.27505	0.132314	8.93253	0.858463	0.0135328	-0.159082	-0.0127718	0.00135326	0.0893218	1	-0.000243206	-0.000111304	0.000522132	-0.0486412	-0.0222608	0.104426	0	0	0	0	-0.0234329	-0.191681	-1.04303	34	3	49455	4997064
471	0.687059	0.791627	11.9717	-1.3275	-1.39528	2.80904	0.00690373	0.00787291	0.119718	1	0.00019948	0.000159462	0.000319057	0.0398959	0.0318924	0.0638114	0	0	0	0	-0.0336304	-0.189601	-1.04546	34	3	49459	4997464
472	-1.1624	-0.47207	9.27475	0.576334	0.43714	0.125009	-0.0116315	-0.00468201	0.0927485	1	-0.000235876	-5.12922e-05	0.000217998	-0.0471753	-0.0102584	0.0435995	0	0	0	0	-0.0351683	-0.176509	-1.04011	34	3	49462	4997764
473	-1.22432	-0.0791675	9.07434	-0.0685106	0.163525	0.836745	-0.0122115	-0.000796001	0.0907476	1	1.10527e-05	0.000173807	9.48585e-05	0.00221055	0.0347614	0.0189717	0	0	0	0	-0.0435779	-0.177237	-1.05019	34	3	49465	4998064
474	-2.05097	0.574474	8.12075	1.47379	-0.0622407	-0.713739	-0.0205189	0.00576089	0.0812041	1	-0.000114158	-5.24341e-05	5.8279e-05	-0.0228317	-0.0104868	0.0116558	0	0	0	0	-0.0503691	-0.170876	-1.048	34	3	49469	4998464
475	-0.257726	-2.27687	11.0726	-2.59121	1.90514	2.36951	-0.00258909	-0.0228476	0.110709	1	0.000353081	-8.18909e-05	0.000138268	0.0706162	-0.0163782	0.0276536	0	0	0	0	-0.0550616	-0.172502	-1.06417	34	3	49472	4998764
476	-1.41855	-0.241442	8.36754	1.50606	0.182313	-0.924781	-0.0142373	-0.00237005	0.0836679	1	-0.00028035	-0.000311566	8.93477e-05	-0.0560699	-0.0623132	0.0178695	0	0	0	0	-0.0578606	-0.168206	-1.0575	34	3	49475	4999064
477	-2.09179	-0.610971	8.36693	-0.20473	2.07176	-0.227209	-0.0209028	-0.006188	0.0836673	1	0.000458936	8.81071e-05	3.58434e-05	0.0917872	0.0176214	0.00716869	0	0	0	0	-0.0590695	-0.168017	-1.06759	34	3	49479	4999464
478	-1.00082	0.46051	9.13358	0.308314	-0.359971	0.412081	-0.0100389	0.00460616	0.0913323	1	-1.14205e-05	-0.000165242	5.10959e-05	-0.00228409	-0.0330485	0.0102192	0	0	0	0	-0.0633754	-0.169445	-1.0676	34	3	49482	4999764
479	-1.29857	0.0580807	9.32374	0.300023	0.0555524	0.642369	-0.0129803	0.000567035	0.0932382	1	7.10958e-05	2.90144e-05	1.98063e-05	0.0142192	0.00580289	0.00396125	0	0	0	0	-0.0611369	-0.164524	-1.07104	34	3	49485	5000064
480	-0.752638	0.580098	9.83926	-0.373673	-0.898576	1.33949	-0.00752542	0.00578022	0.0983939	1	9.88473e-05	9.97436e-06	8.7142e-05	0.0197695	0.00199487	0.0174284	0	0	0	0	-0.0682397	-0.168402	-1.06907	34	3	49489	5000464
481	-1.77153	1.99948	8.24665	1.50963	-1.41115	-0.372064	-0.0176935	0.0199913	0.082472	1	2.53849e-05	0.00012741	-1.88035e-05	0.00507697	0.025482	-0.0037607	0	0	0	0	-0.0686929	-0.158299	-1.06076	34	3	49492	5000764
482	-1.85975	-1.74081	9.33489	-0.413086	2.07028	0.853342	-0.0185611	-0.0174258	0.0933528	1	9.90433e-05	0.000199102	-2.14446e-05	0.0198087	0.0398205	-0.00428892	0	0	0	0	-0.0731876	-0.158625	-1.06782	34	3	49495	5001064
483	-0.436715	-1.32123	9.74284	-1.23183	1.48552	0.719865	-0.00440003	-0.0132585	0.0974206	1	0.000236466	-0.000170781	1.48251e-05	0.0472932	-0.0341562	0.00296502	0	0	0	0	-0.0783581	-0.150478	-1.05701	34	3	49499	5001464
484	-1.70936	-0.502716	8.47725	0.351013	1.17602	-0.104623	-0.0170889	-0.00505208	0.084772	1	0.000146937	2.76151e-05	2.21701e-07	0.0293875	0.00552301	4.43401e-05	0	0	0	0	-0.0833951	-0.149309	-1.06555	34	3	49502	5001764
485	-0.703828	-0.361572	10.8109	-0.316118	-0.285217	1.75609	-0.00706245	-0.0035133	0.108111	1	-0.000478785	-0.000114375	7.80663e-05	-0.0957571	-0.022875	0.0156133	0	0	0	0	-0.0932751	-0.145052	-1.05328	34	3	49505	5002064
486	0.544635	2.19896	11.0476	-0.451599	-3.62705	2.69218	0.00549188	0.0220617	0.110459	1	-0.000322937	0.000219315	6.63792e-05	-0.0645875	0.043863	0.0132759	0	0	0	0	-0.0973333	-0.143421	-1.06081	34	3	49509	5002464
487	-1.62849	-1.83461	9.01105	-0.633058	1.37386	0.502189	-0.0162545	-0.0183815	0.0901088	1	0.000193613	0.000165899	1.4912e-05	0.0387227	0.0331799	0.00298239	0	0	0	0	-0.105901	-0.149681	-1.06141	34	3	49512	5002764
488	-0.957257	1.00604	9.78164	0.498551	-0.922693	1.12885	-0.00959265	0.0100977	0.0978106	1	-0.00020308	-8.93152e-05	0.000129148	-0.040616	-0.017863	0.0258297	0	0	0	0	-0.104054	-0.148676	-1.06392	34	3	49515	5003064
489	-1.24102	1.30026	9.4844	0.136106	-0.113843	1.02116	-0.012389	0.0129174	0.0948584	1	0.00044537	0.000115568	2.7972e-05	0.0890739	0.0231137	0.0055944	0	0	0	0	-0.110238	-0.160241	-1.0692	34	3	49519	5003464
490	0.561678	-2.67733	10.8432	-3.14291	1.85609	1.71636	0.0055601	-0.0268192	0.108423	1	0.000217895	-0.000292328	0.000125345	0.043579	-0.0584657	0.0250689	0	0	0	0	-0.112013	-0.155997	-1.06001	34	3	49522	5003764
491	-0.241385	0.750657	10.5107	-0.537263	-1.97715	2.0486	-0.00238588	0.00753418	0.105105	1	-0.000132907	0.000137982	6.91798e-05	-0.0265814	0.0275965	0.013836	0	0	0	0	-0.114837	-0.165656	-1.06425	34	3	49525	5004064
492	-0.994954	-3.21971	10.4651	-2.43799	2.66776	1.95937	-0.00992785	-0.0321907	0.104655	1	-3.66707e-05	8.52339e-05	5.98045e-05	-0.00733415	0.0170468	0.0119609	0	0	0	0	-0.11362	-0.166332	-1.05417	34	3	49529	5004464
493	-0.200883	-0.978095	10.7215	-1.57089	0.5291	1.97267	-0.00201294	-0.00981201	0.107212	1	0.000143282	-2.66954e-05	8.24773e-05	0.0286564	-0.00533908	0.0164955	0	0	0	0	-0.114715	-0.167192	-1.06024	34	3	49532	5004764
494	-1.57381	2.70795	8.98435	1.86704	-1.31181	0.267672	-0.0157453	0.02709	0.089839	1	-6.4525e-05	-2.98562e-05	3.5473e-05	-0.012905	-0.00597124	0.00709461	0	0	0	0	-0.119608	-0.166957	-1.04355	34	3	49535	5005064
495	-3.09934	0.0683918	6.65518	1.82376	1.26974	-1.15348	-0.0310069	0.000646944	0.0665459	1	0.000222305	-0.000100953	0.000119118	0.044461	-0.0201906	0.0238236	0	0	0	0	-0.123439	-0.16212	-1.03938	34	3	49539	5005464
496	-0.212466	2.32432	10.0797	0.922832	-2.90082	1.39396	-0.0021127	0.0233113	0.100782	1	-0.000339437	7.98888e-05	8.91047e-05	-0.0678873	0.0159778	0.0178209	0	0	0	0	-0.132923	-0.167441	-1.03744	34	3	49542	5005764
497	-1.25717	0.366619	9.51824	0.13913	-0.37516	1.03576	-0.0125371	0.00366723	0.095187	1	-7.63055e-06	0.000182271	1.61985e-05	-0.00152611	0.0364543	0.0032397	0	0	0	0	-0.134809	-0.163117	-1.03279	34	3	49545	5006064
498	-0.643751	-2.24352	9.96796	-1.74401	2.45093	0.793085	-0.00647963	-0.0224456	0.0996745	1	4.44988e-05	-0.000237957	0.000118454	0.00889976	-0.0475914	0.0236908	0	0	0	0	-0.144002	-0.170231	-1.03997	34	3	49549	5006464
499	-1.90125	0.453508	8.38061	1.50465	0.591466	-0.886235	-0.0190433	0.00454773	0.0837984	1	-9.99484e-05	-0.00017771	0.000107768	-0.0199897	-0.0355419	0.0215536	0	0	0	0	-0.144758	-0.16941	-1.03086	34	3	49552	5006764
500	0.565572	-0.889537	11.6077	-2.99766	0.473532	3.01011	0.00568843	-0.00902748	0.116066	1	0.000577963	0.000126936	0.00018094	0.115593	0.0253873	0.0361881	0	0	0	0	-0.149577	-0.179965	-1.03865	34	3	49555	5007064
501	-0.667873	1.88652	9.74705	1.30295	-1.62044	0.309483	-0.00668743	0.0188688	0.0974692	1	-1.965e-05	-4.14816e-05	1.62419e-05	-0.00393	-0.00829632	0.00324837	0	0	0	0	-0.15013	-0.185557	-1.02564	34	3	49559	5007464
502	-1.42937	-1.39343	9.41814	-0.798628	1.84205	0.85962	-0.0142806	-0.0139925	0.0941748	1	0.000301872	6.29988e-05	4.41502e-05	0.0603744	0.0125998	0.00883004	0	0	0	0	-0.150691	-0.191759	-1.03335	34	3	49562	5007764
503	-0.773612	0.37805	9.55156	0.0796231	0.264287	0.723377	-0.00773312	0.00374274	0.0955173	1	0.000192433	1.82382e-05	6.43524e-05	0.0384867	0.00364765	0.0128705	0	0	0	0	-0.153205	-0.197308	-1.02185	34	3	49565	5008064
504	-0.585307	1.12089	10.8405	-0.567135	-0.710412	2.49262	-0.00581184	0.0111409	0.108414	1	0.000314787	0.000188148	-1.99116e-05	0.0629573	0.0376296	-0.00398233	0	0	0	0	-0.149332	-0.200248	-1.02294	34	3	49569	5008464
505	0.0653707	0.358638	11.3116	-1.08133	-0.432609	2.3397	0.000636321	0.00357101	0.113117	1	6.83994e-05	-7.42872e-05	8.08638e-05	0.0136799	-0.0148574	0.0161728	0	0	0	0	-0.155811	-0.206163	-1.01647	34	3	49572	5008764
506	1.25816	0.404208	11.835	-2.98411	-0.919386	3.28544	0.0125546	0.00393641	0.118356	1	0.000451698	-0.000112171	4.99637e-05	0.0903397	-0.0224342	0.00999274	0	0	0	0	-0.154169	-0.203429	-1.00632	34	3	49575	5009064
507	-1.53455	0.967714	9.61046	1.1649	-0.366399	0.930734	-0.0153022	0.00968857	0.0961103	1	-5.89478e-05	0.000224692	-3.41939e-06	-0.0117896	0.0449384	-0.000683878	0	0	0	0	-0.161207	-0.211209	-1.00444	34	3	49579	5009464
508	-0.488764	-0.366677	9.61983	-0.826596	-0.200561	0.996466	-0.00489989	-0.00364604	0.0961985	1	-0.000110318	-6.55686e-05	5.02228e-05	-0.0220637	-0.0131137	0.0100446	0	0	0	0	-0.162328	-0.20565	-0.987139	34	3	49582	5009764
509	-2.50787	-1.68885	8.2844	0.994021	3.28295	-0.722207	-0.0250749	-0.0169214	0.0828385	1	0.00021009	3.07141e-05	-3.78458e-05	0.042018	0.00614282	-0.00756917	0	0	0	0	-0.168634	-0.211343	-0.993297	34.0625	3	49585	5010064
510	-0.959472	-0.919667	9.52817	-0.757176	1.09242	0.68346	-0.00959802	-0.00920547	0.0952806	1	5.1273e-05	-1.23956e-05	-5.07675e-05	0.0102546	-0.00247913	-0.0101535	0	0	0	0	-0.171994	-0.213596	-0.974645	34.0625	3	49589	5010464
511	0.394267	2.19176	10.7897	0.274567	-2.19863	1.04722	0.00391145	0.0218801	0.107906	1	0.000170649	-0.000163144	-9.10876e-05	0.0341297	-0.0326288	-0.0182175	0	0	0	0	-0.175372	-0.218861	-0.978787	34.0625	3	49592	5010764
512	0.0933758	-0.85476	11.0911	-2.65589	0.992327	2.64807	0.000940755	-0.00867009	0.110901	1	0.000550624	4.61625e-05	-0.000188335	0.110125	0.0092325	-0.0376671	0	0	0	0	-0.177833	-0.226858	-0.966832	34.0625	3	49595	5011064
513	-1.09646	1.15639	9.87455	0.758369	-1.17455	1.31183	-0.0109474	0.0115812	0.0987454	1	-7.4551e-05	7.31613e-05	-0.00011844	-0.0149102	0.0146323	-0.023688	0	0	0	0	-0.174344	-0.231312	-0.964926	34.0625	3	49599	5011464
514	0.894665	-1.01814	12.2675	-2.86077	0.146977	3.6115	0.00896946	-0.0101978	0.122672	1	5.68742e-05	0.000104669	-0.000140557	0.0113748	0.0209338	-0.0281114	0	0	0	0	-0.17656	-0.243477	-0.965692	34.0625	3	49602	5011764
515	-2.63779	0.647523	7.22914	2.49141	0.412847	-1.96228	-0.0264204	0.00650491	0.0722732	1	-0.000110842	-0.000317394	-0.000258579	-0.0221683	-0.0634789	-0.0517158	0	0	0	0	-0.169146	-0.245127	-0.958692	34.0625	3	49605	5012064
516	-0.037355	1.10042	11.1168	-0.965528	-1.01533	2.5403	-0.000383209	0.0109848	0.11117	1	8.79726e-05	-6.35821e-05	-0.000203633	0.0175945	-0.0127164	-0.0407266	0	0	0	0	-0.170819	-0.257341	-0.956935	34.0625	3	49609	5012464
517	-0.109011	1.02819	10.6361	-0.427319	-1.52598	1.97785	-0.00105633	0.0102895	0.106361	1	-3.34934e-05	0.000137344	-0.00022164	-0.00669867	0.0274688	-0.0443281	0	0	0	0	-0.16428	-0.253265	-0.942228	34.0625	3	49612	5012764
518	-0.812737	1.30585	10.3486	0.392302	-1.19152	1.72181	-0.00812734	0.0130727	0.103484	1	-5.33086e-05	-2.42606e-05	-0.00019343	-0.0106617	-0.00485213	-0.038686	0	0	0	0	-0.164188	-0.262487	-0.944959	34.0625	3	49615	5013064
519	-0.36699	2.24347	10.7637	-0.0376554	-2.29073	2.38266	-0.0036216	0.0224458	0.107636	1	-4.68273e-05	0.000196556	-0.000133343	-0.00936546	0.0393112	-0.0266686	0	0	0	0	-0.160511	-0.25985	-0.93027	34.0625	3	49619	5013464
520	-2.29279	-0.479117	8.30312	0.639392	1.49246	-0.26881	-0.0229001	-0.00477657	0.0830397	1	-3.90569e-05	0.000177749	-0.000177091	-0.00781138	0.0355497	-0.0354182	0	0	0	0	-0.158322	-0.254893	-0.935726	34.0625	3	49622	5013764
521	-0.717289	-2.04221	8.84367	-1.02508	1.78674	-0.144415	-0.00720119	-0.0204373	0.0884308	1	9.70549e-05	-0.000128889	-0.000134774	0.019411	-0.0257779	-0.0269547	0	0	0	0	-0.158854	-0.259536	-0.92118	34.0625	3	49625	5014064
522	-2.29778	-0.851579	8.06273	1.40472	2.03777	-1.32477	-0.0229944	-0.00855193	0.0806187	1	0.000278598	-8.23757e-05	-0.000191027	0.0557196	-0.0164751	-0.0382054	0	0	0	0	-0.155155	-0.252713	-0.922561	34.0625	3	49629	5014464
523	-0.826607	-0.751559	10.505	-1.02492	0.693017	2.22696	-0.00821881	-0.00751561	0.105054	1	1.77982e-05	0.000241136	-0.000225834	0.00355964	0.0482272	-0.0451668	0	0	0	0	-0.16031	-0.260961	-0.92272	34.0625	3	49632	5014764
524	0.851191	-0.12926	11.4153	-1.90823	-0.306545	1.99634	0.00852205	-0.00132339	0.114152	1	0.000128184	4.54074e-05	-8.913e-05	0.0256368	0.00908148	-0.017826	0	0	0	0	-0.155594	-0.252257	-0.920528	34.0625	3	49635	5015064
522	-2.07222	0.194242	7.9558	1.16655	1.05628	-1.17232	-0.0207272	0.00196199	0.0795562	1	-5.47711e-05	-3.80712e-05	-0.000261751	-0.0109542	-0.00761424	-0.0523501	0	0	0	0	-0.158492	-0.261862	-0.927799	34.0625	3	49639	5015464
526	-2.50929	0.980148	8.44866	1.49746	0.0624674	0.11177	-0.0250583	0.00979526	0.0844975	1	8.33192e-05	0.000186543	-0.0001567	0.0166638	0.0373086	-0.0313401	0	0	0	0	-0.156518	-0.259024	-0.923705	34.0625	3	49642	5015764
527	-0.75139	-1.95387	9.36251	-1.98484	2.08042	0.932355	-0.00748901	-0.0195512	0.0936245	1	8.50325e-05	0.000180837	-0.000229339	0.0170065	0.0361675	-0.0458677	0	0	0	0	-0.153315	-0.262304	-0.932884	34.0625	3	49646	5016164
528	-1.12258	-1.54251	9.01597	-0.0343346	1.25044	-0.0941207	-0.0112394	-0.0154039	0.0901617	1	-9.54816e-05	-4.48343e-05	-0.000177129	-0.0190963	-0.00896687	-0.0354257	0	0	0	0	-0.154044	-0.265358	-0.925372	34.0625	3	49649	5016464
529	-0.205099	-0.208517	11.0694	-1.74034	0.311602	2.84201	-0.00205526	-0.00207825	0.110694	1	-2.88515e-05	-1.67999e-05	-0.000131456	-0.0057703	-0.00335999	-0.0262912	0	0	0	0	-0.149895	-0.26478	-0.932449	34.0625	3	49652	5016764
530	-0.305422	1.02835	10.9231	-0.55673	-0.949484	2.12578	-0.00303395	0.0102284	0.109237	1	0.00025672	7.76932e-05	-0.000160744	0.051344	0.0155386	-0.0321488	0	0	0	0	-0.150105	-0.266419	-0.922383	34.0625	3	49655	5017064
531	-1.06552	-0.521177	8.85149	-0.101506	0.724049	-0.0630798	-0.0106866	-0.00523177	0.08851	1	0.000127949	-0.000170041	-0.000124416	0.0255898	-0.0340082	-0.0248832	0	0	0	0	-0.149672	-0.260606	-0.920236	34.0625	3	49659	5017464
532	-0.672469	1.8627	9.91802	0.292955	-1.60968	1.18274	-0.00667972	0.0185956	0.0991891	1	0.000170761	0.000191319	-0.0001887	0.0341522	0.0382637	-0.0377399	0	0	0	0	-0.153419	-0.264503	-0.91879	34.0625	3	49662	5017764
533	-2.03382	-0.284852	9.19476	0.44234	0.952501	0.440903	-0.0203192	-0.0028966	0.0919503	1	0.000298469	0.000108642	-0.000167617	0.0596938	0.0217283	-0.0335234	0	0	0	0	-0.150957	-0.256854	-0.911056	34.0625	3	49665	5018064
534	-0.876176	-0.84286	9.4853	0.075416	0.539594	0.0180942	-0.00881741	-0.00840149	0.0948503	1	-0.000130231	-0.000281293	-0.00013644	-0.0260463	-0.0562587	-0.0272881	0	0	0	0	-0.157554	-0.260754	-0.908081	34.0625	3	49669	5018464
535	-2.02803	-0.677087	7.91699	0.00365791	2.23851	-0.633238	-0.0202872	-0.00685844	0.0791606	1	0.00058602	-3.25485e-05	-0.000128569	0.117204	-0.00650971	-0.0257139	0	0	0	0	-0.158749	-0.253696	-0.892767	34.0625	3	49672	5018764
536	-1.30232	0.685434	8.79024	0.98119	0.794547	-0.701577	-0.0130582	0.00686222	0.0878966	1	-1.08707e-05	-0.000216773	-0.00022899	-0.00217414	-0.0433546	-0.045798	0	0	0	0	-0.168324	-0.259434	-0.894871	34.0625	3	49675	5019064
537	0.109644	0.601047	10.6009	-0.667854	-0.238658	1.07488	0.00102325	0.00594824	0.106013	1	0.000291889	-0.00035411	-0.000158243	0.0583779	-0.0708221	-0.0316486	0	0	0	0	-0.17429	-0.257665	-0.881672	34.0625	3	49679	5019464
538	-0.638834	-1.024	9.68874	-1.01913	1.28458	0.898579	-0.0063971	-0.010281	0.0968824	1	0.000227391	-1.99199e-05	-0.000238895	0.0454782	-0.00398399	-0.047779	0	0	0	0	-0.172896	-0.257641	-0.883699	34.0625	3	49682	5019764
539	-1.47639	1.45868	9.53004	1.69235	-0.305096	0.217459	-0.0147678	0.0145592	0.095304	1	0.000165885	-4.13279e-05	-0.000138385	0.033177	-0.00826557	-0.027677	0	0	0	0	-0.175414	-0.262223	-0.871667	34	3	49685	5020064
540	0.675589	-2.42892	10.8724	-2.3736	1.11865	1.42373	0.00669293	-0.0242835	0.108729	1	-3.61189e-05	-0.000252809	-0.0001644	-0.00722377	-0.0505618	-0.0328799	0	0	0	0	-0.170569	-0.261324	-0.869649	34	3	49689	5020464
541	-0.754607	-0.799558	10.2174	-1.32618	0.453597	1.69572	-0.00753361	-0.00798725	0.102176	1	-2.77692e-05	7.47556e-05	-0.000175904	-0.00555384	0.0149511	-0.0351807	0	0	0	0	-0.175052	-0.274534	-0.865377	34	3	49692	5020764
542	-0.972894	0.499874	8.78957	0.405673	0.131061	-0.0343938	-0.00975542	0.00493541	0.0878963	1	0.000373975	-0.000157647	-0.000123942	0.0747949	-0.0315293	-0.0247884	0	0	0	0	-0.167676	-0.266519	-0.853111	34	3	49695	5021064
543	-1.03281	-0.948371	10.6413	-0.788225	1.12013	1.75476	-0.010277	-0.00947358	0.106419	1	-2.80548e-05	0.000257969	-0.000201664	-0.00561097	0.0515938	-0.0403329	0	0	0	0	-0.165948	-0.276376	-0.848288	34	3	49699	5021464
544	-1.90094	-1.73315	9.81558	-1.32804	2.65179	1.61336	-0.0189569	-0.0173609	0.0981608	1	0.000183758	0.000298509	-0.000176135	0.0367515	0.0597019	-0.0352269	0	0	0	0	-0.159865	-0.272314	-0.832569	34	3	49702	5021764
545	-1.38361	-0.587761	8.83575	0.309416	0.847813	-0.290406	-0.0138377	-0.0058495	0.0883591	1	-0.000132626	1.8314e-06	-0.000168742	-0.0265252	0.00036628	-0.0337484	0	0	0	0	-0.157782	-0.278228	-0.830184	34	3	49705	5022064
546	-0.852845	-0.110738	10.097	0.487275	0.15407	0.728522	-0.00851843	-0.00107959	0.100971	1	-0.000121345	5.16894e-05	-0.000192801	-0.0242691	0.0103379	-0.0385603	0	0	0	0	-0.150634	-0.276658	-0.812	34	3	49709	5022464
547	-0.600909	-0.358905	10.7242	-1.3483	0.103575	2.17989	-0.00600743	-0.00359157	0.107242	1	2.02749e-05	1.28319e-05	-0.000152177	0.00405498	0.00256639	-0.0304355	0	0	0	0	-0.147261	-0.271871	-0.808374	34	3	49712	5022764
548	0.627702	-0.884886	11.2889	-2.78042	0.34675	2.48088	0.00625622	-0.00894527	0.112882	1	0.000421308	-8.40189e-05	-0.000103016	0.0842616	-0.0168038	-0.0206032	0	0	0	0	-0.146336	-0.27509	-0.792288	34	3	49715	5023064
549	-1.58521	0.258305	9.28436	0.519153	0.77324	0.373521	-0.0158244	0.00255423	0.0928491	1	0.000172427	0.000146642	-0.000100946	0.0344854	0.0293284	-0.0201892	0	0	0	0	-0.138694	-0.267404	-0.789122	34	3	49719	5023464
550	-1.06365	-0.785515	9.69139	-1.19508	1.25258	1.25336	-0.0105959	-0.00789902	0.0969148	1	0.000227234	0.000210531	-8.60326e-06	0.0454468	0.0421062	-0.00172065	0	0	0	0	-0.137524	-0.276237	-0.786798	34	3	49722	5023764
551	-0.0111962	0.246359	10.4896	-1.41534	-0.158078	1.76358	-0.000132876	0.00240565	0.104897	1	0.000275969	-9.56099e-05	0.000175862	0.0551938	-0.019122	0.0351724	0	0	0	0	-0.128378	-0.272944	-0.784242	34	3	49725	5024064
552	-1.32536	-2.33492	9.55781	-1.24358	2.25151	0.62805	-0.0132513	-0.0233566	0.0955766	1	-2.83611e-06	-6.18877e-05	0.000302362	-0.000567222	-0.0123775	0.0604725	0	0	0	0	-0.127288	-0.285092	-0.787548	34	3	49729	5024464
