frame_id	accel_x	accel_y	accel_z	free_accel_x	free_accel_y	free_accel_z	delta_v_x	delta_v_y	delta_v_z	delta_q_w	delta_q_x	delta_q_y	delta_q_z	rate_x	rate_y	rate_z	quat_w	quat_x	quat_y	quat_z	mag_x	mag_y	mag_z	temperature	status_byte	packet_counter	time_fine
2134	0	0	0	0	0	0	0	0	0	0	0	0	0	0	0	0	0	0	0	0	0	0	0	0	0	0	0
1	0	0	0	0	0	0	0	0	0	0	0	0	0	0	0	0	0	0	0	0	0	0	0	0	0	0	0
2	0	0	0	0	0	0	0	0	0	0	0	0	0	0	0	0	0	0	0	0	0	0	0	0	0	0	0
3	0	0	0	0	0	0	0	0	0	0	0	0	0	0	0	0	0	0	0	0	0	0	0	0	0	0	0
4	0	0	0	0	0	0	0	0	0	0	0	0	0	0	0	0	0	0	0	0	0	0	0	0	0	0	0
5	0	0	0	0	0	0	0	0	0	0	0	0	0	0	0	0	0	0	0	0	0	0	0	0	0	0	0
6	-0.741165	-0.0746414	9.78181	-0.130902	-0.586645	0.983349	-0.00741496	-0.000756619	0.0978178	1	4.98033e-05	-1.71399e-05	3.11082e-05	0.00996067	-0.00342799	0.00622164	0	0	0	0	0.00723702	0.507284	-0.991773	33.625	3	34203	3467432
7	-0.741165	-0.0746414	9.78181	-0.130902	-0.586645	0.983349	-0.00741496	-0.000756619	0.0978178	1	4.98033e-05	-1.71399e-05	3.11082e-05	0.00996067	-0.00342799	0.00622164	0	0	0	0	0.00723702	0.507284	-0.991773	33.625	3	34203	3467432
8	-0.741165	-0.0746414	9.78181	-0.130902	-0.586645	0.983349	-0.00741496	-0.000756619	0.0978178	1	4.98033e-05	-1.71399e-05	3.11082e-05	0.00996067	-0.00342799	0.00622164	0	0	0	0	0.00723702	0.507284	-0.991773	33.625	3	34203	3467432
9	-0.741165	-0.0746414	9.78181	-0.130902	-0.586645	0.983349	-0.00741496	-0.000756619	0.0978178	1	4.98033e-05	-1.71399e-05	3.11082e-05	0.00996067	-0.00342799	0.00622164	0	0	0	0	0.00723702	0.507284	-0.991773	33.625	3	34203	3467432
10	-0.741165	-0.0746414	9.78181	-0.130902	-0.586645	0.983349	-0.00741496	-0.000756619	0.0978178	1	4.98033e-05	-1.71399e-05	3.11082e-05	0.00996067	-0.00342799	0.00622164	0	0	0	0	0.00723702	0.507284	-0.991773	33.625	3	34203	3467432
11	-0.754019	-0.0809248	9.78421	0.143337	-0.499638	0.989489	-0.00754238	-0.000820101	0.0978419	1	5.3933e-05	-1.13675e-05	1.98594e-05	0.0107866	-0.0022735	0.00397187	0	0	0	0	0.00480722	0.508767	-0.991729	33.625	1	34205	3469102
12	-0.748849	-0.0740353	9.79646	0.148195	-0.494143	1.00058	-0.00749167	-0.000751532	0.0979642	1	5.61961e-05	-1.63277e-05	1.12262e-05	0.0112392	-0.00326555	0.00224524	0	0	0	0	0.00909266	0.510692	-0.992211	33.625	1	34208	3469402
10	-0.758717	-0.0605033	9.78373	0.134713	-0.482499	0.988228	-0.00758726	-0.000614474	0.0978373	1	4.63464e-05	-6.1654e-07	2.45309e-05	0.00926928	-0.000123308	0.00490618	0	0	0	0	0.0067891	0.508228	-0.98973	33.625	1	34212	3469802
14	-0.775123	-0.0677101	9.77394	0.11826	-0.499764	0.978133	-0.00775185	-0.000687403	0.0977393	1	5.13362e-05	-3.29514e-06	1.72204e-05	0.0102672	-0.000659029	0.00344409	0	0	0	0	0.00771387	0.506801	-0.992291	33.625	1	34215	3470102
15	-0.748049	-0.0634274	9.78162	0.143119	-0.493821	0.986042	-0.00748243	-0.000646088	0.0978159	1	5.85077e-05	-1.00733e-05	2.4581e-05	0.0117015	-0.00201466	0.0049162	0	0	0	0	0.00722514	0.508738	-0.991235	33.625	1	34219	3470502
16	-0.78211	-0.0579545	9.77816	0.110623	-0.492982	0.987386	-0.00782365	-0.000586829	0.0977813	1	3.58187e-05	-1.31706e-05	1.78534e-05	0.00716375	-0.00263413	0.00357068	0	0	0	0	0.00622971	0.507807	-0.993272	33.625	1	34222	3470802
17	-0.759975	-0.0671581	9.79522	0.1325	-0.507912	0.998163	-0.00759866	-0.000680941	0.0979522	1	4.58473e-05	5.4371e-06	2.4894e-05	0.00916945	0.00108742	0.0049788	0	0	0	0	0.00816271	0.508748	-0.99225	33.625	1	34225	3471102
18	-0.750011	-0.0512383	9.78581	0.143485	-0.493302	0.989213	-0.00750594	-0.000521428	0.0978576	1	4.57167e-05	-2.97931e-05	6.48935e-06	0.00914334	-0.00595862	0.00129787	0	0	0	0	0.00572818	0.508308	-0.993763	33.625	1	34228	3471402
19	-0.716991	-0.070406	9.7905	0.17299	-0.517015	0.988681	-0.00717211	-0.000714381	0.0979048	1	5.07461e-05	-1.14418e-05	2.67997e-05	0.0101492	-0.00228837	0.00535993	0	0	0	0	0.00859494	0.510226	-0.993229	33.625	1	34232	3471802
20	-0.713334	-0.0626699	9.78545	0.175525	-0.508695	0.986356	-0.00713664	-0.00063347	0.0978542	1	3.19445e-05	-1.71083e-05	3.63793e-05	0.00638889	-0.00342166	0.00727586	0	0	0	0	0.0082486	0.50724	-0.989758	33.625	1	34235	3472102
21	-0.739319	-0.0613717	9.78123	0.142933	-0.516413	0.983648	-0.00739505	-0.000623601	0.0978121	1	5.00697e-05	-9.54803e-06	6.04436e-06	0.0100139	-0.00190961	0.00120887	0	0	0	0	0.00664107	0.508336	-0.995787	33.625	1	34239	3472502
22	-0.706489	-0.0593411	9.78033	0.180249	-0.521942	0.979882	-0.00706496	-0.000603758	0.0978033	1	5.14312e-05	-4.91925e-07	2.02436e-05	0.0102862	-9.8385e-05	0.00404871	0	0	0	0	0.00676443	0.508246	-0.990739	33.625	1	34242	3472802
23	-0.734884	-0.054353	9.78973	0.145665	-0.519375	0.98813	-0.0073517	-0.000551293	0.0978971	1	3.83257e-05	-1.47036e-05	1.76469e-05	0.00766514	-0.00294073	0.00352938	0	0	0	0	0.00862296	0.507796	-0.993788	33.625	1	34245	3473102
24	-0.771059	-0.0449642	9.77717	0.112371	-0.502591	0.973791	-0.00771443	-0.000457234	0.0977714	1	3.64834e-05	-1.97702e-05	2.96647e-05	0.00729669	-0.00395403	0.00593293	0	0	0	0	0.00816697	0.509227	-0.991734	33.625	1	34249	3473502
25	-0.755436	-0.0744259	9.77411	0.120756	-0.540129	0.977576	-0.00755993	-0.000753436	0.0977406	1	4.65959e-05	-2.8573e-05	4.55077e-06	0.00931918	-0.00571459	0.000910154	0	0	0	0	0.00627052	0.506813	-0.992284	33.625	1	34252	3473802
26	-0.749094	-0.0637913	9.78263	0.133197	-0.538079	0.977432	-0.0074937	-0.000649378	0.097826	1	5.79432e-05	-1.41224e-05	8.53288e-06	0.0115886	-0.00282448	0.00170658	0	0	0	0	0.0067687	0.508724	-0.990223	33.625	1	34255	3474102
27	-0.752771	-0.0643877	9.78672	0.131224	-0.542355	0.987971	-0.00753062	-0.000651161	0.0978669	1	3.55673e-05	-1.49867e-05	2.14204e-05	0.00711346	-0.00299735	0.00428407	0	0	0	0	0.00626625	0.506335	-0.9928	33.625	1	34258	3474402
28	-0.714018	-0.0621792	9.79157	0.160838	-0.538525	0.985474	-0.00714283	-0.000631802	0.0979154	1	5.01164e-05	-1.3638e-05	1.37035e-05	0.0100233	-0.00272761	0.0027407	0	0	0	0	0.00616041	0.509785	-0.994743	33.625	1	34262	3474802
29	-0.741571	-0.0619414	9.77819	0.137022	-0.54571	0.979781	-0.00742003	-0.000630573	0.0977815	1	5.5572e-05	-2.21953e-05	1.95988e-05	0.0111144	-0.00443906	0.00391975	0	0	0	0	0.00679626	0.504849	-0.991825	33.625	1	34265	3475102
30	-0.749456	-0.0662517	9.7704	0.130879	-0.554109	0.973543	-0.00749827	-0.000671388	0.0977037	1	4.41148e-05	-1.91017e-05	1.67135e-05	0.00882296	-0.00382034	0.00334269	0	0	0	0	0.00764412	0.507334	-0.994804	33.625	1	34269	3475502
31	-0.734185	-0.0717262	9.79163	0.141385	-0.557748	0.990547	-0.00734731	-0.000723534	0.0979159	1	3.05604e-05	-2.80289e-05	1.95543e-05	0.00611208	-0.00560579	0.00391086	0	0	0	0	0.00676017	0.507767	-0.991255	33.625	1	34272	3475802
32	-0.726154	-0.0719096	9.78852	0.143521	-0.564403	0.990211	-0.00726425	-0.000726225	0.0978849	1	3.54462e-05	-1.39733e-05	1.30889e-05	0.00708925	-0.00279467	0.00261777	0	0	0	0	0.0057562	0.505878	-0.994323	33.625	1	34275	3476102
33	-0.713341	-0.0672293	9.79219	0.160516	-0.556076	0.989012	-0.00713568	-0.000678446	0.0979217	1	2.96439e-05	-1.17385e-05	2.43225e-05	0.00592878	-0.0023477	0.0048645	0	0	0	0	0.00776322	0.506765	-0.990272	33.625	1	34279	3476502
34	-0.727315	-0.0462855	9.76804	0.151242	-0.543345	0.962328	-0.00727366	-0.000470131	0.0976803	1	3.51575e-05	-2.73447e-06	2.79731e-05	0.0070315	-0.000546894	0.00559462	0	0	0	0	0.00723702	0.507284	-0.991773	33.625	1	34282	3476802
35	-0.754456	-0.0507444	9.78955	0.128219	-0.547471	0.986936	-0.00754247	-0.000514015	0.0978956	1	3.24082e-05	1.05705e-05	1.49886e-05	0.00648164	0.0021141	0.00299772	0	0	0	0	0.00718387	0.508287	-0.993265	33.625	1	34285	3477102
36	-0.770169	-0.0817438	9.78942	0.104599	-0.582036	0.993587	-0.00770648	-0.000828262	0.0978937	1	5.48548e-05	-2.45482e-05	5.45182e-06	0.010971	-0.00490964	0.00109036	0	0	0	0	0.00678438	0.506304	-0.991287	33.625	1	34289	3477502
37	-0.753994	-0.0473079	9.78589	0.117784	-0.550089	0.985433	-0.00754647	-0.000476766	0.0978584	1	1.76079e-05	-3.34361e-05	1.5965e-05	0.00352157	-0.00668721	0.003193	0	0	0	0	0.0066624	0.51073	-0.993209	33.625	1	34292	3477802
38	-0.720096	-0.0864013	9.78258	0.157987	-0.5898	0.97822	-0.00720054	-0.00087523	0.0978257	1	5.59875e-05	1.97821e-06	1.8302e-05	0.0111975	0.000395643	0.0036604	0	0	0	0	0.00535763	0.506785	-0.99026	33.625	1	34295	3478102
39	-0.753505	-0.0746018	9.7907	0.118836	-0.580703	0.991307	-0.0075357	-0.000755536	0.0979069	1	4.70112e-05	-3.49277e-06	2.07556e-05	0.00940225	-0.000698554	0.00415112	0	0	0	0	0.00626245	0.507301	-0.992273	33.625	1	34299	3478502
40	-0.785161	-0.0583917	9.78936	0.0822188	-0.569779	0.993388	-0.00785444	-0.000593066	0.0978933	1	4.47946e-05	-1.45903e-05	2.41196e-05	0.00895892	-0.00291806	0.00482391	0	0	0	0	0.00676489	0.509691	-0.989697	33.625	1	34302	3478802
41	-0.745091	-0.0707093	9.77948	0.122431	-0.580504	0.977933	-0.00745066	-0.000714847	0.0977948	1	3.80819e-05	1.12297e-06	2.05653e-05	0.00761638	0.000224594	0.00411306	0	0	0	0	0.0076726	0.50635	-0.994321	33.625	1	34305	3479102
42	-0.708844	-0.047398	9.77809	0.154323	-0.560614	0.976364	-0.0070897	-0.000481981	0.0977807	1	3.98737e-05	-6.51521e-06	1.43387e-05	0.00797474	-0.00130304	0.00286773	0	0	0	0	0.0062259	0.508773	-0.992745	33.625	1	34309	3479502
43	-0.697038	-0.0507673	9.78102	0.162466	-0.566819	0.977802	-0.00696979	-0.000516226	0.0978102	1	4.24738e-05	2.9336e-06	1.75183e-05	0.00849477	0.00058672	0.00350367	0	0	0	0	0.00671463	0.506836	-0.993801	33.625	1	34312	3479802
44	-0.767165	-0.0701441	9.7793	0.0889329	-0.589736	0.982363	-0.00767296	-0.00071009	0.0977928	1	4.25875e-05	-6.83971e-06	2.08207e-05	0.00851749	-0.00136794	0.00416415	0	0	0	0	0.00822439	0.508703	-0.989726	33.625	1	34315	3480102
45	-0.712284	-0.0889554	9.79405	0.13814	-0.610463	0.988956	-0.00712917	-0.00089784	0.09794	1	4.0289e-05	-3.26053e-05	2.76663e-05	0.0080578	-0.00652105	0.00553326	0	0	0	0	0.00671509	0.508282	-0.992758	33.625	1	34318	3480402
46	-0.729032	-0.0647114	9.79133	0.120244	-0.592895	0.986823	-0.00729691	-0.000663544	0.0979127	1	8.20868e-05	-3.38332e-05	2.43463e-05	0.0164174	-0.00676664	0.00486926	0	0	0	0	0.00763224	0.508788	-0.994266	33.625	1	34322	3480802
47	-0.745879	-0.00286882	9.75737	0.105114	-0.519884	0.954932	-0.007463	-4.06855e-05	0.0975733	1	6.10763e-05	-2.15951e-05	5.25712e-06	0.0122153	-0.00431903	0.00105142	0	0	0	0	0.0072987	0.507239	-0.989249	33.625	1	34325	3481102
48	-0.808635	-0.096453	9.78816	0.0422116	-0.627383	0.990537	-0.00808076	-0.000973688	0.0978819	1	4.38953e-05	2.81915e-05	3.49258e-05	0.00877906	0.0056383	0.00698517	0	0	0	0	0.00717153	0.508296	-0.99377	33.625	1	34329	3481502
49	-0.781607	-0.0874264	9.79521	0.064827	-0.620963	0.995468	-0.00782136	-0.000883604	0.0979516	1	4.58734e-05	-2.71925e-05	2.25641e-05	0.00917468	-0.00543849	0.00451282	0	0	0	0	0.00632032	0.508223	-0.989222	33.625	1	34332	3481802
50	-0.794613	-0.0273345	9.77952	0.0592267	-0.556709	0.972438	-0.00794817	-0.000282412	0.097795	1	4.54635e-05	-1.04885e-05	1.09725e-05	0.00909271	-0.0020977	0.00219451	0	0	0	0	0.00767732	0.508274	-0.992763	33.625	1	34335	3482102
51	-0.79281	-0.0972941	9.78399	0.0697787	-0.637858	0.985315	-0.0079279	-0.000982168	0.0978398	1	4.57577e-05	8.85224e-07	1.72238e-05	0.00915155	0.000177045	0.00344477	0	0	0	0	0.00776794	0.508689	-0.988714	33.625	1	34339	3482502
52	-0.784013	-0.0763526	9.78242	0.0674834	-0.613116	0.981079	-0.0078429	-0.000777236	0.0978239	1	6.8184e-05	-1.43483e-05	2.35754e-05	0.0136368	-0.00286967	0.00471507	0	0	0	0	0.00580981	0.506321	-0.991788	33.625	1	34342	3482802
53	-0.705138	-0.0740383	9.80838	0.140328	-0.606608	1.00206	-0.00705823	-0.000748127	0.0980832	1	3.7169e-05	-3.51555e-05	3.20694e-05	0.00743379	-0.0070311	0.00641388	0	0	0	0	0.00963453	0.507752	-0.991773	33.625	1	34345	3483102
54	-0.633785	-0.0801411	9.79597	0.208861	-0.615806	0.984171	-0.00634311	-0.000811537	0.0979593	1	5.12321e-05	-2.68855e-05	6.94546e-06	0.0102464	-0.0053771	0.00138909	0	0	0	0	0.00875012	0.506739	-0.989267	33.625	1	34349	3483502
55	-0.423274	-0.0518695	9.81247	0.449004	-0.586802	1.01297	-0.00425623	-0.000527112	0.0981236	1	4.1609e-05	-0.000119899	2.96283e-05	0.0083218	-0.0239798	0.00592566	0	0	0	0	0.0071758	0.508774	-0.993255	33.625	1	34352	3483802
56	-0.296367	-0.0496586	9.79675	0.517709	-0.574536	0.954098	-0.00300234	-0.000497745	0.0979663	1	4.92005e-06	-0.00019756	3.25626e-05	0.000984011	-0.039512	0.00651252	0	0	0	0	0.00773474	0.50775	-0.990755	33.625	1	34355	3484102
57	-0.266514	-0.0538415	9.7737	0.574569	-0.622101	0.933321	-0.00267467	-0.000565899	0.0977366	1	0.000140354	-4.87872e-05	9.18035e-06	0.0280707	-0.00975743	0.00183607	0	0	0	0	0.00572011	0.508795	-0.993752	33.625	1	34359	3484502
58	0.160619	-0.0669943	9.91725	1.01781	-0.620547	1.05965	0.00159643	-0.000675257	0.0991727	1	2.73134e-05	-4.94457e-05	3.22372e-05	0.00546268	-0.00988915	0.00644744	0	0	0	0	0.00498708	0.505263	-0.986757	33.625	1	34362	3484802
59	0.174352	-0.0564886	9.92097	0.972158	-0.599219	1.04529	0.00169811	-0.0005838	0.0992103	1	9.52052e-05	-0.000228813	-6.77722e-06	0.019041	-0.0457626	-0.00135544	0	0	0	0	0.00447276	0.504327	-0.988795	33.625	1	34365	3485102
60	1.20024	-0.14587	10.0054	1.9852	-0.672879	0.986258	0.0118898	-0.00147478	0.100067	1	9.95168e-05	-0.00056536	0.000160632	0.0199034	-0.113072	0.0321265	0	0	0	0	0.00441718	0.510632	-0.986635	33.625	1	34369	3485502
61	0.521552	0.501801	9.95104	1.32075	-0.0907275	1.22579	0.00515516	0.00496619	0.0995161	1	0.000258129	-0.000305394	-4.23346e-05	0.0516258	-0.0610788	-0.00846691	0	0	0	0	0.000612399	0.507259	-0.987197	33.625	1	34372	3485802
62	1.16385	-0.713744	9.99719	1.91609	-1.35704	1.08757	0.0115961	-0.00716996	0.0999745	1	0.000170965	-0.00021711	7.17106e-05	0.034193	-0.043422	0.0143421	0	0	0	0	-9.03178e-05	0.508523	-0.97555	33.625	1	34375	3486102
63	0.835152	-0.269668	9.74332	1.64436	-0.868205	0.877362	0.00832357	-0.0027272	0.0974347	1	0.000162917	-0.000145465	7.37806e-05	0.0325834	-0.029093	0.0147561	0	0	0	0	-0.00113891	0.508594	-0.979079	33.625	1	34379	3486502
64	0.364297	0.189445	9.65177	1.14333	-0.338769	0.78369	0.00362418	0.00188556	0.0965186	1	4.96804e-05	-9.54597e-05	9.63034e-05	0.00993608	-0.0190919	0.0192607	0	0	0	0	0.00053169	0.512137	-0.987088	33.625	1	34382	3486802
65	-0.13607	-0.248558	9.76671	0.643203	-0.792904	0.897672	-0.00134354	-0.00248826	0.0976673	1	1.22578e-05	8.51067e-05	0.000106441	0.00245156	0.0170213	0.0212882	0	0	0	0	0.000703475	0.50912	-0.982106	33.625	1	34385	3487102
66	-0.357501	0.00393491	9.9868	0.501453	-0.58123	1.18481	-0.00355193	6.74676e-06	0.0998688	1	0.000158932	0.000115583	0.00012035	0.0317865	0.0231166	0.02407	0	0	0	0	-0.000307644	0.510609	-0.983078	33.625	1	34389	3487502
67	0.499378	-0.0349399	9.98131	1.14701	-0.594127	1.03708	0.00494432	-0.000357559	0.0998156	1	4.76099e-05	-0.000248234	0.000135302	0.00952198	-0.0496468	0.0270604	0	0	0	0	0.000198605	0.512033	-0.981028	33.625	1	34392	3487802
68	-0.0703272	0.205983	10.0097	0.526658	-0.398116	1.02586	-0.000709093	0.00204324	0.100097	1	8.16998e-05	-2.55791e-05	0.000170612	0.01634	-0.00511582	0.0341224	0	0	0	0	-0.00140466	0.513607	-0.986542	33.625	1	34395	3488102
69	0.128783	0.0275714	10.0139	0.765015	-0.594099	1.02419	0.00130681	0.000256732	0.100139	1	9.73371e-05	9.527e-05	0.00019758	0.0194674	0.019054	0.0395159	0	0	0	0	0.000195257	0.514444	-0.97946	33.625	1	34399	3488502
70	-0.166532	0.00510106	9.87327	0.523043	-0.522813	1.02764	-0.0016697	4.7214e-05	0.0987327	1	1.62834e-05	-2.20964e-05	0.00017429	0.00325667	-0.00441927	0.034858	0	0	0	0	-0.00127323	0.513029	-0.981505	33.625	1	34402	3488802
71	-0.941968	-0.469464	9.89342	-0.175642	-1.04876	1.1189	-0.00934467	-0.00470292	0.0989409	1	2.21632e-05	0.000369189	0.000207585	0.00443265	0.0738378	0.0415169	0	0	0	0	0.00150809	0.517901	-0.982419	33.625	3	34405	3489102
72	-0.676863	-0.157042	9.66097	-0.00184577	-0.720589	0.766664	-0.00676292	-0.00164282	0.0966089	1	0.000359642	2.60017e-05	0.00021468	0.0719284	0.00520034	0.042936	0	0	0	0	0.000244601	0.514408	-0.97744	33.625	3	34409	3489502
73	0.0475444	0.160535	9.98475	0.659152	-0.405704	1.04203	0.000454968	0.00156414	0.0998483	1	0.000207302	-9.9352e-05	0.000200423	0.0414604	-0.0198704	0.0400846	0	0	0	0	-0.000840992	0.514506	-0.982484	33.625	3	34412	3489802
74	-0.844777	0.0229336	9.66909	-0.245926	-0.591753	0.828875	-0.00844892	0.000207894	0.0966908	1	9.54193e-05	-5.5624e-06	0.000176972	0.0190839	-0.00111248	0.0353943	0	0	0	0	-0.00115794	0.513427	-0.976446	33.625	3	34415	3490102
75	0.0297039	-0.310455	9.73359	0.724512	-0.905084	0.882299	0.000301058	-0.00313554	0.0973349	1	0.000159918	1.33304e-05	0.00022814	0.0319836	0.00266608	0.045628	0	0	0	0	-0.00403991	0.515375	-0.974874	33.625	3	34419	3490502
76	-0.129668	-0.126648	9.79927	0.678276	-0.698876	0.993543	-0.00125566	-0.00128602	0.097993	1	9.68867e-05	0.000206493	0.000217842	0.0193773	0.0412986	0.0435684	0	0	0	0	-0.00161438	0.513413	-0.975434	33.625	3	34422	3490802
77	-0.481337	0.331049	9.6323	0.0851254	-0.238852	0.873779	-0.00484356	0.00330581	0.0963216	1	1.41471e-05	-0.00014972	0.000202794	0.00282942	-0.0299439	0.0405587	0	0	0	0	-0.000726162	0.513459	-0.978467	33.625	3	34425	3491102
78	-0.439072	-0.332967	9.44594	0.184778	-0.811419	0.551512	-0.00434226	-0.00329802	0.0944628	1	-0.000176902	0.000249371	0.000203266	-0.0353804	0.0498742	0.0406532	0	0	0	0	-0.000680164	0.515834	-0.974879	33.625	3	34429	3491502
79	0.0438238	0.282973	9.36467	0.76588	-0.256489	0.636016	0.000422059	0.00280879	0.0936474	1	0.000112853	-7.97556e-05	0.000220112	0.0225705	-0.0159511	0.0440225	0	0	0	0	-0.00247839	0.511903	-0.972433	33.625	3	34432	3491802
80	0.11762	-0.358576	10.1696	0.624753	-0.931788	1.23767	0.00111077	-0.00359061	0.101697	1	2.6812e-05	-0.000330995	0.000263687	0.0053624	-0.0661991	0.0527374	0	0	0	0	-0.00109914	0.517239	-0.971311	33.625	3	34435	3492102
81	-0.123057	-0.236266	10.3106	0.484654	-0.805412	1.41212	-0.00133511	-0.00237953	0.103104	1	7.86278e-05	-0.000512863	0.000257176	0.0157256	-0.102573	0.0514352	0	0	0	0	-0.00103031	0.513815	-0.970882	33.625	3	34439	3492502
82	-0.17963	-0.199338	10.3917	0.606527	-0.646285	1.60918	-0.00183218	-0.00200222	0.103916	1	3.82905e-05	-0.000177277	0.000241931	0.0076581	-0.0354554	0.0483861	0	0	0	0	0.000866139	0.516229	-0.970332	33.625	3	34442	3492802
83	-0.41594	-0.112551	9.84944	0.271885	-0.75113	0.920142	-0.00411671	-0.00115533	0.0984959	1	0.000140844	0.000213838	0.000251265	0.0281688	0.0427676	0.050253	0	0	0	0	-0.00090695	0.513725	-0.965834	33.625	3	34445	3493102
84	-0.1604	-0.108332	10.1725	0.482783	-0.650606	1.30572	-0.00162194	-0.00107675	0.101725	1	-3.62503e-05	-9.08474e-05	0.000251244	-0.00725007	-0.0181695	0.0502488	0	0	0	0	0.000890812	0.516211	-0.969322	33.625	3	34449	3493502
85	-0.483964	-0.112394	9.66904	0.0631696	-0.82033	0.633457	-0.00479646	-0.00115474	0.0966922	1	0.000148994	0.000220829	0.000205881	0.0297987	0.0441658	0.0411762	0	0	0	0	0.000105089	0.515126	-0.962777	33.625	3	34452	3493802
86	-0.353269	-0.15434	9.7889	0.189469	-0.684688	0.701656	-0.00344132	-0.00154728	0.0978922	1	1.37029e-05	0.000463982	0.000171639	0.00274058	0.0927964	0.0343279	0	0	0	0	0.000956755	0.516645	-0.966283	33.625	3	34455	3494102
87	-0.0843565	0.550098	10.2286	0.381642	0.0277747	1.35052	-0.000848859	0.00549874	0.102286	1	9.64827e-06	-1.71673e-05	0.000161916	0.00192965	-0.00343346	0.0323832	0	0	0	0	0.00301738	0.517975	-0.959697	33.625	3	34459	3494502
88	0.445145	0.261022	10.5612	1.13153	-0.245439	1.93476	0.00432022	0.00265105	0.105617	1	-0.000185575	-0.000616674	0.000185999	-0.037115	-0.123335	0.0371998	0	0	0	0	0.000640273	0.51701	-0.959202	33.625	3	34462	3494802
89	0.134954	-0.0537263	10.8202	0.776442	-0.639285	2.09559	0.00127461	-0.000511097	0.108203	1	-0.000119228	-0.000346921	0.000139313	-0.0238455	-0.0693842	0.0278627	0	0	0	0	0.00219603	0.521253	-0.951539	33.625	3	34465	3495102
90	1.31039	0.199879	10.0417	1.9243	-0.270125	1.21081	0.013024	0.0019625	0.100428	1	0.000196961	-0.000395252	0.00012542	0.0393922	-0.0790503	0.025084	0	0	0	0	-0.00247945	0.521194	-0.945963	33.625	3	34469	3495502
91	-0.174507	0.0355493	8.96544	0.361213	-0.548819	0.122472	-0.00173906	0.000375764	0.0896544	1	-0.000114229	3.37677e-05	6.04958e-05	-0.0228458	0.00675354	0.0120992	0	0	0	0	0.00459446	0.524611	-0.949455	33.625	3	34472	3495802
92	0.965938	-0.349485	10.0918	1.5413	-0.801291	1.04466	0.00961505	-0.00342516	0.100924	1	-0.000345238	-0.000219619	2.73653e-07	-0.0690477	-0.0439239	5.47306e-05	0	0	0	0	0.000462698	0.527394	-0.939273	33.625	3	34475	3496102
93	0.0497632	0.716853	9.86264	0.492303	0.0919378	1.19407	0.000454441	0.0071515	0.0986278	1	8.65519e-05	-0.000215679	4.51945e-05	0.0173104	-0.0431357	0.0090389	0	0	0	0	0.000484021	0.529787	-0.936695	33.625	3	34479	3496502
94	0.567181	0.527386	9.69509	0.969744	0.0174518	0.588848	0.00577929	0.00530976	0.0969426	1	-0.000190191	0.00054963	-8.60865e-05	-0.0380381	0.109926	-0.0172173	0	0	0	0	0.000123382	0.533558	-0.929034	33.625	3	34482	3496802
95	0.076178	-1.18127	10.4194	0.47991	-1.67071	1.48929	0.000734201	-0.0116601	0.104211	1	-0.000731959	-0.000133277	8.36443e-06	-0.146392	-0.0266554	0.00167289	0	0	0	0	-0.00180017	0.536465	-0.92694	33.625	3	34486	3497202
96	0.505244	0.408776	10.177	0.953181	-0.176828	0.961103	0.00499106	0.00409235	0.101773	1	-2.02337e-05	-0.000299712	4.66619e-05	-0.00404675	-0.0599425	0.00933239	0	0	0	0	0.00161883	0.542182	-0.920768	33.625	3	34489	3497502
97	0.526683	0.510834	9.89982	1.05693	-0.249704	1.31365	0.0052108	0.00507272	0.099003	1	0.000178194	-0.000284666	-3.19752e-05	0.0356388	-0.0569331	-0.00639503	0	0	0	0	-0.00366539	0.541738	-0.920753	33.625	3	34492	3497802
98	0.146151	0.22553	9.1205	0.797778	-0.619896	0.241803	0.00157215	0.00221872	0.0912041	1	0.000199803	0.00060548	-4.48649e-05	0.0399606	0.121096	-0.00897298	0	0	0	0	-0.00258603	0.547909	-0.91153	33.625	3	34495	3498102
99	-0.556834	1.63118	9.63895	-0.347891	0.890987	0.435471	-0.00547654	0.016244	0.0964062	1	0.00035321	0.000471376	-2.84266e-05	0.070642	0.0942753	-0.00568532	0	0	0	0	-0.00588318	0.550295	-0.906916	33.625	3	34499	3498502
100	-0.63595	0.698696	9.62083	-0.0811585	-0.157066	0.870632	-0.00635896	0.00697312	0.0962094	1	7.23303e-05	2.33434e-06	-6.62805e-06	0.0144661	0.000466868	-0.00132561	0	0	0	0	-0.00248596	0.552173	-0.904365	33.625	3	34502	3498802
101	0.268036	-0.801691	9.61945	0.612376	-1.34983	0.676037	0.00268339	-0.00803828	0.0961927	1	0.000111683	1.39647e-05	2.18104e-05	0.0223366	0.00279295	0.00436207	0	0	0	0	-0.0057053	0.553538	-0.897249	33.625	3	34505	3499102
102	0.308072	1.17138	9.73534	0.773654	0.433478	0.670364	0.00317214	0.0115902	0.0973653	1	0.000635695	0.00047372	3.53347e-05	0.127139	0.0947441	0.00706694	0	0	0	0	-0.00848189	0.55059	-0.894776	33.625	3	34509	3499502
103	-0.973782	-1.0005	9.15456	-0.497492	-1.90864	0.146438	-0.00973292	-0.0100417	0.0915422	1	0.000194653	2.08856e-05	5.38401e-05	0.0389306	0.00417712	0.010768	0	0	0	0	-0.0092833	0.551926	-0.887167	33.625	3	34512	3499802
104	-0.441469	-0.936252	10.5504	-0.319663	-1.4123	1.19227	-0.00445582	-0.00934703	0.105504	1	-7.59279e-05	-0.000200233	5.95608e-05	-0.0151856	-0.0400466	0.0119122	0	0	0	0	-0.00825984	0.550428	-0.88569	33.625	3	34515	3500102
105	-0.747524	0.059512	10.3146	-0.218412	-0.407201	1.47541	-0.00742757	0.000618578	0.10315	1	-0.000116639	0.000231294	4.05596e-05	-0.0233277	0.0462587	0.00811191	0	0	0	0	-0.00514775	0.54783	-0.878186	33.625	3	34519	3500502
106	-1.87141	-0.0974902	8.77803	-1.47597	-0.902876	-0.426751	-0.0186086	-0.00104854	0.087802	1	0.000430841	0.000601555	-5.38523e-05	0.0861682	0.120311	-0.0107705	0	0	0	0	-0.002698	0.544404	-0.878778	33.625	3	34522	3500802
107	-1.07358	-0.433758	8.91537	-0.443929	-1.22677	0.18939	-0.0107438	-0.00435971	0.0891517	1	0.0001253	-4.43939e-05	-1.01079e-05	0.0250599	-0.00887877	-0.00202158	0	0	0	0	0.00126243	0.545736	-0.873211	33.625	3	34525	3501102
108	-1.7494	0.53885	8.92021	-1.36719	-0.362458	-0.0673065	-0.0174985	0.0053765	0.0892019	1	7.2274e-05	-2.68815e-05	-2.53854e-05	0.0144548	-0.0053763	-0.00507708	0	0	0	0	0.00261331	0.53918	-0.861747	33.625	3	34529	3501502
109	0.39924	-0.450488	10.2191	0.952305	-1.1971	1.15141	0.00402921	-0.0045721	0.102187	1	0.000328123	0.000180942	-1.96297e-05	0.0656247	0.0361885	-0.00392594	0	0	0	0	0.00406139	0.541092	-0.860196	33.625	3	34532	3501802
110	-0.0218457	-0.458778	10.2763	0.569553	-1.01645	1.5107	-0.000140946	-0.0045303	0.102766	1	-0.000279643	0.000377683	-1.25478e-05	-0.0559286	0.0755366	-0.00250955	0	0	0	0	0.00821736	0.536499	-0.850721	33.625	3	34535	3502102
111	-1.91919	0.373538	8.74415	-1.65571	-0.2693	-0.69484	-0.019251	0.00381807	0.087425	1	-0.000454459	-0.000341881	-8.36298e-05	-0.0908917	-0.0683762	-0.016726	0	0	0	0	0.0164746	0.536856	-0.847216	33.625	3	34539	3502502
112	-2.45048	-1.01924	8.63725	-2.20223	-1.48299	-0.348992	-0.0244728	-0.0101646	0.0863848	1	-0.000131776	0.000197172	-0.000103333	-0.0263551	0.0394344	-0.0206666	0	0	0	0	0.0223505	0.535769	-0.843732	33.625	3	34542	3502802
113	-0.735313	-0.0599565	9.31613	-0.32816	-0.548616	0.453225	-0.00737458	-0.000629351	0.0931594	1	0.000161991	-0.00011497	-2.68914e-05	0.0323982	-0.022994	-0.00537828	0	0	0	0	0.0239177	0.537112	-0.837648	33.625	3	34545	3503102
114	0.171517	-0.523634	10.4661	0.823125	-1.32393	1.59895	0.00176115	-0.00529011	0.104657	1	0.000255497	0.000223867	-8.3711e-05	0.0510994	0.0447734	-0.0167422	0	0	0	0	0.0297954	0.541806	-0.829995	33.625	3	34549	3503502
115	0.155443	0.87356	9.70705	0.567527	0.366322	0.715822	0.00159053	0.00881546	0.0970627	1	-0.000412821	0.000177956	-8.82894e-05	-0.0825642	0.0355912	-0.0176579	0	0	0	0	0.0324056	0.538264	-0.824025	33.625	3	34552	3503802
116	-1.60594	-1.2015	9.2223	-1.29705	-2.18291	0.180063	-0.0160701	-0.0119545	0.092229	1	-0.000318799	-5.06099e-05	-5.42892e-05	-0.0637598	-0.010122	-0.0108578	0	0	0	0	0.0401328	0.540106	-0.821495	33.625	3	34555	3504102
117	-1.25519	0.889787	8.92185	-1.14012	0.313822	-0.250659	-0.0125336	0.00884046	0.0892268	1	0.000328023	9.79911e-05	-4.49973e-05	0.0656046	0.0195982	-0.00899945	0	0	0	0	0.0483156	0.539071	-0.822061	33.625	3	34559	3504502
118	-0.346008	-0.0419316	10.5154	0.0678436	-0.873013	1.72033	-0.00351524	-0.000413658	0.105152	1	-2.71793e-05	-0.000262328	8.20408e-06	-0.00543586	-0.0524656	0.00164082	0	0	0	0	0.0520991	0.540051	-0.824076	33.625	3	34562	3504802
119	-1.02069	-0.190694	10.4211	-1.0022	-0.927209	1.28037	-0.0102209	-0.00196443	0.104208	1	0.000277333	-6.70366e-05	-1.55749e-05	0.0554665	-0.0134073	-0.00311498	0	0	0	0	0.057119	0.536967	-0.817602	33.625	3	34565	3505102
120	-0.292798	0.0605564	10.2195	-0.0313961	-0.488049	1.21143	-0.00293807	0.000523535	0.102195	1	0.000402775	-4.96389e-05	-5.01055e-05	0.0805549	-0.00992778	-0.0100211	0	0	0	0	0.0608736	0.537486	-0.821144	33.625	3	34569	3505502
121	-0.132034	-0.438504	9.0116	0.243965	-1.12058	0.110178	-0.001313	-0.00436116	0.0901173	1	-0.000132087	4.21141e-05	-2.79432e-05	-0.0264174	0.00842281	-0.00558864	0	0	0	0	0.0609144	0.536492	-0.820156	33.625	3	34572	3505802
122	-0.293153	0.554932	10.6842	-0.119468	-0.454931	1.65234	-0.0029919	0.00544368	0.106845	1	0.000495187	-0.000284043	-2.99588e-05	0.0990373	-0.0568087	-0.00599176	0	0	0	0	0.0676273	0.529707	-0.825893	33.625	3	34575	3506102
123	-1.50877	-0.784398	9.97052	-0.902228	-1.97659	1.18726	-0.0150661	-0.00786835	0.0997066	1	0.000123476	0.000108728	-8.37229e-06	0.0246953	0.0217457	-0.00167446	0	0	0	0	0.0717596	0.52837	-0.835033	33.625	3	34579	3506502
124	-0.215782	-0.840285	10.6728	0.152563	-1.46161	1.39295	-0.00224692	-0.00836277	0.106729	1	-0.000187819	-0.000417576	2.09683e-06	-0.0375638	-0.0835152	0.000419367	0	0	0	0	0.0727812	0.52109	-0.837725	33.625	3	34582	3506802
125	-0.332616	0.337107	10.2507	0.0763289	-0.0359983	1.2678	-0.00340431	0.00346641	0.102501	1	-0.000464622	-0.000381587	-1.25206e-05	-0.0929244	-0.0763174	-0.00250412	0	0	0	0	0.0765177	0.516804	-0.845413	33.625	3	34586	3507202
126	-0.910439	-0.641156	8.91008	-0.989906	-1.68007	-0.401783	-0.00902174	-0.00653963	0.0890999	0.999999	0.000725275	0.000468501	-6.44856e-05	0.145055	0.0937002	-0.0128971	0	0	0	0	0.0761496	0.509979	-0.845563	33.625	3	34589	3507502
127	-0.273122	-0.155393	8.64583	0.039077	-1.26214	-0.263791	-0.00272217	-0.00154213	0.0864588	1	-6.4416e-05	5.45002e-05	-0.00012225	-0.0128832	0.0109	-0.0244501	0	0	0	0	0.0798083	0.506713	-0.855754	33.625	3	34592	3507802
128	-1.46758	0.164747	8.9922	-1.06447	-0.044448	0.201153	-0.0146257	0.00160301	0.089931	1	0.000262849	0.000277141	-9.58592e-05	0.0525699	0.0554282	-0.0191718	0	0	0	0	0.0823027	0.501327	-0.855885	33.625	3	34595	3508102
129	-0.521453	-0.184693	9.66614	-0.0833213	-0.825445	0.824405	-0.00522953	-0.00190641	0.0966595	1	0.000309011	-7.71447e-05	-2.48582e-05	0.0618023	-0.0154289	-0.00497165	0	0	0	0	0.0820958	0.497624	-0.867078	33.625	3	34599	3508502
130	-0.637721	0.55228	8.95635	-0.393354	0.0116927	-0.255544	-0.00625101	0.0054793	0.0895751	1	0.000247548	0.000700425	-6.63748e-05	0.0495096	0.140085	-0.013275	0	0	0	0	0.0845703	0.49418	-0.866661	33.625	3	34602	3508802
131	-0.0151773	-0.315601	9.29579	0.119153	-1.2409	0.10799	-0.00023905	-0.00317515	0.0929571	1	0.000102892	-0.000470682	3.63157e-05	0.0205785	-0.0941364	0.00726313	0	0	0	0	0.0839449	0.493326	-0.873243	33.625	3	34605	3509102
132	-0.434593	-0.838183	11.2255	-0.259776	-1.70159	1.77943	-0.00438777	-0.00832179	0.112258	1	-0.000266061	-0.000183674	-3.60147e-05	-0.0532122	-0.0367348	-0.00720295	0	0	0	0	0.0839202	0.493344	-0.874252	33.625	3	34609	3509502
133	-1.15328	0.242403	9.97075	-0.820823	-0.749457	0.929716	-0.011499	0.00240854	0.0997118	1	7.89725e-05	0.000169298	-1.13152e-05	0.0157945	0.0338596	-0.00226304	0	0	0	0	0.0829974	0.488022	-0.876387	33.625	3	34612	3509802
134	-0.733002	0.898947	10.2062	-0.435361	0.116442	1.05398	-0.00730351	0.0089747	0.102065	1	6.85295e-05	0.000134583	5.36905e-05	0.0137059	0.0269166	0.0107381	0	0	0	0	0.0836569	0.493054	-0.885369	33.625	3	34616	3510202
135	-1.61419	-0.0676572	9.99868	-1.13091	-0.944694	1.2755	-0.0161573	-0.000675748	0.0999843	1	2.50207e-06	-7.68039e-05	-4.0992e-05	0.000500413	-0.0153608	-0.00819841	0	0	0	0	0.0837305	0.491555	-0.883382	33.625	3	34619	3510502
136	-0.793108	-0.719087	11.0047	-0.24367	-1.42993	2.31331	-0.00792624	-0.00724602	0.110044	1	0.000250373	2.17999e-05	2.85646e-06	0.0500746	0.00435999	0.000571291	0	0	0	0	0.0802568	0.495033	-0.885309	33.625	3	34622	3510802
137	-0.672	0.417643	9.83345	-0.534685	-0.184358	0.762905	-0.00677675	0.0041738	0.0983307	1	1.36172e-05	-0.000288751	-3.46548e-06	0.00272344	-0.0577502	-0.000693096	0	0	0	0	0.0789312	0.490141	-0.883897	33.625	3	34625	3511102
138	-1.61929	1.10528	9.37938	-1.25316	0.433092	0.569383	-0.0161165	0.0109727	0.0938164	1	0.00043574	0.000401338	-5.02468e-05	0.0871481	0.0802676	-0.0100494	0	0	0	0	0.0773355	0.489782	-0.890463	33.625	3	34629	3511502
139	-0.143911	2.5123	11.8677	0.0713355	1.54652	3.11805	-0.00155928	0.0250852	0.118684	1	0.000159312	-0.000506373	-4.55721e-07	0.0318624	-0.101275	-9.11441e-05	0	0	0	0	0.0716034	0.490282	-0.888405	33.625	3	34632	3511802
140	-0.899235	0.358217	9.70598	-1.01158	-0.184374	0.854244	-0.00893274	0.00343757	0.0970705	1	0.000753893	0.000303512	-9.77885e-05	0.150779	0.0607024	-0.0195577	0	0	0	0	0.0681858	0.488901	-0.891451	33.625	3	34635	3512102
141	0.502817	-0.396628	9.75072	0.830833	-1.08048	0.790977	0.00503711	-0.00398781	0.0975058	1	0.000111485	4.50104e-05	2.08262e-05	0.022297	0.00900208	0.00416523	0	0	0	0	0.0629101	0.489414	-0.890405	33.625	3	34639	3512502
142	0.280115	1.39394	9.79482	0.688799	0.27428	0.735143	0.0028223	0.0137707	0.0979715	0.999999	0.000861837	0.000111634	2.59765e-05	0.172368	0.0223268	0.00519529	0	0	0	0	0.057801	0.483542	-0.886976	33.625	3	34642	3512802
143	-0.45533	-1.04092	9.50709	-0.0725236	-1.87469	0.596478	-0.00457679	-0.010399	0.0950709	1	-5.10658e-05	-0.000118647	-4.44481e-05	-0.0102132	-0.0237294	-0.00888962	0	0	0	0	0.0538861	0.48314	-0.889997	33.625	3	34645	3513102
144	0.16679	-1.02311	9.19275	0.776278	-1.91102	0.479367	0.00160617	-0.0102563	0.0919258	1	0.000138011	-0.000339734	3.54949e-05	0.0276023	-0.0679467	0.00709898	0	0	0	0	0.0516343	0.475338	-0.88915	33.625	3	34649	3513502
145	-0.0176708	0.455533	9.22967	0.583282	-0.165373	0.610931	-0.000208521	0.00458759	0.092295	1	-0.000174663	-0.00017513	-5.62939e-05	-0.0349326	-0.0350259	-0.0112588	0	0	0	0	0.0485541	0.47454	-0.89774	33.625	3	34652	3513802
146	-0.47788	0.398773	8.69117	-0.145679	-0.478687	-0.265944	-0.00469827	0.00398501	0.0869162	1	1.9959e-05	0.000459671	-7.95852e-05	0.00399181	0.0919343	-0.015917	0	0	0	0	0.0457319	0.470662	-0.897813	33.625	3	34656	3514202
147	-0.060714	-0.894359	10.4498	0.55496	-1.70134	2.00066	-0.000618722	-0.00902217	0.104491	1	0.000376032	-5.51437e-05	-3.23578e-06	0.0752064	-0.0110287	-0.000647156	0	0	0	0	0.0456689	0.466371	-0.903464	33.625	3	34659	3514502
148	-1.50384	-0.313229	10.2045	-1.17386	-0.655705	1.27825	-0.0150555	-0.00309107	0.102043	1	-0.000195019	-8.25052e-05	-4.72376e-05	-0.0390039	-0.016501	-0.00944752	0	0	0	0	0.0442986	0.463438	-0.902513	33.625	3	34662	3514802
149	-1.09624	0.633577	10.131	-0.938444	-0.121469	0.814158	-0.010963	0.00632196	0.10131	1	7.00754e-05	-3.60939e-06	-1.74998e-05	0.0140151	-0.000721878	-0.00349996	0	0	0	0	0.0436818	0.463541	-0.908063	33.625	3	34665	3515102
150	-0.812331	-1.55396	10.551	-0.320938	-2.09636	1.70839	-0.00812432	-0.0155449	0.105509	1	2.14155e-05	-1.15766e-05	4.61581e-05	0.0042831	-0.00231533	0.00923162	0	0	0	0	0.0418266	0.461579	-0.906583	33.625	3	34669	3515502
151	-0.795885	0.461114	9.46906	-0.634713	-0.0491956	0.57178	-0.00794953	0.00462116	0.0946909	1	-5.26477e-05	4.90558e-05	-2.49521e-06	-0.0105295	0.00981115	-0.000499042	0	0	0	0	0.0375421	0.462546	-0.904016	33.625	3	34672	3515802
152	0.341811	-0.506195	10.3883	0.906214	-1.25808	1.44744	0.003341	-0.00509512	0.103884	1	0.000160569	-0.000372581	2.91523e-05	0.0321138	-0.0745162	0.00583045	0	0	0	0	0.0365191	0.465489	-0.904451	33.625	3	34676	3516202
153	-0.722513	-0.237154	9.45533	-0.437706	-1.07762	0.58439	-0.00730415	-0.00233929	0.0945481	1	-0.000168517	-0.000417224	-2.61001e-05	-0.0337033	-0.0834449	-0.00522001	0	0	0	0	0.0344087	0.462402	-0.894409	33.625	3	34679	3516502
154	-0.161408	1.23725	10.1296	0.404945	0.924367	1.41775	-0.00160603	0.012388	0.101295	1	-7.56025e-05	3.27914e-05	-5.69221e-05	-0.0151205	0.00655828	-0.0113844	0	0	0	0	0.0323461	0.46782	-0.896299	33.625	3	34682	3516802
155	0.230847	-0.757678	10.1641	0.563893	-1.49989	1.18282	0.00221841	-0.00752581	0.101647	1	-0.00025205	-0.000438616	-5.93542e-05	-0.0504099	-0.0877232	-0.0118708	0	0	0	0	0.0263553	0.469607	-0.884111	33.625	3	34686	3517202
156	0.348488	-0.505329	9.07497	0.922363	-0.995577	0.34293	0.00343492	-0.0049438	0.0907576	1	-0.000604279	-0.000273695	-2.80468e-05	-0.120856	-0.0547391	-0.00560935	0	0	0	0	0.0244156	0.473489	-0.881995	33.625	3	34689	3517502
157	2.03117	-0.07178	10.9252	2.67633	-0.923474	2.13837	0.0202507	-0.000691793	0.109264	1	-0.000123916	-0.000278806	-2.64076e-05	-0.0247831	-0.0557612	-0.00528151	0	0	0	0	0.0216656	0.476304	-0.874344	33.625	3	34692	3517802
158	-0.301291	1.50749	10.0568	-0.0554355	1.46371	0.934531	-0.00297531	0.0149992	0.10058	1	0.00037943	0.00017285	-9.42224e-05	0.0758859	0.03457	-0.0188445	0	0	0	0	0.0206208	0.475409	-0.878399	33.625	3	34696	3518202
159	-1.51845	-1.28099	9.51646	-1.13777	-2.164	0.389735	-0.0151837	-0.012705	0.0951788	1	-0.000539617	1.31688e-05	-7.03034e-05	-0.107923	0.00263375	-0.0140607	0	0	0	0	0.0185577	0.479381	-0.881332	33.625	3	34699	3518502
160	0.210258	-0.433104	10.632	0.436182	-1.17599	1.21842	0.0020109	-0.00434357	0.106322	1	5.78801e-05	-0.000428967	-5.33915e-05	0.011576	-0.0857934	-0.0106783	0	0	0	0	0.0156948	0.476496	-0.882393	33.625	3	34702	3518802
161	-1.47279	-0.672841	8.45308	-1.22911	-1.47322	-0.629265	-0.0146387	-0.00687978	0.0845341	0.999999	0.000913071	0.000535582	-0.000101848	0.182614	0.107116	-0.0203696	0	0	0	0	0.0117979	0.4809	-0.881267	33.625	3	34706	3519202
162	-0.301659	0.0216164	9.5035	0.259484	-0.701778	1.22169	-0.00314148	0.000203255	0.095031	1	6.81402e-05	-0.000657108	-6.83769e-06	0.013628	-0.131422	-0.00136754	0	0	0	0	0.0100072	0.475036	-0.879874	33.625	3	34709	3519502
163	-1.15008	-0.479047	9.8812	-0.564214	-0.71962	0.780521	-0.0114562	-0.00467809	0.0988225	1	-0.000564344	0.000227265	-3.69703e-05	-0.112869	0.0454531	-0.00739405	0	0	0	0	0.0103446	0.475619	-0.885418	33.625	3	34712	3519802
164	-0.739712	-0.637905	9.92877	0.0392157	-1.41128	1.42331	-0.00744112	-0.00628931	0.0992902	1	-0.000451987	-0.000221636	7.75407e-07	-0.0903974	-0.0443273	0.000155081	0	0	0	0	0.00801257	0.47414	-0.88342	33.625	3	34716	3520202
165	-1.64306	0.890917	9.54727	-1.02388	0.991518	0.927279	-0.0164157	0.00889383	0.0954767	1	8.45952e-05	7.56808e-05	-2.46419e-05	0.016919	0.0151362	-0.00492839	0	0	0	0	0.0103475	0.471762	-0.888029	33.625	3	34719	3520502
166	-0.335327	-0.317993	9.75325	0.174762	-1.17214	1.05912	-0.00339054	-0.0032924	0.0975275	1	0.000576773	-0.000190902	-5.36379e-06	0.115355	-0.0381804	-0.00107276	0	0	0	0	0.0104343	0.473144	-0.883453	33.625	3	34722	3520802
167	-0.843377	-0.922991	9.83941	-0.12702	-1.79852	1.28745	-0.00831703	-0.00927053	0.0984003	1	0.00020613	0.000592891	3.3438e-06	0.0412259	0.118578	0.000668759	0	0	0	0	0.00707501	0.474129	-0.882406	33.625	3	34725	3521102
168	-1.06851	0.0177133	10.4567	-0.668321	-0.116354	1.42536	-0.0106778	0.000235572	0.104568	1	-0.000272001	3.45871e-05	-7.27362e-05	-0.0544002	0.00691741	-0.0145472	0	0	0	0	0.0104518	0.476504	-0.880348	33.625	3	34729	3521502
169	1.619	1.40296	13.459	2.0314	0.45262	4.38552	0.0160098	0.0139032	0.134625	1	0.000462785	-0.000675148	-5.44311e-05	0.092557	-0.13503	-0.0108862	0	0	0	0	0.00579248	0.47547	-0.874794	33.625	3	34732	3521802
170	0.913966	0.851444	10.5128	0.957115	-0.944606	1.58115	0.00911556	0.00849985	0.105132	1	6.44778e-05	-0.000119197	-5.678e-05	0.0128956	-0.0238394	-0.011356	0	0	0	0	0.0100589	0.482226	-0.872643	33.625	3	34735	3522102
171	0.997816	-1.06525	11.1908	1.60679	-1.854	2.98394	0.00978837	-0.0104699	0.111942	0.999999	-0.000823185	-0.000839654	-8.6961e-05	-0.164637	-0.167931	-0.0173922	0	0	0	0	0.00791708	0.483981	-0.860473	33.625	3	34739	3522502
172	-2.6377	-0.165974	9.17285	-2.27193	-0.569191	0.122519	-0.0263723	-0.00162971	0.0917304	1	-0.000153233	2.63408e-05	-3.63236e-05	-0.0306466	0.00526815	-0.00726473	0	0	0	0	0.0084043	0.490237	-0.855791	33.625	3	34743	3522902
173	-0.663774	0.136583	9.1461	-0.451548	-0.386085	-0.0519681	-0.00669546	0.00137226	0.0914567	1	-3.17317e-05	-0.000316194	-4.63711e-05	-0.00634635	-0.0632389	-0.00927422	0	0	0	0	0.00810488	0.492517	-0.846648	33.625	3	34746	3523202
174	-0.781475	-0.905991	8.00118	-0.222665	-1.36674	-1.58187	-0.00773824	-0.00895457	0.0800311	1	-0.000643912	0.000494697	-0.000147249	-0.128782	0.0989393	-0.0294498	0	0	0	0	0.00529737	0.495857	-0.841005	33.625	3	34749	3523502
175	-2.08287	-0.537132	9.2079	-1.14119	-1.53043	0.719037	-0.0207848	-0.0053838	0.0920882	1	7.21967e-05	0.000239722	-1.96973e-05	0.0144393	0.0479443	-0.00393947	0	0	0	0	0.00932282	0.494732	-0.834483	33.625	3	34752	3523802
176	-1.2779	0.027414	9.14077	-0.98032	-0.757247	0.0256546	-0.0127613	0.00027593	0.0914101	1	-1.74969e-07	9.68442e-05	-6.8853e-05	-3.49938e-05	0.0193688	-0.0137706	0	0	0	0	0.0104492	0.49364	-0.828451	33.625	3	34756	3524202
177	-0.245678	0.493899	10.3741	0.345916	-0.0114778	1.66252	-0.0025607	0.00495972	0.103737	1	-0.000101265	-0.000498152	5.69762e-05	-0.020253	-0.0996304	0.0113952	0	0	0	0	0.0109811	0.497936	-0.823308	33.625	3	34759	3524502
178	-1.98421	-1.06093	8.9216	-1.56428	-1.92094	0.0956738	-0.0197971	-0.0106793	0.0892176	1	0.000389735	0.000251105	1.14252e-05	0.0779471	0.050221	0.00228504	0	0	0	0	0.0136392	0.490021	-0.818445	33.625	3	34762	3524802
179	-1.00037	-0.246935	9.51002	-0.532694	-1.08581	0.39618	-0.0100485	-0.00253833	0.0950937	1	0.000360764	-0.00023641	1.82725e-05	0.0721528	-0.0472821	0.0036545	0	0	0	0	0.0165339	0.48951	-0.81847	33.625	3	34766	3525202
180	-1.13967	0.620329	9.49478	-0.713318	-0.0859344	0.52	-0.0114334	0.00620339	0.0949434	1	8.96511e-07	-0.000193991	-1.18459e-05	0.000179302	-0.0387981	-0.00236917	0	0	0	0	0.0225033	0.484982	-0.813548	33.625	3	34769	3525502
181	-0.919223	0.255685	10.0943	-0.299727	-0.644019	1.4231	-0.00919	0.00252931	0.100943	1	0.000140257	9.96917e-06	-4.22441e-05	0.0280514	0.00199383	-0.00844881	0	0	0	0	0.030197	0.484439	-0.8141	33.625	3	34772	3525802
182	-1.47873	-0.139878	10.4222	-0.868519	-0.659899	1.7168	-0.0147999	-0.00146187	0.104219	1	0.000307324	-5.96276e-05	-3.27165e-05	0.0614647	-0.0119255	-0.0065433	0	0	0	0	0.0342419	0.479927	-0.809169	33.625	3	34776	3526202
183	-0.718669	-0.499215	9.91992	-0.226937	-1.33663	0.8879	-0.00723994	-0.00495241	0.0991973	1	-0.000201767	-0.000269419	1.98909e-05	-0.0403533	-0.0538838	0.00397817	0	0	0	0	0.0414611	0.474564	-0.812856	33.625	3	34779	3526502
184	-0.678559	0.147607	10.6152	-0.539079	-0.358597	1.1536	-0.00685021	0.00146917	0.106148	1	3.3006e-05	-0.000304462	-8.02576e-06	0.0066012	-0.0608924	-0.00160515	0	0	0	0	0.0477896	0.474458	-0.809858	33.625	3	34782	3526802
185	-0.927323	-0.603066	10.1377	-0.461134	-1.73301	0.82585	-0.00928048	-0.00605792	0.101374	1	0.000137423	-3.38161e-05	-3.26056e-05	0.0274845	-0.00676322	-0.00652111	0	0	0	0	0.0556303	0.470917	-0.806437	33.625	3	34786	3527202
186	-1.64946	1.10354	9.03508	-1.26749	0.457568	0.18295	-0.016423	0.0110576	0.0903612	1	-0.000107954	0.000386616	-8.10845e-05	-0.0215909	0.0773232	-0.0162169	0	0	0	0	0.0603518	0.473352	-0.808425	33.625	3	34789	3527502
187	-1.35908	-0.704554	10.2768	-0.782211	-1.45666	1.08843	-0.013612	-0.00706046	0.102765	1	8.05391e-05	-9.88014e-05	-6.03497e-05	0.0161078	-0.0197603	-0.0120699	0	0	0	0	0.0671729	0.470342	-0.807008	33.625	3	34792	3527802
188	-1.22536	-0.490873	9.24312	-0.775607	-1.20331	0.314889	-0.0123046	-0.00485617	0.0924272	1	-0.000279674	-0.000274121	-3.52594e-05	-0.0559349	-0.0548241	-0.00705187	0	0	0	0	0.0761096	0.473789	-0.813034	33.625	3	34796	3528202
189	-0.43341	0.169243	9.74874	0.0854079	-0.67989	0.623954	-0.00428997	0.00171877	0.0974889	1	-0.000133087	0.000225544	-4.55399e-05	-0.0266173	0.0451088	-0.00910799	0	0	0	0	0.0801512	0.471688	-0.806533	33.625	3	34799	3528502
190	-1.37608	-0.574674	10.0313	-0.769282	-1.16668	1.35513	-0.0137698	-0.00572885	0.100312	1	-8.13884e-05	-4.16124e-05	-5.68744e-05	-0.0162777	-0.00832249	-0.0113749	0	0	0	0	0.0866704	0.476609	-0.81201	33.625	3	34802	3528802
191	-1.19377	0.158531	8.83869	-0.564902	-0.697294	0.0895805	-0.0119296	0.0015236	0.0883891	1	0.00035058	4.56933e-05	-1.12073e-05	0.070116	0.00913865	-0.00224146	0	0	0	0	0.0892193	0.474557	-0.807521	33.625	3	34806	3529202
192	-1.04629	-0.228768	9.68493	-0.410108	-1.15488	0.852213	-0.0105301	-0.00225287	0.0968429	1	-0.000178271	-0.000346779	-1.30468e-05	-0.0356542	-0.0693558	-0.00260937	0	0	0	0	0.0949349	0.473588	-0.8106	33.625	3	34809	3529502
193	-0.408954	0.551195	9.78825	0.0470335	0.104873	0.869798	-0.00408573	0.00546262	0.0978854	1	0.000251681	1.98362e-05	7.44738e-06	0.0503362	0.00396724	0.00148948	0	0	0	0	0.0988009	0.475471	-0.808555	33.625	3	34812	3529802
194	-1.37191	0.408596	9.75536	-0.857224	-0.423582	0.815477	-0.013769	0.00407392	0.097547	1	6.06189e-05	-0.000255703	7.93478e-06	0.0121238	-0.0511405	0.00158696	0	0	0	0	0.101522	0.47364	-0.81669	33.625	3	34816	3530202
195	-1.78148	0.52905	9.31886	-1.15361	-0.465604	0.332756	-0.0177402	0.00520371	0.0932077	1	0.000476396	0.000397014	-5.63996e-05	0.0952792	0.0794028	-0.0112799	0	0	0	0	0.106251	0.472696	-0.820773	33.625	3	34819	3530502
196	-0.745125	-0.49574	8.75812	-0.155897	-1.28798	-0.111907	-0.0074491	-0.00501153	0.0875783	1	0.000311923	1.42322e-05	-3.39725e-05	0.0623847	0.00284644	-0.0067945	0	0	0	0	0.10632	0.469273	-0.820344	33.625	3	34822	3530802
197	-0.315464	0.410274	10.1651	0.108245	-0.450242	1.11823	-0.00323213	0.00401433	0.101652	1	0.000434912	-0.000381205	-3.07132e-07	0.0869823	-0.076241	-6.14264e-05	0	0	0	0	0.110477	0.467918	-0.828475	33.625	3	34826	3531202
198	-1.70917	-0.67823	9.83525	-1.35305	-1.4153	0.727677	-0.0170401	-0.00682991	0.0983581	1	0.000251463	0.00026612	-5.42655e-05	0.0502926	0.0532241	-0.0108531	0	0	0	0	0.113974	0.460086	-0.828665	33.625	3	34829	3531502
199	-1.17084	-0.0198608	9.62177	-0.663531	-0.781217	1.12671	-0.011783	-0.000210167	0.0962086	1	6.09874e-05	-0.000387983	-7.51215e-06	0.0121975	-0.0775965	-0.00150243	0	0	0	0	0.114649	0.462697	-0.838711	33.625	3	34832	3531802
200	-0.775365	0.724351	11.0837	-0.243849	-0.133459	2.1784	-0.0078207	0.00720502	0.110835	1	0.000174465	-0.000303268	-1.20137e-05	0.034893	-0.0606535	-0.00240275	0	0	0	0	0.118089	0.456834	-0.839867	33.625	3	34836	3532202
201	-1.00027	-0.0441048	10.4261	-0.340619	-0.837833	1.56064	-0.00994706	-0.000430131	0.104267	1	-4.57305e-05	0.000266935	-6.92205e-05	-0.0091461	0.0533871	-0.0138441	0	0	0	0	0.119476	0.449152	-0.84762	33.625	3	34839	3532502
202	-0.839964	0.681453	10.0337	-0.456417	0.19935	0.883947	-0.00840099	0.00677658	0.100339	1	0.00019167	-8.73768e-06	-3.02721e-05	0.0383339	-0.00174754	-0.00605442	0	0	0	0	0.123268	0.449644	-0.849647	33.625	3	34842	3532802
203	-1.37475	0.577478	9.02683	-0.695387	-0.167025	0.276056	-0.013699	0.0057692	0.090276	1	5.77423e-05	0.000257205	-0.000176437	0.0115485	0.051441	-0.0352874	0	0	0	0	0.127041	0.44244	-0.857906	33.625	3	34845	3533102
204	-2.40148	1.1061	9.10628	-2.1327	0.248065	-0.0614223	-0.0239507	0.0110265	0.0910839	1	0.000244405	0.000326499	-0.000207732	0.048881	0.0652998	-0.0415464	0	0	0	0	0.127415	0.442996	-0.861936	33.625	3	34849	3533502
205	-1.74797	-0.479121	8.3066	-1.41001	-1.30349	-0.766848	-0.0175025	-0.0048516	0.0830577	1	0.000398913	-0.000127029	-0.000168111	0.0797826	-0.0254058	-0.0336222	0	0	0	0	0.129457	0.43663	-0.861582	33.625	3	34852	3533802
206	0.179678	0.58181	10.1777	0.83917	-0.111335	1.4363	0.00181815	0.00575224	0.10178	1	0.000319634	9.24125e-05	-0.000221271	0.0639269	0.0184825	-0.0442542	0	0	0	0	0.13067	0.437268	-0.870664	33.625	3	34856	3534202
207	-0.646612	-0.77145	10.2468	-0.218703	-1.45325	1.20428	-0.00653116	-0.00772334	0.102463	1	5.32159e-05	-0.00030541	-0.000158844	0.0106432	-0.061082	-0.0317688	0	0	0	0	0.131746	0.431876	-0.869779	33.625	3	34859	3534502
208	-1.47172	0.938731	9.35697	-0.821931	-0.0777853	0.612246	-0.0146847	0.00931217	0.0935823	1	0.000434916	0.000152441	-0.000212676	0.0869833	0.0304882	-0.0425352	0	0	0	0	0.135333	0.435891	-0.877787	33.625	3	34862	3534802
209	-1.36451	-0.527136	10.0613	-0.984124	-1.77919	0.985678	-0.0136139	-0.00530882	0.100615	1	0.000220275	0.000168334	-0.000251805	0.0440551	0.0336668	-0.0503609	0	0	0	0	0.136278	0.433968	-0.879854	33.625	3	34866	3535202
210	-0.955538	0.319324	10.1339	-0.435385	-0.551924	1.32835	-0.00954793	0.0031683	0.101341	1	0.000144389	2.96153e-05	-0.000226138	0.0288778	0.00592306	-0.0452275	0	0	0	0	0.13714	0.431141	-0.885982	33.625	3	34869	3535502
211	-1.13462	-0.215885	8.92861	-0.675647	-0.877781	0.0278175	-0.011366	-0.0021245	0.0892844	1	-0.000165799	-0.000105608	-0.000209043	-0.0331598	-0.0211215	-0.0418086	0	0	0	0	0.13766	0.435446	-0.881343	33.625	3	34872	3535802
212	-0.32229	0.750638	9.7432	0.308544	0.47168	0.90451	-0.00320206	0.00748795	0.0974341	1	0.000100204	9.38002e-05	-0.00017116	0.0200409	0.01876	-0.034232	0	0	0	0	0.135266	0.432567	-0.882911	33.625	3	34876	3536202
213	-1.39701	-0.619266	9.62948	-1.01211	-1.19909	0.331666	-0.0139324	-0.00618599	0.0963007	1	2.5504e-06	0.000212598	-0.000256588	0.00051008	0.0425195	-0.0513176	0	0	0	0	0.136484	0.436574	-0.889394	33.625	3	34879	3536502
214	-1.2162	-0.204402	8.82143	-0.436186	-1.15952	0.0338616	-0.012054	-0.00214636	0.0882267	1	0.000609256	0.000617109	-0.000212983	0.121851	0.123422	-0.0425967	0	0	0	0	0.135024	0.434671	-0.891449	33.625	3	34882	3536802
215	-1.19272	-0.152841	9.165	-0.748779	-0.758507	0.306547	-0.0119788	-0.00148902	0.0916439	1	-0.000186427	-0.000278313	-0.000218102	-0.0372853	-0.0556625	-0.0436205	0	0	0	0	0.135395	0.437639	-0.89391	33.625	3	34885	3537102
216	-0.529603	-0.0744879	9.31891	-0.114633	-0.943299	0.213936	-0.0053334	-0.000856633	0.0931861	1	0.000612063	-0.000198634	-0.000218272	0.122413	-0.0397268	-0.0436544	0	0	0	0	0.133531	0.436164	-0.892419	33.625	3	34889	3537502
217	-1.55916	-0.686086	9.69042	-1.04563	-1.2753	0.747572	-0.0155781	-0.00687136	0.0969057	1	8.71913e-05	8.39792e-05	-0.000205176	0.0174383	0.0167958	-0.0410353	0	0	0	0	0.131945	0.438208	-0.896912	33.625	3	34892	3537802
218	0.247625	-0.316868	10.9727	0.671124	-1.23272	2.13669	0.00232616	-0.00313758	0.109731	1	-0.00014623	-0.000677986	-0.000207107	-0.029246	-0.135597	-0.0414213	0	0	0	0	0.129658	0.43766	-0.892368	33.625	3	34895	3538102
219	0.243541	-1.27537	10.646	0.234205	-2.02758	1.54752	0.00229303	-0.0127023	0.10647	1	-0.000246757	-0.000639601	-0.0002431	-0.0493514	-0.12792	-0.0486201	0	0	0	0	0.127112	0.435855	-0.899468	33.625	3	34899	3538502
220	-1.57074	0.31793	8.839	-0.880271	-0.713567	-0.0218151	-0.0156515	0.00316005	0.0884006	1	0.000155202	0.000306369	-0.000261071	0.0310404	0.0612738	-0.0522141	0	0	0	0	0.125632	0.437339	-0.899933	33.625	3	34902	3538802
221	-1.22709	-0.238244	9.97297	-0.64436	-1.10421	1.20632	-0.0122709	-0.00234713	0.0997306	1	-0.000134575	8.28e-06	-0.000344802	-0.026915	0.001656	-0.0689603	0	0	0	0	0.122724	0.433524	-0.90354	33.625	3	34906	3539202
222	-1.12963	-0.140834	9.3377	-0.557328	-1.00802	0.330503	-0.0112489	-0.00150549	0.0933812	1	0.00057408	0.000260644	-0.000446715	0.114816	0.0521289	-0.089343	0	0	0	0	0.121692	0.434065	-0.906048	33.625	3	34909	3539502
223	-0.0853835	-0.324656	10.9238	0.421989	-0.962215	1.74822	-0.000849194	-0.00323166	0.109239	1	-6.48603e-05	3.39759e-05	-0.000429456	-0.0129721	0.00679518	-0.0858911	0	0	0	0	0.121271	0.429688	-0.906649	33.625	3	34912	3539802
224	-0.973324	0.00776224	9.10933	-0.570428	-0.675649	-0.0294064	-0.00981514	5.62039e-05	0.0910845	1	0.000163601	-0.000449858	-0.000428988	0.0327203	-0.0899717	-0.0857976	0	0	0	0	0.117833	0.427358	-0.91123	33.6875	3	34916	3540202
225	-0.206073	0.273397	10.3387	0.557363	-0.5508	2.0671	-0.00216977	0.00277404	0.103384	1	-0.000183347	-0.000540931	-0.000509967	-0.0366695	-0.108186	-0.101993	0	0	0	0	0.115529	0.423449	-0.909791	33.6875	3	34919	3540502
226	-0.280872	-1.21442	10.157	0.285231	-2.08373	1.54188	-0.00285983	-0.0121934	0.101563	1	0.000257602	-0.000186166	-0.000546359	0.0515205	-0.0372333	-0.109272	0	0	0	0	0.115394	0.426439	-0.913259	33.6875	3	34922	3540802
227	-1.05265	-0.344333	8.63219	-0.484218	-1.0962	-0.0875866	-0.0105549	-0.00337915	0.086321	1	-0.000300545	-0.000141197	-0.000583388	-0.0601091	-0.0282393	-0.116678	0	0	0	0	0.113061	0.423514	-0.912304	33.6875	3	34926	3541202
228	0.0244328	-0.698983	9.25618	0.0900405	-1.24253	-0.0799251	0.000207839	-0.00694012	0.0925656	1	-0.000270087	-0.000148918	-0.000640384	-0.0540175	-0.0297836	-0.128077	0	0	0	0	0.113928	0.421166	-0.917915	33.6875	3	34929	3541502
229	-1.62793	0.879299	8.68829	-0.824951	0.100638	-0.107264	-0.0162017	0.00882823	0.0868939	1	-8.03933e-05	0.000379947	-0.000654895	-0.0160787	0.0759894	-0.130979	0	0	0	0	0.11213	0.41868	-0.914427	33.6875	3	34932	3541802
230	-0.0875513	0.0408471	8.97265	0.455539	-0.662935	0.165215	-0.000867809	0.000320537	0.0897269	1	0.000496142	4.03695e-05	-0.000631014	0.0992283	0.0080739	-0.126203	0	0	0	0	0.111999	0.419258	-0.919464	33.6875	3	34935	3542102
231	0.0125162	-0.185104	10.0372	0.45679	-0.951455	1.04132	0.000169104	-0.00181414	0.100373	1	-0.0001847	0.000229723	-0.000593086	-0.03694	0.0459447	-0.118617	0	0	0	0	0.111514	0.420229	-0.918935	33.6875	3	34939	3542502
232	-0.0149679	-0.934727	10.0616	0.291428	-1.5426	1.17993	-0.000237707	-0.00925416	0.100624	1	-0.000461482	-0.000381255	-0.000607698	-0.0922964	-0.0762511	-0.12154	0	0	0	0	0.109716	0.417743	-0.915447	33.6875	3	34942	3542802
233	-1.26932	-0.557896	9.01431	-0.708849	-1.26114	0.256461	-0.0126148	-0.00565553	0.0901493	0.999999	0.000519751	0.000477303	-0.000676872	0.10395	0.0954607	-0.135375	0	0	0	0	0.111514	0.420229	-0.918935	33.6875	3	34946	3543202
234	-0.377367	-0.15504	8.88237	-0.0997216	-0.953354	-0.403021	-0.00378186	-0.00162685	0.0888221	1	0.00045655	-3.50633e-05	-0.000616484	0.09131	-0.00701267	-0.123297	0	0	0	0	0.113969	0.418728	-0.91797	33.6875	3	34949	3543502
235	-0.947399	-0.205374	9.25158	-0.39492	-0.948197	0.524759	-0.00949169	-0.00208408	0.0925134	1	0.000227481	-8.17722e-05	-0.000619686	0.0454962	-0.0163544	-0.123937	0	0	0	0	0.113818	0.424138	-0.920374	33.6875	3	34952	3543802
236	-0.0244683	0.468977	10.2343	0.603973	-0.29021	1.44583	-0.000149849	0.0046973	0.102343	1	-3.54677e-05	0.000431559	-0.000692395	-0.00709353	0.0863118	-0.138479	0	0	0	0	0.114394	0.423583	-0.916854	33.6875	3	34956	3544202
237	-0.419143	0.441367	8.87157	0.10722	-0.367348	-0.214792	-0.00411219	0.00438892	0.0887206	0.999999	0.000173952	0.000410057	-0.00073655	0.0347905	0.0820115	-0.14731	0	0	0	0	0.115262	0.425571	-0.919339	33.6875	3	34959	3544502
238	0.00866731	0.600877	9.43058	0.503303	-0.171915	0.664741	6.3823e-05	0.00594379	0.0943099	1	0.000343935	-0.000167006	-0.000723688	0.0687869	-0.0334013	-0.144738	0	0	0	0	0.113812	0.430407	-0.916194	33.6875	3	34962	3544802
239	-0.443679	-0.861712	10.854	-0.0925395	-1.60232	2.0117	-0.00444996	-0.00861923	0.108539	1	3.94792e-05	-2.95744e-06	-0.000726917	0.00789583	-0.000591488	-0.145383	0	0	0	0	0.113722	0.432882	-0.918159	33.6875	3	34966	3545202
240	-0.346996	0.00546371	10.9391	0.247299	-1.25094	2.0647	-0.00347982	0.0001756	0.10939	1	-0.000530665	-4.57968e-05	-0.000699774	-0.106133	-0.00915936	-0.139955	0	0	0	0	0.115578	0.436289	-0.918597	33.6875	3	34969	3545502
241	0.102893	0.273741	11.0694	0.625523	-0.0384682	1.94719	0.00101295	0.002729	0.110695	1	3.18703e-05	-8.86329e-05	-0.000665864	0.00637406	-0.0177266	-0.133173	0	0	0	0	0.116107	0.433359	-0.918665	33.6875	3	34972	3545802
242	-0.514127	-0.17451	10.332	-0.296584	-1.01679	1.30392	-0.00519619	-0.00167786	0.103319	1	-0.00028664	-0.000252958	-0.000774555	-0.0573279	-0.0505915	-0.154911	0	0	0	0	0.115443	0.437834	-0.923108	33.6875	3	34976	3546202
243	-0.727138	-0.867834	10.126	-0.420697	-1.73961	1.15159	-0.00720439	-0.00867127	0.101265	1	1.97118e-05	0.000396221	-0.000764278	0.00394236	0.0792443	-0.152856	0	0	0	0	0.114497	0.438312	-0.922082	33.6875	3	34979	3546502
244	-0.0498854	0.218192	10.1478	0.545401	-0.994981	1.45834	-0.000569534	0.00216112	0.101478	1	0.00010598	-0.000362492	-0.00066553	0.021196	-0.0724984	-0.133106	0	0	0	0	0.11381	0.438947	-0.930146	33.6875	3	34982	3546802
245	-0.309409	0.814701	9.71563	0.281917	0.283145	0.73906	-0.00309739	0.0081335	0.0971573	1	9.31541e-05	-7.90917e-05	-0.000741646	0.0186308	-0.0158183	-0.148329	0	0	0	0	0.115674	0.440422	-0.931637	33.6875	3	34986	3547202
246	-0.117524	-1.51525	10.6528	0.360756	-2.62666	2.05915	-0.00111222	-0.015244	0.106516	0.999999	0.000437105	0.000396214	-0.00070386	0.087421	0.0792428	-0.140772	0	0	0	0	0.116063	0.435666	-0.938815	33.6875	3	34989	3547502
247	-0.956918	0.827443	10.9541	-0.151804	-0.228096	1.9007	-0.00958969	0.00823822	0.109542	1	0.000227931	-0.00014759	-0.000716326	0.0455863	-0.0295181	-0.143265	0	0	0	0	0.118855	0.436193	-0.942352	33.6875	3	34992	3547802
248	-0.293576	-0.205777	10.6938	0.201085	-1.2159	1.78808	-0.00299902	-0.00212295	0.106935	1	0.000323025	-0.000282888	-0.000658302	0.064605	-0.0565775	-0.13166	0	0	0	0	0.116859	0.432406	-0.947983	33.6875	3	34996	3548202
249	-0.145205	0.184527	10.1178	0.264873	-0.867006	1.44684	-0.00146507	0.0018249	0.101179	1	0.000110974	-7.72414e-05	-0.000712586	0.0221949	-0.0154483	-0.142517	0	0	0	0	0.117621	0.434954	-0.954495	33.6875	3	34999	3548502
250	-0.00376405	-0.168166	9.51797	0.321183	-0.719719	0.610381	-3.01382e-06	-0.00178443	0.0951779	0.999999	0.000540048	0.000195188	-0.000729608	0.10801	0.0390377	-0.145922	0	0	0	0	0.117636	0.431088	-0.956602	33.6875	3	35002	3548802
251	-0.535764	-0.23358	8.93534	-0.200365	-1.15536	0.059129	-0.005372	-0.0023944	0.0893511	1	0.000372949	-6.04696e-05	-0.000750258	0.0745898	-0.0120939	-0.150052	0	0	0	0	0.120696	0.434176	-0.967153	33.6875	3	35006	3549202
252	-0.611037	-0.0835728	9.65123	-0.199687	-0.539058	0.513242	-0.00602503	-0.000856651	0.0965175	1	0.000158576	0.000449084	-0.000798251	0.0317153	0.0898169	-0.15965	0	0	0	0	0.12059	0.434736	-0.971181	33.6875	3	35009	3549502
253	-0.814555	0.0987263	9.66002	-0.434696	-0.5686	0.469016	-0.00805127	0.000918257	0.0966088	1	0.00041417	0.000481274	-0.000680101	0.0828341	0.0962548	-0.13602	0	0	0	0	0.123671	0.438773	-0.980196	33.6875	3	35012	3549802
254	-0.66063	-0.149428	9.8105	-0.0908151	-1.01713	1.16725	-0.00664261	-0.00151434	0.0981023	1	0.000148643	-0.000174559	-0.000687155	0.0297285	-0.0349118	-0.137431	0	0	0	0	0.124576	0.439288	-0.982209	33.6875	3	35016	3550202
255	-0.897243	-0.628383	8.52767	-0.777504	-1.47178	-0.532929	-0.00888231	-0.00634061	0.085282	0.999999	0.000398871	0.000575024	-0.000629994	0.0797741	0.115005	-0.125999	0	0	0	0	0.127254	0.442308	-0.98872	33.6875	3	35019	3550502
256	-0.962271	0.0641145	8.28128	-0.735683	-1.03017	-0.768154	-0.00965965	0.000509851	0.0828094	0.999999	0.000855411	-0.000226773	-0.000538378	0.171082	-0.0453546	-0.107676	0	0	0	0	0.126218	0.445261	-0.98966	33.6875	3	35022	3550802
257	0.227436	-0.506693	10.4568	0.411896	-1.7208	1.34924	0.00230393	-0.00511045	0.104566	1	0.000194843	0.000170803	-0.000604392	0.0389686	0.0341607	-0.120878	0	0	0	0	0.128004	0.447756	-0.993653	33.6875	3	35026	3551202
258	-1.84352	-1.19745	9.44786	-1.77856	-1.88124	0.723477	-0.0183146	-0.0120153	0.0944968	0.999999	0.00032277	0.000707915	-0.00054958	0.064554	0.141583	-0.109916	0	0	0	0	0.129182	0.454202	-1.00008	33.6875	3	35029	3551502
259	-1.37296	0.286228	9.78904	-0.938018	-0.337167	1.22598	-0.0137563	0.00287389	0.0978863	1	-1.1481e-06	-0.000148448	-0.000414289	-0.000229621	-0.0296895	-0.0828579	0	0	0	0	0.129123	0.451835	-1.00417	33.6875	3	35032	3551802
260	-1.48454	-1.90527	9.17923	-1.61146	-2.71858	-0.101613	-0.0147195	-0.0191176	0.0917991	0.999999	0.000426043	0.000779918	-0.000452017	0.0852086	0.155984	-0.0904033	0	0	0	0	0.125939	0.458823	-1.01158	33.6875	3	35036	3552202
261	-1.33173	-0.41982	8.47267	-0.922429	-0.923058	-0.299392	-0.0133822	-0.00417809	0.0847174	1	-6.23937e-05	-0.000365304	-0.000357345	-0.0124787	-0.0730608	-0.0714689	0	0	0	0	0.125524	0.459261	-1.00854	33.6875	3	35039	3552502
262	-0.429095	0.624316	9.51241	-0.0524993	-0.362624	0.7227	-0.00433264	0.00616149	0.0951276	1	0.000446124	-0.000243364	-0.000371738	0.0892249	-0.0486729	-0.0743476	0	0	0	0	0.121922	0.460906	-1.01707	33.6875	3	35042	3552802
263	0.537868	0.634292	9.18849	1.31114	-0.467361	0.557972	0.00538162	0.00626909	0.0918897	1	0.000379382	-1.02571e-05	-0.000382401	0.0758765	-0.00205142	-0.0764802	0	0	0	0	0.115125	0.462452	-1.01852	33.6875	3	35046	3553202
264	-0.486147	-1.21984	9.28789	-0.253006	-1.8873	0.0938599	-0.0048632	-0.0122035	0.0928782	1	4.89764e-05	4.5517e-05	-0.000417341	0.00979529	0.00910339	-0.0834683	0	0	0	0	0.115942	0.458695	-1.02719	33.6875	3	35049	3553502
265	-1.04394	-0.631022	9.45069	-0.816626	-1.39367	0.390927	-0.0103694	-0.00630741	0.0945148	1	2.73234e-05	0.000396162	-0.000383408	0.00546469	0.0792324	-0.0766817	0	0	0	0	0.112871	0.4603	-1.03371	33.6875	3	35052	3553802
266	-1.30012	1.35869	9.62224	-0.30916	1.03168	1.09968	-0.0128671	0.0135948	0.0962393	1	1.39782e-05	0.000638743	-0.000412369	0.00279564	0.127749	-0.0824737	0	0	0	0	0.111837	0.453614	-1.04143	33.6875	3	35056	3554202
267	-0.650876	-1.49289	9.91468	-0.407328	-2.37361	1.19811	-0.00650678	-0.0150281	0.0991319	1	0.000522838	6.24216e-05	-0.000347134	0.104568	0.0124843	-0.0694268	0	0	0	0	0.111575	0.45766	-1.04942	33.6875	3	35059	3554502
268	-1.21662	1.07096	9.66731	-0.836781	0.319266	0.676084	-0.0121592	0.0106891	0.0966763	1	0.000153753	-5.70958e-06	-0.000379389	0.0307506	-0.00114192	-0.0758778	0	0	0	0	0.112999	0.448507	-1.0567	33.6875	3	35062	3554802
266	-1.49314	-1.86482	9.66481	-1.30226	-2.99644	1.27123	-0.0148702	-0.0187153	0.0966446	1	0.000410272	0.000396093	-0.0004105	0.0820544	0.0792187	-0.0820999	0	0	0	0	0.110331	0.454019	-1.06364	33.6875	3	35066	3555202
270	0.0506562	0.944182	11.486	1.19498	-0.204988	2.80182	0.000407463	0.00942346	0.114862	1	7.86501e-05	-0.000457568	-0.00031882	0.01573	-0.0915136	-0.0637639	0	0	0	0	0.112358	0.450073	-1.06222	33.6875	3	35069	3555502
271	-0.153104	-0.159483	11.0282	0.322774	-1.13592	2.27806	-0.00143237	-0.00164938	0.110282	1	0.000253683	0.000454341	-0.000475703	0.0507366	0.0908682	-0.0951405	0	0	0	0	0.1102	0.454597	-1.06867	33.6875	3	35072	3555802
272	-0.567831	-0.142333	9.12135	-0.154967	-0.903827	0.384571	-0.00556311	-0.0014086	0.0912209	1	-5.46379e-05	0.000638087	-0.000423871	-0.0109276	0.127617	-0.0847742	0	0	0	0	0.111187	0.456016	-1.06663	33.6875	3	35076	3556202
273	-0.264923	0.29031	11.5654	0.409713	-0.337774	2.6575	-0.00264839	0.00285103	0.115655	1	0.000235175	-7.30003e-06	-0.000438778	0.0470351	-0.00146001	-0.0877557	0	0	0	0	0.110998	0.455672	-1.07471	33.6875	3	35079	3556502
274	-1.53675	-0.382209	9.57074	-1.34148	-1.13928	0.667373	-0.0153751	-0.0038928	0.0957033	1	0.000448141	-1.98847e-05	-0.000490148	0.0896282	-0.00397694	-0.0980296	0	0	0	0	0.112838	0.460055	-1.07513	33.6875	3	35082	3556802
275	-0.517009	-0.396806	8.84385	-0.216369	-1.06809	0.0322258	-0.0051649	-0.00385847	0.0884437	1	-0.000594467	4.83746e-05	-0.000430126	-0.118893	0.00967492	-0.0860253	0	0	0	0	0.112217	0.46257	-1.07911	33.6875	3	35086	3557202
276	-1.47276	1.02455	8.6088	-1.13194	0.184898	-0.454033	-0.0147017	0.0101348	0.0861055	1	0.00071877	9.81232e-05	-0.000443281	0.143754	0.0196247	-0.0886562	0	0	0	0	0.112095	0.465551	-1.08208	33.6875	3	35089	3557502
277	-1.01252	0.368016	8.443	-0.695868	-0.495148	-0.441365	-0.0100766	0.0036468	0.0844372	1	0.000251228	0.000268014	-0.000448735	0.0502455	0.0536027	-0.089747	0	0	0	0	0.110174	0.4646	-1.08259	33.6875	3	35092	3557802
278	-0.152114	-0.2943	10.5385	0.104668	-0.754707	1.764	-0.00149541	-0.00295323	0.105385	1	5.48388e-05	0.000134457	-0.000442432	0.0109678	0.0268915	-0.0884863	0	0	0	0	0.105661	0.469107	-1.08702	33.6875	3	35096	3558202
279	-0.528115	0.113872	9.45242	-0.213955	-0.568274	0.79292	-0.00519475	0.00111491	0.0945292	1	0.000148597	0.00045217	-0.000409291	0.0297194	0.0904341	-0.0818582	0	0	0	0	0.102762	0.470586	-1.08647	33.6875	3	35099	3558502
280	-0.8034	0.228223	10.4068	-0.36162	-0.293473	1.5033	-0.00807152	0.00233793	0.104064	1	-0.000235932	-0.000189331	-0.000409713	-0.0471863	-0.0378663	-0.0819425	0	0	0	0	0.101488	0.471786	-1.09855	33.6875	3	35102	3558802
281	-0.440668	0.376477	11.3457	0.0446259	-0.801092	2.55155	-0.00448776	0.00380474	0.113453	1	-0.000162607	-0.000368843	-0.000345319	-0.0325215	-0.0737685	-0.0690639	0	0	0	0	0.0985183	0.470906	-1.1026	33.6875	3	35106	3559202
282	-0.615339	-0.98602	10.1243	-0.536034	-1.21672	1.40688	-0.00614589	-0.00990053	0.101239	1	0.000224438	7.76194e-05	-0.000415608	0.0448876	0.0155239	-0.0831216	0	0	0	0	0.0984012	0.464728	-1.11183	33.6875	3	35109	3559502
283	0.257626	-1.18054	10.0655	0.453327	-1.95659	1.27478	0.00243824	-0.0117874	0.10066	1	-9.7937e-05	-0.000645343	-0.000343814	-0.0195874	-0.129069	-0.0687628	0	0	0	0	0.0934306	0.467775	-1.11628	33.6875	3	35112	3559802
284	-1.00986	-0.102309	9.21655	-0.940981	-0.954943	0.482818	-0.0101359	-0.000981688	0.0921618	1	-0.000179575	-0.000197839	-0.00041033	-0.0359149	-0.0395678	-0.082066	0	0	0	0	0.0909482	0.459178	-1.12555	33.6875	3	35116	3560202
285	-0.214881	-0.678893	10.1607	0.0182591	-1.99659	1.73078	-0.00226286	-0.00672879	0.101609	1	-0.000286406	-0.000532038	-0.000439167	-0.0572812	-0.106408	-0.0878334	0	0	0	0	0.0887414	0.463737	-1.13403	33.6875	3	35119	3560502
286	-1.11983	-0.186252	9.56645	-0.567919	-1.04565	1.16224	-0.0112211	-0.00190162	0.0956611	1	0.000246537	-0.00011249	-0.00036013	0.0493074	-0.022498	-0.072026	0	0	0	0	0.0891059	0.458999	-1.14222	33.6875	3	35122	3560802
287	-1.24362	-0.136853	9.93568	-1.20182	-0.992925	1.00854	-0.0123752	-0.00142551	0.0993637	1	0.000339231	0.00031296	-0.000420411	0.0678461	0.062592	-0.0840822	0	0	0	0	0.088732	0.460236	-1.15683	33.6875	3	35126	3561202
288	-1.14182	-0.0465029	10.2225	-0.720922	-0.668004	1.39021	-0.0113302	-0.000406806	0.102235	1	-0.000238464	0.000432131	-0.000416148	-0.0476929	0.0864263	-0.0832296	0	0	0	0	0.0872592	0.458342	-1.1594	33.6875	3	35129	3561502
289	-0.76477	-0.544082	9.44767	-0.802745	-1.43409	0.447212	-0.00769255	-0.00552518	0.0944682	1	0.000471909	-0.000219231	-0.000312899	0.0943817	-0.0438461	-0.0625798	0	0	0	0	0.0826502	0.46051	-1.16943	33.6875	3	35132	3561802
290	0.251548	-0.110078	11.134	0.77456	-1.19744	2.44542	0.00247988	-0.0011677	0.11134	1	0.000291439	-0.000155755	-0.000403693	0.0582878	-0.031151	-0.0807387	0	0	0	0	0.0733751	0.466466	-1.17077	33.6875	3	35136	3562202
291	-1.12118	-0.0470422	8.90098	-1.05666	-1.03299	0.142578	-0.0111293	-0.000545061	0.0890197	1	0.000469241	0.000465269	-0.000398362	0.0938482	0.0930537	-0.0796725	0	0	0	0	0.0713263	0.463682	-1.17789	33.6875	3	35139	3562502
292	1.04477	0.278058	11.8556	1.73551	-1.12412	3.39809	0.0103012	0.00285806	0.118567	1	-0.000355568	-0.000625558	-0.000329406	-0.0711136	-0.125112	-0.0658812	0	0	0	0	0.0654357	0.47008	-1.17823	33.6875	3	35142	3562802
293	-0.628023	-0.683343	10.4856	-0.271472	-1.36331	1.50673	-0.00629481	-0.00681613	0.104856	1	-6.16765e-05	-4.69588e-05	-0.000346917	-0.0123353	-0.00939176	-0.0693834	0	0	0	0	0.059387	0.471293	-1.18878	33.6875	3	35146	3563202
294	-1.14976	-1.29122	9.53831	-1.25393	-1.90981	0.6969	-0.0114225	-0.0128752	0.0953971	1	-0.000148253	0.00044512	-0.000381856	-0.0296507	0.0890239	-0.0763711	0	0	0	0	0.0499848	0.478306	-1.19464	33.6875	3	35149	3563502
295	-0.800515	0.11083	10.8638	-0.281762	-0.467546	1.96926	-0.00796448	0.00110457	0.108641	1	3.92023e-05	0.000184112	-0.000299864	0.00784047	0.0368225	-0.0599727	0	0	0	0	0.042796	0.475936	-1.19516	33.6875	3	35152	3563802
296	-0.960675	0.111081	9.80807	-0.439924	-1.1488	1.58164	-0.00965844	0.00109753	0.0980757	1	9.41783e-05	-0.000266538	-0.000269567	0.0188357	-0.0533075	-0.0539134	0	0	0	0	0.0305194	0.482964	-1.20051	33.6875	3	35156	3564202
297	-0.776575	-0.942683	10.0334	-0.882686	-2.27498	1.63616	-0.00787474	-0.00941801	0.100327	1	-2.23639e-05	-0.000517056	-0.000277594	-0.00447278	-0.103411	-0.0555189	0	0	0	0	0.0200255	0.483467	-1.19641	33.6875	3	35159	3564502
298	0.548421	-0.617966	10.353	0.729587	-1.85987	1.31532	0.00531375	-0.00613372	0.103542	1	-0.000239732	-0.000802782	-0.0003432	-0.0479464	-0.160557	-0.06864	0	0	0	0	0.0088236	0.482213	-1.20295	33.6875	3	35162	3564802
299	-1.29276	-0.834828	9.47327	-1.0416	-0.99384	0.90224	-0.0129487	-0.00834972	0.0947297	1	4.96557e-05	-8.45527e-05	-0.000307975	0.00993115	-0.0169105	-0.061595	0	0	0	0	-0.0061119	0.481389	-1.20441	33.6875	3	35166	3565202
300	-0.453858	-0.204865	9.36912	-0.267347	-1.16368	0.7805	-0.00462935	-0.00206708	0.0936863	1	0.00011084	-0.000478828	-0.000255051	0.0221681	-0.0957656	-0.0510103	0	0	0	0	-0.0148355	0.475725	-1.21106	33.6875	3	35169	3565502
301	-1.67831	1.44152	9.25259	-0.648741	0.740453	0.994713	-0.0166136	0.0144234	0.0925553	0.999999	2.27945e-05	0.00085781	-0.000371746	0.0045589	0.171562	-0.0743491	0	0	0	0	-0.0244698	0.477259	-1.21048	33.6875	3	35172	3565802
302	-1.10282	-1.22604	10.002	-0.982928	-2.41903	1.56273	-0.011032	-0.0122703	0.100018	1	7.9426e-05	1.50531e-05	-0.000273949	0.0158852	0.00301061	-0.0547898	0	0	0	0	-0.0326136	0.471519	-1.2131	33.6875	3	35175	3566102
303	-0.159059	0.590472	9.14676	0.368078	-0.794185	0.384738	-0.00157736	0.00587673	0.0914696	1	0.000157292	5.63556e-05	-0.000247677	0.0314584	0.0112711	-0.0495353	0	0	0	0	-0.0470305	0.472108	-1.21201	33.6875	3	35179	3566502
304	-0.59658	-1.02883	10.1313	-0.518547	-1.85001	1.39806	-0.00600671	-0.0102785	0.101311	1	-3.4916e-05	-0.000179172	-0.000224075	-0.0069832	-0.0358343	-0.0448149	0	0	0	0	-0.0540228	0.466704	-1.20654	33.6875	3	35182	3566802
305	-0.182088	0.668826	9.27381	0.607999	-0.371655	0.788162	-0.00183099	0.00670285	0.0927368	1	-7.41313e-05	-7.1106e-05	-0.000229719	-0.0148263	-0.0142212	-0.0459437	0	0	0	0	-0.0655525	0.468715	-1.20442	33.6875	3	35186	3567202
306	0.123981	0.353655	11.5757	0.808269	-0.878171	2.98165	0.00115059	0.00354891	0.115758	1	-5.5744e-05	-0.000392301	-0.00022637	-0.0111488	-0.0784603	-0.045274	0	0	0	0	-0.0700804	0.467102	-1.19383	33.6875	3	35189	3567502
307	0.121554	-0.644186	11.6687	0.0251759	-2.41554	2.33102	0.00132792	-0.00646194	0.116685	1	8.32787e-05	0.000495553	-0.00025326	0.0166558	0.0991106	-0.0506521	0	0	0	0	-0.0792744	0.469626	-1.19423	33.6875	3	35192	3567802
308	-1.02203	0.000928475	9.33402	-0.546587	-0.952302	0.858667	-0.0102646	3.93133e-05	0.0933354	1	-0.000137462	-0.000237338	-0.000213221	-0.0274924	-0.0474675	-0.0426442	0	0	0	0	-0.0834023	0.471442	-1.18458	33.6875	3	35196	3568202
309	-0.360365	0.289676	9.40187	0.263752	-1.08954	1.28805	-0.00360571	0.00297285	0.0940162	1	-0.000396237	-1.7782e-05	-0.000219881	-0.0792474	-0.00355641	-0.0439762	0	0	0	0	-0.0932353	0.468437	-1.17551	33.6875	3	35199	3568502
310	-0.972598	-1.07664	9.71696	-0.339115	-2.26367	1.90681	-0.00977234	-0.0107912	0.0971622	1	0.000145137	-0.000218923	-0.000176735	0.0290275	-0.0437845	-0.035347	0	0	0	0	-0.0988579	0.477048	-1.16317	33.6875	3	35202	3568802
311	-1.51906	0.295671	7.84766	-1.00183	-1.03639	-0.495218	-0.0152466	0.00296278	0.0784656	1	2.85302e-05	-0.000369599	-0.000346531	0.00570605	-0.0739198	-0.0693062	0	0	0	0	-0.108091	0.473471	-1.14957	33.6875	3	35206	3569202
312	0.508802	0.216926	9.7487	1.02899	-1.06766	0.668194	0.00519771	0.00215886	0.0974815	1	3.9492e-05	0.000556793	-0.00026281	0.00789841	0.111359	-0.0525619	0	0	0	0	-0.117111	0.477314	-1.14187	33.6875	3	35209	3569502
313	-0.749967	1.19999	10.5379	0.044716	0.419485	1.82935	-0.00752041	0.0119952	0.105378	1	3.49147e-05	-0.000118764	-0.000178722	0.00698294	-0.0237528	-0.0357445	0	0	0	0	-0.121529	0.474174	-1.12778	33.6875	3	35212	3569802
314	-2.23572	-0.807557	7.52735	-1.81485	-0.895082	-1.28249	-0.0221727	-0.0080419	0.0753316	0.999999	-0.000129701	0.00125868	-0.000317421	-0.0259402	0.251736	-0.0634842	0	0	0	0	-0.133437	0.475151	-1.12214	33.625	3	35216	3570202
315	-1.66275	0.0419058	9.73456	-0.79282	-0.287556	1.10333	-0.0165963	0.000386335	0.0973511	1	0.000212085	0.000158812	-0.000257913	0.042417	0.0317624	-0.0515826	0	0	0	0	-0.13357	0.471045	-1.11062	33.625	3	35219	3570502
316	-0.681738	-0.106149	10.0466	-0.571265	-1.20049	0.977036	-0.00685156	-0.00101438	0.100464	1	-0.000219664	-0.000167886	-0.000218105	-0.0439327	-0.0335772	-0.043621	0	0	0	0	-0.139722	0.468613	-1.10812	33.625	3	35222	3570802
317	-0.590691	-0.154425	9.11292	-0.29637	-1.37719	0.0778024	-0.00589834	-0.00163819	0.0911281	1	0.000531472	5.13602e-05	-0.000247548	0.106295	0.010272	-0.0495095	0	0	0	0	-0.143116	0.465421	-1.09151	33.625	3	35225	3571102
318	-1.55726	-0.924075	9.94034	-1.20476	-1.72795	1.47558	-0.0154622	-0.00931329	0.0994139	1	0.00041605	0.000585987	-0.000328206	0.0832101	0.117197	-0.0656412	0	0	0	0	-0.145697	0.457994	-1.08408	33.625	3	35229	3571502
319	-0.679665	0.370464	10.1876	-0.454446	-0.470731	1.30255	-0.00688242	0.0036998	0.10187	1	4.06296e-05	-0.000430049	-0.000251343	0.00812591	-0.0860099	-0.0502685	0	0	0	0	-0.145046	0.45883	-1.07649	33.625	3	35232	3571802
320	-0.510511	-0.0992073	9.30594	-0.176136	-1.00713	0.314729	-0.0050913	-0.00106071	0.0930594	1	0.000382274	7.69175e-05	-0.000246452	0.0764549	0.0153835	-0.0492903	0	0	0	0	-0.146524	0.453219	-1.06196	33.625	3	35236	3572202
321	-1.46302	0.573898	9.05272	-0.91535	-0.195501	0.195027	-0.0145879	0.00562551	0.0905412	1	0.000658234	0.000221098	-0.000195805	0.131647	0.0442196	-0.039161	0	0	0	0	-0.142136	0.454104	-1.05893	33.625	3	35239	3572502
322	-1.69569	0.271833	8.38134	-1.12226	-0.283292	-0.672801	-0.016852	0.00273631	0.083834	1	-5.32028e-05	0.000617119	-0.000268008	-0.0106406	0.123424	-0.0536016	0	0	0	0	-0.139354	0.44899	-1.04694	33.625	3	35242	3572802
323	-0.831376	-0.375477	9.5922	-0.306384	-1.44072	0.757854	-0.00822499	-0.0037746	0.0959289	1	0.000122077	0.000471178	-0.000216751	0.0244154	0.0942357	-0.0433501	0	0	0	0	-0.136819	0.45514	-1.03722	33.625	3	35246	3573202
324	-1.1001	0.612158	9.04904	-0.734915	-0.947857	0.398944	-0.0110523	0.0060913	0.0904862	1	0.000203179	-0.000303415	-0.000294243	0.0406357	-0.0606829	-0.0588486	0	0	0	0	-0.132042	0.452368	-1.02063	33.625	3	35249	3573502
325	-0.211129	-0.836935	10.3702	-0.0805101	-2.03129	1.44537	-0.00213351	-0.00836899	0.103701	1	4.69136e-06	-8.18824e-05	-0.000313108	0.000938273	-0.0163765	-0.0626215	0	0	0	0	-0.129561	0.455184	-1.01553	33.625	3	35252	3573802
326	-1.48237	-1.34909	10.1081	-1.62734	-2.21592	1.24546	-0.0147831	-0.0135531	0.101078	1	0.000345194	0.000234835	-0.000255201	0.0690388	0.0469669	-0.0510403	0	0	0	0	-0.120579	0.457768	-1.00036	33.625	3	35256	3574202
327	-0.344623	-1.03464	9.9149	-0.321499	-2.07773	0.987455	-0.0034953	-0.0102227	0.0991602	1	-0.00061461	-0.000220242	-0.000262234	-0.122922	-0.0440485	-0.0524467	0	0	0	0	-0.118409	0.456127	-0.99132	33.625	3	35259	3574502
328	-1.5298	-0.541446	8.91219	-1.23695	-1.40378	0.666668	-0.0152563	-0.00542599	0.0891283	1	0.000118794	0.00025332	-0.000315453	0.0237588	0.050664	-0.0630907	0	0	0	0	-0.113941	0.463218	-0.980577	33.625	3	35262	3574802
329	-1.77277	1.52653	9.64695	-1.59654	-0.0622639	0.224294	-0.017684	0.0150824	0.0965063	0.999999	0.00100086	0.000181374	-0.000288427	0.200172	0.0362748	-0.0576853	0	0	0	0	-0.111712	0.461053	-0.969524	33.625	3	35266	3575202
330	-0.845018	-0.629831	8.36098	-0.766876	-1.45906	-0.651936	-0.00848977	-0.00628994	0.0836065	1	-2.94863e-05	-0.000221453	-0.00020301	-0.00589726	-0.0442906	-0.0406021	0	0	0	0	-0.11167	0.46584	-0.964367	33.625	3	35269	3575502
331	-0.353001	-0.816004	9.21613	-0.408337	-1.70791	-0.0163291	-0.00356802	-0.00808406	0.0921665	1	-0.000402279	-0.00018348	-0.000257719	-0.0804558	-0.036696	-0.0515438	0	0	0	0	-0.107013	0.459301	-0.955442	33.625	3	35272	3575802
332	-2.64358	-0.811058	7.97919	-2.04221	-0.545728	-0.786237	-0.026367	-0.00800382	0.0798255	1	-0.000559908	0.000464665	-0.000329433	-0.111982	0.092933	-0.0658865	0	0	0	0	-0.0998291	0.458301	-0.957518	33.625	3	35276	3576202
333	-1.13459	-0.933327	8.8341	-0.950511	-1.83914	0.266364	-0.0114051	-0.00934305	0.0883323	1	8.37439e-05	-0.000311651	-0.000220416	0.0167488	-0.0623303	-0.0440831	0	0	0	0	-0.0991184	0.456202	-0.949487	33.625	3	35279	3576502
334	-0.57306	0.110383	10.368	-0.148345	-1.08526	1.35769	-0.0056837	0.00112968	0.103682	1	-0.000113203	0.000223936	-0.000208802	-0.0226406	0.0447873	-0.0417604	0	0	0	0	-0.0933957	0.451854	-0.954661	33.625	3	35282	3576802
335	-0.905998	-0.521791	10.4758	-0.442369	-1.77266	2.31964	-0.00910768	-0.00519107	0.104755	1	-0.000106558	-0.00021532	-0.000248231	-0.0213115	-0.0430639	-0.0496462	0	0	0	0	-0.0845837	0.450707	-0.949171	33.625	3	35286	3577202
336	-0.258582	-0.726559	10.2873	0.0556307	-1.62036	1.23929	-0.00255685	-0.00718746	0.102879	1	-0.000374811	0.000154656	-0.000197384	-0.0749621	0.0309312	-0.0394768	0	0	0	0	-0.0791899	0.446734	-0.947769	33.625	3	35289	3577502
337	-0.540584	0.247922	9.39073	-0.341486	-0.770253	0.466182	-0.00543974	0.00242778	0.0939067	1	0.000288153	-0.000186938	-0.000247197	0.0576307	-0.0373875	-0.0494394	0	0	0	0	-0.073416	0.448132	-0.946755	33.625	3	35292	3577802
338	-0.6487	0.73581	9.22756	-0.253564	-0.221357	0.162786	-0.00645726	0.00736437	0.0922771	1	-1.58046e-05	0.000140521	-0.000258984	-0.00316092	0.0281042	-0.0517968	0	0	0	0	-0.0636678	0.442659	-0.945406	33.625	3	35296	3578202
339	-1.89725	0.0444769	9.09333	-1.48011	-0.315652	0.0085001	-0.0189902	0.000402209	0.0909298	1	0.000293358	-9.85371e-05	-0.000284252	0.0586716	-0.0197074	-0.0568504	0	0	0	0	-0.0546695	0.446061	-0.948908	33.625	3	35299	3578502
340	-1.02648	-0.180304	8.66245	-0.858506	-0.947607	-0.465074	-0.0101888	-0.00184697	0.0866325	1	0.000285351	0.000444514	-0.000269273	0.0570702	0.0889029	-0.0538546	0	0	0	0	-0.0497359	0.44304	-0.945967	33.625	3	35302	3578802
341	-1.07421	-0.566265	8.88417	-0.842845	-1.28052	0.164946	-0.0107508	-0.0055691	0.0888466	1	-0.000492186	-3.12681e-05	-0.000283526	-0.0984372	-0.00625362	-0.0567052	0	0	0	0	-0.042242	0.447944	-0.950943	33.625	3	35306	3579202
342	-0.027568	0.547289	11.8501	0.53847	-0.92849	3.18892	-0.000480708	0.00554495	0.118497	0.999999	-0.000303352	-0.000875172	-0.000216567	-0.0606705	-0.175034	-0.0433135	0	0	0	0	-0.0370736	0.446197	-0.937369	33.625	3	35309	3579502
343	-0.455105	0.0735549	9.87576	-0.0637548	-1.06697	1.23472	-0.00453277	0.000725977	0.0987585	1	6.09349e-05	9.05752e-05	-0.000271175	0.012187	0.018115	-0.054235	0	0	0	0	-0.0343506	0.448702	-0.942377	33.625	3	35312	3579802
344	-0.620347	-0.877651	8.7922	-0.818255	-1.07039	-0.519833	-0.00609837	-0.00876851	0.0879302	1	-2.4781e-05	0.000627265	-0.000296421	-0.00495619	0.125453	-0.0592843	0	0	0	0	-0.0319237	0.451076	-0.93981	33.6875	3	35316	3580202
345	0.0756802	0.282373	11.6688	0.51933	-0.749693	2.43076	0.000702702	0.00277465	0.116689	1	0.000209036	-0.000236637	-0.00020103	0.0418072	-0.0473273	-0.040206	0	0	0	0	-0.0299104	0.445694	-0.939939	33.6875	3	35319	3580502
346	-0.0420017	0.238435	11.5023	-0.0616516	-0.958662	2.1394	-0.00043384	0.00241032	0.115022	1	-0.000112243	-6.36755e-05	-0.00017206	-0.0224486	-0.0127351	-0.0344121	0	0	0	0	-0.0271704	0.450114	-0.942884	33.6875	3	35322	3580802
347	-0.386519	0.168517	9.50804	-0.362825	-0.726749	0.0192283	-0.00378369	0.00162096	0.0950848	1	0.000343696	0.000425992	-0.000149166	0.0687392	0.0851984	-0.0298332	0	0	0	0	-0.0242608	0.444291	-0.946057	33.6875	3	35325	3581102
348	-0.897911	0.340764	9.96127	-0.68714	-1.05362	0.912997	-0.00899398	0.00335336	0.0996132	1	0.000272924	-7.47773e-05	-5.01574e-06	0.0545849	-0.0149555	-0.00100315	0	0	0	0	-0.0196845	0.442977	-0.956713	33.6875	3	35329	3581502
349	-1.55974	-1.14307	9.53514	-1.56319	-1.88397	0.76621	-0.0154462	-0.0114657	0.0953718	1	0.00016306	0.000777544	0.000125615	0.032612	0.155509	0.025123	0	0	0	0	-0.0179521	0.433598	-0.951374	33.6875	3	35332	3581802
350	-0.989393	-0.482359	10.2339	-0.98995	-1.70696	1.42535	-0.00994869	-0.00489368	0.10233	1	0.000300214	-0.000288227	0.000435496	0.0600428	-0.0576453	0.0870993	0	0	0	0	-0.0158388	0.432828	-0.964028	33.6875	3	35335	3582102
351	-0.714628	0.00328923	9.88016	-0.627122	-1.287	1.00614	-0.00706413	9.96026e-05	0.0988075	0.999999	-0.000387829	0.000416184	0.000698663	-0.0775659	0.0832369	0.139733	0	0	0	0	-0.0122147	0.423939	-0.959696	33.6875	3	35339	3582502
352	-1.29515	-0.767491	9.25317	-1.29403	-1.62661	0.48315	-0.0129098	-0.00778711	0.0925282	0.999999	0.000465302	0.000141279	0.00100906	0.0930604	0.0282558	0.201813	0	0	0	0	-0.00668509	0.420214	-0.972431	33.6875	3	35342	3582802
353	-0.448347	0.124416	9.27978	-0.00974315	-0.967364	0.706602	-0.00457334	0.00127817	0.092793	0.999999	-0.000243746	-0.000467392	0.00123908	-0.0487493	-0.0934785	0.247816	0	0	0	0	-0.00137468	0.412447	-0.977174	33.6875	3	35346	3583202
354	-1.12678	0.358626	9.79034	-0.512301	-0.446625	1.16361	-0.0112522	0.00355225	0.0979064	0.999999	3.31938e-05	0.000124409	0.00122165	0.00663875	0.0248818	0.24433	0	0	0	0	0.00636644	0.406087	-0.979876	33.6875	3	35349	3583502
355	-2.64825	-0.181706	8.38993	-2.24108	-0.281992	-0.226521	-0.02645	-0.00183378	0.0839092	0.999999	-0.000310171	0.000165416	0.00129915	-0.0620341	0.0330833	0.259831	0	0	0	0	0.0105617	0.409041	-0.983366	33.6875	3	35352	3583802
356	-0.360147	1.18484	9.32096	0.398861	0.0771478	0.867291	-0.00371121	0.0118393	0.0932065	0.999999	-5.18867e-06	-0.000414058	0.00137424	-0.00103773	-0.0828117	0.274847	0	0	0	0	0.013076	0.401714	-0.984045	33.6875	3	35355	3584102
357	-1.55915	0.769884	8.77593	-0.992529	0.0411377	0.260538	-0.015607	0.00767902	0.0877583	0.999999	-0.00013974	3.64857e-05	0.00142138	-0.027948	0.00729715	0.284275	0	0	0	0	0.0186976	0.40274	-0.989604	33.6875	3	35359	3584502
358	0.624886	0.0986314	10.0917	1.03773	-1.21061	1.33084	0.00615179	0.00109487	0.100922	0.999999	-0.000445414	-0.000465434	0.00150438	-0.0890827	-0.0930869	0.300876	0	0	0	0	0.0189429	0.398224	-0.982635	33.6875	3	35362	3584802
359	-1.15584	0.687982	9.56878	-1.01849	-0.63274	0.319331	-0.0115313	0.0067047	0.0957035	0.999998	0.000701116	0.000267363	0.00177277	0.140223	0.0534726	0.354555	0	0	0	0	0.0231135	0.401196	-0.987133	33.6875	3	35366	3585202
360	-0.931281	0.662901	9.02446	-0.59608	-0.329309	-0.139409	-0.00930538	0.00660183	0.0902474	0.999998	-4.61246e-05	0.00018095	0.00190703	-0.00922493	0.0361901	0.381407	0	0	0	0	0.0265881	0.400608	-0.983122	33.6875	3	35369	3585502
361	-1.03616	-0.469479	9.09824	-1.06813	-1.2406	-0.260431	-0.0103005	-0.0047719	0.0909853	0.999998	0.000182708	0.000225275	0.00212298	0.0365416	0.045055	0.424597	0	0	0	0	0.0269658	0.398752	-0.988721	33.6875	3	35372	3585802
362	-1.61633	0.827594	8.74683	-1.39632	-0.100917	-0.459172	-0.0160569	0.00810919	0.0875036	0.999997	0.000526728	0.000825278	0.00231496	0.105346	0.165056	0.462993	0	0	0	0	0.02713	0.397668	-0.982685	33.6875	3	35375	3586102
363	-1.70472	0.0503251	9.1831	-1.56057	-0.474069	0.0926828	-0.0169924	0.00043213	0.0918415	0.999997	-7.23378e-05	0.000310959	0.00247968	-0.0144676	0.0621918	0.495937	0	0	0	0	0.0286532	0.389888	-0.984885	33.6875	3	35379	3586502
364	-1.26637	-0.101771	8.48084	-1.18131	-0.836492	-0.908381	-0.0126207	-0.00113368	0.0848133	0.999996	0.000290901	0.000220187	0.00263515	0.0581803	0.0440374	0.52703	0	0	0	0	0.0305207	0.391841	-0.98586	33.6875	3	35382	3586802
365	-0.0275082	0.534774	10.726	0.327312	-0.55252	1.72142	-0.000326058	0.00533691	0.10726	0.999996	4.24183e-05	-9.37657e-05	0.00288835	0.00848367	-0.0187532	0.577671	0	0	0	0	0.0298717	0.381019	-0.980542	33.6875	3	35386	3587202
366	-0.440121	0.894978	10.2266	0.0831966	0.141414	1.13798	-0.00450496	0.0090111	0.102257	0.999996	-0.00041692	-0.000271088	0.00268975	-0.083384	-0.0542177	0.537951	0	0	0	0	0.0316221	0.376794	-0.990745	33.6875	3	35389	3587502
367	-1.9758	2.99439	10.3416	-1.61795	1.29311	1.49709	-0.0199213	0.0298585	0.103409	0.999994	-0.000216431	0.000158935	0.00328076	-0.0432863	0.031787	0.656154	0	0	0	0	0.0343495	0.366901	-0.984412	33.6875	3	35392	3587802
368	-0.758598	1.1903	8.53645	-0.283296	-0.0140471	0.175593	-0.00768147	0.0118008	0.0853702	0.999994	0.000294321	-8.65024e-05	0.00340554	0.0588643	-0.0173005	0.68111	0	0	0	0	0.0370749	0.364104	-0.993073	33.6875	3	35396	3588202
369	-0.240016	1.57927	10.7051	0.28753	0.710734	1.99539	-0.00262658	0.0158427	0.107038	0.999994	-0.000315975	-0.000538489	0.00351293	-0.0631952	-0.107698	0.702586	0	0	0	0	0.0469511	0.360465	-0.985118	33.6875	3	35399	3588502
370	-0.400721	0.533027	10.9798	0.438795	-0.0634874	2.25277	-0.00405856	0.00532194	0.109796	0.999994	-9.35397e-05	-6.01708e-05	0.00357977	-0.018708	-0.0120342	0.715955	0	0	0	0	0.0498122	0.357568	-0.988226	33.6875	3	35402	3588802
371	-0.93441	0.227252	10.374	-0.683479	0.352407	0.939897	-0.00939489	0.00227116	0.103736	0.999994	-0.000315732	-0.000166639	0.00356824	-0.0631466	-0.0333279	0.71365	0	0	0	0	0.0609519	0.357422	-0.985251	33.6875	3	35406	3589202
372	-1.20334	0.82219	10.1137	-0.497783	0.246764	1.64835	-0.0119713	0.00819218	0.101147	0.999993	-0.000283018	0.000601386	0.00362312	-0.0566037	0.120277	0.724627	0	0	0	0	0.0601734	0.352959	-0.980801	33.6875	3	35409	3589502
373	-0.708279	0.721529	10.2907	-0.413615	-0.014813	1.5786	-0.0072225	0.00726455	0.102894	0.999993	-0.000501078	-0.000413911	0.00376561	-0.100216	-0.0827825	0.753124	0	0	0	0	0.0701842	0.359207	-0.980203	33.6875	3	35412	3589802
374	-0.302726	1.9333	11.0949	0.164447	0.545967	2.32228	-0.00324918	0.019377	0.110935	0.999993	-0.000303805	-0.000349494	0.00372936	-0.0607612	-0.0698989	0.745874	0	0	0	0	0.0743895	0.354578	-0.968709	33.6875	3	35416	3590202
375	-0.722632	0.0757194	10.7828	-0.0259658	-0.65913	2.21501	-0.00721017	0.00084575	0.107828	0.999993	-0.000656668	0.000102221	0.00367534	-0.131334	0.0204443	0.735069	0	0	0	0	0.0823488	0.361899	-0.972623	33.6875	3	35419	3590502
376	-0.427135	-0.125129	10.968	-0.14127	-0.858698	2.24471	-0.00436773	-0.00112533	0.109678	0.999992	-0.000723533	-0.000480438	0.00379082	-0.144707	-0.0960878	0.758167	0	0	0	0	0.0841902	0.359186	-0.958045	33.6875	3	35422	3590802
377	-0.175287	2.16404	9.49238	0.0381888	1.20813	0.644819	-0.00196498	0.0216953	0.0949071	0.999993	-0.000361126	-0.000275923	0.00368601	-0.0722255	-0.0551847	0.737204	0	0	0	0	0.0888458	0.361188	-0.963073	33.6875	3	35426	3591202
378	-1.07184	0.758835	10.3019	-0.890062	0.0655651	1.17456	-0.010854	0.00767392	0.102998	0.999993	-0.000801536	-0.000384951	0.00368814	-0.160308	-0.0769904	0.737631	0	0	0	0	0.0953683	0.363349	-0.950429	33.6875	3	35429	3591502
379	-0.767681	0.338975	9.29266	-0.0902732	-0.65618	0.570865	-0.00766382	0.00340486	0.0929272	0.999993	-0.000386049	0.000204875	0.00369248	-0.0772101	0.0409751	0.738497	0	0	0	0	0.094817	0.362441	-0.953982	33.6875	3	35432	3591802
380	-0.602719	3.06778	9.72452	-0.744546	1.87617	0.722916	-0.00617955	0.0306303	0.0972506	0.999993	1.57939e-05	0.000363995	0.00363992	0.00315878	0.0727991	0.727986	0	0	0	0	0.103523	0.363299	-0.951477	33.6875	3	35436	3592202
381	-2.11013	-0.114074	8.33008	-1.4891	-1.44403	-0.550967	-0.0210199	-0.00133668	0.0833185	0.999993	0.000273314	0.000435497	0.00357048	0.0546628	0.0870995	0.714097	0	0	0	0	0.102842	0.355873	-0.945074	33.6875	3	35439	3592502
382	-0.726512	0.849741	8.92895	-0.340436	-0.255751	0.443389	-0.00745979	0.00845669	0.0892773	0.999993	-7.98321e-05	-0.000735655	0.00373369	-0.0159665	-0.147131	0.746741	0	0	0	0	0.11288	0.356801	-0.94712	33.6875	3	35442	3592802
383	-1.59097	0.746308	8.92093	-1.0233	-0.292502	0.393483	-0.0158661	0.00729548	0.089231	0.999993	0.000292223	0.000544587	0.00363343	0.0584447	0.108918	0.726687	0	0	0	0	0.114765	0.347793	-0.935207	33.6875	3	35446	3593202
384	-0.326556	-0.215433	9.973	0.841724	-0.962609	1.34096	-0.00336746	-0.00207364	0.0997284	0.999993	-0.000528429	-0.000589857	0.00372532	-0.105686	-0.117972	0.745066	0	0	0	0	0.124585	0.350807	-0.944781	33.6875	3	35449	3593502
385	-1.16992	1.67701	9.41056	-0.802454	1.10722	0.990015	-0.0118202	0.0167406	0.0940958	0.999993	-0.000310665	2.37144e-05	0.00374152	-0.0621331	0.00474289	0.748305	0	0	0	0	0.130853	0.339315	-0.932439	33.6875	3	35452	3593802
386	-0.323557	2.3272	10.5076	-0.421819	1.38029	1.66131	-0.00339021	0.0231748	0.105093	0.999993	0.000345685	8.28801e-05	0.00370436	0.0691372	0.0165761	0.740873	0	0	0	0	0.141778	0.338843	-0.938561	33.6875	3	35456	3594202
387	-0.943703	1.12465	10.5944	-0.321447	0.34626	1.68762	-0.00954137	0.011241	0.105935	0.999993	-0.000305192	-0.000100538	0.00369259	-0.0610385	-0.0201076	0.738519	0	0	0	0	0.153617	0.338052	-0.927017	33.6875	3	35459	3594502
388	-0.933154	0.811423	9.70908	-0.175812	-0.247564	1.16091	-0.00931188	0.00812568	0.0970917	0.999993	-0.000414883	0.000411293	0.00370716	-0.0829768	0.0822588	0.741433	0	0	0	0	0.158868	0.336111	-0.930115	33.6875	3	35462	3594802
389	-0.0382733	0.558763	9.34328	0.482001	0.00166715	0.410723	-0.00049123	0.00563972	0.0934292	0.999993	-0.000295748	-0.000362655	0.00362769	-0.0591498	-0.0725311	0.72554	0	0	0	0	0.171114	0.33826	-0.919517	33.6875	3	35466	3595202
390	-0.268623	1.13173	10.3379	-0.213022	0.167135	0.963016	-0.00286647	0.0113617	0.10337	0.999993	-0.00031136	-0.000476476	0.00360386	-0.0622722	-0.0952953	0.720773	0	0	0	0	0.17092	0.335645	-0.909473	33.6875	3	35469	3595502
391	-0.427971	0.511267	10.1439	-0.108186	-0.77979	1.01079	-0.00423422	0.00507909	0.101442	0.999994	1.73422e-05	0.000401592	0.00353105	0.00346844	0.0803186	0.706212	0	0	0	0	0.188547	0.342371	-0.91193	33.6875	3	35472	3595802
392	-2.33185	0.0591842	8.03176	-1.69608	-1.3443	-0.580728	-0.0232443	0.000464664	0.0803399	0.999994	-0.000222276	0.000484601	0.00349824	-0.0444553	0.0969203	0.699649	0	0	0	0	0.192809	0.335773	-0.89947	33.6875	3	35476	3596202
393	-0.32074	1.31614	10.3708	-0.170775	0.516502	1.93019	-0.0034451	0.0131507	0.103701	0.999993	-6.82595e-05	-0.000671921	0.00373735	-0.0136519	-0.134385	0.747472	0	0	0	0	0.203144	0.339722	-0.907006	33.6875	3	35479	3596502
394	-0.501816	1.41237	10.942	-0.511536	0.650503	1.71393	-0.00510275	0.0141572	0.109412	0.999993	-0.000322956	8.83091e-05	0.00367431	-0.0645913	0.0176619	0.734865	0	0	0	0	0.208447	0.33354	-0.891006	33.6875	3	35482	3596802
395	-0.44759	0.807261	9.06455	0.103584	0.171704	0.542683	-0.0045449	0.00808999	0.0906405	0.999993	-0.000278466	-5.33586e-05	0.00367015	-0.0556934	-0.0106717	0.734031	0	0	0	0	0.220348	0.335942	-0.894543	33.6875	3	35486	3597202
396	0.914678	1.89354	10.2202	0.375364	1.81233	1.11738	0.00895087	0.0189362	0.102219	0.999993	0.000314816	-0.000291822	0.00359792	0.0629634	-0.0583645	0.719585	0	0	0	0	0.228336	0.330847	-0.886107	33.6875	3	35489	3597502
397	-2.43328	0.472094	8.49943	-1.53409	-1.49586	-0.0220625	-0.0242642	0.00447749	0.085027	0.999994	0.00044864	0.000589554	0.00344005	0.0897281	0.117911	0.688011	0	0	0	0	0.232599	0.326042	-0.892294	33.6875	3	35492	3597802
398	-0.437664	1.97289	9.57796	-0.86377	0.976046	0.92684	-0.00461882	0.0197418	0.0957656	0.999993	-0.000234192	-0.000532345	0.00355215	-0.0468385	-0.106469	0.710432	0	0	0	0	0.253294	0.322492	-0.894489	33.6875	3	35496	3598202
399	-1.32035	0.17945	9.31583	-0.675754	-0.645187	0.332231	-0.0131215	0.00172371	0.0931712	0.999994	-0.000112166	0.00050575	0.00348285	-0.0224332	0.10115	0.696572	0	0	0	0	0.258411	0.312109	-0.889188	33.6875	3	35499	3598502
400	-2.57339	2.10562	8.20316	-2.45146	-0.179938	-0.0041225	-0.0258613	0.0208908	0.0820339	0.999994	-9.93536e-05	0.000123687	0.00352183	-0.0198708	0.0247374	0.704368	0	0	0	0	0.274685	0.308179	-0.895411	33.6875	3	35502	3598802
401	-0.00634284	1.28803	9.44481	-0.469844	0.629569	0.396347	-0.000220947	0.0129293	0.0944412	0.999993	-0.000264924	-0.000338631	0.00362478	-0.052985	-0.0677263	0.724958	0	0	0	0	0.282873	0.297638	-0.882551	33.6875	3	35506	3599202
402	0.836566	1.68478	12.2965	0.393922	1.26662	3.33223	0.00822026	0.0168624	0.122972	0.999993	0.000185521	-9.36004e-05	0.00363022	0.0371043	-0.0187201	0.726045	0	0	0	0	0.295159	0.29336	-0.894825	33.6875	3	35509	3599502
403	-0.71534	1.54097	10.4994	-1.41531	0.277694	1.47668	-0.0071697	0.0153216	0.105006	0.999994	0.000176895	0.000442497	0.00355439	0.0353791	0.0884996	0.710879	0	0	0	0	0.30482	0.284712	-0.879404	33.6875	3	35512	3599802
404	0.265869	0.150642	9.8908	0.880109	-0.243783	0.949584	0.00271506	0.00151389	0.0989064	0.999993	6.27147e-05	0.000341389	0.00369842	0.012543	0.0682779	0.739686	0	0	0	0	0.320128	0.280312	-0.886139	33.6875	3	35516	3600202
405	-0.876826	1.06156	9.13153	-0.858845	-0.119538	0.362065	-0.00878241	0.0105408	0.0913226	0.999993	5.18665e-05	0.000353417	0.0037198	0.0103733	0.0706836	0.743963	0	0	0	0	0.333778	0.273805	-0.883316	33.6875	3	35519	3600502
406	0.363823	0.634757	12.4584	0.419633	0.643181	3.90556	0.0034355	0.00654596	0.12458	0.999992	-0.000688405	-0.000617101	0.0037983	-0.137681	-0.12342	0.759662	0	0	0	0	0.341544	0.267427	-0.885009	33.6875	3	35522	3600802
407	-0.716108	2.1837	9.68888	-1.52951	0.482814	0.629182	-0.00732148	0.0218286	0.0968787	0.999993	-0.000237219	1.79653e-05	0.0037531	-0.047444	0.00359308	0.750622	0	0	0	0	0.360294	0.262944	-0.88873	33.6875	3	35526	3601202
408	0.170672	-0.580348	10.1693	1.45174	-0.919494	0.856186	0.00169873	-0.00569626	0.1017	0.999993	-0.00046302	-0.000255815	0.00382974	-0.0926043	-0.0511631	0.765949	0	0	0	0	0.358346	0.252992	-0.876821	33.6875	3	35529	3601502
409	-0.183205	1.94436	10.6809	-1.23414	0.844411	1.88748	-0.00205079	0.0194546	0.106803	0.999993	-0.000120983	-0.000329087	0.00381612	-0.0241968	-0.0658175	0.763227	0	0	0	0	0.371647	0.250595	-0.885522	33.6875	3	35532	3601802
410	-0.448357	1.86263	9.39823	-1.24189	-0.172188	0.0161452	-0.00452261	0.0186009	0.0939855	0.999993	-4.31507e-05	0.000527539	0.0037124	-0.00863016	0.105508	0.742481	0	0	0	0	0.375389	0.235356	-0.880827	33.6875	3	35536	3602202
411	-1.85851	0.246391	8.1419	-0.743919	-1.50961	-1.1346	-0.0185149	0.00241532	0.0814365	0.999993	-0.000535513	0.000541013	0.0036605	-0.107103	0.108203	0.732102	0	0	0	0	0.387136	0.233051	-0.894064	33.6875	3	35539	3602502
412	-0.225994	0.892991	12.2878	-0.279023	0.130515	3.0837	-0.00251219	0.00909503	0.122861	0.999992	-0.000746062	-0.000746531	0.00381685	-0.149213	-0.149306	0.763372	0	0	0	0	0.387507	0.220252	-0.887785	33.6875	3	35542	3602802
413	-1.16685	-0.535595	8.89063	0.14771	-1.59442	-0.0248053	-0.0117075	-0.00533675	0.0889024	0.999993	-0.000590968	-0.00043982	0.00367396	-0.118194	-0.0879642	0.734793	0	0	0	0	0.398327	0.210702	-0.904714	33.6875	3	35546	3603202
414	-0.608706	3.22707	10.8343	-2.40144	0.671127	1.84458	-0.00633008	0.0322746	0.108328	0.999994	-0.000221414	-6.60231e-05	0.00354344	-0.0442828	-0.0132046	0.708689	0	0	0	0	0.404803	0.196514	-0.905564	33.6875	3	35549	3603502
415	0.891335	0.65089	11.0235	0.263714	1.32486	2.29426	0.00876548	0.00665253	0.110238	0.999994	-0.000376086	-0.000465702	0.00343392	-0.0752174	-0.0931406	0.686786	0	0	0	0	0.410032	0.190734	-0.912283	33.6875	3	35552	3603802
416	0.632975	0.651701	10.8544	0.118278	0.699475	1.73467	0.00630871	0.00665458	0.108537	0.999994	-0.000439141	0.000105887	0.00334202	-0.0878283	0.0211775	0.668405	0	0	0	0	0.421218	0.180435	-0.914583	33.6875	3	35555	3604102
417	0.386874	-0.659047	11.6647	1.32091	-0.149023	3.13394	0.00377677	-0.00642219	0.11666	0.999994	-0.000609245	-0.000584957	0.00341963	-0.121849	-0.116992	0.683927	0	0	0	0	0.424195	0.166852	-0.920455	33.6875	3	35559	3604502
418	-0.814469	1.34459	9.71345	-1.06428	-0.0392301	1.24671	-0.00815106	0.0135018	0.0971262	0.999994	-0.000566189	0.000427467	0.00331755	-0.113238	0.0854935	0.663512	0	0	0	0	0.438413	0.162071	-0.932748	33.6875	3	35562	3604802
419	-0.892387	-0.428388	9.94355	0.609449	-1.08216	1.12351	-0.00890929	-0.00421883	0.0994396	0.999994	-0.000625713	-6.90525e-05	0.00333053	-0.125143	-0.0138105	0.666107	0	0	0	0	0.441126	0.147851	-0.930046	33.6875	3	35566	3605202
420	-1.30697	0.958138	9.61185	-1.47347	-0.91395	0.606582	-0.013176	0.00958002	0.0961042	0.999994	-0.000440155	-0.000226539	0.00327554	-0.0880312	-0.045308	0.65511	0	0	0	0	0.452371	0.141712	-0.946902	33.6875	3	35569	3605502
421	0.0849087	2.03397	10.4661	-1.21099	0.838241	1.97426	0.000672117	0.0203653	0.104657	0.999995	-9.88177e-05	-0.000208447	0.00327571	-0.0197636	-0.0416896	0.655143	0	0	0	0	0.452797	0.135137	-0.933918	33.6875	3	35572	3605802
422	-1.04867	0.957272	9.65962	-0.864978	-0.159807	1.29757	-0.0105896	0.00960979	0.0965813	0.999995	-0.000536443	-0.00021937	0.00315831	-0.107289	-0.0438741	0.631664	0	0	0	0	0.457491	0.128918	-0.943169	33.6875	3	35576	3606202
423	0.625421	-0.108879	8.66227	0.715023	0.902987	0.274185	0.00618861	-0.00102392	0.0866282	0.999995	-0.000143291	-0.000417887	0.00321851	-0.0286583	-0.0835776	0.643704	0	0	0	0	0.459561	0.123013	-0.94129	33.6875	3	35579	3606502
424	-0.212728	2.12649	9.6026	-1.50083	0.58595	0.955609	-0.00228104	0.0212985	0.096015	0.999995	-0.000249959	-7.38204e-05	0.00327928	-0.049992	-0.0147641	0.655857	0	0	0	0	0.457619	0.116778	-0.94647	33.6875	3	35582	3606802
425	-2.25059	0.839438	7.6462	-1.07048	-1.79308	-1.3169	-0.022448	0.00833257	0.0764858	0.999995	-0.000516002	0.000720904	0.00313062	-0.103201	0.144181	0.626126	0	0	0	0	0.462353	0.109565	-0.954733	33.6875	3	35586	3607202
426	-1.32642	-0.0137272	8.09056	0.47703	-1.26332	-0.261874	-0.0132734	-0.000248692	0.0809039	0.999995	0.000149273	-6.48655e-05	0.00328838	0.0298547	-0.0129731	0.657678	0	0	0	0	0.454969	0.0987993	-0.949383	33.6875	3	35589	3607502
427	0.271432	2.21372	10.3018	-2.00076	0.716691	1.60869	0.002452	0.0222442	0.103002	0.999994	-0.000438727	-0.000582178	0.00320796	-0.0877456	-0.116436	0.641592	0	0	0	0	0.462965	0.0921189	-0.96169	33.6875	3	35592	3607802
428	-0.848354	-0.115489	9.0105	0.517025	-1.20219	-0.267885	-0.00850939	-0.00122625	0.0901016	0.999995	0.000106078	-0.000184006	0.00307465	0.0212157	-0.0368014	0.614931	0	0	0	0	0.45666	0.0749948	-0.95598	33.6875	3	35596	3608202
429	0.437001	2.48463	11.0694	-1.80881	0.838115	2.31156	0.00430879	0.0249106	0.110682	0.999996	-0.000174059	0.000389444	0.00296297	-0.0348119	0.077889	0.592594	0	0	0	0	0.458824	0.0659957	-0.972352	33.6875	3	35599	3608502
430	-0.908588	1.16063	9.91221	-0.757277	-0.672719	1.43672	-0.00912495	0.0115897	0.0991205	0.999996	-0.000187254	0.000148066	0.00294973	-0.0374508	0.0296133	0.589947	0	0	0	0	0.45676	0.054201	-0.966544	33.6875	3	35602	3608802
431	-0.844707	1.31771	9.98363	-1.24107	-0.486069	1.19083	-0.00853347	0.0131837	0.0998281	0.999995	-0.000291653	-3.06979e-05	0.00304511	-0.0583306	-0.0061396	0.609023	0	0	0	0	0.457604	0.0436785	-0.978903	33.6875	3	35606	3609202
432	-0.503552	1.23275	10.1908	-0.47104	-0.0878141	1.3732	-0.00509841	0.012336	0.101904	0.999995	-0.000191002	5.45701e-05	0.00300043	-0.0382004	0.010914	0.600086	0	0	0	0	0.461552	0.0339362	-0.981664	33.6875	3	35609	3609502
433	-2.54104	-0.272853	9.0345	1.56448	-2.71862	-0.256814	-0.0253545	-0.00289259	0.0903556	0.999996	9.90755e-05	0.000219906	0.00287893	0.0198151	0.0439812	0.575787	0	0	0	0	0.457702	0.0296323	-0.984772	33.6875	3	35612	3609802
434	-0.396729	0.394203	8.75543	0.0274433	-0.724538	-0.726353	-0.00407085	0.00400235	0.0875468	0.999995	-0.000480365	-0.000457158	0.00295995	-0.0960732	-0.0914317	0.591991	0	0	0	0	0.463539	0.0227916	-0.986971	33.6875	3	35616	3610202
435	-0.776888	0.291697	9.25386	-0.14019	-0.642945	0.483195	-0.00777857	0.00288483	0.0925388	0.999996	-7.55699e-05	4.0669e-05	0.00296683	-0.015114	0.00813381	0.593367	0	0	0	0	0.453832	0.0158395	-0.975464	33.6875	3	35619	3610502
436	0.049759	3.38752	11.0118	-3.45893	0.319596	2.18171	0.000276538	0.0339391	0.110099	0.999995	-0.000279732	-8.96634e-05	0.00296849	-0.0559465	-0.0179327	0.593699	0	0	0	0	0.460521	0.0090719	-0.982211	33.6875	3	35622	3610802
437	0.0270845	0.463522	11.0417	-0.427803	0.344546	2.58111	0.000172295	0.00473732	0.110413	0.999995	-0.000456335	-0.000319419	0.0029888	-0.0912673	-0.0638839	0.597761	0	0	0	0	0.450238	0.00267464	-0.974225	33.6875	3	35626	3611202
438	-1.41316	0.653543	9.419	-0.320876	-1.52029	0.685384	-0.0141627	0.00646047	0.0941905	0.999995	-5.83465e-05	4.46477e-05	0.00303768	-0.0116693	0.00892955	0.607536	0	0	0	0	0.454374	0.000371091	-0.983892	33.6875	3	35629	3611502
439	-0.390335	0.818307	9.75312	-0.589683	-0.352721	0.460686	-0.00389632	0.00822695	0.0975278	0.999995	-0.000348472	0.00029584	0.00308799	-0.0696945	0.0591682	0.617599	0	0	0	0	0.44419	-0.00754357	-0.972909	33.6875	3	35632	3611802
440	-1.0472	0.677609	10.7537	-0.496848	-0.884748	2.08939	-0.0105814	0.00681766	0.107523	0.999995	-0.000493915	-0.000314613	0.00307092	-0.0987832	-0.0629228	0.614185	0	0	0	0	0.438928	-0.0152318	-0.977096	33.6875	3	35636	3612202
441	-0.28098	1.076	11.2275	-0.753343	-0.115796	2.48145	-0.00295067	0.0107405	0.112273	0.999995	8.53657e-06	-0.000335753	0.0030454	0.00170732	-0.0671507	0.609081	0	0	0	0	0.439176	-0.0264955	-0.974823	33.6875	3	35639	3612502
442	-0.720065	0.551659	9.5537	-0.0956193	-0.785063	1.00648	-0.00731336	0.00547457	0.0955309	0.999995	-1.05025e-05	-0.000415369	0.00303329	-0.0021005	-0.083074	0.606659	0	0	0	0	0.427864	-0.036209	-0.971956	33.6875	3	35643	3612902
443	-0.735396	2.77033	10.289	-2.68955	-0.849951	1.54298	-0.00757928	0.0277531	0.10286	0.999995	-0.000457748	-0.000292405	0.00297828	-0.0915498	-0.0584811	0.595657	0	0	0	0	0.429254	-0.0506377	-0.984404	33.6875	3	35646	3613202
444	-2.74933	1.11062	7.8611	0.0533072	-3.2755	-1.17124	-0.0275755	0.0109088	0.0786098	0.999996	0.000212394	-0.000105336	0.00297856	0.0424789	-0.0210673	0.595713	0	0	0	0	0.421507	-0.0619688	-0.974519	33.6875	3	35649	3613502
445	-0.563458	-0.696588	9.66626	1.32284	-0.344334	1.06359	-0.00574474	-0.00694514	0.0966576	0.999995	-0.000283965	-0.000785857	0.00300159	-0.0567931	-0.157172	0.600318	0	0	0	0	0.425234	-0.0701035	-0.985324	33.6875	3	35652	3613802
446	-2.0418	0.892945	7.72393	-0.139274	-2.00469	-1.30094	-0.0204731	0.00879913	0.0772397	0.999996	7.32837e-05	-2.27389e-05	0.00291041	0.0146568	-0.00454778	0.582083	0	0	0	0	0.415151	-0.0833927	-0.973956	33.6875	3	35656	3614202
447	-1.08276	-0.161196	9.73238	0.765687	-0.775737	0.805868	-0.0107592	-0.00152624	0.0973328	0.999995	-0.000773691	0.000303023	0.00300589	-0.154738	0.0606047	0.601178	0	0	0	0	0.418875	-0.0891156	-0.983191	33.6875	3	35659	3614502
448	-0.956614	1.37719	11.5262	-1.10076	-0.0924013	2.67103	-0.00968288	0.0137328	0.115257	0.999996	-7.64261e-05	-0.00015484	0.00294689	-0.0152852	-0.0309681	0.589378	0	0	0	0	0.412654	-0.0995552	-0.969253	33.6875	3	35662	3614802
449	-0.674161	0.938634	10.3523	-0.806849	-0.609437	2.05011	-0.00688032	0.00943228	0.10351	0.999996	-0.000413792	-0.000404855	0.00291677	-0.0827585	-0.0809711	0.583354	0	0	0	0	0.409787	-0.104364	-0.971872	33.6875	3	35666	3615202
450	-0.391553	0.649465	10.4706	-0.250173	-0.0631318	1.89733	-0.00395846	0.00641685	0.104709	0.999996	0.000262648	-2.64913e-05	0.00289496	0.0525297	-0.00529827	0.578994	0	0	0	0	0.411938	-0.113702	-0.969059	33.6875	3	35669	3615502
451	-1.38723	0.813208	9.07129	-0.274929	-1.11201	0.505524	-0.0138552	0.00811937	0.0907167	0.999996	-0.000362333	0.000347619	0.00282926	-0.0724667	0.0695239	0.565852	0	0	0	0	0.405392	-0.114747	-0.961981	33.6875	3	35672	3615802
452	-0.181016	0.33898	11.0446	-0.0692082	0.0879188	2.57583	-0.00188212	0.00348106	0.110441	0.999996	-0.000460055	-0.00023853	0.00280486	-0.092011	-0.0477061	0.560973	0	0	0	0	0.406398	-0.119606	-0.963609	33.6875	3	35676	3616202
453	0.672271	0.163136	12.2155	0.0559573	0.875188	3.60855	0.0065783	0.00170104	0.122162	0.999996	-0.000128481	-0.000551789	0.0028794	-0.0256961	-0.110358	0.575881	0	0	0	0	0.392386	-0.125095	-0.95003	33.6875	3	35679	3616502
454	-0.40837	2.54251	10.7937	-2.64643	-1.66155	1.73326	-0.00419851	0.0254238	0.107933	0.999996	-0.000100296	0.000120007	0.00276738	-0.0200592	0.0240015	0.553477	0	0	0	0	0.397606	-0.131832	-0.95778	33.6875	3	35682	3616802
455	-0.0324678	0.323561	10.183	-0.307517	0.0483283	1.46906	-0.000441059	0.00331788	0.101827	0.999996	-0.00041443	-0.000481789	0.00278646	-0.0828861	-0.096358	0.557292	0	0	0	0	0.384487	-0.136796	-0.946718	33.6875	3	35686	3617202
456	-1.19868	2.73717	8.59412	-1.85629	-2.1179	-0.470134	-0.0121364	0.0272285	0.0859657	0.999996	0.000440355	2.01306e-05	0.00280249	0.088071	0.00402612	0.560498	0	0	0	0	0.385369	-0.14301	-0.954436	33.6875	3	35689	3617502
457	-1.43903	1.13142	7.93403	-0.203996	-1.39652	-0.930871	-0.0143385	0.0112523	0.0793585	0.999996	-0.000111671	0.000720543	0.0027702	-0.0223343	0.144109	0.554041	0	0	0	0	0.372873	-0.152901	-0.940962	33.6875	3	35692	3617802
458	-0.733034	1.49807	10.3474	-1.163	-1.29944	1.12639	-0.00735882	0.0149899	0.103471	0.999996	-0.000244437	0.000270608	0.00281882	-0.0488876	0.0541216	0.563764	0	0	0	0	0.368537	-0.159125	-0.945626	33.6875	3	35696	3618202
459	-1.46287	0.67147	9.32008	0.0252668	-1.21398	0.477618	-0.0145591	0.00669819	0.0932129	0.999996	-0.00035035	0.000575088	0.00280346	-0.0700702	0.115018	0.560693	0	0	0	0	0.371111	-0.172279	-0.94795	33.6875	3	35699	3618502
460	-0.595146	0.808917	9.41184	-1.01186	-0.572644	0.909491	-0.00599651	0.00806222	0.0941179	0.999996	-3.65419e-05	3.62016e-06	0.00283114	-0.0073084	0.000724033	0.566229	0	0	0	0	0.364066	-0.176681	-0.943975	33.6875	3	35702	3618802
461	-1.38339	1.66533	8.71628	-0.546994	-1.58631	-0.186406	-0.0138091	0.0165472	0.087187	0.999996	0.000164746	0.000676045	0.00280229	0.0329493	0.135209	0.560458	0	0	0	0	0.369848	-0.189745	-0.952878	33.6875	3	35706	3619202
462	0.237776	-0.294376	11.7872	0.474639	0.599122	2.7918	0.0022388	-0.00285889	0.117877	0.999996	-0.000304125	-0.000659669	0.00285225	-0.0608251	-0.131934	0.570451	0	0	0	0	0.357794	-0.194311	-0.937267	33.6875	3	35709	3619502
463	-1.79719	1.65224	9.61681	-1.02348	-2.34114	0.929125	-0.0180575	0.0164564	0.0961634	0.999996	-0.000188185	4.13213e-05	0.00283505	-0.0376371	0.00826427	0.567011	0	0	0	0	0.366702	-0.202408	-0.95264	33.6875	3	35712	3619802
464	-0.816231	-1.0701	9.14587	1.72815	0.245517	0.2384	-0.00798679	-0.0107668	0.0914665	0.999996	0.000111879	0.000630006	0.00280781	0.0223758	0.126001	0.561563	0	0	0	0	0.353328	-0.208497	-0.933016	33.6875	3	35716	3620202
465	-0.369581	1.15297	9.28792	-0.827726	-0.781879	0.126508	-0.00377054	0.0115126	0.0928784	0.999996	-1.90616e-05	-5.83243e-05	0.00277304	-0.00381233	-0.0116649	0.554609	0	0	0	0	0.353599	-0.209793	-0.942642	33.6875	3	35719	3620502
466	-0.66801	1.19907	10.4406	-1.05067	-0.876902	2.10819	-0.00686169	0.0120662	0.104386	0.999996	-0.000542341	-0.000548116	0.00279113	-0.108468	-0.109623	0.558226	0	0	0	0	0.345781	-0.210953	-0.92849	33.6875	3	35722	3620802
467	-0.748112	-0.166491	8.88995	0.720063	-0.305152	-0.0517497	-0.00750766	-0.00163561	0.0888978	0.999996	-0.000402074	-0.000201507	0.00281443	-0.0804149	-0.0403014	0.562887	0	0	0	0	0.340435	-0.212797	-0.932042	33.6875	3	35726	3621202
468	-0.771741	0.354788	8.3695	0.122954	-0.700623	-0.420661	-0.00777384	0.00354935	0.0836897	0.999996	-0.000266228	-0.00021919	0.00278169	-0.0532456	-0.043838	0.556338	0	0	0	0	0.338563	-0.215229	-0.931583	33.6875	3	35729	3621502
469	-0.566739	0.82969	9.52799	-0.549626	-0.381739	1.08781	-0.00563892	0.00832296	0.0952794	0.999996	-0.000301338	0.000391306	0.00277362	-0.0602676	0.0782614	0.554725	0	0	0	0	0.327152	-0.215232	-0.925974	33.6875	3	35732	3621802
470	-1.07758	1.40618	9.05853	-0.0363619	-1.5919	-0.012006	-0.0109509	0.0140477	0.0905665	0.999996	-0.000267937	-0.000519236	0.00288375	-0.0535875	-0.103847	0.576751	0	0	0	0	0.326517	-0.219934	-0.935672	33.6875	3	35736	3622202
471	-0.601967	-0.602283	10.1718	0.735836	0.405832	1.74464	-0.00593995	-0.00594173	0.101728	0.999996	-0.000564303	0.000226093	0.00281871	-0.112861	0.0452186	0.563743	0	0	0	0	0.312943	-0.220577	-0.920472	33.6875	3	35739	3622502
472	1.15325	0.198663	13.452	-1.0811	0.933151	5.25096	0.0112775	0.00217262	0.134539	0.999995	-0.00044781	-0.000903235	0.00287159	-0.0895622	-0.180647	0.574319	0	0	0	0	0.311275	-0.227629	-0.934762	33.6875	3	35742	3622802
473	-1.14266	1.2848	8.18657	0.407581	-1.34853	-0.87939	-0.0115249	0.0127744	0.0818635	0.999996	5.8981e-05	-0.000163682	0.00278816	0.0117962	-0.0327364	0.557632	0	0	0	0	0.301111	-0.23604	-0.923286	33.6875	3	35746	3623202
474	0.382736	1.21055	11.1566	-1.46457	-0.47924	2.20138	0.00376509	0.0121851	0.11156	0.999996	-0.000259896	3.14273e-05	0.00285222	-0.0519793	0.00628547	0.570445	0	0	0	0	0.298519	-0.240221	-0.933973	33.6875	3	35749	3623502
475	-1.90557	2.52256	8.51776	-0.610365	-3.68097	-0.795544	-0.0192244	0.0251534	0.0851611	0.999996	-0.00019498	-0.000175716	0.00275397	-0.0389961	-0.0351431	0.550795	0	0	0	0	0.29218	-0.247201	-0.922483	33.6875	3	35752	3623802
476	0.664892	0.463187	11.5486	-1.04778	0.121578	2.23939	0.00665519	0.00478598	0.115479	0.999996	-0.000506984	0.000140564	0.00278179	-0.101397	0.0281127	0.556359	0	0	0	0	0.285933	-0.251973	-0.92559	33.6875	3	35756	3624202
477	-2.31466	1.47065	8.89722	0.413322	-2.72662	-0.466676	-0.0232209	0.0146142	0.0889681	0.999996	-0.000190451	3.10432e-05	0.00272222	-0.0380903	0.00620865	0.544445	0	0	0	0	0.287065	-0.260778	-0.924781	33.6875	3	35759	3624502
478	-0.576494	0.763274	10.7156	-0.278634	-0.542393	2.08982	-0.00591742	0.00764389	0.107147	0.999996	-0.000205388	-0.000510973	0.00281327	-0.0410776	-0.102195	0.562654	0	0	0	0	0.277019	-0.259773	-0.921682	33.6875	3	35762	3624802
479	-0.480689	1.83849	9.88843	-0.914728	-1.78051	0.638803	-0.00498535	0.0183586	0.0988803	0.999996	-4.26347e-06	-0.000387389	0.00277173	-0.000852695	-0.0774779	0.554347	0	0	0	0	0.277638	-0.268069	-0.921869	33.6875	3	35766	3625202
480	-0.713293	2.46456	9.56972	-1.25986	-2.15319	0.38088	-0.00726562	0.0245709	0.0957064	0.999996	0.000182773	1.59845e-05	0.00275819	0.0365546	0.00319691	0.55164	0	0	0	0	0.266983	-0.269241	-0.905684	33.6875	3	35769	3625502
481	-1.00983	-1.15793	10.3542	1.02408	0.209182	1.08014	-0.0100326	-0.0115557	0.103551	0.999996	-0.000387436	2.82027e-06	0.0028132	-0.0774874	0.000564054	0.562641	0	0	0	0	0.268203	-0.273427	-0.917904	33.6875	3	35772	3625802
482	-1.60123	0.898898	8.85185	0.523641	-1.45861	-0.182423	-0.0160049	0.00894926	0.0885239	0.999996	-0.00029448	0.000332671	0.00286888	-0.058896	0.0665344	0.573777	0	0	0	0	0.25759	-0.272702	-0.898647	33.6875	3	35776	3626202
483	-0.785311	0.125775	8.71769	0.515374	-0.331832	-0.336327	-0.00784581	0.00123254	0.0871779	0.999996	-0.000108737	8.20739e-05	0.00281347	-0.0217475	0.0164148	0.562695	0	0	0	0	0.255497	-0.270635	-0.904147	33.6875	3	35779	3626502
484	-0.758143	0.327044	9.26523	0.320831	-0.574042	0.284128	-0.00763967	0.00317452	0.0926508	0.999996	0.000279929	-0.000213664	0.002894	0.0559858	-0.0427329	0.578801	0	0	0	0	0.246281	-0.275189	-0.890569	33.6875	3	35782	3626802
485	-0.403949	0.908533	10.4695	-0.524407	-0.825345	1.47238	-0.00414142	0.00913304	0.104687	0.999996	-0.000340902	-0.000235126	0.00289246	-0.0681805	-0.0470252	0.578493	0	0	0	0	0.235746	-0.272246	-0.886415	33.6875	3	35786	3627202
486	-1.09011	1.19929	10.2391	-0.309062	-1.75606	0.924356	-0.010943	0.0118975	0.102398	0.999996	0.000160166	0.000129091	0.00286253	0.0320331	0.0258183	0.572506	0	0	0	0	0.232491	-0.280492	-0.887593	33.6875	3	35789	3627502
487	-0.491601	0.0874791	10.0055	-0.0768784	-0.280551	0.976098	-0.00498527	0.000849187	0.100052	0.999996	-1.64674e-05	-0.000320941	0.00291874	-0.00329349	-0.0641884	0.583749	0	0	0	0	0.222471	-0.275169	-0.880358	33.6875	3	35792	3627802
488	-3.00075	1.33546	8.02843	1.52875	-2.21903	-1.03588	-0.0299488	0.0131023	0.0803478	0.999996	0.00052955	0.00082457	0.00278823	0.10591	0.164914	0.557646	0	0	0	0	0.218627	-0.285742	-0.887646	33.6875	3	35796	3628202
489	-0.810901	1.2266	9.47978	-0.226848	-1.08677	0.185218	-0.00822753	0.012228	0.0947925	0.999996	-5.77179e-05	-0.000238202	0.00299496	-0.0115436	-0.0476405	0.598992	0	0	0	0	0.20551	-0.284925	-0.872415	33.6875	3	35799	3628502
490	0.35844	1.08803	10.5366	-1.10575	-0.938388	1.51804	0.00355049	0.0109908	0.105356	0.999995	-0.000423182	0.000149598	0.00299171	-0.0846365	0.0299197	0.598343	0	0	0	0	0.206264	-0.294418	-0.887782	33.6875	3	35802	3628802
491	-0.769929	-0.712429	10.2187	0.280897	0.46938	1.82446	-0.00780102	-0.00702581	0.102186	0.999995	-0.000709719	-0.000705793	0.00300432	-0.141944	-0.141159	0.600865	0	0	0	0	0.197047	-0.297526	-0.873161	33.6875	3	35806	3629202
492	-1.30311	1.49196	9.9637	-0.202887	-2.03139	1.24566	-0.0131276	0.0149269	0.0996232	0.999995	-0.000427252	-3.88395e-05	0.0029739	-0.0854505	-0.0077679	0.594782	0	0	0	0	0.197356	-0.297404	-0.880231	33.6875	3	35809	3629502
493	-0.243788	0.848675	11.1068	-0.821866	-0.701609	2.57934	-0.00261476	0.0085191	0.111061	0.999995	-0.0002161	-0.000559107	0.00309767	-0.04322	-0.111822	0.619536	0	0	0	0	0.190422	-0.300441	-0.87067	33.6875	3	35812	3629802
494	-1.60804	1.82052	8.80824	0.355372	-2.13913	-0.212206	-0.016165	0.0180411	0.0881007	0.999996	0.000391598	0.000127123	0.00295022	0.0783197	0.0254247	0.590046	0	0	0	0	0.184657	-0.297991	-0.868569	33.6875	3	35816	3630202
495	-0.0800465	1.06831	9.55851	-0.901532	-1.04476	0.697601	-0.000845751	0.0107732	0.0955746	0.999995	-0.000497496	0.000102017	0.0030195	-0.0994994	0.0204034	0.603902	0	0	0	0	0.183755	-0.303809	-0.870209	33.6875	3	35819	3630502
496	-0.641077	0.176579	9.29658	-0.0981535	-0.387825	0.843427	-0.0064319	0.0017983	0.0929637	0.999995	-0.000381161	-5.64188e-05	0.00298727	-0.0762323	-0.0112838	0.597456	0	0	0	0	0.178131	-0.298088	-0.859955	33.6875	3	35822	3630802
497	-0.158074	1.81106	11.2298	-0.562478	-1.57706	1.76898	-0.00172774	0.0180921	0.112299	0.999995	3.77841e-05	-0.000166516	0.0030275	0.00755683	-0.0333033	0.605501	0	0	0	0	0.178123	-0.300491	-0.862028	33.6875	3	35826	3631202
498	-1.13522	1.83752	9.55964	0.23335	-2.40583	0.243729	-0.0114527	0.0183076	0.0955974	0.999995	-6.95942e-07	4.42515e-05	0.0029706	-0.000139189	0.00885032	0.594121	0	0	0	0	0.16877	-0.292416	-0.845139	33.6875	3	35829	3631502
499	0.027646	-0.299748	9.85252	-0.593701	0.407795	1.09458	0.000335584	-0.00292785	0.0985272	0.999995	-0.000343859	0.000207668	0.00307196	-0.068772	0.0415337	0.614394	0	0	0	0	0.166672	-0.293719	-0.853239	33.6875	3	35832	3631802
500	-1.20183	1.76883	10.0601	0.0923016	-2.43685	0.939379	-0.0122295	0.017739	0.100567	0.999995	-0.000608459	-0.000528197	0.00296019	-0.121692	-0.10564	0.592039	0	0	0	0	0.155586	-0.293478	-0.83399	33.6875	3	35836	3632202
501	-0.477198	0.0485075	10.7282	-0.0437318	-0.10107	1.77263	-0.00482645	0.000550377	0.10728	0.999995	-0.000440568	-0.000239173	0.00304501	-0.0881137	-0.0478347	0.609002	0	0	0	0	0.151513	-0.287981	-0.839405	33.6875	3	35839	3632502
502	-0.918322	0.246629	9.67057	0.533249	-0.686012	0.530093	-0.00916141	0.00245344	0.0967081	0.999995	-0.000220842	0.000189809	0.00302908	-0.0441684	0.0379619	0.605817	0	0	0	0	0.144963	-0.28517	-0.829716	33.6875	3	35842	3632802
503	0.963548	0.692922	11.4234	-1.87876	-0.657465	2.41001	0.00948087	0.00701722	0.114242	0.999995	-0.000133231	-0.000492901	0.00301083	-0.0266462	-0.0985803	0.602167	0	0	0	0	0.133877	-0.284581	-0.830157	33.6875	3	35846	3633202
504	0.0965926	1.18587	11.1489	-0.599445	-1.37691	1.84412	0.000858222	0.0119565	0.111479	0.999995	-0.000413217	-0.000153327	0.00308694	-0.0826436	-0.0306655	0.617388	0	0	0	0	0.132567	-0.29334	-0.83085	33.6875	3	35849	3633502
505	-0.414354	1.13785	9.43602	-0.188957	-1.03091	0.387476	-0.00426403	0.0113107	0.0943629	0.999995	0.000222061	-0.000268753	0.00307486	0.0444123	-0.0537506	0.614973	0	0	0	0	0.125788	-0.286988	-0.828153	33.6875	3	35852	3633802
506	-1.57086	1.11634	9.00063	0.926395	-1.64523	-0.296113	-0.0157598	0.011037	0.0900129	0.999995	0.000170993	9.10957e-05	0.0030414	0.0341987	0.0182192	0.60828	0	0	0	0	0.12625	-0.296134	-0.835429	33.6875	3	35856	3634202
507	-0.362866	0.351104	9.76838	-0.462181	-0.522165	0.614155	-0.00354965	0.0035344	0.0976858	0.999995	-0.000231886	0.000514653	0.00305661	-0.0463773	0.102931	0.611323	0	0	0	0	0.117817	-0.291409	-0.822659	33.6875	3	35859	3634502
508	-1.29092	1.03798	9.25481	0.544791	-1.23838	0.24215	-0.0129463	0.0103782	0.0925431	0.999995	-0.000412759	0.000137212	0.00301454	-0.0825519	0.0274424	0.60291	0	0	0	0	0.121504	-0.29566	-0.832366	33.6875	3	35862	3634802
509	-0.518086	1.99544	11.3492	-0.749307	-2.3615	2.84079	-0.00539565	0.0199942	0.113475	0.999995	-0.000315519	-0.000417448	0.00300505	-0.0631039	-0.0834897	0.60101	0	0	0	0	0.118347	-0.29434	-0.822726	33.6875	3	35866	3635202
510	-0.327696	0.679168	9.89263	-0.505387	-1.04009	1.25641	-0.00333582	0.0067556	0.0989268	0.999996	8.2838e-05	-9.35362e-05	0.00297851	0.0165676	-0.0187073	0.595703	0	0	0	0	0.118171	-0.290357	-0.827182	33.6875	3	35869	3635502
511	-0.863999	1.02129	8.92078	0.0561789	-1.04689	0.136332	-0.00859558	0.0101532	0.089219	0.999995	4.88037e-05	0.000586476	0.00295755	0.00976076	0.117295	0.591512	0	0	0	0	0.116082	-0.29105	-0.814562	33.6875	3	35872	3635802
512	-0.685956	0.982494	8.95196	0.112708	-1.29308	-0.311992	-0.00695787	0.00980693	0.089514	0.999995	-0.000129083	-0.000222809	0.00297559	-0.0258167	-0.0445619	0.595119	0	0	0	0	0.115403	-0.279818	-0.814814	33.6875	3	35876	3636202
513	-0.131033	1.17734	10.9952	-0.756934	-1.30259	2.12257	-0.00136089	0.0118496	0.109943	0.999995	-0.000383819	9.70362e-05	0.00304334	-0.076764	0.0194073	0.608669	0	0	0	0	0.112987	-0.285091	-0.81896	33.6875	3	35879	3636502
514	0.0900559	0.297087	10.7635	-0.852481	-0.766484	1.56395	0.000848995	0.00309198	0.107632	0.999995	-0.000538134	-0.000154701	0.00301198	-0.107627	-0.0309402	0.602397	0	0	0	0	0.112037	-0.274009	-0.810629	33.6875	3	35882	3636802
515	-0.608811	-0.569318	10.0506	-0.158859	0.635991	1.19484	-0.00606959	-0.00571304	0.100506	0.999996	-7.9409e-05	-7.50719e-05	0.00294643	-0.0158818	-0.0150144	0.589287	0	0	0	0	0.113357	-0.273931	-0.815684	33.6875	3	35886	3637202
516	0.227617	1.07358	10.8293	-0.854647	-1.51107	1.80942	0.00217194	0.0108102	0.108288	0.999995	-0.000280063	-0.000174501	0.00308316	-0.0560126	-0.0349003	0.616632	0	0	0	0	0.10826	-0.265838	-0.801844	33.6875	3	35889	3637502
517	-0.229596	0.907414	11.403	-0.479716	-1.45865	2.18187	-0.00245933	0.00916489	0.114019	0.999995	-0.000461245	-0.000473456	0.00303717	-0.0922492	-0.0946914	0.607435	0	0	0	0	0.10759	-0.267623	-0.810971	33.6875	3	35892	3637802
518	-0.579707	0.00388639	9.45921	0.297132	-0.393256	0.163478	-0.00588688	0.000119936	0.0945865	0.999995	-0.000617297	-0.000472138	0.00305614	-0.12346	-0.0944277	0.611228	0	0	0	0	0.100958	-0.262825	-0.803258	33.6875	3	35896	3638202
519	-0.495004	2.6583	10.3013	-0.0553275	-2.6429	1.16008	-0.00501695	0.0265666	0.103014	0.999995	-6.61436e-05	0.00045107	0.00300734	-0.0132287	0.0902141	0.601468	0	0	0	0	0.101731	-0.264621	-0.812393	33.6875	3	35899	3638502
520	-0.464365	-0.793163	10.914	-0.306304	1.04478	1.84128	-0.00466307	-0.00789814	0.109142	0.999995	-0.000282916	-0.000309136	0.00303616	-0.0565832	-0.0618273	0.607233	0	0	0	0	0.099431	-0.268052	-0.810438	33.6875	3	35902	3638802
521	0.185893	1.99466	11.7681	-0.775464	-2.31963	2.50916	0.00166921	0.0200412	0.117668	0.999995	-0.000355867	-0.000288587	0.00304605	-0.0711735	-0.0577175	0.609211	0	0	0	0	0.101216	-0.265557	-0.814431	33.6875	3	35906	3639202
522	-0.254887	-0.118386	9.86379	0.0545871	-0.00363631	0.24736	-0.00252451	-0.00119546	0.0986384	0.999996	-1.69552e-05	8.79817e-05	0.00294642	-0.00339105	0.0175964	0.589286	0	0	0	0	0.0978577	-0.275655	-0.821206	33.6875	3	35909	3639502
523	-1.34472	0.609647	8.97793	0.96323	-0.760929	-0.139099	-0.0133422	0.00603705	0.089799	0.999995	-0.000110399	0.00078434	0.00295816	-0.0220799	0.156868	0.591633	0	0	0	0	0.100061	-0.264926	-0.821988	33.6875	3	35912	3639802
524	-0.310601	0.0192621	9.04765	-0.197485	-0.199821	-0.186861	-0.00315338	0.000140327	0.090475	0.999995	0.000182437	-0.000256088	0.00308046	0.0364874	-0.0512177	0.616093	0	0	0	0	0.0988864	-0.273436	-0.836818	33.6875	3	35916	3640202
522	-1.03477	1.21112	9.07602	0.321216	-1.41675	0.360318	-0.0103535	0.0121298	0.0907571	0.999995	-0.00045617	0.000382246	0.00309951	-0.0912342	0.0764494	0.619903	0	0	0	0	0.100414	-0.266764	-0.828596	33.6875	3	35919	3640502
526	0.283127	2.65934	10.2934	-0.100339	-2.71711	0.617077	0.00252441	0.0266359	0.102931	0.999995	-0.000126677	-0.000697353	0.0030678	-0.0253354	-0.139471	0.613561	0	0	0	0	0.10105	-0.271352	-0.845368	33.6875	3	35922	3640802
527	0.421652	0.589024	11.2134	-0.811734	-1.93077	1.9499	0.00415296	0.00597999	0.112131	0.999995	-0.000280707	-0.000114	0.00320128	-0.0561414	-0.0227999	0.640257	0	0	0	0	0.09867	-0.268459	-0.842262	33.6875	3	35926	3641202
528	0.459434	1.90787	10.7866	-0.72276	-2.33589	1.48826	0.00446408	0.0191276	0.107863	0.999995	-9.29819e-05	-4.00043e-05	0.00318363	-0.0185964	-0.00800088	0.636728	0	0	0	0	0.101214	-0.261004	-0.8512	33.6875	3	35929	3641502
529	-1.04165	0.710052	10.0935	0.362404	-0.773763	0.839262	-0.0103479	0.00712813	0.100941	0.999995	-0.000458072	0.000559874	0.00312393	-0.0916147	0.111975	0.624787	0	0	0	0	0.0959791	-0.260039	-0.848124	33.6875	3	35932	3641802
530	-0.723536	1.76737	8.36676	0.373137	-2.36864	-0.643617	-0.00727909	0.017587	0.0836821	0.999995	0.000246962	0.000396354	0.00312127	0.0493924	0.079271	0.624255	0	0	0	0	0.098573	-0.24973	-0.852957	33.6875	3	35936	3642202
531	0.236196	2.33989	11.3584	-0.733701	-3.17899	2.37441	0.00209346	0.0234642	0.113576	0.999995	-0.000226676	-0.000544672	0.00308923	-0.0453354	-0.108935	0.617847	0	0	0	0	0.091214	-0.257276	-0.864202	33.6875	3	35939	3642502
532	0.110414	0.625994	11.7698	-0.604507	-1.64072	2.62159	0.00110635	0.00629599	0.117696	0.999996	-0.000125524	0.000166288	0.0029415	-0.0251048	0.0332576	0.588301	0	0	0	0	0.0933812	-0.243629	-0.864414	33.6875	3	35942	3642802
533	0.0694379	1.72774	9.57834	-0.22689	-2.22764	0.307142	0.000532523	0.01734	0.0957731	0.999996	-0.000308676	-0.000323602	0.00288489	-0.0617352	-0.0647204	0.576979	0	0	0	0	0.0820836	-0.248668	-0.877605	33.6875	3	35946	3643202
534	0.200663	1.54645	11.1208	-0.42924	-2.01202	1.91449	0.00179127	0.0155405	0.111201	0.999996	-0.000294668	-0.000581936	0.0027714	-0.0589337	-0.116387	0.554282	0	0	0	0	0.0811512	-0.245309	-0.873991	33.6875	3	35949	3643502
535	-0.0323553	0.485399	10.2026	-0.78886	-1.01343	1.4608	-0.000380345	0.00487826	0.102024	0.999996	-0.000128366	-0.000147592	0.00274099	-0.0256733	-0.0295184	0.5482	0	0	0	0	0.0778636	-0.251256	-0.894815	33.6875	3	35952	3643802
536	-0.0889614	2.40324	10.17	0.359564	-2.97561	1.17329	-0.000870457	0.0240671	0.101692	0.999996	-0.000192235	0.000690832	0.00252294	-0.0384471	0.138167	0.504589	0	0	0	0	0.070617	-0.254548	-0.898391	33.6875	3	35956	3644202
537	-1.11503	0.899722	9.6041	0.706487	-1.40935	0.379192	-0.0111916	0.00898983	0.0960369	0.999997	-0.000235735	6.11974e-06	0.00235761	-0.0471471	0.00122395	0.471522	0	0	0	0	0.0731018	-0.250905	-0.912463	33.6875	3	35959	3644502
538	-0.1414	0.440929	10.1943	-0.287622	-1.19586	1.25001	-0.00149775	0.00442155	0.101941	0.999997	-9.40011e-05	-0.000308241	0.00236813	-0.0188002	-0.0616482	0.473627	0	0	0	0	0.0645385	-0.256686	-0.912552	33.6875	3	35962	3644802
539	0.150879	0.301302	10.0552	-1.06837	-0.956941	1.3252	0.0013716	0.00310545	0.100551	0.999997	-0.000426692	-0.000612253	0.00229937	-0.0853384	-0.122451	0.459874	0	0	0	0	0.0648033	-0.251713	-0.917998	33.6875	3	35966	3645202
