frame_id,imu_idx,quat_w,quat_x,quat_y,quat_z,accel_x,accel_y,accel_z,free_accel_x,free_accel_y,free_accel_z,delta_v_x,delta_v_y,delta_v_z,delta_q_w,delta_q_x,delta_q_y,delta_q_z,rate_x,rate_y,rate_z,quat_w,quat_x,quat_y,quat_z,mag_x,mag_y,mag_z,temperature,status_byte,packet_counter,time_fine
100,1,0.999466,0.00485763,0.0322484,0.00221908,-0.658977,-0.0509531,9.79318,0.111027,-0.644509,1.01444,-0.00659265,-0.000517802,0.0979316,1,4.11365e-05,-1.47877e-05,1.62458e-05,0.0082273,-0.00295755,0.00324917,0.999466,0.00485763,0.0322484,0.00221908,-0.00188536,0.476372,-1.03282,32.875,3,3214,371574
100,2,0.999466,0.00485763,0.0322484,0.00221908,-0.48599,-0.0452086,7.35054,0.111027,-0.644509,1.01444,-0.00486297,-0.000457129,0.0735052,1,3.26875e-05,-2.10851e-05,2.44007e-05,0.00653751,-0.00421701,0.00488015,0.999466,0.00485763,0.0322484,0.00221908,-0.00268768,0.474818,-1.0273,32.875,1,3215,373125
100,3,0.999466,0.00485763,0.0322484,0.00221908,-0.48599,-0.0452086,7.35054,0.111027,-0.644509,1.01444,-0.00486297,-0.000457129,0.0735052,1,3.26875e-05,-2.10851e-05,2.44007e-05,0.00653751,-0.00421701,0.00488015,0.999466,0.00485763,0.0322484,0.00221908,-0.00268768,0.474818,-1.0273,32.875,1,3215,373125
100,4,0.999466,0.00485763,0.0322484,0.00221908,-0.48599,-0.0452086,7.35054,0.111027,-0.644509,1.01444,-0.00486297,-0.000457129,0.0735052,1,3.26875e-05,-2.10851e-05,2.44007e-05,0.00653751,-0.00421701,0.00488015,0.999466,0.00485763,0.0322484,0.00221908,-0.00268768,0.474818,-1.0273,32.875,1,3215,373125
1,1,0.99945,-0.00306392,0.0330104,-9.18618e-05,-0.665145,-0.0506946,9.78814,0.120282,-0.452906,1.02191,-0.00665427,-0.000514287,0.0978812,1,3.66959e-05,-1.44935e-05,1.17773e-05,0.00733919,-0.00289869,0.00235547,0.99945,-0.00306392,0.0330104,-9.18618e-05,-0.0017658,0.477249,-1.02725,32.875,1,3216,373225
1,2,0.99945,-0.00306392,0.0330104,-9.18618e-05,-0.665145,-0.0506946,9.78814,0.120282,-0.452906,1.02191,-0.00665427,-0.000514287,0.0978812,1,3.66959e-05,-1.44935e-05,1.17773e-05,0.00733919,-0.00289869,0.00235547,0.99945,-0.00306392,0.0330104,-9.18618e-05,-0.0017658,0.477249,-1.02725,32.875,1,3216,373225
1,3,0.99945,-0.00306392,0.0330104,-9.18618e-05,-0.665145,-0.0506946,9.78814,0.120282,-0.452906,1.02191,-0.00665427,-0.000514287,0.0978812,1,3.66959e-05,-1.44935e-05,1.17773e-05,0.00733919,-0.00289869,0.00235547,0.99945,-0.00306392,0.0330104,-9.18618e-05,-0.0017658,0.477249,-1.02725,32.875,1,3216,373225
1,4,0.99945,-0.00305864,0.0330071,-7.16003e-05,-0.660449,-0.0596998,9.78497,0.121642,-0.463043,1.01801,-0.00660604,-0.00060069,0.0978496,1,1.80789e-05,-7.99999e-06,1.16341e-05,0.00361577,-0.0016,0.00232681,0.99945,-0.00305864,0.0330071,-7.16003e-05,-0.000910331,0.477801,-1.03128,32.875,1,3217,373325
1,5,0.99945,-0.00305864,0.0330071,-7.16003e-05,-0.660449,-0.0596998,9.78497,0.121642,-0.463043,1.01801,-0.00660604,-0.00060069,0.0978496,1,1.80789e-05,-7.99999e-06,1.16341e-05,0.00361577,-0.0016,0.00232681,0.99945,-0.00305864,0.0330071,-7.16003e-05,-0.000910331,0.477801,-1.03128,32.875,1,3217,373325
1,6,0.99945,-0.00305864,0.0330071,-7.16003e-05,-0.660449,-0.0596998,9.78497,0.121642,-0.463043,1.01801,-0.00660604,-0.00060069,0.0978496,1,1.80789e-05,-7.99999e-06,1.16341e-05,0.00361577,-0.0016,0.00232681,0.99945,-0.00305864,0.0330071,-7.16003e-05,-0.000910331,0.477801,-1.03128,32.875,1,3217,373325
2,1,0.999451,-0.00301956,0.0329901,-5.79925e-05,-0.667423,-0.0510842,9.79765,0.114517,-0.458728,1.03426,-0.00667755,-0.000518569,0.0979763,1,3.84022e-05,-1.69948e-05,1.51768e-05,0.00768044,-0.00339895,0.00303535,0.999451,-0.00301956,0.0329901,-5.79925e-05,-0.00290547,0.475459,-1.03587,32.875,1,3218,373425
2,2,0.999451,-0.00301956,0.0329901,-5.79925e-05,-0.667423,-0.0510842,9.79765,0.114517,-0.458728,1.03426,-0.00667755,-0.000518569,0.0979763,1,3.84022e-05,-1.69948e-05,1.51768e-05,0.00768044,-0.00339895,0.00303535,0.999451,-0.00301956,0.0329901,-5.79925e-05,-0.00290547,0.475459,-1.03587,32.875,1,3218,373425
2,3,0.999451,-0.00301956,0.0329901,-5.79925e-05,-0.667423,-0.0510842,9.79765,0.114517,-0.458728,1.03426,-0.00667755,-0.000518569,0.0979763,1,3.84022e-05,-1.69948e-05,1.51768e-05,0.00768044,-0.00339895,0.00303535,0.999451,-0.00301956,0.0329901,-5.79925e-05,-0.00290547,0.475459,-1.03587,32.875,1,3218,373425
2,4,0.999451,-0.00298014,0.0329935,-5.17216e-05,-0.66776,-0.0478685,9.7841,0.117316,-0.45171,1.02017,-0.00667666,-0.000486505,0.097841,1,3.93223e-05,4.76647e-06,9.44161e-06,0.00786447,0.000953293,0.00188832,0.999451,-0.00298014,0.0329935,-5.17216e-05,-0.00329262,0.473467,-1.03339,32.875,1,3219,373525
3,1,0.999451,-0.00298014,0.0329935,-5.17216e-05,-0.66776,-0.0478685,9.7841,0.117316,-0.45171,1.02017,-0.00667666,-0.000486505,0.097841,1,3.93223e-05,4.76647e-06,9.44161e-06,0.00786447,0.000953293,0.00188832,0.999451,-0.00298014,0.0329935,-5.17216e-05,-0.00329262,0.473467,-1.03339,32.875,1,3219,373525
3,2,0.999451,-0.00292935,0.032994,-4.37759e-05,-0.655112,-0.0476987,9.78741,0.130337,-0.456022,1.03289,-0.00655103,-0.000486986,0.097874,1,5.04423e-05,4.00556e-07,9.53665e-06,0.0100885,8.01111e-05,0.00190733,0.999451,-0.00292935,0.032994,-4.37759e-05,-0.00173017,0.472886,-1.02886,32.875,1,3220,373625
3,3,0.999451,-0.00292935,0.032994,-4.37759e-05,-0.655112,-0.0476987,9.78741,0.130337,-0.456022,1.03289,-0.00655103,-0.000486986,0.097874,1,5.04423e-05,4.00556e-07,9.53665e-06,0.0100885,8.01111e-05,0.00190733,0.999451,-0.00292935,0.032994,-4.37759e-05,-0.00173017,0.472886,-1.02886,32.875,1,3220,373625
3,4,0.999451,-0.00292935,0.032994,-4.37759e-05,-0.655112,-0.0476987,9.78741,0.130337,-0.456022,1.03289,-0.00655103,-0.000486986,0.097874,1,5.04423e-05,4.00556e-07,9.53665e-06,0.0100885,8.01111e-05,0.00190733,0.999451,-0.00292935,0.032994,-4.37759e-05,-0.00173017,0.472886,-1.02886,32.875,1,3220,373625
3,5,0.999452,-0.00289556,0.0329888,-3.87878e-05,-0.670458,-0.0540307,9.77626,0.115461,-0.45787,1.01378,-0.00670561,-0.000546985,0.0977625,1,3.37399e-05,-5.26737e-06,6.0426e-06,0.00674799,-0.00105347,0.00120852,0.999452,-0.00289556,0.0329888,-3.87878e-05,-0.000171533,0.473271,-1.02381,32.875,1,3221,373725
3,6,0.999452,-0.00289556,0.0329888,-3.87878e-05,-0.670458,-0.0540307,9.77626,0.115461,-0.45787,1.01378,-0.00670561,-0.000546985,0.0977625,1,3.37399e-05,-5.26737e-06,6.0426e-06,0.00674799,-0.00105347,0.00120852,0.999452,-0.00289556,0.0329888,-3.87878e-05,-0.000171533,0.473271,-1.02381,32.875,1,3221,373725
12,1,0.999452,-0.00289556,0.0329888,-3.87878e-05,-0.670458,-0.0540307,9.77626,0.115461,-0.45787,1.01378,-0.00670561,-0.000546985,0.0977625,1,3.37399e-05,-5.26737e-06,6.0426e-06,0.00674799,-0.00105347,0.00120852,0.999452,-0.00289556,0.0329888,-3.87878e-05,-0.000171533,0.473271,-1.02381,32.875,1,3221,373725
12,2,0.999452,-0.00285423,0.0329776,-2.08754e-05,-0.660402,-0.0530348,9.78876,0.12235,-0.462864,1.02566,-0.00660622,-0.000538594,0.0978874,1,4.08199e-05,-1.13474e-05,1.92261e-05,0.00816398,-0.00226948,0.00384522,0.999452,-0.00285423,0.0329776,-2.08754e-05,-0.00115371,0.475221,-1.02326,32.875,1,3222,373825
12,3,0.999452,-0.00285423,0.0329776,-2.08754e-05,-0.660402,-0.0530348,9.78876,0.12235,-0.462864,1.02566,-0.00660622,-0.000538594,0.0978874,1,4.08199e-05,-1.13474e-05,1.92261e-05,0.00816398,-0.00226948,0.00384522,0.999452,-0.00285423,0.0329776,-2.08754e-05,-0.00115371,0.475221,-1.02326,32.875,1,3222,373825
12,4,0.999452,-0.00285423,0.0329776,-2.08754e-05,-0.660402,-0.0530348,9.78876,0.12235,-0.462864,1.02566,-0.00660622,-0.000538594,0.0978874,1,4.08199e-05,-1.13474e-05,1.92261e-05,0.00816398,-0.00226948,0.00384522,0.999452,-0.00285423,0.0329776,-2.08754e-05,-0.00115371,0.475221,-1.02326,32.875,1,3222,373825
12,5,0.999452,-0.00281098,0.032978,-3.77551e-06,-0.663105,-0.0420214,9.78038,0.118772,-0.449282,1.00869,-0.00663099,-0.000428821,0.0978038,1,4.27439e-05,2.29094e-07,1.85633e-05,0.00854879,4.58188e-05,0.00371266,0.999452,-0.00281098,0.032978,-3.77551e-06,-0.00133022,0.476314,-1.0298,32.875,1,3223,373925
12,6,0.999452,-0.00281098,0.032978,-3.77551e-06,-0.663105,-0.0420214,9.78038,0.118772,-0.449282,1.00869,-0.00663099,-0.000428821,0.0978038,1,4.27439e-05,2.29094e-07,1.85633e-05,0.00854879,4.58188e-05,0.00371266,0.999452,-0.00281098,0.032978,-3.77551e-06,-0.00133022,0.476314,-1.0298,32.875,1,3223,373925
10,1,0.999452,-0.00281098,0.032978,-3.77551e-06,-0.663105,-0.0420214,9.78038,0.118772,-0.449282,1.00869,-0.00663099,-0.000428821,0.0978038,1,4.27439e-05,2.29094e-07,1.85633e-05,0.00854879,4.58188e-05,0.00371266,0.999452,-0.00281098,0.032978,-3.77551e-06,-0.00133022,0.476314,-1.0298,32.875,1,3223,373925
10,2,0.999453,-0.0027867,0.0329675,1.18911e-05,-0.669492,-0.0668761,9.78565,0.114876,-0.471141,1.01718,-0.006697,-0.000673662,0.0978563,1,2.39202e-05,-1.07306e-05,1.64117e-05,0.00478403,-0.00214613,0.00328235,0.999453,-0.0027867,0.0329675,1.18911e-05,-0.00192663,0.475921,-1.03485,32.875,1,3224,374025
10,3,0.999453,-0.0027867,0.0329675,1.18911e-05,-0.669492,-0.0668761,9.78565,0.114876,-0.471141,1.01718,-0.006697,-0.000673662,0.0978563,1,2.39202e-05,-1.07306e-05,1.64117e-05,0.00478403,-0.00214613,0.00328235,0.999453,-0.0027867,0.0329675,1.18911e-05,-0.00192663,0.475921,-1.03485,32.875,1,3224,374025
10,4,0.999453,-0.0027867,0.0329675,1.18911e-05,-0.669492,-0.0668761,9.78565,0.114876,-0.471141,1.01718,-0.006697,-0.000673662,0.0978563,1,2.39202e-05,-1.07306e-05,1.64117e-05,0.00478403,-0.00214613,0.00328235,0.999453,-0.0027867,0.0329675,1.18911e-05,-0.00192663,0.475921,-1.03485,32.875,1,3224,374025
14,1,0.999453,-0.00275037,0.032944,3.09552e-05,-0.661123,-0.0386431,9.78619,0.122595,-0.451866,1.01944,-0.00661586,-0.000393607,0.0978615,1,3.53101e-05,-2.3745e-05,2.00496e-05,0.00706202,-0.00474901,0.00400991,0.999453,-0.00275037,0.032944,3.09552e-05,-0.00323566,0.471498,-1.03242,32.875,1,3225,374125
14,2,0.999453,-0.00275037,0.032944,3.09552e-05,-0.661123,-0.0386431,9.78619,0.122595,-0.451866,1.01944,-0.00661586,-0.000393607,0.0978615,1,3.53101e-05,-2.3745e-05,2.00496e-05,0.00706202,-0.00474901,0.00400991,0.999453,-0.00275037,0.032944,3.09552e-05,-0.00323566,0.471498,-1.03242,32.875,1,3225,374125
14,3,0.999453,-0.00275037,0.032944,3.09552e-05,-0.661123,-0.0386431,9.78619,0.122595,-0.451866,1.01944,-0.00661586,-0.000393607,0.0978615,1,3.53101e-05,-2.3745e-05,2.00496e-05,0.00706202,-0.00474901,0.00400991,0.999453,-0.00275037,0.032944,3.09552e-05,-0.00323566,0.471498,-1.03242,32.875,1,3225,374125
14,4,0.999453,-0.00271447,0.0329495,4.70435e-05,-0.66839,-0.0490139,9.79529,0.119344,-0.459678,1.03591,-0.00668285,-0.000497178,0.0979529,1,3.47495e-05,5.26199e-06,1.73022e-05,0.0069499,0.0010524,0.00346043,0.999453,-0.00271447,0.0329495,4.70435e-05,-0.00313743,0.46998,-1.02942,32.875,1,3226,374225
14,5,0.999453,-0.00271447,0.0329495,4.70435e-05,-0.66839,-0.0490139,9.79529,0.119344,-0.459678,1.03591,-0.00668285,-0.000497178,0.0979529,1,3.47495e-05,5.26199e-06,1.73022e-05,0.0069499,0.0010524,0.00346043,0.999453,-0.00271447,0.0329495,4.70435e-05,-0.00313743,0.46998,-1.02942,32.875,1,3226,374225
14,6,0.999453,-0.00271447,0.0329495,4.70435e-05,-0.66839,-0.0490139,9.79529,0.119344,-0.459678,1.03591,-0.00668285,-0.000497178,0.0979529,1,3.47495e-05,5.26199e-06,1.73022e-05,0.0069499,0.0010524,0.00346043,0.999453,-0.00271447,0.0329495,4.70435e-05,-0.00313743,0.46998,-1.02942,32.875,1,3226,374225
15,1,0.999454,-0.00267149,0.0329376,5.6462e-05,-0.676065,-0.0565157,9.78103,0.106931,-0.463527,1.0189,-0.00676301,-0.000573574,0.0978101,1,4.22764e-05,-1.21056e-05,1.07959e-05,0.00845529,-0.00242111,0.00215918,0.999454,-0.00267149,0.0329376,5.6462e-05,-0.00121585,0.473821,-1.02682,32.875,1,3227,374325
15,2,0.999454,-0.00267149,0.0329376,5.6462e-05,-0.676065,-0.0565157,9.78103,0.106931,-0.463527,1.0189,-0.00676301,-0.000573574,0.0978101,1,4.22764e-05,-1.21056e-05,1.07959e-05,0.00845529,-0.00242111,0.00215918,0.999454,-0.00267149,0.0329376,5.6462e-05,-0.00121585,0.473821,-1.02682,32.875,1,3227,374325
15,3,0.999454,-0.00267149,0.0329376,5.6462e-05,-0.676065,-0.0565157,9.78103,0.106931,-0.463527,1.0189,-0.00676301,-0.000573574,0.0978101,1,4.22764e-05,-1.21056e-05,1.07959e-05,0.00845529,-0.00242111,0.00215918,0.999454,-0.00267149,0.0329376,5.6462e-05,-0.00121585,0.473821,-1.02682,32.875,1,3227,374325
15,4,0.999454,-0.00262614,0.0329395,6.17628e-05,-0.659844,-0.0536,9.78977,0.123185,-0.464891,1.02718,-0.00659814,-0.00054491,0.0978976,1,4.50183e-05,1.50528e-06,7.20285e-06,0.00900366,0.000301056,0.00144057,0.999454,-0.00262614,0.0329395,6.17628e-05,-0.000815906,0.47725,-1.02776,32.875,1,3228,374425
16,1,0.999454,-0.00262614,0.0329395,6.17628e-05,-0.659844,-0.0536,9.78977,0.123185,-0.464891,1.02718,-0.00659814,-0.00054491,0.0978976,1,4.50183e-05,1.50528e-06,7.20285e-06,0.00900366,0.000301056,0.00144057,0.999454,-0.00262614,0.0329395,6.17628e-05,-0.000815906,0.47725,-1.02776,32.875,1,3228,374425
16,2,0.999454,-0.00262614,0.0329395,6.17628e-05,-0.659844,-0.0536,9.78977,0.123185,-0.464891,1.02718,-0.00659814,-0.00054491,0.0978976,1,4.50183e-05,1.50528e-06,7.20285e-06,0.00900366,0.000301056,0.00144057,0.999454,-0.00262614,0.0329395,6.17628e-05,-0.000815906,0.47725,-1.02776,32.875,1,3228,374425
16,3,0.999454,-0.00257579,0.0329401,7.85982e-05,-0.666713,-0.0494971,9.7851,0.116824,-0.464764,1.0146,-0.00666709,-0.000504938,0.0978509,1,4.96953e-05,1.15303e-07,1.81237e-05,0.00993907,2.30606e-05,0.00362474,0.999454,-0.00257579,0.0329401,7.85982e-05,0.000561042,0.475359,-1.03185,32.875,1,3229,374525
16,4,0.999454,-0.00257579,0.0329401,7.85982e-05,-0.666713,-0.0494971,9.7851,0.116824,-0.464764,1.0146,-0.00666709,-0.000504938,0.0978509,1,4.96953e-05,1.15303e-07,1.81237e-05,0.00993907,2.30606e-05,0.00362474,0.999454,-0.00257579,0.0329401,7.85982e-05,0.000561042,0.475359,-1.03185,32.875,1,3229,374525
17,1,0.999454,-0.00257579,0.0329401,7.85982e-05,-0.666713,-0.0494971,9.7851,0.116824,-0.464764,1.0146,-0.00666709,-0.000504938,0.0978509,1,4.96953e-05,1.15303e-07,1.81237e-05,0.00993907,2.30606e-05,0.00362474,0.999454,-0.00257579,0.0329401,7.85982e-05,0.000561042,0.475359,-1.03185,32.875,1,3229,374525
17,2,0.999454,-0.00253254,0.0329327,8.99489e-05,-0.65673,-0.0492048,9.79317,0.124934,-0.467082,1.02624,-0.00656883,-0.00050056,0.0979316,1,4.25893e-05,-7.92373e-06,1.29492e-05,0.00851787,-0.00158475,0.00258984,0.999454,-0.00253254,0.0329327,8.99489e-05,3.86499e-05,0.474911,-1.03387,32.875,1,3230,374625
17,3,0.999454,-0.00253254,0.0329327,8.99489e-05,-0.65673,-0.0492048,9.79317,0.124934,-0.467082,1.02624,-0.00656883,-0.00050056,0.0979316,1,4.25893e-05,-7.92373e-06,1.29492e-05,0.00851787,-0.00158475,0.00258984,0.999454,-0.00253254,0.0329327,8.99489e-05,3.86499e-05,0.474911,-1.03387,32.875,1,3230,374625
17,4,0.999454,-0.00253254,0.0329327,8.99489e-05,-0.65673,-0.0492048,9.79317,0.124934,-0.467082,1.02624,-0.00656883,-0.00050056,0.0979316,1,4.25893e-05,-7.92373e-06,1.29492e-05,0.00851787,-0.00158475,0.00258984,0.999454,-0.00253254,0.0329327,8.99489e-05,3.86499e-05,0.474911,-1.03387,32.875,1,3230,374625
18,1,0.999454,-0.00248989,0.0329362,0.000108479,-0.665375,-0.0512827,9.78168,0.116758,-0.464388,1.01694,-0.00665311,-0.000521227,0.0978168,1,4.15724e-05,3.19821e-06,2.00551e-05,0.00831448,0.000639641,0.00401102,0.999454,-0.00248989,0.0329362,0.000108479,-0.000829618,0.472923,-1.03139,32.875,1,3231,374725
18,2,0.999454,-0.00248989,0.0329362,0.000108479,-0.665375,-0.0512827,9.78168,0.116758,-0.464388,1.01694,-0.00665311,-0.000521227,0.0978168,1,4.15724e-05,3.19821e-06,2.00551e-05,0.00831448,0.000639641,0.00401102,0.999454,-0.00248989,0.0329362,0.000108479,-0.000829618,0.472923,-1.03139,32.875,1,3231,374725
18,3,0.999454,-0.00248989,0.0329362,0.000108479,-0.665375,-0.0512827,9.78168,0.116758,-0.464388,1.01694,-0.00665311,-0.000521227,0.0978168,1,4.15724e-05,3.19821e-06,2.00551e-05,0.00831448,0.000639641,0.00401102,0.999454,-0.00248989,0.0329362,0.000108479,-0.000829618,0.472923,-1.03139,32.875,1,3231,374725
18,4,0.999454,-0.00246103,0.0329335,0.000107586,-0.664428,-0.0662835,9.79953,0.126241,-0.480302,1.03678,-0.00664489,-0.000668376,0.0979952,1,2.82712e-05,-3.09584e-06,3.17286e-08,0.00565425,-0.000619168,6.34573e-06,0.999454,-0.00246103,0.0329335,0.000107586,-0.00314885,0.47288,-1.02784,32.875,1,3232,374825
19,1,0.999454,-0.00246103,0.0329335,0.000107586,-0.664428,-0.0662835,9.79953,0.126241,-0.480302,1.03678,-0.00664489,-0.000668376,0.0979952,1,2.82712e-05,-3.09584e-06,3.17286e-08,0.00565425,-0.000619168,6.34573e-06,0.999454,-0.00246103,0.0329335,0.000107586,-0.00314885,0.47288,-1.02784,32.875,1,3232,374825
19,2,0.999454,-0.00246103,0.0329335,0.000107586,-0.664428,-0.0662835,9.79953,0.126241,-0.480302,1.03678,-0.00664489,-0.000668376,0.0979952,1,2.82712e-05,-3.09584e-06,3.17286e-08,0.00565425,-0.000619168,6.34573e-06,0.999454,-0.00246103,0.0329335,0.000107586,-0.00314885,0.47288,-1.02784,32.875,1,3232,374825
19,3,0.999455,-0.00242261,0.0329305,0.000112407,-0.670426,-0.0471551,9.77802,0.108994,-0.45957,1.01242,-0.00670493,-0.000479113,0.0977802,1,3.82625e-05,-3.46085e-06,5.95467e-06,0.00765249,-0.000692169,0.00119093,0.999455,-0.00242261,0.0329305,0.000112407,-0.00262174,0.475252,-1.02426,32.875,1,3233,374925
19,4,0.999455,-0.00242261,0.0329305,0.000112407,-0.670426,-0.0471551,9.77802,0.108994,-0.45957,1.01242,-0.00670493,-0.000479113,0.0977802,1,3.82625e-05,-3.46085e-06,5.95467e-06,0.00765249,-0.000692169,0.00119093,0.999455,-0.00242261,0.0329305,0.000112407,-0.00262174,0.475252,-1.02426,32.875,1,3233,374925
20,1,0.999455,-0.00242261,0.0329305,0.000112407,-0.670426,-0.0471551,9.77802,0.108994,-0.45957,1.01242,-0.00670493,-0.000479113,0.0977802,1,3.82625e-05,-3.46085e-06,5.95467e-06,0.00765249,-0.000692169,0.00119093,0.999455,-0.00242261,0.0329305,0.000112407,-0.00262174,0.475252,-1.02426,32.875,1,3233,374925
20,2,0.999455,-0.00239316,0.0329263,0.000135408,-0.666496,-0.0601068,9.79383,0.119391,-0.480619,1.02444,-0.00666587,-0.000606921,0.0979382,1,2.82657e-05,-4.83744e-06,2.38008e-05,0.00565313,-0.000967488,0.00476016,0.999455,-0.00239316,0.0329263,0.000135408,-0.000277374,0.476722,-1.02575,32.875,1,3234,375025
20,3,0.999455,-0.00239316,0.0329263,0.000135408,-0.666496,-0.0601068,9.79383,0.119391,-0.480619,1.02444,-0.00666587,-0.000606921,0.0979382,1,2.82657e-05,-4.83744e-06,2.38008e-05,0.00565313,-0.000967488,0.00476016,0.999455,-0.00239316,0.0329263,0.000135408,-0.000277374,0.476722,-1.02575,32.875,1,3234,375025
20,4,0.999455,-0.00239316,0.0329263,0.000135408,-0.666496,-0.0601068,9.79383,0.119391,-0.480619,1.02444,-0.00666587,-0.000606921,0.0979382,1,2.82657e-05,-4.83744e-06,2.38008e-05,0.00565313,-0.000967488,0.00476016,0.999455,-0.00239316,0.0329263,0.000135408,-0.000277374,0.476722,-1.02575,32.875,1,3234,375025
21,1,0.999455,-0.00236039,0.0329135,0.000147343,-0.678376,-0.0535756,9.79126,0.104531,-0.476843,1.02562,-0.00678637,-0.000542167,0.0979124,1,3.18606e-05,-1.33906e-05,1.26994e-05,0.00637212,-0.00267811,0.00253989,0.999455,-0.00236039,0.0329135,0.000147343,-0.00134636,0.47729,-1.02977,32.875,1,3235,375125
21,2,0.999455,-0.00236039,0.0329135,0.000147343,-0.678376,-0.0535756,9.79126,0.104531,-0.476843,1.02562,-0.00678637,-0.000542167,0.0979124,1,3.18606e-05,-1.33906e-05,1.26994e-05,0.00637212,-0.00267811,0.00253989,0.999455,-0.00236039,0.0329135,0.000147343,-0.00134636,0.47729,-1.02977,32.875,1,3235,375125
21,3,0.999455,-0.00236039,0.0329135,0.000147343,-0.678376,-0.0535756,9.79126,0.104531,-0.476843,1.02562,-0.00678637,-0.000542167,0.0979124,1,3.18606e-05,-1.33906e-05,1.26994e-05,0.00637212,-0.00267811,0.00253989,0.999455,-0.00236039,0.0329135,0.000147343,-0.00134636,0.47729,-1.02977,32.875,1,3235,375125
21,4,0.999456,-0.00232313,0.0329109,0.000171231,-0.66932,-0.0483672,9.7909,0.110682,-0.47044,1.02355,-0.00669381,-0.000490954,0.0979089,1,3.54593e-05,-3.24663e-06,2.52554e-05,0.00709186,-0.000649325,0.00505109,0.999456,-0.00232313,0.0329109,0.000171231,-0.00140424,0.476368,-1.03282,32.875,1,3236,375225
22,1,0.999456,-0.00232313,0.0329109,0.000171231,-0.66932,-0.0483672,9.7909,0.110682,-0.47044,1.02355,-0.00669381,-0.000490954,0.0979089,1,3.54593e-05,-3.24663e-06,2.52554e-05,0.00709186,-0.000649325,0.00505109,0.999456,-0.00232313,0.0329109,0.000171231,-0.00140424,0.476368,-1.03282,32.875,1,3236,375225
22,2,0.999456,-0.00232313,0.0329109,0.000171231,-0.66932,-0.0483672,9.7909,0.110682,-0.47044,1.02355,-0.00669381,-0.000490954,0.0979089,1,3.54593e-05,-3.24663e-06,2.52554e-05,0.00709186,-0.000649325,0.00505109,0.999456,-0.00232313,0.0329109,0.000171231,-0.00140424,0.476368,-1.03282,32.875,1,3236,375225
22,3,0.999456,-0.00230268,0.032899,0.000183324,-0.663146,-0.0453608,9.78648,0.12101,-0.462422,1.02166,-0.00663389,-0.000457661,0.0978646,1,1.98484e-05,-1.25059e-05,1.26417e-05,0.00396967,-0.00250117,0.00252833,0.999456,-0.00230268,0.032899,0.000183324,-0.00177145,0.472434,-1.03089,32.875,1,3237,375325
22,4,0.999456,-0.00230268,0.032899,0.000183324,-0.663146,-0.0453608,9.78648,0.12101,-0.462422,1.02166,-0.00663389,-0.000457661,0.0978646,1,1.98484e-05,-1.25059e-05,1.26417e-05,0.00396967,-0.00250117,0.00252833,0.999456,-0.00230268,0.032899,0.000183324,-0.00177145,0.472434,-1.03089,32.875,1,3237,375325
23,1,0.999456,-0.00230268,0.032899,0.000183324,-0.663146,-0.0453608,9.78648,0.12101,-0.462422,1.02166,-0.00663389,-0.000457661,0.0978646,1,1.98484e-05,-1.25059e-05,1.26417e-05,0.00396967,-0.00250117,0.00252833,0.999456,-0.00230268,0.032899,0.000183324,-0.00177145,0.472434,-1.03089,32.875,1,3237,375325
23,2,0.999457,-0.00227374,0.0328789,0.000177606,-0.666459,-0.0528739,9.78847,0.116249,-0.471591,1.02655,-0.00666863,-0.000534408,0.0978844,1,2.92735e-05,-2.06081e-05,-4.61011e-06,0.00585469,-0.00412162,-0.000922023,0.999457,-0.00227374,0.0328789,0.000177606,-0.00214626,0.470433,-1.0279,32.875,1,3238,375425
23,3,0.999457,-0.00227374,0.0328789,0.000177606,-0.666459,-0.0528739,9.78847,0.116249,-0.471591,1.02655,-0.00666863,-0.000534408,0.0978844,1,2.92735e-05,-2.06081e-05,-4.61011e-06,0.00585469,-0.00412162,-0.000922023,0.999457,-0.00227374,0.0328789,0.000177606,-0.00214626,0.470433,-1.0279,32.875,1,3238,375425
23,4,0.999457,-0.00227374,0.0328789,0.000177606,-0.666459,-0.0528739,9.78847,0.116249,-0.471591,1.02655,-0.00666863,-0.000534408,0.0978844,1,2.92735e-05,-2.06081e-05,-4.61011e-06,0.00585469,-0.00412162,-0.000922023,0.999457,-0.00227374,0.0328789,0.000177606,-0.00214626,0.470433,-1.0279,32.875,1,3238,375425
23,5,0.999457,-0.00223183,0.0328698,0.000187247,-0.66059,-0.0412844,9.77868,0.119044,-0.463378,1.01137,-0.00660782,-0.000421087,0.0977867,1,4.14067e-05,-9.84766e-06,1.09802e-05,0.00828133,-0.00196953,0.00219605,0.999457,-0.00223183,0.0328698,0.000187247,-0.00165616,0.472832,-1.02583,32.875,1,3239,375525
23,6,0.999457,-0.00223183,0.0328698,0.000187247,-0.66059,-0.0412844,9.77868,0.119044,-0.463378,1.01137,-0.00660782,-0.000421087,0.0977867,1,4.14067e-05,-9.84766e-06,1.09802e-05,0.00828133,-0.00196953,0.00219605,0.999457,-0.00223183,0.0328698,0.000187247,-0.00165616,0.472832,-1.02583,32.875,1,3239,375525
24,1,0.999457,-0.00223183,0.0328698,0.000187247,-0.66059,-0.0412844,9.77868,0.119044,-0.463378,1.01137,-0.00660782,-0.000421087,0.0977867,1,4.14067e-05,-9.84766e-06,1.09802e-05,0.00828133,-0.00196953,0.00219605,0.999457,-0.00223183,0.0328698,0.000187247,-0.00165616,0.472832,-1.02583,32.875,1,3239,375525
24,2,0.999457,-0.00217985,0.0328655,0.000191358,-0.658059,-0.0502142,9.79691,0.125283,-0.466228,1.02522,-0.00658156,-0.000512173,0.097969,1,5.07589e-05,-5.00313e-06,6.469e-06,0.0101518,-0.00100063,0.0012938,0.999457,-0.00217985,0.0328655,0.000191358,-0.00222651,0.476756,-1.02675,32.875,1,3240,375625
24,3,0.999457,-0.00217985,0.0328655,0.000191358,-0.658059,-0.0502142,9.79691,0.125283,-0.466228,1.02522,-0.00658156,-0.000512173,0.097969,1,5.07589e-05,-5.00313e-06,6.469e-06,0.0101518,-0.00100063,0.0012938,0.999457,-0.00217985,0.0328655,0.000191358,-0.00222651,0.476756,-1.02675,32.875,1,3240,375625
24,4,0.999457,-0.00217985,0.0328655,0.000191358,-0.658059,-0.0502142,9.79691,0.125283,-0.466228,1.02522,-0.00658156,-0.000512173,0.097969,1,5.07589e-05,-5.00313e-06,6.469e-06,0.0101518,-0.00100063,0.0012938,0.999457,-0.00217985,0.0328655,0.000191358,-0.00222651,0.476756,-1.02675,32.875,1,3240,375625
24,5,0.999458,-0.0021436,0.0328536,0.000198327,-0.664637,-0.0369281,9.7835,0.114696,-0.462527,1.01785,-0.0066489,-0.000376406,0.0978348,1,3.58633e-05,-1.29436e-05,8.09502e-06,0.00717267,-0.00258872,0.001619,0.999458,-0.0021436,0.0328536,0.000198327,-0.00138337,0.477317,-1.03129,32.875,1,3241,375725
24,6,0.999458,-0.0021436,0.0328536,0.000198327,-0.664637,-0.0369281,9.7835,0.114696,-0.462527,1.01785,-0.0066489,-0.000376406,0.0978348,1,3.58633e-05,-1.29436e-05,8.09502e-06,0.00717267,-0.00258872,0.001619,0.999458,-0.0021436,0.0328536,0.000198327,-0.00138337,0.477317,-1.03129,32.875,1,3241,375725
25,1,0.999458,-0.0021436,0.0328536,0.000198327,-0.664637,-0.0369281,9.7835,0.114696,-0.462527,1.01785,-0.0066489,-0.000376406,0.0978348,1,3.58633e-05,-1.29436e-05,8.09502e-06,0.00717267,-0.00258872,0.001619,0.999458,-0.0021436,0.0328536,0.000198327,-0.00138337,0.477317,-1.03129,32.875,1,3241,375725
25,2,0.999458,-0.0021096,0.0328457,0.000211035,-0.655538,-0.0605124,9.78291,0.125845,-0.489063,1.01658,-0.00655711,-0.000611883,0.0978289,1,3.36358e-05,-8.94076e-06,1.36118e-05,0.00672716,-0.00178815,0.00272236,0.999458,-0.0021096,0.0328457,0.000211035,-0.000454344,0.476369,-1.03333,32.875,1,3242,375825
25,3,0.999458,-0.0021096,0.0328457,0.000211035,-0.655538,-0.0605124,9.78291,0.125845,-0.489063,1.01658,-0.00655711,-0.000611883,0.0978289,1,3.36358e-05,-8.94076e-06,1.36118e-05,0.00672716,-0.00178815,0.00272236,0.999458,-0.0021096,0.0328457,0.000211035,-0.000454344,0.476369,-1.03333,32.875,1,3242,375825
25,4,0.999458,-0.0021096,0.0328457,0.000211035,-0.655538,-0.0605124,9.78291,0.125845,-0.489063,1.01658,-0.00655711,-0.000611883,0.0978289,1,3.36358e-05,-8.94076e-06,1.36118e-05,0.00672716,-0.00178815,0.00272236,0.999458,-0.0021096,0.0328457,0.000211035,-0.000454344,0.476369,-1.03333,32.875,1,3242,375825
25,5,0.999458,-0.00208774,0.0328401,0.000216806,-0.673441,-0.0526292,9.79055,0.109815,-0.48173,1.02729,-0.00673574,-0.000530615,0.0979054,1,2.16662e-05,-6.81553e-06,5.98481e-06,0.00433325,-0.00136311,0.00119696,0.999458,-0.00208774,0.0328401,0.000216806,-0.000838149,0.471965,-1.03242,32.875,1,3243,375925
25,6,0.999458,-0.00208774,0.0328401,0.000216806,-0.673441,-0.0526292,9.79055,0.109815,-0.48173,1.02729,-0.00673574,-0.000530615,0.0979054,1,2.16662e-05,-6.81553e-06,5.98481e-06,0.00433325,-0.00136311,0.00119696,0.999458,-0.00208774,0.0328401,0.000216806,-0.000838149,0.471965,-1.03242,32.875,1,3243,375925
26,1,0.999458,-0.00208774,0.0328401,0.000216806,-0.673441,-0.0526292,9.79055,0.109815,-0.48173,1.02729,-0.00673574,-0.000530615,0.0979054,1,2.16662e-05,-6.81553e-06,5.98481e-06,0.00433325,-0.00136311,0.00119696,0.999458,-0.00208774,0.0328401,0.000216806,-0.000838149,0.471965,-1.03242,32.875,1,3243,375925
26,2,0.999459,-0.00204898,0.0328259,0.000221066,-0.663676,-0.0548396,9.79455,0.1205,-0.48066,1.03252,-0.00663957,-0.000556036,0.0979452,1,3.8503e-05,-1.43736e-05,7.34225e-06,0.0077006,-0.00287473,0.00146845,0.999459,-0.00204898,0.0328259,0.000221066,-0.00171022,0.470944,-1.02941,32.875,1,3244,376025
26,3,0.999459,-0.00204898,0.0328259,0.000221066,-0.663676,-0.0548396,9.79455,0.1205,-0.48066,1.03252,-0.00663957,-0.000556036,0.0979452,1,3.8503e-05,-1.43736e-05,7.34225e-06,0.0077006,-0.00287473,0.00146845,0.999459,-0.00204898,0.0328259,0.000221066,-0.00171022,0.470944,-1.02941,32.875,1,3244,376025
26,4,0.999459,-0.00204898,0.0328259,0.000221066,-0.663676,-0.0548396,9.79455,0.1205,-0.48066,1.03252,-0.00663957,-0.000556036,0.0979452,1,3.8503e-05,-1.43736e-05,7.34225e-06,0.0077006,-0.00287473,0.00146845,0.999459,-0.00204898,0.0328259,0.000221066,-0.00171022,0.470944,-1.02941,32.875,1,3244,376025
27,1,0.99946,-0.00200266,0.0328061,0.000225385,-0.674829,-0.0615823,9.79117,0.111823,-0.485229,1.02694,-0.00675237,-0.000624931,0.0979114,1,4.61042e-05,-2.08579e-05,5.90273e-06,0.00922084,-0.00417158,0.00118055,0.99946,-0.00200266,0.0328061,0.000225385,-0.00162722,0.473292,-1.02431,32.875,1,3245,376125
27,2,0.99946,-0.00200266,0.0328061,0.000225385,-0.674829,-0.0615823,9.79117,0.111823,-0.485229,1.02694,-0.00675237,-0.000624931,0.0979114,1,4.61042e-05,-2.08579e-05,5.90273e-06,0.00922084,-0.00417158,0.00118055,0.99946,-0.00200266,0.0328061,0.000225385,-0.00162722,0.473292,-1.02431,32.875,1,3245,376125
27,3,0.99946,-0.00200266,0.0328061,0.000225385,-0.674829,-0.0615823,9.79117,0.111823,-0.485229,1.02694,-0.00675237,-0.000624931,0.0979114,1,4.61042e-05,-2.08579e-05,5.90273e-06,0.00922084,-0.00417158,0.00118055,0.99946,-0.00200266,0.0328061,0.000225385,-0.00162722,0.473292,-1.02431,32.875,1,3245,376125
27,4,0.99946,-0.00194768,0.0327942,0.000230587,-0.667112,-0.0594575,9.79249,0.111236,-0.4815,1.02399,-0.00667372,-0.000605458,0.0979246,1,5.51026e-05,-1.32979e-05,6.81349e-06,0.0110205,-0.00265958,0.0013627,0.99946,-0.00194768,0.0327942,0.000230587,-0.00173306,0.476743,-1.02625,32.875,1,3246,376225
27,5,0.99946,-0.00194768,0.0327942,0.000230587,-0.667112,-0.0594575,9.79249,0.111236,-0.4815,1.02399,-0.00667372,-0.000605458,0.0979246,1,5.51026e-05,-1.32979e-05,6.81349e-06,0.0110205,-0.00265958,0.0013627,0.99946,-0.00194768,0.0327942,0.000230587,-0.00173306,0.476743,-1.02625,32.875,1,3246,376225
27,6,0.99946,-0.00194768,0.0327942,0.000230587,-0.667112,-0.0594575,9.79249,0.111236,-0.4815,1.02399,-0.00667372,-0.000605458,0.0979246,1,5.51026e-05,-1.32979e-05,6.81349e-06,0.0110205,-0.00265958,0.0013627,0.99946,-0.00194768,0.0327942,0.000230587,-0.00173306,0.476743,-1.02625,32.875,1,3246,376225
28,1,0.999461,-0.00191079,0.0327735,0.000231688,-0.664422,-0.049279,9.79086,0.112293,-0.47391,1.02148,-0.00664853,-0.000500059,0.0979083,1,3.69513e-05,-2.20329e-05,2.4812e-06,0.00739026,-0.00440658,0.000496239,0.999461,-0.00191079,0.0327735,0.000231688,4.38336e-05,0.47828,-1.03127,32.875,1,3247,376325
28,2,0.999461,-0.00191079,0.0327735,0.000231688,-0.664422,-0.049279,9.79086,0.112293,-0.47391,1.02148,-0.00664853,-0.000500059,0.0979083,1,3.69513e-05,-2.20329e-05,2.4812e-06,0.00739026,-0.00440658,0.000496239,0.999461,-0.00191079,0.0327735,0.000231688,4.38336e-05,0.47828,-1.03127,32.875,1,3247,376325
28,3,0.999461,-0.00191079,0.0327735,0.000231688,-0.664422,-0.049279,9.79086,0.112293,-0.47391,1.02148,-0.00664853,-0.000500059,0.0979083,1,3.69513e-05,-2.20329e-05,2.4812e-06,0.00739026,-0.00440658,0.000496239,0.999461,-0.00191079,0.0327735,0.000231688,4.38336e-05,0.47828,-1.03127,32.875,1,3247,376325
28,4,0.999461,-0.00187156,0.0327705,0.000252861,-0.673766,-0.0534676,9.78715,0.104405,-0.4858,1.01864,-0.0067385,-0.000542558,0.0978714,1,3.87113e-05,-4.42206e-06,2.26275e-05,0.00774225,-0.000884411,0.00452551,0.999461,-0.00187156,0.0327705,0.000252861,-0.00145739,0.477371,-1.03432,32.875,1,3248,376425
29,1,0.999461,-0.00187156,0.0327705,0.000252861,-0.673766,-0.0534676,9.78715,0.104405,-0.4858,1.01864,-0.0067385,-0.000542558,0.0978714,1,3.87113e-05,-4.42206e-06,2.26275e-05,0.00774225,-0.000884411,0.00452551,0.999461,-0.00187156,0.0327705,0.000252861,-0.00145739,0.477371,-1.03432,32.875,1,3248,376425
29,2,0.999461,-0.00187156,0.0327705,0.000252861,-0.673766,-0.0534676,9.78715,0.104405,-0.4858,1.01864,-0.0067385,-0.000542558,0.0978714,1,3.87113e-05,-4.42206e-06,2.26275e-05,0.00774225,-0.000884411,0.00452551,0.999461,-0.00187156,0.0327705,0.000252861,-0.00145739,0.477371,-1.03432,32.875,1,3248,376425
29,3,0.999461,-0.00182492,0.0327634,0.000266925,-0.65953,-0.0503718,9.77555,0.114187,-0.485789,1.01209,-0.00659697,-0.000512928,0.0977553,1,4.60539e-05,-8.62774e-06,1.56276e-05,0.00921078,-0.00172555,0.00312552,0.999461,-0.00182492,0.0327634,0.000266925,-0.0028115,0.473463,-1.03339,32.875,1,3249,376525
29,4,0.999461,-0.00182492,0.0327634,0.000266925,-0.65953,-0.0503718,9.77555,0.114187,-0.485789,1.01209,-0.00659697,-0.000512928,0.0977553,1,4.60539e-05,-8.62774e-06,1.56276e-05,0.00921078,-0.00172555,0.00312552,0.999461,-0.00182492,0.0327634,0.000266925,-0.0028115,0.473463,-1.03339,32.875,1,3249,376525
30,1,0.999461,-0.00182492,0.0327634,0.000266925,-0.65953,-0.0503718,9.77555,0.114187,-0.485789,1.01209,-0.00659697,-0.000512928,0.0977553,1,4.60539e-05,-8.62774e-06,1.56276e-05,0.00921078,-0.00172555,0.00312552,0.999461,-0.00182492,0.0327634,0.000266925,-0.0028115,0.473463,-1.03339,32.875,1,3249,376525
30,2,0.999462,-0.00178807,0.0327568,0.000289096,-0.66289,-0.050664,9.78404,0.11983,-0.484505,1.02076,-0.00663047,-0.000514012,0.0978403,1,3.60869e-05,-8.16951e-06,2.34302e-05,0.00721738,-0.0016339,0.00468604,0.999462,-0.00178807,0.0327568,0.000289096,-0.00364277,0.471447,-1.02939,32.875,1,3250,376625
30,3,0.999462,-0.00178807,0.0327568,0.000289096,-0.66289,-0.050664,9.78404,0.11983,-0.484505,1.02076,-0.00663047,-0.000514012,0.0978403,1,3.60869e-05,-8.16951e-06,2.34302e-05,0.00721738,-0.0016339,0.00468604,0.999462,-0.00178807,0.0327568,0.000289096,-0.00364277,0.471447,-1.02939,32.875,1,3250,376625
30,4,0.999462,-0.00178807,0.0327568,0.000289096,-0.66289,-0.050664,9.78404,0.11983,-0.484505,1.02076,-0.00663047,-0.000514012,0.0978403,1,3.60869e-05,-8.16951e-06,2.34302e-05,0.00721738,-0.0016339,0.00468604,0.999462,-0.00178807,0.0327568,0.000289096,-0.00364277,0.471447,-1.02939,32.875,1,3250,376625
31,1,0.999462,-0.00174471,0.0327371,0.000290826,-0.66067,-0.0552532,9.77925,0.121095,-0.488669,1.01926,-0.00661085,-0.000561204,0.0977922,1,4.41242e-05,-2.12734e-05,3.19617e-06,0.00882483,-0.00425468,0.000639233,0.999462,-0.00174471,0.0327371,0.000290826,-0.00165616,0.472832,-1.02583,32.875,1,3251,376725
31,2,0.999462,-0.00174471,0.0327371,0.000290826,-0.66067,-0.0552532,9.77925,0.121095,-0.488669,1.01926,-0.00661085,-0.000561204,0.0977922,1,4.41242e-05,-2.12734e-05,3.19617e-06,0.00882483,-0.00425468,0.000639233,0.999462,-0.00174471,0.0327371,0.000290826,-0.00165616,0.472832,-1.02583,32.875,1,3251,376725
31,3,0.999462,-0.00174471,0.0327371,0.000290826,-0.66067,-0.0552532,9.77925,0.121095,-0.488669,1.01926,-0.00661085,-0.000561204,0.0977922,1,4.41242e-05,-2.12734e-05,3.19617e-06,0.00882483,-0.00425468,0.000639233,0.999462,-0.00174471,0.0327371,0.000290826,-0.00165616,0.472832,-1.02583,32.875,1,3251,376725
31,4,0.999463,-0.00169948,0.0327317,0.000313316,-0.651358,-0.0453479,9.79351,0.125391,-0.472742,1.01964,-0.00651493,-0.00046267,0.097935,1,4.53087e-05,-6.97754e-06,2.43022e-05,0.00906174,-0.00139551,0.00486045,0.999463,-0.00169948,0.0327317,0.000313316,-0.000799764,0.476274,-1.02778,32.875,1,3252,376825
32,1,0.999463,-0.00169948,0.0327317,0.000313316,-0.651358,-0.0453479,9.79351,0.125391,-0.472742,1.01964,-0.00651493,-0.00046267,0.097935,1,4.53087e-05,-6.97754e-06,2.43022e-05,0.00906174,-0.00139551,0.00486045,0.999463,-0.00169948,0.0327317,0.000313316,-0.000799764,0.476274,-1.02778,32.875,1,3252,376825
32,2,0.999463,-0.00169948,0.0327317,0.000313316,-0.651358,-0.0453479,9.79351,0.125391,-0.472742,1.01964,-0.00651493,-0.00046267,0.097935,1,4.53087e-05,-6.97754e-06,2.43022e-05,0.00906174,-0.00139551,0.00486045,0.999463,-0.00169948,0.0327317,0.000313316,-0.000799764,0.476274,-1.02778,32.875,1,3252,376825
32,3,0.999463,-0.00166394,0.0327287,0.000327692,-0.669988,-0.0530944,9.78713,0.108383,-0.487837,1.01432,-0.00670079,-0.000538077,0.0978712,1,3.53455e-05,-4.73679e-06,1.60131e-05,0.00706911,-0.000947358,0.00320263,0.999463,-0.00166394,0.0327287,0.000327692,-0.00136723,0.476341,-1.03131,32.875,1,3253,376925
32,4,0.999463,-0.00166394,0.0327287,0.000327692,-0.669988,-0.0530944,9.78713,0.108383,-0.487837,1.01432,-0.00670079,-0.000538077,0.0978712,1,3.53455e-05,-4.73679e-06,1.60131e-05,0.00706911,-0.000947358,0.00320263,0.999463,-0.00166394,0.0327287,0.000327692,-0.00136723,0.476341,-1.03131,32.875,1,3253,376925
33,1,0.999463,-0.00166394,0.0327287,0.000327692,-0.669988,-0.0530944,9.78713,0.108383,-0.487837,1.01432,-0.00670079,-0.000538077,0.0978712,1,3.53455e-05,-4.73679e-06,1.60131e-05,0.00706911,-0.000947358,0.00320263,0.999463,-0.00166394,0.0327287,0.000327692,-0.00136723,0.476341,-1.03131,32.875,1,3253,376925
33,2,0.999463,-0.00163144,0.0327185,0.000343307,-0.674299,-0.05188,9.7909,0.103407,-0.492065,1.02404,-0.00674537,-0.000525377,0.0979089,1,3.24437e-05,-1.22711e-05,1.66239e-05,0.00648873,-0.00245423,0.00332478,0.999463,-0.00163144,0.0327185,0.000343307,-0.000923585,0.474919,-1.03387,32.875,1,3254,377025
33,3,0.999463,-0.00163144,0.0327185,0.000343307,-0.674299,-0.05188,9.7909,0.103407,-0.492065,1.02404,-0.00674537,-0.000525377,0.0979089,1,3.24437e-05,-1.22711e-05,1.66239e-05,0.00648873,-0.00245423,0.00332478,0.999463,-0.00163144,0.0327185,0.000343307,-0.000923585,0.474919,-1.03387,32.875,1,3254,377025
33,4,0.999463,-0.00163144,0.0327185,0.000343307,-0.674299,-0.05188,9.7909,0.103407,-0.492065,1.02404,-0.00674537,-0.000525377,0.0979089,1,3.24437e-05,-1.22711e-05,1.66239e-05,0.00648873,-0.00245423,0.00332478,0.999463,-0.00163144,0.0327185,0.000343307,-0.000923585,0.474919,-1.03387,32.875,1,3254,377025
34,1,0.999463,-0.00162061,0.0327168,0.000350226,-0.662261,-0.0402459,9.78821,0.117793,-0.478319,1.02527,-0.00662333,-0.000404806,0.097882,1,1.15149e-05,-3.72338e-06,7.00167e-06,0.00230298,-0.000744677,0.00140033,0.999463,-0.00162061,0.0327168,0.000350226,-0.00275409,0.472939,-1.03138,32.875,1,3255,377125
34,2,0.999463,-0.00162061,0.0327168,0.000350226,-0.662261,-0.0402459,9.78821,0.117793,-0.478319,1.02527,-0.00662333,-0.000404806,0.097882,1,1.15149e-05,-3.72338e-06,7.00167e-06,0.00230298,-0.000744677,0.00140033,0.999463,-0.00162061,0.0327168,0.000350226,-0.00275409,0.472939,-1.03138,32.875,1,3255,377125
34,3,0.999463,-0.00162061,0.0327168,0.000350226,-0.662261,-0.0402459,9.78821,0.117793,-0.478319,1.02527,-0.00662333,-0.000404806,0.097882,1,1.15149e-05,-3.72338e-06,7.00167e-06,0.00230298,-0.000744677,0.00140033,0.999463,-0.00162061,0.0327168,0.000350226,-0.00275409,0.472939,-1.03138,32.875,1,3255,377125
34,4,0.999464,-0.00158727,0.0327087,0.000372342,-0.661881,-0.0519283,9.77962,0.115453,-0.487303,1.0146,-0.00662076,-0.00052617,0.097796,1,3.36188e-05,-1.01216e-05,2.35738e-05,0.00672376,-0.00202431,0.00471475,0.999464,-0.00158727,0.0327087,0.000372342,-0.00360149,0.471899,-1.02736,32.875,1,3256,377225
35,1,0.999464,-0.00158727,0.0327087,0.000372342,-0.661881,-0.0519283,9.77962,0.115453,-0.487303,1.0146,-0.00662076,-0.00052617,0.097796,1,3.36188e-05,-1.01216e-05,2.35738e-05,0.00672376,-0.00202431,0.00471475,0.999464,-0.00158727,0.0327087,0.000372342,-0.00360149,0.471899,-1.02736,32.875,1,3256,377225
35,2,0.999464,-0.00158727,0.0327087,0.000372342,-0.661881,-0.0519283,9.77962,0.115453,-0.487303,1.0146,-0.00662076,-0.00052617,0.097796,1,3.36188e-05,-1.01216e-05,2.35738e-05,0.00672376,-0.00202431,0.00471475,0.999464,-0.00158727,0.0327087,0.000372342,-0.00360149,0.471899,-1.02736,32.875,1,3256,377225
35,3,0.999464,-0.00154574,0.0326965,0.000391885,-0.664848,-0.0502974,9.79051,0.116814,-0.485148,1.02303,-0.00665125,-0.000511393,0.0979049,1,4.15667e-05,-1.42493e-05,2.09977e-05,0.00831334,-0.00284987,0.00419954,0.999464,-0.00154574,0.0326965,0.000391885,-0.00256052,0.473761,-1.02278,32.875,1,3257,377325
35,4,0.999464,-0.00154574,0.0326965,0.000391885,-0.664848,-0.0502974,9.79051,0.116814,-0.485148,1.02303,-0.00665125,-0.000511393,0.0979049,1,4.15667e-05,-1.42493e-05,2.09977e-05,0.00831334,-0.00284987,0.00419954,0.999464,-0.00154574,0.0326965,0.000391885,-0.00256052,0.473761,-1.02278,32.875,1,3257,377325
36,1,0.999464,-0.00154574,0.0326965,0.000391885,-0.664848,-0.0502974,9.79051,0.116814,-0.485148,1.02303,-0.00665125,-0.000511393,0.0979049,1,4.15667e-05,-1.42493e-05,2.09977e-05,0.00831334,-0.00284987,0.00419954,0.999464,-0.00154574,0.0326965,0.000391885,-0.00256052,0.473761,-1.02278,32.875,1,3257,377325
36,2,0.999465,-0.00151447,0.0326788,0.000416272,-0.667156,-0.0558616,9.78675,0.108526,-0.492558,1.01805,-0.00667549,-0.000565091,0.0978672,1,3.13631e-05,-2.02358e-05,2.5157e-05,0.00627262,-0.00404717,0.00503139,0.999465,-0.00151447,0.0326788,0.000416272,-0.00171265,0.476246,-1.02576,32.875,1,3258,377425
36,3,0.999465,-0.00151447,0.0326788,0.000416272,-0.667156,-0.0558616,9.78675,0.108526,-0.492558,1.01805,-0.00667549,-0.000565091,0.0978672,1,3.13631e-05,-2.02358e-05,2.5157e-05,0.00627262,-0.00404717,0.00503139,0.999465,-0.00151447,0.0326788,0.000416272,-0.00171265,0.476246,-1.02576,32.875,1,3258,377425
36,4,0.999465,-0.00151447,0.0326788,0.000416272,-0.667156,-0.0558616,9.78675,0.108526,-0.492558,1.01805,-0.00667549,-0.000565091,0.0978672,1,3.13631e-05,-2.02358e-05,2.5157e-05,0.00627262,-0.00404717,0.00503139,0.999465,-0.00151447,0.0326788,0.000416272,-0.00171265,0.476246,-1.02576,32.875,1,3258,377425
37,1,0.999465,-0.00147926,0.0326684,0.000440328,-0.662252,-0.0502794,9.77895,0.115351,-0.491595,1.00644,-0.00662497,-0.00051,0.0977893,1,3.51348e-05,-1.26999e-05,2.52799e-05,0.00702696,-0.00253999,0.00505598,0.999465,-0.00147926,0.0326684,0.000440328,-0.0013919,0.476359,-1.03232,32.875,1,3259,377525
37,2,0.999465,-0.00147926,0.0326684,0.000440328,-0.662252,-0.0502794,9.77895,0.115351,-0.491595,1.00644,-0.00662497,-0.00051,0.0977893,1,3.51348e-05,-1.26999e-05,2.52799e-05,0.00702696,-0.00253999,0.00505598,0.999465,-0.00147926,0.0326684,0.000440328,-0.0013919,0.476359,-1.03232,32.875,1,3259,377525
37,3,0.999465,-0.00147926,0.0326684,0.000440328,-0.662252,-0.0502794,9.77895,0.115351,-0.491595,1.00644,-0.00662497,-0.00051,0.0977893,1,3.51348e-05,-1.26999e-05,2.52799e-05,0.00702696,-0.00253999,0.00505598,0.999465,-0.00147926,0.0326684,0.000440328,-0.0013919,0.476359,-1.03232,32.875,1,3259,377525
37,4,0.999465,-0.0014428,0.0326602,0.000453452,-0.669955,-0.0514042,9.79155,0.104238,-0.492597,1.02036,-0.00670163,-0.00052152,0.0979153,1,3.71765e-05,-1.07008e-05,1.47504e-05,0.00743531,-0.00214015,0.00295007,0.999465,-0.0014428,0.0326602,0.000453452,-0.00284805,0.474935,-1.03386,32.875,1,3260,377625
38,1,0.999465,-0.0014428,0.0326602,0.000453452,-0.669955,-0.0514042,9.79155,0.104238,-0.492597,1.02036,-0.00670163,-0.00052152,0.0979153,1,3.71765e-05,-1.07008e-05,1.47504e-05,0.00743531,-0.00214015,0.00295007,0.999465,-0.0014428,0.0326602,0.000453452,-0.00284805,0.474935,-1.03386,32.875,1,3260,377625
38,2,0.999465,-0.0014428,0.0326602,0.000453452,-0.669955,-0.0514042,9.79155,0.104238,-0.492597,1.02036,-0.00670163,-0.00052152,0.0979153,1,3.71765e-05,-1.07008e-05,1.47504e-05,0.00743531,-0.00214015,0.00295007,0.999465,-0.0014428,0.0326602,0.000453452,-0.00284805,0.474935,-1.03386,32.875,1,3260,377625
38,3,0.999466,-0.0014057,0.032647,0.000461645,-0.65496,-0.057086,9.78665,0.122604,-0.49963,1.01721,-0.00655267,-0.000578447,0.0978663,1,3.80837e-05,-1.57559e-05,1.01199e-05,0.00761674,-0.00315119,0.00202398,0.999466,-0.0014057,0.032647,0.000461645,-0.0037614,0.473462,-1.03288,32.875,1,3261,377725
38,4,0.999466,-0.0014057,0.032647,0.000461645,-0.65496,-0.057086,9.78665,0.122604,-0.49963,1.01721,-0.00655267,-0.000578447,0.0978663,1,3.80837e-05,-1.57559e-05,1.01199e-05,0.00761674,-0.00315119,0.00202398,0.999466,-0.0014057,0.032647,0.000461645,-0.0037614,0.473462,-1.03288,32.875,1,3261,377725
39,1,0.999466,-0.0014057,0.032647,0.000461645,-0.65496,-0.057086,9.78665,0.122604,-0.49963,1.01721,-0.00655267,-0.000578447,0.0978663,1,3.80837e-05,-1.57559e-05,1.01199e-05,0.00761674,-0.00315119,0.00202398,0.999466,-0.0014057,0.032647,0.000461645,-0.0037614,0.473462,-1.03288,32.875,1,3261,377725
39,2,0.999466,-0.00136317,0.032653,0.000480261,-0.670836,-0.0471568,9.77802,0.108765,-0.488274,1.01517,-0.00670768,-0.000480304,0.0977802,1,4.32898e-05,3.37341e-06,2.01461e-05,0.00865797,0.000674683,0.00402923,0.999466,-0.00136317,0.032653,0.000480261,-0.00321008,0.47437,-1.02933,32.875,1,3262,377825
39,3,0.999466,-0.00136317,0.032653,0.000480261,-0.670836,-0.0471568,9.77802,0.108765,-0.488274,1.01517,-0.00670768,-0.000480304,0.0977802,1,4.32898e-05,3.37341e-06,2.01461e-05,0.00865797,0.000674683,0.00402923,0.999466,-0.00136317,0.032653,0.000480261,-0.00321008,0.47437,-1.02933,32.875,1,3262,377825
39,4,0.999466,-0.00136317,0.032653,0.000480261,-0.670836,-0.0471568,9.77802,0.108765,-0.488274,1.01517,-0.00670768,-0.000480304,0.0977802,1,4.32898e-05,3.37341e-06,2.01461e-05,0.00865797,0.000674683,0.00402923,0.999466,-0.00136317,0.032653,0.000480261,-0.00321008,0.47437,-1.02933,32.875,1,3262,377825
39,5,0.999466,-0.00132804,0.032636,0.000488083,-0.666126,-0.0500152,9.79392,0.114261,-0.488208,1.02801,-0.00666514,-0.00050743,0.0979389,1,3.65545e-05,-1.98724e-05,8.87384e-06,0.0073109,-0.00397448,0.00177477,0.999466,-0.00132804,0.032636,0.000488083,-0.000718137,0.474287,-1.0258,32.875,1,3263,377925
39,6,0.999466,-0.00132804,0.032636,0.000488083,-0.666126,-0.0500152,9.79392,0.114261,-0.488208,1.02801,-0.00666514,-0.00050743,0.0979389,1,3.65545e-05,-1.98724e-05,8.87384e-06,0.0073109,-0.00397448,0.00177477,0.999466,-0.00132804,0.032636,0.000488083,-0.000718137,0.474287,-1.0258,32.875,1,3263,377925
40,1,0.999466,-0.00132804,0.032636,0.000488083,-0.666126,-0.0500152,9.79392,0.114261,-0.488208,1.02801,-0.00666514,-0.00050743,0.0979389,1,3.65545e-05,-1.98724e-05,8.87384e-06,0.0073109,-0.00397448,0.00177477,0.999466,-0.00132804,0.032636,0.000488083,-0.000718137,0.474287,-1.0258,32.875,1,3263,377925
40,2,0.999467,-0.00128859,0.0326308,0.000491324,-0.663256,-0.047221,9.78476,0.11229,-0.491535,1.0157,-0.0066341,-0.000480298,0.0978474,1,4.10099e-05,-7.87901e-06,4.69201e-06,0.00820197,-0.0015758,0.000938402,0.999467,-0.00128859,0.0326308,0.000491324,-0.00172926,0.475776,-1.02678,32.875,1,3264,378025
40,3,0.999467,-0.00128859,0.0326308,0.000491324,-0.663256,-0.047221,9.78476,0.11229,-0.491535,1.0157,-0.0066341,-0.000480298,0.0978474,1,4.10099e-05,-7.87901e-06,4.69201e-06,0.00820197,-0.0015758,0.000938402,0.999467,-0.00128859,0.0326308,0.000491324,-0.00172926,0.475776,-1.02678,32.875,1,3264,378025
40,4,0.999467,-0.00128859,0.0326308,0.000491324,-0.663256,-0.047221,9.78476,0.11229,-0.491535,1.0157,-0.0066341,-0.000480298,0.0978474,1,4.10099e-05,-7.87901e-06,4.69201e-06,0.00820197,-0.0015758,0.000938402,0.999467,-0.00128859,0.0326308,0.000491324,-0.00172926,0.475776,-1.02678,32.875,1,3264,378025
41,1,0.999467,-0.00125087,0.0326216,0.000511674,-0.667369,-0.0376134,9.78826,0.1114,-0.483714,1.02112,-0.00667601,-0.000383983,0.0978824,1,3.8594e-05,-1.19244e-05,2.19924e-05,0.0077188,-0.00238488,0.00439849,0.999467,-0.00125087,0.0326216,0.000511674,-0.000877587,0.477295,-1.03028,32.875,1,3265,378125
41,2,0.999467,-0.00125087,0.0326216,0.000511674,-0.667369,-0.0376134,9.78826,0.1114,-0.483714,1.02112,-0.00667601,-0.000383983,0.0978824,1,3.8594e-05,-1.19244e-05,2.19924e-05,0.0077188,-0.00238488,0.00439849,0.999467,-0.00125087,0.0326216,0.000511674,-0.000877587,0.477295,-1.03028,32.875,1,3265,378125
41,3,0.999467,-0.00125087,0.0326216,0.000511674,-0.667369,-0.0376134,9.78826,0.1114,-0.483714,1.02112,-0.00667601,-0.000383983,0.0978824,1,3.8594e-05,-1.19244e-05,2.19924e-05,0.0077188,-0.00238488,0.00439849,0.999467,-0.00125087,0.0326216,0.000511674,-0.000877587,0.477295,-1.03028,32.875,1,3265,378125
41,4,0.999468,-0.0012278,0.0326012,0.000519762,-0.669816,-0.0467302,9.78618,0.103326,-0.491311,1.01618,-0.00670279,-0.000472272,0.0978615,1,2.47881e-05,-2.36911e-05,8.87716e-06,0.00495762,-0.00473821,0.00177543,0.999468,-0.0012278,0.0326012,0.000519762,-0.000450538,0.475403,-1.03386,32.875,1,3266,378225
41,5,0.999468,-0.0012278,0.0326012,0.000519762,-0.669816,-0.0467302,9.78618,0.103326,-0.491311,1.01618,-0.00670279,-0.000472272,0.0978615,1,2.47881e-05,-2.36911e-05,8.87716e-06,0.00495762,-0.00473821,0.00177543,0.999468,-0.0012278,0.0326012,0.000519762,-0.000450538,0.475403,-1.03386,32.875,1,3266,378225
41,6,0.999468,-0.0012278,0.0326012,0.000519762,-0.669816,-0.0467302,9.78618,0.103326,-0.491311,1.01618,-0.00670279,-0.000472272,0.0978615,1,2.47881e-05,-2.36911e-05,8.87716e-06,0.00495762,-0.00473821,0.00177543,0.999468,-0.0012278,0.0326012,0.000519762,-0.000450538,0.475403,-1.03386,32.875,1,3266,378225
42,1,0.999468,-0.00118783,0.0325983,0.000514196,-0.661528,-0.0417097,9.79327,0.116494,-0.487816,1.02604,-0.00661658,-0.000425332,0.0979326,1,4.23026e-05,-6.62523e-06,-3.81654e-06,0.00846051,-0.00132505,-0.000763309,0.999468,-0.00118783,0.0325983,0.000514196,-0.00226109,0.471481,-1.03192,32.875,1,3267,378325
42,2,0.999468,-0.00118783,0.0325983,0.000514196,-0.661528,-0.0417097,9.79327,0.116494,-0.487816,1.02604,-0.00661658,-0.000425332,0.0979326,1,4.23026e-05,-6.62523e-06,-3.81654e-06,0.00846051,-0.00132505,-0.000763309,0.999468,-0.00118783,0.0325983,0.000514196,-0.00226109,0.471481,-1.03192,32.875,1,3267,378325
42,3,0.999468,-0.00118783,0.0325983,0.000514196,-0.661528,-0.0417097,9.79327,0.116494,-0.487816,1.02604,-0.00661658,-0.000425332,0.0979326,1,4.23026e-05,-6.62523e-06,-3.81654e-06,0.00846051,-0.00132505,-0.000763309,0.999468,-0.00118783,0.0325983,0.000514196,-0.00226109,0.471481,-1.03192,32.875,1,3267,378325
42,4,0.999468,-0.0011568,0.0325834,0.000526441,-0.666147,-0.0439477,9.79431,0.108536,-0.491842,1.02991,-0.00666506,-0.000446078,0.0979428,1,3.27118e-05,-1.84011e-05,1.45304e-05,0.00654236,-0.00368022,0.00290609,0.999468,-0.0011568,0.0325834,0.000526441,-0.0031123,0.471407,-1.02737,32.875,1,3268,378425
43,1,0.999468,-0.0011568,0.0325834,0.000526441,-0.666147,-0.0439477,9.79431,0.108536,-0.491842,1.02991,-0.00666506,-0.000446078,0.0979428,1,3.27118e-05,-1.84011e-05,1.45304e-05,0.00654236,-0.00368022,0.00290609,0.999468,-0.0011568,0.0325834,0.000526441,-0.0031123,0.471407,-1.02737,32.875,1,3268,378425
43,2,0.999468,-0.0011568,0.0325834,0.000526441,-0.666147,-0.0439477,9.79431,0.108536,-0.491842,1.02991,-0.00666506,-0.000446078,0.0979428,1,3.27118e-05,-1.84011e-05,1.45304e-05,0.00654236,-0.00368022,0.00290609,0.999468,-0.0011568,0.0325834,0.000526441,-0.0031123,0.471407,-1.02737,32.875,1,3268,378425
43,3,0.999469,-0.00111812,0.0325708,0.000521162,-0.653233,-0.0556892,9.78869,0.126108,-0.504547,1.02316,-0.00653531,-0.000564747,0.0978867,1,4.02648e-05,-1.52048e-05,-2.15129e-06,0.00805296,-0.00304096,-0.000430259,0.999469,-0.00111812,0.0325708,0.000521162,-0.00406128,0.474297,-1.02478,32.875,1,3269,378525
43,4,0.999469,-0.00111812,0.0325708,0.000521162,-0.653233,-0.0556892,9.78869,0.126108,-0.504547,1.02316,-0.00653531,-0.000564747,0.0978867,1,4.02648e-05,-1.52048e-05,-2.15129e-06,0.00805296,-0.00304096,-0.000430259,0.999469,-0.00111812,0.0325708,0.000521162,-0.00406128,0.474297,-1.02478,32.875,1,3269,378525
43,5,0.999469,-0.00111812,0.0325708,0.000521162,-0.653233,-0.0556892,9.78869,0.126108,-0.504547,1.02316,-0.00653531,-0.000564747,0.0978867,1,4.02648e-05,-1.52048e-05,-2.15129e-06,0.00805296,-0.00304096,-0.000430259,0.999469,-0.00111812,0.0325708,0.000521162,-0.00406128,0.474297,-1.02478,32.875,1,3269,378525
43,6,0.999469,-0.00108282,0.0325609,0.000520488,-0.66666,-0.0464586,9.77902,0.105377,-0.497046,1.00974,-0.00666898,-0.000471733,0.09779,1,3.64743e-05,-1.21668e-05,9.89113e-07,0.00729486,-0.00243337,0.000197823,0.999469,-0.00108282,0.0325609,0.000520488,-0.00321723,0.477748,-1.02723,32.875,1,3270,378625
44,1,0.999469,-0.00108282,0.0325609,0.000520488,-0.66666,-0.0464586,9.77902,0.105377,-0.497046,1.00974,-0.00666898,-0.000471733,0.09779,1,3.64743e-05,-1.21668e-05,9.89113e-07,0.00729486,-0.00243337,0.000197823,0.999469,-0.00108282,0.0325609,0.000520488,-0.00321723,0.477748,-1.02723,32.875,1,3270,378625
44,2,0.999469,-0.00108282,0.0325609,0.000520488,-0.66666,-0.0464586,9.77902,0.105377,-0.497046,1.00974,-0.00666898,-0.000471733,0.09779,1,3.64743e-05,-1.21668e-05,9.89113e-07,0.00729486,-0.00243337,0.000197823,0.999469,-0.00108282,0.0325609,0.000520488,-0.00321723,0.477748,-1.02723,32.875,1,3270,378625
44,3,0.999469,-0.00105055,0.0325708,0.000519938,-0.658914,-0.0533803,9.79281,0.121564,-0.502639,1.02446,-0.00658781,-0.000540714,0.0979281,1,3.52878e-05,6.7987e-06,-2.22077e-08,0.00705756,0.00135974,-4.44154e-06,0.999469,-0.00105055,0.0325708,0.000519938,-0.00142419,0.47831,-1.03228,32.875,1,3271,378725
44,4,0.999469,-0.00105055,0.0325708,0.000519938,-0.658914,-0.0533803,9.79281,0.121564,-0.502639,1.02446,-0.00658781,-0.000540714,0.0979281,1,3.52878e-05,6.7987e-06,-2.22077e-08,0.00705756,0.00135974,-4.44154e-06,0.999469,-0.00105055,0.0325708,0.000519938,-0.00142419,0.47831,-1.03228,32.875,1,3271,378725
45,1,0.999469,-0.00105055,0.0325708,0.000519938,-0.658914,-0.0533803,9.79281,0.121564,-0.502639,1.02446,-0.00658781,-0.000540714,0.0979281,1,3.52878e-05,6.7987e-06,-2.22077e-08,0.00705756,0.00135974,-4.44154e-06,0.999469,-0.00105055,0.0325708,0.000519938,-0.00142419,0.47831,-1.03228,32.875,1,3271,378725
45,2,0.999469,-0.00100983,0.0325692,0.000539885,-0.665753,-0.0425582,9.77429,0.107103,-0.491873,1.00458,-0.0066588,-0.000434459,0.0977428,1,4.41335e-05,-6.5584e-06,1.87532e-05,0.0088267,-0.00131168,0.00375064,0.999469,-0.00100983,0.0325692,0.000539885,-0.00290547,0.475459,-1.03587,32.875,1,3272,378825
45,3,0.999469,-0.00100983,0.0325692,0.000539885,-0.665753,-0.0425582,9.77429,0.107103,-0.491873,1.00458,-0.0066588,-0.000434459,0.0977428,1,4.41335e-05,-6.5584e-06,1.87532e-05,0.0088267,-0.00131168,0.00375064,0.999469,-0.00100983,0.0325692,0.000539885,-0.00290547,0.475459,-1.03587,32.875,1,3272,378825
45,4,0.999469,-0.00100983,0.0325692,0.000539885,-0.665753,-0.0425582,9.77429,0.107103,-0.491873,1.00458,-0.0066588,-0.000434459,0.0977428,1,4.41335e-05,-6.5584e-06,1.87532e-05,0.0088267,-0.00131168,0.00375064,0.999469,-0.00100983,0.0325692,0.000539885,-0.00290547,0.475459,-1.03587,32.875,1,3272,378825
46,1,0.999469,-0.000979557,0.0325676,0.00055946,-0.665835,-0.052467,9.79559,0.107628,-0.5073,1.03318,-0.00665999,-0.000531619,0.0979557,1,3.42317e-05,-8.48068e-06,1.81962e-05,0.00684634,-0.00169614,0.00363924,0.999469,-0.000979557,0.0325676,0.00055946,-0.00374953,0.472007,-1.03342,32.875,1,3273,378925
46,2,0.999469,-0.000979557,0.0325676,0.00055946,-0.665835,-0.052467,9.79559,0.107628,-0.5073,1.03318,-0.00665999,-0.000531619,0.0979557,1,3.42317e-05,-8.48068e-06,1.81962e-05,0.00684634,-0.00169614,0.00363924,0.999469,-0.000979557,0.0325676,0.00055946,-0.00374953,0.472007,-1.03342,32.875,1,3273,378925
46,3,0.999469,-0.000979557,0.0325676,0.00055946,-0.665835,-0.052467,9.79559,0.107628,-0.5073,1.03318,-0.00665999,-0.000531619,0.0979557,1,3.42317e-05,-8.48068e-06,1.81962e-05,0.00684634,-0.00169614,0.00363924,0.999469,-0.000979557,0.0325676,0.00055946,-0.00374953,0.472007,-1.03342,32.875,1,3273,378925
46,4,0.999469,-0.000944199,0.032564,0.00056586,-0.667581,-0.0506197,9.78103,0.11327,-0.503835,1.01451,-0.00667752,-0.000513939,0.0978101,1,3.88326e-05,-8.80461e-06,1.09036e-05,0.00776651,-0.00176092,0.00218073,0.999469,-0.000944199,0.032564,0.00056586,-0.00314078,0.472392,-1.02785,32.875,1,3274,379025
47,1,0.999469,-0.000944199,0.032564,0.00056586,-0.667581,-0.0506197,9.78103,0.11327,-0.503835,1.01451,-0.00667752,-0.000513939,0.0978101,1,3.88326e-05,-8.80461e-06,1.09036e-05,0.00776651,-0.00176092,0.00218073,0.999469,-0.000944199,0.032564,0.00056586,-0.00314078,0.472392,-1.02785,32.875,1,3274,379025
47,2,0.999469,-0.000944199,0.032564,0.00056586,-0.667581,-0.0506197,9.78103,0.11327,-0.503835,1.01451,-0.00667752,-0.000513939,0.0978101,1,3.88326e-05,-8.80461e-06,1.09036e-05,0.00776651,-0.00176092,0.00218073,0.999469,-0.000944199,0.032564,0.00056586,-0.00314078,0.472392,-1.02785,32.875,1,3274,379025
47,3,0.99947,-0.000896129,0.0325508,0.000576575,-0.661752,-0.0560023,9.79112,0.115197,-0.507226,1.02318,-0.00662039,-0.000569778,0.0979109,1,4.85664e-05,-1.47561e-05,1.8515e-05,0.00971329,-0.00295123,0.003703,0.99947,-0.000896129,0.0325508,0.000576575,-0.00214489,0.474769,-1.02478,32.875,1,3275,379125
47,4,0.99947,-0.000896129,0.0325508,0.000576575,-0.661752,-0.0560023,9.79112,0.115197,-0.507226,1.02318,-0.00662039,-0.000569778,0.0979109,1,4.85664e-05,-1.47561e-05,1.8515e-05,0.00971329,-0.00295123,0.003703,0.99947,-0.000896129,0.0325508,0.000576575,-0.00214489,0.474769,-1.02478,32.875,1,3275,379125
48,1,0.99947,-0.000896129,0.0325508,0.000576575,-0.661752,-0.0560023,9.79112,0.115197,-0.507226,1.02318,-0.00662039,-0.000569778,0.0979109,1,4.85664e-05,-1.47561e-05,1.8515e-05,0.00971329,-0.00295123,0.003703,0.99947,-0.000896129,0.0325508,0.000576575,-0.00214489,0.474769,-1.02478,32.875,1,3275,379125
48,2,0.99947,-0.000857502,0.0325441,0.000581778,-0.666566,-0.0578232,9.78706,0.113023,-0.509643,1.02078,-0.00666712,-0.000586053,0.0978705,1,3.91397e-05,-7.52517e-06,1.19788e-05,0.00782794,-0.00150503,0.00239576,0.99947,-0.000857502,0.0325441,0.000581778,-0.00175773,0.476761,-1.02726,32.875,1,3276,379225
48,3,0.99947,-0.000857502,0.0325441,0.000581778,-0.666566,-0.0578232,9.78706,0.113023,-0.509643,1.02078,-0.00666712,-0.000586053,0.0978705,1,3.91397e-05,-7.52517e-06,1.19788e-05,0.00782794,-0.00150503,0.00239576,0.99947,-0.000857502,0.0325441,0.000581778,-0.00175773,0.476761,-1.02726,32.875,1,3276,379225
48,4,0.99947,-0.000857502,0.0325441,0.000581778,-0.666566,-0.0578232,9.78706,0.113023,-0.509643,1.02078,-0.00666712,-0.000586053,0.0978705,1,3.91397e-05,-7.52517e-06,1.19788e-05,0.00782794,-0.00150503,0.00239576,0.99947,-0.000857502,0.0325441,0.000581778,-0.00175773,0.476761,-1.02726,32.875,1,3276,379225
48,5,0.99947,-0.000809955,0.032536,0.000600464,-0.662459,-0.0509105,9.78981,0.112135,-0.509629,1.02263,-0.00662668,-0.000519286,0.0978979,1,5.04572e-05,-1.08146e-05,2.27949e-05,0.0100914,-0.00216291,0.00455899,0.99947,-0.000809955,0.032536,0.000600464,-0.000392664,0.476324,-1.03081,32.875,1,3277,379325
48,6,0.99947,-0.000809955,0.032536,0.000600464,-0.662459,-0.0509105,9.78981,0.112135,-0.509629,1.02263,-0.00662668,-0.000519286,0.0978979,1,5.04572e-05,-1.08146e-05,2.27949e-05,0.0100914,-0.00216291,0.00455899,0.99947,-0.000809955,0.032536,0.000600464,-0.000392664,0.476324,-1.03081,32.875,1,3277,379325
49,1,0.99947,-0.000809955,0.032536,0.000600464,-0.662459,-0.0509105,9.78981,0.112135,-0.509629,1.02263,-0.00662668,-0.000519286,0.0978979,1,5.04572e-05,-1.08146e-05,2.27949e-05,0.0100914,-0.00216291,0.00455899,0.99947,-0.000809955,0.032536,0.000600464,-0.000392664,0.476324,-1.03081,32.875,1,3277,379325
49,2,0.99947,-0.000778916,0.0325268,0.000610248,-0.664473,-0.0488935,9.78713,0.113202,-0.505916,1.01721,-0.00664736,-0.000496067,0.0978711,1,3.5612e-05,-1.35262e-05,1.21817e-05,0.00712241,-0.00270525,0.00243633,0.99947,-0.000778916,0.0325268,0.000610248,-0.00189769,0.476381,-1.03333,32.875,1,3278,379425
49,3,0.99947,-0.000778916,0.0325268,0.000610248,-0.664473,-0.0488935,9.78713,0.113202,-0.505916,1.01721,-0.00664736,-0.000496067,0.0978711,1,3.5612e-05,-1.35262e-05,1.21817e-05,0.00712241,-0.00270525,0.00243633,0.99947,-0.000778916,0.0325268,0.000610248,-0.00189769,0.476381,-1.03333,32.875,1,3278,379425
49,4,0.99947,-0.000778916,0.0325268,0.000610248,-0.664473,-0.0488935,9.78713,0.113202,-0.505916,1.01721,-0.00664736,-0.000496067,0.0978711,1,3.5612e-05,-1.35262e-05,1.21817e-05,0.00712241,-0.00270525,0.00243633,0.99947,-0.000778916,0.0325268,0.000610248,-0.00189769,0.476381,-1.03333,32.875,1,3278,379425
49,5,0.99947,-0.000735325,0.0325252,0.000616421,-0.65669,-0.0556234,9.79346,0.118193,-0.513304,1.0217,-0.00656844,-0.000566157,0.0979344,1,5.03008e-05,-7.90284e-06,5.40183e-06,0.0100602,-0.00158057,0.00108037,0.99947,-0.000735325,0.0325252,0.000616421,-0.0027949,0.473932,-1.03237,32.875,1,3279,379525
49,6,0.99947,-0.000735325,0.0325252,0.000616421,-0.65669,-0.0556234,9.79346,0.118193,-0.513304,1.0217,-0.00656844,-0.000566157,0.0979344,1,5.03008e-05,-7.90284e-06,5.40183e-06,0.0100602,-0.00158057,0.00108037,0.99947,-0.000735325,0.0325252,0.000616421,-0.0027949,0.473932,-1.03237,32.875,1,3279,379525
50,1,0.99947,-0.000735325,0.0325252,0.000616421,-0.65669,-0.0556234,9.79346,0.118193,-0.513304,1.0217,-0.00656844,-0.000566157,0.0979344,1,5.03008e-05,-7.90284e-06,5.40183e-06,0.0100602,-0.00158057,0.00108037,0.99947,-0.000735325,0.0325252,0.000616421,-0.0027949,0.473932,-1.03237,32.875,1,3279,379525
50,2,0.99947,-0.000705953,0.0325259,0.000637991,-0.667696,-0.0383501,9.78046,0.107872,-0.497557,1.01457,-0.00667807,-0.000390535,0.0978045,1,3.4556e-05,-5.73517e-06,2.05074e-05,0.00691119,-0.00114703,0.00410148,0.99947,-0.000705953,0.0325259,0.000637991,-0.00266819,0.471431,-1.02889,32.875,1,3280,379625
50,3,0.99947,-0.000705953,0.0325259,0.000637991,-0.667696,-0.0383501,9.78046,0.107872,-0.497557,1.01457,-0.00667807,-0.000390535,0.0978045,1,3.4556e-05,-5.73517e-06,2.05074e-05,0.00691119,-0.00114703,0.00410148,0.99947,-0.000705953,0.0325259,0.000637991,-0.00266819,0.471431,-1.02889,32.875,1,3280,379625
50,4,0.99947,-0.000705953,0.0325259,0.000637991,-0.667696,-0.0383501,9.78046,0.107872,-0.497557,1.01457,-0.00667807,-0.000390535,0.0978045,1,3.4556e-05,-5.73517e-06,2.05074e-05,0.00691119,-0.00114703,0.00410148,0.99947,-0.000705953,0.0325259,0.000637991,-0.00266819,0.471431,-1.02889,32.875,1,3280,379625
51,1,0.999471,-0.000668242,0.0325219,0.000645918,-0.664842,-0.0466183,9.80038,0.108663,-0.503259,1.03083,-0.00664987,-0.000473742,0.0980037,1,3.74169e-05,-7.47831e-06,1.68831e-05,0.00748337,-0.00149566,0.00337661,0.999471,-0.000668242,0.0325219,0.000645918,-0.000220878,0.473308,-1.02583,32.875,1,3281,379725
51,2,0.999471,-0.000668242,0.0325219,0.000645918,-0.664842,-0.0466183,9.80038,0.108663,-0.503259,1.03083,-0.00664987,-0.000473742,0.0980037,1,3.74169e-05,-7.47831e-06,1.68831e-05,0.00748337,-0.00149566,0.00337661,0.999471,-0.000668242,0.0325219,0.000645918,-0.000220878,0.473308,-1.02583,32.875,1,3281,379725
51,3,0.999471,-0.000668242,0.0325219,0.000645918,-0.664842,-0.0466183,9.80038,0.108663,-0.503259,1.03083,-0.00664987,-0.000473742,0.0980037,1,3.74169e-05,-7.47831e-06,1.68831e-05,0.00748337,-0.00149566,0.00337661,0.999471,-0.000668242,0.0325219,0.000645918,-0.000220878,0.473308,-1.02583,32.875,1,3281,379725
51,4,0.999471,-0.000630952,0.0324984,0.000642921,-0.661932,-0.0561393,9.79045,0.113455,-0.513672,1.0215,-0.00662408,-0.000568895,0.0979041,1,3.75529e-05,-2.43278e-05,1.12875e-05,0.00751059,-0.00486557,0.0022575,0.999471,-0.000630952,0.0324984,0.000642921,-0.000783164,0.476744,-1.02676,32.875,1,3282,379825
52,1,0.999471,-0.000630952,0.0324984,0.000642921,-0.661932,-0.0561393,9.79045,0.113455,-0.513672,1.0215,-0.00662408,-0.000568895,0.0979041,1,3.75529e-05,-2.43278e-05,1.12875e-05,0.00751059,-0.00486557,0.0022575,0.999471,-0.000630952,0.0324984,0.000642921,-0.000783164,0.476744,-1.02676,32.875,1,3282,379825
52,2,0.999471,-0.000630952,0.0324984,0.000642921,-0.661932,-0.0561393,9.79045,0.113455,-0.513672,1.0215,-0.00662408,-0.000568895,0.0979041,1,3.75529e-05,-2.43278e-05,1.12875e-05,0.00751059,-0.00486557,0.0022575,0.999471,-0.000630952,0.0324984,0.000642921,-0.000783164,0.476744,-1.02676,32.875,1,3282,379825
52,3,0.999472,-0.000585922,0.0324852,0.000642529,-0.666475,-0.0520717,9.78842,0.111229,-0.516456,1.01754,-0.00666747,-0.00053006,0.097884,1,4.71064e-05,-1.39176e-05,9.04659e-06,0.00942127,-0.00278352,0.00180932,0.999472,-0.000585922,0.0324852,0.000642529,-0.00181987,0.475361,-1.03083,32.9375,1,3283,379925
52,4,0.999472,-0.000585922,0.0324852,0.000642529,-0.666475,-0.0520717,9.78842,0.111229,-0.516456,1.01754,-0.00666747,-0.00053006,0.097884,1,4.71064e-05,-1.39176e-05,9.04659e-06,0.00942127,-0.00278352,0.00180932,0.999472,-0.000585922,0.0324852,0.000642529,-0.00181987,0.475361,-1.03083,32.9375,1,3283,379925
52,5,0.999472,-0.000585922,0.0324852,0.000642529,-0.666475,-0.0520717,9.78842,0.111229,-0.516456,1.01754,-0.00666747,-0.00053006,0.097884,1,4.71064e-05,-1.39176e-05,9.04659e-06,0.00942127,-0.00278352,0.00180932,0.999472,-0.000585922,0.0324852,0.000642529,-0.00181987,0.475361,-1.03083,32.9375,1,3283,379925
52,6,0.999472,-0.000550698,0.0324786,0.000639774,-0.660045,-0.0551436,9.78562,0.117515,-0.51754,1.01648,-0.00660273,-0.000559484,0.097856,1,4.11309e-05,-1.16564e-05,-7.65966e-08,0.00822619,-0.00233129,-1.53193e-05,0.999472,-0.000550698,0.0324786,0.000639774,-0.00236739,0.473486,-1.0349,32.9375,1,3284,380025
53,1,0.999472,-0.000550698,0.0324786,0.000639774,-0.660045,-0.0551436,9.78562,0.117515,-0.51754,1.01648,-0.00660273,-0.000559484,0.097856,1,4.11309e-05,-1.16564e-05,-7.65966e-08,0.00822619,-0.00233129,-1.53193e-05,0.999472,-0.000550698,0.0324786,0.000639774,-0.00236739,0.473486,-1.0349,32.9375,1,3284,380025
53,2,0.999472,-0.000550698,0.0324786,0.000639774,-0.660045,-0.0551436,9.78562,0.117515,-0.51754,1.01648,-0.00660273,-0.000559484,0.097856,1,4.11309e-05,-1.16564e-05,-7.65966e-08,0.00822619,-0.00233129,-1.53193e-05,0.999472,-0.000550698,0.0324786,0.000639774,-0.00236739,0.473486,-1.0349,32.9375,1,3284,380025
53,3,0.999472,-0.000532106,0.0324774,0.000670525,-0.667164,-0.0547268,9.79483,0.107184,-0.518095,1.02717,-0.00667383,-0.000552749,0.0979481,1,2.61069e-05,-1.13193e-05,2.74442e-05,0.00522138,-0.00226385,0.00548883,0.999472,-0.000532106,0.0324774,0.000670525,-0.00229384,0.471986,-1.03292,32.9375,1,3285,380125
53,4,0.999472,-0.000532106,0.0324774,0.000670525,-0.667164,-0.0547268,9.79483,0.107184,-0.518095,1.02717,-0.00667383,-0.000552749,0.0979481,1,2.61069e-05,-1.13193e-05,2.74442e-05,0.00522138,-0.00226385,0.00548883,0.999472,-0.000532106,0.0324774,0.000670525,-0.00229384,0.471986,-1.03292,32.9375,1,3285,380125
54,1,0.999472,-0.000532106,0.0324774,0.000670525,-0.667164,-0.0547268,9.79483,0.107184,-0.518095,1.02717,-0.00667383,-0.000552749,0.0979481,1,2.61069e-05,-1.13193e-05,2.74442e-05,0.00522138,-0.00226385,0.00548883,0.999472,-0.000532106,0.0324774,0.000670525,-0.00229384,0.471986,-1.03292,32.9375,1,3285,380125
54,2,0.999472,-0.000501251,0.0324854,0.000689744,-0.664974,-0.0521813,9.78635,0.114876,-0.515523,1.0191,-0.00665009,-0.000529199,0.0978634,1,3.61986e-05,-1.93355e-06,2.26516e-05,0.00723973,-0.00038671,0.00453033,0.999472,-0.000501251,0.0324854,0.000689744,-0.00315312,0.472401,-1.02836,32.9375,1,3286,380225
54,3,0.999472,-0.000501251,0.0324854,0.000689744,-0.664974,-0.0521813,9.78635,0.114876,-0.515523,1.0191,-0.00665009,-0.000529199,0.0978634,1,3.61986e-05,-1.93355e-06,2.26516e-05,0.00723973,-0.00038671,0.00453033,0.999472,-0.000501251,0.0324854,0.000689744,-0.00315312,0.472401,-1.02836,32.9375,1,3286,380225
54,4,0.999472,-0.000501251,0.0324854,0.000689744,-0.664974,-0.0521813,9.78635,0.114876,-0.515523,1.0191,-0.00665009,-0.000529199,0.0978634,1,3.61986e-05,-1.93355e-06,2.26516e-05,0.00723973,-0.00038671,0.00453033,0.999472,-0.000501251,0.0324854,0.000689744,-0.00315312,0.472401,-1.02836,32.9375,1,3286,380225
55,1,0.999472,-0.0004627,0.0324757,0.000692281,-0.663768,-0.0629326,9.77676,0.112695,-0.526845,1.00634,-0.00664012,-0.000637009,0.0977674,1,3.87374e-05,-1.25153e-05,8.18614e-06,0.00774749,-0.00250305,0.00163723,0.999472,-0.0004627,0.0324757,0.000692281,-0.00260986,0.473797,-1.0248,32.9375,1,3287,380325
55,2,0.999472,-0.0004627,0.0324757,0.000692281,-0.663768,-0.0629326,9.77676,0.112695,-0.526845,1.00634,-0.00664012,-0.000637009,0.0977674,1,3.87374e-05,-1.25153e-05,8.18614e-06,0.00774749,-0.00250305,0.00163723,0.999472,-0.0004627,0.0324757,0.000692281,-0.00260986,0.473797,-1.0248,32.9375,1,3287,380325
55,3,0.999472,-0.0004627,0.0324757,0.000692281,-0.663768,-0.0629326,9.77676,0.112695,-0.526845,1.00634,-0.00664012,-0.000637009,0.0977674,1,3.87374e-05,-1.25153e-05,8.18614e-06,0.00774749,-0.00250305,0.00163723,0.999472,-0.0004627,0.0324757,0.000692281,-0.00260986,0.473797,-1.0248,32.9375,1,3287,380325
55,4,0.999472,-0.000424818,0.0324676,0.000694846,-0.674884,-0.0464569,9.78884,0.100656,-0.513093,1.02394,-0.00674991,-0.000471659,0.0978882,1,3.52524e-05,-5.5282e-06,1.39681e-05,0.00705047,-0.00110564,0.00279363,0.999472,-0.000424818,0.0324676,0.000694846,-0.00124387,0.476251,-1.02626,32.9375,1,3288,380425
56,1,0.999472,-0.000424818,0.0324676,0.000694846,-0.674884,-0.0464569,9.78884,0.100656,-0.513093,1.02394,-0.00674991,-0.000471659,0.0978882,1,3.52524e-05,-5.5282e-06,1.39681e-05,0.00705047,-0.00110564,0.00279363,0.999472,-0.000424818,0.0324676,0.000694846,-0.00124387,0.476251,-1.02626,32.9375,1,3288,380425
56,2,0.999472,-0.000424818,0.0324676,0.000694846,-0.674884,-0.0464569,9.78884,0.100656,-0.513093,1.02394,-0.00674991,-0.000471659,0.0978882,1,3.52524e-05,-5.5282e-06,1.39681e-05,0.00705047,-0.00110564,0.00279363,0.999472,-0.000424818,0.0324676,0.000694846,-0.00124387,0.476251,-1.02626,32.9375,1,3288,380425
56,3,0.999472,-0.000409739,0.03247,0.000701673,-0.662316,-0.0551065,9.79072,0.113487,-0.514977,1.02143,-0.00662249,-0.000554891,0.0979072,1,1.85034e-05,3.30804e-06,1.53036e-05,0.00370068,0.000661607,0.00306071,0.999472,-0.000409739,0.03247,0.000701673,-0.00139571,0.477326,-1.03179,32.9375,1,3289,380525
56,4,0.999472,-0.000409739,0.03247,0.000701673,-0.662316,-0.0551065,9.79072,0.113487,-0.514977,1.02143,-0.00662249,-0.000554891,0.0979072,1,1.85034e-05,3.30804e-06,1.53036e-05,0.00370068,0.000661607,0.00306071,0.999472,-0.000409739,0.03247,0.000701673,-0.00139571,0.477326,-1.03179,32.9375,1,3289,380525
56,5,0.999472,-0.000409739,0.03247,0.000701673,-0.662316,-0.0551065,9.79072,0.113487,-0.514977,1.02143,-0.00662249,-0.000554891,0.0979072,1,1.85034e-05,3.30804e-06,1.53036e-05,0.00370068,0.000661607,0.00306071,0.999472,-0.000409739,0.03247,0.000701673,-0.00139571,0.477326,-1.03179,32.9375,1,3289,380525
56,6,0.999472,-0.000389248,0.0324753,0.00070327,-0.670055,-0.0569949,9.78363,0.101343,-0.523779,1.01551,-0.00670058,-0.000576424,0.0978362,1,3.28105e-05,-1.86165e-07,4.11266e-06,0.0065621,-3.7233e-05,0.000822531,0.999472,-0.000389248,0.0324753,0.00070327,-0.0024609,0.476927,-1.03634,32.9375,1,3290,380625
57,1,0.999472,-0.000389248,0.0324753,0.00070327,-0.670055,-0.0569949,9.78363,0.101343,-0.523779,1.01551,-0.00670058,-0.000576424,0.0978362,1,3.28105e-05,-1.86165e-07,4.11266e-06,0.0065621,-3.7233e-05,0.000822531,0.999472,-0.000389248,0.0324753,0.00070327,-0.0024609,0.476927,-1.03634,32.9375,1,3290,380625
57,2,0.999472,-0.000389248,0.0324753,0.00070327,-0.670055,-0.0569949,9.78363,0.101343,-0.523779,1.01551,-0.00670058,-0.000576424,0.0978362,1,3.28105e-05,-1.86165e-07,4.11266e-06,0.0065621,-3.7233e-05,0.000822531,0.999472,-0.000389248,0.0324753,0.00070327,-0.0024609,0.476927,-1.03634,32.9375,1,3290,380625
57,3,0.999472,-0.000372433,0.0324735,0.000726052,-0.661172,-0.0487911,9.78873,0.113728,-0.510811,1.01825,-0.00661406,-0.000495067,0.0978871,1,3.56101e-05,-1.20084e-05,1.39158e-05,0.00712201,-0.00240169,0.00278317,0.999472,-0.000372433,0.0324735,0.000726052,-0.00235079,0.473956,-1.03388,32.9375,1,3291,380725
57,4,0.999472,-0.000372433,0.0324735,0.000726052,-0.661172,-0.0487911,9.78873,0.113728,-0.510811,1.01825,-0.00661406,-0.000495067,0.0978871,1,3.56101e-05,-1.20084e-05,1.39158e-05,0.00712201,-0.00240169,0.00278317,0.999472,-0.000372433,0.0324735,0.000726052,-0.00235079,0.473956,-1.03388,32.9375,1,3291,380725
57,5,0.999472,-0.000372433,0.0324735,0.000726052,-0.661172,-0.0487911,9.78873,0.113728,-0.510811,1.01825,-0.00661406,-0.000495067,0.0978871,1,3.56101e-05,-1.20084e-05,1.39158e-05,0.00712201,-0.00240169,0.00278317,0.999472,-0.000372433,0.0324735,0.000726052,-0.00235079,0.473956,-1.03388,32.9375,1,3291,380725
57,6,0.999472,-0.000347632,0.0324766,0.000742502,-0.668638,-0.0487105,9.79014,0.106958,-0.517452,1.0222,-0.00668796,-0.000494737,0.0979012,1,3.82029e-05,-8.09862e-06,1.14031e-05,0.00764058,-0.00161972,0.00228062,0.999472,-0.000347632,0.0324766,0.000742502,-0.00221555,0.472411,-1.02937,32.9375,1,3292,380825
58,1,0.999472,-0.000347632,0.0324766,0.000742502,-0.668638,-0.0487105,9.79014,0.106958,-0.517452,1.0222,-0.00668796,-0.000494737,0.0979012,1,3.82029e-05,-8.09862e-06,1.14031e-05,0.00764058,-0.00161972,0.00228062,0.999472,-0.000347632,0.0324766,0.000742502,-0.00221555,0.472411,-1.02937,32.9375,1,3292,380825
58,2,0.999472,-0.000347632,0.0324766,0.000742502,-0.668638,-0.0487105,9.79014,0.106958,-0.517452,1.0222,-0.00668796,-0.000494737,0.0979012,1,3.82029e-05,-8.09862e-06,1.14031e-05,0.00764058,-0.00161972,0.00228062,0.999472,-0.000347632,0.0324766,0.000742502,-0.00221555,0.472411,-1.02937,32.9375,1,3292,380825
58,3,0.999472,-0.000316894,0.0324807,0.000748024,-0.663414,-0.0433054,9.78675,0.112858,-0.508321,1.01811,-0.00663411,-0.00043942,0.0978674,1,3.14041e-05,7.64002e-08,1.64715e-05,0.00628083,1.528e-05,0.0032943,0.999472,-0.000316894,0.0324807,0.000748024,-0.00168464,0.473816,-1.02631,32.9375,1,3293,380925
58,4,0.999472,-0.000316894,0.0324807,0.000748024,-0.663414,-0.0433054,9.78675,0.112858,-0.508321,1.01811,-0.00663411,-0.00043942,0.0978674,1,3.14041e-05,7.64002e-08,1.64715e-05,0.00628083,1.528e-05,0.0032943,0.999472,-0.000316894,0.0324807,0.000748024,-0.00168464,0.473816,-1.02631,32.9375,1,3293,380925
58,5,0.999472,-0.000316894,0.0324807,0.000748024,-0.663414,-0.0433054,9.78675,0.112858,-0.508321,1.01811,-0.00663411,-0.00043942,0.0978674,1,3.14041e-05,7.64002e-08,1.64715e-05,0.00628083,1.528e-05,0.0032943,0.999472,-0.000316894,0.0324807,0.000748024,-0.00168464,0.473816,-1.02631,32.9375,1,3293,380925
58,6,0.999472,-0.000277509,0.032475,0.000734569,-0.660459,-0.0590012,9.79,0.111166,-0.523209,1.02115,-0.00660544,-0.00059697,0.0978999,1,3.53325e-05,-4.36606e-06,3.01565e-06,0.0070665,-0.000873213,0.000603131,0.999472,-0.000277509,0.032475,0.000734569,-0.000290168,0.475286,-1.0273,32.9375,1,3294,381025
59,1,0.999472,-0.000277509,0.032475,0.000734569,-0.660459,-0.0590012,9.79,0.111166,-0.523209,1.02115,-0.00660544,-0.00059697,0.0978999,1,3.53325e-05,-4.36606e-06,3.01565e-06,0.0070665,-0.000873213,0.000603131,0.999472,-0.000277509,0.032475,0.000734569,-0.000290168,0.475286,-1.0273,32.9375,1,3294,381025
59,2,0.999472,-0.000277509,0.032475,0.000734569,-0.660459,-0.0590012,9.79,0.111166,-0.523209,1.02115,-0.00660544,-0.00059697,0.0978999,1,3.53325e-05,-4.36606e-06,3.01565e-06,0.0070665,-0.000873213,0.000603131,0.999472,-0.000277509,0.032475,0.000734569,-0.000290168,0.475286,-1.0273,32.9375,1,3294,381025
59,3,0.999472,-0.000243202,0.0324665,0.000723499,-0.664947,-0.0484212,9.78503,0.103273,-0.518176,1.01739,-0.00665142,-0.000491903,0.0978501,1,3.87915e-05,-1.00061e-05,7.45242e-06,0.00775829,-0.00200123,0.00149048,0.999472,-0.000243202,0.0324665,0.000723499,0.000557236,0.476325,-1.03132,32.9375,1,3295,381125
59,4,0.999472,-0.000243202,0.0324665,0.000723499,-0.664947,-0.0484212,9.78503,0.103273,-0.518176,1.01739,-0.00665142,-0.000491903,0.0978501,1,3.87915e-05,-1.00061e-05,7.45242e-06,0.00775829,-0.00200123,0.00149048,0.999472,-0.000243202,0.0324665,0.000723499,0.000557236,0.476325,-1.03132,32.9375,1,3295,381125
60,1,0.999472,-0.000243202,0.0324665,0.000723499,-0.664947,-0.0484212,9.78503,0.103273,-0.518176,1.01739,-0.00665142,-0.000491903,0.0978501,1,3.87915e-05,-1.00061e-05,7.45242e-06,0.00775829,-0.00200123,0.00149048,0.999472,-0.000243202,0.0324665,0.000723499,0.000557236,0.476325,-1.03132,32.9375,1,3295,381125
60,2,0.999472,-0.000218719,0.0324694,0.000706689,-0.659117,-0.0473613,9.79653,0.117867,-0.518602,1.02723,-0.00659198,-0.000481599,0.0979652,1,4.1034e-05,-4.13709e-06,-4.11288e-06,0.00820681,-0.000827419,-0.000822576,0.999472,-0.000218719,0.0324694,0.000706689,-0.00288887,0.475929,-1.03485,32.9375,1,3296,381225
60,3,0.999472,-0.000218719,0.0324694,0.000706689,-0.659117,-0.0473613,9.79653,0.117867,-0.518602,1.02723,-0.00659198,-0.000481599,0.0979652,1,4.1034e-05,-4.13709e-06,-4.11288e-06,0.00820681,-0.000827419,-0.000822576,0.999472,-0.000218719,0.0324694,0.000706689,-0.00288887,0.475929,-1.03485,32.9375,1,3296,381225
60,4,0.999472,-0.000218719,0.0324694,0.000706689,-0.659117,-0.0473613,9.79653,0.117867,-0.518602,1.02723,-0.00659198,-0.000481599,0.0979652,1,4.1034e-05,-4.13709e-06,-4.11288e-06,0.00820681,-0.000827419,-0.000822576,0.999472,-0.000218719,0.0324694,0.000706689,-0.00288887,0.475929,-1.03485,32.9375,1,3296,381225
61,1,0.999472,-0.000216362,0.0324781,0.000721687,-0.671964,-0.0461452,9.77457,0.102202,-0.511757,1.00707,-0.00671981,-0.000465764,0.0977457,1,2.18321e-05,-8.88427e-07,3.23922e-06,0.00436641,-0.000177685,0.000647844,0.999472,-0.000216362,0.0324781,0.000721687,-0.00372485,0.471989,-1.03241,32.9375,1,3297,381325
61,2,0.999472,-0.000216362,0.0324781,0.000721687,-0.671964,-0.0461452,9.77457,0.102202,-0.511757,1.00707,-0.00671981,-0.000465764,0.0977457,1,2.18321e-05,-8.88427e-07,3.23922e-06,0.00436641,-0.000177685,0.000647844,0.999472,-0.000216362,0.0324781,0.000721687,-0.00372485,0.471989,-1.03241,32.9375,1,3297,381325
61,3,0.999472,-0.000216362,0.0324781,0.000721687,-0.671964,-0.0461452,9.77457,0.102202,-0.511757,1.00707,-0.00671981,-0.000465764,0.0977457,1,2.18321e-05,-8.88427e-07,3.23922e-06,0.00436641,-0.000177685,0.000647844,0.999472,-0.000216362,0.0324781,0.000721687,-0.00372485,0.471989,-1.03241,32.9375,1,3297,381325
61,4,0.999472,-0.000190132,0.0324751,0.000754106,-0.664533,-0.0480879,9.79317,0.11144,-0.518092,1.02664,-0.00664791,-0.000487497,0.0979315,1,3.24901e-05,-1.32525e-05,1.91444e-05,0.00649802,-0.00265051,0.00382888,0.999472,-0.000190132,0.0324751,0.000754106,-0.00408261,0.471903,-1.02736,32.9375,1,3298,381425
61,5,0.999472,-0.000190132,0.0324751,0.000754106,-0.664533,-0.0480879,9.79317,0.11144,-0.518092,1.02664,-0.00664791,-0.000487497,0.0979315,1,3.24901e-05,-1.32525e-05,1.91444e-05,0.00649802,-0.00265051,0.00382888,0.999472,-0.000190132,0.0324751,0.000754106,-0.00408261,0.471903,-1.02736,32.9375,1,3298,381425
61,6,0.999472,-0.000190132,0.0324751,0.000754106,-0.664533,-0.0480879,9.79317,0.11144,-0.518092,1.02664,-0.00664791,-0.000487497,0.0979315,1,3.24901e-05,-1.32525e-05,1.91444e-05,0.00649802,-0.00265051,0.00382888,0.999472,-0.000190132,0.0324751,0.000754106,-0.00408261,0.471903,-1.02736,32.9375,1,3298,381425
62,1,0.999473,-0.000141388,0.0324611,0.000758778,-0.666211,-0.0490055,9.78877,0.105944,-0.521003,1.02045,-0.00666471,-0.000497996,0.0978874,1,3.99929e-05,-1.33216e-05,8.34089e-06,0.00799857,-0.00266432,0.00166818,0.999473,-0.000141388,0.0324611,0.000758778,-0.00358824,0.474781,-1.02477,32.9375,1,3299,381525
62,2,0.999473,-0.000141388,0.0324611,0.000758778,-0.666211,-0.0490055,9.78877,0.105944,-0.521003,1.02045,-0.00666471,-0.000497996,0.0978874,1,3.99929e-05,-1.33216e-05,8.34089e-06,0.00799857,-0.00266432,0.00166818,0.999473,-0.000141388,0.0324611,0.000758778,-0.00358824,0.474781,-1.02477,32.9375,1,3299,381525
62,3,0.999473,-0.000104478,0.0324473,0.000754779,-0.660761,-0.0522204,9.79107,0.117155,-0.521188,1.02123,-0.00660922,-0.000528035,0.0979106,1,2.96608e-05,-8.19191e-06,1.76755e-06,0.00593215,-0.00163838,0.000353511,0.999473,-0.000104478,0.0324473,0.000754779,-0.00175773,0.476761,-1.02726,32.9375,1,3300,381625
62,4,0.999473,-0.000104478,0.0324473,0.000754779,-0.660761,-0.0522204,9.79107,0.117155,-0.521188,1.02123,-0.00660922,-0.000528035,0.0979106,1,2.96608e-05,-8.19191e-06,1.76755e-06,0.00593215,-0.00163838,0.000353511,0.999473,-0.000104478,0.0324473,0.000754779,-0.00175773,0.476761,-1.02726,32.9375,1,3300,381625
63,1,0.999473,-0.000104478,0.0324473,0.000754779,-0.660761,-0.0522204,9.79107,0.117155,-0.521188,1.02123,-0.00660922,-0.000528035,0.0979106,1,2.96608e-05,-8.19191e-06,1.76755e-06,0.00593215,-0.00163838,0.000353511,0.999473,-0.000104478,0.0324473,0.000754779,-0.00175773,0.476761,-1.02726,32.9375,1,3300,381625
63,2,0.999473,-6.98896e-05,0.0324446,0.000754911,-0.668126,-0.0433964,9.79119,0.10097,-0.512807,1.02098,-0.00668185,-0.000441753,0.0979118,1,3.93446e-05,-3.05866e-06,6.28661e-06,0.00786892,-0.000611732,0.00125732,0.999473,-6.98896e-05,0.0324446,0.000754911,-0.00091886,0.476843,-1.03231,32.9375,1,3301,381725
63,3,0.999473,-6.98896e-05,0.0324446,0.000754911,-0.668126,-0.0433964,9.79119,0.10097,-0.512807,1.02098,-0.00668185,-0.000441753,0.0979118,1,3.93446e-05,-3.05866e-06,6.28661e-06,0.00786892,-0.000611732,0.00125732,0.999473,-6.98896e-05,0.0324446,0.000754911,-0.00091886,0.476843,-1.03231,32.9375,1,3301,381725
63,4,0.999473,-6.98896e-05,0.0324446,0.000754911,-0.668126,-0.0433964,9.79119,0.10097,-0.512807,1.02098,-0.00668185,-0.000441753,0.0979118,1,3.93446e-05,-3.05866e-06,6.28661e-06,0.00786892,-0.000611732,0.00125732,0.999473,-6.98896e-05,0.0324446,0.000754911,-0.00091886,0.476843,-1.03231,32.9375,1,3301,381725
64,1,0.999473,-3.91895e-05,0.0324402,0.000772166,-0.660746,-0.0571281,9.79713,0.116759,-0.530044,1.02754,-0.00661005,-0.000581007,0.0979711,1,4.81901e-05,-1.33328e-05,2.14768e-05,0.00963803,-0.00266656,0.00429536,0.999473,-3.91895e-05,0.0324402,0.000772166,-0.00286892,0.473987,-1.0354,32.9375,1,3302,381825
64,2,0.999473,-3.91895e-05,0.0324402,0.000772166,-0.660746,-0.0571281,9.79713,0.116759,-0.530044,1.02754,-0.00661005,-0.000581007,0.0979711,1,4.81901e-05,-1.33328e-05,2.14768e-05,0.00963803,-0.00266656,0.00429536,0.999473,-3.91895e-05,0.0324402,0.000772166,-0.00286892,0.473987,-1.0354,32.9375,1,3302,381825
64,3,0.999473,-3.91895e-05,0.0324402,0.000772166,-0.660746,-0.0571281,9.79713,0.116759,-0.530044,1.02754,-0.00661005,-0.000581007,0.0979711,1,4.81901e-05,-1.33328e-05,2.14768e-05,0.00963803,-0.00266656,0.00429536,0.999473,-3.91895e-05,0.0324402,0.000772166,-0.00286892,0.473987,-1.0354,32.9375,1,3302,381825
64,4,0.999473,-1.62737e-05,0.0324613,0.000797103,-0.658671,-0.0464936,9.77923,0.118109,-0.518505,1.01005,-0.00658556,-0.000473802,0.0977923,1,4.45042e-05,5.83752e-06,1.22152e-05,0.00890084,0.0011675,0.00244304,0.999473,-1.62737e-05,0.0324613,0.000797103,-0.00374145,0.47152,-1.03343,32.9375,1,3303,381925
64,5,0.999473,-1.62737e-05,0.0324613,0.000797103,-0.658671,-0.0464936,9.77923,0.118109,-0.518505,1.01005,-0.00658556,-0.000473802,0.0977923,1,4.45042e-05,5.83752e-06,1.22152e-05,0.00890084,0.0011675,0.00244304,0.999473,-1.62737e-05,0.0324613,0.000797103,-0.00374145,0.47152,-1.03343,32.9375,1,3303,381925
64,6,0.999473,-1.62737e-05,0.0324613,0.000797103,-0.658671,-0.0464936,9.77923,0.118109,-0.518505,1.01005,-0.00658556,-0.000473802,0.0977923,1,4.45042e-05,5.83752e-06,1.22152e-05,0.00890084,0.0011675,0.00244304,0.999473,-1.62737e-05,0.0324613,0.000797103,-0.00374145,0.47152,-1.03343,32.9375,1,3303,381925
65,1,0.999472,8.66508e-06,0.0324762,0.000821199,-0.66229,-0.0562614,9.78833,0.114128,-0.532356,1.02142,-0.00662262,-0.000570227,0.0978832,1,3.77967e-05,1.32432e-06,1.61288e-05,0.00755934,0.000264865,0.00322576,0.999472,8.66508e-06,0.0324762,0.000821199,-0.00458459,0.470959,-1.02889,32.9375,1,3304,382025
65,2,0.999472,8.66508e-06,0.0324762,0.000821199,-0.66229,-0.0562614,9.78833,0.114128,-0.532356,1.02142,-0.00662262,-0.000570227,0.0978832,1,3.77967e-05,1.32432e-06,1.61288e-05,0.00755934,0.000264865,0.00322576,0.999472,8.66508e-06,0.0324762,0.000821199,-0.00458459,0.470959,-1.02889,32.9375,1,3304,382025
65,3,0.999472,8.66508e-06,0.0324762,0.000821199,-0.66229,-0.0562614,9.78833,0.114128,-0.532356,1.02142,-0.00662262,-0.000570227,0.0978832,1,3.77967e-05,1.32432e-06,1.61288e-05,0.00755934,0.000264865,0.00322576,0.999472,8.66508e-06,0.0324762,0.000821199,-0.00458459,0.470959,-1.02889,32.9375,1,3304,382025
65,4,0.999472,5.35748e-05,0.0324693,0.000822593,-0.667743,-0.0493249,9.7796,0.105263,-0.524552,1.00845,-0.00667882,-0.000501471,0.0977959,1,4.12371e-05,-7.18962e-06,1.17217e-05,0.00824742,-0.00143792,0.00234435,0.999472,5.35748e-05,0.0324693,0.000822593,-0.00257712,0.473291,-1.0238,32.9375,1,3305,382125
66,1,0.999472,5.35748e-05,0.0324693,0.000822593,-0.667743,-0.0493249,9.7796,0.105263,-0.524552,1.00845,-0.00667882,-0.000501471,0.0977959,1,4.12371e-05,-7.18962e-06,1.17217e-05,0.00824742,-0.00143792,0.00234435,0.999472,5.35748e-05,0.0324693,0.000822593,-0.00257712,0.473291,-1.0238,32.9375,1,3305,382125
66,2,0.999472,5.35748e-05,0.0324693,0.000822593,-0.667743,-0.0493249,9.7796,0.105263,-0.524552,1.00845,-0.00667882,-0.000501471,0.0977959,1,4.12371e-05,-7.18962e-06,1.17217e-05,0.00824742,-0.00143792,0.00234435,0.999472,5.35748e-05,0.0324693,0.000822593,-0.00257712,0.473291,-1.0238,32.9375,1,3305,382125
66,3,0.999473,0.000114762,0.0324428,0.000811652,-0.664128,-0.0602285,9.78526,0.112547,-0.536497,1.01128,-0.00664486,-0.000612025,0.0978523,1,4.88346e-05,-1.83755e-05,1.3754e-05,0.00976691,-0.00367511,0.00275081,0.999473,0.000114762,0.0324428,0.000811652,0.000154857,0.478199,-1.02673,32.9375,1,3306,382225
66,4,0.999473,0.000114762,0.0324428,0.000811652,-0.664128,-0.0602285,9.78526,0.112547,-0.536497,1.01128,-0.00664486,-0.000612025,0.0978523,1,4.88346e-05,-1.83755e-05,1.3754e-05,0.00976691,-0.00367511,0.00275081,0.999473,0.000114762,0.0324428,0.000811652,0.000154857,0.478199,-1.02673,32.9375,1,3306,382225
66,5,0.999473,0.000114762,0.0324428,0.000811652,-0.664128,-0.0602285,9.78526,0.112547,-0.536497,1.01128,-0.00664486,-0.000612025,0.0978523,1,4.88346e-05,-1.83755e-05,1.3754e-05,0.00976691,-0.00367511,0.00275081,0.999473,0.000114762,0.0324428,0.000811652,0.000154857,0.478199,-1.02673,32.9375,1,3306,382225
66,6,0.999473,0.000149143,0.0324363,0.000809149,-0.673563,-0.0388759,9.79127,0.101439,-0.513142,1.02164,-0.00673713,-0.000397867,0.0979125,1,4.55583e-05,-7.73577e-06,1.3836e-05,0.00911167,-0.00154715,0.0027672,0.999473,0.000149143,0.0324363,0.000809149,1.0632e-05,0.477341,-1.03331,32.9375,1,3307,382325
67,1,0.999473,0.000149143,0.0324363,0.000809149,-0.673563,-0.0388759,9.79127,0.101439,-0.513142,1.02164,-0.00673713,-0.000397867,0.0979125,1,4.55583e-05,-7.73577e-06,1.3836e-05,0.00911167,-0.00154715,0.0027672,0.999473,0.000149143,0.0324363,0.000809149,1.0632e-05,0.477341,-1.03331,32.9375,1,3307,382325
67,2,0.999473,0.000149143,0.0324363,0.000809149,-0.673563,-0.0388759,9.79127,0.101439,-0.513142,1.02164,-0.00673713,-0.000397867,0.0979125,1,4.55583e-05,-7.73577e-06,1.3836e-05,0.00911167,-0.00154715,0.0027672,0.999473,0.000149143,0.0324363,0.000809149,1.0632e-05,0.477341,-1.03331,32.9375,1,3307,382325
67,3,0.999474,0.000159843,0.0324358,0.000821239,-0.666766,-0.0574098,9.79752,0.101386,-0.537864,1.02765,-0.00666988,-0.000581487,0.097975,1,3.63756e-05,-1.14537e-05,1.95688e-05,0.00727511,-0.00229073,0.00391376,0.999474,0.000159843,0.0324358,0.000821239,-0.00186587,0.472985,-1.03441,32.9375,1,3308,382425
67,4,0.999474,0.000159843,0.0324358,0.000821239,-0.666766,-0.0574098,9.79752,0.101386,-0.537864,1.02765,-0.00666988,-0.000581487,0.097975,1,3.63756e-05,-1.14537e-05,1.95688e-05,0.00727511,-0.00229073,0.00391376,0.999474,0.000159843,0.0324358,0.000821239,-0.00186587,0.472985,-1.03441,32.9375,1,3308,382425
68,1,0.999474,0.000159843,0.0324358,0.000821239,-0.666766,-0.0574098,9.79752,0.101386,-0.537864,1.02765,-0.00666988,-0.000581487,0.097975,1,3.63756e-05,-1.14537e-05,1.95688e-05,0.00727511,-0.00229073,0.00391376,0.999474,0.000159843,0.0324358,0.000821239,-0.00186587,0.472985,-1.03441,32.9375,1,3308,382425
68,2,0.999473,0.00018263,0.0324443,0.000846377,-0.668052,-0.0415059,9.78138,0.104127,-0.520793,1.01442,-0.00668174,-0.000423946,0.0978137,1,4.39977e-05,-6.32179e-06,2.09618e-05,0.00879954,-0.00126436,0.00419237,0.999473,0.00018263,0.0324443,0.000846377,-0.00173916,0.470483,-1.03093,32.9375,1,3309,382525
68,3,0.999473,0.00018263,0.0324443,0.000846377,-0.668052,-0.0415059,9.78138,0.104127,-0.520793,1.01442,-0.00668174,-0.000423946,0.0978137,1,4.39977e-05,-6.32179e-06,2.09618e-05,0.00879954,-0.00126436,0.00419237,0.999473,0.00018263,0.0324443,0.000846377,-0.00173916,0.470483,-1.03093,32.9375,1,3309,382525
68,4,0.999473,0.00018263,0.0324443,0.000846377,-0.668052,-0.0415059,9.78138,0.104127,-0.520793,1.01442,-0.00668174,-0.000423946,0.0978137,1,4.39977e-05,-6.32179e-06,2.09618e-05,0.00879954,-0.00126436,0.00419237,0.999473,0.00018263,0.0324443,0.000846377,-0.00173916,0.470483,-1.03093,32.9375,1,3309,382525
69,1,0.999473,0.000210038,0.0324495,0.000845856,-0.668021,-0.0545335,9.78296,0.104543,-0.529834,1.01306,-0.00668127,-0.000551842,0.0978295,1,3.24231e-05,-5.47422e-06,1.22545e-05,0.00648461,-0.00109484,0.00245089,0.999473,0.000210038,0.0324495,0.000845856,-0.0040788,0.470937,-1.02788,32.9375,1,3310,382625
69,2,0.999473,0.000210038,0.0324495,0.000845856,-0.668021,-0.0545335,9.78296,0.104543,-0.529834,1.01306,-0.00668127,-0.000551842,0.0978295,1,3.24231e-05,-5.47422e-06,1.22545e-05,0.00648461,-0.00109484,0.00245089,0.999473,0.000210038,0.0324495,0.000845856,-0.0040788,0.470937,-1.02788,32.9375,1,3310,382625
69,3,0.999473,0.000210038,0.0324495,0.000845856,-0.668021,-0.0545335,9.78296,0.104543,-0.529834,1.01306,-0.00668127,-0.000551842,0.0978295,1,3.24231e-05,-5.47422e-06,1.22545e-05,0.00648461,-0.00109484,0.00245089,0.999473,0.000210038,0.0324495,0.000845856,-0.0040788,0.470937,-1.02788,32.9375,1,3310,382625
69,4,0.999473,0.000254664,0.0324425,0.000850575,-0.663209,-0.0541506,9.78666,0.108858,-0.531985,1.0183,-0.00663406,-0.000549427,0.0978664,1,3.99574e-05,-1.00827e-05,7.54381e-06,0.00799148,-0.00201654,0.00150876,0.999473,0.000254664,0.0324425,0.000850575,-0.00213727,0.472836,-1.02583,32.9375,1,3311,382725
70,1,0.999473,0.000254664,0.0324425,0.000850575,-0.663209,-0.0541506,9.78666,0.108858,-0.531985,1.0183,-0.00663406,-0.000549427,0.0978664,1,3.99574e-05,-1.00827e-05,7.54381e-06,0.00799148,-0.00201654,0.00150876,0.999473,0.000254664,0.0324425,0.000850575,-0.00213727,0.472836,-1.02583,32.9375,1,3311,382725
70,2,0.999473,0.000254664,0.0324425,0.000850575,-0.663209,-0.0541506,9.78666,0.108858,-0.531985,1.0183,-0.00663406,-0.000549427,0.0978664,1,3.99574e-05,-1.00827e-05,7.54381e-06,0.00799148,-0.00201654,0.00150876,0.999473,0.000254664,0.0324425,0.000850575,-0.00213727,0.472836,-1.02583,32.9375,1,3311,382725
70,3,0.999474,0.000296127,0.0324303,0.000853678,-0.656363,-0.052858,9.79544,0.120623,-0.534187,1.02668,-0.00656607,-0.000536637,0.0979542,1,3.96854e-05,-1.25786e-05,2.151e-05,0.00793707,-0.00251572,0.00430201,0.999474,0.000296127,0.0324303,0.000853678,-0.000318646,0.47627,-1.02778,32.9375,1,3312,382825
70,4,0.999474,0.000296127,0.0324303,0.000853678,-0.656363,-0.052858,9.79544,0.120623,-0.534187,1.02668,-0.00656607,-0.000536637,0.0979542,1,3.96854e-05,-1.25786e-05,2.151e-05,0.00793707,-0.00251572,0.00430201,0.999474,0.000296127,0.0324303,0.000853678,-0.000318646,0.47627,-1.02778,32.9375,1,3312,382825
71,1,0.999474,0.000296127,0.0324303,0.000853678,-0.656363,-0.052858,9.79544,0.120623,-0.534187,1.02668,-0.00656607,-0.000536637,0.0979542,1,3.96854e-05,-1.25786e-05,2.151e-05,0.00793707,-0.00251572,0.00430201,0.999474,0.000296127,0.0324303,0.000853678,-0.000318646,0.47627,-1.02778,32.9375,1,3312,382825
71,2,0.999474,0.000310944,0.0324351,0.000825337,-0.672189,-0.0546509,9.77789,0.106334,-0.533763,1.00586,-0.0067215,-0.000551727,0.0977789,1,2.68053e-05,1.98552e-06,-1.82167e-06,0.00536106,0.000397105,-0.000364334,0.999474,0.000310944,0.0324351,0.000825337,-0.000388399,0.476803,-1.03029,32.9375,1,3313,382925
71,3,0.999474,0.000310944,0.0324351,0.000825337,-0.672189,-0.0546509,9.77789,0.106334,-0.533763,1.00586,-0.0067215,-0.000551727,0.0977789,1,2.68053e-05,1.98552e-06,-1.82167e-06,0.00536106,0.000397105,-0.000364334,0.999474,0.000310944,0.0324351,0.000825337,-0.000388399,0.476803,-1.03029,32.9375,1,3313,382925
71,4,0.999474,0.000310944,0.0324351,0.000825337,-0.672189,-0.0546509,9.77789,0.106334,-0.533763,1.00586,-0.0067215,-0.000551727,0.0977789,1,2.68053e-05,1.98552e-06,-1.82167e-06,0.00536106,0.000397105,-0.000364334,0.999474,0.000310944,0.0324351,0.000825337,-0.000388399,0.476803,-1.03029,32.9375,1,3313,382925
72,1,0.999474,0.000342029,0.0324255,0.000821038,-0.662538,-0.0493189,9.78636,0.110115,-0.533688,1.01329,-0.00662828,-0.000503474,0.0978634,1,5.14313e-05,-1.48918e-05,1.65367e-05,0.0102863,-0.00297836,0.00330735,0.999474,0.000342029,0.0324255,0.000821038,-0.00185688,0.475388,-1.03234,32.9375,1,3314,383025
72,2,0.999474,0.000342029,0.0324255,0.000821038,-0.662538,-0.0493189,9.78636,0.110115,-0.533688,1.01329,-0.00662828,-0.000503474,0.0978634,1,5.14313e-05,-1.48918e-05,1.65367e-05,0.0102863,-0.00297836,0.00330735,0.999474,0.000342029,0.0324255,0.000821038,-0.00185688,0.475388,-1.03234,32.9375,1,3314,383025
72,3,0.999474,0.000342029,0.0324255,0.000821038,-0.662538,-0.0493189,9.78636,0.110115,-0.533688,1.01329,-0.00662828,-0.000503474,0.0978634,1,5.14313e-05,-1.48918e-05,1.65367e-05,0.0102863,-0.00297836,0.00330735,0.999474,0.000342029,0.0324255,0.000821038,-0.00185688,0.475388,-1.03234,32.9375,1,3314,383025
72,4,0.999474,0.000372158,0.0324137,0.000824141,-0.664037,-0.0551784,9.79244,0.109,-0.53994,1.02613,-0.00664425,-0.000561953,0.097924,1,5.14241e-05,-1.98553e-05,7.35727e-06,0.0102848,-0.00397105,0.00147145,0.999474,0.000372158,0.0324137,0.000824141,-0.00131926,0.471969,-1.03242,32.9375,1,3315,383125
73,1,0.999474,0.000372158,0.0324137,0.000824141,-0.664037,-0.0551784,9.79244,0.109,-0.53994,1.02613,-0.00664425,-0.000561953,0.097924,1,5.14241e-05,-1.98553e-05,7.35727e-06,0.0102848,-0.00397105,0.00147145,0.999474,0.000372158,0.0324137,0.000824141,-0.00131926,0.471969,-1.03242,32.9375,1,3315,383125
73,2,0.999474,0.000372158,0.0324137,0.000824141,-0.664037,-0.0551784,9.79244,0.109,-0.53994,1.02613,-0.00664425,-0.000561953,0.097924,1,5.14241e-05,-1.98553e-05,7.35727e-06,0.0102848,-0.00397105,0.00147145,0.999474,0.000372158,0.0324137,0.000824141,-0.00131926,0.471969,-1.03242,32.9375,1,3315,383125
73,3,0.999474,0.000386531,0.0324181,0.000842312,-0.664205,-0.0501161,9.78942,0.105884,-0.534785,1.0218,-0.00664389,-0.000507521,0.097894,1,3.12682e-05,-9.46415e-06,1.79578e-05,0.00625364,-0.00189283,0.00359155,0.999474,0.000386531,0.0324181,0.000842312,-0.0021624,0.471408,-1.02788,32.9375,1,3316,383225
73,4,0.999474,0.000386531,0.0324181,0.000842312,-0.664205,-0.0501161,9.78942,0.105884,-0.534785,1.0218,-0.00664389,-0.000507521,0.097894,1,3.12682e-05,-9.46415e-06,1.79578e-05,0.00625364,-0.00189283,0.00359155,0.999474,0.000386531,0.0324181,0.000842312,-0.0021624,0.471408,-1.02788,32.9375,1,3316,383225
73,5,0.999474,0.000386531,0.0324181,0.000842312,-0.664205,-0.0501161,9.78942,0.105884,-0.534785,1.0218,-0.00664389,-0.000507521,0.097894,1,3.12682e-05,-9.46415e-06,1.79578e-05,0.00625364,-0.00189283,0.00359155,0.999474,0.000386531,0.0324181,0.000842312,-0.0021624,0.471408,-1.02788,32.9375,1,3316,383225
73,6,0.999473,0.00043522,0.0324323,0.00085266,-0.660751,-0.0471725,9.7789,0.107448,-0.5288,1.0124,-0.00660607,-0.000481197,0.097789,1,4.71491e-05,7.28116e-06,1.90028e-05,0.00942982,0.00145623,0.00380056,0.999473,0.00043522,0.0324323,0.00085266,-0.00114183,0.473767,-1.02379,32.9375,1,3317,383325
74,1,0.999473,0.00043522,0.0324323,0.00085266,-0.660751,-0.0471725,9.7789,0.107448,-0.5288,1.0124,-0.00660607,-0.000481197,0.097789,1,4.71491e-05,7.28116e-06,1.90028e-05,0.00942982,0.00145623,0.00380056,0.999473,0.00043522,0.0324323,0.00085266,-0.00114183,0.473767,-1.02379,32.9375,1,3317,383325
74,2,0.999473,0.00043522,0.0324323,0.00085266,-0.660751,-0.0471725,9.7789,0.107448,-0.5288,1.0124,-0.00660607,-0.000481197,0.097789,1,4.71491e-05,7.28116e-06,1.90028e-05,0.00942982,0.00145623,0.00380056,0.999473,0.00043522,0.0324323,0.00085266,-0.00114183,0.473767,-1.02379,32.9375,1,3317,383325
74,3,0.999473,0.000471825,0.0324335,0.000840109,-0.661908,-0.0553214,9.79275,0.110562,-0.541413,1.02332,-0.00661849,-0.000559382,0.0979275,1,3.02456e-05,2.89835e-06,1.84533e-05,0.00604912,0.00057967,0.00369065,0.999473,0.000471825,0.0324335,0.000840109,-0.00028971,0.476731,-1.02626,32.9375,1,3318,383425
74,4,0.999473,0.000471825,0.0324335,0.000840109,-0.661908,-0.0553214,9.79275,0.110562,-0.541413,1.02332,-0.00661849,-0.000559382,0.0979275,1,3.02456e-05,2.89835e-06,1.84533e-05,0.00604912,0.00057967,0.00369065,0.999473,0.000471825,0.0324335,0.000840109,-0.00028971,0.476731,-1.02626,32.9375,1,3318,383425
75,1,0.999473,0.000471825,0.0324335,0.000840109,-0.661908,-0.0553214,9.79275,0.110562,-0.541413,1.02332,-0.00661849,-0.000559382,0.0979275,1,3.02456e-05,2.89835e-06,1.84533e-05,0.00604912,0.00057967,0.00369065,0.999473,0.000471825,0.0324335,0.000840109,-0.00028971,0.476731,-1.02626,32.9375,1,3318,383425
75,2,0.999474,0.000489746,0.0324272,0.00082679,-0.670769,-0.0426787,9.78308,0.104435,-0.52475,1.01677,-0.00670892,-0.000432888,0.0978307,1,2.98751e-05,-6.39628e-06,1.90361e-05,0.00597502,-0.00127926,0.00380722,0.999474,0.000489746,0.0324272,0.00082679,8.03825e-05,0.476808,-1.0308,32.9375,1,3319,383525
75,3,0.999474,0.000489746,0.0324272,0.00082679,-0.670769,-0.0426787,9.78308,0.104435,-0.52475,1.01677,-0.00670892,-0.000432888,0.0978307,1,2.98751e-05,-6.39628e-06,1.90361e-05,0.00597502,-0.00127926,0.00380722,0.999474,0.000489746,0.0324272,0.00082679,8.03825e-05,0.476808,-1.0308,32.9375,1,3319,383525
75,4,0.999474,0.000489746,0.0324272,0.00082679,-0.670769,-0.0426787,9.78308,0.104435,-0.52475,1.01677,-0.00670892,-0.000432888,0.0978307,1,2.98751e-05,-6.39628e-06,1.90361e-05,0.00597502,-0.00127926,0.00380722,0.999474,0.000489746,0.0324272,0.00082679,8.03825e-05,0.476808,-1.0308,32.9375,1,3319,383525
75,5,0.999474,0.000487749,0.0324104,0.000808109,-0.673878,-0.0544318,9.78675,0.0928753,-0.539581,1.01644,-0.00674295,-0.000548915,0.0978672,1,2.27037e-05,-2.13666e-05,1.13564e-05,0.00454074,-0.00427331,0.00227128,0.999474,0.000487749,0.0324104,0.000808109,-0.000956329,0.475425,-1.03487,32.9375,1,3320,383625
75,6,0.999474,0.000487749,0.0324104,0.000808109,-0.673878,-0.0544318,9.78675,0.0928753,-0.539581,1.01644,-0.00674295,-0.000548915,0.0978672,1,2.27037e-05,-2.13666e-05,1.13564e-05,0.00454074,-0.00427331,0.00227128,0.999474,0.000487749,0.0324104,0.000808109,-0.000956329,0.475425,-1.03487,32.9375,1,3320,383625
76,1,0.999474,0.000487749,0.0324104,0.000808109,-0.673878,-0.0544318,9.78675,0.0928753,-0.539581,1.01644,-0.00674295,-0.000548915,0.0978672,1,2.27037e-05,-2.13666e-05,1.13564e-05,0.00454074,-0.00427331,0.00227128,0.999474,0.000487749,0.0324104,0.000808109,-0.000956329,0.475425,-1.03487,32.9375,1,3320,383625
76,2,0.999474,0.000486566,0.0324139,0.000811908,-0.661497,-0.0536069,9.79005,0.108395,-0.543838,1.02157,-0.0066161,-0.000542338,0.0979004,1,3.13763e-05,-5.79097e-06,9.48269e-06,0.00627525,-0.00115819,0.00189654,0.999474,0.000486566,0.0324139,0.000811908,-0.00138902,0.472502,-1.03493,32.9375,1,3321,383725
76,3,0.999474,0.000486566,0.0324139,0.000811908,-0.661497,-0.0536069,9.79005,0.108395,-0.543838,1.02157,-0.0066161,-0.000542338,0.0979004,1,3.13763e-05,-5.79097e-06,9.48269e-06,0.00627525,-0.00115819,0.00189654,0.999474,0.000486566,0.0324139,0.000811908,-0.00138902,0.472502,-1.03493,32.9375,1,3321,383725
76,4,0.999474,0.000486566,0.0324139,0.000811908,-0.661497,-0.0536069,9.79005,0.108395,-0.543838,1.02157,-0.0066161,-0.000542338,0.0979004,1,3.13763e-05,-5.79097e-06,9.48269e-06,0.00627525,-0.00115819,0.00189654,0.999474,0.000486566,0.0324139,0.000811908,-0.00138902,0.472502,-1.03493,32.9375,1,3321,383725
77,1,0.999474,0.000483847,0.0324221,0.000836081,-0.663609,-0.0498608,9.78365,0.106422,-0.535178,1.01072,-0.00663751,-0.000503468,0.0978364,1,2.42069e-05,-7.30155e-06,9.31883e-06,0.00484139,-0.00146031,0.00186377,0.999474,0.000483847,0.0324221,0.000836081,-0.0026848,0.470961,-1.02991,32.9375,1,3322,383825
77,2,0.999474,0.000483847,0.0324221,0.000836081,-0.663609,-0.0498608,9.78365,0.106422,-0.535178,1.01072,-0.00663751,-0.000503468,0.0978364,1,2.42069e-05,-7.30155e-06,9.31883e-06,0.00484139,-0.00146031,0.00186377,0.999474,0.000483847,0.0324221,0.000836081,-0.0026848,0.470961,-1.02991,32.9375,1,3322,383825
77,3,0.999474,0.000483847,0.0324221,0.000836081,-0.663609,-0.0498608,9.78365,0.106422,-0.535178,1.01072,-0.00663751,-0.000503468,0.0978364,1,2.42069e-05,-7.30155e-06,9.31883e-06,0.00484139,-0.00146031,0.00186377,0.999474,0.000483847,0.0324221,0.000836081,-0.0026848,0.470961,-1.02991,32.9375,1,3322,383825
77,4,0.999474,0.00052341,0.0324231,0.000853948,-0.658382,-0.0527481,9.78834,0.114267,-0.536033,1.01689,-0.00658571,-0.000535597,0.0978832,1,4.08403e-05,-9.68226e-06,9.17894e-06,0.00816807,-0.00193645,0.00183579,0.999474,0.00052341,0.0324231,0.000853948,-0.00165235,0.471865,-1.02636,32.9375,1,3323,383925
78,1,0.999474,0.00052341,0.0324231,0.000853948,-0.658382,-0.0527481,9.78834,0.114267,-0.536033,1.01689,-0.00658571,-0.000535597,0.0978832,1,4.08403e-05,-9.68226e-06,9.17894e-06,0.00816807,-0.00193645,0.00183579,0.999474,0.00052341,0.0324231,0.000853948,-0.00165235,0.471865,-1.02636,32.9375,1,3323,383925
78,2,0.999474,0.00052341,0.0324231,0.000853948,-0.658382,-0.0527481,9.78834,0.114267,-0.536033,1.01689,-0.00658571,-0.000535597,0.0978832,1,4.08403e-05,-9.68226e-06,9.17894e-06,0.00816807,-0.00193645,0.00183579,0.999474,0.00052341,0.0324231,0.000853948,-0.00165235,0.471865,-1.02636,32.9375,1,3323,383925
78,3,0.999474,0.000567274,0.0324154,0.000853218,-0.654607,-0.0545243,9.79135,0.117485,-0.540838,1.01843,-0.00654837,-0.000553057,0.0979133,1,3.87728e-05,-1.18355e-05,1.69257e-05,0.00775456,-0.00236711,0.00338515,0.999474,0.000567274,0.0324154,0.000853218,0.000145869,0.475796,-1.0288,32.9375,1,3324,384025
78,4,0.999474,0.000567274,0.0324154,0.000853218,-0.654607,-0.0545243,9.79135,0.117485,-0.540838,1.01843,-0.00654837,-0.000553057,0.0979133,1,3.87728e-05,-1.18355e-05,1.69257e-05,0.00775456,-0.00236711,0.00338515,0.999474,0.000567274,0.0324154,0.000853218,0.000145869,0.475796,-1.0288,32.9375,1,3324,384025
79,1,0.999474,0.000567274,0.0324154,0.000853218,-0.654607,-0.0545243,9.79135,0.117485,-0.540838,1.01843,-0.00654837,-0.000553057,0.0979133,1,3.87728e-05,-1.18355e-05,1.69257e-05,0.00775456,-0.00236711,0.00338515,0.999474,0.000567274,0.0324154,0.000853218,0.000145869,0.475796,-1.0288,32.9375,1,3324,384025
79,2,0.999474,0.000586647,0.0324169,0.000842799,-0.663239,-0.0600311,9.78355,0.113408,-0.545338,1.0169,-0.00663307,-0.000607366,0.0978354,1,3.50736e-05,-3.60618e-06,1.44691e-05,0.00701471,-0.000721235,0.00289383,0.999474,0.000586647,0.0324169,0.000842799,0.000520686,0.477798,-1.03179,32.9375,1,3325,384125
79,3,0.999474,0.000586647,0.0324169,0.000842799,-0.663239,-0.0600311,9.78355,0.113408,-0.545338,1.0169,-0.00663307,-0.000607366,0.0978354,1,3.50736e-05,-3.60618e-06,1.44691e-05,0.00701471,-0.000721235,0.00289383,0.999474,0.000586647,0.0324169,0.000842799,0.000520686,0.477798,-1.03179,32.9375,1,3325,384125
79,4,0.999474,0.000586647,0.0324169,0.000842799,-0.663239,-0.0600311,9.78355,0.113408,-0.545338,1.0169,-0.00663307,-0.000607366,0.0978354,1,3.50736e-05,-3.60618e-06,1.44691e-05,0.00701471,-0.000721235,0.00289383,0.999474,0.000586647,0.0324169,0.000842799,0.000520686,0.477798,-1.03179,32.9375,1,3325,384125
80,1,0.999474,0.000599961,0.0324107,0.000824892,-0.670312,-0.0511047,9.78233,0.102624,-0.536837,1.01087,-0.00670558,-0.000519664,0.0978231,1,4.34239e-05,-1.25839e-05,8.98332e-06,0.00868478,-0.00251678,0.00179666,0.999474,0.000599961,0.0324107,0.000824892,-0.000960134,0.476391,-1.03434,32.9375,1,3326,384225
80,2,0.999474,0.000599961,0.0324107,0.000824892,-0.670312,-0.0511047,9.78233,0.102624,-0.536837,1.01087,-0.00670558,-0.000519664,0.0978231,1,4.34239e-05,-1.25839e-05,8.98332e-06,0.00868478,-0.00251678,0.00179666,0.999474,0.000599961,0.0324107,0.000824892,-0.000960134,0.476391,-1.03434,32.9375,1,3326,384225
80,3,0.999474,0.000599961,0.0324107,0.000824892,-0.670312,-0.0511047,9.78233,0.102624,-0.536837,1.01087,-0.00670558,-0.000519664,0.0978231,1,4.34239e-05,-1.25839e-05,8.98332e-06,0.00868478,-0.00251678,0.00179666,0.999474,0.000599961,0.0324107,0.000824892,-0.000960134,0.476391,-1.03434,32.9375,1,3326,384225
80,4,0.999474,0.000611836,0.0324112,0.000839597,-0.654934,-0.0531353,9.79849,0.118874,-0.542219,1.0297,-0.00655103,-0.000540182,0.0979848,1,4.37592e-05,-8.75791e-06,1.93062e-05,0.00875184,-0.00175158,0.00386124,0.999474,0.000611836,0.0324112,0.000839597,-0.00184927,0.473455,-1.03339,32.9375,1,3327,384325
80,5,0.999474,0.000611836,0.0324112,0.000839597,-0.654934,-0.0531353,9.79849,0.118874,-0.542219,1.0297,-0.00655103,-0.000540182,0.0979848,1,4.37592e-05,-8.75791e-06,1.93062e-05,0.00875184,-0.00175158,0.00386124,0.999474,0.000611836,0.0324112,0.000839597,-0.00184927,0.473455,-1.03339,32.9375,1,3327,384325
80,6,0.999474,0.000611836,0.0324112,0.000839597,-0.654934,-0.0531353,9.79849,0.118874,-0.542219,1.0297,-0.00655103,-0.000540182,0.0979848,1,4.37592e-05,-8.75791e-06,1.93062e-05,0.00875184,-0.00175158,0.00386124,0.999474,0.000611836,0.0324112,0.000839597,-0.00184927,0.473455,-1.03339,32.9375,1,3327,384325
81,1,0.999474,0.000645711,0.0324094,0.00086897,-0.667629,-0.0414429,9.78985,0.102893,-0.52846,1.01941,-0.00667904,-0.000425295,0.0978983,1,5.41806e-05,-1.40838e-05,1.9323e-05,0.0108361,-0.00281676,0.0038646,0.999474,0.000645711,0.0324094,0.00086897,-0.0017387,0.471928,-1.02989,32.9375,1,3328,384425
81,2,0.999474,0.000645711,0.0324094,0.00086897,-0.667629,-0.0414429,9.78985,0.102893,-0.52846,1.01941,-0.00667904,-0.000425295,0.0978983,1,5.41806e-05,-1.40838e-05,1.9323e-05,0.0108361,-0.00281676,0.0038646,0.999474,0.000645711,0.0324094,0.00086897,-0.0017387,0.471928,-1.02989,32.9375,1,3328,384425
81,3,0.999474,0.000645711,0.0324094,0.00086897,-0.667629,-0.0414429,9.78985,0.102893,-0.52846,1.01941,-0.00667904,-0.000425295,0.0978983,1,5.41806e-05,-1.40838e-05,1.9323e-05,0.0108361,-0.00281676,0.0038646,0.999474,0.000645711,0.0324094,0.00086897,-0.0017387,0.471928,-1.02989,32.9375,1,3328,384425
81,4,0.999474,0.000676191,0.0324006,0.000873469,-0.662826,-0.0457593,9.79895,0.110792,-0.538706,1.03244,-0.00663177,-0.00046455,0.0979892,1,3.4956e-05,-1.79581e-05,7.98549e-06,0.00699119,-0.00359163,0.0015971,0.999474,0.000676191,0.0324006,0.000873469,-0.000714332,0.473321,-1.02633,32.9375,1,3329,384525
81,5,0.999474,0.000676191,0.0324006,0.000873469,-0.662826,-0.0457593,9.79895,0.110792,-0.538706,1.03244,-0.00663177,-0.00046455,0.0979892,1,3.4956e-05,-1.79581e-05,7.98549e-06,0.00699119,-0.00359163,0.0015971,0.999474,0.000676191,0.0324006,0.000873469,-0.000714332,0.473321,-1.02633,32.9375,1,3329,384525
81,6,0.999474,0.000711451,0.0323992,0.000854936,-0.667024,-0.045372,9.78846,0.1018,-0.535934,1.01891,-0.00667118,-0.000460341,0.0978845,1,3.33078e-05,-4.79995e-06,7.50275e-06,0.00666157,-0.000959989,0.00150055,0.999474,0.000711451,0.0323992,0.000854936,-0.000326717,0.476758,-1.02777,32.9375,1,3330,384625
82,1,0.999474,0.000711451,0.0323992,0.000854936,-0.667024,-0.045372,9.78846,0.1018,-0.535934,1.01891,-0.00667118,-0.000460341,0.0978845,1,3.33078e-05,-4.79995e-06,7.50275e-06,0.00666157,-0.000959989,0.00150055,0.999474,0.000711451,0.0323992,0.000854936,-0.000326717,0.476758,-1.02777,32.9375,1,3330,384625
82,2,0.999474,0.000711451,0.0323992,0.000854936,-0.667024,-0.045372,9.78846,0.1018,-0.535934,1.01891,-0.00667118,-0.000460341,0.0978845,1,3.33078e-05,-4.79995e-06,7.50275e-06,0.00666157,-0.000959989,0.00150055,0.999474,0.000711451,0.0323992,0.000854936,-0.000326717,0.476758,-1.02777,32.9375,1,3330,384625
82,3,0.999475,0.00072853,0.0323934,0.000858685,-0.669058,-0.0447257,9.79187,0.102654,-0.538861,1.02314,-0.00669231,-0.000453475,0.0979186,1,2.99661e-05,-8.93701e-06,2.60585e-05,0.00599322,-0.0017874,0.00521171,0.999475,0.00072853,0.0323934,0.000858685,1.10902e-05,0.478786,-1.03227,32.9375,1,3331,384725
82,4,0.999475,0.00072853,0.0323934,0.000858685,-0.669058,-0.0447257,9.79187,0.102654,-0.538861,1.02314,-0.00669231,-0.000453475,0.0979186,1,2.99661e-05,-8.93701e-06,2.60585e-05,0.00599322,-0.0017874,0.00521171,0.999475,0.00072853,0.0323934,0.000858685,1.10902e-05,0.478786,-1.03227,32.9375,1,3331,384725
83,1,0.999475,0.00072853,0.0323934,0.000858685,-0.669058,-0.0447257,9.79187,0.102654,-0.538861,1.02314,-0.00669231,-0.000453475,0.0979186,1,2.99661e-05,-8.93701e-06,2.60585e-05,0.00599322,-0.0017874,0.00521171,0.999475,0.00072853,0.0323934,0.000858685,1.10902e-05,0.478786,-1.03227,32.9375,1,3331,384725
83,2,0.999475,0.000741919,0.0323916,0.000847175,-0.666735,-0.0473191,9.78165,0.104259,-0.538462,1.00767,-0.00666885,-0.000481723,0.0978164,1,4.30047e-05,-7.71689e-06,8.94451e-06,0.00860095,-0.00154338,0.0017889,0.999475,0.000741919,0.0323916,0.000847175,0.00043007,0.477382,-1.03584,32.9375,1,3332,384825
83,3,0.999475,0.000741919,0.0323916,0.000847175,-0.666735,-0.0473191,9.78165,0.104259,-0.538462,1.00767,-0.00666885,-0.000481723,0.0978164,1,4.30047e-05,-7.71689e-06,8.94451e-06,0.00860095,-0.00154338,0.0017889,0.999475,0.000741919,0.0323916,0.000847175,0.00043007,0.477382,-1.03584,32.9375,1,3332,384825
83,4,0.999475,0.000741919,0.0323916,0.000847175,-0.666735,-0.0473191,9.78165,0.104259,-0.538462,1.00767,-0.00666885,-0.000481723,0.0978164,1,4.30047e-05,-7.71689e-06,8.94451e-06,0.00860095,-0.00154338,0.0017889,0.999475,0.000741919,0.0323916,0.000847175,0.00043007,0.477382,-1.03584,32.9375,1,3332,384825
84,1,0.999475,0.000746322,0.0323855,0.000850527,-0.667931,-0.0459988,9.78914,0.102276,-0.54288,1.02209,-0.0066827,-0.000468238,0.0978912,1,4.10546e-05,-1.73784e-05,1.58288e-05,0.00821092,-0.00347567,0.00316577,0.999475,0.000746322,0.0323855,0.000850527,0.00052738,0.472974,-1.03493,32.9375,1,3333,384925
84,2,0.999475,0.000746322,0.0323855,0.000850527,-0.667931,-0.0459988,9.78914,0.102276,-0.54288,1.02209,-0.0066827,-0.000468238,0.0978912,1,4.10546e-05,-1.73784e-05,1.58288e-05,0.00821092,-0.00347567,0.00316577,0.999475,0.000746322,0.0323855,0.000850527,0.00052738,0.472974,-1.03493,32.9375,1,3333,384925
84,3,0.999475,0.000746322,0.0323855,0.000850527,-0.667931,-0.0459988,9.78914,0.102276,-0.54288,1.02209,-0.0066827,-0.000468238,0.0978912,1,4.10546e-05,-1.73784e-05,1.58288e-05,0.00821092,-0.00347567,0.00316577,0.999475,0.000746322,0.0323855,0.000850527,0.00052738,0.472974,-1.03493,32.9375,1,3333,384925
84,4,0.999475,0.000751454,0.0323795,0.000869742,-0.666509,-0.0433926,9.78848,0.107115,-0.536226,1.01893,-0.00666937,-0.000439949,0.0978845,1,2.91113e-05,-2.19533e-05,2.43278e-05,0.00582226,-0.00439065,0.00486557,0.999475,0.000751454,0.0323795,0.000869742,-0.000780275,0.472887,-1.02937,32.9375,1,3334,385025
85,1,0.999475,0.000751454,0.0323795,0.000869742,-0.666509,-0.0433926,9.78848,0.107115,-0.536226,1.01893,-0.00666937,-0.000439949,0.0978845,1,2.91113e-05,-2.19533e-05,2.43278e-05,0.00582226,-0.00439065,0.00486557,0.999475,0.000751454,0.0323795,0.000869742,-0.000780275,0.472887,-1.02937,32.9375,1,3334,385025
85,2,0.999475,0.000751454,0.0323795,0.000869742,-0.666509,-0.0433926,9.78848,0.107115,-0.536226,1.01893,-0.00666937,-0.000439949,0.0978845,1,2.91113e-05,-2.19533e-05,2.43278e-05,0.00582226,-0.00439065,0.00486557,0.999475,0.000751454,0.0323795,0.000869742,-0.000780275,0.472887,-1.02937,32.9375,1,3334,385025
85,3,0.999475,0.000791217,0.0323775,0.000867109,-0.658135,-0.0510385,9.78563,0.110306,-0.545689,1.02066,-0.00658336,-0.00051872,0.0978562,1,4.22019e-05,-1.03136e-05,5.73884e-06,0.00844038,-0.00206272,0.00114777,0.999475,0.000791217,0.0323775,0.000867109,0.000733746,0.475233,-1.02478,32.9375,1,3335,385125
85,4,0.999475,0.000791217,0.0323775,0.000867109,-0.658135,-0.0510385,9.78563,0.110306,-0.545689,1.02066,-0.00658336,-0.00051872,0.0978562,1,4.22019e-05,-1.03136e-05,5.73884e-06,0.00844038,-0.00206272,0.00114777,0.999475,0.000791217,0.0323775,0.000867109,0.000733746,0.475233,-1.02478,32.9375,1,3335,385125
86,1,0.999475,0.000791217,0.0323775,0.000867109,-0.658135,-0.0510385,9.78563,0.110306,-0.545689,1.02066,-0.00658336,-0.00051872,0.0978562,1,4.22019e-05,-1.03136e-05,5.73884e-06,0.00844038,-0.00206272,0.00114777,0.999475,0.000791217,0.0323775,0.000867109,0.000733746,0.475233,-1.02478,32.9375,1,3335,385125
86,2,0.999475,0.000829754,0.0323686,0.000853536,-0.667464,-0.0414493,9.77458,0.0985746,-0.535301,1.00734,-0.00667703,-0.000422322,0.0977457,1,3.87969e-05,-1.23233e-05,1.83044e-05,0.00775939,-0.00246466,0.00366088,0.999475,0.000829754,0.0323686,0.000853536,0.00209121,0.476729,-1.02728,32.9375,1,3336,385225
86,3,0.999475,0.000829754,0.0323686,0.000853536,-0.667464,-0.0414493,9.77458,0.0985746,-0.535301,1.00734,-0.00667703,-0.000422322,0.0977457,1,3.87969e-05,-1.23233e-05,1.83044e-05,0.00775939,-0.00246466,0.00366088,0.999475,0.000829754,0.0323686,0.000853536,0.00209121,0.476729,-1.02728,32.9375,1,3336,385225
86,4,0.999475,0.000829754,0.0323686,0.000853536,-0.667464,-0.0414493,9.77458,0.0985746,-0.535301,1.00734,-0.00667703,-0.000422322,0.0977457,1,3.87969e-05,-1.23233e-05,1.83044e-05,0.00775939,-0.00246466,0.00366088,0.999475,0.000829754,0.0323686,0.000853536,0.00209121,0.476729,-1.02728,32.9375,1,3336,385225
86,5,0.999476,0.000856072,0.0323591,0.000835764,-0.656959,-0.0516897,9.79885,0.116194,-0.549788,1.02562,-0.00657276,-0.000525206,0.0979883,1,4.16356e-05,-1.62312e-05,1.14145e-05,0.00832712,-0.00324625,0.00228291,0.999476,0.000856072,0.0323591,0.000835764,0.00150333,0.477293,-1.0313,32.9375,1,3337,385325
86,6,0.999476,0.000856072,0.0323591,0.000835764,-0.656959,-0.0516897,9.79885,0.116194,-0.549788,1.02562,-0.00657276,-0.000525206,0.0979883,1,4.16356e-05,-1.62312e-05,1.14145e-05,0.00832712,-0.00324625,0.00228291,0.999476,0.000856072,0.0323591,0.000835764,0.00150333,0.477293,-1.0313,32.9375,1,3337,385325
87,1,0.999476,0.000856072,0.0323591,0.000835764,-0.656959,-0.0516897,9.79885,0.116194,-0.549788,1.02562,-0.00657276,-0.000525206,0.0979883,1,4.16356e-05,-1.62312e-05,1.14145e-05,0.00832712,-0.00324625,0.00228291,0.999476,0.000856072,0.0323591,0.000835764,0.00150333,0.477293,-1.0313,32.9375,1,3337,385325
87,2,0.999476,0.000870374,0.0323527,0.000828994,-0.666448,-0.0357653,9.78378,0.103198,-0.528928,1.015,-0.00666746,-0.000364966,0.0978376,1,3.68134e-05,-1.52697e-05,8.16049e-06,0.00736268,-0.00305394,0.0016321,0.999476,0.000870374,0.0323527,0.000828994,-0.000992876,0.476897,-1.03534,32.9375,1,3338,385425
87,3,0.999476,0.000870374,0.0323527,0.000828994,-0.666448,-0.0357653,9.78378,0.103198,-0.528928,1.015,-0.00666746,-0.000364966,0.0978376,1,3.68134e-05,-1.52697e-05,8.16049e-06,0.00736268,-0.00305394,0.0016321,0.999476,0.000870374,0.0323527,0.000828994,-0.000992876,0.476897,-1.03534,32.9375,1,3338,385425
87,4,0.999476,0.000870374,0.0323527,0.000828994,-0.666448,-0.0357653,9.78378,0.103198,-0.528928,1.015,-0.00666746,-0.000364966,0.0978376,1,3.68134e-05,-1.52697e-05,8.16049e-06,0.00736268,-0.00305394,0.0016321,0.999476,0.000870374,0.0323527,0.000828994,-0.000992876,0.476897,-1.03534,32.9375,1,3338,385425
88,1,0.999475,0.000888144,0.0323607,0.000848301,-0.664571,-0.0558764,9.78835,0.104065,-0.55818,1.01935,-0.00664624,-0.000567009,0.0978834,1,4.12893e-05,-2.75309e-06,1.21724e-05,0.00825785,-0.000550617,0.00243447,0.999475,0.000888144,0.0323607,0.000848301,-0.00136815,0.473451,-1.0334,32.9375,1,3339,385525
88,2,0.999475,0.000888144,0.0323607,0.000848301,-0.664571,-0.0558764,9.78835,0.104065,-0.55818,1.01935,-0.00664624,-0.000567009,0.0978834,1,4.12893e-05,-2.75309e-06,1.21724e-05,0.00825785,-0.000550617,0.00243447,0.999475,0.000888144,0.0323607,0.000848301,-0.00136815,0.473451,-1.0334,32.9375,1,3339,385525
88,3,0.999475,0.000888144,0.0323607,0.000848301,-0.664571,-0.0558764,9.78835,0.104065,-0.55818,1.01935,-0.00664624,-0.000567009,0.0978834,1,4.12893e-05,-2.75309e-06,1.21724e-05,0.00825785,-0.000550617,0.00243447,0.999475,0.000888144,0.0323607,0.000848301,-0.00136815,0.473451,-1.0334,32.9375,1,3339,385525
88,4,0.999475,0.000915986,0.032364,0.000869492,-0.667298,-0.0473621,9.78709,0.100478,-0.547173,1.01798,-0.00667465,-0.00048241,0.0978707,1,4.38728e-05,-8.63734e-06,1.50574e-05,0.00877456,-0.00172747,0.00301148,0.999475,0.000915986,0.032364,0.000869492,-0.000266414,0.472377,-1.02837,32.9375,1,3340,385625
89,1,0.999475,0.000915986,0.032364,0.000869492,-0.667298,-0.0473621,9.78709,0.100478,-0.547173,1.01798,-0.00667465,-0.00048241,0.0978707,1,4.38728e-05,-8.63734e-06,1.50574e-05,0.00877456,-0.00172747,0.00301148,0.999475,0.000915986,0.032364,0.000869492,-0.000266414,0.472377,-1.02837,32.9375,1,3340,385625
89,2,0.999475,0.000915986,0.032364,0.000869492,-0.667298,-0.0473621,9.78709,0.100478,-0.547173,1.01798,-0.00667465,-0.00048241,0.0978707,1,4.38728e-05,-8.63734e-06,1.50574e-05,0.00877456,-0.00172747,0.00301148,0.999475,0.000915986,0.032364,0.000869492,-0.000266414,0.472377,-1.02837,32.9375,1,3340,385625
89,3,0.999475,0.000950642,0.0323661,0.000875351,-0.655661,-0.0547788,9.79339,0.114022,-0.554979,1.02575,-0.0065578,-0.000556371,0.0979338,1,4.24347e-05,-6.17133e-06,2.06436e-05,0.00848695,-0.00123427,0.00412873,0.999475,0.000950642,0.0323661,0.000875351,0.0016343,0.47527,-1.02731,32.9375,1,3341,385725
89,4,0.999475,0.000950642,0.0323661,0.000875351,-0.655661,-0.0547788,9.79339,0.114022,-0.554979,1.02575,-0.0065578,-0.000556371,0.0979338,1,4.24347e-05,-6.17133e-06,2.06436e-05,0.00848695,-0.00123427,0.00412873,0.999475,0.000950642,0.0323661,0.000875351,0.0016343,0.47527,-1.02731,32.9375,1,3341,385725
90,1,0.999475,0.000950642,0.0323661,0.000875351,-0.655661,-0.0547788,9.79339,0.114022,-0.554979,1.02575,-0.0065578,-0.000556371,0.0979338,1,4.24347e-05,-6.17133e-06,2.06436e-05,0.00848695,-0.00123427,0.00412873,0.999475,0.000950642,0.0323661,0.000875351,0.0016343,0.47527,-1.02731,32.9375,1,3341,385725
90,2,0.999475,0.00099268,0.0323644,0.000880544,-0.662843,-0.0587534,9.78628,0.106976,-0.560221,1.01724,-0.00663028,-0.000598581,0.0978626,1,5.47524e-05,-9.58151e-06,2.49224e-05,0.0109505,-0.0019163,0.00498447,0.999475,0.00099268,0.0323644,0.000880544,0.00107201,0.478706,-1.02824,32.9375,1,3342,385825
90,3,0.999475,0.00099268,0.0323644,0.000880544,-0.662843,-0.0587534,9.78628,0.106976,-0.560221,1.01724,-0.00663028,-0.000598581,0.0978626,1,5.47524e-05,-9.58151e-06,2.49224e-05,0.0109505,-0.0019163,0.00498447,0.999475,0.00099268,0.0323644,0.000880544,0.00107201,0.478706,-1.02824,32.9375,1,3342,385825
90,4,0.999475,0.00099268,0.0323644,0.000880544,-0.662843,-0.0587534,9.78628,0.106976,-0.560221,1.01724,-0.00663028,-0.000598581,0.0978626,1,5.47524e-05,-9.58151e-06,2.49224e-05,0.0109505,-0.0019163,0.00498447,0.999475,0.00099268,0.0323644,0.000880544,0.00107201,0.478706,-1.02824,32.9375,1,3342,385825
91,1,0.999475,0.00102342,0.0323631,0.000885228,-0.663761,-0.052056,9.79043,0.102495,-0.554749,1.02046,-0.00663929,-0.000530247,0.0979041,1,4.82744e-05,-8.702e-06,1.76611e-05,0.00965489,-0.0017404,0.00353222,0.999475,0.00102342,0.0323631,0.000885228,0.00246983,0.477764,-1.03079,32.9375,1,3343,385925
91,2,0.999475,0.00102342,0.0323631,0.000885228,-0.663761,-0.052056,9.79043,0.102495,-0.554749,1.02046,-0.00663929,-0.000530247,0.0979041,1,4.82744e-05,-8.702e-06,1.76611e-05,0.00965489,-0.0017404,0.00353222,0.999475,0.00102342,0.0323631,0.000885228,0.00246983,0.477764,-1.03079,32.9375,1,3343,385925
91,3,0.999475,0.00102342,0.0323631,0.000885228,-0.663761,-0.052056,9.79043,0.102495,-0.554749,1.02046,-0.00663929,-0.000530247,0.0979041,1,4.82744e-05,-8.702e-06,1.76611e-05,0.00965489,-0.0017404,0.00353222,0.999475,0.00102342,0.0323631,0.000885228,0.00246983,0.477764,-1.03079,32.9375,1,3343,385925
91,4,0.999475,0.00104559,0.0323702,0.000889919,-0.665709,-0.0411267,9.78034,0.0991576,-0.542352,1.01044,-0.00665775,-0.000419908,0.0978034,1,4.30663e-05,-3.39937e-06,1.6242e-05,0.00861326,-0.000679874,0.00324839,0.999475,0.00104559,0.0323702,0.000889919,0.000495095,0.474925,-1.03489,32.9375,1,3344,386025
92,1,0.999475,0.00104559,0.0323702,0.000889919,-0.665709,-0.0411267,9.78034,0.0991576,-0.542352,1.01044,-0.00665775,-0.000419908,0.0978034,1,4.30663e-05,-3.39937e-06,1.6242e-05,0.00861326,-0.000679874,0.00324839,0.999475,0.00104559,0.0323702,0.000889919,0.000495095,0.474925,-1.03489,32.9375,1,3344,386025
92,2,0.999475,0.00104559,0.0323702,0.000889919,-0.665709,-0.0411267,9.78034,0.0991576,-0.542352,1.01044,-0.00665775,-0.000419908,0.0978034,1,4.30663e-05,-3.39937e-06,1.6242e-05,0.00861326,-0.000679874,0.00324839,0.999475,0.00104559,0.0323702,0.000889919,0.000495095,0.474925,-1.03489,32.9375,1,3344,386025
92,3,0.999475,0.00106513,0.0323711,0.000914903,-0.665186,-0.0460271,9.7976,0.102447,-0.549606,1.02741,-0.00665416,-0.00046856,0.0979758,1,4.07882e-05,-1.18483e-05,2.22363e-05,0.00815764,-0.00236965,0.00444725,0.999475,0.00106513,0.0323711,0.000914903,-0.00231805,0.47345,-1.03289,32.9375,1,3345,386125
92,4,0.999475,0.00106513,0.0323711,0.000914903,-0.665186,-0.0460271,9.7976,0.102447,-0.549606,1.02741,-0.00665416,-0.00046856,0.0979758,1,4.07882e-05,-1.18483e-05,2.22363e-05,0.00815764,-0.00236965,0.00444725,0.999475,0.00106513,0.0323711,0.000914903,-0.00231805,0.47345,-1.03289,32.9375,1,3345,386125
93,1,0.999475,0.00106513,0.0323711,0.000914903,-0.665186,-0.0460271,9.7976,0.102447,-0.549606,1.02741,-0.00665416,-0.00046856,0.0979758,1,4.07882e-05,-1.18483e-05,2.22363e-05,0.00815764,-0.00236965,0.00444725,0.999475,0.00106513,0.0323711,0.000914903,-0.00231805,0.47345,-1.03289,32.9375,1,3345,386125
93,2,0.999475,0.00109199,0.0323638,0.000947048,-0.66893,-0.0507901,9.78538,0.0993031,-0.553513,1.01865,-0.00669275,-0.000516496,0.0978535,1,4.22577e-05,-1.77421e-05,2.4328e-05,0.00845154,-0.00354842,0.0048656,0.999475,0.00109199,0.0323638,0.000947048,-0.00174251,0.472895,-1.02937,32.9375,1,3346,386225
