frame_id,imu_idx,accel_x,accel_y,accel_z,free_accel_x,free_accel_y,free_accel_z,delta_v_x,delta_v_y,delta_v_z,delta_q_w,delta_q_x,delta_q_y,delta_q_z,rate_x,rate_y,rate_z,quat_w,quat_x,quat_y,quat_z,mag_x,mag_y,mag_z,temperature,status_byte,packet_counter,time_fine
1,1,-0.707215,-0.0421584,9.79049,-0.362882,-1.87362,0.983614,-0.00707098,-0.00043186,0.097905,1,5.16605e-05,5.96409e-06,1.13751e-05,0.0103321,0.00119282,0.00227502,0,0,0,0,0.0722363,0.336553,-1.19032,36.0625,3,13282,8627303
1,2,-0.488681,-0.0598543,7.34229,-0.362882,-1.87362,0.983614,-0.00488816,-0.000601233,0.0734228,1,1.72834e-05,-9.35602e-06,1.55886e-05,0.00345668,-0.0018712,0.00311772,0,0,0,0,0.0096222,0.507761,-0.992278,35.9375,1,20535,9354033
1,3,-0.488681,-0.0598543,7.34229,-0.362882,-1.87362,0.983614,-0.00488816,-0.000601233,0.0734228,1,1.72834e-05,-9.35602e-06,1.55886e-05,0.00345668,-0.0018712,0.00311772,0,0,0,0,0.0096222,0.507761,-0.992278,35.9375,1,20535,9354033
1,4,-0.656167,-0.0731687,9.78835,0.117659,-0.485394,0.990822,-0.00656273,-0.000737878,0.0978833,1,3.01954e-05,-5.58055e-06,2.13253e-05,0.00603907,-0.00111611,0.00426507,0,0,0,0,0.009626,0.506794,-0.992805,35.9375,1,20536,9354133
2,1,-0.656167,-0.0731687,9.78835,0.117659,-0.485394,0.990822,-0.00656273,-0.000737878,0.0978833,1,3.01954e-05,-5.58055e-06,2.13253e-05,0.00603907,-0.00111611,0.00426507,0,0,0,0,0.009626,0.506794,-0.992805,35.9375,1,20536,9354133
2,2,-0.657648,-0.0785377,9.78798,0.113812,-0.487528,0.989123,-0.00658003,-0.00079251,0.0978795,1,3.44497e-05,-1.83806e-05,2.95805e-05,0.00688995,-0.00367612,0.00591609,0,0,0,0,0.00827236,0.504331,-0.990833,35.9375,1,20537,9354233
2,3,-0.657648,-0.0785377,9.78798,0.113812,-0.487528,0.989123,-0.00658003,-0.00079251,0.0978795,1,3.44497e-05,-1.83806e-05,2.95805e-05,0.00688995,-0.00367612,0.00591609,0,0,0,0,0.00827236,0.504331,-0.990833,35.9375,1,20537,9354233
2,4,-0.662016,-0.0646512,9.79591,0.114438,-0.474455,0.999655,-0.00662168,-0.000653748,0.097959,1,3.55186e-05,-7.88668e-06,2.0968e-05,0.00710372,-0.00157734,0.0041936,0,0,0,0,0.00837485,0.503293,-0.987321,35.9375,1,20538,9354333
2,5,-0.662016,-0.0646512,9.79591,0.114438,-0.474455,0.999655,-0.00662168,-0.000653748,0.097959,1,3.55186e-05,-7.88668e-06,2.0968e-05,0.00710372,-0.00157734,0.0041936,0,0,0,0,0.00837485,0.503293,-0.987321,35.9375,1,20538,9354333
2,6,-0.667264,-0.0799481,9.79379,0.108819,-0.493283,0.995968,-0.00667523,-0.000808313,0.0979376,1,4.40758e-05,-1.33884e-05,1.48511e-05,0.00881516,-0.00267768,0.00297022,0,0,0,0,0.0107486,0.506669,-0.986247,35.9375,1,20539,9354433
3,1,-0.667264,-0.0799481,9.79379,0.108819,-0.493283,0.995968,-0.00667523,-0.000808313,0.0979376,1,4.40758e-05,-1.33884e-05,1.48511e-05,0.00881516,-0.00267768,0.00297022,0,0,0,0,0.0107486,0.506669,-0.986247,35.9375,1,20539,9354433
3,2,-0.662756,-0.0739834,9.786,0.106712,-0.486876,0.984054,-0.00662817,-0.000751218,0.0978599,1,5.64081e-05,-3.3065e-06,2.59323e-05,0.0112816,-0.0006613,0.00518646,0,0,0,0,0.011633,0.507682,-0.988754,35.9375,1,20540,9354533
3,3,-0.662756,-0.0739834,9.786,0.106712,-0.486876,0.984054,-0.00662817,-0.000751218,0.0978599,1,5.64081e-05,-3.3065e-06,2.59323e-05,0.0112816,-0.0006613,0.00518646,0,0,0,0,0.011633,0.507682,-0.988754,35.9375,1,20540,9354533
3,4,-0.67069,-0.0779936,9.79857,0.105124,-0.493314,0.99436,-0.00670823,-0.000788664,0.0979856,1,4.30233e-05,-6.95705e-06,2.21041e-05,0.00860466,-0.00139141,0.00442082,0,0,0,0,0.00961793,0.507282,-0.992794,35.9375,1,20541,9354633
3,5,-0.67069,-0.0779936,9.79857,0.105124,-0.493314,0.99436,-0.00670823,-0.000788664,0.0979856,1,4.30233e-05,-6.95705e-06,2.21041e-05,0.00860466,-0.00139141,0.00442082,0,0,0,0,0.00961793,0.507282,-0.992794,35.9375,1,20541,9354633
3,6,-0.672003,-0.0723392,9.78575,0.0994747,-0.489313,0.984817,-0.00672304,-0.000733367,0.0978573,1,4.98146e-05,-1.54656e-05,1.67859e-05,0.00996293,-0.00309312,0.00335717,0,0,0,0,0.00870459,0.505809,-0.991812,35.9375,1,20542,9354733
4,1,-0.672003,-0.0723392,9.78575,0.0994747,-0.489313,0.984817,-0.00672304,-0.000733367,0.0978573,1,4.98146e-05,-1.54656e-05,1.67859e-05,0.00996293,-0.00309312,0.00335717,0,0,0,0,0.00870459,0.505809,-0.991812,35.9375,1,20542,9354733
4,2,-0.669563,-0.0745366,9.79081,0.0984454,-0.498025,0.995508,-0.00670057,-0.000755232,0.0979076,1,4.92762e-05,-2.53489e-05,1.62216e-05,0.00985525,-0.00506978,0.00324432,0,0,0,0,0.00736327,0.503337,-0.989336,35.9375,1,20543,9354833
4,3,-0.669563,-0.0745366,9.79081,0.0984454,-0.498025,0.995508,-0.00670057,-0.000755232,0.0979076,1,4.92762e-05,-2.53489e-05,1.62216e-05,0.00985525,-0.00506978,0.00324432,0,0,0,0,0.00736327,0.503337,-0.989336,35.9375,1,20543,9354833
4,4,-0.663574,-0.0752036,9.79516,0.109904,-0.49366,0.994908,-0.00663686,-0.000760913,0.0979514,1,4.43328e-05,-5.8507e-06,1.44001e-05,0.00886657,-0.00117014,0.00288001,0,0,0,0,0.00936556,0.5023,-0.986843,35.9375,1,20544,9354933
4,5,-0.663574,-0.0752036,9.79516,0.109904,-0.49366,0.994908,-0.00663686,-0.000760913,0.0979514,1,4.43328e-05,-5.8507e-06,1.44001e-05,0.00886657,-0.00117014,0.00288001,0,0,0,0,0.00936556,0.5023,-0.986843,35.9375,1,20544,9354933
4,6,-0.663473,-0.0825337,9.78357,0.108607,-0.500417,0.983299,-0.00663915,-0.000835345,0.0978353,1,5.05597e-05,-2.26217e-05,8.71177e-06,0.0101119,-0.00452435,0.00174235,0,0,0,0,0.0107686,0.504727,-0.986795,35.9375,1,20545,9355033
7,1,-0.663473,-0.0825337,9.78357,0.108607,-0.500417,0.983299,-0.00663915,-0.000835345,0.0978353,1,5.05597e-05,-2.26217e-05,8.71177e-06,0.0101119,-0.00452435,0.00174235,0,0,0,0,0.0107686,0.504727,-0.986795,35.9375,1,20545,9355033
7,2,-0.67054,-0.0751219,9.78333,0.100166,-0.492318,0.982672,-0.00670645,-0.000759952,0.0978331,1,4.36975e-05,-5.43899e-06,1.3674e-05,0.00873951,-0.0010878,0.0027348,0,0,0,0,0.0106338,0.507717,-0.990264,35.9375,1,20546,9355133
7,3,-0.67054,-0.0751219,9.78333,0.100166,-0.492318,0.982672,-0.00670645,-0.000759952,0.0978331,1,4.36975e-05,-5.43899e-06,1.3674e-05,0.00873951,-0.0010878,0.0027348,0,0,0,0,0.0106338,0.507717,-0.990264,35.9375,1,20546,9355133
7,4,-0.659792,-0.0747955,9.79785,0.109108,-0.499335,0.99364,-0.00659941,-0.00075764,0.0979783,1,4.88833e-05,-7.67023e-06,8.00182e-06,0.00977666,-0.00153405,0.00160036,0,0,0,0,0.00958473,0.506343,-0.994835,35.9375,1,20547,9355233
7,5,-0.659792,-0.0747955,9.79785,0.109108,-0.499335,0.99364,-0.00659941,-0.00075764,0.0979783,1,4.88833e-05,-7.67023e-06,8.00182e-06,0.00977666,-0.00153405,0.00160036,0,0,0,0,0.00958473,0.506343,-0.994835,35.9375,1,20547,9355233
7,6,-0.664868,-0.0778085,9.78701,0.104975,-0.50271,0.984322,-0.00665208,-0.000785508,0.0978698,1,3.73739e-05,-1.74531e-05,8.03937e-06,0.00747478,-0.00349061,0.00160787,0,0,0,0,0.01011,0.502933,-0.995418,35.9375,1,20548,9355333
8,1,-0.664868,-0.0778085,9.78701,0.104975,-0.50271,0.984322,-0.00665208,-0.000785508,0.0978698,1,3.73739e-05,-1.74531e-05,8.03937e-06,0.00747478,-0.00349061,0.00160787,0,0,0,0,0.01011,0.502933,-0.995418,35.9375,1,20548,9355333
8,2,-0.665926,-0.0803065,9.79004,0.10159,-0.510055,0.997228,-0.00666124,-0.000811029,0.0979002,1,3.95402e-05,-1.02651e-05,1.6693e-05,0.00790805,-0.00205301,0.0033386,0,0,0,0,0.00877768,0.502864,-0.990868,35.9375,1,20549,9355433
8,3,-0.665926,-0.0803065,9.79004,0.10159,-0.510055,0.997228,-0.00666124,-0.000811029,0.0979002,1,3.95402e-05,-1.02651e-05,1.6693e-05,0.00790805,-0.00205301,0.0033386,0,0,0,0,0.00877768,0.502864,-0.990868,35.9375,1,20549,9355433
8,4,-0.669456,-0.0767612,9.78842,0.100535,-0.498697,0.990959,-0.0067004,-0.000777029,0.0978837,1,4.66314e-05,-3.00033e-05,2.15211e-05,0.00932628,-0.00600067,0.00430421,0,0,0,0,0.00793074,0.50327,-0.985804,35.9375,1,20550,9355533
8,5,-0.669456,-0.0767612,9.78842,0.100535,-0.498697,0.990959,-0.0067004,-0.000777029,0.0978837,1,4.66314e-05,-3.00033e-05,2.15211e-05,0.00932628,-0.00600067,0.00430421,0,0,0,0,0.00793074,0.50327,-0.985804,35.9375,1,20550,9355533
8,6,-0.668955,-0.0806356,9.79346,0.100518,-0.507228,0.994825,-0.00669208,-0.000816012,0.0979343,1,4.86952e-05,-1.30141e-05,8.87189e-06,0.00973903,-0.00260282,0.00177438,0,0,0,0,0.00980632,0.504735,-0.986791,35.9375,1,20551,9355633
9,1,-0.668955,-0.0806356,9.79346,0.100518,-0.507228,0.994825,-0.00669208,-0.000816012,0.0979343,1,4.86952e-05,-1.30141e-05,8.87189e-06,0.00973903,-0.00260282,0.00177438,0,0,0,0,0.00980632,0.504735,-0.986791,35.9375,1,20551,9355633
9,2,-0.666442,-0.0696119,9.78708,0.104537,-0.493992,0.983511,-0.00666508,-0.000705848,0.0978707,1,4.82369e-05,-3.50915e-06,2.15248e-05,0.00964738,-0.00070183,0.00430496,0,0,0,0,0.0130721,0.507191,-0.989276,35.9375,1,20552,9355733
9,3,-0.666442,-0.0696119,9.78708,0.104537,-0.493992,0.983511,-0.00666508,-0.000705848,0.0978707,1,4.82369e-05,-3.50915e-06,2.15248e-05,0.00964738,-0.00070183,0.00430496,0,0,0,0,0.0130721,0.507191,-0.989276,35.9375,1,20552,9355733
9,4,-0.659567,-0.0664445,9.78877,0.105846,-0.495576,0.986607,-0.00659773,-0.000675728,0.0978874,1,5.65742e-05,-1.06412e-05,1.57281e-05,0.0113148,-0.00212823,0.00314562,0,0,0,0,0.0120031,0.507759,-0.993299,35.9375,1,20553,9355833
10,1,-0.659567,-0.0664445,9.78877,0.105846,-0.495576,0.986607,-0.00659773,-0.000675728,0.0978874,1,5.65742e-05,-1.06412e-05,1.57281e-05,0.0113148,-0.00212823,0.00314562,0,0,0,0,0.0120031,0.507759,-0.993299,35.9375,1,20553,9355833
10,2,-0.672108,-0.0749256,9.78572,0.0923708,-0.505508,0.98668,-0.00672306,-0.000757171,0.097857,1,3.93112e-05,-1.02705e-05,1.64452e-05,0.00786224,-0.00205411,0.00328904,0,0,0,0,0.00868372,0.50486,-0.993349,35.9375,1,20554,9355933
10,3,-0.672108,-0.0749256,9.78572,0.0923708,-0.505508,0.98668,-0.00672306,-0.000757171,0.097857,1,3.93112e-05,-1.02705e-05,1.64452e-05,0.00786224,-0.00205411,0.00328904,0,0,0,0,0.00868372,0.50486,-0.993349,35.9375,1,20554,9355933
10,4,-0.660043,-0.0793852,9.79612,0.104288,-0.51283,0.999384,-0.00660374,-0.00080252,0.0979609,1,4.27812e-05,-1.70844e-05,2.16922e-05,0.00855624,-0.00341688,0.00433844,0,0,0,0,0.00683707,0.503856,-0.990837,35.9375,1,20555,9356033
10,5,-0.660043,-0.0793852,9.79612,0.104288,-0.51283,0.999384,-0.00660374,-0.00080252,0.0979609,1,4.27812e-05,-1.70844e-05,2.16922e-05,0.00855624,-0.00341688,0.00433844,0,0,0,0,0.00683707,0.503856,-0.990837,35.9375,1,20555,9356033
10,6,-0.663471,-0.069614,9.79318,0.104974,-0.50276,0.996325,-0.00663696,-0.000707728,0.0979316,1,5.86604e-05,-1.15525e-05,7.44972e-06,0.0117321,-0.0023105,0.00148994,0,0,0,0,0.00881515,0.504282,-0.988311,35.9375,1,20556,9356133
11,1,-0.663471,-0.069614,9.79318,0.104974,-0.50276,0.996325,-0.00663696,-0.000707728,0.0979316,1,5.86604e-05,-1.15525e-05,7.44972e-06,0.0117321,-0.0023105,0.00148994,0,0,0,0,0.00881515,0.504282,-0.988311,35.9375,1,20556,9356133
11,2,-0.675127,-0.0782544,9.78742,0.0967484,-0.512159,0.986306,-0.00675474,-0.000791594,0.0978739,1,4.45487e-05,-1.79614e-05,2.43879e-05,0.00890975,-0.00359228,0.00487758,0,0,0,0,0.00927632,0.50622,-0.987765,35.9375,1,20557,9356233
11,3,-0.675127,-0.0782544,9.78742,0.0967484,-0.512159,0.986306,-0.00675474,-0.000791594,0.0978739,1,4.45487e-05,-1.79614e-05,2.43879e-05,0.00890975,-0.00359228,0.00487758,0,0,0,0,0.00927632,0.50622,-0.987765,35.9375,1,20557,9356233
11,4,-0.670579,-0.0839255,9.79311,0.0948752,-0.523275,0.991264,-0.0067075,-0.000852811,0.0979308,1,6.76085e-05,-8.89412e-06,2.34019e-05,0.0135217,-0.00177882,0.00468037,0,0,0,0,0.0101811,0.506736,-0.989778,35.9375,1,20558,9356333
11,5,-0.670579,-0.0839255,9.79311,0.0948752,-0.523275,0.991264,-0.0067075,-0.000852811,0.0979308,1,6.76085e-05,-8.89412e-06,2.34019e-05,0.0135217,-0.00177882,0.00468037,0,0,0,0,0.0101811,0.506736,-0.989778,35.9375,1,20558,9356333
11,6,-0.664994,-0.0678771,9.78846,0.105684,-0.502449,0.986308,-0.00665295,-0.000689209,0.0978843,1,5.16473e-05,-1.55679e-05,2.463e-05,0.0103295,-0.00311359,0.00492599,0,0,0,0,0.0115258,0.506796,-0.993824,35.9375,1,20559,9356433
12,1,-0.664994,-0.0678771,9.78846,0.105684,-0.502449,0.986308,-0.00665295,-0.000689209,0.0978843,1,5.16473e-05,-1.55679e-05,2.463e-05,0.0103295,-0.00311359,0.00492599,0,0,0,0,0.0115258,0.506796,-0.993824,35.9375,1,20559,9356433
12,2,-0.672024,-0.0724454,9.78812,0.0985384,-0.509274,0.990525,-0.00672448,-0.000733835,0.0978809,1,4.70783e-05,-2.17744e-05,1.22469e-05,0.00941566,-0.00435487,0.00244939,0,0,0,0,0.00963742,0.503895,-0.994385,35.9375,1,20560,9356533
12,3,-0.672024,-0.0724454,9.78812,0.0985384,-0.509274,0.990525,-0.00672448,-0.000733835,0.0978809,1,4.70783e-05,-2.17744e-05,1.22469e-05,0.00941566,-0.00435487,0.00244939,0,0,0,0,0.00963742,0.503895,-0.994385,35.9375,1,20560,9356533
12,4,-0.662214,-0.0746482,9.77651,0.105514,-0.513592,0.98067,-0.00662538,-0.000756006,0.0977648,1,4.76354e-05,-1.6689e-05,1.58752e-05,0.00952709,-0.00333781,0.00317503,0,0,0,0,0.00734667,0.502867,-0.990356,35.9375,1,20561,9356633
12,5,-0.662214,-0.0746482,9.77651,0.105514,-0.513592,0.98067,-0.00662538,-0.000756006,0.0977648,1,4.76354e-05,-1.6689e-05,1.58752e-05,0.00952709,-0.00333781,0.00317503,0,0,0,0,0.00734667,0.502867,-0.990356,35.9375,1,20561,9356633
12,6,-0.669935,-0.0784871,9.79619,0.100712,-0.519101,0.993903,-0.00670207,-0.000797342,0.0979616,1,6.24173e-05,-1.4005e-05,1.79894e-05,0.0124835,-0.00280101,0.00359788,0,0,0,0,0.0093048,0.505236,-0.987282,35.9375,1,20562,9356733
10,1,-0.669935,-0.0784871,9.79619,0.100712,-0.519101,0.993903,-0.00670207,-0.000797342,0.0979616,1,6.24173e-05,-1.4005e-05,1.79894e-05,0.0124835,-0.00280101,0.00359788,0,0,0,0,0.0093048,0.505236,-0.987282,35.9375,1,20562,9356733
10,2,-0.668317,-0.083606,9.78732,0.0988098,-0.524421,0.98751,-0.00668464,-0.000845563,0.097873,1,4.81419e-05,-7.56251e-06,5.95677e-06,0.00962838,-0.0015125,0.00119135,0,0,0,0,0.0102594,0.507161,-0.986234,35.9375,1,20563,9356833
10,3,-0.668317,-0.083606,9.78732,0.0988098,-0.524421,0.98751,-0.00668464,-0.000845563,0.097873,1,4.81419e-05,-7.56251e-06,5.95677e-06,0.00962838,-0.0015125,0.00119135,0,0,0,0,0.0102594,0.507161,-0.986234,35.9375,1,20563,9356833
10,4,-0.666871,-0.0775674,9.78941,0.0999729,-0.522244,0.98574,-0.00667167,-0.000784595,0.0978938,1,4.52102e-05,-1.51245e-05,5.17791e-06,0.00904204,-0.0030249,0.00103558,0,0,0,0,0.0111391,0.50625,-0.990299,35.9375,1,20564,9356933
10,5,-0.666871,-0.0775674,9.78941,0.0999729,-0.522244,0.98574,-0.00667167,-0.000784595,0.0978938,1,4.52102e-05,-1.51245e-05,5.17791e-06,0.00904204,-0.0030249,0.00103558,0,0,0,0,0.0111391,0.50625,-0.990299,35.9375,1,20564,9356933
10,6,-0.655378,-0.0736679,9.78732,0.109427,-0.516777,0.985434,-0.00655626,-0.00074663,0.097873,1,5.01835e-05,-1.27664e-05,9.7525e-06,0.0100367,-0.00255327,0.0019505,0,0,0,0,0.0119861,0.505844,-0.995362,35.9375,1,20565,9357033
14,1,-0.655378,-0.0736679,9.78732,0.109427,-0.516777,0.985434,-0.00655626,-0.00074663,0.097873,1,5.01835e-05,-1.27664e-05,9.7525e-06,0.0100367,-0.00255327,0.0019505,0,0,0,0,0.0119861,0.505844,-0.995362,35.9375,1,20565,9357033
14,2,-0.664225,-0.0709331,9.79148,0.0979744,-0.512572,0.992191,-0.00664628,-0.000720988,0.0979144,1,5.94407e-05,-2.05897e-05,1.23709e-06,0.0118881,-0.00411794,0.000247418,0,0,0,0,0.00964549,0.503407,-0.994395,35.9375,1,20566,9357133
14,3,-0.664225,-0.0709331,9.79148,0.0979744,-0.512572,0.992191,-0.00664628,-0.000720988,0.0979144,1,5.94407e-05,-2.05897e-05,1.23709e-06,0.0118881,-0.00411794,0.000247418,0,0,0,0,0.00964549,0.503407,-0.994395,35.9375,1,20566,9357133
14,4,-0.663503,-0.0729913,9.78806,0.0948265,-0.517031,0.992596,-0.00663966,-0.000739639,0.0978802,1,4.90937e-05,-2.3691e-05,8.6969e-06,0.00981873,-0.00473821,0.00173938,0,0,0,0,0.00786007,0.500912,-0.990402,35.9375,1,20567,9357233
14,5,-0.663503,-0.0729913,9.78806,0.0948265,-0.517031,0.992596,-0.00663966,-0.000739639,0.0978802,1,4.90937e-05,-2.3691e-05,8.6969e-06,0.00981873,-0.00473821,0.00173938,0,0,0,0,0.00786007,0.500912,-0.990402,35.9375,1,20567,9357233
14,6,-0.662882,-0.0737967,9.80059,0.0965812,-0.517509,1.0028,-0.00663068,-0.000748471,0.0980057,1,5.23105e-05,-9.62804e-06,1.8852e-05,0.0104621,-0.00192561,0.0037704,0,0,0,0,0.00980586,0.50329,-0.987833,35.9375,1,20568,9357333
15,1,-0.662882,-0.0737967,9.80059,0.0965812,-0.517509,1.0028,-0.00663068,-0.000748471,0.0980057,1,5.23105e-05,-9.62804e-06,1.8852e-05,0.0104621,-0.00192561,0.0037704,0,0,0,0,0.00980586,0.50329,-0.987833,35.9375,1,20568,9357333
15,2,-0.662818,-0.0877533,9.79064,0.10705,-0.530799,0.989265,-0.00663031,-0.000885945,0.0979061,1,4.15518e-05,-1.10845e-05,2.07761e-05,0.00831036,-0.00221691,0.00415522,0,0,0,0,0.0106665,0.507211,-0.989265,35.9375,1,20569,9357433
15,3,-0.662818,-0.0877533,9.79064,0.10705,-0.530799,0.989265,-0.00663031,-0.000885945,0.0979061,1,4.15518e-05,-1.10845e-05,2.07761e-05,0.00831036,-0.00221691,0.00415522,0,0,0,0,0.0106665,0.507211,-0.989265,35.9375,1,20569,9357433
15,4,-0.663297,-0.0641551,9.78237,0.0995016,-0.513991,0.980087,-0.00663747,-0.000649244,0.0978233,1,3.88213e-05,-2.30334e-05,7.34269e-06,0.00776425,-0.00460668,0.00146854,0,0,0,0,0.0105275,0.509722,-0.993249,35.9375,1,20570,9357533
15,5,-0.663297,-0.0641551,9.78237,0.0995016,-0.513991,0.980087,-0.00663747,-0.000649244,0.0978233,1,3.88213e-05,-2.30334e-05,7.34269e-06,0.00776425,-0.00460668,0.00146854,0,0,0,0,0.0105275,0.509722,-0.993249,35.9375,1,20570,9357533
15,6,-0.669329,-0.0748092,9.79351,0.0914538,-0.528301,0.989543,-0.00669631,-0.000758245,0.0979348,1,5.02989e-05,-1.55659e-05,2.25121e-05,0.0100598,-0.00311317,0.00450243,0,0,0,0,0.0119457,0.508283,-0.995308,35.9375,1,20571,9357633
16,1,-0.669329,-0.0748092,9.79351,0.0914538,-0.528301,0.989543,-0.00669631,-0.000758245,0.0979348,1,5.02989e-05,-1.55659e-05,2.25121e-05,0.0100598,-0.00311317,0.00450243,0,0,0,0,0.0119457,0.508283,-0.995308,35.9375,1,20571,9357633
16,2,-0.666092,-0.0706234,9.78978,0.0972982,-0.523524,0.995716,-0.00666192,-0.000717308,0.0978977,1,5.51174e-05,-5.24153e-06,2.11767e-05,0.0110235,-0.00104831,0.00423534,0,0,0,0,0.0125863,0.505271,-0.990832,35.9375,1,20572,9357733
16,3,-0.666092,-0.0706234,9.78978,0.0972982,-0.523524,0.995716,-0.00666192,-0.000717308,0.0978977,1,5.51174e-05,-5.24153e-06,2.11767e-05,0.0110235,-0.00104831,0.00423534,0,0,0,0,0.0125863,0.505271,-0.990832,35.9375,1,20572,9357733
16,4,-0.665336,-0.0785789,9.78632,0.0920884,-0.535379,0.996259,-0.00665364,-0.000794462,0.0978631,1,4.27719e-05,-1.61902e-06,2.26254e-05,0.00855439,-0.000323805,0.00452508,0,0,0,0,0.00880282,0.504291,-0.988816,35.9375,1,20573,9357833
17,1,-0.665336,-0.0785789,9.78632,0.0920884,-0.535379,0.996259,-0.00665364,-0.000794462,0.0978631,1,4.27719e-05,-1.61902e-06,2.26254e-05,0.00855439,-0.000323805,0.00452508,0,0,0,0,0.00880282,0.504291,-0.988816,35.9375,1,20573,9357833
17,2,-0.651669,-0.0771032,9.78421,0.112622,-0.533264,0.978347,-0.00651935,-0.000779044,0.0978419,1,4.07361e-05,-1.35954e-05,3.1385e-06,0.00814721,-0.00271908,0.0006277,0,0,0,0,0.00883175,0.504752,-0.987291,35.9375,1,20574,9357933
17,3,-0.651669,-0.0771032,9.78421,0.112622,-0.533264,0.978347,-0.00651935,-0.000779044,0.0978419,1,4.07361e-05,-1.35954e-05,3.1385e-06,0.00814721,-0.00271908,0.0006277,0,0,0,0,0.00883175,0.504752,-0.987291,35.9375,1,20574,9357933
17,4,-0.657622,-0.0733742,9.78803,0.102853,-0.525059,0.984293,-0.00658141,-0.000745024,0.0978798,1,5.62225e-05,-2.6695e-05,2.101e-05,0.0112445,-0.00533901,0.00420201,0,0,0,0,0.0087914,0.507191,-0.987236,35.9375,1,20575,9358033
18,1,-0.657622,-0.0733742,9.78803,0.102853,-0.525059,0.984293,-0.00658141,-0.000745024,0.0978798,1,5.62225e-05,-2.6695e-05,2.101e-05,0.0112445,-0.00533901,0.00420201,0,0,0,0,0.0087914,0.507191,-0.987236,35.9375,1,20575,9358033
18,2,-0.666694,-0.0804156,9.79004,0.0972959,-0.534427,0.984959,-0.00666804,-0.000809733,0.0979002,1,2.77273e-05,-5.70516e-06,1.11052e-05,0.00554546,-0.00114103,0.00222105,0,0,0,0,0.0101645,0.506267,-0.990799,35.9375,1,20576,9358133
18,3,-0.666694,-0.0804156,9.79004,0.0972959,-0.534427,0.984959,-0.00666804,-0.000809733,0.0979002,1,2.77273e-05,-5.70516e-06,1.11052e-05,0.00554546,-0.00114103,0.00222105,0,0,0,0,0.0101645,0.506267,-0.990799,35.9375,1,20576,9358133
18,4,-0.666893,-0.0757732,9.79044,0.0948596,-0.536066,0.983617,-0.00667269,-0.000767975,0.097904,1,5.10569e-05,-1.93456e-05,1.8472e-05,0.0102114,-0.00386912,0.0036944,0,0,0,0,0.0110404,0.506322,-0.994337,35.9375,1,20577,9358233
18,5,-0.666893,-0.0757732,9.79044,0.0948596,-0.536066,0.983617,-0.00667269,-0.000767975,0.097904,1,5.10569e-05,-1.93456e-05,1.8472e-05,0.0102114,-0.00386912,0.0036944,0,0,0,0,0.0110404,0.506322,-0.994337,35.9375,1,20577,9358233
18,6,-0.663641,-0.0721737,9.7962,0.0988087,-0.531163,0.99548,-0.00663712,-0.000728914,0.0979619,1,3.59211e-05,-3.69922e-06,1.0511e-05,0.00718422,-0.000739844,0.00210219,0,0,0,0,0.0106001,0.505332,-0.993347,35.9375,1,20578,9358333
19,1,-0.663641,-0.0721737,9.7962,0.0988087,-0.531163,0.99548,-0.00663712,-0.000728914,0.0979619,1,3.59211e-05,-3.69922e-06,1.0511e-05,0.00718422,-0.000739844,0.00210219,0,0,0,0,0.0106001,0.505332,-0.993347,35.9375,1,20578,9358333
19,2,-0.663895,-0.0705127,9.7891,0.0952637,-0.527289,0.992909,-0.00664128,-0.000716234,0.0978908,1,5.63767e-05,-1.19544e-05,5.16302e-06,0.0112753,-0.00239088,0.0010326,0,0,0,0,0.00925499,0.503827,-0.990344,35.9375,1,20579,9358433
19,3,-0.663895,-0.0705127,9.7891,0.0952637,-0.527289,0.992909,-0.00664128,-0.000716234,0.0978908,1,5.63767e-05,-1.19544e-05,5.16302e-06,0.0112753,-0.00239088,0.0010326,0,0,0,0,0.00925499,0.503827,-0.990344,35.9375,1,20579,9358433
19,4,-0.66833,-0.076557,9.78942,0.0944951,-0.533539,0.987638,-0.00668545,-0.00077617,0.0978939,1,5.35306e-05,-1.10214e-05,8.9443e-06,0.0107061,-0.00220428,0.00178886,0,0,0,0,0.00835871,0.504268,-0.9873,35.9375,1,20580,9358533
19,5,-0.66833,-0.076557,9.78942,0.0944951,-0.533539,0.987638,-0.00668545,-0.00077617,0.0978939,1,5.35306e-05,-1.10214e-05,8.9443e-06,0.0107061,-0.00220428,0.00178886,0,0,0,0,0.00835871,0.504268,-0.9873,35.9375,1,20580,9358533
19,6,-0.657152,-0.0658057,9.78537,0.104472,-0.526635,0.981752,-0.00657435,-0.000665163,0.0978535,1,3.48762e-05,-1.46105e-05,2.13273e-05,0.00697524,-0.0029221,0.00426546,0,0,0,0,0.0102262,0.506221,-0.988275,35.9375,1,20581,9358633
19,7,-0.657152,-0.0658057,9.78537,0.104472,-0.526635,0.981752,-0.00657435,-0.000665163,0.0978535,1,3.48762e-05,-1.46105e-05,2.13273e-05,0.00697524,-0.0029221,0.00426546,0,0,0,0,0.0102262,0.506221,-0.988275,35.9375,1,20581,9358633
19,8,-0.6575,-0.0783259,9.78899,0.107496,-0.53645,0.97962,-0.00657517,-0.000789073,0.0978898,1,2.82117e-05,-1.05978e-06,2.20964e-05,0.00564235,-0.000211956,0.00441928,0,0,0,0,0.0115837,0.507718,-0.990773,35.9375,1,20582,9358733
20,1,-0.6575,-0.0783259,9.78899,0.107496,-0.53645,0.97962,-0.00657517,-0.000789073,0.0978898,1,2.82117e-05,-1.05978e-06,2.20964e-05,0.00564235,-0.000211956,0.00441928,0,0,0,0,0.0115837,0.507718,-0.990773,35.9375,1,20582,9358733
20,2,-0.664072,-0.0790906,9.79718,0.0958938,-0.54141,0.996004,-0.00664437,-0.000798117,0.0979715,1,3.65618e-05,-1.86489e-05,3.52768e-06,0.00731236,-0.00372979,0.000705536,0,0,0,0,0.0105636,0.506804,-0.993819,35.9375,1,20583,9358833
20,3,-0.664072,-0.0790906,9.79718,0.0958938,-0.54141,0.996004,-0.00664437,-0.000798117,0.0979715,1,3.65618e-05,-1.86489e-05,3.52768e-06,0.00731236,-0.00372979,0.000705536,0,0,0,0,0.0105636,0.506804,-0.993819,35.9375,1,20583,9358833
20,4,-0.669675,-0.0816436,9.78531,0.0884489,-0.546229,0.981353,-0.00669943,-0.000825213,0.0978529,1,4.33138e-05,-1.39179e-05,2.23892e-05,0.00866276,-0.00278358,0.00447783,0,0,0,0,0.0101309,0.503882,-0.993882,35.9375,1,20584,9358933
20,5,-0.669675,-0.0816436,9.78531,0.0884489,-0.546229,0.981353,-0.00669943,-0.000825213,0.0978529,1,4.33138e-05,-1.39179e-05,2.23892e-05,0.00866276,-0.00278358,0.00447783,0,0,0,0,0.0101309,0.503882,-0.993882,35.9375,1,20584,9358933
20,6,-0.665592,-0.0717035,9.79894,0.096534,-0.537428,0.999201,-0.00665769,-0.000726543,0.0979892,1,4.74304e-05,-9.16221e-06,1.60039e-05,0.00948608,-0.00183244,0.00320079,0,0,0,0,0.00875347,0.504327,-0.990835,35.9375,1,20585,9359033
21,1,-0.665592,-0.0717035,9.79894,0.096534,-0.537428,0.999201,-0.00665769,-0.000726543,0.0979892,1,4.74304e-05,-9.16221e-06,1.60039e-05,0.00948608,-0.00183244,0.00320079,0,0,0,0,0.00875347,0.504327,-0.990835,35.9375,1,20585,9359033
21,2,-0.659155,-0.0817551,9.7849,0.100928,-0.546027,0.983785,-0.00659337,-0.000827789,0.0978488,1,5.145e-05,-9.36355e-06,1.28859e-05,0.01029,-0.00187271,0.00257717,0,0,0,0,0.00977738,0.504274,-0.988316,35.9375,1,20586,9359133
21,3,-0.659155,-0.0817551,9.7849,0.100928,-0.546027,0.983785,-0.00659337,-0.000827789,0.0978488,1,5.145e-05,-9.36355e-06,1.28859e-05,0.01029,-0.00187271,0.00257717,0,0,0,0,0.00977738,0.504274,-0.988316,35.9375,1,20586,9359133
21,4,-0.654441,-0.0674035,9.7772,0.106247,-0.531486,0.973313,-0.00654851,-0.00068196,0.0977717,1,3.98588e-05,-2.10069e-05,9.97453e-06,0.00797175,-0.00420137,0.00199491,0,0,0,0,0.0116326,0.506237,-0.989796,35.9375,1,20587,9359233
21,5,-0.654441,-0.0674035,9.7772,0.106247,-0.531486,0.973313,-0.00654851,-0.00068196,0.0977717,1,3.98588e-05,-2.10069e-05,9.97453e-06,0.00797175,-0.00420137,0.00199491,0,0,0,0,0.0116326,0.506237,-0.989796,35.9375,1,20587,9359233
21,6,-0.660014,-0.0743956,9.78939,0.0980766,-0.541088,0.987571,-0.00660509,-0.000752902,0.0978935,1,4.44633e-05,-2.54623e-05,1.82725e-05,0.00889265,-0.00509246,0.0036545,0,0,0,0,0.0115467,0.507745,-0.992288,35.9375,1,20588,9359333
22,1,-0.660014,-0.0743956,9.78939,0.0980766,-0.541088,0.987571,-0.00660509,-0.000752902,0.0978935,1,4.44633e-05,-2.54623e-05,1.82725e-05,0.00889265,-0.00509246,0.0036545,0,0,0,0,0.0115467,0.507745,-0.992288,35.9375,1,20588,9359333
22,2,-0.672907,-0.0798563,9.77822,0.0874641,-0.548932,0.97518,-0.00672869,-0.000808468,0.0977822,1,4.98109e-05,1.80126e-06,1.21593e-05,0.00996217,0.000360252,0.00243185,0,0,0,0,0.0110404,0.506322,-0.994337,35.9375,1,20589,9359433
22,3,-0.672907,-0.0798563,9.77822,0.0874641,-0.548932,0.97518,-0.00672869,-0.000808468,0.0977822,1,4.98109e-05,1.80126e-06,1.21593e-05,0.00996217,0.000360252,0.00243185,0,0,0,0,0.0110404,0.506322,-0.994337,35.9375,1,20589,9359433
22,4,-0.667533,-0.0864618,9.79103,0.0916921,-0.55548,0.989269,-0.00667829,-0.000874306,0.09791,1,4.84139e-05,-1.52213e-05,1.55531e-05,0.00968278,-0.00304427,0.00311063,0,0,0,0,0.0101309,0.503882,-0.993882,35.9375,1,20590,9359533
22,5,-0.667533,-0.0864618,9.79103,0.0916921,-0.55548,0.989269,-0.00667829,-0.000874306,0.09791,1,4.84139e-05,-1.52213e-05,1.55531e-05,0.00968278,-0.00304427,0.00311063,0,0,0,0,0.0101309,0.503882,-0.993882,35.9375,1,20590,9359533
22,6,-0.663685,-0.0752385,9.78566,0.0976633,-0.545909,0.982347,-0.00663755,-0.000765463,0.0978564,1,6.58743e-05,-3.68431e-06,1.39401e-05,0.0131749,-0.000736862,0.00278802,0,0,0,0,0.0077789,0.504344,-0.991336,35.9375,1,20591,9359633
23,1,-0.663685,-0.0752385,9.78566,0.0976633,-0.545909,0.982347,-0.00663755,-0.000765463,0.0978564,1,6.58743e-05,-3.68431e-06,1.39401e-05,0.0131749,-0.000736862,0.00278802,0,0,0,0,0.0077789,0.504344,-0.991336,35.9375,1,20591,9359633
23,2,-0.657488,-0.069022,9.78738,0.0980708,-0.538298,0.984364,-0.00657795,-0.000698816,0.0978735,1,4.27943e-05,-1.57618e-05,1.6624e-05,0.00855885,-0.00315237,0.00332481,0,0,0,0,0.00881942,0.504761,-0.987796,35.9375,1,20592,9359733
23,3,-0.657488,-0.069022,9.78738,0.0980708,-0.538298,0.984364,-0.00657795,-0.000698816,0.0978735,1,4.27943e-05,-1.57618e-05,1.6624e-05,0.00855885,-0.00315237,0.00332481,0,0,0,0,0.00881942,0.504761,-0.987796,35.9375,1,20592,9359733
23,4,-0.666774,-0.0773311,9.79552,0.0935545,-0.54833,0.994597,-0.00667294,-0.00078236,0.0979548,1,4.48638e-05,-2.66841e-05,1.94999e-05,0.00897277,-0.00533682,0.00389997,0,0,0,0,0.0111557,0.506719,-0.989278,35.9375,1,20593,9359833
23,5,-0.666774,-0.0773311,9.79552,0.0935545,-0.54833,0.994597,-0.00667294,-0.00078236,0.0979548,1,4.48638e-05,-2.66841e-05,1.94999e-05,0.00897277,-0.00533682,0.00389997,0,0,0,0,0.0111557,0.506719,-0.989278,35.9375,1,20593,9359833
23,6,-0.662188,-0.0737812,9.79313,0.0970341,-0.547086,0.993884,-0.00662543,-0.00074761,0.097931,1,4.9103e-05,-1.82111e-05,1.36534e-05,0.0098206,-0.00364221,0.00273067,0,0,0,0,0.0120235,0.507262,-0.992805,35.9375,1,20594,9359933
24,1,-0.662188,-0.0737812,9.79313,0.0970341,-0.547086,0.993884,-0.00662543,-0.00074761,0.097931,1,4.9103e-05,-1.82111e-05,1.36534e-05,0.0098206,-0.00364221,0.00273067,0,0,0,0,0.0120235,0.507262,-0.992805,35.9375,1,20594,9359933
24,2,-0.660441,-0.0616871,9.79289,0.0941994,-0.534236,0.988728,-0.00660796,-0.000626612,0.0979286,1,4.82054e-05,-1.8254e-05,2.26532e-05,0.00964107,-0.0036508,0.00453065,0,0,0,0,0.0119737,0.505853,-0.995867,35.9375,1,20595,9360033
24,3,-0.660441,-0.0616871,9.79289,0.0941994,-0.534236,0.988728,-0.00660796,-0.000626612,0.0979286,1,4.82054e-05,-1.8254e-05,2.26532e-05,0.00964107,-0.0036508,0.00453065,0,0,0,0,0.0119737,0.505853,-0.995867,35.9375,1,20595,9360033
24,4,-0.674828,-0.0717683,9.78442,0.0822804,-0.545494,0.981278,-0.00674988,-0.000726549,0.097844,1,4.31577e-05,-8.43968e-06,3.11785e-05,0.00863153,-0.00168794,0.00623571,0,0,0,0,0.0110931,0.503874,-0.993887,35.9375,1,20596,9360133
24,5,-0.674828,-0.0717683,9.78442,0.0822804,-0.545494,0.981278,-0.00674988,-0.000726549,0.097844,1,4.31577e-05,-8.43968e-06,3.11785e-05,0.00863153,-0.00168794,0.00623571,0,0,0,0,0.0110931,0.503874,-0.993887,35.9375,1,20596,9360133
24,6,-0.664206,-0.0720406,9.79113,0.0889559,-0.551184,0.990793,-0.00664548,-0.000730057,0.097911,1,4.78029e-05,-1.7606e-05,2.18433e-05,0.00956057,-0.00352119,0.00436865,0,0,0,0,0.0092754,0.50333,-0.98985,35.9375,1,20597,9360233
25,1,-0.664206,-0.0720406,9.79113,0.0889559,-0.551184,0.990793,-0.00664548,-0.000730057,0.097911,1,4.78029e-05,-1.7606e-05,2.18433e-05,0.00956057,-0.00352119,0.00436865,0,0,0,0,0.0092754,0.50333,-0.98985,35.9375,1,20597,9360233
25,2,-0.657785,-0.0695279,9.785,0.0990391,-0.541296,0.9798,-0.00658102,-0.000705412,0.0978498,1,5.069e-05,-1.63488e-05,1.61843e-05,0.010138,-0.00326975,0.00323685,0,0,0,0,0.0102708,0.504261,-0.987814,35.9375,1,20598,9360333
25,3,-0.657785,-0.0695279,9.785,0.0990391,-0.541296,0.9798,-0.00658102,-0.000705412,0.0978498,1,5.069e-05,-1.63488e-05,1.61843e-05,0.010138,-0.00326975,0.00323685,0,0,0,0,0.0102708,0.504261,-0.987814,35.9375,1,20598,9360333
25,4,-0.669816,-0.0672525,9.7912,0.0863662,-0.547581,0.987558,-0.00669926,-0.000682889,0.0979118,1,5.1517e-05,-5.75392e-06,2.06139e-05,0.0103034,-0.00115078,0.00412279,0,0,0,0,0.0106623,0.506732,-0.989781,35.9375,1,20599,9360433
25,5,-0.669816,-0.0672525,9.7912,0.0863662,-0.547581,0.987558,-0.00669926,-0.000682889,0.0979118,1,5.1517e-05,-5.75392e-06,2.06139e-05,0.0103034,-0.00115078,0.00412279,0,0,0,0,0.0106623,0.506732,-0.989781,35.9375,1,20599,9360433
25,6,-0.657868,-0.079407,9.78254,0.0975097,-0.558453,0.977641,-0.00657985,-0.000804353,0.0978252,1,5.11985e-05,-6.16006e-06,2.01948e-05,0.0102397,-0.00123201,0.00403897,0,0,0,0,0.0105474,0.50778,-0.993797,35.9375,1,20600,9360533
26,1,-0.657868,-0.079407,9.78254,0.0975097,-0.558453,0.977641,-0.00657985,-0.000804353,0.0978252,1,5.11985e-05,-6.16006e-06,2.01948e-05,0.0102397,-0.00123201,0.00403897,0,0,0,0,0.0105474,0.50778,-0.993797,35.9375,1,20600,9360533
26,2,-0.667296,-0.079923,9.7887,0.0907447,-0.564929,0.98322,-0.00667457,-0.000809118,0.0978868,1,4.90547e-05,-8.35767e-06,2.13328e-05,0.00981094,-0.00167153,0.00426655,0,0,0,0,0.0095724,0.506352,-0.99534,35.9375,1,20601,9360633
26,3,-0.667296,-0.079923,9.7887,0.0907447,-0.564929,0.98322,-0.00667457,-0.000809118,0.0978868,1,4.90547e-05,-8.35767e-06,2.13328e-05,0.00981094,-0.00167153,0.00426655,0,0,0,0,0.0095724,0.506352,-0.99534,35.9375,1,20601,9360633
26,4,-0.667602,-0.0720284,9.78674,0.0895761,-0.556101,0.985437,-0.00667943,-0.000729984,0.0978671,1,4.79073e-05,-1.76131e-05,2.41342e-05,0.00958147,-0.00352262,0.00482683,0,0,0,0,0.00821022,0.502931,-0.994399,35.9375,1,20602,9360733
26,5,-0.667602,-0.0720284,9.78674,0.0895761,-0.556101,0.985437,-0.00667943,-0.000729984,0.0978671,1,4.79073e-05,-1.76131e-05,2.41342e-05,0.00958147,-0.00352262,0.00482683,0,0,0,0,0.00821022,0.502931,-0.994399,35.9375,1,20602,9360733
26,6,-0.662993,-0.0784684,9.78766,0.0886004,-0.561008,0.983246,-0.00663124,-0.000794834,0.0978764,1,5.08986e-05,-6.77446e-06,1.40595e-05,0.0101797,-0.00135489,0.00281191,0,0,0,0,0.00734195,0.500943,-0.991914,35.9375,1,20603,9360833
27,1,-0.662993,-0.0784684,9.78766,0.0886004,-0.561008,0.983246,-0.00663124,-0.000794834,0.0978764,1,5.08986e-05,-6.77446e-06,1.40595e-05,0.0101797,-0.00135489,0.00281191,0,0,0,0,0.00734195,0.500943,-0.991914,35.9375,1,20603,9360833
27,2,-0.663308,-0.066914,9.78641,0.0908568,-0.548167,0.982562,-0.00663595,-0.000678192,0.0978639,1,4.53312e-05,-1.4754e-05,1.35191e-05,0.00906624,-0.0029508,0.00270383,0,0,0,0,0.00879048,0.5043,-0.989321,35.9375,1,20604,9360933
27,3,-0.663308,-0.066914,9.78641,0.0908568,-0.548167,0.982562,-0.00663595,-0.000678192,0.0978639,1,4.53312e-05,-1.4754e-05,1.35191e-05,0.00906624,-0.0029508,0.00270383,0,0,0,0,0.00879048,0.5043,-0.989321,35.9375,1,20604,9360933
27,4,-0.660929,-0.0666191,9.79352,0.0956534,-0.549293,0.986918,-0.00661066,-0.000674145,0.0979351,1,3.93876e-05,-7.12067e-06,1.80919e-05,0.00787751,-0.00142413,0.00361837,0,0,0,0,0.00966774,0.508691,-0.989733,35.9375,1,20605,9361033
27,5,-0.660929,-0.0666191,9.79352,0.0956534,-0.549293,0.986918,-0.00661066,-0.000674145,0.0979351,1,3.93876e-05,-7.12067e-06,1.80919e-05,0.00787751,-0.00142413,0.00361837,0,0,0,0,0.00966774,0.508691,-0.989733,35.9375,1,20605,9361033
27,6,-0.658167,-0.0757562,9.78766,0.0998739,-0.561016,0.982784,-0.00658285,-0.000765912,0.0978764,1,4.2202e-05,-6.07946e-06,6.79297e-06,0.0084404,-0.00121589,0.00135859,0,0,0,0,0.0124804,0.508721,-0.992775,35.9375,1,20606,9361133
28,1,-0.658167,-0.0757562,9.78766,0.0998739,-0.561016,0.982784,-0.00658285,-0.000765912,0.0978764,1,4.2202e-05,-6.07946e-06,6.79297e-06,0.0084404,-0.00121589,0.00135859,0,0,0,0,0.0124804,0.508721,-0.992775,35.9375,1,20606,9361133
28,2,-0.66443,-0.0732272,9.79994,0.0907855,-0.561895,0.99551,-0.00664754,-0.000740262,0.0979991,1,4.00655e-05,-1.66355e-05,1.03318e-05,0.00801309,-0.0033271,0.00206637,0,0,0,0,0.0109669,0.507821,-0.996324,35.9375,1,20607,9361233
28,3,-0.66443,-0.0732272,9.79994,0.0907855,-0.561895,0.99551,-0.00664754,-0.000740262,0.0979991,1,4.00655e-05,-1.66355e-05,1.03318e-05,0.00801309,-0.0033271,0.00206637,0,0,0,0,0.0109669,0.507821,-0.996324,35.9375,1,20607,9361233
28,4,-0.678742,-0.0738856,9.79969,0.0721993,-0.562028,0.997548,-0.00678995,-0.000748301,0.0979966,1,4.68586e-05,-1.30686e-05,1.92577e-05,0.00937172,-0.00261371,0.00385154,0,0,0,0,0.00816986,0.50537,-0.994345,35.9375,1,20608,9361333
28,5,-0.678742,-0.0738856,9.79969,0.0721993,-0.562028,0.997548,-0.00678995,-0.000748301,0.0979966,1,4.68586e-05,-1.30686e-05,1.92577e-05,0.00937172,-0.00261371,0.00385154,0,0,0,0,0.00816986,0.50537,-0.994345,35.9375,1,20608,9361333
28,6,-0.659893,-0.0627357,9.79287,0.100792,-0.547504,0.990061,-0.0066017,-0.000637707,0.0979284,1,5.16325e-05,-1.42472e-05,1.80026e-05,0.0103265,-0.00284945,0.00360051,0,0,0,0,0.0077789,0.504344,-0.991336,35.9375,1,20609,9361433
29,1,-0.659893,-0.0627357,9.79287,0.100792,-0.547504,0.990061,-0.0066017,-0.000637707,0.0979284,1,5.16325e-05,-1.42472e-05,1.80026e-05,0.0103265,-0.00284945,0.00360051,0,0,0,0,0.0077789,0.504344,-0.991336,35.9375,1,20609,9361433
29,2,-0.673055,-0.0721276,9.79153,0.0807255,-0.559958,0.990103,-0.00673292,-0.000730176,0.097915,1,4.41895e-05,-1.22653e-05,1.82929e-05,0.00883791,-0.00245307,0.00365858,0,0,0,0,0.00928012,0.505254,-0.988292,35.9375,1,20610,9361533
29,3,-0.673055,-0.0721276,9.79153,0.0807255,-0.559958,0.990103,-0.00673292,-0.000730176,0.097915,1,4.41895e-05,-1.22653e-05,1.82929e-05,0.00883791,-0.00245307,0.00365858,0,0,0,0,0.00928012,0.505254,-0.988292,35.9375,1,20610,9361533
29,4,-0.668444,-0.0758882,9.7884,0.0898035,-0.562893,0.980625,-0.00668638,-0.000766312,0.0978838,1,3.69379e-05,-1.00227e-05,1.48177e-05,0.00738759,-0.00200455,0.00296355,0,0,0,0,0.0116045,0.508666,-0.989237,35.9375,1,20611,9361633
29,5,-0.668444,-0.0758882,9.7884,0.0898035,-0.562893,0.980625,-0.00668638,-0.000766312,0.0978838,1,3.69379e-05,-1.00227e-05,1.48177e-05,0.00738759,-0.00200455,0.00296355,0,0,0,0,0.0116045,0.508666,-0.989237,35.9375,1,20611,9361633
29,6,-0.660583,-0.069263,9.78738,0.0946025,-0.561173,0.985791,-0.00660832,-0.000702042,0.0978736,1,4.75719e-05,-1.27667e-05,7.55311e-06,0.00951438,-0.00255334,0.00151062,0,0,0,0,0.0129653,0.507751,-0.993304,35.9375,1,20612,9361733
30,1,-0.660583,-0.069263,9.78738,0.0946025,-0.561173,0.985791,-0.00660832,-0.000702042,0.0978736,1,4.75719e-05,-1.27667e-05,7.55311e-06,0.00951438,-0.00255334,0.00151062,0,0,0,0,0.0129653,0.507751,-0.993304,35.9375,1,20612,9361733
30,2,-0.650067,-0.0660082,9.78362,0.104848,-0.557953,0.976486,-0.00650326,-0.000669869,0.0978359,1,4.88795e-05,-1.33645e-05,1.71159e-05,0.00977591,-0.0026729,0.00342317,0,0,0,0,0.010555,0.505847,-0.99485,35.9375,1,20613,9361833
30,3,-0.650067,-0.0660082,9.78362,0.104848,-0.557953,0.976486,-0.00650326,-0.000669869,0.0978359,1,4.88795e-05,-1.33645e-05,1.71159e-05,0.00977591,-0.0026729,0.00342317,0,0,0,0,0.010555,0.505847,-0.99485,35.9375,1,20613,9361833
30,4,-0.66605,-0.0696604,9.78708,0.0900573,-0.563031,0.98597,-0.00666154,-0.000705928,0.0978707,1,4.66612e-05,-5.42922e-06,1.42435e-05,0.00933224,-0.00108584,0.00284871,0,0,0,0,0.00870413,0.504364,-0.992855,35.9375,1,20614,9361933
30,5,-0.66605,-0.0696604,9.78708,0.0900573,-0.563031,0.98597,-0.00666154,-0.000705928,0.0978707,1,4.66612e-05,-5.42922e-06,1.42435e-05,0.00933224,-0.00108584,0.00284871,0,0,0,0,0.00870413,0.504364,-0.992855,35.9375,1,20614,9361933
30,6,-0.660633,-0.0761734,9.79105,0.0989043,-0.57462,0.990185,-0.00660633,-0.000769774,0.0979105,1,3.97395e-05,-1.5452e-07,1.95299e-05,0.0079479,-3.0904e-05,0.00390599,0,0,0,0,0.00879855,0.503813,-0.989332,35.9375,1,20615,9362033
31,1,-0.660633,-0.0761734,9.79105,0.0989043,-0.57462,0.990185,-0.00660633,-0.000769774,0.0979105,1,3.97395e-05,-1.5452e-07,1.95299e-05,0.0079479,-3.0904e-05,0.00390599,0,0,0,0,0.00879855,0.503813,-0.989332,35.9375,1,20615,9362033
31,2,-0.658616,-0.0667877,9.78605,0.0978026,-0.560621,0.977781,-0.00658718,-0.000676974,0.0978603,1,4.63612e-05,-5.21756e-06,1.708e-06,0.00927225,-0.00104351,0.0003416,0,0,0,0,0.00930906,0.505715,-0.986767,35.9375,1,20616,9362133
31,3,-0.658616,-0.0667877,9.78605,0.0978026,-0.560621,0.977781,-0.00658718,-0.000676974,0.0978603,1,4.63612e-05,-5.21756e-06,1.708e-06,0.00927225,-0.00104351,0.0003416,0,0,0,0,0.00930906,0.505715,-0.986767,35.9375,1,20616,9362133
31,4,-0.669511,-0.0780395,9.79417,0.0845277,-0.569785,0.9915,-0.00670002,-0.000788124,0.0979413,1,3.86648e-05,-2.51532e-05,1.15819e-05,0.00773296,-0.00503063,0.00231638,0,0,0,0,0.00967961,0.507237,-0.99027,35.9375,1,20617,9362233
31,5,-0.669511,-0.0780395,9.79417,0.0845277,-0.569785,0.9915,-0.00670002,-0.000788124,0.0979413,1,3.86648e-05,-2.51532e-05,1.15819e-05,0.00773296,-0.00503063,0.00231638,0,0,0,0,0.00967961,0.507237,-0.99027,35.9375,1,20617,9362233
31,6,-0.663613,-0.0813285,9.78154,0.0930156,-0.576179,0.976024,-0.00663714,-0.000820191,0.0978153,1,3.38592e-05,-5.31248e-06,2.12378e-05,0.00677184,-0.0010625,0.00424756,0,0,0,0,0.0100948,0.506799,-0.993312,35.9375,1,20618,9362333
32,1,-0.663613,-0.0813285,9.78154,0.0930156,-0.576179,0.976024,-0.00663714,-0.000820191,0.0978153,1,3.38592e-05,-5.31248e-06,2.12378e-05,0.00677184,-0.0010625,0.00424756,0,0,0,0,0.0100948,0.506799,-0.993312,35.9375,1,20618,9362333
32,2,-0.658505,-0.0794985,9.78491,0.0946416,-0.577015,0.980721,-0.00658674,-0.000804034,0.0978489,1,4.47594e-05,-8.79895e-06,2.20034e-05,0.00895188,-0.00175979,0.00440069,0,0,0,0,0.00816559,0.504891,-0.994861,35.9375,1,20619,9362433
32,3,-0.658505,-0.0794985,9.78491,0.0946416,-0.577015,0.980721,-0.00658674,-0.000804034,0.0978489,1,4.47594e-05,-8.79895e-06,2.20034e-05,0.00895188,-0.00175979,0.00440069,0,0,0,0,0.00816559,0.504891,-0.994861,35.9375,1,20619,9362433
32,4,-0.663354,-0.0703058,9.78774,0.0953459,-0.568986,0.982251,-0.00663504,-0.000712917,0.0978772,1,4.94178e-05,-7.7559e-06,1.39793e-05,0.00988357,-0.00155118,0.00279585,0,0,0,0,0.00774996,0.503884,-0.992861,35.9375,1,20620,9362533
32,5,-0.663354,-0.0703058,9.78774,0.0953459,-0.568986,0.982251,-0.00663504,-0.000712917,0.0978772,1,4.94178e-05,-7.7559e-06,1.39793e-05,0.00988357,-0.00155118,0.00279585,0,0,0,0,0.00774996,0.503884,-0.992861,35.9375,1,20620,9362533
32,6,-0.656984,-0.0751787,9.80054,0.0974322,-0.567084,0.998104,-0.00657347,-0.000761224,0.0980051,1,4.71602e-05,-1.8634e-05,1.46329e-05,0.00943205,-0.00372681,0.00292659,0,0,0,0,0.00779931,0.503848,-0.990842,35.9375,1,20621,9362633
33,1,-0.656984,-0.0751787,9.80054,0.0974322,-0.567084,0.998104,-0.00657347,-0.000761224,0.0980051,1,4.71602e-05,-1.8634e-05,1.46329e-05,0.00943205,-0.00372681,0.00292659,0,0,0,0,0.00779931,0.503848,-0.990842,35.9375,1,20621,9362633
33,2,-0.658122,-0.0847192,9.78927,0.0930322,-0.582465,0.983231,-0.00658207,-0.000854718,0.0978926,1,3.79701e-05,-4.41425e-06,6.99234e-06,0.00759401,-0.00088285,0.00139847,0,0,0,0,0.00982246,0.50376,-0.986813,35.9375,1,20622,9362733
33,3,-0.658122,-0.0847192,9.78927,0.0930322,-0.582465,0.983231,-0.00658207,-0.000854718,0.0978926,1,3.79701e-05,-4.41425e-06,6.99234e-06,0.00759401,-0.00088285,0.00139847,0,0,0,0,0.00982246,0.50376,-0.986813,35.9375,1,20622,9362733
33,4,-0.657794,-0.0760085,9.78766,0.0975641,-0.578143,0.983603,-0.00657886,-0.000770114,0.0978764,1,4.93473e-05,-4.9117e-06,2.80623e-05,0.00986945,-0.00098234,0.00561246,0,0,0,0,0.0112539,0.505202,-0.986282,35.9375,1,20623,9362833
33,5,-0.657794,-0.0760085,9.78766,0.0975641,-0.578143,0.983603,-0.00657886,-0.000770114,0.0978764,1,4.93473e-05,-4.9117e-06,2.80623e-05,0.00986945,-0.00098234,0.00561246,0,0,0,0,0.0112539,0.505202,-0.986282,35.9375,1,20623,9362833
33,6,-0.653311,-0.0792102,9.78997,0.103847,-0.573596,0.983888,-0.00653521,-0.000800465,0.0978995,1,4.17251e-05,-1.08111e-05,1.47817e-05,0.00834502,-0.00216222,0.00295635,0,0,0,0,0.0111102,0.505789,-0.991824,35.9375,1,20624,9362933
34,1,-0.653311,-0.0792102,9.78997,0.103847,-0.573596,0.983888,-0.00653521,-0.000800465,0.0978995,1,4.17251e-05,-1.08111e-05,1.47817e-05,0.00834502,-0.00216222,0.00295635,0,0,0,0,0.0111102,0.505789,-0.991824,35.9375,1,20624,9362933
34,2,-0.655595,-0.0660986,9.78805,0.0967886,-0.572079,0.982422,-0.00655827,-0.000670698,0.0978803,1,4.79498e-05,-1.20366e-05,2.48295e-05,0.00958996,-0.00240732,0.00496591,0,0,0,0,0.0095762,0.505385,-0.995866,35.9375,1,20625,9363033
34,3,-0.655595,-0.0660986,9.78805,0.0967886,-0.572079,0.982422,-0.00655827,-0.000670698,0.0978803,1,4.79498e-05,-1.20366e-05,2.48295e-05,0.00958996,-0.00240732,0.00496591,0,0,0,0,0.0095762,0.505385,-0.995866,35.9375,1,20625,9363033
34,4,-0.660177,-0.0809574,9.79644,0.100311,-0.579231,0.988468,-0.0066028,-0.000818959,0.0979643,1,4.61879e-05,-5.48568e-06,2.53768e-05,0.00923757,-0.00109714,0.00507537,0,0,0,0,0.0101228,0.50437,-0.993871,35.9375,1,20626,9363133
34,5,-0.660177,-0.0809574,9.79644,0.100311,-0.579231,0.988468,-0.0066028,-0.000818959,0.0979643,1,4.61879e-05,-5.48568e-06,2.53768e-05,0.00923757,-0.00109714,0.00507537,0,0,0,0,0.0101228,0.50437,-0.993871,35.9375,1,20626,9363133
34,6,-0.666366,-0.0714029,9.79419,0.0863547,-0.579198,0.992997,-0.00666525,-0.000723656,0.0979417,1,4.77097e-05,-8.2983e-06,2.10928e-05,0.00954194,-0.00165966,0.00421855,0,0,0,0,0.00779977,0.505293,-0.989799,35.9375,1,20627,9363233
35,1,-0.666366,-0.0714029,9.79419,0.0863547,-0.579198,0.992997,-0.00666525,-0.000723656,0.0979417,1,4.77097e-05,-8.2983e-06,2.10928e-05,0.00954194,-0.00165966,0.00421855,0,0,0,0,0.00779977,0.505293,-0.989799,35.9375,1,20627,9363233
35,2,-0.664314,-0.0658217,9.78135,0.0910594,-0.571324,0.976327,-0.00664435,-0.000666938,0.0978134,1,4.35506e-05,-6.26411e-06,1.51391e-05,0.00871013,-0.00125282,0.00302781,0,0,0,0,0.00881987,0.506206,-0.986753,35.9375,1,20628,9363333
35,3,-0.664314,-0.0658217,9.78135,0.0910594,-0.571324,0.976327,-0.00664435,-0.000666938,0.0978134,1,4.35506e-05,-6.26411e-06,1.51391e-05,0.00871013,-0.00125282,0.00302781,0,0,0,0,0.00881987,0.506206,-0.986753,35.9375,1,20628,9363333
35,4,-0.667904,-0.0728254,9.80098,0.0844632,-0.575181,0.994902,-0.00668142,-0.000738642,0.0980096,1,5.13084e-05,-1.23327e-05,2.47451e-05,0.0102617,-0.00246655,0.00494902,0,0,0,0,0.0101655,0.509157,-0.988714,35.9375,1,20629,9363433
35,5,-0.667904,-0.0728254,9.80098,0.0844632,-0.575181,0.994902,-0.00668142,-0.000738642,0.0980096,1,5.13084e-05,-1.23327e-05,2.47451e-05,0.0102617,-0.00246655,0.00494902,0,0,0,0,0.0101655,0.509157,-0.988714,35.9375,1,20629,9363433
35,6,-0.65743,-0.0753949,9.7958,0.0977753,-0.581447,0.990677,-0.00657675,-0.000764115,0.0979577,1,5.06842e-05,-1.26348e-05,1.79449e-05,0.0101368,-0.00252697,0.00358898,0,0,0,0,0.00911687,0.509228,-0.992243,35.9375,1,20630,9363533
36,1,-0.65743,-0.0753949,9.7958,0.0977753,-0.581447,0.990677,-0.00657675,-0.000764115,0.0979577,1,5.06842e-05,-1.26348e-05,1.79449e-05,0.0101368,-0.00252697,0.00358898,0,0,0,0,0.00911687,0.509228,-0.992243,35.9375,1,20630,9363533
36,2,-0.681138,-0.0812352,9.79319,0.0767031,-0.589845,0.98844,-0.00681397,-0.000825147,0.0979317,1,6.42483e-05,-1.33288e-05,1.5445e-05,0.0128497,-0.00266577,0.003089,0,0,0,0,0.00960133,0.506812,-0.993814,35.9375,1,20631,9363633
36,3,-0.681138,-0.0812352,9.79319,0.0767031,-0.589845,0.98844,-0.00681397,-0.000825147,0.0979317,1,6.42483e-05,-1.33288e-05,1.5445e-05,0.0128497,-0.00266577,0.003089,0,0,0,0,0.00960133,0.506812,-0.993814,35.9375,1,20631,9363633
36,4,-0.655826,-0.0630636,9.78402,0.100923,-0.566987,0.974976,-0.00656207,-0.000639942,0.0978399,1,4.71436e-05,-1.94869e-05,6.19137e-06,0.00942872,-0.00389738,0.00123827,0,0,0,0,0.0106286,0.504348,-0.992864,35.9375,1,20632,9363733
36,5,-0.655826,-0.0630636,9.78402,0.100923,-0.566987,0.974976,-0.00656207,-0.000639942,0.0978399,1,4.71436e-05,-1.94869e-05,6.19137e-06,0.00942872,-0.00389738,0.00123827,0,0,0,0,0.0106286,0.504348,-0.992864,35.9375,1,20632,9363733
36,6,-0.668959,-0.0770078,9.78806,0.0882028,-0.582621,0.97918,-0.00669245,-0.000782101,0.0978803,1,6.02901e-05,-1.47356e-05,1.64266e-05,0.012058,-0.00294711,0.00328533,0,0,0,0,0.00926733,0.503818,-0.989839,35.9375,1,20633,9363833
36,7,-0.668959,-0.0770078,9.78806,0.0882028,-0.582621,0.97918,-0.00669245,-0.000782101,0.0978803,1,6.02901e-05,-1.47356e-05,1.64266e-05,0.012058,-0.00294711,0.00328533,0,0,0,0,0.00926733,0.503818,-0.989839,35.9375,1,20633,9363833
36,8,-0.667644,-0.0789212,9.7843,0.082916,-0.591017,0.980256,-0.00667936,-0.000797013,0.0978428,1,3.87337e-05,-1.50519e-05,1.65665e-05,0.00774674,-0.00301037,0.00331329,0,0,0,0,0.00882368,0.50524,-0.98728,35.9375,1,20634,9363933
37,1,-0.667644,-0.0789212,9.7843,0.082916,-0.591017,0.980256,-0.00667936,-0.000797013,0.0978428,1,3.87337e-05,-1.50519e-05,1.65665e-05,0.00774674,-0.00301037,0.00331329,0,0,0,0,0.00882368,0.50524,-0.98728,35.9375,1,20634,9363933
37,2,-0.658379,-0.0703481,9.79958,0.0963332,-0.578361,0.989492,-0.00658759,-0.000711576,0.0979955,1,4.06392e-05,-1.94626e-05,9.89458e-06,0.00812784,-0.00389252,0.00197892,0,0,0,0,0.00824053,0.507728,-0.989747,35.9375,1,20635,9364033
37,3,-0.658379,-0.0703481,9.79958,0.0963332,-0.578361,0.989492,-0.00658759,-0.000711576,0.0979955,1,4.06392e-05,-1.94626e-05,9.89458e-06,0.00812784,-0.00389252,0.00197892,0,0,0,0,0.00824053,0.507728,-0.989747,35.9375,1,20635,9364033
37,4,-0.672618,-0.0788582,9.79113,0.0844854,-0.591075,0.984995,-0.00673018,-0.000799655,0.0979109,1,5.60042e-05,-2.04833e-05,7.89014e-06,0.0112008,-0.00409666,0.00157803,0,0,0,0,0.00914108,0.507765,-0.992276,35.9375,1,20636,9364133
37,5,-0.672618,-0.0788582,9.79113,0.0844854,-0.591075,0.984995,-0.00673018,-0.000799655,0.0979109,1,5.60042e-05,-2.04833e-05,7.89014e-06,0.0112008,-0.00409666,0.00157803,0,0,0,0,0.00914108,0.507765,-0.992276,35.9375,1,20636,9364133
37,6,-0.656282,-0.0767798,9.79477,0.0944197,-0.587373,0.986122,-0.00656633,-0.000778597,0.0979474,1,5.40559e-05,-1.8036e-05,1.59254e-05,0.0108112,-0.0036072,0.00318508,0,0,0,0,0.00960133,0.506812,-0.993814,35.9375,1,20637,9364233
38,1,-0.656282,-0.0767798,9.79477,0.0944197,-0.587373,0.986122,-0.00656633,-0.000778597,0.0979474,1,5.40559e-05,-1.8036e-05,1.59254e-05,0.0108112,-0.0036072,0.00318508,0,0,0,0,0.00960133,0.506812,-0.993814,35.9375,1,20637,9364233
38,2,-0.66096,-0.0675953,9.79046,0.094535,-0.583294,0.981667,-0.00661008,-0.000684389,0.0979045,1,4.09951e-05,-2.62795e-06,3.09756e-05,0.00819903,-0.000525589,0.00619513,0,0,0,0,0.0101717,0.502888,-0.992894,35.9375,1,20638,9364333
38,3,-0.66096,-0.0675953,9.79046,0.094535,-0.583294,0.981667,-0.00661008,-0.000684389,0.0979045,1,4.09951e-05,-2.62795e-06,3.09756e-05,0.00819903,-0.000525589,0.00619513,0,0,0,0,0.0101717,0.502888,-0.992894,35.9375,1,20638,9364333
38,4,-0.667129,-0.0810934,9.79887,0.0857867,-0.594089,0.991561,-0.00667453,-0.00081943,0.0979884,1,4.16525e-05,-1.6697e-05,2.49034e-05,0.00833049,-0.0033394,0.00498069,0,0,0,0,0.00878195,0.503343,-0.990352,35.9375,1,20639,9364433
38,5,-0.667129,-0.0810934,9.79887,0.0857867,-0.594089,0.991561,-0.00667453,-0.00081943,0.0979884,1,4.16525e-05,-1.6697e-05,2.49034e-05,0.00833049,-0.0033394,0.00498069,0,0,0,0,0.00878195,0.503343,-0.990352,35.9375,1,20639,9364433
38,6,-0.665329,-0.0733061,9.78128,0.0879014,-0.590729,0.975166,-0.00665612,-0.000744449,0.0978126,1,5.66859e-05,-1.46364e-05,2.24132e-05,0.0113372,-0.00292727,0.00448264,0,0,0,0,0.0102466,0.505725,-0.987781,35.9375,1,20640,9364533
39,1,-0.665329,-0.0733061,9.78128,0.0879014,-0.590729,0.975166,-0.00665612,-0.000744449,0.0978126,1,5.66859e-05,-1.46364e-05,2.24132e-05,0.0113372,-0.00292727,0.00448264,0,0,0,0,0.0102466,0.505725,-0.987781,35.9375,1,20640,9364533
39,2,-0.659782,-0.076401,9.7897,0.0947396,-0.585981,0.982887,-0.0066007,-0.000774541,0.0978967,1,5.23086e-05,-1.49032e-05,2.19326e-05,0.0104617,-0.00298064,0.00438652,0,0,0,0,0.0111476,0.507207,-0.989267,35.9375,1,20641,9364633
39,3,-0.659782,-0.076401,9.7897,0.0947396,-0.585981,0.982887,-0.0066007,-0.000774541,0.0978967,1,5.23086e-05,-1.49032e-05,2.19326e-05,0.0104617,-0.00298064,0.00438652,0,0,0,0,0.0111476,0.507207,-0.989267,35.9375,1,20641,9364633
39,4,-0.664442,-0.0769688,9.79584,0.0875967,-0.591345,0.99039,-0.0066474,-0.000778647,0.0979581,1,4.43272e-05,-1.53581e-05,2.06396e-05,0.00886544,-0.00307161,0.00412792,0,0,0,0,0.0100952,0.508245,-0.99227,35.9375,1,20642,9364733
40,1,-0.664442,-0.0769688,9.79584,0.0875967,-0.591345,0.99039,-0.0066474,-0.000778647,0.0979581,1,4.43272e-05,-1.53581e-05,2.06396e-05,0.00886544,-0.00307161,0.00412792,0,0,0,0,0.0100952,0.508245,-0.99227,35.9375,1,20642,9364733
40,2,-0.670567,-0.0703711,9.79899,0.0814877,-0.58505,0.998919,-0.00671033,-0.000714628,0.0979895,1,5.47133e-05,-2.38345e-05,1.44933e-05,0.0109427,-0.0047669,0.00289866,0,0,0,0,0.0081129,0.507339,-0.995311,35.9375,1,20643,9364833
40,3,-0.670567,-0.0703711,9.79899,0.0814877,-0.58505,0.998919,-0.00671033,-0.000714628,0.0979895,1,5.47133e-05,-2.38345e-05,1.44933e-05,0.0109427,-0.0047669,0.00289866,0,0,0,0,0.0081129,0.507339,-0.995311,35.9375,1,20643,9364833
40,4,-0.656752,-0.0667909,9.79146,0.0945847,-0.58528,0.985987,-0.00657081,-0.000678415,0.0979143,1,5.23701e-05,-1.69185e-05,1.90436e-05,0.010474,-0.0033837,0.00380872,0,0,0,0,0.0072527,0.504863,-0.992837,35.9375,1,20644,9364933
41,1,-0.656752,-0.0667909,9.79146,0.0945847,-0.58528,0.985987,-0.00657081,-0.000678415,0.0979143,1,5.23701e-05,-1.69185e-05,1.90436e-05,0.010474,-0.0033837,0.00380872,0,0,0,0,0.0072527,0.504863,-0.992837,35.9375,1,20644,9364933
41,2,-0.662228,-0.0779787,9.78529,0.0887032,-0.592269,0.979337,-0.00662499,-0.000791539,0.0978526,1,5.94091e-05,-1.39116e-05,9.48109e-06,0.0118818,-0.00278233,0.00189622,0,0,0,0,0.00689449,0.503332,-0.988829,35.9375,1,20645,9365033
41,3,-0.662228,-0.0779787,9.78529,0.0887032,-0.592269,0.979337,-0.00662499,-0.000791539,0.0978526,1,5.94091e-05,-1.39116e-05,9.48109e-06,0.0118818,-0.00278233,0.00189622,0,0,0,0,0.00689449,0.503332,-0.988829,35.9375,1,20645,9365033
41,4,-0.66268,-0.0829889,9.79035,0.0862792,-0.604102,0.985984,-0.00663159,-0.000839808,0.0979031,1,4.91069e-05,-2.4652e-05,2.29439e-05,0.00982139,-0.00493039,0.00458878,0,0,0,0,0.0088849,0.50375,-0.985798,35.9375,1,20646,9365133
42,1,-0.66268,-0.0829889,9.79035,0.0862792,-0.604102,0.985984,-0.00663159,-0.000839808,0.0979031,1,4.91069e-05,-2.4652e-05,2.29439e-05,0.00982139,-0.00493039,0.00458878,0,0,0,0,0.0088849,0.50375,-0.985798,35.9375,1,20646,9365133
42,2,-0.666232,-0.0731567,9.78639,0.0864622,-0.592017,0.975661,-0.00666648,-0.000739964,0.0978635,1,4.10193e-05,-2.14837e-05,2.76508e-05,0.00820386,-0.00429674,0.00553017,0,0,0,0,0.0102433,0.508136,-0.986212,35.9375,1,20647,9365233
42,3,-0.666232,-0.0731567,9.78639,0.0864622,-0.592017,0.975661,-0.00666648,-0.000739964,0.0978635,1,4.10193e-05,-2.14837e-05,2.76508e-05,0.00820386,-0.00429674,0.00553017,0,0,0,0,0.0102433,0.508136,-0.986212,35.9375,1,20647,9365233
42,4,-0.665343,-0.0748727,9.79381,0.0882137,-0.594137,0.986635,-0.00665404,-0.000756402,0.097938,1,3.82252e-05,-3.22223e-06,1.41171e-05,0.00764504,-0.000644446,0.00282341,0,0,0,0,0.0115879,0.508197,-0.990257,35.9375,1,20648,9365333
43,1,-0.665343,-0.0748727,9.79381,0.0882137,-0.594137,0.986635,-0.00665404,-0.000756402,0.097938,1,3.82252e-05,-3.22223e-06,1.41171e-05,0.00764504,-0.000644446,0.00282341,0,0,0,0,0.0115879,0.508197,-0.990257,35.9375,1,20648,9365333
43,2,-0.66265,-0.0620949,9.78848,0.0898202,-0.580009,0.980726,-0.00663002,-0.000629466,0.0978845,1,4.28632e-05,-1.80002e-05,9.48304e-06,0.00857265,-0.00360005,0.00189661,0,0,0,0,0.0110812,0.505328,-0.993349,35.9375,1,20649,9365433
43,3,-0.66265,-0.0620949,9.78848,0.0898202,-0.580009,0.980726,-0.00663002,-0.000629466,0.0978845,1,4.28632e-05,-1.80002e-05,9.48304e-06,0.00857265,-0.00360005,0.00189661,0,0,0,0,0.0110812,0.505328,-0.993349,35.9375,1,20649,9365433
43,4,-0.663582,-0.074839,9.79211,0.0858535,-0.597847,0.984453,-0.00663839,-0.000756752,0.0979209,1,4.15313e-05,-1.32528e-05,1.72259e-05,0.00830626,-0.00265056,0.00344518,0,0,0,0,0.0087122,0.503876,-0.992865,35.9375,1,20650,9365533
44,1,-0.663582,-0.074839,9.79211,0.0858535,-0.597847,0.984453,-0.00663839,-0.000756752,0.0979209,1,4.15313e-05,-1.32528e-05,1.72259e-05,0.00830626,-0.00265056,0.00344518,0,0,0,0,0.0087122,0.503876,-0.992865,35.9375,1,20650,9365533
44,2,-0.660549,-0.0733604,9.79278,0.0909864,-0.594312,0.982678,-0.00660681,-0.000743407,0.0979276,1,4.9172e-05,-6.86565e-06,1.30702e-05,0.00983439,-0.00137313,0.00261403,0,0,0,0,0.0064053,0.503824,-0.988815,35.9375,1,20651,9365633
44,3,-0.660549,-0.0733604,9.79278,0.0909864,-0.594312,0.982678,-0.00660681,-0.000743407,0.0979276,1,4.9172e-05,-6.86565e-06,1.30702e-05,0.00983439,-0.00137313,0.00261403,0,0,0,0,0.0064053,0.503824,-0.988815,35.9375,1,20651,9365633
44,4,-0.656729,-0.0779092,9.79407,0.0980159,-0.596481,0.987788,-0.00656977,-0.000787986,0.0979405,1,4.37367e-05,-1.28636e-05,2.48365e-05,0.00874734,-0.00257272,0.0049673,0,0,0,0,0.00886876,0.504725,-0.985776,35.9375,1,20652,9365733
45,1,-0.656729,-0.0779092,9.79407,0.0980159,-0.596481,0.987788,-0.00656977,-0.000787986,0.0979405,1,4.37367e-05,-1.28636e-05,2.48365e-05,0.00874734,-0.00257272,0.0049673,0,0,0,0,0.00886876,0.504725,-0.985776,35.9375,1,20652,9365733
45,2,-0.659897,-0.0747961,9.78259,0.0903343,-0.599316,0.972148,-0.00660091,-0.000760633,0.0978257,1,6.36894e-05,-1.00249e-05,1.60393e-05,0.0127379,-0.00200498,0.00320785,0,0,0,0,0.01116,0.507198,-0.988762,35.9375,1,20653,9365833
45,3,-0.659897,-0.0747961,9.78259,0.0903343,-0.599316,0.972148,-0.00660091,-0.000760633,0.0978257,1,6.36894e-05,-1.00249e-05,1.60393e-05,0.0127379,-0.00200498,0.00320785,0,0,0,0,0.01116,0.507198,-0.988762,35.9375,1,20653,9365833
45,4,-0.648334,-0.077634,9.78757,0.106568,-0.603466,0.97918,-0.00648395,-0.00078756,0.0978756,1,5.68703e-05,-3.14406e-06,6.76693e-06,0.0113741,-0.000628812,0.00135339,0,0,0,0,0.0115097,0.507772,-0.993802,35.9375,1,20654,9365933
46,1,-0.648334,-0.077634,9.78757,0.106568,-0.603466,0.97918,-0.00648395,-0.00078756,0.0978756,1,5.68703e-05,-3.14406e-06,6.76693e-06,0.0113741,-0.000628812,0.00135339,0,0,0,0,0.0115097,0.507772,-0.993802,35.9375,1,20654,9365933
46,2,-0.65532,-0.0791528,9.79779,0.0992311,-0.605813,0.990682,-0.00655474,-0.000802702,0.0979777,1,5.59316e-05,-7.97597e-06,1.63239e-05,0.0111863,-0.00159519,0.00326478,0,0,0,0,0.00955245,0.508294,-0.994791,35.9375,1,20655,9366033
46,3,-0.65532,-0.0791528,9.79779,0.0992311,-0.605813,0.990682,-0.00655474,-0.000802702,0.0979777,1,5.59316e-05,-7.97597e-06,1.63239e-05,0.0111863,-0.00159519,0.00326478,0,0,0,0,0.00955245,0.508294,-0.994791,35.9375,1,20655,9366033
46,4,-0.669559,-0.0656625,9.7868,0.0831324,-0.591408,0.976805,-0.00669605,-0.000664507,0.0978679,1,3.89125e-05,-2.50893e-06,1.98503e-05,0.0077825,-0.000501786,0.00397006,0,0,0,0,0.00822347,0.505813,-0.99181,35.9375,1,20656,9366133
47,1,-0.669559,-0.0656625,9.7868,0.0831324,-0.591408,0.976805,-0.00669605,-0.000664507,0.0978679,1,3.89125e-05,-2.50893e-06,1.98503e-05,0.0077825,-0.000501786,0.00397006,0,0,0,0,0.00822347,0.505813,-0.99181,35.9375,1,20656,9366133
47,2,-0.66307,-0.0857051,9.78727,0.0881782,-0.610275,0.980454,-0.00663478,-0.000866497,0.0978724,1,4.72608e-05,-2.09811e-05,1.47056e-05,0.00945216,-0.00419623,0.00294111,0,0,0,0,0.00686174,0.503838,-0.989827,35.9375,1,20657,9366233
47,3,-0.66307,-0.0857051,9.78727,0.0881782,-0.610275,0.980454,-0.00663478,-0.000866497,0.0978724,1,4.72608e-05,-2.09811e-05,1.47056e-05,0.00945216,-0.00419623,0.00294111,0,0,0,0,0.00686174,0.503838,-0.989827,35.9375,1,20657,9366233
47,4,-0.673086,-0.0730807,9.78541,0.0777992,-0.600762,0.979075,-0.00673421,-0.00074016,0.0978538,1,4.64264e-05,-1.7291e-05,1.98149e-05,0.00928528,-0.0034582,0.00396297,0,0,0,0,0.00733525,0.505767,-0.988777,35.9375,1,20658,9366333
48,1,-0.673086,-0.0730807,9.78541,0.0777992,-0.600762,0.979075,-0.00673421,-0.00074016,0.0978538,1,4.64264e-05,-1.7291e-05,1.98149e-05,0.00928528,-0.0034582,0.00396297,0,0,0,0,0.00733525,0.505767,-0.988777,35.9375,1,20658,9366333
48,2,-0.662888,-0.075746,9.78973,0.094165,-0.600761,0.981273,-0.00663049,-0.000767601,0.0978971,1,5.03734e-05,-8.35575e-06,2.1003e-05,0.0100747,-0.00167115,0.00420061,0,0,0,0,0.0106138,0.509659,-0.989715,35.9375,1,20659,9366433
48,3,-0.662888,-0.075746,9.78973,0.094165,-0.600761,0.981273,-0.00663049,-0.000767601,0.0978971,1,5.03734e-05,-8.35575e-06,2.1003e-05,0.0100747,-0.00167115,0.00420061,0,0,0,0,0.0106138,0.509659,-0.989715,35.9375,1,20659,9366433
48,4,-0.663132,-0.0796007,9.79716,0.087214,-0.610349,0.98686,-0.00663466,-0.000807642,0.0979713,1,5.83975e-05,-1.71833e-05,1.45342e-05,0.0116795,-0.00343665,0.00290685,0,0,0,0,0.0120444,0.508211,-0.991269,35.9375,1,20660,9366533
49,1,-0.663132,-0.0796007,9.79716,0.087214,-0.610349,0.98686,-0.00663466,-0.000807642,0.0979713,1,5.83975e-05,-1.71833e-05,1.45342e-05,0.0116795,-0.00343665,0.00290685,0,0,0,0,0.0120444,0.508211,-0.991269,35.9375,1,20660,9366533
49,2,-0.660468,-0.0702642,9.79925,0.0923081,-0.596884,0.987714,-0.00660725,-0.000712957,0.0979923,1,5.18522e-05,-1.31655e-05,1.15521e-05,0.0103704,-0.0026331,0.00231043,0,0,0,0,0.0110774,0.506295,-0.992823,35.9375,1,20661,9366633
49,3,-0.660468,-0.0702642,9.79925,0.0923081,-0.596884,0.987714,-0.00660725,-0.000712957,0.0979923,1,5.18522e-05,-1.31655e-05,1.15521e-05,0.0103704,-0.0026331,0.00231043,0,0,0,0,0.0110774,0.506295,-0.992823,35.9375,1,20661,9366633
49,4,-0.65515,-0.0724755,9.79682,0.0940646,-0.600102,0.987844,-0.00655128,-0.000732331,0.0979681,1,3.77149e-05,9.9639e-07,1.42305e-05,0.00754298,0.000199278,0.00284611,0,0,0,0,0.010686,0.503824,-0.990856,35.9375,1,20662,9366733
50,1,-0.65515,-0.0724755,9.79682,0.0940646,-0.600102,0.987844,-0.00655128,-0.000732331,0.0979681,1,3.77149e-05,9.9639e-07,1.42305e-05,0.00754298,0.000199278,0.00284611,0,0,0,0,0.010686,0.503824,-0.990856,35.9375,1,20662,9366733
50,2,-0.661624,-0.0643918,9.79388,0.0932348,-0.595578,0.98193,-0.00661758,-0.000654987,0.0979387,1,5.61718e-05,-6.86752e-06,5.02166e-06,0.0112344,-0.00137351,0.00100433,0,0,0,0,0.00886784,0.501835,-0.987861,35.9375,1,20663,9366833
50,3,-0.661624,-0.0643918,9.79388,0.0932348,-0.595578,0.98193,-0.00661758,-0.000654987,0.0979387,1,5.61718e-05,-6.86752e-06,5.02166e-06,0.0112344,-0.00137351,0.00100433,0,0,0,0,0.00886784,0.501835,-0.987861,35.9375,1,20663,9366833
50,4,-0.662175,-0.0764999,9.78972,0.0923705,-0.607436,0.980692,-0.00662306,-0.000774552,0.097897,1,4.75163e-05,-6.8264e-06,1.88105e-05,0.00950325,-0.00136528,0.0037621,0,0,0,0,0.0102993,0.503277,-0.98733,35.9375,1,20664,9366933
50,5,-0.662175,-0.0764999,9.78972,0.0923705,-0.607436,0.980692,-0.00662306,-0.000774552,0.097897,1,4.75163e-05,-6.8264e-06,1.88105e-05,0.00950325,-0.00136528,0.0037621,0,0,0,0,0.0102993,0.503277,-0.98733,35.9375,1,20664,9366933
50,6,-0.671444,-0.0818023,9.78464,0.0784789,-0.613617,0.977141,-0.00671626,-0.000831074,0.0978462,1,6.53024e-05,-9.46746e-06,2.02119e-05,0.0130605,-0.00189349,0.00404237,0,0,0,0,0.011168,0.50671,-0.988773,35.9375,1,20665,9367033
50,7,-0.671444,-0.0818023,9.78464,0.0784789,-0.613617,0.977141,-0.00671626,-0.000831074,0.0978462,1,6.53024e-05,-9.46746e-06,2.02119e-05,0.0130605,-0.00189349,0.00404237,0,0,0,0,0.011168,0.50671,-0.988773,35.9375,1,20665,9367033
50,8,-0.659496,-0.081259,9.79406,0.09393,-0.610942,0.982147,-0.00659427,-0.000821054,0.0979406,1,4.2962e-05,3.49609e-06,3.67289e-06,0.00859239,0.000699218,0.000734578,0,0,0,0,0.0111026,0.507722,-0.990771,35.9375,1,20666,9367133
51,1,-0.659496,-0.081259,9.79406,0.09393,-0.610942,0.982147,-0.00659427,-0.000821054,0.0979406,1,4.2962e-05,3.49609e-06,3.67289e-06,0.00859239,0.000699218,0.000734578,0,0,0,0,0.0111026,0.507722,-0.990771,35.9375,1,20666,9367133
51,2,-0.664472,-0.0786504,9.79514,0.083978,-0.607,0.982814,-0.00664612,-0.000795288,0.0979512,1,4.30199e-05,-7.37984e-06,2.67621e-05,0.00860399,-0.00147597,0.00535242,0,0,0,0,0.0101313,0.505327,-0.99284,35.9375,1,20667,9367233
51,3,-0.664472,-0.0786504,9.79514,0.083978,-0.607,0.982814,-0.00664612,-0.000795288,0.0979512,1,4.30199e-05,-7.37984e-06,2.67621e-05,0.00860399,-0.00147597,0.00535242,0,0,0,0,0.0101313,0.505327,-0.99284,35.9375,1,20667,9367233
51,4,-0.670784,-0.0796033,9.78296,0.0830858,-0.614897,0.976702,-0.00670872,-0.000802129,0.0978295,1,2.96403e-05,-4.68252e-06,2.21711e-05,0.00592806,-0.000936504,0.00443421,0,0,0,0,0.010213,0.50334,-0.990864,35.9375,1,20668,9367333
51,5,-0.670784,-0.0796033,9.78296,0.0830858,-0.614897,0.976702,-0.00670872,-0.000802129,0.0978295,1,2.96403e-05,-4.68252e-06,2.21711e-05,0.00592806,-0.000936504,0.00443421,0,0,0,0,0.010213,0.50334,-0.990864,35.9375,1,20668,9367333
51,6,-0.651641,-0.0659815,9.79211,0.0941744,-0.600474,0.981798,-0.006521,-0.000670685,0.0979208,1,5.47412e-05,-2.35157e-05,1.14574e-05,0.0109483,-0.00470314,0.00229149,0,0,0,0,0.00833404,0.504286,-0.988309,35.9375,1,20669,9367433
51,7,-0.651641,-0.0659815,9.79211,0.0941744,-0.600474,0.981798,-0.006521,-0.000670685,0.0979208,1,5.47412e-05,-2.35157e-05,1.14574e-05,0.0109483,-0.00470314,0.00229149,0,0,0,0,0.00833404,0.504286,-0.988309,35.9375,1,20669,9367433
51,8,-0.652349,-0.0759166,9.79135,0.0975601,-0.610219,0.984125,-0.00652565,-0.000769862,0.0979132,1,5.33349e-05,-1.11665e-05,1.92562e-05,0.010667,-0.00223331,0.00385123,0,0,0,0,0.00837577,0.506183,-0.985237,35.9375,1,20670,9367533
51,9,-0.652349,-0.0759166,9.79135,0.0975601,-0.610219,0.984125,-0.00652565,-0.000769862,0.0979132,1,5.33349e-05,-1.11665e-05,1.92562e-05,0.010667,-0.00223331,0.00385123,0,0,0,0,0.00837577,0.506183,-0.985237,35.9375,1,20670,9367533
51,10,-0.661148,-0.072008,9.785,0.0906824,-0.605214,0.976889,-0.00661553,-0.000729661,0.0978497,1,4.78291e-05,-2.08243e-05,1.66612e-05,0.00956581,-0.00416486,0.00333225,0,0,0,0,0.0106546,0.508665,-0.988728,35.9375,1,20671,9367633
52,1,-0.661148,-0.072008,9.785,0.0906824,-0.605214,0.976889,-0.00661553,-0.000729661,0.0978497,1,4.78291e-05,-2.08243e-05,1.66612e-05,0.00956581,-0.00416486,0.00333225,0,0,0,0,0.0106546,0.508665,-0.988728,35.9375,1,20671,9367633
52,2,-0.672694,-0.0792799,9.78603,0.0816077,-0.615168,0.973648,-0.00672939,-0.00080192,0.0978601,1,4.67579e-05,-1.24726e-05,-2.267e-06,0.00935159,-0.00249452,-0.000453401,0,0,0,0,0.0124676,0.507285,-0.994322,35.9375,1,20672,9367733
52,3,-0.672694,-0.0792799,9.78603,0.0816077,-0.615168,0.973648,-0.00672939,-0.00080192,0.0978601,1,4.67579e-05,-1.24726e-05,-2.267e-06,0.00935159,-0.00249452,-0.000453401,0,0,0,0,0.0124676,0.507285,-0.994322,35.9375,1,20672,9367733
52,4,-0.663392,-0.0696311,9.78333,0.085417,-0.607512,0.971176,-0.00663524,-0.000703855,0.0978332,1,3.70293e-05,-6.90692e-06,2.25158e-05,0.00740585,-0.00138138,0.00450316,0,0,0,0,0.0110808,0.503883,-0.994391,35.9375,1,20673,9367833
52,5,-0.663392,-0.0696311,9.78333,0.085417,-0.607512,0.971176,-0.00663524,-0.000703855,0.0978332,1,3.70293e-05,-6.90692e-06,2.25158e-05,0.00740585,-0.00138138,0.00450316,0,0,0,0,0.0110808,0.503883,-0.994391,35.9375,1,20673,9367833
52,6,-0.658464,-0.0768612,9.78629,0.0929384,-0.615141,0.979012,-0.00658799,-0.00077546,0.0978627,1,3.48185e-05,-1.71214e-05,2.5631e-06,0.00696369,-0.00342427,0.00051262,0,0,0,0,0.00926687,0.502372,-0.990881,35.9375,1,20674,9367933
52,7,-0.658464,-0.0768612,9.78629,0.0929384,-0.615141,0.979012,-0.00658799,-0.00077546,0.0978627,1,3.48185e-05,-1.71214e-05,2.5631e-06,0.00696369,-0.00342427,0.00051262,0,0,0,0,0.00926687,0.502372,-0.990881,35.9375,1,20674,9367933
52,8,-0.651741,-0.0750061,9.79101,0.0984547,-0.609835,0.985432,-0.00651827,-0.000759278,0.09791,1,4.63091e-05,-4.45908e-06,1.13734e-05,0.00926181,-0.000891817,0.00227468,0,0,0,0,0.00886404,0.502801,-0.987334,35.9375,1,20675,9368033
53,1,-0.651741,-0.0750061,9.79101,0.0984547,-0.609835,0.985432,-0.00651827,-0.000759278,0.09791,1,4.63091e-05,-4.45908e-06,1.13734e-05,0.00926181,-0.000891817,0.00227468,0,0,0,0,0.00886404,0.502801,-0.987334,35.9375,1,20675,9368033
53,2,-0.665582,-0.0825014,9.78087,0.0843005,-0.616463,0.969079,-0.00665772,-0.00083512,0.0978085,1,5.02933e-05,-9.88721e-06,2.00996e-05,0.0100587,-0.00197744,0.00401991,0,0,0,0,0.00985566,0.504699,-0.984772,35.9375,1,20676,9368133
53,3,-0.665582,-0.0825014,9.78087,0.0843005,-0.616463,0.969079,-0.00665772,-0.00083512,0.0978085,1,5.02933e-05,-9.88721e-06,2.00996e-05,0.0100587,-0.00197744,0.00401991,0,0,0,0,0.00985566,0.504699,-0.984772,35.9375,1,20676,9368133
53,4,-0.668208,-0.0706775,9.7847,0.08383,-0.602812,0.973979,-0.0066822,-0.000715416,0.097847,1,4.39174e-05,-6.18503e-07,3.47768e-06,0.00878349,-0.000123701,0.000695537,0,0,0,0,0.0111519,0.507686,-0.988752,35.9375,1,20677,9368233
53,5,-0.668208,-0.0706775,9.7847,0.08383,-0.602812,0.973979,-0.0066822,-0.000715416,0.097847,1,4.39174e-05,-6.18503e-07,3.47768e-06,0.00878349,-0.000123701,0.000695537,0,0,0,0,0.0111519,0.507686,-0.988752,35.9375,1,20677,9368233
53,6,-0.668594,-0.0704891,9.79863,0.0823802,-0.604881,0.989587,-0.00668991,-0.000712737,0.097986,1,3.87895e-05,-2.04091e-05,1.82579e-05,0.00775789,-0.00408182,0.00365157,0,0,0,0,0.0115832,0.506273,-0.991815,35.9375,1,20678,9368333
54,1,-0.668594,-0.0704891,9.79863,0.0823802,-0.604881,0.989587,-0.00668991,-0.000712737,0.097986,1,3.87895e-05,-2.04091e-05,1.82579e-05,0.00775789,-0.00408182,0.00365157,0,0,0,0,0.0115832,0.506273,-0.991815,35.9375,1,20678,9368333
54,2,-0.66499,-0.0713028,9.77994,0.086635,-0.611709,0.969006,-0.00665214,-0.000723214,0.0977992,1,5.05634e-05,-1.15916e-05,2.22117e-05,0.0101127,-0.00231832,0.00444234,0,0,0,0,0.00963788,0.50534,-0.993342,35.9375,1,20679,9368433
54,3,-0.66499,-0.0713028,9.77994,0.086635,-0.611709,0.969006,-0.00665214,-0.000723214,0.0977992,1,5.05634e-05,-1.15916e-05,2.22117e-05,0.0101127,-0.00231832,0.00444234,0,0,0,0,0.00963788,0.50534,-0.993342,35.9375,1,20679,9368433
54,4,-0.65945,-0.0870767,9.78485,0.0900741,-0.62613,0.969857,-0.00659659,-0.000878756,0.0978483,1,4.02928e-05,-1.07919e-05,7.91258e-06,0.00805855,-0.00215839,0.00158252,0,0,0,0,0.00872453,0.503867,-0.992361,35.9375,1,20680,9368533
55,1,-0.65945,-0.0870767,9.78485,0.0900741,-0.62613,0.969857,-0.00659659,-0.000878756,0.0978483,1,4.02928e-05,-1.07919e-05,7.91258e-06,0.00805855,-0.00215839,0.00158252,0,0,0,0,0.00872453,0.503867,-0.992361,35.9375,1,20680,9368533
55,2,-0.662266,-0.0744902,9.78939,0.0941564,-0.611364,0.980707,-0.00662374,-0.000752914,0.0978938,1,3.98234e-05,-5.64548e-06,1.63055e-05,0.00796468,-0.0011291,0.0032611,0,0,0,0,0.00883175,0.504752,-0.987291,35.9375,1,20681,9368633
55,3,-0.662266,-0.0744902,9.78939,0.0941564,-0.611364,0.980707,-0.00662374,-0.000752914,0.0978938,1,3.98234e-05,-5.64548e-06,1.63055e-05,0.00796468,-0.0011291,0.0032611,0,0,0,0,0.00883175,0.504752,-0.987291,35.9375,1,20681,9368633
55,4,-0.665311,-0.0770682,9.78566,0.0867365,-0.618537,0.977009,-0.00665593,-0.000782685,0.0978563,1,6.02657e-05,-1.45029e-05,1.56985e-05,0.0120531,-0.00290058,0.00313971,0,0,0,0,0.0116904,0.507158,-0.986746,35.9375,1,20682,9368733
55,5,-0.665311,-0.0770682,9.78566,0.0867365,-0.618537,0.977009,-0.00665593,-0.000782685,0.0978563,1,6.02657e-05,-1.45029e-05,1.56985e-05,0.0120531,-0.00290058,0.00313971,0,0,0,0,0.0116904,0.507158,-0.986746,35.9375,1,20682,9368733
55,6,-0.660485,-0.0772143,9.79038,0.0942757,-0.616711,0.979677,-0.00660672,-0.000780766,0.0979036,1,4.30904e-05,-9.66914e-06,1.40684e-05,0.00861809,-0.00193383,0.00281368,0,0,0,0,0.0111353,0.507216,-0.989772,35.9375,1,20683,9368833
55,7,-0.660485,-0.0772143,9.79038,0.0942757,-0.616711,0.979677,-0.00660672,-0.000780766,0.0979036,1,4.30904e-05,-9.66914e-06,1.40684e-05,0.00861809,-0.00193383,0.00281368,0,0,0,0,0.0111353,0.507216,-0.989772,35.9375,1,20683,9368833
55,8,-0.657176,-0.0721598,9.7887,0.0936621,-0.610481,0.977121,-0.00657208,-0.000731985,0.0978869,1,5.13253e-05,-1.80642e-06,2.57116e-05,0.0102651,-0.000361283,0.00514233,0,0,0,0,0.00967535,0.506758,-0.990786,35.9375,1,20684,9368933
56,1,-0.657176,-0.0721598,9.7887,0.0936621,-0.610481,0.977121,-0.00657208,-0.000731985,0.0978869,1,5.13253e-05,-1.80642e-06,2.57116e-05,0.0102651,-0.000361283,0.00514233,0,0,0,0,0.00967535,0.506758,-0.990786,35.9375,1,20684,9368933
56,2,-0.66357,-0.0708448,9.79384,0.0890348,-0.612982,0.985564,-0.00663827,-0.00071656,0.0979382,1,4.06746e-05,-1.3223e-05,1.09354e-05,0.00813491,-0.0026446,0.00218709,0,0,0,0,0.0105963,0.506299,-0.99282,35.9375,1,20685,9369033
56,3,-0.66357,-0.0708448,9.79384,0.0890348,-0.612982,0.985564,-0.00663827,-0.00071656,0.0979382,1,4.06746e-05,-1.3223e-05,1.09354e-05,0.00813491,-0.0026446,0.00218709,0,0,0,0,0.0105963,0.506299,-0.99282,35.9375,1,20685,9369033
56,4,-0.66578,-0.0652048,9.79187,0.0830474,-0.60663,0.982229,-0.00665749,-0.000660271,0.0979186,1,4.12595e-05,1.50707e-06,1.07772e-05,0.00825189,0.000301413,0.00215544,0,0,0,0,0.0101437,0.505318,-0.992335,35.9375,1,20686,9369133
56,5,-0.66578,-0.0652048,9.79187,0.0830474,-0.60663,0.982229,-0.00665749,-0.000660271,0.0979186,1,4.12595e-05,1.50707e-06,1.07772e-05,0.00825189,0.000301413,0.00215544,0,0,0,0,0.0101437,0.505318,-0.992335,35.9375,1,20686,9369133
56,6,-0.656306,-0.0747399,9.79716,0.094936,-0.614273,0.989694,-0.00656748,-0.000758283,0.0979712,1,5.46761e-05,-2.2614e-05,1.29493e-05,0.0109352,-0.0045228,0.00258986,0,0,0,0,0.0097323,0.504789,-0.98982,35.9375,1,20687,9369233
57,1,-0.656306,-0.0747399,9.79716,0.094936,-0.614273,0.989694,-0.00656748,-0.000758283,0.0979712,1,5.46761e-05,-2.2614e-05,1.29493e-05,0.0109352,-0.0045228,0.00258986,0,0,0,0,0.0097323,0.504789,-0.98982,35.9375,1,20687,9369233
57,2,-0.66071,-0.0802284,9.79747,0.090781,-0.621918,0.986751,-0.0066098,-0.000812798,0.0979745,1,5.23423e-05,-1.39177e-05,1.94924e-05,0.0104684,-0.00278354,0.00389848,0,0,0,0,0.0102998,0.504722,-0.986288,35.9375,1,20688,9369333
57,3,-0.66071,-0.0802284,9.79747,0.090781,-0.621918,0.986751,-0.0066098,-0.000812798,0.0979745,1,5.23423e-05,-1.39177e-05,1.94924e-05,0.0104684,-0.00278354,0.00389848,0,0,0,0,0.0102998,0.504722,-0.986288,35.9375,1,20688,9369333
57,4,-0.656257,-0.0780324,9.79205,0.0960131,-0.619884,0.978712,-0.00656631,-0.000791944,0.0979201,1,5.8219e-05,-1.92149e-05,1.66424e-05,0.0116438,-0.00384299,0.00332848,0,0,0,0,0.011168,0.50671,-0.988773,35.9375,1,20689,9369433
57,5,-0.656257,-0.0780324,9.79205,0.0960131,-0.619884,0.978712,-0.00656631,-0.000791944,0.0979201,1,5.8219e-05,-1.92149e-05,1.66424e-05,0.0116438,-0.00384299,0.00332848,0,0,0,0,0.011168,0.50671,-0.988773,35.9375,1,20689,9369433
57,6,-0.659506,-0.0746582,9.79073,0.0917435,-0.617355,0.977034,-0.00659656,-0.000758031,0.0979071,1,5.72838e-05,-7.81374e-06,1.76224e-05,0.0114568,-0.00156275,0.00352447,0,0,0,0,0.01248,0.507276,-0.993817,35.9375,1,20690,9369533
58,1,-0.659506,-0.0746582,9.79073,0.0917435,-0.617355,0.977034,-0.00659656,-0.000758031,0.0979071,1,5.72838e-05,-7.81374e-06,1.76224e-05,0.0114568,-0.00156275,0.00352447,0,0,0,0,0.01248,0.507276,-0.993817,35.9375,1,20690,9369533
58,2,-0.654394,-0.076132,9.7856,0.0943153,-0.620731,0.975149,-0.00654735,-0.000768221,0.0978557,1,3.49284e-05,-1.74603e-05,4.93424e-06,0.00698567,-0.00349206,0.000986848,0,0,0,0,0.0110528,0.506313,-0.993832,35.9375,1,20691,9369633
58,3,-0.654394,-0.076132,9.7856,0.0943153,-0.620731,0.975149,-0.00654735,-0.000768221,0.0978557,1,3.49284e-05,-1.74603e-05,4.93424e-06,0.00698567,-0.00349206,0.000986848,0,0,0,0,0.0110528,0.506313,-0.993832,35.9375,1,20691,9369633
58,4,-0.660755,-0.0736293,9.79889,0.0906618,-0.617704,0.988204,-0.00661108,-0.000743206,0.0979886,1,3.44031e-05,-1.81403e-05,1.28745e-05,0.00688062,-0.00362805,0.00257491,0,0,0,0,0.0102334,0.502843,-0.99037,35.9375,1,20692,9369733
58,5,-0.660755,-0.0736293,9.79889,0.0906618,-0.617704,0.988204,-0.00661108,-0.000743206,0.0979886,1,3.44031e-05,-1.81403e-05,1.28745e-05,0.00688062,-0.00362805,0.00257491,0,0,0,0,0.0102334,0.502843,-0.99037,35.9375,1,20692,9369733
58,6,-0.661134,-0.0805847,9.79103,0.0840385,-0.625864,0.983856,-0.00661375,-0.000814135,0.09791,1,4.13376e-05,-1.24371e-05,1.46125e-05,0.00826752,-0.00248743,0.0029225,0,0,0,0,0.00977693,0.502829,-0.989358,35.9375,1,20693,9369833
59,1,-0.661134,-0.0805847,9.79103,0.0840385,-0.625864,0.983856,-0.00661375,-0.000814135,0.09791,1,4.13376e-05,-1.24371e-05,1.46125e-05,0.00826752,-0.00248743,0.0029225,0,0,0,0,0.00977693,0.502829,-0.989358,35.9375,1,20693,9369833
59,2,-0.659535,-0.0714124,9.78329,0.0895872,-0.614467,0.972837,-0.00659799,-0.000727603,0.0978326,1,6.70588e-05,-1.36965e-05,2.71424e-05,0.0134118,-0.0027393,0.00542848,0,0,0,0,0.0102381,0.504767,-0.988812,35.9375,1,20694,9369933
59,3,-0.659535,-0.0714124,9.78329,0.0895872,-0.614467,0.972837,-0.00659799,-0.000727603,0.0978326,1,6.70588e-05,-1.36965e-05,2.71424e-05,0.0134118,-0.0027393,0.00542848,0,0,0,0,0.0102381,0.504767,-0.988812,35.9375,1,20694,9369933
59,4,-0.662841,-0.0756832,9.79244,0.0881126,-0.615604,0.980671,-0.00663096,-0.000769214,0.0979241,1,6.20112e-05,-1.31187e-05,1.79075e-05,0.0124022,-0.00262374,0.00358149,0,0,0,0,0.010593,0.50871,-0.991252,35.9375,1,20695,9370033
59,5,-0.662841,-0.0756832,9.79244,0.0881126,-0.615604,0.980671,-0.00663096,-0.000769214,0.0979241,1,6.20112e-05,-1.31187e-05,1.79075e-05,0.0124022,-0.00262374,0.00358149,0,0,0,0,0.010593,0.50871,-0.991252,35.9375,1,20695,9370033
59,6,-0.665474,-0.087564,9.79676,0.0834817,-0.631611,0.989693,-0.00665675,-0.000883058,0.0979674,1,3.7385e-05,-1.0327e-05,6.94771e-06,0.00747699,-0.00206539,0.00138954,0,0,0,0,0.0110001,0.508761,-0.994283,35.9375,1,20696,9370133
60,1,-0.665474,-0.087564,9.79676,0.0834817,-0.631611,0.989693,-0.00665675,-0.000883058,0.0979674,1,3.7385e-05,-1.0327e-05,6.94771e-06,0.00747699,-0.00206539,0.00138954,0,0,0,0,0.0110001,0.508761,-0.994283,35.9375,1,20696,9370133
60,2,-0.665979,-0.0795894,9.79208,0.0833662,-0.62588,0.981278,-0.00666145,-0.000806872,0.0979206,1,5.50523e-05,-8.61676e-06,1.47821e-05,0.0110105,-0.00172335,0.00295643,0,0,0,0,0.00910788,0.506825,-0.994317,35.9375,1,20697,9370233
60,3,-0.665979,-0.0795894,9.79208,0.0833662,-0.62588,0.981278,-0.00666145,-0.000806872,0.0979206,1,5.50523e-05,-8.61676e-06,1.47821e-05,0.0110105,-0.00172335,0.00295643,0,0,0,0,0.00910788,0.506825,-0.994317,35.9375,1,20697,9370233
60,4,-0.663541,-0.0808839,9.79749,0.0885686,-0.626221,0.986502,-0.00663722,-0.000817494,0.0979747,1,4.34461e-05,-9.32446e-06,1.07031e-05,0.00868922,-0.00186489,0.00214062,0,0,0,0,0.00876154,0.50384,-0.990846,35.9375,1,20698,9370333
61,1,-0.663541,-0.0808839,9.79749,0.0885686,-0.626221,0.986502,-0.00663722,-0.000817494,0.0979747,1,4.34461e-05,-9.32446e-06,1.07031e-05,0.00868922,-0.00186489,0.00214062,0,0,0,0,0.00876154,0.50384,-0.990846,35.9375,1,20698,9370333
61,2,-0.673402,-0.0798564,9.7962,0.0775659,-0.629742,0.987995,-0.00673441,-0.000810572,0.0979619,1,6.00517e-05,-2.11245e-06,1.79986e-05,0.0120103,-0.00042249,0.00359971,0,0,0,0,0.00884363,0.503298,-0.987828,35.9375,1,20699,9370433
61,3,-0.673402,-0.0798564,9.7962,0.0775659,-0.629742,0.987995,-0.00673441,-0.000810572,0.0979619,1,6.00517e-05,-2.11245e-06,1.79986e-05,0.0120103,-0.00042249,0.00359971,0,0,0,0,0.00884363,0.503298,-0.987828,35.9375,1,20699,9370433
61,4,-0.663046,-0.0737978,9.8006,0.0898111,-0.621511,0.99051,-0.00663516,-0.000746807,0.0980057,1,4.34779e-05,-2.41992e-05,2.31268e-05,0.00869559,-0.00483983,0.00462535,0,0,0,0,0.00930861,0.504269,-0.987809,35.9375,1,20700,9370533
62,1,-0.663046,-0.0737978,9.8006,0.0898111,-0.621511,0.99051,-0.00663516,-0.000746807,0.0980057,1,4.34779e-05,-2.41992e-05,2.31268e-05,0.00869559,-0.00483983,0.00462535,0,0,0,0,0.00930861,0.504269,-0.987809,35.9375,1,20700,9370533
62,2,-0.664622,-0.0676263,9.79422,0.0907356,-0.61534,0.982839,-0.00664762,-0.000685214,0.097942,1,4.551e-05,-7.1676e-06,2.68196e-06,0.009102,-0.00143352,0.000536391,0,0,0,0,0.00923124,0.506735,-0.989269,35.9375,1,20701,9370633
62,3,-0.664622,-0.0676263,9.79422,0.0907356,-0.61534,0.982839,-0.00664762,-0.000685214,0.097942,1,4.551e-05,-7.1676e-06,2.68196e-06,0.009102,-0.00143352,0.000536391,0,0,0,0,0.00923124,0.506735,-0.989269,35.9375,1,20701,9370633
62,4,-0.669066,-0.0761679,9.78637,0.0796499,-0.624104,0.97497,-0.00669185,-0.000772644,0.0978635,1,5.51064e-05,-6.18938e-06,1.33904e-05,0.0110213,-0.00123788,0.00267809,0,0,0,0,0.0101607,0.507233,-0.990272,35.9375,1,20702,9370733
62,5,-0.669066,-0.0761679,9.78637,0.0796499,-0.624104,0.97497,-0.00669185,-0.000772644,0.0978635,1,5.51064e-05,-6.18938e-06,1.33904e-05,0.0110213,-0.00123788,0.00267809,0,0,0,0,0.0101607,0.507233,-0.990272,35.9375,1,20702,9370733
62,6,-0.655027,-0.0687901,9.79313,0.0955128,-0.614227,0.983013,-0.00655476,-0.000698109,0.0979309,1,5.09787e-05,-2.3063e-05,1.7051e-05,0.0101957,-0.0046126,0.00341021,0,0,0,0,0.00869225,0.505818,-0.992317,35.9375,1,20703,9370833
63,1,-0.655027,-0.0687901,9.79313,0.0955128,-0.614227,0.983013,-0.00655476,-0.000698109,0.0979309,1,5.09787e-05,-2.3063e-05,1.7051e-05,0.0101957,-0.0046126,0.00341021,0,0,0,0,0.00869225,0.505818,-0.992317,35.9375,1,20703,9370833
63,2,-0.662025,-0.0610671,9.79086,0.0941289,-0.612604,0.979823,-0.00662213,-0.000620677,0.0979084,1,4.9619e-05,-9.73978e-06,2.18937e-05,0.00992379,-0.00194796,0.00437873,0,0,0,0,0.00877342,0.502385,-0.991384,35.9375,1,20704,9370933
63,3,-0.662025,-0.0610671,9.79086,0.0941289,-0.612604,0.979823,-0.00662213,-0.000620677,0.0979084,1,4.9619e-05,-9.73978e-06,2.18937e-05,0.00992379,-0.00194796,0.00437873,0,0,0,0,0.00877342,0.502385,-0.991384,35.9375,1,20704,9370933
63,4,-0.659196,-0.0702771,9.79314,0.0918439,-0.619421,0.982518,-0.00659331,-0.000712363,0.0979312,1,4.79463e-05,-6.96261e-06,1.52811e-05,0.00958927,-0.00139252,0.00305622,0,0,0,0,0.0102704,0.502816,-0.988856,35.9375,1,20705,9371033
64,1,-0.659196,-0.0702771,9.79314,0.0918439,-0.619421,0.982518,-0.00659331,-0.000712363,0.0979312,1,4.79463e-05,-6.96261e-06,1.52811e-05,0.00958927,-0.00139252,0.00305622,0,0,0,0,0.0102704,0.502816,-0.988856,35.9375,1,20705,9371033
64,2,-0.654794,-0.0731716,9.78223,0.0922983,-0.621676,0.974918,-0.00655113,-0.000742063,0.097822,1,5.16455e-05,-1.64397e-05,1.85652e-05,0.0103291,-0.00328793,0.00371305,0,0,0,0,0.0107035,0.507184,-0.987751,35.9375,1,20706,9371133
64,3,-0.654794,-0.0731716,9.78223,0.0922983,-0.621676,0.974918,-0.00655113,-0.000742063,0.097822,1,5.16455e-05,-1.64397e-05,1.85652e-05,0.0103291,-0.00328793,0.00371305,0,0,0,0,0.0107035,0.507184,-0.987751,35.9375,1,20706,9371133
64,4,-0.65109,-0.0713811,9.79103,0.104943,-0.622678,0.978612,-0.00651107,-0.000726112,0.0979102,1,6.26612e-05,-8.94397e-07,2.35234e-06,0.0125322,-0.000178879,0.000470469,0,0,0,0,0.0106423,0.508674,-0.989232,35.9375,1,20707,9371233
65,1,-0.65109,-0.0713811,9.79103,0.104943,-0.622678,0.978612,-0.00651107,-0.000726112,0.0979102,1,6.26612e-05,-8.94397e-07,2.35234e-06,0.0125322,-0.000178879,0.000470469,0,0,0,0,0.0106423,0.508674,-0.989232,35.9375,1,20707,9371233
65,2,-0.661221,-0.0733662,9.78668,0.0887382,-0.624733,0.976935,-0.0066153,-0.000744078,0.0978665,1,5.18225e-05,-1.5959e-05,2.06178e-05,0.0103645,-0.00319179,0.00412355,0,0,0,0,0.0120563,0.506756,-0.991807,35.9375,1,20708,9371333
65,3,-0.661221,-0.0733662,9.78668,0.0887382,-0.624733,0.976935,-0.0066153,-0.000744078,0.0978665,1,5.18225e-05,-1.5959e-05,2.06178e-05,0.0103645,-0.00319179,0.00412355,0,0,0,0,0.0120563,0.506756,-0.991807,35.9375,1,20708,9371333
65,4,-0.664986,-0.0682973,9.79218,0.0864524,-0.620349,0.97629,-0.00665085,-0.000692319,0.0979217,1,4.72721e-05,-5.06804e-06,6.62704e-06,0.00945442,-0.00101361,0.00132541,0,0,0,0,0.010176,0.503367,-0.992379,35.9375,1,20709,9371433
66,1,-0.664986,-0.0682973,9.79218,0.0864524,-0.620349,0.97629,-0.00665085,-0.000692319,0.0979217,1,4.72721e-05,-5.06804e-06,6.62704e-06,0.00945442,-0.00101361,0.00132541,0,0,0,0,0.010176,0.503367,-0.992379,35.9375,1,20709,9371433
66,2,-0.658734,-0.0722029,9.7921,0.0936101,-0.623345,0.98307,-0.00659134,-0.00073329,0.0979207,1,5.56241e-05,-2.06567e-05,2.79436e-05,0.0111248,-0.00413134,0.00558872,0,0,0,0,0.00876108,0.502394,-0.991889,35.9375,1,20710,9371533
66,3,-0.658734,-0.0722029,9.7921,0.0936101,-0.623345,0.98307,-0.00659134,-0.00073329,0.0979207,1,5.56241e-05,-2.06567e-05,2.79436e-05,0.0111248,-0.00413134,0.00558872,0,0,0,0,0.00876108,0.502394,-0.991889,35.9375,1,20710,9371533
66,4,-0.653928,-0.0798852,9.79337,0.0998475,-0.631726,0.985784,-0.0065425,-0.000807664,0.0979334,1,4.35488e-05,-1.65829e-05,2.15452e-05,0.00870975,-0.00331658,0.00430903,0,0,0,0,0.0102134,0.504785,-0.989822,35.9375,1,20711,9371633
67,1,-0.653928,-0.0798852,9.79337,0.0998475,-0.631726,0.985784,-0.0065425,-0.000807664,0.0979334,1,4.35488e-05,-1.65829e-05,2.15452e-05,0.00870975,-0.00331658,0.00430903,0,0,0,0,0.0102134,0.504785,-0.989822,35.9375,1,20711,9371633
67,2,-0.672779,-0.0738796,9.79286,0.0778074,-0.624657,0.982175,-0.00672987,-0.000747905,0.0979284,1,4.52585e-05,-1.07233e-05,1.82335e-05,0.0090517,-0.00214465,0.00364671,0,0,0,0,0.0117066,0.506182,-0.986767,35.9375,1,20712,9371733
67,3,-0.672779,-0.0738796,9.79286,0.0778074,-0.624657,0.982175,-0.00672987,-0.000747905,0.0979284,1,4.52585e-05,-1.07233e-05,1.82335e-05,0.0090517,-0.00214465,0.00364671,0,0,0,0,0.0117066,0.506182,-0.986767,35.9375,1,20712,9371733
67,4,-0.66265,-0.0730066,9.78635,0.0877001,-0.621989,0.973775,-0.00662834,-0.000738882,0.0978633,1,4.3392e-05,-9.54775e-06,2.43674e-05,0.00867841,-0.00190955,0.00487347,0,0,0,0,0.010638,0.508196,-0.989748,35.9375,1,20713,9371833
68,1,-0.66265,-0.0730066,9.78635,0.0877001,-0.621989,0.973775,-0.00662834,-0.000738882,0.0978633,1,4.3392e-05,-9.54775e-06,2.43674e-05,0.00867841,-0.00190955,0.00487347,0,0,0,0,0.010638,0.508196,-0.989748,35.9375,1,20713,9371833
68,2,-0.658504,-0.0784917,9.78933,0.0976101,-0.634445,0.977109,-0.00658639,-0.000794494,0.0978931,1,4.76669e-05,-7.0668e-06,1.8565e-05,0.00953339,-0.00141336,0.003713,0,0,0,0,0.00960986,0.50777,-0.992783,35.9375,1,20714,9371933
68,3,-0.658504,-0.0784917,9.78933,0.0976101,-0.634445,0.977109,-0.00658639,-0.000794494,0.0978931,1,4.76669e-05,-7.0668e-06,1.8565e-05,0.00953339,-0.00141336,0.003713,0,0,0,0,0.00960986,0.50777,-0.992783,35.9375,1,20714,9371933
68,4,-0.656527,-0.0783271,9.78863,0.0891461,-0.634834,0.972079,-0.00656577,-0.00079392,0.0978862,1,5.26476e-05,-2.77325e-06,2.60307e-05,0.0105295,-0.000554649,0.00520613,0,0,0,0,0.00721996,0.505369,-0.993836,35.9375,1,20715,9372033
69,1,-0.656527,-0.0783271,9.78863,0.0891461,-0.634834,0.972079,-0.00656577,-0.00079392,0.0978862,1,5.26476e-05,-2.77325e-06,2.60307e-05,0.0105295,-0.000554649,0.00520613,0,0,0,0,0.00721996,0.505369,-0.993836,35.9375,1,20715,9372033
69,2,-0.668235,-0.0862324,9.80188,0.0848822,-0.642671,0.987652,-0.00668292,-0.000870083,0.0980187,1,3.86629e-05,-3.06204e-06,1.33831e-05,0.00773259,-0.000612409,0.00267662,0,0,0,0,0.00682854,0.502898,-0.991868,35.9375,1,20716,9372133
69,3,-0.668235,-0.0862324,9.80188,0.0848822,-0.642671,0.987652,-0.00668292,-0.000870083,0.0980187,1,3.86629e-05,-3.06204e-06,1.33831e-05,0.00773259,-0.000612409,0.00267662,0,0,0,0,0.00682854,0.502898,-0.991868,35.9375,1,20716,9372133
69,4,-0.666425,-0.0748196,9.78975,0.086008,-0.628928,0.979615,-0.00666592,-0.000757754,0.0978973,1,4.7989e-05,-8.64458e-06,1.21692e-05,0.00959781,-0.00172892,0.00243383,0,0,0,0,0.00881515,0.504282,-0.988311,35.9375,1,20717,9372233
70,1,-0.666425,-0.0748196,9.78975,0.086008,-0.628928,0.979615,-0.00666592,-0.000757754,0.0978973,1,4.7989e-05,-8.64458e-06,1.21692e-05,0.00959781,-0.00172892,0.00243383,0,0,0,0,0.00881515,0.504282,-0.988311,35.9375,1,20717,9372233
70,2,-0.655005,-0.0762719,9.79238,0.0966462,-0.632726,0.979077,-0.00655275,-0.000775274,0.0979236,1,6.17616e-05,-1.40909e-05,3.50903e-05,0.0123523,-0.00281818,0.00701807,0,0,0,0,0.0103045,0.506646,-0.98473,35.9375,1,20718,9372333
70,3,-0.655005,-0.0762719,9.79238,0.0966462,-0.632726,0.979077,-0.00655275,-0.000775274,0.0979236,1,6.17616e-05,-1.40909e-05,3.50903e-05,0.0123523,-0.00281818,0.00701807,0,0,0,0,0.0103045,0.506646,-0.98473,35.9375,1,20718,9372333
70,4,-0.661192,-0.0685543,9.79249,0.0921767,-0.625313,0.981295,-0.00661508,-0.000696,0.0979246,1,5.26458e-05,-1.62254e-05,1.104e-05,0.0105292,-0.00324509,0.002208,0,0,0,0,0.0102267,0.507667,-0.987233,35.9375,1,20719,9372433
70,5,-0.661192,-0.0685543,9.79249,0.0921767,-0.625313,0.981295,-0.00661508,-0.000696,0.0979246,1,5.26458e-05,-1.62254e-05,1.104e-05,0.0105292,-0.00324509,0.002208,0,0,0,0,0.0102267,0.507667,-0.987233,35.9375,1,20719,9372433
70,6,-0.665673,-0.0665856,9.78948,0.0842783,-0.626173,0.972892,-0.00665826,-0.000675217,0.0978947,1,4.67059e-05,-7.95899e-06,1.62681e-05,0.00934119,-0.0015918,0.00325362,0,0,0,0,0.0110651,0.506304,-0.993327,35.9375,1,20720,9372533
71,1,-0.665673,-0.0665856,9.78948,0.0842783,-0.626173,0.972892,-0.00665826,-0.000675217,0.0978947,1,4.67059e-05,-7.95899e-06,1.62681e-05,0.00934119,-0.0015918,0.00325362,0,0,0,0,0.0110651,0.506304,-0.993327,35.9375,1,20720,9372533
71,2,-0.661309,-0.0698056,9.77688,0.0901342,-0.626256,0.961816,-0.00661536,-0.000707917,0.0977686,1,4.92502e-05,-1.17459e-05,1.73821e-05,0.00985004,-0.00234919,0.00347642,0,0,0,0,0.0101105,0.504379,-0.994376,35.9375,1,20721,9372633
71,3,-0.661309,-0.0698056,9.77688,0.0901342,-0.626256,0.961816,-0.00661536,-0.000707917,0.0977686,1,4.92502e-05,-1.17459e-05,1.73821e-05,0.00985004,-0.00234919,0.00347642,0,0,0,0,0.0101105,0.504379,-0.994376,35.9375,1,20721,9372633
71,4,-0.659869,-0.0762381,9.78563,0.0888537,-0.63773,0.976987,-0.00660156,-0.000775576,0.097856,1,6.65709e-05,-1.47613e-05,1.25713e-05,0.0133142,-0.00295226,0.00251427,0,0,0,0,0.00976885,0.503317,-0.989347,35.9375,1,20722,9372733
71,5,-0.659869,-0.0762381,9.78563,0.0888537,-0.63773,0.976987,-0.00660156,-0.000775576,0.097856,1,6.65709e-05,-1.47613e-05,1.25713e-05,0.0133142,-0.00295226,0.00251427,0,0,0,0,0.00976885,0.503317,-0.989347,35.9375,1,20722,9372733
71,6,-0.661867,-0.0715872,9.78704,0.0888574,-0.632205,0.974595,-0.00662244,-0.000725579,0.0978701,1,4.86336e-05,-1.93567e-05,1.41414e-05,0.00972672,-0.00387133,0.00282828,0,0,0,0,0.00787378,0.505239,-0.986771,35.9375,1,20723,9372833
72,1,-0.661867,-0.0715872,9.78704,0.0888574,-0.632205,0.974595,-0.00662244,-0.000725579,0.0978701,1,4.86336e-05,-1.93567e-05,1.41414e-05,0.00972672,-0.00387133,0.00282828,0,0,0,0,0.00787378,0.505239,-0.986771,35.9375,1,20723,9372833
72,2,-0.66249,-0.0812592,9.78629,0.0900697,-0.639333,0.976635,-0.00662825,-0.000823644,0.0978625,1,5.53037e-05,-1.72858e-05,1.71678e-05,0.0110607,-0.00345715,0.00343357,0,0,0,0,0.00881987,0.506206,-0.986753,35.9375,1,20724,9372933
72,3,-0.66249,-0.0812592,9.78629,0.0900697,-0.639333,0.976635,-0.00662825,-0.000823644,0.0978625,1,5.53037e-05,-1.72858e-05,1.71678e-05,0.0110607,-0.00345715,0.00343357,0,0,0,0,0.00881987,0.506206,-0.986753,35.9375,1,20724,9372933
72,4,-0.664466,-0.0786511,9.79786,0.0867494,-0.637909,0.984205,-0.00664844,-0.000794561,0.0979783,1,3.91974e-05,-1.94664e-05,2.77704e-05,0.00783948,-0.00389329,0.00555407,0,0,0,0,0.0111514,0.506241,-0.989794,35.9375,1,20725,9373033
72,5,-0.664466,-0.0786511,9.79786,0.0867494,-0.637909,0.984205,-0.00664844,-0.000794561,0.0979783,1,3.91974e-05,-1.94664e-05,2.77704e-05,0.00783948,-0.00389329,0.00555407,0,0,0,0,0.0111514,0.506241,-0.989794,35.9375,1,20725,9373033
72,6,-0.679485,-0.0751071,9.77697,0.0700386,-0.633464,0.962783,-0.00679806,-0.000760512,0.0977694,1,4.70338e-05,-1.65345e-05,1.79313e-05,0.00940677,-0.00330691,0.00358626,0,0,0,0,0.00961793,0.507282,-0.992794,35.9375,1,20726,9373133
73,1,-0.679485,-0.0751071,9.77697,0.0700386,-0.633464,0.962783,-0.00679806,-0.000760512,0.0977694,1,4.70338e-05,-1.65345e-05,1.79313e-05,0.00940677,-0.00330691,0.00358626,0,0,0,0,0.00961793,0.507282,-0.992794,35.9375,1,20726,9373133
73,2,-0.660162,-0.0751022,9.79684,0.0850663,-0.639012,0.983,-0.00660365,-0.000759854,0.0979682,1,4.41819e-05,-1.04662e-05,1.32324e-05,0.00883638,-0.00209324,0.00264648,0,0,0,0,0.0091653,0.506302,-0.992309,35.9375,1,20727,9373233
73,3,-0.660162,-0.0751022,9.79684,0.0850663,-0.639012,0.983,-0.00660365,-0.000759854,0.0979682,1,4.41819e-05,-1.04662e-05,1.32324e-05,0.00883638,-0.00209324,0.00264648,0,0,0,0,0.0091653,0.506302,-0.992309,35.9375,1,20727,9373233
73,4,-0.660224,-0.0656763,9.79318,0.0913094,-0.629497,0.984234,-0.00660552,-0.000664308,0.0979316,1,3.77968e-05,-1.68141e-05,1.07419e-05,0.00755935,-0.00336282,0.00214839,0,0,0,0,0.0097323,0.504789,-0.98982,35.9375,1,20728,9373333
73,5,-0.660224,-0.0656763,9.79318,0.0913094,-0.629497,0.984234,-0.00660552,-0.000664308,0.0979316,1,3.77968e-05,-1.68141e-05,1.07419e-05,0.00755935,-0.00336282,0.00214839,0,0,0,0,0.0097323,0.504789,-0.98982,35.9375,1,20728,9373333
73,6,-0.660807,-0.0700608,9.79078,0.0913825,-0.632453,0.978831,-0.00661119,-0.000707927,0.0979076,1,3.66941e-05,-1.60077e-05,1.01847e-05,0.00733882,-0.00320154,0.00203695,0,0,0,0,0.00785718,0.504769,-0.987791,35.9375,1,20729,9373433
74,1,-0.660807,-0.0700608,9.79078,0.0913825,-0.632453,0.978831,-0.00661119,-0.000707927,0.0979076,1,3.66941e-05,-1.60077e-05,1.01847e-05,0.00733882,-0.00320154,0.00203695,0,0,0,0,0.00785718,0.504769,-0.987791,35.9375,1,20729,9373433
74,2,-0.664963,-0.0744093,9.79212,0.0871139,-0.637918,0.980305,-0.00664936,-0.000754193,0.0979212,1,5.00774e-05,1.20164e-06,2.20552e-05,0.0100155,0.000240327,0.00441103,0,0,0,0,0.00882414,0.506685,-0.986238,35.9375,1,20730,9373533
74,3,-0.664963,-0.0744093,9.79212,0.0871139,-0.637918,0.980305,-0.00664936,-0.000754193,0.0979212,1,5.00774e-05,1.20164e-06,2.20552e-05,0.0100155,0.000240327,0.00441103,0,0,0,0,0.00882414,0.506685,-0.986238,35.9375,1,20730,9373533
74,4,-0.663731,-0.0753691,9.79788,0.090701,-0.63803,0.987259,-0.00663998,-0.000765365,0.0979786,1,5.78187e-05,-1.38242e-05,2.58531e-05,0.0115637,-0.00276485,0.00517061,0,0,0,0,0.00870977,0.509178,-0.989212,35.9375,1,20731,9373633
74,5,-0.663731,-0.0753691,9.79788,0.090701,-0.63803,0.987259,-0.00663998,-0.000765365,0.0979786,1,5.78187e-05,-1.38242e-05,2.58531e-05,0.0115637,-0.00276485,0.00517061,0,0,0,0,0.00870977,0.509178,-0.989212,35.9375,1,20731,9373633
74,6,-0.656288,-0.069979,9.78633,0.0959926,-0.633685,0.969407,-0.00656347,-0.000706431,0.0978632,1,3.25739e-05,-3.12725e-06,2.01875e-05,0.00651477,-0.000625451,0.0040375,0,0,0,0,0.0100421,0.509247,-0.993762,35.9375,1,20732,9373733
75,1,-0.656288,-0.069979,9.78633,0.0959926,-0.633685,0.969407,-0.00656347,-0.000706431,0.0978632,1,3.25739e-05,-3.12725e-06,2.01875e-05,0.00651477,-0.000625451,0.0040375,0,0,0,0,0.0100421,0.509247,-0.993762,35.9375,1,20732,9373733
75,2,-0.653746,-0.0749764,9.78696,0.094085,-0.642889,0.97523,-0.00653966,-0.000759555,0.0978694,1,4.84008e-05,-1.14607e-05,2.42611e-05,0.00968016,-0.00229214,0.00485222,0,0,0,0,0.00957712,0.508276,-0.993782,35.9375,1,20733,9373833
75,3,-0.653746,-0.0749764,9.78696,0.094085,-0.642889,0.97523,-0.00653966,-0.000759555,0.0978694,1,4.84008e-05,-1.14607e-05,2.42611e-05,0.00968016,-0.00229214,0.00485222,0,0,0,0,0.00957712,0.508276,-0.993782,35.9375,1,20733,9373833
75,4,-0.666006,-0.0700926,9.79149,0.0846755,-0.633985,0.978985,-0.0066618,-0.000708421,0.0979147,1,3.75864e-05,-8.95712e-06,1.00639e-05,0.00751728,-0.00179142,0.00201278,0,0,0,0,0.0087454,0.504815,-0.990825,35.9375,1,20734,9373933
75,5,-0.666006,-0.0700926,9.79149,0.0846755,-0.633985,0.978985,-0.0066618,-0.000708421,0.0979147,1,3.75864e-05,-8.95712e-06,1.00639e-05,0.00751728,-0.00179142,0.00201278,0,0,0,0,0.0087454,0.504815,-0.990825,35.9375,1,20734,9373933
75,6,-0.659042,-0.0764132,9.79377,0.0931733,-0.643318,0.981502,-0.0065938,-0.000774826,0.0979373,1,5.34301e-05,-1.73856e-05,1.73374e-05,0.010686,-0.00347713,0.00346747,0,0,0,0,0.00786525,0.504281,-0.987802,35.9375,3,20735,9374033
75,7,-0.659042,-0.0764132,9.79377,0.0931733,-0.643318,0.981502,-0.0065938,-0.000774826,0.0979373,1,5.34301e-05,-1.73856e-05,1.73374e-05,0.010686,-0.00347713,0.00346747,0,0,0,0,0.00786525,0.504281,-0.987802,35.9375,3,20735,9374033
75,8,-0.66199,-0.0645221,9.78778,0.0908405,-0.628531,0.975232,-0.006622,-0.000655034,0.0978776,1,4.79519e-05,-1.09355e-05,3.2207e-05,0.00959038,-0.0021871,0.00644141,0,0,0,0,0.0088645,0.504246,-0.986292,35.9375,3,20736,9374133
76,1,-0.66199,-0.0645221,9.78778,0.0908405,-0.628531,0.975232,-0.006622,-0.000655034,0.0978776,1,4.79519e-05,-1.09355e-05,3.2207e-05,0.00959038,-0.0021871,0.00644141,0,0,0,0,0.0088645,0.504246,-0.986292,35.9375,3,20736,9374133
76,2,-0.674981,-0.0746268,9.79118,0.0767257,-0.637818,0.973929,-0.00675444,-0.000753382,0.0979115,1,3.62359e-05,-2.36649e-05,1.38206e-06,0.00724719,-0.00473297,0.000276412,0,0,0,0,0.01063,0.508683,-0.989737,35.9375,3,20737,9374233
76,3,-0.674981,-0.0746268,9.79118,0.0767257,-0.637818,0.973929,-0.00675444,-0.000753382,0.0979115,1,3.62359e-05,-2.36649e-05,1.38206e-06,0.00724719,-0.00473297,0.000276412,0,0,0,0,0.01063,0.508683,-0.989737,35.9375,3,20737,9374233
76,4,-0.658916,-0.0693269,9.7989,0.0917758,-0.63911,0.98591,-0.0065896,-0.000703053,0.0979889,1,4.87267e-05,-2.36582e-06,1.78518e-05,0.00974534,-0.000473163,0.00357036,0,0,0,0,0.0105602,0.509216,-0.99225,35.9375,3,20738,9374333
76,5,-0.658916,-0.0693269,9.7989,0.0917758,-0.63911,0.98591,-0.0065896,-0.000703053,0.0979889,1,4.87267e-05,-2.36582e-06,1.78518e-05,0.00974534,-0.000473163,0.00357036,0,0,0,0,0.0105602,0.509216,-0.99225,35.9375,3,20738,9374333
76,6,-0.664547,-0.0761961,9.8016,0.0852445,-0.642455,0.988229,-0.00664744,-0.000771407,0.0980158,1,4.78327e-05,-1.00753e-05,5.18953e-06,0.00956653,-0.00201505,0.00103791,0,0,0,0,0.00964214,0.505819,-0.992827,35.9375,3,20739,9374433
77,1,-0.664547,-0.0761961,9.8016,0.0852445,-0.642455,0.988229,-0.00664744,-0.000771407,0.0980158,1,4.78327e-05,-1.00753e-05,5.18953e-06,0.00956653,-0.00201505,0.00103791,0,0,0,0,0.00964214,0.505819,-0.992827,35.9375,3,20739,9374433
77,2,-0.662533,-0.0798692,9.79308,0.0852538,-0.647778,0.985662,-0.00662658,-0.000807906,0.0979306,1,4.59906e-05,-6.49868e-06,1.55438e-05,0.00919812,-0.00129974,0.00310877,0,0,0,0,0.00976885,0.503317,-0.989347,35.9375,3,20740,9374533
77,3,-0.662533,-0.0798692,9.79308,0.0852538,-0.647778,0.985662,-0.00662658,-0.000807906,0.0979306,1,4.59906e-05,-6.49868e-06,1.55438e-05,0.00919812,-0.00129974,0.00310877,0,0,0,0,0.00976885,0.503317,-0.989347,35.9375,3,20740,9374533
77,4,-0.663055,-0.0815485,9.7924,0.0866727,-0.643867,0.979393,-0.00663503,-0.000826051,0.0979236,1,5.19193e-05,-2.31305e-05,2.9983e-05,0.0103839,-0.0046261,0.00599661,0,0,0,0,0.00938216,0.50277,-0.985822,35.9375,3,20741,9374633
77,5,-0.663055,-0.0815485,9.7924,0.0866727,-0.643867,0.979393,-0.00663503,-0.000826051,0.0979236,1,5.19193e-05,-2.31305e-05,2.9983e-05,0.0103839,-0.0046261,0.00599661,0,0,0,0,0.00938216,0.50277,-0.985822,35.9375,3,20741,9374633
77,6,-0.656424,-0.0747045,9.79545,0.0942097,-0.643486,0.983905,-0.00656585,-0.000757272,0.0979543,1,4.99748e-05,-8.49147e-06,3.32073e-05,0.00999496,-0.00169829,0.00664145,0,0,0,0,0.00980678,0.50618,-0.985748,35.9375,3,20742,9374733
78,1,-0.656424,-0.0747045,9.79545,0.0942097,-0.643486,0.983905,-0.00656585,-0.000757272,0.0979543,1,4.99748e-05,-8.49147e-06,3.32073e-05,0.00999496,-0.00169829,0.00664145,0,0,0,0,0.00980678,0.50618,-0.985748,35.9375,3,20742,9374733
78,2,-0.657238,-0.0705534,9.7843,0.0866173,-0.637822,0.97178,-0.00657405,-0.000715033,0.0978428,1,4.67058e-05,-8.73193e-06,2.73959e-05,0.00934116,-0.00174639,0.00547918,0,0,0,0,0.0105892,0.509677,-0.990725,35.9375,3,20743,9374833
78,3,-0.657238,-0.0705534,9.7843,0.0866173,-0.637822,0.97178,-0.00657405,-0.000715033,0.0978428,1,4.67058e-05,-8.73193e-06,2.73959e-05,0.00934116,-0.00174639,0.00547918,0,0,0,0,0.0105892,0.509677,-0.990725,35.9375,3,20743,9374833
78,4,-0.668936,-0.075,9.78266,0.0806043,-0.645191,0.967712,-0.0066941,-0.000761622,0.0978262,1,5.77159e-05,-2.44306e-05,2.46446e-05,0.0115432,-0.00488612,0.00492891,0,0,0,0,0.0115177,0.507284,-0.993813,35.9375,3,20744,9374933
78,5,-0.668936,-0.075,9.78266,0.0806043,-0.645191,0.967712,-0.0066941,-0.000761622,0.0978262,1,5.77159e-05,-2.44306e-05,2.46446e-05,0.0115432,-0.00488612,0.00492891,0,0,0,0,0.0115177,0.507284,-0.993813,35.9375,3,20744,9374933
78,6,-0.65531,-0.0877007,9.78787,0.0936506,-0.660847,0.971913,-0.00655501,-0.000886576,0.0978785,1,4.72143e-05,-1.00102e-05,2.48698e-05,0.00944287,-0.00200205,0.00497396,0,0,0,0,0.00964169,0.504374,-0.993869,35.9375,3,20745,9375033
78,7,-0.65531,-0.0877007,9.78787,0.0936506,-0.660847,0.971913,-0.00655501,-0.000886576,0.0978785,1,4.72143e-05,-1.00102e-05,2.48698e-05,0.00944287,-0.00200205,0.00497396,0,0,0,0,0.00964169,0.504374,-0.993869,35.9375,3,20745,9375033
78,8,-0.671131,-0.0732952,9.79048,0.0773937,-0.644176,0.979501,-0.00671343,-0.000738628,0.0979046,1,2.78278e-05,-1.09857e-05,1.68851e-05,0.00556557,-0.00219714,0.00337701,0,0,0,0,0.00876535,0.502873,-0.991373,35.9375,3,20746,9375133
78,9,-0.671131,-0.0732952,9.79048,0.0773937,-0.644176,0.979501,-0.00671343,-0.000738628,0.0979046,1,2.78278e-05,-1.09857e-05,1.68851e-05,0.00556557,-0.00219714,0.00337701,0,0,0,0,0.00876535,0.502873,-0.991373,35.9375,3,20746,9375133
78,10,-0.657021,-0.0740526,9.79378,0.0879198,-0.646477,0.985891,-0.00657298,-0.000750641,0.0979375,1,5.04348e-05,-1.42588e-05,1.79389e-05,0.010087,-0.00285177,0.00358778,0,0,0,0,0.00980586,0.50329,-0.987833,35.9375,3,20747,9375233
78,11,-0.657021,-0.0740526,9.79378,0.0879198,-0.646477,0.985891,-0.00657298,-0.000750641,0.0979375,1,5.04348e-05,-1.42588e-05,1.79389e-05,0.010087,-0.00285177,0.00358778,0,0,0,0,0.00980586,0.50329,-0.987833,35.9375,3,20747,9375233
78,12,-0.657162,-0.0716596,9.78396,0.0917338,-0.637297,0.971815,-0.00657493,-0.000724852,0.0978393,1,4.12017e-05,-1.70617e-05,1.46591e-05,0.00824034,-0.00341234,0.00293183,0,0,0,0,0.0112577,0.504235,-0.986809,35.9375,3,20748,9375333
79,1,-0.657162,-0.0716596,9.78396,0.0917338,-0.637297,0.971815,-0.00657493,-0.000724852,0.0978393,1,4.12017e-05,-1.70617e-05,1.46591e-05,0.00824034,-0.00341234,0.00293183,0,0,0,0,0.0112577,0.504235,-0.986809,35.9375,3,20748,9375333
79,2,-0.658699,-0.07867,9.7829,0.0850218,-0.643591,0.972021,-0.00659003,-0.00079668,0.0978287,1,4.94311e-05,-1.57392e-05,2.3333e-05,0.00988622,-0.00314785,0.00466661,0,0,0,0,0.0106499,0.506741,-0.990285,35.9375,3,20749,9375433
79,3,-0.658699,-0.07867,9.7829,0.0850218,-0.643591,0.972021,-0.00659003,-0.00079668,0.0978287,1,4.94311e-05,-1.57392e-05,2.3333e-05,0.00988622,-0.00314785,0.00466661,0,0,0,0,0.0106499,0.506741,-0.990285,35.9375,3,20749,9375433
79,4,-0.652762,-0.0788604,9.78895,0.0975774,-0.645966,0.9686,-0.00652869,-0.000795665,0.0978893,1,3.51685e-05,-5.59167e-06,1.34484e-05,0.00703371,-0.00111833,0.00268969,0,0,0,0,0.00966301,0.506767,-0.99129,35.9375,3,20750,9375533
79,5,-0.652762,-0.0788604,9.78895,0.0975774,-0.645966,0.9686,-0.00652869,-0.000795665,0.0978893,1,3.51685e-05,-5.59167e-06,1.34484e-05,0.00703371,-0.00111833,0.00268969,0,0,0,0,0.00966301,0.506767,-0.99129,35.9375,3,20750,9375533
79,6,-0.661208,-0.0807293,9.79272,0.0861656,-0.64822,0.980975,-0.00661357,-0.000821285,0.0979269,1,7.01843e-05,-7.72074e-06,1.85747e-05,0.0140369,-0.00154415,0.00371493,0,0,0,0,0.00920611,0.505308,-0.991321,35.9375,3,20751,9375633
79,7,-0.661208,-0.0807293,9.79272,0.0861656,-0.64822,0.980975,-0.00661357,-0.000821285,0.0979269,1,7.01843e-05,-7.72074e-06,1.85747e-05,0.0140369,-0.00154415,0.00371493,0,0,0,0,0.00920611,0.505308,-0.991321,35.9375,3,20751,9375633
79,8,-0.664591,-0.0763638,9.78498,0.0832748,-0.64513,0.96999,-0.00664785,-0.000772187,0.0978496,1,4.26397e-05,-9.99691e-06,1.53705e-05,0.00852794,-0.00199938,0.00307409,0,0,0,0,0.0102172,0.503819,-0.990348,35.9375,3,20752,9375733
80,1,-0.664591,-0.0763638,9.78498,0.0832748,-0.64513,0.96999,-0.00664785,-0.000772187,0.0978496,1,4.26397e-05,-9.99691e-06,1.53705e-05,0.00852794,-0.00199938,0.00307409,0,0,0,0,0.0102172,0.503819,-0.990348,35.9375,3,20752,9375733
80,2,-0.666037,-0.0751848,9.78738,0.0832677,-0.646651,0.975562,-0.00666144,-0.000759334,0.0978736,1,3.68859e-05,-5.61023e-06,1.99229e-05,0.00737719,-0.00112205,0.00398458,0,0,0,0,0.00978165,0.504753,-0.9878,35.9375,3,20753,9375833
80,3,-0.666037,-0.0751848,9.78738,0.0832677,-0.646651,0.975562,-0.00666144,-0.000759334,0.0978736,1,3.68859e-05,-5.61023e-06,1.99229e-05,0.00737719,-0.00112205,0.00398458,0,0,0,0,0.00978165,0.504753,-0.9878,35.9375,3,20753,9375833
80,4,-0.671028,-0.0787433,9.78094,0.0780336,-0.647959,0.966505,-0.00671177,-0.000798582,0.0978092,1,5.5995e-05,-7.71872e-06,1.46082e-05,0.011199,-0.00154374,0.00292164,0,0,0,0,0.0102552,0.506682,-0.98675,35.9375,3,20754,9375933
80,5,-0.671028,-0.0787433,9.78094,0.0780336,-0.647959,0.966505,-0.00671177,-0.000798582,0.0978092,1,5.5995e-05,-7.71872e-06,1.46082e-05,0.011199,-0.00154374,0.00292164,0,0,0,0,0.0102552,0.506682,-0.98675,35.9375,3,20754,9375933
80,6,-0.664923,-0.0743663,9.79552,0.0843289,-0.647052,0.983018,-0.00665083,-0.000754841,0.097955,1,5.56019e-05,-8.31474e-06,2.1493e-05,0.0111204,-0.00166295,0.0042986,0,0,0,0,0.0106504,0.508187,-0.989243,35.9375,3,20755,9376033
80,7,-0.664923,-0.0743663,9.79552,0.0843289,-0.647052,0.983018,-0.00665083,-0.000754841,0.097955,1,5.56019e-05,-8.31474e-06,2.1493e-05,0.0111204,-0.00166295,0.0042986,0,0,0,0,0.0106504,0.508187,-0.989243,35.9375,3,20755,9376033
80,8,-0.662817,-0.0681687,9.79353,0.0888485,-0.642522,0.980758,-0.0066329,-0.000693814,0.0979349,1,6.07577e-05,-2.42943e-05,1.70918e-05,0.0121515,-0.00485885,0.00341835,0,0,0,0,0.0106252,0.506759,-0.991295,35.9375,3,20756,9376133
80,9,-0.662817,-0.0681687,9.79353,0.0888485,-0.642522,0.980758,-0.0066329,-0.000693814,0.0979349,1,6.07577e-05,-2.42943e-05,1.70918e-05,0.0121515,-0.00485885,0.00341835,0,0,0,0,0.0106252,0.506759,-0.991295,35.9375,3,20756,9376133
80,10,-0.660785,-0.0833832,9.79541,0.0892793,-0.656921,0.979135,-0.00660911,-0.000841733,0.0979539,1,3.91305e-05,-6.55829e-06,1.77827e-05,0.00782609,-0.00131166,0.00355654,0,0,0,0,0.0091857,0.505805,-0.991815,35.9375,3,20757,9376233
81,1,-0.660785,-0.0833832,9.79541,0.0892793,-0.656921,0.979135,-0.00660911,-0.000841733,0.0979539,1,3.91305e-05,-6.55829e-06,1.77827e-05,0.00782609,-0.00131166,0.00355654,0,0,0,0,0.0091857,0.505805,-0.991815,35.9375,3,20757,9376233
81,2,-0.66532,-0.0840554,9.79918,0.0854398,-0.657529,0.985703,-0.00665739,-0.000849904,0.0979914,1,4.73e-05,-2.14279e-05,5.94532e-06,0.00946,-0.00428558,0.00118906,0,0,0,0,0.00832977,0.503808,-0.988825,35.9375,3,20758,9376333
81,3,-0.66532,-0.0840554,9.79918,0.0854398,-0.657529,0.985703,-0.00665739,-0.000849904,0.0979914,1,4.73e-05,-2.14279e-05,5.94532e-06,0.00946,-0.00428558,0.00118906,0,0,0,0,0.00832977,0.503808,-0.988825,35.9375,3,20758,9376333
81,4,-0.663618,-0.0721775,9.79146,0.0861332,-0.646116,0.979767,-0.00663806,-0.000729683,0.0979144,1,3.97564e-05,-9.66316e-06,9.24051e-06,0.00795128,-0.00193263,0.0018481,0,0,0,0,0.00839526,0.502796,-0.986827,35.9375,3,20759,9376433
81,5,-0.663618,-0.0721775,9.79146,0.0861332,-0.646116,0.979767,-0.00663806,-0.000729683,0.0979144,1,3.97564e-05,-9.66316e-06,9.24051e-06,0.00795128,-0.00193263,0.0018481,0,0,0,0,0.00839526,0.502796,-0.986827,35.9375,3,20759,9376433
81,6,-0.67177,-0.077368,9.80435,0.0792431,-0.649505,0.991706,-0.00671698,-0.000783575,0.0980435,1,4.99468e-05,3.61182e-06,7.49714e-06,0.00998936,0.000722365,0.00149943,0,0,0,0,0.0112293,0.50522,-0.987292,35.9375,3,20760,9376533
81,7,-0.67177,-0.077368,9.80435,0.0792431,-0.649505,0.991706,-0.00671698,-0.000783575,0.0980435,1,4.99468e-05,3.61182e-06,7.49714e-06,0.00998936,0.000722365,0.00149943,0,0,0,0,0.0112293,0.50522,-0.987292,35.9375,3,20760,9376533
81,8,-0.664088,-0.0710863,9.79216,0.0864963,-0.645384,0.980277,-0.00664592,-0.000719773,0.0979212,1,4.42827e-05,-2.58777e-05,1.78662e-05,0.00885653,-0.00517554,0.00357325,0,0,0,0,0.0106418,0.507229,-0.990274,35.9375,3,20761,9376633
81,9,-0.664088,-0.0710863,9.79216,0.0864963,-0.645384,0.980277,-0.00664592,-0.000719773,0.0979212,1,4.42827e-05,-2.58777e-05,1.78662e-05,0.00885653,-0.00517554,0.00357325,0,0,0,0,0.0106418,0.507229,-0.990274,35.9375,3,20761,9376633
81,10,-0.65758,-0.0735964,9.77987,0.0875961,-0.646272,0.966702,-0.00657797,-0.000744829,0.0977985,1,4.4683e-05,-1.11626e-05,9.54623e-06,0.0089366,-0.00223253,0.00190925,0,0,0,0,0.010119,0.505336,-0.993345,35.9375,3,20762,9376733
81,11,-0.65758,-0.0735964,9.77987,0.0875961,-0.646272,0.966702,-0.00657797,-0.000744829,0.0977985,1,4.4683e-05,-1.11626e-05,9.54623e-06,0.0089366,-0.00223253,0.00190925,0,0,0,0,0.010119,0.505336,-0.993345,35.9375,3,20762,9376733
81,12,-0.6577,-0.079831,9.78457,0.0916875,-0.65699,0.970194,-0.00658072,-0.00080831,0.0978454,1,5.0783e-05,-1.90515e-05,4.72342e-06,0.0101566,-0.0038103,0.000944684,0,0,0,0,0.00967778,0.501456,-0.994439,35.9375,3,20763,9376833
82,1,-0.6577,-0.079831,9.78457,0.0916875,-0.65699,0.970194,-0.00658072,-0.00080831,0.0978454,1,5.0783e-05,-1.90515e-05,4.72342e-06,0.0101566,-0.0038103,0.000944684,0,0,0,0,0.00967778,0.501456,-0.994439,35.9375,3,20763,9376833
82,2,-0.669476,-0.0655212,9.79324,0.0828214,-0.639521,0.981523,-0.00669514,-0.000665693,0.0979323,1,5.26421e-05,-1.98358e-06,1.26827e-05,0.0105284,-0.000396717,0.00253654,0,0,0,0,0.0102657,0.500892,-0.990414,35.9375,3,20764,9376933
82,3,-0.669476,-0.0655212,9.79324,0.0828214,-0.639521,0.981523,-0.00669514,-0.000665693,0.0979323,1,5.26421e-05,-1.98358e-06,1.26827e-05,0.0105284,-0.000396717,0.00253654,0,0,0,0,0.0102657,0.500892,-0.990414,35.9375,3,20764,9376933
82,4,-0.65732,-0.0724394,9.78665,0.0934903,-0.642429,0.971074,-0.00657195,-0.000731781,0.0978666,1,3.71374e-05,6.27723e-06,8.95e-06,0.00742748,0.00125545,0.00179,0,0,0,0,0.00929673,0.505724,-0.987271,35.9375,3,20765,9377033
82,5,-0.65732,-0.0724394,9.78665,0.0934903,-0.642429,0.971074,-0.00657195,-0.000731781,0.0978666,1,3.71374e-05,6.27723e-06,8.95e-06,0.00742748,0.00125545,0.00179,0,0,0,0,0.00929673,0.505724,-0.987271,35.9375,3,20765,9377033
82,6,-0.658381,-0.0744156,9.7992,0.092377,-0.650219,0.987492,-0.0065858,-0.000754101,0.0979918,1,5.03472e-05,-1.01537e-05,5.92674e-06,0.0100694,-0.00203074,0.00118535,0,0,0,0,0.00974936,0.506704,-0.987757,35.9375,3,20766,9377133
83,1,-0.658381,-0.0744156,9.7992,0.092377,-0.650219,0.987492,-0.0065858,-0.000754101,0.0979918,1,5.03472e-05,-1.01537e-05,5.92674e-06,0.0100694,-0.00203074,0.00118535,0,0,0,0,0.00974936,0.506704,-0.987757,35.9375,3,20766,9377133
83,2,-0.661796,-0.0816645,9.79543,0.0864247,-0.66078,0.985019,-0.00661972,-0.00082589,0.0979541,1,4.65512e-05,-9.05421e-06,9.47337e-06,0.00931025,-0.00181084,0.00189467,0,0,0,0,0.0111272,0.507704,-0.989761,35.9375,3,20767,9377233
83,3,-0.661796,-0.0816645,9.79543,0.0864247,-0.66078,0.985019,-0.00661972,-0.00082589,0.0979541,1,4.65512e-05,-9.05421e-06,9.47337e-06,0.00931025,-0.00181084,0.00189467,0,0,0,0,0.0111272,0.507704,-0.989761,35.9375,3,20767,9377233
83,4,-0.668425,-0.0700266,9.79083,0.080224,-0.645913,0.979441,-0.00668616,-0.000710226,0.0979081,1,4.99654e-05,-9.85321e-06,1.32119e-05,0.00999308,-0.00197064,0.00264239,0,0,0,0,0.0106129,0.506768,-0.9918,35.9375,3,20768,9377333
83,5,-0.668425,-0.0700266,9.79083,0.080224,-0.645913,0.979441,-0.00668616,-0.000710226,0.0979081,1,4.99654e-05,-9.85321e-06,1.32119e-05,0.00999308,-0.00197064,0.00264239,0,0,0,0,0.0106129,0.506768,-0.9918,35.9375,3,20768,9377333
83,6,-0.654867,-0.0634562,9.77858,0.0920192,-0.640567,0.962249,-0.00655224,-0.000646717,0.0977855,1,6.04259e-05,-1.84273e-05,2.58128e-05,0.0120852,-0.00368546,0.00516256,0,0,0,0,0.00827616,0.503365,-0.99136,35.9375,3,20769,9377433
84,1,-0.654867,-0.0634562,9.77858,0.0920192,-0.640567,0.962249,-0.00655224,-0.000646717,0.0977855,1,6.04259e-05,-1.84273e-05,2.58128e-05,0.0120852,-0.00368546,0.00516256,0,0,0,0,0.00827616,0.503365,-0.99136,35.9375,3,20769,9377433
84,2,-0.659807,-0.0812242,9.78966,0.0889112,-0.659755,0.974824,-0.00660028,-0.00082186,0.0978964,1,4.85833e-05,-1.13808e-05,7.97964e-06,0.00971667,-0.00227616,0.00159593,0,0,0,0,0.00883129,0.503307,-0.988333,35.9375,3,20770,9377533
84,3,-0.659807,-0.0812242,9.78966,0.0889112,-0.659755,0.974824,-0.00660028,-0.00082186,0.0978964,1,4.85833e-05,-1.13808e-05,7.97964e-06,0.00971667,-0.00227616,0.00159593,0,0,0,0,0.00883129,0.503307,-0.988333,35.9375,3,20770,9377533
84,4,-0.667096,-0.07062,9.7959,0.0832584,-0.648266,0.982707,-0.00667086,-0.000712019,0.0979589,1,2.77981e-05,2.96086e-07,2.79211e-05,0.00555962,5.92173e-05,0.00558422,0,0,0,0,0.00932901,0.503773,-0.987315,35.9375,3,20771,9377633
84,5,-0.667096,-0.07062,9.7959,0.0832584,-0.648266,0.982707,-0.00667086,-0.000712019,0.0979589,1,2.77981e-05,2.96086e-07,2.79211e-05,0.00555962,5.92173e-05,0.00558422,0,0,0,0,0.00932901,0.503773,-0.987315,35.9375,3,20771,9377633
84,6,-0.666263,-0.0701352,9.79184,0.084301,-0.648713,0.981757,-0.00666667,-0.000709946,0.097918,1,4.30103e-05,-2.07445e-05,1.28298e-05,0.00860205,-0.0041489,0.00256596,0,0,0,0,0.010789,0.50423,-0.986301,35.9375,3,20772,9377733
84,7,-0.666263,-0.0701352,9.79184,0.084301,-0.648713,0.981757,-0.00666667,-0.000709946,0.097918,1,4.30103e-05,-2.07445e-05,1.28298e-05,0.00860205,-0.0041489,0.00256596,0,0,0,0,0.010789,0.50423,-0.986301,35.9375,3,20772,9377733
84,8,-0.666985,-0.069641,9.79354,0.0862862,-0.65073,0.980421,-0.0066721,-0.000706353,0.0979351,1,4.89671e-05,-1.17123e-05,2.63918e-05,0.00979342,-0.00234245,0.00527835,0,0,0,0,0.0111557,0.506719,-0.989278,35.9375,3,20773,9377833
85,1,-0.666985,-0.069641,9.79354,0.0862862,-0.65073,0.980421,-0.0066721,-0.000706353,0.0979351,1,4.89671e-05,-1.17123e-05,2.63918e-05,0.00979342,-0.00234245,0.00527835,0,0,0,0,0.0111557,0.506719,-0.989278,35.9375,3,20773,9377833
85,2,-0.672472,-0.0738479,9.79116,0.0740304,-0.650518,0.976304,-0.00672694,-0.000747997,0.0979114,1,4.75122e-05,-1.1426e-05,1.59184e-05,0.00950243,-0.00228519,0.00318368,0,0,0,0,0.0115585,0.506291,-0.992825,35.9375,3,20774,9377933
85,3,-0.672472,-0.0738479,9.79116,0.0740304,-0.650518,0.976304,-0.00672694,-0.000747997,0.0979114,1,4.75122e-05,-1.1426e-05,1.59184e-05,0.00950243,-0.00228519,0.00318368,0,0,0,0,0.0115585,0.506291,-0.992825,35.9375,3,20774,9377933
85,4,-0.661629,-0.0723326,9.78804,0.0871338,-0.65483,0.971184,-0.00661711,-0.000732969,0.0978803,1,4.78961e-05,-4.31567e-06,2.01444e-05,0.00957922,-0.000863133,0.00402889,0,0,0,0,0.0106039,0.504366,-0.993874,35.9375,3,20775,9378033
85,5,-0.661629,-0.0723326,9.78804,0.0871338,-0.65483,0.971184,-0.00661711,-0.000732969,0.0978803,1,4.78961e-05,-4.31567e-06,2.01444e-05,0.00957922,-0.000863133,0.00402889,0,0,0,0,0.0106039,0.504366,-0.993874,35.9375,3,20775,9378033
85,6,-0.668531,-0.0747062,9.80538,0.0808361,-0.657768,0.991671,-0.00668944,-0.00075409,0.0980534,1,3.5761e-05,-2.10776e-05,1.14574e-06,0.0071522,-0.00421551,0.000229148,0,0,0,0,0.00975225,0.502847,-0.990368,35.9375,3,20776,9378133
85,7,-0.668531,-0.0747062,9.80538,0.0808361,-0.657768,0.991671,-0.00668944,-0.00075409,0.0980534,1,3.5761e-05,-2.10776e-05,1.14574e-06,0.0071522,-0.00421551,0.000229148,0,0,0,0,0.00975225,0.502847,-0.990368,35.9375,3,20776,9378133
85,8,-0.671784,-0.0745785,9.79522,0.0775629,-0.654867,0.981719,-0.00671882,-0.000755122,0.097952,1,4.56179e-05,-5.19374e-06,2.9795e-05,0.00912358,-0.00103875,0.00595899,0,0,0,0,0.00933328,0.504251,-0.986799,35.9375,3,20777,9378233
85,9,-0.671784,-0.0745785,9.79522,0.0775629,-0.654867,0.981719,-0.00671882,-0.000755122,0.097952,1,4.56179e-05,-5.19374e-06,2.9795e-05,0.00912358,-0.00103875,0.00595899,0,0,0,0,0.00933328,0.504251,-0.986799,35.9375,3,20777,9378233
85,10,-0.662131,-0.0778061,9.79987,0.0837305,-0.663907,0.986175,-0.00662343,-0.000789282,0.0979985,1,5.60489e-05,-1.09706e-05,1.7779e-05,0.0112098,-0.00219412,0.00355581,0,0,0,0,0.0112131,0.506195,-0.98727,35.9375,3,20778,9378333
86,1,-0.662131,-0.0778061,9.79987,0.0837305,-0.663907,0.986175,-0.00662343,-0.000789282,0.0979985,1,5.60489e-05,-1.09706e-05,1.7779e-05,0.0112098,-0.00219412,0.00355581,0,0,0,0,0.0112131,0.506195,-0.98727,35.9375,3,20778,9378333
86,2,-0.656084,-0.0809427,9.78455,0.0848642,-0.660703,0.967531,-0.00656354,-0.00081666,0.0978452,1,3.60103e-05,-1.39218e-05,1.41412e-05,0.00720207,-0.00278437,0.00282824,0,0,0,0,0.0110741,0.508706,-0.991254,35.9375,3,20779,9378433
86,3,-0.656084,-0.0809427,9.78455,0.0848642,-0.660703,0.967531,-0.00656354,-0.00081666,0.0978452,1,3.60103e-05,-1.39218e-05,1.41412e-05,0.00720207,-0.00278437,0.00282824,0,0,0,0,0.0110741,0.508706,-0.991254,35.9375,3,20779,9378433
86,4,-0.67372,-0.0772585,9.79827,0.0717085,-0.660627,0.984357,-0.00673902,-0.000782222,0.0979825,1,4.89782e-05,-9.32454e-06,2.91509e-06,0.00979565,-0.00186491,0.000583018,0,0,0,0,0.0115177,0.507284,-0.993813,35.9375,3,20780,9378533
86,5,-0.67372,-0.0772585,9.79827,0.0717085,-0.660627,0.984357,-0.00673902,-0.000782222,0.0979825,1,4.89782e-05,-9.32454e-06,2.91509e-06,0.00979565,-0.00186491,0.000583018,0,0,0,0,0.0115177,0.507284,-0.993813,35.9375,3,20780,9378533
86,6,-0.658531,-0.0767338,9.79341,0.0917675,-0.656468,0.979424,-0.00658571,-0.000778159,0.097934,1,5.44265e-05,-2.13663e-06,1.2191e-05,0.0108853,-0.000427326,0.00243821,0,0,0,0,0.00966255,0.505322,-0.992333,35.9375,3,20781,9378633
87,1,-0.658531,-0.0767338,9.79341,0.0917675,-0.656468,0.979424,-0.00658571,-0.000778159,0.097934,1,5.44265e-05,-2.13663e-06,1.2191e-05,0.0108853,-0.000427326,0.00243821,0,0,0,0,0.00966255,0.505322,-0.992333,35.9375,3,20781,9378633
87,2,-0.664293,-0.076634,9.7843,0.0829452,-0.661071,0.970761,-0.00664468,-0.000776878,0.0978428,1,5.36516e-05,-8.97804e-06,2.98583e-06,0.0107303,-0.00179561,0.000597166,0,0,0,0,0.00878621,0.503822,-0.989837,35.9375,3,20782,9378733
87,3,-0.664293,-0.076634,9.7843,0.0829452,-0.661071,0.970761,-0.00664468,-0.000776878,0.0978428,1,5.36516e-05,-8.97804e-06,2.98583e-06,0.0107303,-0.00179561,0.000597166,0,0,0,0,0.00878621,0.503822,-0.989837,35.9375,3,20782,9378733
87,4,-0.666544,-0.0786445,9.79007,0.0797393,-0.665166,0.978141,-0.00666972,-0.000795664,0.0979003,1,4.64152e-05,-2.19273e-05,9.79754e-06,0.00928303,-0.00438546,0.00195951,0,0,0,0,0.00978591,0.505232,-0.987285,35.9375,3,20783,9378833
87,5,-0.666544,-0.0786445,9.79007,0.0797393,-0.665166,0.978141,-0.00666972,-0.000795664,0.0979003,1,4.64152e-05,-2.19273e-05,9.79754e-06,0.00928303,-0.00438546,0.00195951,0,0,0,0,0.00978591,0.505232,-0.987285,35.9375,3,20783,9378833
87,6,-0.657126,-0.0750499,9.78597,0.0926495,-0.659487,0.97338,-0.00657362,-0.000758531,0.0978594,1,3.93557e-05,-1.22528e-05,2.50973e-05,0.00787114,-0.00245055,0.00501946,0,0,0,0,0.00978257,0.507644,-0.985716,35.9375,3,20784,9378933
88,1,-0.657126,-0.0750499,9.78597,0.0926495,-0.659487,0.97338,-0.00657362,-0.000758531,0.0978594,1,3.93557e-05,-1.22528e-05,2.50973e-05,0.00787114,-0.00245055,0.00501946,0,0,0,0,0.00978257,0.507644,-0.985716,35.9375,3,20784,9378933
88,2,-0.661244,-0.0732885,9.78566,0.0866432,-0.661459,0.968794,-0.00661343,-0.000742624,0.0978565,1,4.87734e-05,-5.17272e-06,1.46457e-05,0.00975468,-0.00103454,0.00292914,0,0,0,0,0.0111519,0.507686,-0.988752,35.9375,3,20785,9379033
88,3,-0.661244,-0.0732885,9.78566,0.0866432,-0.661459,0.968794,-0.00661343,-0.000742624,0.0978565,1,4.87734e-05,-5.17272e-06,1.46457e-05,0.00975468,-0.00103454,0.00292914,0,0,0,0,0.0111519,0.507686,-0.988752,35.9375,3,20785,9379033
88,4,-0.668567,-0.0532584,9.78826,0.0789097,-0.640194,0.974033,-0.00668865,-0.000541435,0.0978823,1,4.50331e-05,-1.52627e-05,2.62481e-06,0.00900662,-0.00305255,0.000524963,0,0,0,0,0.0120681,0.505302,-0.992344,35.9375,3,20786,9379133
88,5,-0.668567,-0.0532584,9.78826,0.0789097,-0.640194,0.974033,-0.00668865,-0.000541435,0.0978823,1,4.50331e-05,-1.52627e-05,2.62481e-06,0.00900662,-0.00305255,0.000524963,0,0,0,0,0.0120681,0.505302,-0.992344,35.9375,3,20786,9379133
88,6,-0.664032,-0.0624723,9.79222,0.0837343,-0.651334,0.97327,-0.00664169,-0.00063397,0.097922,1,4.58956e-05,-7.08186e-06,1.94571e-05,0.00917912,-0.00141637,0.00389143,0,0,0,0,0.0096991,0.50385,-0.991861,35.9375,3,20787,9379233
88,7,-0.664032,-0.0624723,9.79222,0.0837343,-0.651334,0.97327,-0.00664169,-0.00063397,0.097922,1,4.58956e-05,-7.08186e-06,1.94571e-05,0.00917912,-0.00141637,0.00389143,0,0,0,0,0.0096991,0.50385,-0.991861,35.9375,3,20787,9379233
88,8,-0.661809,-0.0771544,9.79344,0.0839821,-0.662452,0.97702,-0.00662048,-0.000780793,0.0979341,1,4.53871e-05,-1.2381e-05,2.71406e-05,0.00907742,-0.0024762,0.00542811,0,0,0,0,0.00834165,0.502353,-0.989362,35.9375,3,20788,9379333
88,9,-0.661809,-0.0771544,9.79344,0.0839821,-0.662452,0.97702,-0.00662048,-0.000780793,0.0979341,1,4.53871e-05,-1.2381e-05,2.71406e-05,0.00907742,-0.0024762,0.00542811,0,0,0,0,0.00834165,0.502353,-0.989362,35.9375,3,20788,9379333
88,10,-0.671082,-0.0722091,9.79896,0.0794512,-0.653858,0.983539,-0.00671322,-0.000730485,0.0979894,1,4.19318e-05,-1.23416e-05,1.31432e-05,0.00838636,-0.00246832,0.00262865,0,0,0,0,0.00884789,0.503777,-0.987313,35.9375,3,20789,9379433
89,1,-0.671082,-0.0722091,9.79896,0.0794512,-0.653858,0.983539,-0.00671322,-0.000730485,0.0979894,1,4.19318e-05,-1.23416e-05,1.31432e-05,0.00838636,-0.00246832,0.00262865,0,0,0,0,0.00884789,0.503777,-0.987313,35.9375,3,20789,9379433
89,2,-0.662414,-0.0657859,9.78607,0.0876287,-0.648942,0.971241,-0.00662515,-0.00066783,0.0978606,1,5.06826e-05,-5.20223e-06,3.83354e-06,0.0101365,-0.00104045,0.000766707,0,0,0,0,0.0102632,0.506194,-0.98676,35.9375,3,20790,9379533
89,3,-0.662414,-0.0657859,9.78607,0.0876287,-0.648942,0.971241,-0.00662515,-0.00066783,0.0978606,1,5.06826e-05,-5.20223e-06,3.83354e-06,0.0101365,-0.00104045,0.000766707,0,0,0,0,0.0102632,0.506194,-0.98676,35.9375,3,20790,9379533
89,4,-0.659567,-0.0693908,9.78602,0.0886633,-0.654375,0.971714,-0.00659717,-0.000705992,0.09786,1,6.00312e-05,-7.82341e-06,2.54082e-05,0.0120062,-0.00156468,0.00508164,0,0,0,0,0.0120771,0.507705,-0.990271,35.9375,3,20791,9379633
89,5,-0.659567,-0.0693908,9.78602,0.0886633,-0.654375,0.971714,-0.00659717,-0.000705992,0.09786,1,6.00312e-05,-7.82341e-06,2.54082e-05,0.0120062,-0.00156468,0.00508164,0,0,0,0,0.0120771,0.507705,-0.990271,35.9375,3,20791,9379633
89,6,-0.659425,-0.0791469,9.79578,0.0895248,-0.666903,0.97782,-0.00659541,-0.000801782,0.0979576,1,5.11428e-05,-6.09069e-06,2.22509e-05,0.0102286,-0.00121814,0.00445018,0,0,0,0,0.0120605,0.507235,-0.991291,35.9375,3,20792,9379733
89,7,-0.659425,-0.0791469,9.79578,0.0895248,-0.666903,0.97782,-0.00659541,-0.000801782,0.0979576,1,5.11428e-05,-6.09069e-06,2.22509e-05,0.0102286,-0.00121814,0.00445018,0,0,0,0,0.0120605,0.507235,-0.991291,35.9375,3,20792,9379733
89,8,-0.655718,-0.0718121,9.79819,0.0922715,-0.660892,0.986294,-0.00655829,-0.00072693,0.0979818,1,4.45378e-05,-5.74436e-06,6.21537e-06,0.00890755,-0.00114887,0.00124307,0,0,0,0,0.010156,0.505309,-0.99183,35.9375,3,20793,9379833
90,1,-0.655718,-0.0718121,9.79819,0.0922715,-0.660892,0.986294,-0.00655829,-0.00072693,0.0979818,1,4.45378e-05,-5.74436e-06,6.21537e-06,0.00890755,-0.00114887,0.00124307,0,0,0,0,0.010156,0.505309,-0.99183,35.9375,3,20793,9379833
90,2,-0.652552,-0.0805146,9.78962,0.0925942,-0.669783,0.974295,-0.00652883,-0.000815356,0.0978959,1,5.00809e-05,-1.715e-05,3.10166e-05,0.0100162,-0.00343001,0.00620332,0,0,0,0,0.00926733,0.503818,-0.989839,35.9375,3,20794,9379933
