frame_id,imu_idx,quat_w,quat_x,quat_y,quat_z,accel_x,accel_y,accel_z,free_accel_x,free_accel_y,free_accel_z,delta_v_x,delta_v_y,delta_v_z,delta_q_w,delta_q_x,delta_q_y,delta_q_z,rate_x,rate_y,rate_z,quat_w,quat_x,quat_y,quat_z,mag_x,mag_y,mag_z,temperature,status_byte,packet_counter,time_fine
1,1,0.671091,0.0263646,0.019647,-0.740645,-0.750941,-0.0623799,9.78004,-0.0637141,-0.226805,0.956755,-0.00751139,-0.000634239,0.0978002,1,5.1554e-05,-1.02856e-05,2.36505e-05,0.0103108,-0.00205712,0.0047301,0.671091,0.0263646,0.019647,-0.740645,0.177948,-0.277557,-0.972631,32.0625,3,7536,796323
1,2,0.671091,0.0263646,0.019647,-0.740645,-0.539289,-0.0440253,7.32888,-0.0637141,-0.226805,0.956755,-0.0053946,-0.000446637,0.0732886,1,4.30532e-05,-1.17085e-05,6.79298e-06,0.00861064,-0.00234169,0.0013586,0.671091,0.0263646,0.019647,-0.740645,0.174302,-0.2743,-0.961936,32.0625,1,7537,797956
1,3,0.671091,0.0263646,0.019647,-0.740645,-0.539289,-0.0440253,7.32888,-0.0637141,-0.226805,0.956755,-0.0053946,-0.000446637,0.0732886,1,4.30532e-05,-1.17085e-05,6.79298e-06,0.00861064,-0.00234169,0.0013586,0.671091,0.0263646,0.019647,-0.740645,0.174302,-0.2743,-0.961936,32.0625,1,7537,797956
1,4,0.671091,0.0263646,0.019647,-0.740645,-0.539289,-0.0440253,7.32888,-0.0637141,-0.226805,0.956755,-0.0053946,-0.000446637,0.0732886,1,4.30532e-05,-1.17085e-05,6.79298e-06,0.00861064,-0.00234169,0.0013586,0.671091,0.0263646,0.019647,-0.740645,0.174302,-0.2743,-0.961936,32.0625,1,7537,797956
1,5,0.999321,-0.00300333,0.0367224,-0.000101531,-0.732018,-0.0422731,9.78247,-0.0438048,0.302582,0.970905,-0.0073215,-0.000429367,0.0978245,1,3.30749e-05,-6.79706e-06,1.12859e-05,0.00661497,-0.00135941,0.00225717,0.999321,-0.00300333,0.0367224,-0.000101531,0.177109,-0.277639,-0.967579,32.0625,1,7538,798056
1,6,0.999321,-0.00300333,0.0367224,-0.000101531,-0.732018,-0.0422731,9.78247,-0.0438048,0.302582,0.970905,-0.0073215,-0.000429367,0.0978245,1,3.30749e-05,-6.79706e-06,1.12859e-05,0.00661497,-0.00135941,0.00225717,0.999321,-0.00300333,0.0367224,-0.000101531,0.177109,-0.277639,-0.967579,32.0625,1,7538,798056
1,7,0.999321,-0.00300333,0.0367224,-0.000101531,-0.732018,-0.0422731,9.78247,-0.0438048,0.302582,0.970905,-0.0073215,-0.000429367,0.0978245,1,3.30749e-05,-6.79706e-06,1.12859e-05,0.00661497,-0.00135941,0.00225717,0.999321,-0.00300333,0.0367224,-0.000101531,0.177109,-0.277639,-0.967579,32.0625,1,7538,798056
1,8,0.999321,-0.0029645,0.0367244,-8.91763e-05,-0.728517,-0.0483624,9.7868,-0.0379374,0.295477,0.976735,-0.00728645,-0.00049,0.0978679,1,3.12198e-05,-6.59924e-06,1.81609e-05,0.00624395,-0.00131985,0.00363217,0.999321,-0.0029645,0.0367244,-8.91763e-05,0.179844,-0.276589,-0.973124,32.0625,1,7539,798156
2,1,0.999321,-0.0029645,0.0367244,-8.91763e-05,-0.728517,-0.0483624,9.7868,-0.0379374,0.295477,0.976735,-0.00728645,-0.00049,0.0978679,1,3.12198e-05,-6.59924e-06,1.81609e-05,0.00624395,-0.00131985,0.00363217,0.999321,-0.0029645,0.0367244,-8.91763e-05,0.179844,-0.276589,-0.973124,32.0625,1,7539,798156
2,2,0.999321,-0.0029645,0.0367244,-8.91763e-05,-0.728517,-0.0483624,9.7868,-0.0379374,0.295477,0.976735,-0.00728645,-0.00049,0.0978679,1,3.12198e-05,-6.59924e-06,1.81609e-05,0.00624395,-0.00131985,0.00363217,0.999321,-0.0029645,0.0367244,-8.91763e-05,0.179844,-0.276589,-0.973124,32.0625,1,7539,798156
2,3,0.999322,-0.00292268,0.0367121,-7.36865e-05,-0.742795,-0.0418457,9.77543,-0.0555025,0.302945,0.973631,-0.00743035,-0.000426785,0.097754,1,4.13024e-05,-1.23344e-05,1.70336e-05,0.00826048,-0.00246687,0.00340672,0.999322,-0.00292268,0.0367121,-7.36865e-05,0.181688,-0.273172,-0.974066,32.0625,1,7540,798256
2,4,0.999322,-0.00292268,0.0367121,-7.36865e-05,-0.742795,-0.0418457,9.77543,-0.0555025,0.302945,0.973631,-0.00743035,-0.000426785,0.097754,1,4.13024e-05,-1.23344e-05,1.70336e-05,0.00826048,-0.00246687,0.00340672,0.999322,-0.00292268,0.0367121,-7.36865e-05,0.181688,-0.273172,-0.974066,32.0625,1,7540,798256
2,5,0.999322,-0.00292268,0.0367121,-7.36865e-05,-0.742795,-0.0418457,9.77543,-0.0555025,0.302945,0.973631,-0.00743035,-0.000426785,0.097754,1,4.13024e-05,-1.23344e-05,1.70336e-05,0.00826048,-0.00246687,0.00340672,0.999322,-0.00292268,0.0367121,-7.36865e-05,0.181688,-0.273172,-0.974066,32.0625,1,7540,798256
2,6,0.999322,-0.00287476,0.0366999,-5.53795e-05,-0.736687,-0.0482604,9.77702,-0.0549765,0.292823,0.979947,-0.00736915,-0.000492089,0.09777,1,4.70802e-05,-1.17442e-05,1.89095e-05,0.00941604,-0.00234884,0.00378191,0.999322,-0.00287476,0.0366999,-5.53795e-05,0.181257,-0.270314,-0.96996,32.0625,1,7541,798356
2,7,0.999322,-0.00287476,0.0366999,-5.53795e-05,-0.736687,-0.0482604,9.77702,-0.0549765,0.292823,0.979947,-0.00736915,-0.000492089,0.09777,1,4.70802e-05,-1.17442e-05,1.89095e-05,0.00941604,-0.00234884,0.00378191,0.999322,-0.00287476,0.0366999,-5.53795e-05,0.181257,-0.270314,-0.96996,32.0625,1,7541,798356
2,8,0.999322,-0.00287476,0.0366999,-5.53795e-05,-0.736687,-0.0482604,9.77702,-0.0549765,0.292823,0.979947,-0.00736915,-0.000492089,0.09777,1,4.70802e-05,-1.17442e-05,1.89095e-05,0.00941604,-0.00234884,0.00378191,0.999322,-0.00287476,0.0366999,-5.53795e-05,0.181257,-0.270314,-0.96996,32.0625,1,7541,798356
2,9,0.999322,-0.00282451,0.0367098,-3.62791e-05,-0.728772,-0.0461031,9.77528,-0.0476386,0.289289,0.976094,-0.00728576,-0.000471036,0.0977529,1,4.96097e-05,9.89386e-06,2.0994e-05,0.00992195,0.00197877,0.00419879,0.999322,-0.00282451,0.0367098,-3.62791e-05,0.17999,-0.271395,-0.963413,32.0625,1,7542,798456
2,10,0.999322,-0.00282451,0.0367098,-3.62791e-05,-0.728772,-0.0461031,9.77528,-0.0476386,0.289289,0.976094,-0.00728576,-0.000471036,0.0977529,1,4.96097e-05,9.89386e-06,2.0994e-05,0.00992195,0.00197877,0.00419879,0.999322,-0.00282451,0.0367098,-3.62791e-05,0.17999,-0.271395,-0.963413,32.0625,1,7542,798456
3,1,0.999322,-0.00282451,0.0367098,-3.62791e-05,-0.728772,-0.0461031,9.77528,-0.0476386,0.289289,0.976094,-0.00728576,-0.000471036,0.0977529,1,4.96097e-05,9.89386e-06,2.0994e-05,0.00992195,0.00197877,0.00419879,0.999322,-0.00282451,0.0367098,-3.62791e-05,0.17999,-0.271395,-0.963413,32.0625,1,7542,798456
3,2,0.999322,-0.00278848,0.0367033,-1.98607e-05,-0.73928,-0.0560024,9.79021,-0.0592953,0.279129,0.98864,-0.00739404,-0.000567336,0.0979019,1,3.59807e-05,-6.48018e-06,1.80676e-05,0.00719615,-0.00129604,0.00361352,0.999322,-0.00278848,0.0367033,-1.98607e-05,0.179096,-0.276255,-0.964022,32.0625,1,7543,798556
3,3,0.999322,-0.00278848,0.0367033,-1.98607e-05,-0.73928,-0.0560024,9.79021,-0.0592953,0.279129,0.98864,-0.00739404,-0.000567336,0.0979019,1,3.59807e-05,-6.48018e-06,1.80676e-05,0.00719615,-0.00129604,0.00361352,0.999322,-0.00278848,0.0367033,-1.98607e-05,0.179096,-0.276255,-0.964022,32.0625,1,7543,798556
3,4,0.999322,-0.00278848,0.0367033,-1.98607e-05,-0.73928,-0.0560024,9.79021,-0.0592953,0.279129,0.98864,-0.00739404,-0.000567336,0.0979019,1,3.59807e-05,-6.48018e-06,1.80676e-05,0.00719615,-0.00129604,0.00361352,0.999322,-0.00278848,0.0367033,-1.98607e-05,0.179096,-0.276255,-0.964022,32.0625,1,7543,798556
3,5,0.999323,-0.00273413,0.0366904,4.07273e-06,-0.741392,-0.0573753,9.77528,-0.0582682,0.276519,0.967034,-0.00741642,-0.000584592,0.0977525,1,5.34895e-05,-1.2932e-05,2.56638e-05,0.0106979,-0.00258641,0.00513276,0.999323,-0.00273413,0.0366904,4.07273e-06,0.179506,-0.278617,-0.968622,32.0625,1,7544,798656
3,6,0.999323,-0.00273413,0.0366904,4.07273e-06,-0.741392,-0.0573753,9.77528,-0.0582682,0.276519,0.967034,-0.00741642,-0.000584592,0.0977525,1,5.34895e-05,-1.2932e-05,2.56638e-05,0.0106979,-0.00258641,0.00513276,0.999323,-0.00273413,0.0366904,4.07273e-06,0.179506,-0.278617,-0.968622,32.0625,1,7544,798656
3,7,0.999323,-0.00273413,0.0366904,4.07273e-06,-0.741392,-0.0573753,9.77528,-0.0582682,0.276519,0.967034,-0.00741642,-0.000584592,0.0977525,1,5.34895e-05,-1.2932e-05,2.56638e-05,0.0106979,-0.00258641,0.00513276,0.999323,-0.00273413,0.0366904,4.07273e-06,0.179506,-0.278617,-0.968622,32.0625,1,7544,798656
3,8,0.999323,-0.00267927,0.0366856,3.75543e-05,-0.732206,-0.0526239,9.78238,-0.0499749,0.285749,0.975182,-0.00732301,-0.000537252,0.0978237,1,5.36331e-05,-5.06657e-06,3.55223e-05,0.0107266,-0.00101331,0.00710445,0.999323,-0.00267927,0.0366856,3.75543e-05,0.180802,-0.277075,-0.973644,32.0625,1,7545,798756
4,1,0.999323,-0.00267927,0.0366856,3.75543e-05,-0.732206,-0.0526239,9.78238,-0.0499749,0.285749,0.975182,-0.00732301,-0.000537252,0.0978237,1,5.36331e-05,-5.06657e-06,3.55223e-05,0.0107266,-0.00101331,0.00710445,0.999323,-0.00267927,0.0366856,3.75543e-05,0.180802,-0.277075,-0.973644,32.0625,1,7545,798756
4,2,0.999323,-0.00267927,0.0366856,3.75543e-05,-0.732206,-0.0526239,9.78238,-0.0499749,0.285749,0.975182,-0.00732301,-0.000537252,0.0978237,1,5.36331e-05,-5.06657e-06,3.55223e-05,0.0107266,-0.00101331,0.00710445,0.999323,-0.00267927,0.0366856,3.75543e-05,0.180802,-0.277075,-0.973644,32.0625,1,7545,798756
4,3,0.999323,-0.00263799,0.0366844,7.38651e-05,-0.730545,-0.061303,9.78161,-0.0491493,0.279149,0.981718,-0.00730571,-0.00062139,0.0978161,1,3.99163e-05,-1.54613e-06,3.77094e-05,0.00798326,-0.000309226,0.00754188,0.999323,-0.00263799,0.0366844,7.38651e-05,0.181239,-0.273674,-0.973065,32.0625,1,7546,798856
4,4,0.999323,-0.00263799,0.0366844,7.38651e-05,-0.730545,-0.061303,9.78161,-0.0491493,0.279149,0.981718,-0.00730571,-0.00062139,0.0978161,1,3.99163e-05,-1.54613e-06,3.77094e-05,0.00798326,-0.000309226,0.00754188,0.999323,-0.00263799,0.0366844,7.38651e-05,0.181239,-0.273674,-0.973065,32.0625,1,7546,798856
4,5,0.999323,-0.00263799,0.0366844,7.38651e-05,-0.730545,-0.061303,9.78161,-0.0491493,0.279149,0.981718,-0.00730571,-0.00062139,0.0978161,1,3.99163e-05,-1.54613e-06,3.77094e-05,0.00798326,-0.000309226,0.00754188,0.999323,-0.00263799,0.0366844,7.38651e-05,0.181239,-0.273674,-0.973065,32.0625,1,7546,798856
4,6,0.999324,-0.00259097,0.0366789,9.18869e-05,-0.728203,-0.0526584,9.78201,-0.0450384,0.285828,0.979502,-0.00728314,-0.00053596,0.09782,1,4.64338e-05,-5.77416e-06,1.99994e-05,0.00928676,-0.00115483,0.00399989,0.999324,-0.00259097,0.0366789,9.18869e-05,0.180829,-0.269867,-0.967423,32.0625,1,7547,798956
4,7,0.999324,-0.00259097,0.0366789,9.18869e-05,-0.728203,-0.0526584,9.78201,-0.0450384,0.285828,0.979502,-0.00728314,-0.00053596,0.09782,1,4.64338e-05,-5.77416e-06,1.99994e-05,0.00928676,-0.00115483,0.00399989,0.999324,-0.00259097,0.0366789,9.18869e-05,0.180829,-0.269867,-0.967423,32.0625,1,7547,798956
4,8,0.999324,-0.00259097,0.0366789,9.18869e-05,-0.728203,-0.0526584,9.78201,-0.0450384,0.285828,0.979502,-0.00728314,-0.00053596,0.09782,1,4.64338e-05,-5.77416e-06,1.99994e-05,0.00928676,-0.00115483,0.00399989,0.999324,-0.00259097,0.0366789,9.18869e-05,0.180829,-0.269867,-0.967423,32.0625,1,7547,798956
5,1,0.999324,-0.00254921,0.0366773,0.000110891,-0.733405,-0.0390936,9.77403,-0.0540613,0.289305,0.972066,-0.0073344,-0.000399257,0.0977402,1,4.10305e-05,-1.85736e-06,2.04479e-05,0.00820609,-0.000371473,0.00408958,0.999324,-0.00254921,0.0366773,0.000110891,0.180031,-0.270943,-0.961383,32.0625,1,7548,799056
5,2,0.999324,-0.00254921,0.0366773,0.000110891,-0.733405,-0.0390936,9.77403,-0.0540613,0.289305,0.972066,-0.0073344,-0.000399257,0.0977402,1,4.10305e-05,-1.85736e-06,2.04479e-05,0.00820609,-0.000371473,0.00408958,0.999324,-0.00254921,0.0366773,0.000110891,0.180031,-0.270943,-0.961383,32.0625,1,7548,799056
5,3,0.999324,-0.00254921,0.0366773,0.000110891,-0.733405,-0.0390936,9.77403,-0.0540613,0.289305,0.972066,-0.0073344,-0.000399257,0.0977402,1,4.10305e-05,-1.85736e-06,2.04479e-05,0.00820609,-0.000371473,0.00408958,0.999324,-0.00254921,0.0366773,0.000110891,0.180031,-0.270943,-0.961383,32.0625,1,7548,799056
5,4,0.999324,-0.00251528,0.036668,0.000117728,-0.7401,-0.0464268,9.7835,-0.0590051,0.28062,0.976224,-0.00740282,-0.000470992,0.0978349,1,3.37547e-05,-9.35645e-06,8.00942e-06,0.00675095,-0.00187129,0.00160188,0.999324,-0.00251528,0.036668,0.000117728,0.178147,-0.274811,-0.96247,32.0625,1,7549,799156
5,5,0.999324,-0.00251528,0.036668,0.000117728,-0.7401,-0.0464268,9.7835,-0.0590051,0.28062,0.976224,-0.00740282,-0.000470992,0.0978349,1,3.37547e-05,-9.35645e-06,8.00942e-06,0.00675095,-0.00187129,0.00160188,0.999324,-0.00251528,0.036668,0.000117728,0.178147,-0.274811,-0.96247,32.0625,1,7549,799156
5,6,0.999324,-0.00251528,0.036668,0.000117728,-0.7401,-0.0464268,9.7835,-0.0590051,0.28062,0.976224,-0.00740282,-0.000470992,0.0978349,1,3.37547e-05,-9.35645e-06,8.00942e-06,0.00675095,-0.00187129,0.00160188,0.999324,-0.00251528,0.036668,0.000117728,0.178147,-0.274811,-0.96247,32.0625,1,7549,799156
5,7,0.999325,-0.00247896,0.0366675,0.000129339,-0.732384,-0.0521159,9.77627,-0.0508843,0.283845,0.964043,-0.00732406,-0.00052833,0.0977627,1,3.56975e-05,-1.20887e-06,1.30424e-05,0.0071395,-0.000241773,0.00260848,0.999325,-0.00247896,0.0366675,0.000129339,0.179021,-0.279092,-0.969135,32.0625,1,7550,799256
5,8,0.999325,-0.00247896,0.0366675,0.000129339,-0.732384,-0.0521159,9.77627,-0.0508843,0.283845,0.964043,-0.00732406,-0.00052833,0.0977627,1,3.56975e-05,-1.20887e-06,1.30424e-05,0.0071395,-0.000241773,0.00260848,0.999325,-0.00247896,0.0366675,0.000129339,0.179021,-0.279092,-0.969135,32.0625,1,7550,799256
5,9,0.999325,-0.00247896,0.0366675,0.000129339,-0.732384,-0.0521159,9.77627,-0.0508843,0.283845,0.964043,-0.00732406,-0.00052833,0.0977627,1,3.56975e-05,-1.20887e-06,1.30424e-05,0.0071395,-0.000241773,0.00260848,0.999325,-0.00247896,0.0366675,0.000129339,0.179021,-0.279092,-0.969135,32.0625,1,7550,799256
5,10,0.999325,-0.00243289,0.0366526,0.000135008,-0.741299,-0.0548259,9.78819,-0.0589535,0.277236,0.98362,-0.00741594,-0.000557304,0.0978817,1,4.56459e-05,-1.50782e-05,7.36321e-06,0.00912919,-0.00301564,0.00147264,0.999325,-0.00243289,0.0366526,0.000135008,0.179831,-0.278025,-0.974671,32.0625,1,7551,799356
6,1,0.999325,-0.00243289,0.0366526,0.000135008,-0.741299,-0.0548259,9.78819,-0.0589535,0.277236,0.98362,-0.00741594,-0.000557304,0.0978817,1,4.56459e-05,-1.50782e-05,7.36321e-06,0.00912919,-0.00301564,0.00147264,0.999325,-0.00243289,0.0366526,0.000135008,0.179831,-0.278025,-0.974671,32.0625,1,7551,799356
6,2,0.999325,-0.00243289,0.0366526,0.000135008,-0.741299,-0.0548259,9.78819,-0.0589535,0.277236,0.98362,-0.00741594,-0.000557304,0.0978817,1,4.56459e-05,-1.50782e-05,7.36321e-06,0.00912919,-0.00301564,0.00147264,0.999325,-0.00243289,0.0366526,0.000135008,0.179831,-0.278025,-0.974671,32.0625,1,7551,799356
6,3,0.999326,-0.00239671,0.0366345,0.000141361,-0.740304,-0.0589574,9.77866,-0.0598923,0.275952,0.97921,-0.00740657,-0.000596739,0.0977862,1,3.60682e-05,-1.81423e-05,7.53645e-06,0.00721363,-0.00362845,0.00150729,0.999326,-0.00239671,0.0366345,0.000141361,0.180269,-0.273178,-0.97305,32.0625,1,7552,799456
6,4,0.999326,-0.00239671,0.0366345,0.000141361,-0.740304,-0.0589574,9.77866,-0.0598923,0.275952,0.97921,-0.00740657,-0.000596739,0.0977862,1,3.60682e-05,-1.81423e-05,7.53645e-06,0.00721363,-0.00362845,0.00150729,0.999326,-0.00239671,0.0366345,0.000141361,0.180269,-0.273178,-0.97305,32.0625,1,7552,799456
6,5,0.999326,-0.00235547,0.0366375,0.000158032,-0.726569,-0.0632561,9.77376,-0.0495585,0.272958,0.973223,-0.00726522,-0.00064069,0.0977376,1,4.02591e-05,2.2611e-06,1.77941e-05,0.00805183,0.00045222,0.00355881,0.999326,-0.00235547,0.0366375,0.000158032,0.179826,-0.268866,-0.968406,32.0625,1,7553,799556
6,6,0.999326,-0.00235547,0.0366375,0.000158032,-0.726569,-0.0632561,9.77376,-0.0495585,0.272958,0.973223,-0.00726522,-0.00064069,0.0977376,1,4.02591e-05,2.2611e-06,1.77941e-05,0.00805183,0.00045222,0.00355881,0.999326,-0.00235547,0.0366375,0.000158032,0.179826,-0.268866,-0.968406,32.0625,1,7553,799556
6,7,0.999326,-0.00235547,0.0366375,0.000158032,-0.726569,-0.0632561,9.77376,-0.0495585,0.272958,0.973223,-0.00726522,-0.00064069,0.0977376,1,4.02591e-05,2.2611e-06,1.77941e-05,0.00805183,0.00045222,0.00355881,0.999326,-0.00235547,0.0366375,0.000158032,0.179826,-0.268866,-0.968406,32.0625,1,7553,799556
6,8,0.999326,-0.00232478,0.0366272,0.000176984,-0.727828,-0.0463342,9.77969,-0.0467271,0.283656,0.978006,-0.00728033,-0.000469425,0.0977968,1,2.96291e-05,-1.05744e-05,1.97756e-05,0.00592582,-0.00211488,0.00395512,0.999326,-0.00232478,0.0366272,0.000176984,0.179966,-0.269931,-0.96338,32.0625,1,7554,799656
6,9,0.999326,-0.00232478,0.0366272,0.000176984,-0.727828,-0.0463342,9.77969,-0.0467271,0.283656,0.978006,-0.00728033,-0.000469425,0.0977968,1,2.96291e-05,-1.05744e-05,1.97756e-05,0.00592582,-0.00211488,0.00395512,0.999326,-0.00232478,0.0366272,0.000176984,0.179966,-0.269931,-0.96338,32.0625,1,7554,799656
6,10,0.999326,-0.00232478,0.0366272,0.000176984,-0.727828,-0.0463342,9.77969,-0.0467271,0.283656,0.978006,-0.00728033,-0.000469425,0.0977968,1,2.96291e-05,-1.05744e-05,1.97756e-05,0.00592582,-0.00211488,0.00395512,0.999326,-0.00232478,0.0366272,0.000176984,0.179966,-0.269931,-0.96338,32.0625,1,7554,799656
7,1,0.999327,-0.00227761,0.0366209,0.0001871,-0.745734,-0.0565447,9.78448,-0.0599484,0.263658,0.979925,-0.00745867,-0.000574805,0.0978446,1,4.68903e-05,-6.85668e-06,1.22373e-05,0.00937805,-0.00137134,0.00244747,0.999327,-0.00227761,0.0366209,0.0001871,0.17908,-0.27528,-0.964,32.0625,1,7555,799756
7,2,0.999327,-0.00227761,0.0366209,0.0001871,-0.745734,-0.0565447,9.78448,-0.0599484,0.263658,0.979925,-0.00745867,-0.000574805,0.0978446,1,4.68903e-05,-6.85668e-06,1.22373e-05,0.00937805,-0.00137134,0.00244747,0.999327,-0.00227761,0.0366209,0.0001871,0.17908,-0.27528,-0.964,32.0625,1,7555,799756
7,3,0.999327,-0.00227761,0.0366209,0.0001871,-0.745734,-0.0565447,9.78448,-0.0599484,0.263658,0.979925,-0.00745867,-0.000574805,0.0978446,1,4.68903e-05,-6.85668e-06,1.22373e-05,0.00937805,-0.00137134,0.00244747,0.999327,-0.00227761,0.0366209,0.0001871,0.17908,-0.27528,-0.964,32.0625,1,7555,799756
7,4,0.999327,-0.00224408,0.0366088,0.000202872,-0.724372,-0.0507024,9.78065,-0.0420409,0.274323,0.972942,-0.00724621,-0.000513784,0.0978063,1,3.32743e-05,-1.27983e-05,1.72983e-05,0.00665486,-0.00255965,0.00345967,0.999327,-0.00224408,0.0366088,0.000202872,0.180003,-0.281042,-0.969688,32.0625,1,7556,799856
7,5,0.999327,-0.00224408,0.0366088,0.000202872,-0.724372,-0.0507024,9.78065,-0.0420409,0.274323,0.972942,-0.00724621,-0.000513784,0.0978063,1,3.32743e-05,-1.27983e-05,1.72983e-05,0.00665486,-0.00255965,0.00345967,0.999327,-0.00224408,0.0366088,0.000202872,0.180003,-0.281042,-0.969688,32.0625,1,7556,799856
7,6,0.999327,-0.00224408,0.0366088,0.000202872,-0.724372,-0.0507024,9.78065,-0.0420409,0.274323,0.972942,-0.00724621,-0.000513784,0.0978063,1,3.32743e-05,-1.27983e-05,1.72983e-05,0.00665486,-0.00255965,0.00345967,0.999327,-0.00224408,0.0366088,0.000202872,0.180003,-0.281042,-0.969688,32.0625,1,7556,799856
7,7,0.999327,-0.00219056,0.0366035,0.000212942,-0.741103,-0.0571291,9.77969,-0.0600966,0.273426,0.97391,-0.00741213,-0.000581921,0.0977967,1,5.34299e-05,-5.69637e-06,1.21428e-05,0.010686,-0.00113927,0.00242856,0.999327,-0.00219056,0.0366035,0.000212942,0.181788,-0.279992,-0.974723,32.0625,1,7557,799956
7,8,0.999327,-0.00219056,0.0366035,0.000212942,-0.741103,-0.0571291,9.77969,-0.0600966,0.273426,0.97391,-0.00741213,-0.000581921,0.0977967,1,5.34299e-05,-5.69637e-06,1.21428e-05,0.010686,-0.00113927,0.00242856,0.999327,-0.00219056,0.0366035,0.000212942,0.181788,-0.279992,-0.974723,32.0625,1,7557,799956
7,9,0.999327,-0.00219056,0.0366035,0.000212942,-0.741103,-0.0571291,9.77969,-0.0600966,0.273426,0.97391,-0.00741213,-0.000581921,0.0977967,1,5.34299e-05,-5.69637e-06,1.21428e-05,0.010686,-0.00113927,0.00242856,0.999327,-0.00219056,0.0366035,0.000212942,0.181788,-0.279992,-0.974723,32.0625,1,7557,799956
7,10,0.999328,-0.00214069,0.0365838,0.000225832,-0.733349,-0.0567946,9.78915,-0.0571888,0.271693,0.991494,-0.00733744,-0.000577803,0.0978911,1,4.92726e-05,-2.02675e-05,1.43348e-05,0.00985452,-0.00405349,0.00286696,0.999328,-0.00214069,0.0365838,0.000225832,0.183184,-0.274187,-0.97258,32.0625,1,7558,800056
8,1,0.999328,-0.00214069,0.0365838,0.000225832,-0.733349,-0.0567946,9.78915,-0.0571888,0.271693,0.991494,-0.00733744,-0.000577803,0.0978911,1,4.92726e-05,-2.02675e-05,1.43348e-05,0.00985452,-0.00405349,0.00286696,0.999328,-0.00214069,0.0365838,0.000225832,0.183184,-0.274187,-0.97258,32.0625,1,7558,800056
8,2,0.999328,-0.00214069,0.0365838,0.000225832,-0.733349,-0.0567946,9.78915,-0.0571888,0.271693,0.991494,-0.00733744,-0.000577803,0.0978911,1,4.92726e-05,-2.02675e-05,1.43348e-05,0.00985452,-0.00405349,0.00286696,0.999328,-0.00214069,0.0365838,0.000225832,0.183184,-0.274187,-0.97258,32.0625,1,7558,800056
8,3,0.999329,-0.00209878,0.0365658,0.000250232,-0.736365,-0.0492903,9.77362,-0.0593554,0.276799,0.978249,-0.00736718,-0.000501322,0.0977359,1,4.11381e-05,-1.8189e-05,2.56545e-05,0.00822762,-0.00363779,0.0051309,0.999329,-0.00209878,0.0365658,0.000250232,0.182742,-0.268429,-0.966895,32.0625,1,7559,800156
8,4,0.999329,-0.00209878,0.0365658,0.000250232,-0.736365,-0.0492903,9.77362,-0.0593554,0.276799,0.978249,-0.00736718,-0.000501322,0.0977359,1,4.11381e-05,-1.8189e-05,2.56545e-05,0.00822762,-0.00363779,0.0051309,0.999329,-0.00209878,0.0365658,0.000250232,0.182742,-0.268429,-0.966895,32.0625,1,7559,800156
8,5,0.999329,-0.00209878,0.0365658,0.000250232,-0.736365,-0.0492903,9.77362,-0.0593554,0.276799,0.978249,-0.00736718,-0.000501322,0.0977359,1,4.11381e-05,-1.8189e-05,2.56545e-05,0.00822762,-0.00363779,0.0051309,0.999329,-0.00209878,0.0365658,0.000250232,0.182742,-0.268429,-0.966895,32.0625,1,7559,800156
8,6,0.999329,-0.00204196,0.0365597,0.000267303,-0.722735,-0.0460441,9.78271,-0.0522082,0.270113,0.98459,-0.00722863,-0.000471784,0.097827,1,5.65537e-05,-6.60282e-06,1.92335e-05,0.0113107,-0.00132056,0.0038467,0.999329,-0.00204196,0.0365597,0.000267303,0.181413,-0.269464,-0.962871,32.0625,1,7560,800256
8,7,0.999329,-0.00204196,0.0365597,0.000267303,-0.722735,-0.0460441,9.78271,-0.0522082,0.270113,0.98459,-0.00722863,-0.000471784,0.097827,1,5.65537e-05,-6.60282e-06,1.92335e-05,0.0113107,-0.00132056,0.0038467,0.999329,-0.00204196,0.0365597,0.000267303,0.181413,-0.269464,-0.962871,32.0625,1,7560,800256
8,8,0.999329,-0.00204196,0.0365597,0.000267303,-0.722735,-0.0460441,9.78271,-0.0522082,0.270113,0.98459,-0.00722863,-0.000471784,0.097827,1,5.65537e-05,-6.60282e-06,1.92335e-05,0.0113107,-0.00132056,0.0038467,0.999329,-0.00204196,0.0365597,0.000267303,0.181413,-0.269464,-0.962871,32.0625,1,7560,800256
8,9,0.99933,-0.00199558,0.0365511,0.000290892,-0.74207,-0.047301,9.78792,-0.0711346,0.266246,0.983148,-0.00742251,-0.000482405,0.0978791,1,4.60595e-05,-9.35589e-06,2.5455e-05,0.0092119,-0.00187118,0.00509099,0.99933,-0.00199558,0.0365511,0.000290892,0.17813,-0.273835,-0.962448,32.0625,1,7561,800356
8,10,0.99933,-0.00199558,0.0365511,0.000290892,-0.74207,-0.047301,9.78792,-0.0711346,0.266246,0.983148,-0.00742251,-0.000482405,0.0978791,1,4.60595e-05,-9.35589e-06,2.5455e-05,0.0092119,-0.00187118,0.00509099,0.99933,-0.00199558,0.0365511,0.000290892,0.17813,-0.273835,-0.962448,32.0625,1,7561,800356
8,11,0.99933,-0.00199558,0.0365511,0.000290892,-0.74207,-0.047301,9.78792,-0.0711346,0.266246,0.983148,-0.00742251,-0.000482405,0.0978791,1,4.60595e-05,-9.35589e-06,2.5455e-05,0.0092119,-0.00187118,0.00509099,0.99933,-0.00199558,0.0365511,0.000290892,0.17813,-0.273835,-0.962448,32.0625,1,7561,800356
8,12,0.99933,-0.00194521,0.0365455,0.000310857,-0.738533,-0.0613533,9.79253,-0.0580958,0.253474,0.983421,-0.00738653,-0.000623578,0.0979251,1,4.966e-05,-6.24532e-06,2.1629e-05,0.009932,-0.00124906,0.00432579,0.99933,-0.00194521,0.0365455,0.000310857,0.178524,-0.278112,-0.969111,32.0625,1,7562,800456
9,1,0.99933,-0.00194521,0.0365455,0.000310857,-0.738533,-0.0613533,9.79253,-0.0580958,0.253474,0.983421,-0.00738653,-0.000623578,0.0979251,1,4.966e-05,-6.24532e-06,2.1629e-05,0.009932,-0.00124906,0.00432579,0.99933,-0.00194521,0.0365455,0.000310857,0.178524,-0.278112,-0.969111,32.0625,1,7562,800456
9,2,0.99933,-0.00194521,0.0365455,0.000310857,-0.738533,-0.0613533,9.79253,-0.0580958,0.253474,0.983421,-0.00738653,-0.000623578,0.0979251,1,4.966e-05,-6.24532e-06,2.1629e-05,0.009932,-0.00124906,0.00432579,0.99933,-0.00194521,0.0365455,0.000310857,0.178524,-0.278112,-0.969111,32.0625,1,7562,800456
9,3,0.99933,-0.00190046,0.0365403,0.000316225,-0.741333,-0.0610061,9.78305,-0.0637136,0.256469,0.978269,-0.00741451,-0.000618854,0.0978303,1,4.43999e-05,-6.05555e-06,7.0966e-06,0.00887998,-0.00121111,0.00141932,0.99933,-0.00190046,0.0365403,0.000316225,0.180789,-0.278512,-0.975191,32.0625,1,7563,800556
9,4,0.99933,-0.00190046,0.0365403,0.000316225,-0.741333,-0.0610061,9.78305,-0.0637136,0.256469,0.978269,-0.00741451,-0.000618854,0.0978303,1,4.43999e-05,-6.05555e-06,7.0966e-06,0.00887998,-0.00121111,0.00141932,0.99933,-0.00190046,0.0365403,0.000316225,0.180789,-0.278512,-0.975191,32.0625,1,7563,800556
9,5,0.99933,-0.00190046,0.0365403,0.000316225,-0.741333,-0.0610061,9.78305,-0.0637136,0.256469,0.978269,-0.00741451,-0.000618854,0.0978303,1,4.43999e-05,-6.05555e-06,7.0966e-06,0.00887998,-0.00121111,0.00141932,0.99933,-0.00190046,0.0365403,0.000316225,0.180789,-0.278512,-0.975191,32.0625,1,7563,800556
9,6,0.999331,-0.00185961,0.0365298,0.000332128,-0.738951,-0.0524895,9.78176,-0.0607344,0.267437,0.982615,-0.00739167,-0.000533123,0.0978174,1,4.07436e-05,-1.11312e-05,1.74546e-05,0.00814871,-0.00222625,0.00349092,0.999331,-0.00185961,0.0365298,0.000332128,0.181761,-0.274672,-0.97208,32.0625,1,7564,800656
9,7,0.999331,-0.00185961,0.0365298,0.000332128,-0.738951,-0.0524895,9.78176,-0.0607344,0.267437,0.982615,-0.00739167,-0.000533123,0.0978174,1,4.07436e-05,-1.11312e-05,1.74546e-05,0.00814871,-0.00222625,0.00349092,0.999331,-0.00185961,0.0365298,0.000332128,0.181761,-0.274672,-0.97208,32.0625,1,7564,800656
9,8,0.999331,-0.00185961,0.0365298,0.000332128,-0.738951,-0.0524895,9.78176,-0.0607344,0.267437,0.982615,-0.00739167,-0.000533123,0.0978174,1,4.07436e-05,-1.11312e-05,1.74546e-05,0.00814871,-0.00222625,0.00349092,0.999331,-0.00185961,0.0365298,0.000332128,0.181761,-0.274672,-0.97208,32.0625,1,7564,800656
9,9,0.999331,-0.00182375,0.0365361,0.000350571,-0.731309,-0.0580247,9.79012,-0.0471129,0.260866,0.992677,-0.00731198,-0.000587518,0.0979012,1,3.56584e-05,5.53197e-06,1.97145e-05,0.00713167,0.00110639,0.00394289,0.999331,-0.00182375,0.0365361,0.000350571,0.180821,-0.269379,-0.967412,32.0625,1,7565,800756
9,10,0.999331,-0.00182375,0.0365361,0.000350571,-0.731309,-0.0580247,9.79012,-0.0471129,0.260866,0.992677,-0.00731198,-0.000587518,0.0979012,1,3.56584e-05,5.53197e-06,1.97145e-05,0.00713167,0.00110639,0.00394289,0.999331,-0.00182375,0.0365361,0.000350571,0.180821,-0.269379,-0.967412,32.0625,1,7565,800756
10,1,0.999331,-0.00182375,0.0365361,0.000350571,-0.731309,-0.0580247,9.79012,-0.0471129,0.260866,0.992677,-0.00731198,-0.000587518,0.0979012,1,3.56584e-05,5.53197e-06,1.97145e-05,0.00713167,0.00110639,0.00394289,0.999331,-0.00182375,0.0365361,0.000350571,0.180821,-0.269379,-0.967412,32.0625,1,7565,800756
10,2,0.999331,-0.00178695,0.0365216,0.00036217,-0.734145,-0.0572608,9.78507,-0.0552492,0.260421,0.980828,-0.00734448,-0.0005801,0.0978504,1,3.72995e-05,-1.55642e-05,1.31019e-05,0.00745989,-0.00311285,0.00262039,0.999331,-0.00178695,0.0365216,0.00036217,0.180467,-0.270432,-0.962888,32.0625,1,7566,800856
10,3,0.999331,-0.00178695,0.0365216,0.00036217,-0.734145,-0.0572608,9.78507,-0.0552492,0.260421,0.980828,-0.00734448,-0.0005801,0.0978504,1,3.72995e-05,-1.55642e-05,1.31019e-05,0.00745989,-0.00311285,0.00262039,0.999331,-0.00178695,0.0365216,0.00036217,0.180467,-0.270432,-0.962888,32.0625,1,7566,800856
10,4,0.999331,-0.00178695,0.0365216,0.00036217,-0.734145,-0.0572608,9.78507,-0.0552492,0.260421,0.980828,-0.00734448,-0.0005801,0.0978504,1,3.72995e-05,-1.55642e-05,1.31019e-05,0.00745989,-0.00311285,0.00262039,0.999331,-0.00178695,0.0365216,0.00036217,0.180467,-0.270432,-0.962888,32.0625,1,7566,800856
10,5,0.999332,-0.001748,0.0365125,0.000389659,-0.736588,-0.0578584,9.77898,-0.0557225,0.254263,0.978438,-0.0073678,-0.000586517,0.0977896,1,3.83892e-05,-9.98913e-06,2.883e-05,0.00767785,-0.00199783,0.005766,0.999332,-0.001748,0.0365125,0.000389659,0.180474,-0.27381,-0.964984,32.0625,1,7567,800956
10,6,0.999332,-0.001748,0.0365125,0.000389659,-0.736588,-0.0578584,9.77898,-0.0557225,0.254263,0.978438,-0.0073678,-0.000586517,0.0977896,1,3.83892e-05,-9.98913e-06,2.883e-05,0.00767785,-0.00199783,0.005766,0.999332,-0.001748,0.0365125,0.000389659,0.180474,-0.27381,-0.964984,32.0625,1,7567,800956
10,7,0.999332,-0.001748,0.0365125,0.000389659,-0.736588,-0.0578584,9.77898,-0.0557225,0.254263,0.978438,-0.0073678,-0.000586517,0.0977896,1,3.83892e-05,-9.98913e-06,2.883e-05,0.00767785,-0.00199783,0.005766,0.999332,-0.001748,0.0365125,0.000389659,0.180474,-0.27381,-0.964984,32.0625,1,7567,800956
10,8,0.999332,-0.00170836,0.0365104,0.000406548,-0.743083,-0.0528234,9.78585,-0.064573,0.259901,0.978015,-0.00743145,-0.000536248,0.0978584,1,3.95366e-05,-3.23717e-06,1.85778e-05,0.00790731,-0.000647435,0.00371557,0.999332,-0.00170836,0.0365104,0.000406548,0.180391,-0.277604,-0.971128,32.0625,1,7568,801056
10,9,0.999332,-0.00170836,0.0365104,0.000406548,-0.743083,-0.0528234,9.78585,-0.064573,0.259901,0.978015,-0.00743145,-0.000536248,0.0978584,1,3.95366e-05,-3.23717e-06,1.85778e-05,0.00790731,-0.000647435,0.00371557,0.999332,-0.00170836,0.0365104,0.000406548,0.180391,-0.277604,-0.971128,32.0625,1,7568,801056
10,10,0.999332,-0.00170836,0.0365104,0.000406548,-0.743083,-0.0528234,9.78585,-0.064573,0.259901,0.978015,-0.00743145,-0.000536248,0.0978584,1,3.95366e-05,-3.23717e-06,1.85778e-05,0.00790731,-0.000647435,0.00371557,0.999332,-0.00170836,0.0365104,0.000406548,0.180391,-0.277604,-0.971128,32.0625,1,7568,801056
11,1,0.999332,-0.00166978,0.0364969,0.000409843,-0.738825,-0.0567551,9.79495,-0.0594135,0.256897,0.992151,-0.00739113,-0.000575259,0.0979492,1,3.89815e-05,-1.47186e-05,4.84645e-06,0.00779629,-0.00294372,0.00096929,0.999332,-0.00166978,0.0364969,0.000409843,0.180781,-0.278024,-0.97518,32.0625,1,7569,801156
11,2,0.999332,-0.00166978,0.0364969,0.000409843,-0.738825,-0.0567551,9.79495,-0.0594135,0.256897,0.992151,-0.00739113,-0.000575259,0.0979492,1,3.89815e-05,-1.47186e-05,4.84645e-06,0.00779629,-0.00294372,0.00096929,0.999332,-0.00166978,0.0364969,0.000409843,0.180781,-0.278024,-0.97518,32.0625,1,7569,801156
11,3,0.999332,-0.00166978,0.0364969,0.000409843,-0.738825,-0.0567551,9.79495,-0.0594135,0.256897,0.992151,-0.00739113,-0.000575259,0.0979492,1,3.89815e-05,-1.47186e-05,4.84645e-06,0.00779629,-0.00294372,0.00096929,0.999332,-0.00166978,0.0364969,0.000409843,0.180781,-0.278024,-0.97518,32.0625,1,7569,801156
11,4,0.999333,-0.00162437,0.036487,0.000434617,-0.737612,-0.0547882,9.78037,-0.0607681,0.260773,0.983027,-0.00737822,-0.000557165,0.0978035,1,4.54598e-05,-1.08982e-05,2.64346e-05,0.00909196,-0.00217963,0.00528692,0.999333,-0.00162437,0.036487,0.000434617,0.182662,-0.273189,-0.973566,32.0625,1,7570,801256
11,5,0.999333,-0.00162437,0.036487,0.000434617,-0.737612,-0.0547882,9.78037,-0.0607681,0.260773,0.983027,-0.00737822,-0.000557165,0.0978035,1,4.54598e-05,-1.08982e-05,2.64346e-05,0.00909196,-0.00217963,0.00528692,0.999333,-0.00162437,0.036487,0.000434617,0.182662,-0.273189,-0.973566,32.0625,1,7570,801256
11,6,0.999333,-0.00162437,0.036487,0.000434617,-0.737612,-0.0547882,9.78037,-0.0607681,0.260773,0.983027,-0.00737822,-0.000557165,0.0978035,1,4.54598e-05,-1.08982e-05,2.64346e-05,0.00909196,-0.00217963,0.00528692,0.999333,-0.00162437,0.036487,0.000434617,0.182662,-0.273189,-0.973566,32.0625,1,7570,801256
11,7,0.999333,-0.00158693,0.0364728,0.000464664,-0.729839,-0.0520565,9.78271,-0.0532422,0.263157,0.985393,-0.00730143,-0.00052828,0.0978269,1,3.707e-05,-1.57451e-05,3.16467e-05,0.007414,-0.00314903,0.00632934,0.999333,-0.00158693,0.0364728,0.000464664,0.180822,-0.267934,-0.96637,32.0625,1,7571,801356
11,8,0.999333,-0.00158693,0.0364728,0.000464664,-0.729839,-0.0520565,9.78271,-0.0532422,0.263157,0.985393,-0.00730143,-0.00052828,0.0978269,1,3.707e-05,-1.57451e-05,3.16467e-05,0.007414,-0.00314903,0.00632934,0.999333,-0.00158693,0.0364728,0.000464664,0.180822,-0.267934,-0.96637,32.0625,1,7571,801356
11,9,0.999333,-0.00158693,0.0364728,0.000464664,-0.729839,-0.0520565,9.78271,-0.0532422,0.263157,0.985393,-0.00730143,-0.00052828,0.0978269,1,3.707e-05,-1.57451e-05,3.16467e-05,0.007414,-0.00314903,0.00632934,0.999333,-0.00158693,0.0364728,0.000464664,0.180822,-0.267934,-0.96637,32.0625,1,7571,801356
11,10,0.999333,-0.00156134,0.0364771,0.000483467,-0.738074,-0.0624759,9.77623,-0.0617653,0.243888,0.979819,-0.00738012,-0.000630142,0.0977623,1,2.6023e-05,3.03428e-06,1.99583e-05,0.0052046,0.000606856,0.00399165,0.999333,-0.00156134,0.0364771,0.000483467,0.17953,-0.268997,-0.960832,32.0625,1,7572,801456
12,1,0.999333,-0.00156134,0.0364771,0.000483467,-0.738074,-0.0624759,9.77623,-0.0617653,0.243888,0.979819,-0.00738012,-0.000630142,0.0977623,1,2.6023e-05,3.03428e-06,1.99583e-05,0.0052046,0.000606856,0.00399165,0.999333,-0.00156134,0.0364771,0.000483467,0.17953,-0.268997,-0.960832,32.0625,1,7572,801456
12,2,0.999333,-0.00156134,0.0364771,0.000483467,-0.738074,-0.0624759,9.77623,-0.0617653,0.243888,0.979819,-0.00738012,-0.000630142,0.0977623,1,2.6023e-05,3.03428e-06,1.99583e-05,0.0052046,0.000606856,0.00399165,0.999333,-0.00156134,0.0364771,0.000483467,0.17953,-0.268997,-0.960832,32.0625,1,7572,801456
12,3,0.999333,-0.00152685,0.0364839,0.000495687,-0.725303,-0.0451241,9.77493,-0.0503116,0.262659,0.96949,-0.00725191,-0.000458303,0.0977493,1,3.51258e-05,5.63083e-06,1.34911e-05,0.00702515,0.00112617,0.00269822,0.999333,-0.00152685,0.0364839,0.000495687,0.178109,-0.274784,-0.963984,32.0625,1,7573,801556
12,4,0.999333,-0.00152685,0.0364839,0.000495687,-0.725303,-0.0451241,9.77493,-0.0503116,0.262659,0.96949,-0.00725191,-0.000458303,0.0977493,1,3.51258e-05,5.63083e-06,1.34911e-05,0.00702515,0.00112617,0.00269822,0.999333,-0.00152685,0.0364839,0.000495687,0.178109,-0.274784,-0.963984,32.0625,1,7573,801556
12,5,0.999333,-0.00152685,0.0364839,0.000495687,-0.725303,-0.0451241,9.77493,-0.0503116,0.262659,0.96949,-0.00725191,-0.000458303,0.0977493,1,3.51258e-05,5.63083e-06,1.34911e-05,0.00702515,0.00112617,0.00269822,0.999333,-0.00152685,0.0364839,0.000495687,0.178109,-0.274784,-0.963984,32.0625,1,7573,801556
12,6,0.999334,-0.00148016,0.0364648,0.00052215,-0.735903,-0.0500829,9.78684,-0.0610165,0.253412,0.976258,-0.00736303,-0.000510391,0.0978681,1,4.67281e-05,-2.05859e-05,2.82343e-05,0.00934561,-0.00411717,0.00564685,0.999334,-0.00148016,0.0364648,0.00052215,0.178976,-0.278577,-0.970638,32.0625,1,7574,801656
12,7,0.999334,-0.00148016,0.0364648,0.00052215,-0.735903,-0.0500829,9.78684,-0.0610165,0.253412,0.976258,-0.00736303,-0.000510391,0.0978681,1,4.67281e-05,-2.05859e-05,2.82343e-05,0.00934561,-0.00411717,0.00564685,0.999334,-0.00148016,0.0364648,0.00052215,0.178976,-0.278577,-0.970638,32.0625,1,7574,801656
12,8,0.999334,-0.00148016,0.0364648,0.00052215,-0.735903,-0.0500829,9.78684,-0.0610165,0.253412,0.976258,-0.00736303,-0.000510391,0.0978681,1,4.67281e-05,-2.05859e-05,2.82343e-05,0.00934561,-0.00411717,0.00564685,0.999334,-0.00148016,0.0364648,0.00052215,0.178976,-0.278577,-0.970638,32.0625,1,7574,801656
10,1,0.999334,-0.00145395,0.0364561,0.000543486,-0.729137,-0.0515102,9.78475,-0.0504211,0.254131,0.976785,-0.00729339,-0.000520576,0.0978473,1,2.63042e-05,-1.04439e-05,2.24076e-05,0.00526085,-0.00208878,0.00448153,0.999334,-0.00145395,0.0364561,0.000543486,0.1822,-0.278018,-0.976197,32.0625,1,7575,801756
10,2,0.999334,-0.00145395,0.0364561,0.000543486,-0.729137,-0.0515102,9.78475,-0.0504211,0.254131,0.976785,-0.00729339,-0.000520576,0.0978473,1,2.63042e-05,-1.04439e-05,2.24076e-05,0.00526085,-0.00208878,0.00448153,0.999334,-0.00145395,0.0364561,0.000543486,0.1822,-0.278018,-0.976197,32.0625,1,7575,801756
10,3,0.999334,-0.00145395,0.0364561,0.000543486,-0.729137,-0.0515102,9.78475,-0.0504211,0.254131,0.976785,-0.00729339,-0.000520576,0.0978473,1,2.63042e-05,-1.04439e-05,2.24076e-05,0.00526085,-0.00208878,0.00448153,0.999334,-0.00145395,0.0364561,0.000543486,0.1822,-0.278018,-0.976197,32.0625,1,7575,801756
10,4,0.999334,-0.00141365,0.036458,0.000555332,-0.735553,-0.0647441,9.78569,-0.0565466,0.247429,0.987749,-0.00735545,-0.000655618,0.0978568,1,4.07734e-05,3.44867e-07,1.33625e-05,0.00815467,6.89735e-05,0.0026725,0.999334,-0.00141365,0.036458,0.000555332,0.183098,-0.274124,-0.976114,32.0625,1,7576,801856
10,5,0.999334,-0.00141365,0.036458,0.000555332,-0.735553,-0.0647441,9.78569,-0.0565466,0.247429,0.987749,-0.00735545,-0.000655618,0.0978568,1,4.07734e-05,3.44867e-07,1.33625e-05,0.00815467,6.89735e-05,0.0026725,0.999334,-0.00141365,0.036458,0.000555332,0.183098,-0.274124,-0.976114,32.0625,1,7576,801856
10,6,0.999334,-0.00141365,0.036458,0.000555332,-0.735553,-0.0647441,9.78569,-0.0565466,0.247429,0.987749,-0.00735545,-0.000655618,0.0978568,1,4.07734e-05,3.44867e-07,1.33625e-05,0.00815467,6.89735e-05,0.0026725,0.999334,-0.00141365,0.036458,0.000555332,0.183098,-0.274124,-0.976114,32.0625,1,7576,801856
10,7,0.999334,-0.00137287,0.0364548,0.000567568,-0.74097,-0.0535734,9.78956,-0.0650617,0.255313,0.993463,-0.00741062,-0.000544146,0.0978955,1,4.19077e-05,-4.80946e-06,1.39714e-05,0.00838154,-0.000961891,0.00279429,0.999334,-0.00137287,0.0364548,0.000567568,0.181281,-0.270332,-0.968951,32.0625,1,7577,801956
10,8,0.999334,-0.00137287,0.0364548,0.000567568,-0.74097,-0.0535734,9.78956,-0.0650617,0.255313,0.993463,-0.00741062,-0.000544146,0.0978955,1,4.19077e-05,-4.80946e-06,1.39714e-05,0.00838154,-0.000961891,0.00279429,0.999334,-0.00137287,0.0364548,0.000567568,0.181281,-0.270332,-0.968951,32.0625,1,7577,801956
14,1,0.999334,-0.00137287,0.0364548,0.000567568,-0.74097,-0.0535734,9.78956,-0.0650617,0.255313,0.993463,-0.00741062,-0.000544146,0.0978955,1,4.19077e-05,-4.80946e-06,1.39714e-05,0.00838154,-0.000961891,0.00279429,0.999334,-0.00137287,0.0364548,0.000567568,0.181281,-0.270332,-0.968951,32.0625,1,7577,801956
14,2,0.999335,-0.00133218,0.0364374,0.000572301,-0.735954,-0.0483042,9.78143,-0.0592981,0.257732,0.984396,-0.00736332,-0.000491308,0.097814,1,4.17623e-05,-1.9312e-05,6.51949e-06,0.00835246,-0.0038624,0.0013039,0.999335,-0.00133218,0.0364374,0.000572301,0.181009,-0.271926,-0.961409,32.0625,1,7578,802056
14,3,0.999335,-0.00133218,0.0364374,0.000572301,-0.735954,-0.0483042,9.78143,-0.0592981,0.257732,0.984396,-0.00736332,-0.000491308,0.097814,1,4.17623e-05,-1.9312e-05,6.51949e-06,0.00835246,-0.0038624,0.0013039,0.999335,-0.00133218,0.0364374,0.000572301,0.181009,-0.271926,-0.961409,32.0625,1,7578,802056
14,4,0.999335,-0.00133218,0.0364374,0.000572301,-0.735954,-0.0483042,9.78143,-0.0592981,0.257732,0.984396,-0.00736332,-0.000491308,0.097814,1,4.17623e-05,-1.9312e-05,6.51949e-06,0.00835246,-0.0038624,0.0013039,0.999335,-0.00133218,0.0364374,0.000572301,0.181009,-0.271926,-0.961409,32.0625,1,7578,802056
14,5,0.999336,-0.00129844,0.0364165,0.000584067,-0.741792,-0.0574009,9.79023,-0.0675427,0.240709,0.988708,-0.00742233,-0.000581046,0.0979019,1,3.49357e-05,-2.26127e-05,1.32246e-05,0.00698715,-0.00452254,0.00264491,0.999336,-0.00129844,0.0364165,0.000584067,0.1791,-0.275776,-0.963506,32.0625,1,7579,802156
14,6,0.999336,-0.00129844,0.0364165,0.000584067,-0.741792,-0.0574009,9.79023,-0.0675427,0.240709,0.988708,-0.00742233,-0.000581046,0.0979019,1,3.49357e-05,-2.26127e-05,1.32246e-05,0.00698715,-0.00452254,0.00264491,0.999336,-0.00129844,0.0364165,0.000584067,0.1791,-0.275776,-0.963506,32.0625,1,7579,802156
14,7,0.999336,-0.00129844,0.0364165,0.000584067,-0.741792,-0.0574009,9.79023,-0.0675427,0.240709,0.988708,-0.00742233,-0.000581046,0.0979019,1,3.49357e-05,-2.26127e-05,1.32246e-05,0.00698715,-0.00452254,0.00264491,0.999336,-0.00129844,0.0364165,0.000584067,0.1791,-0.275776,-0.963506,32.0625,1,7579,802156
14,8,0.999336,-0.00125102,0.0364214,0.000604027,-0.738441,-0.0496128,9.78177,-0.062778,0.251983,0.974321,-0.00738382,-0.000505959,0.0978177,1,4.8576e-05,2.86462e-06,2.21895e-05,0.0097152,0.000572923,0.0044379,0.999336,-0.00125102,0.0364214,0.000604027,0.179461,-0.279547,-0.971167,32.0625,1,7580,802256
15,1,0.999336,-0.00125102,0.0364214,0.000604027,-0.738441,-0.0496128,9.78177,-0.062778,0.251983,0.974321,-0.00738382,-0.000505959,0.0978177,1,4.8576e-05,2.86462e-06,2.21895e-05,0.0097152,0.000572923,0.0044379,0.999336,-0.00125102,0.0364214,0.000604027,0.179461,-0.279547,-0.971167,32.0625,1,7580,802256
15,2,0.999336,-0.00125102,0.0364214,0.000604027,-0.738441,-0.0496128,9.78177,-0.062778,0.251983,0.974321,-0.00738382,-0.000505959,0.0978177,1,4.8576e-05,2.86462e-06,2.21895e-05,0.0097152,0.000572923,0.0044379,0.999336,-0.00125102,0.0364214,0.000604027,0.179461,-0.279547,-0.971167,32.0625,1,7580,802256
15,3,0.999336,-0.00119502,0.0364215,0.000620842,-0.731636,-0.0501539,9.78341,-0.0586867,0.251704,0.977483,-0.00731675,-0.00051299,0.097834,1,5.70788e-05,-2.06918e-06,1.93475e-05,0.0114158,-0.000413837,0.0038695,0.999336,-0.00119502,0.0364215,0.000620842,0.181205,-0.276059,-0.976148,32.0625,1,7581,802356
15,4,0.999336,-0.00119502,0.0364215,0.000620842,-0.731636,-0.0501539,9.78341,-0.0586867,0.251704,0.977483,-0.00731675,-0.00051299,0.097834,1,5.70788e-05,-2.06918e-06,1.93475e-05,0.0114158,-0.000413837,0.0038695,0.999336,-0.00119502,0.0364215,0.000620842,0.181205,-0.276059,-0.976148,32.0625,1,7581,802356
15,5,0.999336,-0.00119502,0.0364215,0.000620842,-0.731636,-0.0501539,9.78341,-0.0586867,0.251704,0.977483,-0.00731675,-0.00051299,0.097834,1,5.70788e-05,-2.06918e-06,1.93475e-05,0.0114158,-0.000413837,0.0038695,0.999336,-0.00119502,0.0364215,0.000620842,0.181205,-0.276059,-0.976148,32.0625,1,7581,802356
15,6,0.999336,-0.00115797,0.0364137,0.000641719,-0.728291,-0.0414074,9.77024,-0.0533013,0.263488,0.971691,-0.0072849,-0.000421871,0.0977022,1,3.82327e-05,-1.0282e-05,2.23666e-05,0.00764653,-0.0020564,0.00447331,0.999336,-0.00115797,0.0364137,0.000641719,0.183139,-0.272227,-0.973042,32.0625,1,7582,802456
15,7,0.999336,-0.00115797,0.0364137,0.000641719,-0.728291,-0.0414074,9.77024,-0.0533013,0.263488,0.971691,-0.0072849,-0.000421871,0.0977022,1,3.82327e-05,-1.0282e-05,2.23666e-05,0.00764653,-0.0020564,0.00447331,0.999336,-0.00115797,0.0364137,0.000641719,0.183139,-0.272227,-0.973042,32.0625,1,7582,802456
15,8,0.999336,-0.00115797,0.0364137,0.000641719,-0.728291,-0.0414074,9.77024,-0.0533013,0.263488,0.971691,-0.0072849,-0.000421871,0.0977022,1,3.82327e-05,-1.0282e-05,2.23666e-05,0.00764653,-0.0020564,0.00447331,0.999336,-0.00115797,0.0364137,0.000641719,0.183139,-0.272227,-0.973042,32.0625,1,7582,802456
16,1,0.999336,-0.00111334,0.0364028,0.000667696,-0.740663,-0.0544872,9.7831,-0.0675798,0.245562,0.986576,-0.00740918,-0.000554219,0.0978308,1,4.56589e-05,-1.31616e-05,2.78802e-05,0.00913178,-0.00263232,0.00557604,0.999336,-0.00111334,0.0364028,0.000667696,0.183186,-0.268406,-0.968412,32.0625,1,7583,802556
16,2,0.999336,-0.00111334,0.0364028,0.000667696,-0.740663,-0.0544872,9.7831,-0.0675798,0.245562,0.986576,-0.00740918,-0.000554219,0.0978308,1,4.56589e-05,-1.31616e-05,2.78802e-05,0.00913178,-0.00263232,0.00557604,0.999336,-0.00111334,0.0364028,0.000667696,0.183186,-0.268406,-0.968412,32.0625,1,7583,802556
16,3,0.999336,-0.00111334,0.0364028,0.000667696,-0.740663,-0.0544872,9.7831,-0.0675798,0.245562,0.986576,-0.00740918,-0.000554219,0.0978308,1,4.56589e-05,-1.31616e-05,2.78802e-05,0.00913178,-0.00263232,0.00557604,0.999336,-0.00111334,0.0364028,0.000667696,0.183186,-0.268406,-0.968412,32.0625,1,7583,802556
16,4,0.999336,-0.00107092,0.0364043,0.000669526,-0.736622,-0.0575615,9.78644,-0.0651696,0.236205,0.990013,-0.00736641,-0.000584393,0.0978643,1,4.45563e-05,-9.53502e-07,3.87045e-06,0.00891127,-0.0001907,0.000774089,0.999336,-0.00107092,0.0364043,0.000669526,0.180953,-0.269957,-0.962375,32.0625,1,7584,802656
16,5,0.999336,-0.00107092,0.0364043,0.000669526,-0.736622,-0.0575615,9.78644,-0.0651696,0.236205,0.990013,-0.00736641,-0.000584393,0.0978643,1,4.45563e-05,-9.53502e-07,3.87045e-06,0.00891127,-0.0001907,0.000774089,0.999336,-0.00107092,0.0364043,0.000669526,0.180953,-0.269957,-0.962375,32.0625,1,7584,802656
16,6,0.999337,-0.00102861,0.0363881,0.00068214,-0.735183,-0.0486413,9.77906,-0.0614656,0.244192,0.974768,-0.00735539,-0.000495175,0.0977903,1,4.37258e-05,-1.82816e-05,1.42769e-05,0.00874516,-0.00365633,0.00285538,0.999337,-0.00102861,0.0363881,0.00068214,0.17866,-0.276766,-0.962516,32.0625,1,7585,802756
16,7,0.999337,-0.00102861,0.0363881,0.00068214,-0.735183,-0.0486413,9.77906,-0.0614656,0.244192,0.974768,-0.00735539,-0.000495175,0.0977903,1,4.37258e-05,-1.82816e-05,1.42769e-05,0.00874516,-0.00365633,0.00285538,0.999337,-0.00102861,0.0363881,0.00068214,0.17866,-0.276766,-0.962516,32.0625,1,7585,802756
16,8,0.999337,-0.00102861,0.0363881,0.00068214,-0.735183,-0.0486413,9.77906,-0.0614656,0.244192,0.974768,-0.00735539,-0.000495175,0.0977903,1,4.37258e-05,-1.82816e-05,1.42769e-05,0.00874516,-0.00365633,0.00285538,0.999337,-0.00102861,0.0363881,0.00068214,0.17866,-0.276766,-0.962516,32.0625,1,7585,802756
16,9,0.999338,-0.000990879,0.0363756,0.000699001,-0.74042,-0.0456048,9.77809,-0.0677258,0.24441,0.974094,-0.0074071,-0.000464099,0.0977807,1,3.97115e-05,-1.49423e-05,1.92189e-05,0.0079423,-0.00298846,0.00384377,0.999338,-0.000990879,0.0363756,0.000699001,0.178059,-0.279084,-0.96913,32.0625,1,7586,802856
16,10,0.999338,-0.000990879,0.0363756,0.000699001,-0.74042,-0.0456048,9.77809,-0.0677258,0.24441,0.974094,-0.0074071,-0.000464099,0.0977807,1,3.97115e-05,-1.49423e-05,1.92189e-05,0.0079423,-0.00298846,0.00384377,0.999338,-0.000990879,0.0363756,0.000699001,0.178059,-0.279084,-0.96913,32.0625,1,7586,802856
17,1,0.999338,-0.000990879,0.0363756,0.000699001,-0.74042,-0.0456048,9.77809,-0.0677258,0.24441,0.974094,-0.0074071,-0.000464099,0.0977807,1,3.97115e-05,-1.49423e-05,1.92189e-05,0.0079423,-0.00298846,0.00384377,0.999338,-0.000990879,0.0363756,0.000699001,0.178059,-0.279084,-0.96913,32.0625,1,7586,802856
17,2,0.999337,-0.000951044,0.036376,0.00071269,-0.74048,-0.0483714,9.77534,-0.0648748,0.249118,0.968009,-0.00740527,-0.000492105,0.0977534,1,4.17457e-05,-2.48282e-06,1.54579e-05,0.00834914,-0.000496563,0.00309158,0.999337,-0.000951044,0.036376,0.00071269,0.179803,-0.275595,-0.974111,32.0625,1,7587,802956
17,3,0.999337,-0.000951044,0.036376,0.00071269,-0.74048,-0.0483714,9.77534,-0.0648748,0.249118,0.968009,-0.00740527,-0.000492105,0.0977534,1,4.17457e-05,-2.48282e-06,1.54579e-05,0.00834914,-0.000496563,0.00309158,0.999337,-0.000951044,0.036376,0.00071269,0.179803,-0.275595,-0.974111,32.0625,1,7587,802956
17,4,0.999337,-0.000951044,0.036376,0.00071269,-0.74048,-0.0483714,9.77534,-0.0648748,0.249118,0.968009,-0.00740527,-0.000492105,0.0977534,1,4.17457e-05,-2.48282e-06,1.54579e-05,0.00834914,-0.000496563,0.00309158,0.999337,-0.000951044,0.036376,0.00071269,0.179803,-0.275595,-0.974111,32.0625,1,7587,802956
17,5,0.999338,-0.000909386,0.0363727,0.000731047,-0.731622,-0.0488853,9.77529,-0.0543262,0.249738,0.974726,-0.00731742,-0.000497661,0.0977527,1,4.34872e-05,-6.2082e-06,2.09026e-05,0.00869744,-0.00124164,0.00418052,0.999338,-0.000909386,0.0363727,0.000731047,0.180245,-0.27027,-0.971975,32.0625,1,7588,803056
17,6,0.999338,-0.000909386,0.0363727,0.000731047,-0.731622,-0.0488853,9.77529,-0.0543262,0.249738,0.974726,-0.00731742,-0.000497661,0.0977527,1,4.34872e-05,-6.2082e-06,2.09026e-05,0.00869744,-0.00124164,0.00418052,0.999338,-0.000909386,0.0363727,0.000731047,0.180245,-0.27027,-0.971975,32.0625,1,7588,803056
17,7,0.999338,-0.000909386,0.0363727,0.000731047,-0.731622,-0.0488853,9.77529,-0.0543262,0.249738,0.974726,-0.00731742,-0.000497661,0.0977527,1,4.34872e-05,-6.2082e-06,2.09026e-05,0.00869744,-0.00124164,0.00418052,0.999338,-0.000909386,0.0363727,0.000731047,0.180245,-0.27027,-0.971975,32.0625,1,7588,803056
17,8,0.999338,-0.000871789,0.0363641,0.00074214,-0.729216,-0.0452038,9.78446,-0.0563826,0.25131,0.986033,-0.00729445,-0.000460129,0.0978444,1,4.03132e-05,-1.177e-05,1.38527e-05,0.00806264,-0.00235399,0.00277053,0.999338,-0.000871789,0.0363641,0.00074214,0.179382,-0.268889,-0.96689,32.0625,1,7589,803156
18,1,0.999338,-0.000871789,0.0363641,0.00074214,-0.729216,-0.0452038,9.78446,-0.0563826,0.25131,0.986033,-0.00729445,-0.000460129,0.0978444,1,4.03132e-05,-1.177e-05,1.38527e-05,0.00806264,-0.00235399,0.00277053,0.999338,-0.000871789,0.0363641,0.00074214,0.179382,-0.268889,-0.96689,32.0625,1,7589,803156
18,2,0.999338,-0.000871789,0.0363641,0.00074214,-0.729216,-0.0452038,9.78446,-0.0563826,0.25131,0.986033,-0.00729445,-0.000460129,0.0978444,1,4.03132e-05,-1.177e-05,1.38527e-05,0.00806264,-0.00235399,0.00277053,0.999338,-0.000871789,0.0363641,0.00074214,0.179382,-0.268889,-0.96689,32.0625,1,7589,803156
18,3,0.999339,-0.000830821,0.0363519,0.000761747,-0.737548,-0.0559102,9.78816,-0.0632254,0.237753,0.98847,-0.00737841,-0.000567876,0.0978813,1,4.31742e-05,-1.50892e-05,2.18303e-05,0.00863485,-0.00301784,0.00436606,0.999339,-0.000830821,0.0363519,0.000761747,0.17959,-0.273378,-0.961435,32.0625,1,7590,803256
18,4,0.999339,-0.000830821,0.0363519,0.000761747,-0.737548,-0.0559102,9.78816,-0.0632254,0.237753,0.98847,-0.00737841,-0.000567876,0.0978813,1,4.31742e-05,-1.50892e-05,2.18303e-05,0.00863485,-0.00301784,0.00436606,0.999339,-0.000830821,0.0363519,0.000761747,0.17959,-0.273378,-0.961435,32.0625,1,7590,803256
18,5,0.999339,-0.000830821,0.0363519,0.000761747,-0.737548,-0.0559102,9.78816,-0.0632254,0.237753,0.98847,-0.00737841,-0.000567876,0.0978813,1,4.31742e-05,-1.50892e-05,2.18303e-05,0.00863485,-0.00301784,0.00436606,0.999339,-0.000830821,0.0363519,0.000761747,0.17959,-0.273378,-0.961435,32.0625,1,7590,803256
18,6,0.999339,-0.000783451,0.0363484,0.00076946,-0.739762,-0.0517291,9.78515,-0.0659798,0.238349,0.981139,-0.00739892,-0.000527311,0.0978513,1,5.0446e-05,-6.67012e-06,1.00119e-05,0.0100892,-0.00133402,0.00200238,0.999339,-0.000783451,0.0363484,0.00076946,0.178656,-0.277245,-0.963031,32.0625,1,7591,803356
18,7,0.999339,-0.000783451,0.0363484,0.00076946,-0.739762,-0.0517291,9.78515,-0.0659798,0.238349,0.981139,-0.00739892,-0.000527311,0.0978513,1,5.0446e-05,-6.67012e-06,1.00119e-05,0.0100892,-0.00133402,0.00200238,0.999339,-0.000783451,0.0363484,0.00076946,0.178656,-0.277245,-0.963031,32.0625,1,7591,803356
18,8,0.999339,-0.000783451,0.0363484,0.00076946,-0.739762,-0.0517291,9.78515,-0.0659798,0.238349,0.981139,-0.00739892,-0.000527311,0.0978513,1,5.0446e-05,-6.67012e-06,1.00119e-05,0.0100892,-0.00133402,0.00200238,0.999339,-0.000783451,0.0363484,0.00076946,0.178656,-0.277245,-0.963031,32.0625,1,7591,803356
19,1,0.999339,-0.000736247,0.0363356,0.000788508,-0.736613,-0.0553886,9.77527,-0.0670994,0.23497,0.966182,-0.00736922,-0.000564014,0.0977524,1,5.01909e-05,-1.59235e-05,2.13944e-05,0.0100382,-0.0031847,0.00427889,0.999339,-0.000736247,0.0363356,0.000788508,0.179486,-0.279565,-0.970158,32.0625,1,7592,803456
19,2,0.999339,-0.000736247,0.0363356,0.000788508,-0.736613,-0.0553886,9.77527,-0.0670994,0.23497,0.966182,-0.00736922,-0.000564014,0.0977524,1,5.01909e-05,-1.59235e-05,2.13944e-05,0.0100382,-0.0031847,0.00427889,0.999339,-0.000736247,0.0363356,0.000788508,0.179486,-0.279565,-0.970158,32.0625,1,7592,803456
19,3,0.999339,-0.000736247,0.0363356,0.000788508,-0.736613,-0.0553886,9.77527,-0.0670994,0.23497,0.966182,-0.00736922,-0.000564014,0.0977524,1,5.01909e-05,-1.59235e-05,2.13944e-05,0.0100382,-0.0031847,0.00427889,0.999339,-0.000736247,0.0363356,0.000788508,0.179486,-0.279565,-0.970158,32.0625,1,7592,803456
19,4,0.999339,-0.000700942,0.036344,0.000816077,-0.745166,-0.0597789,9.78343,-0.073966,0.229368,0.981146,-0.00745061,-0.000605711,0.0978343,1,3.82142e-05,5.18339e-06,2.98376e-05,0.00764284,0.00103668,0.00596752,0.999339,-0.000700942,0.036344,0.000816077,0.180293,-0.276087,-0.974125,32.0625,1,7593,803556
19,5,0.999339,-0.000700942,0.036344,0.000816077,-0.745166,-0.0597789,9.78343,-0.073966,0.229368,0.981146,-0.00745061,-0.000605711,0.0978343,1,3.82142e-05,5.18339e-06,2.98376e-05,0.00764284,0.00103668,0.00596752,0.999339,-0.000700942,0.036344,0.000816077,0.180293,-0.276087,-0.974125,32.0625,1,7593,803556
19,6,0.999339,-0.000700942,0.036344,0.000816077,-0.745166,-0.0597789,9.78343,-0.073966,0.229368,0.981146,-0.00745061,-0.000605711,0.0978343,1,3.82142e-05,5.18339e-06,2.98376e-05,0.00764284,0.00103668,0.00596752,0.999339,-0.000700942,0.036344,0.000816077,0.180293,-0.276087,-0.974125,32.0625,1,7593,803556
19,7,0.999339,-0.000660414,0.0363323,0.000821651,-0.732764,-0.0527002,9.78138,-0.0584988,0.239376,0.981337,-0.00733057,-0.000535719,0.0978136,1,4.39435e-05,-1.50207e-05,8.25683e-06,0.00878869,-0.00300415,0.00165137,0.999339,-0.000660414,0.0363323,0.000821651,0.181742,-0.271284,-0.970489,32.0625,1,7594,803656
19,8,0.999339,-0.000660414,0.0363323,0.000821651,-0.732764,-0.0527002,9.78138,-0.0584988,0.239376,0.981337,-0.00733057,-0.000535719,0.0978136,1,4.39435e-05,-1.50207e-05,8.25683e-06,0.00878869,-0.00300415,0.00165137,0.999339,-0.000660414,0.0363323,0.000821651,0.181742,-0.271284,-0.970489,32.0625,1,7594,803656
20,1,0.999339,-0.000660414,0.0363323,0.000821651,-0.732764,-0.0527002,9.78138,-0.0584988,0.239376,0.981337,-0.00733057,-0.000535719,0.0978136,1,4.39435e-05,-1.50207e-05,8.25683e-06,0.00878869,-0.00300415,0.00165137,0.999339,-0.000660414,0.0363323,0.000821651,0.181742,-0.271284,-0.970489,32.0625,1,7594,803656
20,2,0.99934,-0.000621348,0.0363193,0.000833459,-0.731575,-0.0451838,9.7777,-0.0626108,0.247544,0.980694,-0.0073189,-0.000460399,0.0977767,1,4.27011e-05,-1.61808e-05,1.43871e-05,0.00854023,-0.00323617,0.00287742,0.99934,-0.000621348,0.0363193,0.000833459,0.180398,-0.268454,-0.964359,32.0625,1,7595,803756
20,3,0.99934,-0.000621348,0.0363193,0.000833459,-0.731575,-0.0451838,9.7777,-0.0626108,0.247544,0.980694,-0.0073189,-0.000460399,0.0977767,1,4.27011e-05,-1.61808e-05,1.43871e-05,0.00854023,-0.00323617,0.00287742,0.99934,-0.000621348,0.0363193,0.000833459,0.180398,-0.268454,-0.964359,32.0625,1,7595,803756
20,4,0.99934,-0.000621348,0.0363193,0.000833459,-0.731575,-0.0451838,9.7777,-0.0626108,0.247544,0.980694,-0.0073189,-0.000460399,0.0977767,1,4.27011e-05,-1.61808e-05,1.43871e-05,0.00854023,-0.00323617,0.00287742,0.99934,-0.000621348,0.0363193,0.000833459,0.180398,-0.268454,-0.964359,32.0625,1,7595,803756
20,5,0.99934,-0.000574613,0.036301,0.000835711,-0.734509,-0.043099,9.78792,-0.0633319,0.24142,0.990005,-0.00734937,-0.000440979,0.0978788,1,5.06509e-05,-2.19066e-05,5.00136e-06,0.0101302,-0.00438131,0.00100027,0.99934,-0.000574613,0.036301,0.000835711,0.180023,-0.270455,-0.961372,32.0625,1,7596,803856
20,6,0.99934,-0.000574613,0.036301,0.000835711,-0.734509,-0.043099,9.78792,-0.0633319,0.24142,0.990005,-0.00734937,-0.000440979,0.0978788,1,5.06509e-05,-2.19066e-05,5.00136e-06,0.0101302,-0.00438131,0.00100027,0.99934,-0.000574613,0.036301,0.000835711,0.180023,-0.270455,-0.961372,32.0625,1,7596,803856
20,7,0.99934,-0.000574613,0.036301,0.000835711,-0.734509,-0.043099,9.78792,-0.0633319,0.24142,0.990005,-0.00734937,-0.000440979,0.0978788,1,5.06509e-05,-2.19066e-05,5.00136e-06,0.0101302,-0.00438131,0.00100027,0.99934,-0.000574613,0.036301,0.000835711,0.180023,-0.270455,-0.961372,32.0625,1,7596,803856
20,8,0.99934,-0.000528745,0.0362977,0.000855465,-0.740847,-0.0421115,9.78185,-0.0689969,0.236283,0.971498,-0.00740978,-0.000431106,0.0978183,1,4.93563e-05,-6.82308e-06,2.26015e-05,0.00987125,-0.00136462,0.0045203,0.99934,-0.000528745,0.0362977,0.000855465,0.178574,-0.275258,-0.965007,32.0625,1,7597,803956
21,1,0.99934,-0.000528745,0.0362977,0.000855465,-0.740847,-0.0421115,9.78185,-0.0689969,0.236283,0.971498,-0.00740978,-0.000431106,0.0978183,1,4.93563e-05,-6.82308e-06,2.26015e-05,0.00987125,-0.00136462,0.0045203,0.99934,-0.000528745,0.0362977,0.000855465,0.178574,-0.275258,-0.965007,32.0625,1,7597,803956
21,2,0.99934,-0.000528745,0.0362977,0.000855465,-0.740847,-0.0421115,9.78185,-0.0689969,0.236283,0.971498,-0.00740978,-0.000431106,0.0978183,1,4.93563e-05,-6.82308e-06,2.26015e-05,0.00987125,-0.00136462,0.0045203,0.99934,-0.000528745,0.0362977,0.000855465,0.178574,-0.275258,-0.965007,32.0625,1,7597,803956
21,3,0.999341,-0.000493175,0.0362897,0.000874878,-0.743115,-0.0500902,9.7818,-0.0725338,0.227231,0.976391,-0.00743351,-0.000509009,0.0978178,1,3.97283e-05,-1.22077e-05,2.25213e-05,0.00794566,-0.00244154,0.00450426,0.999341,-0.000493175,0.0362897,0.000874878,0.178503,-0.279061,-0.970647,32.0625,1,7598,804056
21,4,0.999341,-0.000493175,0.0362897,0.000874878,-0.743115,-0.0500902,9.7818,-0.0725338,0.227231,0.976391,-0.00743351,-0.000509009,0.0978178,1,3.97283e-05,-1.22077e-05,2.25213e-05,0.00794566,-0.00244154,0.00450426,0.999341,-0.000493175,0.0362897,0.000874878,0.178503,-0.279061,-0.970647,32.0625,1,7598,804056
21,5,0.999341,-0.000493175,0.0362897,0.000874878,-0.743115,-0.0500902,9.7818,-0.0725338,0.227231,0.976391,-0.00743351,-0.000509009,0.0978178,1,3.97283e-05,-1.22077e-05,2.25213e-05,0.00794566,-0.00244154,0.00450426,0.999341,-0.000493175,0.0362897,0.000874878,0.178503,-0.279061,-0.970647,32.0625,1,7598,804056
21,6,0.999341,-0.000461916,0.0362807,0.000879683,-0.734943,-0.0572168,9.77354,-0.0622938,0.228014,0.968753,-0.00735205,-0.000579331,0.0977352,1,3.60497e-05,-1.34482e-05,7.88466e-06,0.00720993,-0.00268964,0.00157693,0.999341,-0.000461916,0.0362807,0.000879683,0.180794,-0.278033,-0.974675,32.0625,1,7599,804156
21,7,0.999341,-0.000461916,0.0362807,0.000879683,-0.734943,-0.0572168,9.77354,-0.0622938,0.228014,0.968753,-0.00735205,-0.000579331,0.0977352,1,3.60497e-05,-1.34482e-05,7.88466e-06,0.00720993,-0.00268964,0.00157693,0.999341,-0.000461916,0.0362807,0.000879683,0.180794,-0.278033,-0.974675,32.0625,1,7599,804156
21,8,0.999341,-0.000461916,0.0362807,0.000879683,-0.734943,-0.0572168,9.77354,-0.0622938,0.228014,0.968753,-0.00735205,-0.000579331,0.0977352,1,3.60497e-05,-1.34482e-05,7.88466e-06,0.00720993,-0.00268964,0.00157693,0.999341,-0.000461916,0.0362807,0.000879683,0.180794,-0.278033,-0.974675,32.0625,1,7599,804156
22,1,0.999341,-0.000441308,0.0362765,0.000891068,-0.725737,-0.0504929,9.78473,-0.0548314,0.238402,0.987357,-0.00725899,-0.000510095,0.0978472,1,2.53395e-05,-8.39486e-06,1.43181e-05,0.0050679,-0.00167897,0.00286362,0.999341,-0.000441308,0.0362765,0.000891068,0.182255,-0.273239,-0.970535,32.0625,1,7600,804256
22,2,0.999341,-0.000441308,0.0362765,0.000891068,-0.725737,-0.0504929,9.78473,-0.0548314,0.238402,0.987357,-0.00725899,-0.000510095,0.0978472,1,2.53395e-05,-8.39486e-06,1.43181e-05,0.0050679,-0.00167897,0.00286362,0.999341,-0.000441308,0.0362765,0.000891068,0.182255,-0.273239,-0.970535,32.0625,1,7600,804256
22,3,0.999341,-0.000441308,0.0362765,0.000891068,-0.725737,-0.0504929,9.78473,-0.0548314,0.238402,0.987357,-0.00725899,-0.000510095,0.0978472,1,2.53395e-05,-8.39486e-06,1.43181e-05,0.0050679,-0.00167897,0.00286362,0.999341,-0.000441308,0.0362765,0.000891068,0.182255,-0.273239,-0.970535,32.0625,1,7600,804256
22,4,0.999342,-0.00040531,0.036267,0.000905155,-0.737973,-0.0535223,9.7858,-0.0669084,0.234452,0.987661,-0.00738238,-0.000543379,0.0978578,1,4.04416e-05,-1.36311e-05,1.62965e-05,0.00808832,-0.00272622,0.00325929,0.999342,-0.00040531,0.036267,0.000905155,0.179884,-0.267944,-0.965356,32.0625,1,7601,804356
22,5,0.999342,-0.00040531,0.036267,0.000905155,-0.737973,-0.0535223,9.7858,-0.0669084,0.234452,0.987661,-0.00738238,-0.000543379,0.0978578,1,4.04416e-05,-1.36311e-05,1.62965e-05,0.00808832,-0.00272622,0.00325929,0.999342,-0.00040531,0.036267,0.000905155,0.179884,-0.267944,-0.965356,32.0625,1,7601,804356
22,6,0.999342,-0.00040531,0.036267,0.000905155,-0.737973,-0.0535223,9.7858,-0.0669084,0.234452,0.987661,-0.00738238,-0.000543379,0.0978578,1,4.04416e-05,-1.36311e-05,1.62965e-05,0.00808832,-0.00272622,0.00325929,0.999342,-0.00040531,0.036267,0.000905155,0.179884,-0.267944,-0.965356,32.0625,1,7601,804356
22,7,0.999342,-0.000358968,0.0362645,0.000913977,-0.733895,-0.0529402,9.78409,-0.0619862,0.22768,0.983377,-0.00734019,-0.000539578,0.0978407,1,5.11613e-05,-6.43007e-06,1.12447e-05,0.0102323,-0.00128601,0.00224894,0.999342,-0.000358968,0.0362645,0.000913977,0.178576,-0.269477,-0.960838,32.0625,1,7602,804456
22,8,0.999342,-0.000358968,0.0362645,0.000913977,-0.733895,-0.0529402,9.78409,-0.0619862,0.22768,0.983377,-0.00734019,-0.000539578,0.0978407,1,5.11613e-05,-6.43007e-06,1.12447e-05,0.0102323,-0.00128601,0.00224894,0.999342,-0.000358968,0.0362645,0.000913977,0.178576,-0.269477,-0.960838,32.0625,1,7602,804456
23,1,0.999342,-0.000358968,0.0362645,0.000913977,-0.733895,-0.0529402,9.78409,-0.0619862,0.22768,0.983377,-0.00734019,-0.000539578,0.0978407,1,5.11613e-05,-6.43007e-06,1.12447e-05,0.0102323,-0.00128601,0.00224894,0.999342,-0.000358968,0.0362645,0.000913977,0.178576,-0.269477,-0.960838,32.0625,1,7602,804456
23,2,0.999342,-0.000331029,0.0362677,0.000919223,-0.738668,-0.058126,9.78644,-0.0683507,0.219246,0.981982,-0.00738684,-0.0005879,0.0978644,1,3.3373e-05,-8.81048e-07,7.25309e-06,0.00667461,-0.00017621,0.00145062,0.999342,-0.000331029,0.0362677,0.000919223,0.17811,-0.273339,-0.962942,32.0625,1,7603,804556
23,3,0.999342,-0.000331029,0.0362677,0.000919223,-0.738668,-0.058126,9.78644,-0.0683507,0.219246,0.981982,-0.00738684,-0.0005879,0.0978644,1,3.3373e-05,-8.81048e-07,7.25309e-06,0.00667461,-0.00017621,0.00145062,0.999342,-0.000331029,0.0362677,0.000919223,0.17811,-0.273339,-0.962942,32.0625,1,7603,804556
23,4,0.999342,-0.000331029,0.0362677,0.000919223,-0.738668,-0.058126,9.78644,-0.0683507,0.219246,0.981982,-0.00738684,-0.0005879,0.0978644,1,3.3373e-05,-8.81048e-07,7.25309e-06,0.00667461,-0.00017621,0.00145062,0.999342,-0.000331029,0.0362677,0.000919223,0.17811,-0.273339,-0.962942,32.0625,1,7603,804556
23,5,0.999342,-0.000296013,0.0362547,0.000940948,-0.734584,-0.0435218,9.7835,-0.0610628,0.235426,0.973139,-0.00734928,-0.000443484,0.0978347,1,4.03486e-05,-1.77081e-05,2.52519e-05,0.00806972,-0.00354163,0.00505038,0.999342,-0.000296013,0.0362547,0.000940948,0.179034,-0.277655,-0.967588,32.0625,1,7604,804656
23,6,0.999342,-0.000296013,0.0362547,0.000940948,-0.734584,-0.0435218,9.7835,-0.0610628,0.235426,0.973139,-0.00734928,-0.000443484,0.0978347,1,4.03486e-05,-1.77081e-05,2.52519e-05,0.00806972,-0.00354163,0.00505038,0.999342,-0.000296013,0.0362547,0.000940948,0.179034,-0.277655,-0.967588,32.0625,1,7604,804656
23,7,0.999342,-0.000296013,0.0362547,0.000940948,-0.734584,-0.0435218,9.7835,-0.0610628,0.235426,0.973139,-0.00734928,-0.000443484,0.0978347,1,4.03486e-05,-1.77081e-05,2.52519e-05,0.00806972,-0.00354163,0.00505038,0.999342,-0.000296013,0.0362547,0.000940948,0.179034,-0.277655,-0.967588,32.0625,1,7604,804656
23,8,0.999342,-0.000253347,0.0362483,0.000959068,-0.736545,-0.052716,9.78852,-0.0663565,0.22396,0.985533,-0.00736768,-0.000537014,0.097885,1,4.86225e-05,-1.15073e-05,2.27373e-05,0.0097245,-0.00230146,0.00454746,0.999342,-0.000253347,0.0362483,0.000959068,0.179893,-0.27807,-0.972147,32.0625,1,7605,804756
24,1,0.999342,-0.000253347,0.0362483,0.000959068,-0.736545,-0.052716,9.78852,-0.0663565,0.22396,0.985533,-0.00736768,-0.000537014,0.097885,1,4.86225e-05,-1.15073e-05,2.27373e-05,0.0097245,-0.00230146,0.00454746,0.999342,-0.000253347,0.0362483,0.000959068,0.179893,-0.27807,-0.972147,32.0625,1,7605,804756
24,2,0.999343,-0.000225646,0.0362454,0.000967548,-0.731591,-0.0487516,9.78411,-0.0575127,0.23631,0.981422,-0.00731753,-0.00049443,0.0978409,1,3.44235e-05,-8.32227e-06,1.21799e-05,0.00688471,-0.00166445,0.00243598,0.999343,-0.000225646,0.0362454,0.000967548,0.179825,-0.273201,-0.971533,32.0625,1,7606,804856
24,3,0.999343,-0.000225646,0.0362454,0.000967548,-0.731591,-0.0487516,9.78411,-0.0575127,0.23631,0.981422,-0.00731753,-0.00049443,0.0978409,1,3.44235e-05,-8.32227e-06,1.21799e-05,0.00688471,-0.00166445,0.00243598,0.999343,-0.000225646,0.0362454,0.000967548,0.179825,-0.273201,-0.971533,32.0625,1,7606,804856
24,4,0.999343,-0.000225646,0.0362454,0.000967548,-0.731591,-0.0487516,9.78411,-0.0575127,0.23631,0.981422,-0.00731753,-0.00049443,0.0978409,1,3.44235e-05,-8.32227e-06,1.21799e-05,0.00688471,-0.00166445,0.00243598,0.999343,-0.000225646,0.0362454,0.000967548,0.179825,-0.273201,-0.971533,32.0625,1,7606,804856
24,5,0.999343,-0.000186373,0.0362325,0.000967093,-0.736591,-0.0627135,9.77724,-0.0639795,0.219401,0.979167,-0.00736937,-0.000636132,0.0977721,1,4.58974e-05,-1.77193e-05,1.46241e-06,0.00917949,-0.00354386,0.000292482,0.999343,-0.000186373,0.0362325,0.000967093,0.179933,-0.269425,-0.964379,32.0625,1,7607,804956
24,6,0.999343,-0.000186373,0.0362325,0.000967093,-0.736591,-0.0627135,9.77724,-0.0639795,0.219401,0.979167,-0.00736937,-0.000636132,0.0977721,1,4.58974e-05,-1.77193e-05,1.46241e-06,0.00917949,-0.00354386,0.000292482,0.999343,-0.000186373,0.0362325,0.000967093,0.179933,-0.269425,-0.964379,32.0625,1,7607,804956
24,7,0.999343,-0.000186373,0.0362325,0.000967093,-0.736591,-0.0627135,9.77724,-0.0639795,0.219401,0.979167,-0.00736937,-0.000636132,0.0977721,1,4.58974e-05,-1.77193e-05,1.46241e-06,0.00917949,-0.00354386,0.000292482,0.999343,-0.000186373,0.0362325,0.000967093,0.179933,-0.269425,-0.964379,32.0625,1,7607,804956
24,8,0.999344,-0.000149145,0.0362111,0.000984692,-0.734125,-0.0485658,9.77973,-0.0630826,0.226751,0.978076,-0.00734631,-0.000494282,0.0977969,1,4.26041e-05,-2.59822e-05,1.97888e-05,0.00852082,-0.00519644,0.00395777,0.999344,-0.000149145,0.0362111,0.000984692,0.180044,-0.269507,-0.959835,32.0625,1,7608,805056
25,1,0.999344,-0.000149145,0.0362111,0.000984692,-0.734125,-0.0485658,9.77973,-0.0630826,0.226751,0.978076,-0.00734631,-0.000494282,0.0977969,1,4.26041e-05,-2.59822e-05,1.97888e-05,0.00852082,-0.00519644,0.00395777,0.999344,-0.000149145,0.0362111,0.000984692,0.180044,-0.269507,-0.959835,32.0625,1,7608,805056
25,2,0.999344,-0.000149145,0.0362111,0.000984692,-0.734125,-0.0485658,9.77973,-0.0630826,0.226751,0.978076,-0.00734631,-0.000494282,0.0977969,1,4.26041e-05,-2.59822e-05,1.97888e-05,0.00852082,-0.00519644,0.00395777,0.999344,-0.000149145,0.0362111,0.000984692,0.180044,-0.269507,-0.959835,32.0625,1,7608,805056
25,3,0.999344,-0.000120073,0.0361987,0.00100253,-0.743291,-0.0625235,9.78441,-0.0713882,0.213166,0.9808,-0.00743626,-0.000632394,0.0978438,1,3.50661e-05,-1.72313e-05,1.99639e-05,0.00701323,-0.00344627,0.00399279,0.999344,-0.000120073,0.0361987,0.00100253,0.178106,-0.273817,-0.963458,32.0625,1,7609,805156
25,4,0.999344,-0.000120073,0.0361987,0.00100253,-0.743291,-0.0625235,9.78441,-0.0713882,0.213166,0.9808,-0.00743626,-0.000632394,0.0978438,1,3.50661e-05,-1.72313e-05,1.99639e-05,0.00701323,-0.00344627,0.00399279,0.999344,-0.000120073,0.0361987,0.00100253,0.178106,-0.273817,-0.963458,32.0625,1,7609,805156
25,5,0.999344,-0.000120073,0.0361987,0.00100253,-0.743291,-0.0625235,9.78441,-0.0713882,0.213166,0.9808,-0.00743626,-0.000632394,0.0978438,1,3.50661e-05,-1.72313e-05,1.99639e-05,0.00701323,-0.00344627,0.00399279,0.999344,-0.000120073,0.0361987,0.00100253,0.178106,-0.273817,-0.963458,32.0625,1,7609,805156
25,6,0.999344,-9.30926e-05,0.0361914,0.00101183,-0.730497,-0.0609669,9.77212,-0.0571881,0.210462,0.961458,-0.00730743,-0.000616539,0.097721,1,3.42279e-05,-1.26922e-05,1.23977e-05,0.00684559,-0.00253845,0.00247955,0.999344,-9.30926e-05,0.0361914,0.00101183,0.178516,-0.277624,-0.9691,32.0625,1,7610,805256
25,7,0.999344,-9.30926e-05,0.0361914,0.00101183,-0.730497,-0.0609669,9.77212,-0.0571881,0.210462,0.961458,-0.00730743,-0.000616539,0.097721,1,3.42279e-05,-1.26922e-05,1.23977e-05,0.00684559,-0.00253845,0.00247955,0.999344,-9.30926e-05,0.0361914,0.00101183,0.178516,-0.277624,-0.9691,32.0625,1,7610,805256
25,8,0.999344,-9.30926e-05,0.0361914,0.00101183,-0.730497,-0.0609669,9.77212,-0.0571881,0.210462,0.961458,-0.00730743,-0.000616539,0.097721,1,3.42279e-05,-1.26922e-05,1.23977e-05,0.00684559,-0.00253845,0.00247955,0.999344,-9.30926e-05,0.0361914,0.00101183,0.178516,-0.277624,-0.9691,32.0625,1,7610,805256
26,1,0.999345,-5.52118e-05,0.0361862,0.00102427,-0.737271,-0.0568277,9.78543,-0.0651953,0.215941,0.981638,-0.00737489,-0.000577604,0.0978541,1,4.62885e-05,-1.12596e-05,1.81796e-05,0.00925771,-0.00225192,0.00363592,0.999345,-5.52118e-05,0.0361862,0.00102427,0.180301,-0.276575,-0.974135,32.0625,1,7611,805356
26,2,0.999345,-5.52118e-05,0.0361862,0.00102427,-0.737271,-0.0568277,9.78543,-0.0651953,0.215941,0.981638,-0.00737489,-0.000577604,0.0978541,1,4.62885e-05,-1.12596e-05,1.81796e-05,0.00925771,-0.00225192,0.00363592,0.999345,-5.52118e-05,0.0361862,0.00102427,0.180301,-0.276575,-0.974135,32.0625,1,7611,805356
26,3,0.999345,-5.52118e-05,0.0361862,0.00102427,-0.737271,-0.0568277,9.78543,-0.0651953,0.215941,0.981638,-0.00737489,-0.000577604,0.0978541,1,4.62885e-05,-1.12596e-05,1.81796e-05,0.00925771,-0.00225192,0.00363592,0.999345,-5.52118e-05,0.0361862,0.00102427,0.180301,-0.276575,-0.974135,32.0625,1,7611,805356
26,4,0.999345,-2.41184e-05,0.0361743,0.00102981,-0.736529,-0.0521228,9.7848,-0.0701302,0.223317,0.984699,-0.00736881,-0.000529197,0.0978477,1,3.99352e-05,-1.80468e-05,1.04587e-05,0.00798705,-0.00360936,0.00209175,0.999345,-2.41184e-05,0.0361743,0.00102981,0.1817,-0.273181,-0.973561,32.0625,1,7612,805456
26,5,0.999345,-2.41184e-05,0.0361743,0.00102981,-0.736529,-0.0521228,9.7848,-0.0701302,0.223317,0.984699,-0.00736881,-0.000529197,0.0978477,1,3.99352e-05,-1.80468e-05,1.04587e-05,0.00798705,-0.00360936,0.00209175,0.999345,-2.41184e-05,0.0361743,0.00102981,0.1817,-0.273181,-0.973561,32.0625,1,7612,805456
26,6,0.999345,-2.41184e-05,0.0361743,0.00102981,-0.736529,-0.0521228,9.7848,-0.0701302,0.223317,0.984699,-0.00736881,-0.000529197,0.0978477,1,3.99352e-05,-1.80468e-05,1.04587e-05,0.00798705,-0.00360936,0.00209175,0.999345,-2.41184e-05,0.0361743,0.00102981,0.1817,-0.273181,-0.973561,32.0625,1,7612,805456
26,7,0.999345,9.47115e-06,0.0361761,0.00103318,-0.740022,-0.0442993,9.78353,-0.0707993,0.22684,0.990537,-0.00740092,-0.000451258,0.0978352,1,4.1727e-05,-3.6491e-06,6.78891e-06,0.0083454,-0.00072982,0.00135778,0.999345,9.47115e-06,0.0361761,0.00103318,0.181327,-0.269401,-0.966405,32.0625,1,7613,805556
26,8,0.999345,9.47115e-06,0.0361761,0.00103318,-0.740022,-0.0442993,9.78353,-0.0707993,0.22684,0.990537,-0.00740092,-0.000451258,0.0978352,1,4.1727e-05,-3.6491e-06,6.78891e-06,0.0083454,-0.00072982,0.00135778,0.999345,9.47115e-06,0.0361761,0.00103318,0.181327,-0.269401,-0.966405,32.0625,1,7613,805556
27,1,0.999345,9.47115e-06,0.0361761,0.00103318,-0.740022,-0.0442993,9.78353,-0.0707993,0.22684,0.990537,-0.00740092,-0.000451258,0.0978352,1,4.1727e-05,-3.6491e-06,6.78891e-06,0.0083454,-0.00072982,0.00135778,0.999345,9.47115e-06,0.0361761,0.00103318,0.181327,-0.269401,-0.966405,32.0625,1,7613,805556
27,2,0.999345,4.83641e-05,0.0361768,0.00105688,-0.730717,-0.0341816,9.77507,-0.0592329,0.239366,0.97888,-0.00730807,-0.000351159,0.0977506,1,4.58081e-05,-4.68264e-06,2.65407e-05,0.00916162,-0.000936529,0.00530814,0.999345,4.83641e-05,0.0361768,0.00105688,0.180533,-0.271444,-0.960891,32.0625,1,7614,805656
27,3,0.999345,4.83641e-05,0.0361768,0.00105688,-0.730717,-0.0341816,9.77507,-0.0592329,0.239366,0.97888,-0.00730807,-0.000351159,0.0977506,1,4.58081e-05,-4.68264e-06,2.65407e-05,0.00916162,-0.000936529,0.00530814,0.999345,4.83641e-05,0.0361768,0.00105688,0.180533,-0.271444,-0.960891,32.0625,1,7614,805656
27,4,0.999345,4.83641e-05,0.0361768,0.00105688,-0.730717,-0.0341816,9.77507,-0.0592329,0.239366,0.97888,-0.00730807,-0.000351159,0.0977506,1,4.58081e-05,-4.68264e-06,2.65407e-05,0.00916162,-0.000936529,0.00530814,0.999345,4.83641e-05,0.0361768,0.00105688,0.180533,-0.271444,-0.960891,32.0625,1,7614,805656
27,5,0.999345,7.21393e-05,0.0361766,0.00107496,-0.72464,-0.0647513,9.78393,-0.0554243,0.202037,0.976827,-0.00724751,-0.000653899,0.0978391,1,3.11509e-05,-5.80009e-06,2.00458e-05,0.00623019,-0.00116002,0.00400915,0.999345,7.21393e-05,0.0361766,0.00107496,0.178652,-0.276278,-0.962505,32.0625,1,7615,805756
27,6,0.999345,7.21393e-05,0.0361766,0.00107496,-0.72464,-0.0647513,9.78393,-0.0554243,0.202037,0.976827,-0.00724751,-0.000653899,0.0978391,1,3.11509e-05,-5.80009e-06,2.00458e-05,0.00623019,-0.00116002,0.00400915,0.999345,7.21393e-05,0.0361766,0.00107496,0.178652,-0.276278,-0.962505,32.0625,1,7615,805756
27,7,0.999345,7.21393e-05,0.0361766,0.00107496,-0.72464,-0.0647513,9.78393,-0.0554243,0.202037,0.976827,-0.00724751,-0.000653899,0.0978391,1,3.11509e-05,-5.80009e-06,2.00458e-05,0.00623019,-0.00116002,0.00400915,0.999345,7.21393e-05,0.0361766,0.00107496,0.178652,-0.276278,-0.962505,32.0625,1,7615,805756
27,8,0.999345,0.000106522,0.0361793,0.00109327,-0.741915,-0.0451785,9.77708,-0.0757989,0.222217,0.96667,-0.00741972,-0.000460454,0.0977707,1,4.26135e-05,-2.99148e-06,2.26648e-05,0.00852271,-0.000598296,0.00453296,0.999345,0.000106522,0.0361793,0.00109327,0.179531,-0.278635,-0.967612,32.0625,1,7616,805856
28,1,0.999345,0.000106522,0.0361793,0.00109327,-0.741915,-0.0451785,9.77708,-0.0757989,0.222217,0.96667,-0.00741972,-0.000460454,0.0977707,1,4.26135e-05,-2.99148e-06,2.26648e-05,0.00852271,-0.000598296,0.00453296,0.999345,0.000106522,0.0361793,0.00109327,0.179531,-0.278635,-0.967612,32.0625,1,7616,805856
28,2,0.999345,0.000106522,0.0361793,0.00109327,-0.741915,-0.0451785,9.77708,-0.0757989,0.222217,0.96667,-0.00741972,-0.000460454,0.0977707,1,4.26135e-05,-2.99148e-06,2.26648e-05,0.00852271,-0.000598296,0.00453296,0.999345,0.000106522,0.0361793,0.00109327,0.179531,-0.278635,-0.967612,32.0625,1,7616,805856
28,3,0.999345,0.000134364,0.0361859,0.00111214,-0.740151,-0.0545315,9.77631,-0.0733501,0.215694,0.970464,-0.00740148,-0.000552973,0.097763,1,3.73199e-05,3.15611e-08,2.441e-05,0.00746399,6.31222e-06,0.004882,0.999345,0.000134364,0.0361859,0.00111214,0.180333,-0.27708,-0.973137,32.0625,1,7617,805956
28,4,0.999345,0.000134364,0.0361859,0.00111214,-0.740151,-0.0545315,9.77631,-0.0733501,0.215694,0.970464,-0.00740148,-0.000552973,0.097763,1,3.73199e-05,3.15611e-08,2.441e-05,0.00746399,6.31222e-06,0.004882,0.999345,0.000134364,0.0361859,0.00111214,0.180333,-0.27708,-0.973137,32.0625,1,7617,805956
28,5,0.999345,0.000134364,0.0361859,0.00111214,-0.740151,-0.0545315,9.77631,-0.0733501,0.215694,0.970464,-0.00740148,-0.000552973,0.097763,1,3.73199e-05,3.15611e-08,2.441e-05,0.00746399,6.31222e-06,0.004882,0.999345,0.000134364,0.0361859,0.00111214,0.180333,-0.27708,-0.973137,32.0625,1,7617,805956
28,6,0.999345,0.00017484,0.0361822,0.00112548,-0.737179,-0.0364721,9.76729,-0.0675717,0.2373,0.965136,-0.00737386,-0.00037485,0.0976727,1,5.04293e-05,-1.06655e-05,1.8809e-05,0.0100859,-0.00213309,0.00376179,0.999345,0.00017484,0.0361822,0.00112548,0.180787,-0.273209,-0.971538,32.0625,1,7618,806056
28,7,0.999345,0.00017484,0.0361822,0.00112548,-0.737179,-0.0364721,9.76729,-0.0675717,0.2373,0.965136,-0.00737386,-0.00037485,0.0976727,1,5.04293e-05,-1.06655e-05,1.8809e-05,0.0100859,-0.00213309,0.00376179,0.999345,0.00017484,0.0361822,0.00112548,0.180787,-0.273209,-0.971538,32.0625,1,7618,806056
28,8,0.999345,0.00017484,0.0361822,0.00112548,-0.737179,-0.0364721,9.76729,-0.0675717,0.2373,0.965136,-0.00737386,-0.00037485,0.0976727,1,5.04293e-05,-1.06655e-05,1.8809e-05,0.0100859,-0.00213309,0.00376179,0.999345,0.00017484,0.0361822,0.00112548,0.180787,-0.273209,-0.971538,32.0625,1,7618,806056
29,1,0.999345,0.00020433,0.0361849,0.00112899,-0.738756,-0.0505056,9.78549,-0.0678952,0.217862,0.986262,-0.00738825,-0.000512751,0.0978548,1,3.88492e-05,-3.58932e-06,6.22691e-06,0.00776984,-0.000717865,0.00124538,0.999345,0.00020433,0.0361849,0.00112899,0.180846,-0.267952,-0.96536,32.0625,1,7619,806156
29,2,0.999345,0.00020433,0.0361849,0.00112899,-0.738756,-0.0505056,9.78549,-0.0678952,0.217862,0.986262,-0.00738825,-0.000512751,0.0978548,1,3.88492e-05,-3.58932e-06,6.22691e-06,0.00776984,-0.000717865,0.00124538,0.999345,0.00020433,0.0361849,0.00112899,0.180846,-0.267952,-0.96536,32.0625,1,7619,806156
29,3,0.999345,0.00020433,0.0361849,0.00112899,-0.738756,-0.0505056,9.78549,-0.0678952,0.217862,0.986262,-0.00738825,-0.000512751,0.0978548,1,3.88492e-05,-3.58932e-06,6.22691e-06,0.00776984,-0.000717865,0.00124538,0.999345,0.00020433,0.0361849,0.00112899,0.180846,-0.267952,-0.96536,32.0625,1,7619,806156
29,4,0.999344,0.000245945,0.0361839,0.0011545,-0.741048,-0.0572827,9.78409,-0.0697708,0.208108,0.980601,-0.00741185,-0.000582994,0.0978408,1,4.98182e-05,-7.16598e-06,2.82432e-05,0.00996365,-0.0014332,0.00564865,0.999344,0.000245945,0.0361839,0.0011545,0.179082,-0.269499,-0.959831,32.0625,1,7620,806256
29,5,0.999344,0.000245945,0.0361839,0.0011545,-0.741048,-0.0572827,9.78409,-0.0697708,0.208108,0.980601,-0.00741185,-0.000582994,0.0978408,1,4.98182e-05,-7.16598e-06,2.82432e-05,0.00996365,-0.0014332,0.00564865,0.999344,0.000245945,0.0361839,0.0011545,0.179082,-0.269499,-0.959831,32.0625,1,7620,806256
29,6,0.999344,0.000245945,0.0361839,0.0011545,-0.741048,-0.0572827,9.78409,-0.0697708,0.208108,0.980601,-0.00741185,-0.000582994,0.0978408,1,4.98182e-05,-7.16598e-06,2.82432e-05,0.00996365,-0.0014332,0.00564865,0.999344,0.000245945,0.0361839,0.0011545,0.179082,-0.269499,-0.959831,32.0625,1,7620,806256
29,7,0.999345,0.00027199,0.0361767,0.00115727,-0.740977,-0.0522861,9.78991,-0.0716045,0.209062,0.986561,-0.0074124,-0.000529925,0.0978988,1,3.56435e-05,-1.34503e-05,5.76119e-06,0.00712871,-0.00269005,0.00115224,0.999345,0.00027199,0.0361767,0.00115727,0.177661,-0.275286,-0.962983,32.0625,1,7621,806356
29,8,0.999345,0.00027199,0.0361767,0.00115727,-0.740977,-0.0522861,9.78991,-0.0716045,0.209062,0.986561,-0.0074124,-0.000529925,0.0978988,1,3.56435e-05,-1.34503e-05,5.76119e-06,0.00712871,-0.00269005,0.00115224,0.999345,0.00027199,0.0361767,0.00115727,0.177661,-0.275286,-0.962983,32.0625,1,7621,806356
30,1,0.999345,0.00027199,0.0361767,0.00115727,-0.740977,-0.0522861,9.78991,-0.0716045,0.209062,0.986561,-0.0074124,-0.000529925,0.0978988,1,3.56435e-05,-1.34503e-05,5.76119e-06,0.00712871,-0.00269005,0.00115224,0.999345,0.00027199,0.0361767,0.00115727,0.177661,-0.275286,-0.962983,32.0625,1,7621,806356
30,2,0.999345,0.000314016,0.0361803,0.00117542,-0.726128,-0.054034,9.78335,-0.0593795,0.204388,0.974364,-0.00726187,-0.000550885,0.0978334,1,5.22155e-05,-3.17053e-06,2.26107e-05,0.0104431,-0.000634106,0.00452214,0.999345,0.000314016,0.0361803,0.00117542,0.178515,-0.27907,-0.970142,32.0625,1,7622,806456
30,3,0.999345,0.000314016,0.0361803,0.00117542,-0.726128,-0.054034,9.78335,-0.0593795,0.204388,0.974364,-0.00726187,-0.000550885,0.0978334,1,5.22155e-05,-3.17053e-06,2.26107e-05,0.0104431,-0.000634106,0.00452214,0.999345,0.000314016,0.0361803,0.00117542,0.178515,-0.27907,-0.970142,32.0625,1,7622,806456
30,4,0.999345,0.000314016,0.0361803,0.00117542,-0.726128,-0.054034,9.78335,-0.0593795,0.204388,0.974364,-0.00726187,-0.000550885,0.0978334,1,5.22155e-05,-3.17053e-06,2.26107e-05,0.0104431,-0.000634106,0.00452214,0.999345,0.000314016,0.0361803,0.00117542,0.178515,-0.27907,-0.970142,32.0625,1,7622,806456
30,5,0.999345,0.00035309,0.0361712,0.00119519,-0.736894,-0.0482505,9.78992,-0.065682,0.209586,0.983486,-0.00737215,-0.000492795,0.0978989,1,5.05689e-05,-1.65159e-05,2.63696e-05,0.0101138,-0.00330318,0.00527391,0.999345,0.00035309,0.0361712,0.00119519,0.179876,-0.27854,-0.973167,32.0625,1,7623,806556
30,6,0.999345,0.00035309,0.0361712,0.00119519,-0.736894,-0.0482505,9.78992,-0.065682,0.209586,0.983486,-0.00737215,-0.000492795,0.0978989,1,5.05689e-05,-1.65159e-05,2.63696e-05,0.0101138,-0.00330318,0.00527391,0.999345,0.00035309,0.0361712,0.00119519,0.179876,-0.27854,-0.973167,32.0625,1,7623,806556
30,7,0.999345,0.00035309,0.0361712,0.00119519,-0.736894,-0.0482505,9.78992,-0.065682,0.209586,0.983486,-0.00737215,-0.000492795,0.0978989,1,5.05689e-05,-1.65159e-05,2.63696e-05,0.0101138,-0.00330318,0.00527391,0.999345,0.00035309,0.0361712,0.00119519,0.179876,-0.27854,-0.973167,32.0625,1,7623,806556
30,8,0.999345,0.000384658,0.0361704,0.0012115,-0.729879,-0.0479026,9.78071,-0.0566061,0.216735,0.979913,-0.00730035,-0.000487719,0.0978069,1,4.28037e-05,-8.06498e-06,2.18879e-05,0.00856074,-0.001613,0.00437757,0.999345,0.000384658,0.0361704,0.0012115,0.182235,-0.272743,-0.971029,32.0625,1,7624,806656
30,9,0.999345,0.000384658,0.0361704,0.0012115,-0.729879,-0.0479026,9.78071,-0.0566061,0.216735,0.979913,-0.00730035,-0.000487719,0.0978069,1,4.28037e-05,-8.06498e-06,2.18879e-05,0.00856074,-0.001613,0.00437757,0.999345,0.000384658,0.0361704,0.0012115,0.182235,-0.272743,-0.971029,32.0625,1,7624,806656
30,10,0.999345,0.000384658,0.0361704,0.0012115,-0.729879,-0.0479026,9.78071,-0.0566061,0.216735,0.979913,-0.00730035,-0.000487719,0.0978069,1,4.28037e-05,-8.06498e-06,2.18879e-05,0.00856074,-0.001613,0.00437757,0.999345,0.000384658,0.0361704,0.0012115,0.182235,-0.272743,-0.971029,32.0625,1,7624,806656
31,1,0.999345,0.000403509,0.0361599,0.00122408,-0.736874,-0.0474779,9.78959,-0.0706288,0.21382,0.993893,-0.00737209,-0.000480746,0.0978956,1,2.9318e-05,-1.71737e-05,1.53221e-05,0.00586359,-0.00343475,0.00306442,0.999345,0.000403509,0.0361599,0.00122408,0.181332,-0.267477,-0.964847,32.0625,1,7625,806756
31,2,0.999345,0.000403509,0.0361599,0.00122408,-0.736874,-0.0474779,9.78959,-0.0706288,0.21382,0.993893,-0.00737209,-0.000480746,0.0978956,1,2.9318e-05,-1.71737e-05,1.53221e-05,0.00586359,-0.00343475,0.00306442,0.999345,0.000403509,0.0361599,0.00122408,0.181332,-0.267477,-0.964847,32.0625,1,7625,806756
31,3,0.999345,0.000403509,0.0361599,0.00122408,-0.736874,-0.0474779,9.78959,-0.0706288,0.21382,0.993893,-0.00737209,-0.000480746,0.0978956,1,2.9318e-05,-1.71737e-05,1.53221e-05,0.00586359,-0.00343475,0.00306442,0.999345,0.000403509,0.0361599,0.00122408,0.181332,-0.267477,-0.964847,32.0625,1,7625,806756
31,4,0.999345,0.000434145,0.0361517,0.00123279,-0.735332,-0.0459817,9.78619,-0.0686709,0.210787,0.987709,-0.00735624,-0.00046804,0.0978617,1,4.11662e-05,-1.49815e-05,1.12916e-05,0.00823323,-0.0029963,0.00225833,0.999345,0.000434145,0.0361517,0.00123279,0.179073,-0.270456,-0.960862,32.0625,1,7626,806856
31,5,0.999345,0.000434145,0.0361517,0.00123279,-0.735332,-0.0459817,9.78619,-0.0686709,0.210787,0.987709,-0.00735624,-0.00046804,0.0978617,1,4.11662e-05,-1.49815e-05,1.12916e-05,0.00823323,-0.0029963,0.00225833,0.999345,0.000434145,0.0361517,0.00123279,0.179073,-0.270456,-0.960862,32.0625,1,7626,806856
31,6,0.999345,0.000434145,0.0361517,0.00123279,-0.735332,-0.0459817,9.78619,-0.0686709,0.210787,0.987709,-0.00735624,-0.00046804,0.0978617,1,4.11662e-05,-1.49815e-05,1.12916e-05,0.00823323,-0.0029963,0.00225833,0.999345,0.000434145,0.0361517,0.00123279,0.179073,-0.270456,-0.960862,32.0625,1,7626,806856
31,7,0.999346,0.000452359,0.0361497,0.00125252,-0.74001,-0.0494998,9.78077,-0.0723367,0.204752,0.979375,-0.00740177,-0.000501071,0.0978075,1,2.93425e-05,-8.63699e-06,2.24894e-05,0.0058685,-0.0017274,0.00449787,0.999346,0.000452359,0.0361497,0.00125252,0.177636,-0.275268,-0.963993,32.0625,1,7627,806956
31,8,0.999346,0.000452359,0.0361497,0.00125252,-0.74001,-0.0494998,9.78077,-0.0723367,0.204752,0.979375,-0.00740177,-0.000501071,0.0978075,1,2.93425e-05,-8.63699e-06,2.24894e-05,0.0058685,-0.0017274,0.00449787,0.999346,0.000452359,0.0361497,0.00125252,0.177636,-0.275268,-0.963993,32.0625,1,7627,806956
32,1,0.999346,0.000452359,0.0361497,0.00125252,-0.74001,-0.0494998,9.78077,-0.0723367,0.204752,0.979375,-0.00740177,-0.000501071,0.0978075,1,2.93425e-05,-8.63699e-06,2.24894e-05,0.0058685,-0.0017274,0.00449787,0.999346,0.000452359,0.0361497,0.00125252,0.177636,-0.275268,-0.963993,32.0625,1,7627,806956
32,2,0.999346,0.000474164,0.0361444,0.00127066,-0.736859,-0.0474055,9.78824,-0.0675069,0.212302,0.981602,-0.00737102,-0.000480941,0.0978822,1,3.34273e-05,-1.24999e-05,2.31767e-05,0.00668546,-0.00249999,0.00463533,0.999346,0.000474164,0.0361444,0.00127066,0.178038,-0.278587,-0.969624,32.0625,1,7628,807056
32,3,0.999346,0.000474164,0.0361444,0.00127066,-0.736859,-0.0474055,9.78824,-0.0675069,0.212302,0.981602,-0.00737102,-0.000480941,0.0978822,1,3.34273e-05,-1.24999e-05,2.31767e-05,0.00668546,-0.00249999,0.00463533,0.999346,0.000474164,0.0361444,0.00127066,0.178038,-0.278587,-0.969624,32.0625,1,7628,807056
32,4,0.999346,0.000474164,0.0361444,0.00127066,-0.736859,-0.0474055,9.78824,-0.0675069,0.212302,0.981602,-0.00737102,-0.000480941,0.0978822,1,3.34273e-05,-1.24999e-05,2.31767e-05,0.00668546,-0.00249999,0.00463533,0.999346,0.000474164,0.0361444,0.00127066,0.178038,-0.278587,-0.969624,32.0625,1,7628,807056
32,5,0.999346,0.000502249,0.0361389,0.00128055,-0.733154,-0.0579576,9.78404,-0.065395,0.202452,0.983484,-0.00733413,-0.000587856,0.0978402,1,4.11365e-05,-1.3303e-05,1.57114e-05,0.00822731,-0.0026606,0.00314229,0.999346,0.000502249,0.0361389,0.00128055,0.180309,-0.277062,-0.974146,32.0625,1,7629,807156
32,6,0.999346,0.000502249,0.0361389,0.00128055,-0.733154,-0.0579576,9.78404,-0.065395,0.202452,0.983484,-0.00733413,-0.000587856,0.0978402,1,4.11365e-05,-1.3303e-05,1.57114e-05,0.00822731,-0.0026606,0.00314229,0.999346,0.000502249,0.0361389,0.00128055,0.180309,-0.277062,-0.974146,32.0625,1,7629,807156
32,7,0.999346,0.000502249,0.0361389,0.00128055,-0.733154,-0.0579576,9.78404,-0.065395,0.202452,0.983484,-0.00733413,-0.000587856,0.0978402,1,4.11365e-05,-1.3303e-05,1.57114e-05,0.00822731,-0.0026606,0.00314229,0.999346,0.000502249,0.0361389,0.00128055,0.180309,-0.277062,-0.974146,32.0625,1,7629,807156
32,8,0.999347,0.000521305,0.0361151,0.00129675,-0.728948,-0.0548187,9.77727,-0.0567899,0.21116,0.976231,-0.00729569,-0.000554744,0.0977722,1,3.19221e-05,-3.1866e-05,2.15769e-05,0.00638443,-0.00637321,0.00431537,0.999347,0.000521305,0.0361151,0.00129675,0.182218,-0.273212,-0.972049,32.0625,1,7630,807256
33,1,0.999347,0.000521305,0.0361151,0.00129675,-0.728948,-0.0548187,9.77727,-0.0567899,0.21116,0.976231,-0.00729569,-0.000554744,0.0977722,1,3.19221e-05,-3.1866e-05,2.15769e-05,0.00638443,-0.00637321,0.00431537,0.999347,0.000521305,0.0361151,0.00129675,0.182218,-0.273212,-0.972049,32.0625,1,7630,807256
33,2,0.999347,0.000521305,0.0361151,0.00129675,-0.728948,-0.0548187,9.77727,-0.0567899,0.21116,0.976231,-0.00729569,-0.000554744,0.0977722,1,3.19221e-05,-3.1866e-05,2.15769e-05,0.00638443,-0.00637321,0.00431537,0.999347,0.000521305,0.0361151,0.00129675,0.182218,-0.273212,-0.972049,32.0625,1,7630,807256
33,3,0.999347,0.000549737,0.0360962,0.00130818,-0.726995,-0.0526407,9.77524,-0.0621145,0.206231,0.979718,-0.00727504,-0.000534596,0.0977519,1,4.07527e-05,-2.61368e-05,1.52252e-05,0.00815054,-0.00522736,0.00304505,0.999347,0.000549737,0.0360962,0.00130818,0.179892,-0.269877,-0.966409,32.0625,1,7631,807356
33,4,0.999347,0.000549737,0.0360962,0.00130818,-0.726995,-0.0526407,9.77524,-0.0621145,0.206231,0.979718,-0.00727504,-0.000534596,0.0977519,1,4.07527e-05,-2.61368e-05,1.52252e-05,0.00815054,-0.00522736,0.00304505,0.999347,0.000549737,0.0360962,0.00130818,0.179892,-0.269877,-0.966409,32.0625,1,7631,807356
33,5,0.999347,0.000549737,0.0360962,0.00130818,-0.726995,-0.0526407,9.77524,-0.0621145,0.206231,0.979718,-0.00727504,-0.000534596,0.0977519,1,4.07527e-05,-2.61368e-05,1.52252e-05,0.00815054,-0.00522736,0.00304505,0.999347,0.000549737,0.0360962,0.00130818,0.179892,-0.269877,-0.966409,32.0625,1,7631,807356
33,6,0.999348,0.000589843,0.0360905,0.00132177,-0.747475,-0.0500275,9.78285,-0.0783794,0.207235,0.986391,-0.00747727,-0.000510698,0.0978283,1,5.19753e-05,-1.29882e-05,1.7004e-05,0.0103951,-0.00259764,0.00340079,0.999348,0.000589843,0.0360905,0.00132177,0.178583,-0.27141,-0.961891,32.0625,1,7632,807456
33,7,0.999348,0.000589843,0.0360905,0.00132177,-0.747475,-0.0500275,9.78285,-0.0783794,0.207235,0.986391,-0.00747727,-0.000510698,0.0978283,1,5.19753e-05,-1.29882e-05,1.7004e-05,0.0103951,-0.00259764,0.00340079,0.999348,0.000589843,0.0360905,0.00132177,0.178583,-0.27141,-0.961891,32.0625,1,7632,807456
33,8,0.999348,0.000589843,0.0360905,0.00132177,-0.747475,-0.0500275,9.78285,-0.0783794,0.207235,0.986391,-0.00747727,-0.000510698,0.0978283,1,5.19753e-05,-1.29882e-05,1.7004e-05,0.0103951,-0.00259764,0.00340079,0.999348,0.000589843,0.0360905,0.00132177,0.178583,-0.27141,-0.961891,32.0625,1,7632,807456
34,1,0.999348,0.000625535,0.0360773,0.00130974,-0.748692,-0.054929,9.78452,-0.0825918,0.193173,0.983486,-0.00749094,-0.000558725,0.0978448,1,4.88366e-05,-2.048e-05,-8.14377e-06,0.00976731,-0.004096,-0.00162875,0.999348,0.000625535,0.0360773,0.00130974,0.178652,-0.276278,-0.962505,32.0625,1,7633,807556
34,2,0.999348,0.000625535,0.0360773,0.00130974,-0.748692,-0.054929,9.78452,-0.0825918,0.193173,0.983486,-0.00749094,-0.000558725,0.0978448,1,4.88366e-05,-2.048e-05,-8.14377e-06,0.00976731,-0.004096,-0.00162875,0.999348,0.000625535,0.0360773,0.00130974,0.178652,-0.276278,-0.962505,32.0625,1,7633,807556
34,3,0.999348,0.000625535,0.0360773,0.00130974,-0.748692,-0.054929,9.78452,-0.0825918,0.193173,0.983486,-0.00749094,-0.000558725,0.0978448,1,4.88366e-05,-2.048e-05,-8.14377e-06,0.00976731,-0.004096,-0.00162875,0.999348,0.000625535,0.0360773,0.00130974,0.178652,-0.276278,-0.962505,32.0625,1,7633,807556
34,4,0.999348,0.000653052,0.0360823,0.00133005,-0.729506,-0.0534115,9.78914,-0.0547127,0.204669,0.981865,-0.00729557,-0.000542409,0.0978913,1,4.04027e-05,-2.77868e-06,2.62633e-05,0.00808053,-0.000555736,0.00525267,0.999348,0.000653052,0.0360823,0.00133005,0.180008,-0.279118,-0.96813,32.0625,1,7634,807656
34,5,0.999348,0.000653052,0.0360823,0.00133005,-0.729506,-0.0534115,9.78914,-0.0547127,0.204669,0.981865,-0.00729557,-0.000542409,0.0978913,1,4.04027e-05,-2.77868e-06,2.62633e-05,0.00808053,-0.000555736,0.00525267,0.999348,0.000653052,0.0360823,0.00133005,0.180008,-0.279118,-0.96813,32.0625,1,7634,807656
34,6,0.999348,0.000653052,0.0360823,0.00133005,-0.729506,-0.0534115,9.78914,-0.0547127,0.204669,0.981865,-0.00729557,-0.000542409,0.0978913,1,4.04027e-05,-2.77868e-06,2.62633e-05,0.00808053,-0.000555736,0.00525267,0.999348,0.000653052,0.0360823,0.00133005,0.180008,-0.279118,-0.96813,32.0625,1,7634,807656
34,7,0.999348,0.000676941,0.0360817,0.00133612,-0.732781,-0.0592943,9.79047,-0.0633955,0.19852,0.981938,-0.0073296,-0.000600764,0.0979045,1,3.88996e-05,-9.19546e-06,1.39606e-05,0.00777991,-0.00183909,0.00279212,0.999348,0.000676941,0.0360817,0.00133612,0.181275,-0.276592,-0.973635,32.0625,1,7635,807756
34,8,0.999348,0.000676941,0.0360817,0.00133612,-0.732781,-0.0592943,9.79047,-0.0633955,0.19852,0.981938,-0.0073296,-0.000600764,0.0979045,1,3.88996e-05,-9.19546e-06,1.39606e-05,0.00777991,-0.00183909,0.00279212,0.999348,0.000676941,0.0360817,0.00133612,0.181275,-0.276592,-0.973635,32.0625,1,7635,807756
35,1,0.999348,0.000676941,0.0360817,0.00133612,-0.732781,-0.0592943,9.79047,-0.0633955,0.19852,0.981938,-0.0073296,-0.000600764,0.0979045,1,3.88996e-05,-9.19546e-06,1.39606e-05,0.00777991,-0.00183909,0.00279212,0.999348,0.000676941,0.0360817,0.00133612,0.181275,-0.276592,-0.973635,32.0625,1,7635,807756
35,2,0.999348,0.000707903,0.0360741,0.00134984,-0.734111,-0.0497164,9.78786,-0.0662467,0.210114,0.987629,-0.0073443,-0.000506453,0.0978783,1,4.59646e-05,-1.63579e-05,1.98443e-05,0.00919292,-0.00327157,0.00396887,0.999348,0.000707903,0.0360741,0.00134984,0.181207,-0.271723,-0.973022,32.0625,1,7636,807856
35,3,0.999348,0.000707903,0.0360741,0.00134984,-0.734111,-0.0497164,9.78786,-0.0662467,0.210114,0.987629,-0.0073443,-0.000506453,0.0978783,1,4.59646e-05,-1.63579e-05,1.98443e-05,0.00919292,-0.00327157,0.00396887,0.999348,0.000707903,0.0360741,0.00134984,0.181207,-0.271723,-0.973022,32.0625,1,7636,807856
35,4,0.999348,0.000707903,0.0360741,0.00134984,-0.734111,-0.0497164,9.78786,-0.0662467,0.210114,0.987629,-0.0073443,-0.000506453,0.0978783,1,4.59646e-05,-1.63579e-05,1.98443e-05,0.00919292,-0.00327157,0.00396887,0.999348,0.000707903,0.0360741,0.00134984,0.181207,-0.271723,-0.973022,32.0625,1,7636,807856
35,5,0.999348,0.000726066,0.036074,0.00136338,-0.732289,-0.0486571,9.77563,-0.0657601,0.208251,0.980478,-0.00732443,-0.000493149,0.0977562,1,3.23151e-05,-7.95342e-06,1.77417e-05,0.00646301,-0.00159068,0.00354833,0.999348,0.000726066,0.036074,0.00136338,0.180357,-0.268906,-0.966389,32.0625,1,7637,807956
35,6,0.999348,0.000726066,0.036074,0.00136338,-0.732289,-0.0486571,9.77563,-0.0657601,0.208251,0.980478,-0.00732443,-0.000493149,0.0977562,1,3.23151e-05,-7.95342e-06,1.77417e-05,0.00646301,-0.00159068,0.00354833,0.999348,0.000726066,0.036074,0.00136338,0.180357,-0.268906,-0.966389,32.0625,1,7637,807956
35,7,0.999348,0.000726066,0.036074,0.00136338,-0.732289,-0.0486571,9.77563,-0.0657601,0.208251,0.980478,-0.00732443,-0.000493149,0.0977562,1,3.23151e-05,-7.95342e-06,1.77417e-05,0.00646301,-0.00159068,0.00354833,0.999348,0.000726066,0.036074,0.00136338,0.180357,-0.268906,-0.966389,32.0625,1,7637,807956
35,8,0.999348,0.000745225,0.0360785,0.00138043,-0.729543,-0.0563407,9.78775,-0.063117,0.196482,0.988348,-0.00729603,-0.000570119,0.0978774,1,3.27657e-05,-3.20374e-06,2.04036e-05,0.00655314,-0.000640747,0.00408072,0.999348,0.000745225,0.0360785,0.00138043,0.17957,-0.271436,-0.960886,32.0625,1,7638,808056
36,1,0.999348,0.000745225,0.0360785,0.00138043,-0.729543,-0.0563407,9.78775,-0.063117,0.196482,0.988348,-0.00729603,-0.000570119,0.0978774,1,3.27657e-05,-3.20374e-06,2.04036e-05,0.00655314,-0.000640747,0.00408072,0.999348,0.000745225,0.0360785,0.00138043,0.17957,-0.271436,-0.960886,32.0625,1,7638,808056
36,2,0.999348,0.000745225,0.0360785,0.00138043,-0.729543,-0.0563407,9.78775,-0.063117,0.196482,0.988348,-0.00729603,-0.000570119,0.0978774,1,3.27657e-05,-3.20374e-06,2.04036e-05,0.00655314,-0.000640747,0.00408072,0.999348,0.000745225,0.0360785,0.00138043,0.17957,-0.271436,-0.960886,32.0625,1,7638,808056
36,3,0.999348,0.000768913,0.0360756,0.00139623,-0.724114,-0.0465114,9.77729,-0.059161,0.205215,0.974417,-0.00724325,-0.000472733,0.0977727,1,3.74988e-05,-1.08462e-05,1.97477e-05,0.00749976,-0.00216925,0.00394954,0.999348,0.000768913,0.0360756,0.00139623,0.176724,-0.275296,-0.961969,32.0625,1,7639,808156
36,4,0.999348,0.000768913,0.0360756,0.00139623,-0.724114,-0.0465114,9.77729,-0.059161,0.205215,0.974417,-0.00724325,-0.000472733,0.0977727,1,3.74988e-05,-1.08462e-05,1.97477e-05,0.00749976,-0.00216925,0.00394954,0.999348,0.000768913,0.0360756,0.00139623,0.176724,-0.275296,-0.961969,32.0625,1,7639,808156
36,5,0.999348,0.000768913,0.0360756,0.00139623,-0.724114,-0.0465114,9.77729,-0.059161,0.205215,0.974417,-0.00724325,-0.000472733,0.0977727,1,3.74988e-05,-1.08462e-05,1.97477e-05,0.00749976,-0.00216925,0.00394954,0.999348,0.000768913,0.0360756,0.00139623,0.176724,-0.275296,-0.961969,32.0625,1,7639,808156
36,6,0.999348,0.000772474,0.0360773,0.00140962,-0.740012,-0.0584804,9.7834,-0.0751172,0.190055,0.978049,-0.00740135,-0.000588667,0.0978339,1,1.84234e-05,-6.35896e-06,1.74754e-05,0.00368468,-0.00127179,0.00349508,0.999348,0.000772474,0.0360773,0.00140962,0.179025,-0.278613,-0.968619,32.0625,1,7640,808256
36,7,0.999348,0.000772474,0.0360773,0.00140962,-0.740012,-0.0584804,9.7834,-0.0751172,0.190055,0.978049,-0.00740135,-0.000588667,0.0978339,1,1.84234e-05,-6.35896e-06,1.74754e-05,0.00368468,-0.00127179,0.00349508,0.999348,0.000772474,0.0360773,0.00140962,0.179025,-0.278613,-0.968619,32.0625,1,7640,808256
36,8,0.999348,0.000772474,0.0360773,0.00140962,-0.740012,-0.0584804,9.7834,-0.0751172,0.190055,0.978049,-0.00740135,-0.000588667,0.0978339,1,1.84234e-05,-6.35896e-06,1.74754e-05,0.00368468,-0.00127179,0.00349508,0.999348,0.000772474,0.0360773,0.00140962,0.179025,-0.278613,-0.968619,32.0625,1,7640,808256
37,1,0.999348,0.000798552,0.0360809,0.00141477,-0.721436,-0.0448001,9.78306,-0.0537561,0.20855,0.972955,-0.00721539,-0.0004566,0.0978304,1,4.29861e-05,-5.3012e-06,1.29845e-05,0.00859722,-0.00106024,0.00259691,0.999348,0.000798552,0.0360809,0.00141477,0.180794,-0.276588,-0.973633,32.0625,1,7641,808356
37,2,0.999348,0.000798552,0.0360809,0.00141477,-0.721436,-0.0448001,9.78306,-0.0537561,0.20855,0.972955,-0.00721539,-0.0004566,0.0978304,1,4.29861e-05,-5.3012e-06,1.29845e-05,0.00859722,-0.00106024,0.00259691,0.999348,0.000798552,0.0360809,0.00141477,0.180794,-0.276588,-0.973633,32.0625,1,7641,808356
37,3,0.999348,0.000798552,0.0360809,0.00141477,-0.721436,-0.0448001,9.78306,-0.0537561,0.20855,0.972955,-0.00721539,-0.0004566,0.0978304,1,4.29861e-05,-5.3012e-06,1.29845e-05,0.00859722,-0.00106024,0.00259691,0.999348,0.000798552,0.0360809,0.00141477,0.180794,-0.276588,-0.973633,32.0625,1,7641,808356
37,4,0.999348,0.000817133,0.0360752,0.00143068,-0.732235,-0.0460025,9.78176,-0.0614461,0.211888,0.976607,-0.00732518,-0.000467199,0.0978174,1,3.49953e-05,-1.45866e-05,2.2348e-05,0.00699906,-0.00291733,0.0044696,0.999348,0.000817133,0.0360752,0.00143068,0.181737,-0.271763,-0.971005,32.0625,1,7642,808456
37,5,0.999348,0.000817133,0.0360752,0.00143068,-0.732235,-0.0460025,9.78176,-0.0614461,0.211888,0.976607,-0.00732518,-0.000467199,0.0978174,1,3.49953e-05,-1.45866e-05,2.2348e-05,0.00699906,-0.00291733,0.0044696,0.999348,0.000817133,0.0360752,0.00143068,0.181737,-0.271763,-0.971005,32.0625,1,7642,808456
37,6,0.999348,0.000817133,0.0360752,0.00143068,-0.732235,-0.0460025,9.78176,-0.0614461,0.211888,0.976607,-0.00732518,-0.000467199,0.0978174,1,3.49953e-05,-1.45866e-05,2.2348e-05,0.00699906,-0.00291733,0.0044696,0.999348,0.000817133,0.0360752,0.00143068,0.181737,-0.271763,-0.971005,32.0625,1,7642,808456
37,7,0.999347,0.000850435,0.0360845,0.00143722,-0.742494,-0.0571379,9.78139,-0.0775294,0.194005,0.990756,-0.00742469,-0.000581106,0.0978139,1,4.89038e-05,1.22535e-06,1.08127e-05,0.00978075,0.000245071,0.00216254,0.999347,0.000850435,0.0360845,0.00143722,0.181804,-0.268439,-0.965881,32.0625,1,7643,808556
37,8,0.999347,0.000850435,0.0360845,0.00143722,-0.742494,-0.0571379,9.78139,-0.0775294,0.194005,0.990756,-0.00742469,-0.000581106,0.0978139,1,4.89038e-05,1.22535e-06,1.08127e-05,0.00978075,0.000245071,0.00216254,0.999347,0.000850435,0.0360845,0.00143722,0.181804,-0.268439,-0.965881,32.0625,1,7643,808556
38,1,0.999347,0.000850435,0.0360845,0.00143722,-0.742494,-0.0571379,9.78139,-0.0775294,0.194005,0.990756,-0.00742469,-0.000581106,0.0978139,1,4.89038e-05,1.22535e-06,1.08127e-05,0.00978075,0.000245071,0.00216254,0.999347,0.000850435,0.0360845,0.00143722,0.181804,-0.268439,-0.965881,32.0625,1,7643,808556
38,2,0.999347,0.000890184,0.0360827,0.00145487,-0.730221,-0.049224,9.77901,-0.0661573,0.198942,0.977354,-0.00730415,-0.000503256,0.0977898,1,5.46742e-05,-1.00136e-05,2.20816e-05,0.0109348,-0.00200271,0.00441632,0.999347,0.000890184,0.0360827,0.00145487,0.179089,-0.271432,-0.960884,32.0625,1,7644,808656
38,3,0.999347,0.000890184,0.0360827,0.00145487,-0.730221,-0.049224,9.77901,-0.0661573,0.198942,0.977354,-0.00730415,-0.000503256,0.0977898,1,5.46742e-05,-1.00136e-05,2.20816e-05,0.0109348,-0.00200271,0.00441632,0.999347,0.000890184,0.0360827,0.00145487,0.179089,-0.271432,-0.960884,32.0625,1,7644,808656
38,4,0.999347,0.000890184,0.0360827,0.00145487,-0.730221,-0.049224,9.77901,-0.0661573,0.198942,0.977354,-0.00730415,-0.000503256,0.0977898,1,5.46742e-05,-1.00136e-05,2.20816e-05,0.0109348,-0.00200271,0.00441632,0.999347,0.000890184,0.0360827,0.00145487,0.179089,-0.271432,-0.960884,32.0625,1,7644,808656
38,5,0.999347,0.000924306,0.0360818,0.00146686,-0.731269,-0.0458708,9.78277,-0.061161,0.204993,0.979715,-0.00731441,-0.000468645,0.0978275,1,4.95277e-05,-8.88483e-06,1.687e-05,0.00990554,-0.00177697,0.00337401,0.999347,0.000924306,0.0360818,0.00146686,0.178138,-0.277214,-0.964544,32.0625,1,7645,808756
38,6,0.999347,0.000924306,0.0360818,0.00146686,-0.731269,-0.0458708,9.78277,-0.061161,0.204993,0.979715,-0.00731441,-0.000468645,0.0978275,1,4.95277e-05,-8.88483e-06,1.687e-05,0.00990554,-0.00177697,0.00337401,0.999347,0.000924306,0.0360818,0.00146686,0.178138,-0.277214,-0.964544,32.0625,1,7645,808756
38,7,0.999347,0.000924306,0.0360818,0.00146686,-0.731269,-0.0458708,9.78277,-0.061161,0.204993,0.979715,-0.00731441,-0.000468645,0.0978275,1,4.95277e-05,-8.88483e-06,1.687e-05,0.00990554,-0.00177697,0.00337401,0.999347,0.000924306,0.0360818,0.00146686,0.178138,-0.277214,-0.964544,32.0625,1,7645,808756
38,8,0.999347,0.000955076,0.0360847,0.00148517,-0.740671,-0.0531196,9.78956,-0.0740649,0.194935,0.981186,-0.00740785,-0.000540833,0.0978954,1,4.73522e-05,-5.95296e-06,2.46614e-05,0.00947044,-0.00119059,0.00493228,0.999347,0.000955076,0.0360847,0.00148517,0.180431,-0.280043,-0.971183,32.0625,1,7646,808856
39,1,0.999347,0.000955076,0.0360847,0.00148517,-0.740671,-0.0531196,9.78956,-0.0740649,0.194935,0.981186,-0.00740785,-0.000540833,0.0978954,1,4.73522e-05,-5.95296e-06,2.46614e-05,0.00947044,-0.00119059,0.00493228,0.999347,0.000955076,0.0360847,0.00148517,0.180431,-0.280043,-0.971183,32.0625,1,7646,808856
39,2,0.999347,0.000955076,0.0360847,0.00148517,-0.740671,-0.0531196,9.78956,-0.0740649,0.194935,0.981186,-0.00740785,-0.000540833,0.0978954,1,4.73522e-05,-5.95296e-06,2.46614e-05,0.00947044,-0.00119059,0.00493228,0.999347,0.000955076,0.0360847,0.00148517,0.180431,-0.280043,-0.971183,32.0625,1,7646,808856
39,3,0.999347,0.000981333,0.0360833,0.00149519,-0.727878,-0.0461447,9.78071,-0.0601378,0.205695,0.977667,-0.00728081,-0.000470342,0.0978069,1,4.40999e-05,-1.04699e-05,1.84273e-05,0.00881999,-0.00209399,0.00368546,0.999347,0.000981333,0.0360833,0.00149519,0.180835,-0.277581,-0.972645,32.0625,1,7647,808956
39,4,0.999347,0.000981333,0.0360833,0.00149519,-0.727878,-0.0461447,9.78071,-0.0601378,0.205695,0.977667,-0.00728081,-0.000470342,0.0978069,1,4.40999e-05,-1.04699e-05,1.84273e-05,0.00881999,-0.00209399,0.00368546,0.999347,0.000981333,0.0360833,0.00149519,0.180835,-0.277581,-0.972645,32.0625,1,7647,808956
39,5,0.999347,0.000981333,0.0360833,0.00149519,-0.727878,-0.0461447,9.78071,-0.0601378,0.205695,0.977667,-0.00728081,-0.000470342,0.0978069,1,4.40999e-05,-1.04699e-05,1.84273e-05,0.00881999,-0.00209399,0.00368546,0.999347,0.000981333,0.0360833,0.00149519,0.180835,-0.277581,-0.972645,32.0625,1,7647,808956
39,6,0.999347,0.00100932,0.0360853,0.00150306,-0.732573,-0.0550793,9.78203,-0.0630591,0.194922,0.983731,-0.00732704,-0.000559875,0.0978201,1,4.53535e-05,-6.80789e-06,1.42829e-05,0.00907071,-0.00136158,0.00285657,0.999347,0.00100932,0.0360853,0.00150306,0.180331,-0.273223,-0.970526,32.0625,1,7648,809056
39,7,0.999347,0.00100932,0.0360853,0.00150306,-0.732573,-0.0550793,9.78203,-0.0630591,0.194922,0.983731,-0.00732704,-0.000559875,0.0978201,1,4.53535e-05,-6.80789e-06,1.42829e-05,0.00907071,-0.00136158,0.00285657,0.999347,0.00100932,0.0360853,0.00150306,0.180331,-0.273223,-0.970526,32.0625,1,7648,809056
39,8,0.999347,0.00100932,0.0360853,0.00150306,-0.732573,-0.0550793,9.78203,-0.0630591,0.194922,0.983731,-0.00732704,-0.000559875,0.0978201,1,4.53535e-05,-6.80789e-06,1.42829e-05,0.00907071,-0.00136158,0.00285657,0.999347,0.00100932,0.0360853,0.00150306,0.180331,-0.273223,-0.970526,32.0625,1,7648,809056
40,1,0.999347,0.00103848,0.0360856,0.00152692,-0.736561,-0.0558787,9.78646,-0.0703946,0.194397,0.989455,-0.00736713,-0.000568069,0.0978644,1,4.53741e-05,-7.91616e-06,2.72671e-05,0.00907482,-0.00158323,0.00545342,0.999347,0.00103848,0.0360856,0.00152692,0.180846,-0.267952,-0.96536,32.0625,1,7649,809156
40,2,0.999347,0.00103848,0.0360856,0.00152692,-0.736561,-0.0558787,9.78646,-0.0703946,0.194397,0.989455,-0.00736713,-0.000568069,0.0978644,1,4.53741e-05,-7.91616e-06,2.72671e-05,0.00907482,-0.00158323,0.00545342,0.999347,0.00103848,0.0360856,0.00152692,0.180846,-0.267952,-0.96536,32.0625,1,7649,809156
40,3,0.999347,0.00103848,0.0360856,0.00152692,-0.736561,-0.0558787,9.78646,-0.0703946,0.194397,0.989455,-0.00736713,-0.000568069,0.0978644,1,4.53741e-05,-7.91616e-06,2.72671e-05,0.00907482,-0.00158323,0.00545342,0.999347,0.00103848,0.0360856,0.00152692,0.180846,-0.267952,-0.96536,32.0625,1,7649,809156
40,4,0.999347,0.00106253,0.0360808,0.00153434,-0.731132,-0.046674,9.78753,-0.0668202,0.200895,0.985774,-0.0073139,-0.000474854,0.097875,1,4.06056e-05,-1.32138e-05,1.13061e-05,0.00812113,-0.00264276,0.00226121,0.999347,0.00106253,0.0360808,0.00153434,0.18099,-0.269984,-0.960861,32.0625,1,7650,809256
40,5,0.999347,0.00106253,0.0360808,0.00153434,-0.731132,-0.046674,9.78753,-0.0668202,0.200895,0.985774,-0.0073139,-0.000474854,0.097875,1,4.06056e-05,-1.32138e-05,1.13061e-05,0.00812113,-0.00264276,0.00226121,0.999347,0.00106253,0.0360808,0.00153434,0.18099,-0.269984,-0.960861,32.0625,1,7650,809256
40,6,0.999347,0.00106253,0.0360808,0.00153434,-0.731132,-0.046674,9.78753,-0.0668202,0.200895,0.985774,-0.0073139,-0.000474854,0.097875,1,4.06056e-05,-1.32138e-05,1.13061e-05,0.00812113,-0.00264276,0.00226121,0.999347,0.00106253,0.0360808,0.00153434,0.18099,-0.269984,-0.960861,32.0625,1,7650,809256
40,7,0.999347,0.00108442,0.0360823,0.00154066,-0.741102,-0.0481655,9.78384,-0.0736279,0.193702,0.982377,-0.00741234,-0.000489499,0.0978382,1,3.92366e-05,-6.81913e-06,1.12671e-05,0.00784733,-0.00136383,0.00225342,0.999347,0.00108442,0.0360823,0.00154066,0.178586,-0.276712,-0.965545,32.0625,1,7651,809356
40,8,0.999347,0.00108442,0.0360823,0.00154066,-0.741102,-0.0481655,9.78384,-0.0736279,0.193702,0.982377,-0.00741234,-0.000489499,0.0978382,1,3.92366e-05,-6.81913e-06,1.12671e-05,0.00784733,-0.00136383,0.00225342,0.999347,0.00108442,0.0360823,0.00154066,0.178586,-0.276712,-0.965545,32.0625,1,7651,809356
41,1,0.999347,0.00108442,0.0360823,0.00154066,-0.741102,-0.0481655,9.78384,-0.0736279,0.193702,0.982377,-0.00741234,-0.000489499,0.0978382,1,3.92366e-05,-6.81913e-06,1.12671e-05,0.00784733,-0.00136383,0.00225342,0.999347,0.00108442,0.0360823,0.00154066,0.178586,-0.276712,-0.965545,32.0625,1,7651,809356
41,2,0.999347,0.00110905,0.0360709,0.00156128,-0.740545,-0.060413,9.78069,-0.0745481,0.181303,0.976855,-0.0074094,-0.000612866,0.0978065,1,4.25763e-05,-2.03703e-05,2.75185e-05,0.00851526,-0.00407406,0.0055037,0.999347,0.00110905,0.0360709,0.00156128,0.179934,-0.279064,-0.971159,32.0625,1,7652,809456
41,3,0.999347,0.00110905,0.0360709,0.00156128,-0.740545,-0.060413,9.78069,-0.0745481,0.181303,0.976855,-0.0074094,-0.000612866,0.0978065,1,4.25763e-05,-2.03703e-05,2.75185e-05,0.00851526,-0.00407406,0.0055037,0.999347,0.00110905,0.0360709,0.00156128,0.179934,-0.279064,-0.971159,32.0625,1,7652,809456
41,4,0.999347,0.00110905,0.0360709,0.00156128,-0.740545,-0.060413,9.78069,-0.0745481,0.181303,0.976855,-0.0074094,-0.000612866,0.0978065,1,4.25763e-05,-2.03703e-05,2.75185e-05,0.00851526,-0.00407406,0.0055037,0.999347,0.00110905,0.0360709,0.00156128,0.179934,-0.279064,-0.971159,32.0625,1,7652,809456
41,5,0.999347,0.0011236,0.036073,0.00156803,-0.734594,-0.0515148,9.78749,-0.0660364,0.194332,0.987446,-0.00734734,-0.000521935,0.0978748,1,3.35965e-05,-7.20673e-06,1.43126e-05,0.0067193,-0.00144135,0.00286252,0.999347,0.0011236,0.036073,0.00156803,0.180753,-0.275594,-0.974621,32.0625,1,7653,809556
41,6,0.999347,0.0011236,0.036073,0.00156803,-0.734594,-0.0515148,9.78749,-0.0660364,0.194332,0.987446,-0.00734734,-0.000521935,0.0978748,1,3.35965e-05,-7.20673e-06,1.43126e-05,0.0067193,-0.00144135,0.00286252,0.999347,0.0011236,0.036073,0.00156803,0.180753,-0.275594,-0.974621,32.0625,1,7653,809556
41,7,0.999347,0.0011236,0.036073,0.00156803,-0.734594,-0.0515148,9.78749,-0.0660364,0.194332,0.987446,-0.00734734,-0.000521935,0.0978748,1,3.35965e-05,-7.20673e-06,1.43126e-05,0.0067193,-0.00144135,0.00286252,0.999347,0.0011236,0.036073,0.00156803,0.180753,-0.275594,-0.974621,32.0625,1,7653,809556
41,8,0.999347,0.00114899,0.0360716,0.00157918,-0.734204,-0.0606433,9.78267,-0.0717769,0.190598,0.984716,-0.0073441,-0.000615303,0.0978264,1,4.40236e-05,-1.06302e-05,1.75276e-05,0.00880471,-0.00212603,0.00350552,0.999347,0.00114899,0.0360716,0.00157918,0.182182,-0.270295,-0.971479,32.0625,1,7654,809656
42,1,0.999347,0.00114899,0.0360716,0.00157918,-0.734204,-0.0606433,9.78267,-0.0717769,0.190598,0.984716,-0.0073441,-0.000615303,0.0978264,1,4.40236e-05,-1.06302e-05,1.75276e-05,0.00880471,-0.00212603,0.00350552,0.999347,0.00114899,0.0360716,0.00157918,0.182182,-0.270295,-0.971479,32.0625,1,7654,809656
42,2,0.999347,0.00114899,0.0360716,0.00157918,-0.734204,-0.0606433,9.78267,-0.0717769,0.190598,0.984716,-0.0073441,-0.000615303,0.0978264,1,4.40236e-05,-1.06302e-05,1.75276e-05,0.00880471,-0.00212603,0.00350552,0.999347,0.00114899,0.0360716,0.00157918,0.182182,-0.270295,-0.971479,32.0625,1,7654,809656
42,3,0.999347,0.0011689,0.0360634,0.00161361,-0.734156,-0.0566001,9.78067,-0.0658318,0.186429,0.985292,-0.00734482,-0.000573864,0.0978064,1,3.72492e-05,-1.69e-05,3.9244e-05,0.00744983,-0.00338,0.0078488,0.999347,0.0011689,0.0360634,0.00161361,0.182298,-0.268452,-0.965378,32.0625,1,7655,809756
42,4,0.999347,0.0011689,0.0360634,0.00161361,-0.734156,-0.0566001,9.78067,-0.0658318,0.186429,0.985292,-0.00734482,-0.000573864,0.0978064,1,3.72492e-05,-1.69e-05,3.9244e-05,0.00744983,-0.00338,0.0078488,0.999347,0.0011689,0.0360634,0.00161361,0.182298,-0.268452,-0.965378,32.0625,1,7655,809756
42,5,0.999347,0.0011689,0.0360634,0.00161361,-0.734156,-0.0566001,9.78067,-0.0658318,0.186429,0.985292,-0.00734482,-0.000573864,0.0978064,1,3.72492e-05,-1.69e-05,3.9244e-05,0.00744983,-0.00338,0.0078488,0.999347,0.0011689,0.0360634,0.00161361,0.182298,-0.268452,-0.965378,32.0625,1,7655,809756
42,6,0.999348,0.00117919,0.0360579,0.00161679,-0.730866,-0.0532238,9.78372,-0.0667979,0.185345,0.986861,-0.00731143,-0.000537999,0.097837,1,2.88654e-05,-1.42231e-05,7.73207e-06,0.00577308,-0.00284462,0.00154641,0.999348,0.00117919,0.0360579,0.00161679,0.180055,-0.272406,-0.961415,32.125,1,7656,809856
42,7,0.999348,0.00117919,0.0360579,0.00161679,-0.730866,-0.0532238,9.78372,-0.0667979,0.185345,0.986861,-0.00731143,-0.000537999,0.097837,1,2.88654e-05,-1.42231e-05,7.73207e-06,0.00577308,-0.00284462,0.00154641,0.999348,0.00117919,0.0360579,0.00161679,0.180055,-0.272406,-0.961415,32.125,1,7656,809856
42,8,0.999348,0.00117919,0.0360579,0.00161679,-0.730866,-0.0532238,9.78372,-0.0667979,0.185345,0.986861,-0.00731143,-0.000537999,0.097837,1,2.88654e-05,-1.42231e-05,7.73207e-06,0.00577308,-0.00284462,0.00154641,0.999348,0.00117919,0.0360579,0.00161679,0.180055,-0.272406,-0.961415,32.125,1,7656,809856
43,1,0.999348,0.0011985,0.0360544,0.00162755,-0.733191,-0.0536848,9.78604,-0.0663821,0.190637,0.984049,-0.0073343,-0.000544525,0.0978602,1,3.79998e-05,-1.22899e-05,1.63913e-05,0.00759996,-0.00245798,0.00327825,0.999348,0.0011985,0.0360544,0.00162755,0.177648,-0.276722,-0.96453,32.125,1,7657,809956
43,2,0.999348,0.0011985,0.0360544,0.00162755,-0.733191,-0.0536848,9.78604,-0.0663821,0.190637,0.984049,-0.0073343,-0.000544525,0.0978602,1,3.79998e-05,-1.22899e-05,1.63913e-05,0.00759996,-0.00245798,0.00327825,0.999348,0.0011985,0.0360544,0.00162755,0.177648,-0.276722,-0.96453,32.125,1,7657,809956
43,3,0.999348,0.0011985,0.0360544,0.00162755,-0.733191,-0.0536848,9.78604,-0.0663821,0.190637,0.984049,-0.0073343,-0.000544525,0.0978602,1,3.79998e-05,-1.22899e-05,1.63913e-05,0.00759996,-0.00245798,0.00327825,0.999348,0.0011985,0.0360544,0.00162755,0.177648,-0.276722,-0.96453,32.125,1,7657,809956
43,4,0.999348,0.00122625,0.0360476,0.00164316,-0.745835,-0.0433394,9.78181,-0.0804257,0.198885,0.976107,-0.00746146,-0.000442897,0.0978178,1,4.69721e-05,-1.59649e-05,2.10087e-05,0.00939443,-0.00319298,0.00420175,0.999348,0.00122625,0.0360476,0.00164316,0.178511,-0.279548,-0.970658,32.125,1,7658,810056
43,5,0.999348,0.00122625,0.0360476,0.00164316,-0.745835,-0.0433394,9.78181,-0.0804257,0.198885,0.976107,-0.00746146,-0.000442897,0.0978178,1,4.69721e-05,-1.59649e-05,2.10087e-05,0.00939443,-0.00319298,0.00420175,0.999348,0.00122625,0.0360476,0.00164316,0.178511,-0.279548,-0.970658,32.125,1,7658,810056
43,6,0.999348,0.00122625,0.0360476,0.00164316,-0.745835,-0.0433394,9.78181,-0.0804257,0.198885,0.976107,-0.00746146,-0.000442897,0.0978178,1,4.69721e-05,-1.59649e-05,2.10087e-05,0.00939443,-0.00319298,0.00420175,0.999348,0.00122625,0.0360476,0.00164316,0.178511,-0.279548,-0.970658,32.125,1,7658,810056
43,7,0.999348,0.00124675,0.0360448,0.00166279,-0.735946,-0.0550216,9.7891,-0.069231,0.188788,0.987698,-0.00736186,-0.000558542,0.0978908,1,4.04659e-05,-1.24107e-05,2.74407e-05,0.00809317,-0.00248214,0.00548814,0.999348,0.00124675,0.0360448,0.00166279,0.17933,-0.276079,-0.97412,32.125,1,7659,810156
43,8,0.999348,0.00124675,0.0360448,0.00166279,-0.735946,-0.0550216,9.7891,-0.069231,0.188788,0.987698,-0.00736186,-0.000558542,0.0978908,1,4.04659e-05,-1.24107e-05,2.74407e-05,0.00809317,-0.00248214,0.00548814,0.999348,0.00124675,0.0360448,0.00166279,0.17933,-0.276079,-0.97412,32.125,1,7659,810156
44,1,0.999348,0.00124675,0.0360448,0.00166279,-0.735946,-0.0550216,9.7891,-0.069231,0.188788,0.987698,-0.00736186,-0.000558542,0.0978908,1,4.04659e-05,-1.24107e-05,2.74407e-05,0.00809317,-0.00248214,0.00548814,0.999348,0.00124675,0.0360448,0.00166279,0.17933,-0.276079,-0.97412,32.125,1,7659,810156
44,2,0.999349,0.00126181,0.0360306,0.00167315,-0.722269,-0.0457162,9.78232,-0.0562981,0.199275,0.983902,-0.00722727,-0.000464258,0.0978228,1,3.50514e-05,-2.35307e-05,1.64898e-05,0.00701028,-0.00470615,0.00329796,0.999349,0.00126181,0.0360306,0.00167315,0.181215,-0.270766,-0.97199,32.125,1,7660,810256
44,3,0.999349,0.00126181,0.0360306,0.00167315,-0.722269,-0.0457162,9.78232,-0.0562981,0.199275,0.983902,-0.00722727,-0.000464258,0.0978228,1,3.50514e-05,-2.35307e-05,1.64898e-05,0.00701028,-0.00470615,0.00329796,0.999349,0.00126181,0.0360306,0.00167315,0.181215,-0.270766,-0.97199,32.125,1,7660,810256
44,4,0.999349,0.00126181,0.0360306,0.00167315,-0.722269,-0.0457162,9.78232,-0.0562981,0.199275,0.983902,-0.00722727,-0.000464258,0.0978228,1,3.50514e-05,-2.35307e-05,1.64898e-05,0.00701028,-0.00470615,0.00329796,0.999349,0.00126181,0.0360306,0.00167315,0.181215,-0.270766,-0.97199,32.125,1,7660,810256
44,5,0.999349,0.00128245,0.036023,0.00168219,-0.733312,-0.0423389,9.77969,-0.0660282,0.201678,0.983412,-0.00733638,-0.000431459,0.0977966,1,4.01325e-05,-1.67082e-05,1.5052e-05,0.00802649,-0.00334164,0.0030104,0.999349,0.00128245,0.036023,0.00168219,0.179423,-0.268437,-0.964859,32.125,1,7661,810356
44,6,0.999349,0.00128245,0.036023,0.00168219,-0.733312,-0.0423389,9.77969,-0.0660282,0.201678,0.983412,-0.00733638,-0.000431459,0.0977966,1,4.01325e-05,-1.67082e-05,1.5052e-05,0.00802649,-0.00334164,0.0030104,0.999349,0.00128245,0.036023,0.00168219,0.179423,-0.268437,-0.964859,32.125,1,7661,810356
44,7,0.999349,0.00128245,0.036023,0.00168219,-0.733312,-0.0423389,9.77969,-0.0660282,0.201678,0.983412,-0.00733638,-0.000431459,0.0977966,1,4.01325e-05,-1.67082e-05,1.5052e-05,0.00802649,-0.00334164,0.0030104,0.999349,0.00128245,0.036023,0.00168219,0.179423,-0.268437,-0.964859,32.125,1,7661,810356
44,8,0.999349,0.00130631,0.0360252,0.00169055,-0.740807,-0.0465662,9.78683,-0.0764831,0.192963,0.988301,-0.00740936,-0.000474302,0.0978682,1,4.31482e-05,-6.67199e-06,1.30739e-05,0.00862963,-0.0013344,0.00261479,0.999349,0.00130631,0.0360252,0.00169055,0.178143,-0.272399,-0.960901,32.125,1,7662,810456
44,9,0.999349,0.00130631,0.0360252,0.00169055,-0.740807,-0.0465662,9.78683,-0.0764831,0.192963,0.988301,-0.00740936,-0.000474302,0.0978682,1,4.31482e-05,-6.67199e-06,1.30739e-05,0.00862963,-0.0013344,0.00261479,0.999349,0.00130631,0.0360252,0.00169055,0.178143,-0.272399,-0.960901,32.125,1,7662,810456
44,10,0.999349,0.00130631,0.0360252,0.00169055,-0.740807,-0.0465662,9.78683,-0.0764831,0.192963,0.988301,-0.00740936,-0.000474302,0.0978682,1,4.31482e-05,-6.67199e-06,1.30739e-05,0.00862963,-0.0013344,0.00261479,0.999349,0.00130631,0.0360252,0.00169055,0.178143,-0.272399,-0.960901,32.125,1,7662,810456
45,1,0.999349,0.00134961,0.0360258,0.00169587,-0.722773,-0.0529186,9.77953,-0.0596849,0.184063,0.97499,-0.00722936,-0.000541669,0.0977951,1,6.29258e-05,-8.39444e-06,1.21763e-05,0.0125852,-0.00167889,0.00243526,0.999349,0.00134961,0.0360258,0.00169587,0.177698,-0.276758,-0.962511,32.125,1,7663,810556
45,2,0.999349,0.00134961,0.0360258,0.00169587,-0.722773,-0.0529186,9.77953,-0.0596849,0.184063,0.97499,-0.00722936,-0.000541669,0.0977951,1,6.29258e-05,-8.39444e-06,1.21763e-05,0.0125852,-0.00167889,0.00243526,0.999349,0.00134961,0.0360258,0.00169587,0.177698,-0.276758,-0.962511,32.125,1,7663,810556
45,3,0.999349,0.00134961,0.0360258,0.00169587,-0.722773,-0.0529186,9.77953,-0.0596849,0.184063,0.97499,-0.00722936,-0.000541669,0.0977951,1,6.29258e-05,-8.39444e-06,1.21763e-05,0.0125852,-0.00167889,0.00243526,0.999349,0.00134961,0.0360258,0.00169587,0.177698,-0.276758,-0.962511,32.125,1,7663,810556
45,4,0.999349,0.00136865,0.036023,0.00170853,-0.729927,-0.0438055,9.78305,-0.0604531,0.194526,0.974453,-0.00730161,-0.000446048,0.0978303,1,3.93632e-05,-1.20555e-05,1.9906e-05,0.00787264,-0.00241109,0.0039812,0.999349,0.00136865,0.036023,0.00170853,0.177578,-0.27908,-0.969128,32.125,1,7664,810656
45,5,0.999349,0.00136865,0.036023,0.00170853,-0.729927,-0.0438055,9.78305,-0.0604531,0.194526,0.974453,-0.00730161,-0.000446048,0.0978303,1,3.93632e-05,-1.20555e-05,1.9906e-05,0.00787264,-0.00241109,0.0039812,0.999349,0.00136865,0.036023,0.00170853,0.177578,-0.27908,-0.969128,32.125,1,7664,810656
45,6,0.999349,0.00136865,0.036023,0.00170853,-0.729927,-0.0438055,9.78305,-0.0604531,0.194526,0.974453,-0.00730161,-0.000446048,0.0978303,1,3.93632e-05,-1.20555e-05,1.9906e-05,0.00787264,-0.00241109,0.0039812,0.999349,0.00136865,0.036023,0.00170853,0.177578,-0.27908,-0.969128,32.125,1,7664,810656
45,7,0.999348,0.00137961,0.0360304,0.00171352,-0.744155,-0.052735,9.78544,-0.0774526,0.187937,0.979535,-0.007442,-0.000533964,0.0978543,1,3.2818e-05,-2.37676e-06,1.28186e-05,0.0065636,-0.000475352,0.00256372,0.999348,0.00137961,0.0360304,0.00171352,0.179803,-0.27704,-0.975154,32.125,1,7665,810756
45,8,0.999348,0.00137961,0.0360304,0.00171352,-0.744155,-0.052735,9.78544,-0.0774526,0.187937,0.979535,-0.007442,-0.000533964,0.0978543,1,3.2818e-05,-2.37676e-06,1.28186e-05,0.0065636,-0.000475352,0.00256372,0.999348,0.00137961,0.0360304,0.00171352,0.179803,-0.27704,-0.975154,32.125,1,7665,810756
45,9,0.999348,0.00137961,0.0360304,0.00171352,-0.744155,-0.052735,9.78544,-0.0774526,0.187937,0.979535,-0.007442,-0.000533964,0.0978543,1,3.2818e-05,-2.37676e-06,1.28186e-05,0.0065636,-0.000475352,0.00256372,0.999348,0.00137961,0.0360304,0.00171352,0.179803,-0.27704,-0.975154,32.125,1,7665,810756
45,10,0.999348,0.00140387,0.0360339,0.00170976,-0.747518,-0.0522934,9.7892,-0.0808476,0.193753,0.990236,-0.00747641,-0.000532106,0.0978918,1,4.65214e-05,-6.28456e-06,4.24863e-06,0.00930429,-0.00125691,0.000849726,0.999348,0.00140387,0.0360339,0.00170976,0.181733,-0.272242,-0.97152,32.125,1,7666,810856
46,1,0.999348,0.00140387,0.0360339,0.00170976,-0.747518,-0.0522934,9.7892,-0.0808476,0.193753,0.990236,-0.00747641,-0.000532106,0.0978918,1,4.65214e-05,-6.28456e-06,4.24863e-06,0.00930429,-0.00125691,0.000849726,0.999348,0.00140387,0.0360339,0.00170976,0.181733,-0.272242,-0.97152,32.125,1,7666,810856
46,2,0.999348,0.00140387,0.0360339,0.00170976,-0.747518,-0.0522934,9.7892,-0.0808476,0.193753,0.990236,-0.00747641,-0.000532106,0.0978918,1,4.65214e-05,-6.28456e-06,4.24863e-06,0.00930429,-0.00125691,0.000849726,0.999348,0.00140387,0.0360339,0.00170976,0.181733,-0.272242,-0.97152,32.125,1,7666,810856
46,3,0.999348,0.0014262,0.0360309,0.00172918,-0.743064,-0.0611729,9.78604,-0.072018,0.176695,0.990305,-0.00743299,-0.000620378,0.0978602,1,4.23061e-05,-1.22075e-05,2.48164e-05,0.00846122,-0.0024415,0.00496328,0.999348,0.0014262,0.0360309,0.00172918,0.180862,-0.268928,-0.965382,32.125,1,7667,810956
46,4,0.999348,0.0014262,0.0360309,0.00172918,-0.743064,-0.0611729,9.78604,-0.072018,0.176695,0.990305,-0.00743299,-0.000620378,0.0978602,1,4.23061e-05,-1.22075e-05,2.48164e-05,0.00846122,-0.0024415,0.00496328,0.999348,0.0014262,0.0360309,0.00172918,0.180862,-0.268928,-0.965382,32.125,1,7667,810956
46,5,0.999348,0.0014262,0.0360309,0.00172918,-0.743064,-0.0611729,9.78604,-0.072018,0.176695,0.990305,-0.00743299,-0.000620378,0.0978602,1,4.23061e-05,-1.22075e-05,2.48164e-05,0.00846122,-0.0024415,0.00496328,0.999348,0.0014262,0.0360309,0.00172918,0.180862,-0.268928,-0.965382,32.125,1,7667,810956
46,6,0.999348,0.00144777,0.0360442,0.00174954,-0.731099,-0.0429058,9.78339,-0.0633449,0.190786,0.984813,-0.00731017,-0.000437518,0.097834,1,4.13358e-05,4.07402e-06,2.54159e-05,0.00826715,0.000814804,0.00508318,0.999348,0.00144777,0.0360442,0.00174954,0.180072,-0.271936,-0.960395,32.125,1,7668,811056
46,7,0.999348,0.00144777,0.0360442,0.00174954,-0.731099,-0.0429058,9.78339,-0.0633449,0.190786,0.984813,-0.00731017,-0.000437518,0.097834,1,4.13358e-05,4.07402e-06,2.54159e-05,0.00826715,0.000814804,0.00508318,0.999348,0.00144777,0.0360442,0.00174954,0.180072,-0.271936,-0.960395,32.125,1,7668,811056
