frame_id,imu_idx,quat_w,quat_x,quat_y,quat_z,accel_x,accel_y,accel_z,free_accel_x,free_accel_y,free_accel_z,delta_v_x,delta_v_y,delta_v_z,delta_q_w,delta_q_x,delta_q_y,delta_q_z,rate_x,rate_y,rate_z,quat_w,quat_x,quat_y,quat_z,mag_x,mag_y,mag_z,temperature,status_byte,packet_counter,time_fine
2667,1,0.996297,0.0310745,0.028257,0.0750174,-0.725685,-0.0446157,9.79123,0.0297689,-1.1759,0.907315,-0.00725983,-0.000453949,0.0979121,1,3.9e-05,-1.52626e-05,1.06524e-05,0.0078,-0.00305253,0.00213049,0.996297,0.0310745,0.028257,0.0750174,0.0897318,0.341478,-0.980182,32.0625,3,15199,1565565
2667,2,0.996297,0.0310745,0.028257,0.0750174,-0.501461,-0.0240452,7.33101,0.0297689,-1.1759,0.907315,-0.00501524,-0.000240721,0.0733101,1,2.32825e-06,-4.30282e-06,-7.19722e-06,0.000465651,-0.000860565,-0.00143944,0.996297,0.0310745,0.028257,0.0750174,0.0146068,0.48433,-1.02161,32.25,1,22432,2290369
2667,3,0.996297,0.0310745,0.028257,0.0750174,-0.501461,-0.0240452,7.33101,0.0297689,-1.1759,0.907315,-0.00501524,-0.000240721,0.0733101,1,2.32825e-06,-4.30282e-06,-7.19722e-06,0.000465651,-0.000860565,-0.00143944,0.996297,0.0310745,0.028257,0.0750174,0.0146068,0.48433,-1.02161,32.25,1,22432,2290369
2667,4,0.996297,0.0310745,0.028257,0.0750174,-0.501461,-0.0240452,7.33101,0.0297689,-1.1759,0.907315,-0.00501524,-0.000240721,0.0733101,1,2.32825e-06,-4.30282e-06,-7.19722e-06,0.000465651,-0.000860565,-0.00143944,0.996297,0.0310745,0.028257,0.0750174,0.0146068,0.48433,-1.02161,32.25,1,22432,2290369
1,1,0.999416,-0.00161132,0.0341408,-4.86548e-05,-0.665349,-0.043637,9.79943,0.129662,-0.489796,1.0266,-0.00665447,-0.000441463,0.0979942,1,2.54325e-05,-5.04048e-06,8.13988e-06,0.0050865,-0.0010081,0.00162798,0.999416,-0.00161132,0.0341408,-4.86548e-05,0.0136493,0.486262,-1.02005,32.25,1,22433,2290469
1,2,0.999416,-0.00161132,0.0341408,-4.86548e-05,-0.665349,-0.043637,9.79943,0.129662,-0.489796,1.0266,-0.00665447,-0.000441463,0.0979942,1,2.54325e-05,-5.04048e-06,8.13988e-06,0.0050865,-0.0010081,0.00162798,0.999416,-0.00161132,0.0341408,-4.86548e-05,0.0136493,0.486262,-1.02005,32.25,1,22433,2290469
2,1,0.999416,-0.00161132,0.0341408,-4.86548e-05,-0.665349,-0.043637,9.79943,0.129662,-0.489796,1.0266,-0.00665447,-0.000441463,0.0979942,1,2.54325e-05,-5.04048e-06,8.13988e-06,0.0050865,-0.0010081,0.00162798,0.999416,-0.00161132,0.0341408,-4.86548e-05,0.0136493,0.486262,-1.02005,32.25,1,22433,2290469
2,2,0.999416,-0.00159139,0.0341289,-5.14048e-05,-0.69423,-0.0464212,9.784,0.0992256,-0.494454,1.00955,-0.00694371,-0.000470862,0.0978399,1,3.34661e-05,-7.23481e-06,7.30514e-06,0.00669323,-0.00144696,0.00146103,0.999416,-0.00159139,0.0341289,-5.14048e-05,0.0146239,0.486245,-1.01955,32.25,1,22434,2290569
3,1,0.999416,-0.00159139,0.0341289,-5.14048e-05,-0.69423,-0.0464212,9.784,0.0992256,-0.494454,1.00955,-0.00694371,-0.000470862,0.0978399,1,3.34661e-05,-7.23481e-06,7.30514e-06,0.00669323,-0.00144696,0.00146103,0.999416,-0.00159139,0.0341289,-5.14048e-05,0.0146239,0.486245,-1.01955,32.25,1,22434,2290569
3,2,0.999416,-0.00159139,0.0341289,-5.14048e-05,-0.69423,-0.0464212,9.784,0.0992256,-0.494454,1.00955,-0.00694371,-0.000470862,0.0978399,1,3.34661e-05,-7.23481e-06,7.30514e-06,0.00669323,-0.00144696,0.00146103,0.999416,-0.00159139,0.0341289,-5.14048e-05,0.0146239,0.486245,-1.01955,32.25,1,22434,2290569
12,1,0.999416,-0.00154847,0.0341231,-4.00254e-05,-0.689732,-0.0494081,9.79548,0.108004,-0.499366,1.01855,-0.00689847,-0.000502616,0.0979546,1,4.26509e-05,-5.9174e-06,1.30012e-05,0.00853018,-0.00118348,0.00260025,0.999416,-0.00154847,0.0341231,-4.00254e-05,0.0155861,0.486237,-1.01955,32.25,1,22435,2290669
12,2,0.999416,-0.00154847,0.0341231,-4.00254e-05,-0.689732,-0.0494081,9.79548,0.108004,-0.499366,1.01855,-0.00689847,-0.000502616,0.0979546,1,4.26509e-05,-5.9174e-06,1.30012e-05,0.00853018,-0.00118348,0.00260025,0.999416,-0.00154847,0.0341231,-4.00254e-05,0.0155861,0.486237,-1.01955,32.25,1,22435,2290669
10,1,0.999416,-0.00154847,0.0341231,-4.00254e-05,-0.689732,-0.0494081,9.79548,0.108004,-0.499366,1.01855,-0.00689847,-0.000502616,0.0979546,1,4.26509e-05,-5.9174e-06,1.30012e-05,0.00853018,-0.00118348,0.00260025,0.999416,-0.00154847,0.0341231,-4.00254e-05,0.0155861,0.486237,-1.01955,32.25,1,22435,2290669
10,2,0.999417,-0.00151138,0.0341215,-2.21032e-05,-0.68716,-0.0392618,9.79792,0.105034,-0.489965,1.02175,-0.0068719,-0.000400149,0.0979791,1,3.70759e-05,-1.62057e-06,1.92635e-05,0.00741519,-0.000324115,0.0038527,0.999417,-0.00151138,0.0341215,-2.21032e-05,0.0150803,0.486259,-1.02056,32.25,1,22436,2290769
14,1,0.999417,-0.00151138,0.0341215,-2.21032e-05,-0.68716,-0.0392618,9.79792,0.105034,-0.489965,1.02175,-0.0068719,-0.000400149,0.0979791,1,3.70759e-05,-1.62057e-06,1.92635e-05,0.00741519,-0.000324115,0.0038527,0.999417,-0.00151138,0.0341215,-2.21032e-05,0.0150803,0.486259,-1.02056,32.25,1,22436,2290769
14,2,0.999417,-0.00151138,0.0341215,-2.21032e-05,-0.68716,-0.0392618,9.79792,0.105034,-0.489965,1.02175,-0.0068719,-0.000400149,0.0979791,1,3.70759e-05,-1.62057e-06,1.92635e-05,0.00741519,-0.000324115,0.0038527,0.999417,-0.00151138,0.0341215,-2.21032e-05,0.0150803,0.486259,-1.02056,32.25,1,22436,2290769
15,1,0.999417,-0.00147564,0.0341092,-7.68483e-06,-0.659431,-0.0515938,9.78407,0.12855,-0.503303,1.00993,-0.00659657,-0.00052309,0.0978405,1,3.54724e-05,-1.16357e-05,1.60092e-05,0.00709448,-0.00232714,0.00320185,0.999417,-0.00147564,0.0341092,-7.68483e-06,0.013135,0.485327,-1.02209,32.25,1,22437,2290869
15,2,0.999417,-0.00147564,0.0341092,-7.68483e-06,-0.659431,-0.0515938,9.78407,0.12855,-0.503303,1.00993,-0.00659657,-0.00052309,0.0978405,1,3.54724e-05,-1.16357e-05,1.60092e-05,0.00709448,-0.00232714,0.00320185,0.999417,-0.00147564,0.0341092,-7.68483e-06,0.013135,0.485327,-1.02209,32.25,1,22437,2290869
16,1,0.999417,-0.00147564,0.0341092,-7.68483e-06,-0.659431,-0.0515938,9.78407,0.12855,-0.503303,1.00993,-0.00659657,-0.00052309,0.0978405,1,3.54724e-05,-1.16357e-05,1.60092e-05,0.00709448,-0.00232714,0.00320185,0.999417,-0.00147564,0.0341092,-7.68483e-06,0.013135,0.485327,-1.02209,32.25,1,22437,2290869
16,2,0.999418,-0.00143442,0.0340934,-5.22916e-07,-0.648121,-0.0539639,9.79483,0.147041,-0.509386,1.02036,-0.00648429,-0.000547695,0.097948,1,4.05684e-05,-1.57693e-05,8.33713e-06,0.00811367,-0.00315386,0.00166743,0.999418,-0.00143442,0.0340934,-5.22916e-07,0.0131962,0.483836,-1.0206,32.25,1,22438,2290969
16,3,0.999418,-0.00143442,0.0340934,-5.22916e-07,-0.648121,-0.0539639,9.79483,0.147041,-0.509386,1.02036,-0.00648429,-0.000547695,0.097948,1,4.05684e-05,-1.57693e-05,8.33713e-06,0.00811367,-0.00315386,0.00166743,0.999418,-0.00143442,0.0340934,-5.22916e-07,0.0131962,0.483836,-1.0206,32.25,1,22438,2290969
16,4,0.999418,-0.00143442,0.0340934,-5.22916e-07,-0.648121,-0.0539639,9.79483,0.147041,-0.509386,1.02036,-0.00648429,-0.000547695,0.097948,1,4.05684e-05,-1.57693e-05,8.33713e-06,0.00811367,-0.00315386,0.00166743,0.999418,-0.00143442,0.0340934,-5.22916e-07,0.0131962,0.483836,-1.0206,32.25,1,22438,2290969
17,1,0.999418,-0.00140566,0.0340863,-1.32426e-06,-0.666426,-0.0431942,9.78961,0.13018,-0.498161,1.01821,-0.00666563,-0.000437658,0.0978959,1,2.91635e-05,-7.01086e-06,4.30413e-07,0.0058327,-0.00140217,8.60825e-05,0.999418,-0.00140566,0.0340863,-1.32426e-06,0.0132043,0.483349,-1.02062,32.25,1,22439,2291069
17,2,0.999418,-0.00140566,0.0340863,-1.32426e-06,-0.666426,-0.0431942,9.78961,0.13018,-0.498161,1.01821,-0.00666563,-0.000437658,0.0978959,1,2.91635e-05,-7.01086e-06,4.30413e-07,0.0058327,-0.00140217,8.60825e-05,0.999418,-0.00140566,0.0340863,-1.32426e-06,0.0132043,0.483349,-1.02062,32.25,1,22439,2291069
17,3,0.999418,-0.00140566,0.0340863,-1.32426e-06,-0.666426,-0.0431942,9.78961,0.13018,-0.498161,1.01821,-0.00666563,-0.000437658,0.0978959,1,2.91635e-05,-7.01086e-06,4.30413e-07,0.0058327,-0.00140217,8.60825e-05,0.999418,-0.00140566,0.0340863,-1.32426e-06,0.0132043,0.483349,-1.02062,32.25,1,22439,2291069
17,4,0.999418,-0.0013603,0.0340908,5.00018e-06,-0.697398,-0.0405012,9.78136,0.0943659,-0.494773,1.01082,-0.0069732,-0.000413903,0.0978136,1,4.49866e-05,3.98065e-06,6.5281e-06,0.00899732,0.00079613,0.00130562,0.999418,-0.0013603,0.0340908,5.00018e-06,0.0151249,0.484299,-1.0201,32.25,1,22440,2291169
18,1,0.999418,-0.0013603,0.0340908,5.00018e-06,-0.697398,-0.0405012,9.78136,0.0943659,-0.494773,1.01082,-0.0069732,-0.000413903,0.0978136,1,4.49866e-05,3.98065e-06,6.5281e-06,0.00899732,0.00079613,0.00130562,0.999418,-0.0013603,0.0340908,5.00018e-06,0.0151249,0.484299,-1.0201,32.25,1,22440,2291169
18,2,0.999418,-0.0013603,0.0340908,5.00018e-06,-0.697398,-0.0405012,9.78136,0.0943659,-0.494773,1.01082,-0.0069732,-0.000413903,0.0978136,1,4.49866e-05,3.98065e-06,6.5281e-06,0.00899732,0.00079613,0.00130562,0.999418,-0.0013603,0.0340908,5.00018e-06,0.0151249,0.484299,-1.0201,32.25,1,22440,2291169
18,3,0.999418,-0.00133165,0.034083,2.6982e-05,-0.689382,-0.0515997,9.79037,0.10364,-0.504897,1.01661,-0.00689533,-0.0005217,0.0979036,1,2.75132e-05,-7.83596e-06,2.29179e-05,0.00550264,-0.00156719,0.00458358,0.999418,-0.00133165,0.034083,2.6982e-05,0.0165071,0.485777,-1.02159,32.25,1,22441,2291269
18,4,0.999418,-0.00133165,0.034083,2.6982e-05,-0.689382,-0.0515997,9.79037,0.10364,-0.504897,1.01661,-0.00689533,-0.0005217,0.0979036,1,2.75132e-05,-7.83596e-06,2.29179e-05,0.00550264,-0.00156719,0.00458358,0.999418,-0.00133165,0.034083,2.6982e-05,0.0165071,0.485777,-1.02159,32.25,1,22441,2291269
19,1,0.999418,-0.00133165,0.034083,2.6982e-05,-0.689382,-0.0515997,9.79037,0.10364,-0.504897,1.01661,-0.00689533,-0.0005217,0.0979036,1,2.75132e-05,-7.83596e-06,2.29179e-05,0.00550264,-0.00156719,0.00458358,0.999418,-0.00133165,0.034083,2.6982e-05,0.0165071,0.485777,-1.02159,32.25,1,22441,2291269
19,2,0.999419,-0.00130199,0.0340588,4.61415e-05,-0.667696,-0.0437943,9.77842,0.120095,-0.497466,1.00496,-0.00668172,-0.000444007,0.0977838,1,2.96271e-05,-2.44434e-05,2.01801e-05,0.00592543,-0.00488869,0.00403602,0.999419,-0.00130199,0.0340588,4.61415e-05,0.0164947,0.485786,-1.02209,32.25,1,22442,2291369
20,1,0.999419,-0.00130199,0.0340588,4.61415e-05,-0.667696,-0.0437943,9.77842,0.120095,-0.497466,1.00496,-0.00668172,-0.000444007,0.0977838,1,2.96271e-05,-2.44434e-05,2.01801e-05,0.00592543,-0.00488869,0.00403602,0.999419,-0.00130199,0.0340588,4.61415e-05,0.0164947,0.485786,-1.02209,32.25,1,22442,2291369
20,2,0.999419,-0.00130199,0.0340588,4.61415e-05,-0.667696,-0.0437943,9.77842,0.120095,-0.497466,1.00496,-0.00668172,-0.000444007,0.0977838,1,2.96271e-05,-2.44434e-05,2.01801e-05,0.00592543,-0.00488869,0.00403602,0.999419,-0.00130199,0.0340588,4.61415e-05,0.0164947,0.485786,-1.02209,32.25,1,22442,2291369
20,3,0.999419,-0.00124452,0.0340515,6.70041e-05,-0.652464,-0.0491841,9.78098,0.132914,-0.506882,1.00688,-0.00652613,-0.000503244,0.0978096,1,5.68069e-05,-7.72599e-06,2.22588e-05,0.0113614,-0.0015452,0.00445177,0.999419,-0.00124452,0.0340515,6.70041e-05,0.015002,0.485834,-1.0241,32.25,1,22443,2291469
20,4,0.999419,-0.00124452,0.0340515,6.70041e-05,-0.652464,-0.0491841,9.78098,0.132914,-0.506882,1.00688,-0.00652613,-0.000503244,0.0978096,1,5.68069e-05,-7.72599e-06,2.22588e-05,0.0113614,-0.0015452,0.00445177,0.999419,-0.00124452,0.0340515,6.70041e-05,0.015002,0.485834,-1.0241,32.25,1,22443,2291469
21,1,0.999419,-0.00124452,0.0340515,6.70041e-05,-0.652464,-0.0491841,9.78098,0.132914,-0.506882,1.00688,-0.00652613,-0.000503244,0.0978096,1,5.68069e-05,-7.72599e-06,2.22588e-05,0.0113614,-0.0015452,0.00445177,0.999419,-0.00124452,0.0340515,6.70041e-05,0.015002,0.485834,-1.0241,32.25,1,22443,2291469
21,2,0.999419,-0.00120663,0.0340514,8.27513e-05,-0.676658,-0.0523601,9.78043,0.116163,-0.509098,1.00841,-0.00676658,-0.000531109,0.0978043,1,3.71988e-05,-7.80593e-08,1.71439e-05,0.00743976,-1.56119e-05,0.00342878,0.999419,-0.00120663,0.0340514,8.27513e-05,0.014093,0.48484,-1.02261,32.25,1,22444,2291569
21,3,0.999419,-0.00120663,0.0340514,8.27513e-05,-0.676658,-0.0523601,9.78043,0.116163,-0.509098,1.00841,-0.00676658,-0.000531109,0.0978043,1,3.71988e-05,-7.80593e-08,1.71439e-05,0.00743976,-1.56119e-05,0.00342878,0.999419,-0.00120663,0.0340514,8.27513e-05,0.014093,0.48484,-1.02261,32.25,1,22444,2291569
21,4,0.999419,-0.00120663,0.0340514,8.27513e-05,-0.676658,-0.0523601,9.78043,0.116163,-0.509098,1.00841,-0.00676658,-0.000531109,0.0978043,1,3.71988e-05,-7.80593e-08,1.71439e-05,0.00743976,-1.56119e-05,0.00342878,0.999419,-0.00120663,0.0340514,8.27513e-05,0.014093,0.48484,-1.02261,32.25,1,22444,2291569
22,1,0.999419,-0.00116784,0.0340499,8.81987e-05,-0.686668,-0.0566913,9.79709,0.103811,-0.514505,1.02635,-0.00686699,-0.000574535,0.0979709,1,3.84189e-05,-1.62595e-06,6.91046e-06,0.00768378,-0.000325189,0.00138209,0.999419,-0.00116784,0.0340499,8.81987e-05,0.0141423,0.484804,-1.02059,32.25,1,22445,2291669
22,2,0.999419,-0.00116784,0.0340499,8.81987e-05,-0.686668,-0.0566913,9.79709,0.103811,-0.514505,1.02635,-0.00686699,-0.000574535,0.0979709,1,3.84189e-05,-1.62595e-06,6.91046e-06,0.00768378,-0.000325189,0.00138209,0.999419,-0.00116784,0.0340499,8.81987e-05,0.0141423,0.484804,-1.02059,32.25,1,22445,2291669
22,3,0.999419,-0.00116784,0.0340499,8.81987e-05,-0.686668,-0.0566913,9.79709,0.103811,-0.514505,1.02635,-0.00686699,-0.000574535,0.0979709,1,3.84189e-05,-1.62595e-06,6.91046e-06,0.00768378,-0.000325189,0.00138209,0.999419,-0.00116784,0.0340499,8.81987e-05,0.0141423,0.484804,-1.02059,32.25,1,22445,2291669
22,4,0.99942,-0.00112668,0.034035,9.91286e-05,-0.689376,-0.0500877,9.78937,0.103187,-0.510608,1.01928,-0.00689668,-0.000508953,0.0978934,1,4.03783e-05,-1.49667e-05,1.237e-05,0.00807566,-0.00299334,0.00247399,0.99942,-0.00112668,0.034035,9.91286e-05,0.0155776,0.48528,-1.02058,32.25,1,22446,2291769
23,1,0.99942,-0.00112668,0.034035,9.91286e-05,-0.689376,-0.0500877,9.78937,0.103187,-0.510608,1.01928,-0.00689668,-0.000508953,0.0978934,1,4.03783e-05,-1.49667e-05,1.237e-05,0.00807566,-0.00299334,0.00247399,0.99942,-0.00112668,0.034035,9.91286e-05,0.0155776,0.48528,-1.02058,32.25,1,22446,2291769
23,2,0.999421,-0.00108797,0.0340199,0.000117827,-0.681319,-0.0462166,9.78154,0.105213,-0.504508,1.00814,-0.00681614,-0.000470023,0.0978152,1,3.87596e-05,-1.51751e-05,2.01373e-05,0.00775193,-0.00303502,0.00402745,0.999421,-0.00108797,0.0340199,0.000117827,0.0146073,0.485775,-1.02057,32.25,1,22447,2291869
23,3,0.999421,-0.00108797,0.0340199,0.000117827,-0.681319,-0.0462166,9.78154,0.105213,-0.504508,1.00814,-0.00681614,-0.000470023,0.0978152,1,3.87596e-05,-1.51751e-05,2.01373e-05,0.00775193,-0.00303502,0.00402745,0.999421,-0.00108797,0.0340199,0.000117827,0.0146073,0.485775,-1.02057,32.25,1,22447,2291869
23,4,0.999421,-0.00105497,0.0340116,0.000124359,-0.657512,-0.0447404,9.78513,0.132946,-0.5059,1.01106,-0.00657681,-0.000453888,0.0978511,1,3.26131e-05,-8.63152e-06,7.70014e-06,0.00652261,-0.0017263,0.00154003,0.999421,-0.00105497,0.0340116,0.000124359,0.0146272,0.483833,-1.02112,32.25,1,22448,2291969
24,1,0.999421,-0.00105497,0.0340116,0.000124359,-0.657512,-0.0447404,9.78513,0.132946,-0.5059,1.01106,-0.00657681,-0.000453888,0.0978511,1,3.26131e-05,-8.63152e-06,7.70014e-06,0.00652261,-0.0017263,0.00154003,0.999421,-0.00105497,0.0340116,0.000124359,0.0146272,0.483833,-1.02112,32.25,1,22448,2291969
24,2,0.999421,-0.00105497,0.0340116,0.000124359,-0.657512,-0.0447404,9.78513,0.132946,-0.5059,1.01106,-0.00657681,-0.000453888,0.0978511,1,3.26131e-05,-8.63152e-06,7.70014e-06,0.00652261,-0.0017263,0.00154003,0.999421,-0.00105497,0.0340116,0.000124359,0.0146272,0.483833,-1.02112,32.25,1,22448,2291969
24,3,0.999421,-0.00100644,0.0339969,0.000122373,-0.679111,-0.0493484,9.79168,0.111172,-0.509675,1.01459,-0.00679402,-0.000502971,0.0979166,1,4.84678e-05,-1.48605e-05,-3.24354e-07,0.00969356,-0.0029721,-6.48708e-05,0.999421,-0.00100644,0.0339969,0.000122373,0.0155524,0.483852,-1.02264,32.25,1,22449,2292069
24,4,0.999421,-0.00100644,0.0339969,0.000122373,-0.679111,-0.0493484,9.79168,0.111172,-0.509675,1.01459,-0.00679402,-0.000502971,0.0979166,1,4.84678e-05,-1.48605e-05,-3.24354e-07,0.00969356,-0.0029721,-6.48708e-05,0.999421,-0.00100644,0.0339969,0.000122373,0.0155524,0.483852,-1.02264,32.25,1,22449,2292069
24,5,0.999421,-0.00100644,0.0339969,0.000122373,-0.679111,-0.0493484,9.79168,0.111172,-0.509675,1.01459,-0.00679402,-0.000502971,0.0979166,1,4.84678e-05,-1.48605e-05,-3.24354e-07,0.00969356,-0.0029721,-6.48708e-05,0.999421,-0.00100644,0.0339969,0.000122373,0.0155524,0.483852,-1.02264,32.25,1,22449,2292069
24,6,0.999422,-0.000982353,0.0339814,0.000135833,-0.702619,-0.0484299,9.7949,0.0960101,-0.505297,1.02234,-0.00702928,-0.000489317,0.0979488,1,2.45831e-05,-1.58009e-05,1.43796e-05,0.00491663,-0.00316017,0.00287592,0.999422,-0.000982353,0.0339814,0.000135833,0.0150224,0.485338,-1.02361,32.25,1,22450,2292169
25,1,0.999422,-0.000982353,0.0339814,0.000135833,-0.702619,-0.0484299,9.7949,0.0960101,-0.505297,1.02234,-0.00702928,-0.000489317,0.0979488,1,2.45831e-05,-1.58009e-05,1.43796e-05,0.00491663,-0.00316017,0.00287592,0.999422,-0.000982353,0.0339814,0.000135833,0.0150224,0.485338,-1.02361,32.25,1,22450,2292169
25,2,0.999422,-0.000982353,0.0339814,0.000135833,-0.702619,-0.0484299,9.7949,0.0960101,-0.505297,1.02234,-0.00702928,-0.000489317,0.0979488,1,2.45831e-05,-1.58009e-05,1.43796e-05,0.00491663,-0.00316017,0.00287592,0.999422,-0.000982353,0.0339814,0.000135833,0.0150224,0.485338,-1.02361,32.25,1,22450,2292169
26,1,0.999423,-0.000939362,0.0339648,0.000159721,-0.688316,-0.0509926,9.77817,0.0927094,-0.515772,1.00676,-0.00688642,-0.000518575,0.0977814,1,4.24201e-05,-1.679e-05,2.56073e-05,0.00848401,-0.00335799,0.00512145,0.999423,-0.000939362,0.0339648,0.000159721,0.0131677,0.484821,-1.02109,32.25,1,22451,2292269
26,2,0.999423,-0.000939362,0.0339648,0.000159721,-0.688316,-0.0509926,9.77817,0.0927094,-0.515772,1.00676,-0.00688642,-0.000518575,0.0977814,1,4.24201e-05,-1.679e-05,2.56073e-05,0.00848401,-0.00335799,0.00512145,0.999423,-0.000939362,0.0339648,0.000159721,0.0131677,0.484821,-1.02109,32.25,1,22451,2292269
26,3,0.999423,-0.000939362,0.0339648,0.000159721,-0.688316,-0.0509926,9.77817,0.0927094,-0.515772,1.00676,-0.00688642,-0.000518575,0.0977814,1,4.24201e-05,-1.679e-05,2.56073e-05,0.00848401,-0.00335799,0.00512145,0.999423,-0.000939362,0.0339648,0.000159721,0.0131677,0.484821,-1.02109,32.25,1,22451,2292269
26,4,0.999423,-0.000890435,0.0339519,0.000172549,-0.686926,-0.0551142,9.78931,0.0995279,-0.521976,1.01782,-0.00687183,-0.000560943,0.0978929,1,4.90435e-05,-1.32209e-05,1.44894e-05,0.00980871,-0.00264419,0.00289789,0.999423,-0.000890435,0.0339519,0.000172549,0.0137143,0.483805,-1.01909,32.25,1,22452,2292369
26,5,0.999423,-0.000890435,0.0339519,0.000172549,-0.686926,-0.0551142,9.78931,0.0995279,-0.521976,1.01782,-0.00687183,-0.000560943,0.0978929,1,4.90435e-05,-1.32209e-05,1.44894e-05,0.00980871,-0.00264419,0.00289789,0.999423,-0.000890435,0.0339519,0.000172549,0.0137143,0.483805,-1.01909,32.25,1,22452,2292369
26,6,0.999423,-0.000890435,0.0339519,0.000172549,-0.686926,-0.0551142,9.78931,0.0995279,-0.521976,1.01782,-0.00687183,-0.000560943,0.0978929,1,4.90435e-05,-1.32209e-05,1.44894e-05,0.00980871,-0.00264419,0.00289789,0.999423,-0.000890435,0.0339519,0.000172549,0.0137143,0.483805,-1.01909,32.25,1,22452,2292369
27,1,0.999424,-0.00084852,0.033942,0.000201506,-0.661619,-0.0437011,9.78787,0.130328,-0.505654,1.0117,-0.00661816,-0.000445587,0.0978786,1,4.17417e-05,-1.02056e-05,3.05363e-05,0.00834834,-0.00204113,0.00610727,0.999424,-0.00084852,0.033942,0.000201506,0.0151211,0.485266,-1.01957,32.25,1,22453,2292469
27,2,0.999424,-0.00084852,0.033942,0.000201506,-0.661619,-0.0437011,9.78787,0.130328,-0.505654,1.0117,-0.00661816,-0.000445587,0.0978786,1,4.17417e-05,-1.02056e-05,3.05363e-05,0.00834834,-0.00204113,0.00610727,0.999424,-0.00084852,0.033942,0.000201506,0.0151211,0.485266,-1.01957,32.25,1,22453,2292469
27,3,0.999424,-0.00084852,0.033942,0.000201506,-0.661619,-0.0437011,9.78787,0.130328,-0.505654,1.0117,-0.00661816,-0.000445587,0.0978786,1,4.17417e-05,-1.02056e-05,3.05363e-05,0.00834834,-0.00204113,0.00610727,0.999424,-0.00084852,0.033942,0.000201506,0.0151211,0.485266,-1.01957,32.25,1,22453,2292469
27,4,0.999424,-0.000813382,0.0339342,0.000219527,-0.680618,-0.0473398,9.78661,0.112864,-0.514331,1.01323,-0.00680776,-0.000480477,0.097866,1,3.48035e-05,-8.17713e-06,1.95522e-05,0.0069607,-0.00163543,0.00391043,0.999424,-0.000813382,0.0339342,0.000219527,0.0155244,0.486282,-1.02208,32.25,1,22454,2292569
27,5,0.999424,-0.000813382,0.0339342,0.000219527,-0.680618,-0.0473398,9.78661,0.112864,-0.514331,1.01323,-0.00680776,-0.000480477,0.097866,1,3.48035e-05,-8.17713e-06,1.95522e-05,0.0069607,-0.00163543,0.00391043,0.999424,-0.000813382,0.0339342,0.000219527,0.0155244,0.486282,-1.02208,32.25,1,22454,2292569
27,6,0.999424,-0.000813382,0.0339342,0.000219527,-0.680618,-0.0473398,9.78661,0.112864,-0.514331,1.01323,-0.00680776,-0.000480477,0.097866,1,3.48035e-05,-8.17713e-06,1.95522e-05,0.0069607,-0.00163543,0.00391043,0.999424,-0.000813382,0.0339342,0.000219527,0.0155244,0.486282,-1.02208,32.25,1,22454,2292569
28,1,0.999424,-0.000777543,0.0339256,0.000242846,-0.697251,-0.0516791,9.79618,0.0887263,-0.518886,1.01971,-0.00697425,-0.000524226,0.0979617,1,3.61928e-05,-8.98945e-06,2.47008e-05,0.00723856,-0.00179789,0.00494016,0.999424,-0.000777543,0.0339256,0.000242846,0.0154832,0.48583,-1.02411,32.25,1,22455,2292669
28,2,0.999424,-0.000777543,0.0339256,0.000242846,-0.697251,-0.0516791,9.79618,0.0887263,-0.518886,1.01971,-0.00697425,-0.000524226,0.0979617,1,3.61928e-05,-8.98945e-06,2.47008e-05,0.00723856,-0.00179789,0.00494016,0.999424,-0.000777543,0.0339256,0.000242846,0.0154832,0.48583,-1.02411,32.25,1,22455,2292669
28,3,0.999424,-0.000777543,0.0339256,0.000242846,-0.697251,-0.0516791,9.79618,0.0887263,-0.518886,1.01971,-0.00697425,-0.000524226,0.0979617,1,3.61928e-05,-8.98945e-06,2.47008e-05,0.00723856,-0.00179789,0.00494016,0.999424,-0.000777543,0.0339256,0.000242846,0.0154832,0.48583,-1.02411,32.25,1,22455,2292669
28,4,0.999425,-0.000740181,0.0339109,0.000236204,-0.696519,-0.0400734,9.80002,0.0906229,-0.506248,1.03108,-0.00696818,-0.000408151,0.0979999,1,3.82083e-05,-1.52218e-05,-5.18747e-06,0.00764166,-0.00304436,-0.00103749,0.999425,-0.000740181,0.0339109,0.000236204,0.0170494,0.484283,-1.02011,32.25,1,22456,2292769
28,5,0.999425,-0.000740181,0.0339109,0.000236204,-0.696519,-0.0400734,9.80002,0.0906229,-0.506248,1.03108,-0.00696818,-0.000408151,0.0979999,1,3.82083e-05,-1.52218e-05,-5.18747e-06,0.00764166,-0.00304436,-0.00103749,0.999425,-0.000740181,0.0339109,0.000236204,0.0170494,0.484283,-1.02011,32.25,1,22456,2292769
28,6,0.999425,-0.000740181,0.0339109,0.000236204,-0.696519,-0.0400734,9.80002,0.0906229,-0.506248,1.03108,-0.00696818,-0.000408151,0.0979999,1,3.82083e-05,-1.52218e-05,-5.18747e-06,0.00764166,-0.00304436,-0.00103749,0.999425,-0.000740181,0.0339109,0.000236204,0.0170494,0.484283,-1.02011,32.25,1,22456,2292769
29,1,0.999425,-0.000722605,0.0339007,0.000247006,-0.681584,-0.0440024,9.78564,0.108438,-0.507997,1.01476,-0.00681792,-0.000443821,0.0978562,1,1.85875e-05,-1.06709e-05,1.17272e-05,0.00371749,-0.00213419,0.00234543,0.999425,-0.000722605,0.0339007,0.000247006,0.0165683,0.484287,-1.02011,32.25,1,22457,2292869
29,2,0.999425,-0.000722605,0.0339007,0.000247006,-0.681584,-0.0440024,9.78564,0.108438,-0.507997,1.01476,-0.00681792,-0.000443821,0.0978562,1,1.85875e-05,-1.06709e-05,1.17272e-05,0.00371749,-0.00213419,0.00234543,0.999425,-0.000722605,0.0339007,0.000247006,0.0165683,0.484287,-1.02011,32.25,1,22457,2292869
29,3,0.999425,-0.000722605,0.0339007,0.000247006,-0.681584,-0.0440024,9.78564,0.108438,-0.507997,1.01476,-0.00681792,-0.000443821,0.0978562,1,1.85875e-05,-1.06709e-05,1.17272e-05,0.00371749,-0.00213419,0.00234543,0.999425,-0.000722605,0.0339007,0.000247006,0.0165683,0.484287,-1.02011,32.25,1,22457,2292869
29,4,0.999426,-0.000685299,0.0338808,0.000255031,-0.663631,-0.0345697,9.78492,0.123118,-0.508156,1.01044,-0.00664032,-0.000353102,0.0978489,1,3.71916e-05,-2.05411e-05,9.55157e-06,0.00743831,-0.00410821,0.00191031,0.999426,-0.000685299,0.0338808,0.000255031,0.0175348,0.484758,-1.01959,32.25,1,22458,2292969
30,1,0.999426,-0.000685299,0.0338808,0.000255031,-0.663631,-0.0345697,9.78492,0.123118,-0.508156,1.01044,-0.00664032,-0.000353102,0.0978489,1,3.71916e-05,-2.05411e-05,9.55157e-06,0.00743831,-0.00410821,0.00191031,0.999426,-0.000685299,0.0338808,0.000255031,0.0175348,0.484758,-1.01959,32.25,1,22458,2292969
30,2,0.999426,-0.000685299,0.0338808,0.000255031,-0.663631,-0.0345697,9.78492,0.123118,-0.508156,1.01044,-0.00664032,-0.000353102,0.0978489,1,3.71916e-05,-2.05411e-05,9.55157e-06,0.00743831,-0.00410821,0.00191031,0.999426,-0.000685299,0.0338808,0.000255031,0.0175348,0.484758,-1.01959,32.25,1,22458,2292969
30,3,0.999426,-0.000660276,0.0338723,0.000271763,-0.678516,-0.0529396,9.78588,0.108994,-0.525843,1.00735,-0.00678692,-0.00053463,0.0978586,1,2.55053e-05,-9.12322e-06,1.78683e-05,0.00510105,-0.00182464,0.00357366,0.999426,-0.000660276,0.0338723,0.000271763,0.0174902,0.486718,-1.02006,32.25,1,22459,2293069
30,4,0.999426,-0.000660276,0.0338723,0.000271763,-0.678516,-0.0529396,9.78588,0.108994,-0.525843,1.00735,-0.00678692,-0.00053463,0.0978586,1,2.55053e-05,-9.12322e-06,1.78683e-05,0.00510105,-0.00182464,0.00357366,0.999426,-0.000660276,0.0338723,0.000271763,0.0174902,0.486718,-1.02006,32.25,1,22459,2293069
31,1,0.999426,-0.000660276,0.0338723,0.000271763,-0.678516,-0.0529396,9.78588,0.108994,-0.525843,1.00735,-0.00678692,-0.00053463,0.0978586,1,2.55053e-05,-9.12322e-06,1.78683e-05,0.00510105,-0.00182464,0.00357366,0.999426,-0.000660276,0.0338723,0.000271763,0.0174902,0.486718,-1.02006,32.25,1,22459,2293069
31,2,0.999426,-0.00062749,0.0338535,0.0002828,-0.698432,-0.0585259,9.78801,0.0867741,-0.533166,1.0153,-0.00698812,-0.000592063,0.0978797,1,3.38611e-05,-1.9446e-05,1.25355e-05,0.00677222,-0.0038892,0.0025071,0.999426,-0.00062749,0.0338535,0.0002828,0.0160055,0.486278,-1.02208,32.25,1,22460,2293169
31,3,0.999426,-0.00062749,0.0338535,0.0002828,-0.698432,-0.0585259,9.78801,0.0867741,-0.533166,1.0153,-0.00698812,-0.000592063,0.0978797,1,3.38611e-05,-1.9446e-05,1.25355e-05,0.00677222,-0.0038892,0.0025071,0.999426,-0.00062749,0.0338535,0.0002828,0.0160055,0.486278,-1.02208,32.25,1,22460,2293169
31,4,0.999426,-0.00062749,0.0338535,0.0002828,-0.698432,-0.0585259,9.78801,0.0867741,-0.533166,1.0153,-0.00698812,-0.000592063,0.0978797,1,3.38611e-05,-1.9446e-05,1.25355e-05,0.00677222,-0.0038892,0.0025071,0.999426,-0.00062749,0.0338535,0.0002828,0.0160055,0.486278,-1.02208,32.25,1,22460,2293169
31,5,0.999427,-0.000581219,0.0338455,0.000280612,-0.684095,-0.0373093,9.78469,0.100573,-0.508525,1.00926,-0.00684266,-0.000382522,0.0978468,1,4.81979e-05,-8.72813e-06,-1.93816e-07,0.00963957,-0.00174563,-3.87633e-05,0.999427,-0.000581219,0.0338455,0.000280612,0.0150429,0.484841,-1.02312,32.25,1,22461,2293269
31,6,0.999427,-0.000581219,0.0338455,0.000280612,-0.684095,-0.0373093,9.78469,0.100573,-0.508525,1.00926,-0.00684266,-0.000382522,0.0978468,1,4.81979e-05,-8.72813e-06,-1.93816e-07,0.00963957,-0.00174563,-3.87633e-05,0.999427,-0.000581219,0.0338455,0.000280612,0.0150429,0.484841,-1.02312,32.25,1,22461,2293269
32,1,0.999427,-0.000581219,0.0338455,0.000280612,-0.684095,-0.0373093,9.78469,0.100573,-0.508525,1.00926,-0.00684266,-0.000382522,0.0978468,1,4.81979e-05,-8.72813e-06,-1.93816e-07,0.00963957,-0.00174563,-3.87633e-05,0.999427,-0.000581219,0.0338455,0.000280612,0.0150429,0.484841,-1.02312,32.25,1,22461,2293269
32,2,0.999427,-0.000542435,0.0338386,0.000300363,-0.67089,-0.0376106,9.78188,0.110303,-0.511867,1.00944,-0.00671041,-0.00038397,0.0978186,1,3.87243e-05,-7.83997e-06,2.14875e-05,0.00774487,-0.00156799,0.0042975,0.999427,-0.000542435,0.0338386,0.000300363,0.0146472,0.481891,-1.02166,32.25,1,22462,2293369
33,1,0.999427,-0.000542435,0.0338386,0.000300363,-0.67089,-0.0376106,9.78188,0.110303,-0.511867,1.00944,-0.00671041,-0.00038397,0.0978186,1,3.87243e-05,-7.83997e-06,2.14875e-05,0.00774487,-0.00156799,0.0042975,0.999427,-0.000542435,0.0338386,0.000300363,0.0146472,0.481891,-1.02166,32.25,1,22462,2293369
33,2,0.999427,-0.000542435,0.0338386,0.000300363,-0.67089,-0.0376106,9.78188,0.110303,-0.511867,1.00944,-0.00671041,-0.00038397,0.0978186,1,3.87243e-05,-7.83997e-06,2.14875e-05,0.00774487,-0.00156799,0.0042975,0.999427,-0.000542435,0.0338386,0.000300363,0.0146472,0.481891,-1.02166,32.25,1,22462,2293369
34,1,0.999427,-0.000499716,0.0338392,0.000304059,-0.664171,-0.0469906,9.77157,0.122579,-0.520425,0.997335,-0.00664177,-0.00047847,0.0977157,1,4.34499e-05,-3.01899e-07,5.52651e-06,0.00868998,-6.03798e-05,0.0011053,0.999427,-0.000499716,0.0338392,0.000304059,0.0141988,0.481389,-1.02066,32.25,1,22463,2293469
34,2,0.999427,-0.000499716,0.0338392,0.000304059,-0.664171,-0.0469906,9.77157,0.122579,-0.520425,0.997335,-0.00664177,-0.00047847,0.0977157,1,4.34499e-05,-3.01899e-07,5.52651e-06,0.00868998,-6.03798e-05,0.0011053,0.999427,-0.000499716,0.0338392,0.000304059,0.0141988,0.481389,-1.02066,32.25,1,22463,2293469
35,1,0.999427,-0.000499716,0.0338392,0.000304059,-0.664171,-0.0469906,9.77157,0.122579,-0.520425,0.997335,-0.00664177,-0.00047847,0.0977157,1,4.34499e-05,-3.01899e-07,5.52651e-06,0.00868998,-6.03798e-05,0.0011053,0.999427,-0.000499716,0.0338392,0.000304059,0.0141988,0.481389,-1.02066,32.25,1,22463,2293469
35,2,0.999427,-0.000450118,0.0338431,0.000312167,-0.673967,-0.0444511,9.7954,0.112639,-0.521919,1.02498,-0.00673907,-0.000454557,0.097954,1,5.05875e-05,3.03236e-06,1.00903e-05,0.0101175,0.000606472,0.00201807,0.999427,-0.000450118,0.0338431,0.000312167,0.0141746,0.482853,-1.02063,32.25,1,22464,2293569
36,1,0.999427,-0.000450118,0.0338431,0.000312167,-0.673967,-0.0444511,9.7954,0.112639,-0.521919,1.02498,-0.00673907,-0.000454557,0.097954,1,5.05875e-05,3.03236e-06,1.00903e-05,0.0101175,0.000606472,0.00201807,0.999427,-0.000450118,0.0338431,0.000312167,0.0141746,0.482853,-1.02063,32.25,1,22464,2293569
36,2,0.999427,-0.000450118,0.0338431,0.000312167,-0.673967,-0.0444511,9.7954,0.112639,-0.521919,1.02498,-0.00673907,-0.000454557,0.097954,1,5.05875e-05,3.03236e-06,1.00903e-05,0.0101175,0.000606472,0.00201807,0.999427,-0.000450118,0.0338431,0.000312167,0.0141746,0.482853,-1.02063,32.25,1,22464,2293569
37,1,0.999427,-0.000420267,0.0338357,0.000331069,-0.683247,-0.0525428,9.78829,0.107738,-0.521226,1.01389,-0.00683409,-0.000531681,0.0978827,1,3.05139e-05,-8.37261e-06,2.04704e-05,0.00610278,-0.00167452,0.00409407,0.999427,-0.000420267,0.0338357,0.000331069,0.0145987,0.484818,-1.0216,32.25,1,22465,2293669
37,2,0.999427,-0.000420267,0.0338357,0.000331069,-0.683247,-0.0525428,9.78829,0.107738,-0.521226,1.01389,-0.00683409,-0.000531681,0.0978827,1,3.05139e-05,-8.37261e-06,2.04704e-05,0.00610278,-0.00167452,0.00409407,0.999427,-0.000420267,0.0338357,0.000331069,0.0145987,0.484818,-1.0216,32.25,1,22465,2293669
38,1,0.999427,-0.000420267,0.0338357,0.000331069,-0.683247,-0.0525428,9.78829,0.107738,-0.521226,1.01389,-0.00683409,-0.000531681,0.0978827,1,3.05139e-05,-8.37261e-06,2.04704e-05,0.00610278,-0.00167452,0.00409407,0.999427,-0.000420267,0.0338357,0.000331069,0.0145987,0.484818,-1.0216,32.25,1,22465,2293669
38,2,0.999427,-0.000398004,0.0338278,0.000350297,-0.690023,-0.0551953,9.79815,0.0927226,-0.529139,1.02642,-0.00690192,-0.000556861,0.0979813,1,2.35997e-05,-8.74512e-06,2.05599e-05,0.00471993,-0.00174902,0.00411199,0.999427,-0.000398004,0.0338278,0.000350297,0.0164535,0.485335,-1.02412,32.25,1,22466,2293769
38,3,0.999427,-0.000398004,0.0338278,0.000350297,-0.690023,-0.0551953,9.79815,0.0927226,-0.529139,1.02642,-0.00690192,-0.000556861,0.0979813,1,2.35997e-05,-8.74512e-06,2.05599e-05,0.00471993,-0.00174902,0.00411199,0.999427,-0.000398004,0.0338278,0.000350297,0.0164535,0.485335,-1.02412,32.25,1,22466,2293769
38,4,0.999428,-0.000363296,0.0338154,0.000359127,-0.664342,-0.0403341,9.78284,0.118666,-0.516542,1.00883,-0.00664603,-0.000410602,0.0978282,1,3.63774e-05,-1.33739e-05,1.07438e-05,0.00727548,-0.00267477,0.00214875,0.999428,-0.000363296,0.0338154,0.000359127,0.0149935,0.484877,-1.02514,32.25,1,22467,2293869
39,1,0.999428,-0.000363296,0.0338154,0.000359127,-0.664342,-0.0403341,9.78284,0.118666,-0.516542,1.00883,-0.00664603,-0.000410602,0.0978282,1,3.63774e-05,-1.33739e-05,1.07438e-05,0.00727548,-0.00267477,0.00214875,0.999428,-0.000363296,0.0338154,0.000359127,0.0149935,0.484877,-1.02514,32.25,1,22467,2293869
39,2,0.999428,-0.000363296,0.0338154,0.000359127,-0.664342,-0.0403341,9.78284,0.118666,-0.516542,1.00883,-0.00664603,-0.000410602,0.0978282,1,3.63774e-05,-1.33739e-05,1.07438e-05,0.00727548,-0.00267477,0.00214875,0.999428,-0.000363296,0.0338154,0.000359127,0.0149935,0.484877,-1.02514,32.25,1,22467,2293869
39,3,0.999428,-0.000325224,0.033812,0.000365608,-0.661552,-0.0557415,9.79387,0.125766,-0.536907,1.0199,-0.00661641,-0.000565285,0.0979386,1,3.96166e-05,-4.54892e-06,8.36719e-06,0.00792331,-0.000909784,0.00167344,0.999428,-0.000325224,0.033812,0.000365608,0.0141376,0.48288,-1.02215,32.25,1,22468,2293969
39,4,0.999428,-0.000325224,0.033812,0.000365608,-0.661552,-0.0557415,9.79387,0.125766,-0.536907,1.0199,-0.00661641,-0.000565285,0.0979386,1,3.96166e-05,-4.54892e-06,8.36719e-06,0.00792331,-0.000909784,0.00167344,0.999428,-0.000325224,0.033812,0.000365608,0.0141376,0.48288,-1.02215,32.25,1,22468,2293969
40,1,0.999428,-0.000325224,0.033812,0.000365608,-0.661552,-0.0557415,9.79387,0.125766,-0.536907,1.0199,-0.00661641,-0.000565285,0.0979386,1,3.96166e-05,-4.54892e-06,8.36719e-06,0.00792331,-0.000909784,0.00167344,0.999428,-0.000325224,0.033812,0.000365608,0.0141376,0.48288,-1.02215,32.25,1,22468,2293969
40,2,0.999428,-0.000283889,0.0338046,0.000370583,-0.677946,-0.040749,9.78903,0.112596,-0.518319,1.02097,-0.00678109,-0.000416048,0.0978901,1,4.32264e-05,-8.37615e-06,7.00544e-06,0.00864528,-0.00167523,0.00140109,0.999428,-0.000283889,0.0338046,0.000370583,0.0146723,0.483318,-1.01961,32.25,1,22469,2294069
40,3,0.999428,-0.000283889,0.0338046,0.000370583,-0.677946,-0.040749,9.78903,0.112596,-0.518319,1.02097,-0.00678109,-0.000416048,0.0978901,1,4.32264e-05,-8.37615e-06,7.00544e-06,0.00864528,-0.00167523,0.00140109,0.999428,-0.000283889,0.0338046,0.000370583,0.0146723,0.483318,-1.01961,32.25,1,22469,2294069
40,4,0.999428,-0.000283889,0.0338046,0.000370583,-0.677946,-0.040749,9.78903,0.112596,-0.518319,1.02097,-0.00678109,-0.000416048,0.0978901,1,4.32264e-05,-8.37615e-06,7.00544e-06,0.00864528,-0.00167523,0.00140109,0.999428,-0.000283889,0.0338046,0.000370583,0.0146723,0.483318,-1.01961,32.25,1,22469,2294069
41,1,0.999429,-0.000248015,0.0337939,0.000395472,-0.685373,-0.0412075,9.79179,0.103216,-0.520742,1.01933,-0.00685606,-0.000419842,0.0979177,1,3.78059e-05,-1.19808e-05,2.65335e-05,0.00756117,-0.00239616,0.0053067,0.999429,-0.000248015,0.0337939,0.000395472,0.0160995,0.484282,-1.0196,32.25,1,22470,2294169
41,2,0.999429,-0.000248015,0.0337939,0.000395472,-0.685373,-0.0412075,9.79179,0.103216,-0.520742,1.01933,-0.00685606,-0.000419842,0.0979177,1,3.78059e-05,-1.19808e-05,2.65335e-05,0.00756117,-0.00239616,0.0053067,0.999429,-0.000248015,0.0337939,0.000395472,0.0160995,0.484282,-1.0196,32.25,1,22470,2294169
41,3,0.999429,-0.000221144,0.033776,0.000409499,-0.683545,-0.0471665,9.78732,0.100869,-0.526296,1.01063,-0.00683917,-0.000477522,0.0978729,1,2.88264e-05,-1.90958e-05,1.56441e-05,0.00576528,-0.00381916,0.00312883,0.999429,-0.000221144,0.033776,0.000409499,0.0170043,0.484798,-1.02161,32.25,1,22471,2294269
41,4,0.999429,-0.000221144,0.033776,0.000409499,-0.683545,-0.0471665,9.78732,0.100869,-0.526296,1.01063,-0.00683917,-0.000477522,0.0978729,1,2.88264e-05,-1.90958e-05,1.56441e-05,0.00576528,-0.00381916,0.00312883,0.999429,-0.000221144,0.033776,0.000409499,0.0170043,0.484798,-1.02161,32.25,1,22471,2294269
41,5,0.999429,-0.000221144,0.033776,0.000409499,-0.683545,-0.0471665,9.78732,0.100869,-0.526296,1.01063,-0.00683917,-0.000477522,0.0978729,1,2.88264e-05,-1.90958e-05,1.56441e-05,0.00576528,-0.00381916,0.00312883,0.999429,-0.000221144,0.033776,0.000409499,0.0170043,0.484798,-1.02161,32.25,1,22471,2294269
41,6,0.99943,-0.000184317,0.033764,0.000424423,-0.679411,-0.0538784,9.80013,0.107244,-0.534411,1.02505,-0.00679666,-0.000546737,0.098001,1,3.94062e-05,-1.31352e-05,1.68867e-05,0.00788123,-0.00262704,0.00337735,0.99943,-0.000184317,0.033764,0.000424423,0.0145655,0.483878,-1.02364,32.25,1,22472,2294369
41,7,0.99943,-0.000184317,0.033764,0.000424423,-0.679411,-0.0538784,9.80013,0.107244,-0.534411,1.02505,-0.00679666,-0.000546737,0.098001,1,3.94062e-05,-1.31352e-05,1.68867e-05,0.00788123,-0.00262704,0.00337735,0.99943,-0.000184317,0.033764,0.000424423,0.0145655,0.483878,-1.02364,32.25,1,22472,2294369
41,8,0.99943,-0.000184317,0.033764,0.000424423,-0.679411,-0.0538784,9.80013,0.107244,-0.534411,1.02505,-0.00679666,-0.000546737,0.098001,1,3.94062e-05,-1.31352e-05,1.68867e-05,0.00788123,-0.00262704,0.00337735,0.99943,-0.000184317,0.033764,0.000424423,0.0145655,0.483878,-1.02364,32.25,1,22472,2294369
42,1,0.99943,-0.000157611,0.0337601,0.000437884,-0.681948,-0.0552937,9.78689,0.0971965,-0.540416,1.01282,-0.00682046,-0.000559107,0.0978688,1,3.04431e-05,-5.12223e-06,1.5486e-05,0.00608862,-0.00102445,0.00309721,0.99943,-0.000157611,0.0337601,0.000437884,0.0126411,0.483894,-1.02363,32.25,1,22473,2294469
42,2,0.99943,-0.000157611,0.0337601,0.000437884,-0.681948,-0.0552937,9.78689,0.0971965,-0.540416,1.01282,-0.00682046,-0.000559107,0.0978688,1,3.04431e-05,-5.12223e-06,1.5486e-05,0.00608862,-0.00102445,0.00309721,0.99943,-0.000157611,0.0337601,0.000437884,0.0126411,0.483894,-1.02363,32.25,1,22473,2294469
42,3,0.99943,-0.000157611,0.0337601,0.000437884,-0.681948,-0.0552937,9.78689,0.0971965,-0.540416,1.01282,-0.00682046,-0.000559107,0.0978688,1,3.04431e-05,-5.12223e-06,1.5486e-05,0.00608862,-0.00102445,0.00309721,0.99943,-0.000157611,0.0337601,0.000437884,0.0126411,0.483894,-1.02363,32.25,1,22473,2294469
42,4,0.99943,-0.000124929,0.0337505,0.000461813,-0.662312,-0.0451183,9.77972,0.125504,-0.527457,1.00557,-0.00662526,-0.000458293,0.0977971,1,3.45893e-05,-1.10363e-05,2.59746e-05,0.00691786,-0.00220725,0.00519492,0.99943,-0.000124929,0.0337505,0.000461813,0.0136607,0.483363,-1.02163,32.25,1,22474,2294569
43,1,0.99943,-0.000124929,0.0337505,0.000461813,-0.662312,-0.0451183,9.77972,0.125504,-0.527457,1.00557,-0.00662526,-0.000458293,0.0977971,1,3.45893e-05,-1.10363e-05,2.59746e-05,0.00691786,-0.00220725,0.00519492,0.99943,-0.000124929,0.0337505,0.000461813,0.0136607,0.483363,-1.02163,32.25,1,22474,2294569
43,2,0.99943,-0.000124929,0.0337505,0.000461813,-0.662312,-0.0451183,9.77972,0.125504,-0.527457,1.00557,-0.00662526,-0.000458293,0.0977971,1,3.45893e-05,-1.10363e-05,2.59746e-05,0.00691786,-0.00220725,0.00519492,0.99943,-0.000124929,0.0337505,0.000461813,0.0136607,0.483363,-1.02163,32.25,1,22474,2294569
43,3,0.99943,-9.31148e-05,0.0337525,0.000475203,-0.691292,-0.0476838,9.78837,0.096019,-0.530173,1.01197,-0.00691278,-0.000483918,0.0978837,1,3.50736e-05,6.57752e-07,1.55198e-05,0.00701471,0.00013155,0.00310395,0.99943,-9.31148e-05,0.0337525,0.000475203,0.0132166,0.483339,-1.02011,32.25,1,22475,2294669
43,4,0.99943,-9.31148e-05,0.0337525,0.000475203,-0.691292,-0.0476838,9.78837,0.096019,-0.530173,1.01197,-0.00691278,-0.000483918,0.0978837,1,3.50736e-05,6.57752e-07,1.55198e-05,0.00701471,0.00013155,0.00310395,0.99943,-9.31148e-05,0.0337525,0.000475203,0.0132166,0.483339,-1.02011,32.25,1,22475,2294669
43,5,0.99943,-9.31148e-05,0.0337525,0.000475203,-0.691292,-0.0476838,9.78837,0.096019,-0.530173,1.01197,-0.00691278,-0.000483918,0.0978837,1,3.50736e-05,6.57752e-07,1.55198e-05,0.00701471,0.00013155,0.00310395,0.99943,-9.31148e-05,0.0337525,0.000475203,0.0132166,0.483339,-1.02011,32.25,1,22475,2294669
43,6,0.999431,-6.82952e-05,0.0337392,0.000481654,-0.694428,-0.0489978,9.79756,0.0869368,-0.532372,1.02357,-0.00694717,-0.0004956,0.0979753,1,2.80906e-05,-1.47799e-05,8.48067e-06,0.00561812,-0.00295598,0.00169613,0.999431,-6.82952e-05,0.0337392,0.000481654,0.0132498,0.484279,-1.01807,32.25,1,22476,2294769
43,7,0.999431,-6.82952e-05,0.0337392,0.000481654,-0.694428,-0.0489978,9.79756,0.0869368,-0.532372,1.02357,-0.00694717,-0.0004956,0.0979753,1,2.80906e-05,-1.47799e-05,8.48067e-06,0.00561812,-0.00295598,0.00169613,0.999431,-6.82952e-05,0.0337392,0.000481654,0.0132498,0.484279,-1.01807,32.25,1,22476,2294769
43,8,0.999431,-6.82952e-05,0.0337392,0.000481654,-0.694428,-0.0489978,9.79756,0.0869368,-0.532372,1.02357,-0.00694717,-0.0004956,0.0979753,1,2.80906e-05,-1.47799e-05,8.48067e-06,0.00561812,-0.00295598,0.00169613,0.999431,-6.82952e-05,0.0337392,0.000481654,0.0132498,0.484279,-1.01807,32.25,1,22476,2294769
44,1,0.999431,-2.59335e-05,0.0337378,0.000488047,-0.684521,-0.0408177,9.78126,0.104229,-0.522832,1.00532,-0.00684585,-0.000417284,0.0978126,1,4.59347e-05,-3.28369e-06,8.84385e-06,0.00918694,-0.000656738,0.00176877,0.999431,-2.59335e-05,0.0337378,0.000488047,0.0146566,0.485739,-1.01855,32.25,1,22477,2294869
44,2,0.999431,-2.59335e-05,0.0337378,0.000488047,-0.684521,-0.0408177,9.78126,0.104229,-0.522832,1.00532,-0.00684585,-0.000417284,0.0978126,1,4.59347e-05,-3.28369e-06,8.84385e-06,0.00918694,-0.000656738,0.00176877,0.999431,-2.59335e-05,0.0337378,0.000488047,0.0146566,0.485739,-1.01855,32.25,1,22477,2294869
44,3,0.999431,-2.59335e-05,0.0337378,0.000488047,-0.684521,-0.0408177,9.78126,0.104229,-0.522832,1.00532,-0.00684585,-0.000417284,0.0978126,1,4.59347e-05,-3.28369e-06,8.84385e-06,0.00918694,-0.000656738,0.00176877,0.999431,-2.59335e-05,0.0337378,0.000488047,0.0146566,0.485739,-1.01855,32.25,1,22477,2294869
44,4,0.999431,-7.02095e-06,0.0337414,0.000503681,-0.664794,-0.0381455,9.78964,0.11931,-0.519747,1.00495,-0.00664758,-0.000386055,0.0978964,1,2.2307e-05,1.75821e-06,1.75145e-05,0.00446141,0.000351643,0.00350289,0.999431,-7.02095e-06,0.0337414,0.000503681,0.0160383,0.485772,-1.02108,32.25,1,22478,2294969
45,1,0.999431,-7.02095e-06,0.0337414,0.000503681,-0.664794,-0.0381455,9.78964,0.11931,-0.519747,1.00495,-0.00664758,-0.000386055,0.0978964,1,2.2307e-05,1.75821e-06,1.75145e-05,0.00446141,0.000351643,0.00350289,0.999431,-7.02095e-06,0.0337414,0.000503681,0.0160383,0.485772,-1.02108,32.25,1,22478,2294969
45,2,0.999431,-7.02095e-06,0.0337414,0.000503681,-0.664794,-0.0381455,9.78964,0.11931,-0.519747,1.00495,-0.00664758,-0.000386055,0.0978964,1,2.2307e-05,1.75821e-06,1.75145e-05,0.00446141,0.000351643,0.00350289,0.999431,-7.02095e-06,0.0337414,0.000503681,0.0160383,0.485772,-1.02108,32.25,1,22478,2294969
46,1,0.999431,2.34438e-05,0.0337401,0.000510585,-0.687088,-0.0473591,9.78429,0.100955,-0.534215,1.00848,-0.00687145,-0.000480557,0.0978428,1,3.49545e-05,-2.9578e-06,9.19567e-06,0.0069909,-0.000591559,0.00183913,0.999431,2.34438e-05,0.0337401,0.000510585,0.0150467,0.483874,-1.02364,32.25,1,22479,2295069
46,2,0.999431,2.34438e-05,0.0337401,0.000510585,-0.687088,-0.0473591,9.78429,0.100955,-0.534215,1.00848,-0.00687145,-0.000480557,0.0978428,1,3.49545e-05,-2.9578e-06,9.19567e-06,0.0069909,-0.000591559,0.00183913,0.999431,2.34438e-05,0.0337401,0.000510585,0.0150467,0.483874,-1.02364,32.25,1,22479,2295069
46,3,0.999431,2.34438e-05,0.0337401,0.000510585,-0.687088,-0.0473591,9.78429,0.100955,-0.534215,1.00848,-0.00687145,-0.000480557,0.0978428,1,3.49545e-05,-2.9578e-06,9.19567e-06,0.0069909,-0.000591559,0.00183913,0.999431,2.34438e-05,0.0337401,0.000510585,0.0150467,0.483874,-1.02364,32.25,1,22479,2295069
46,4,0.999431,5.39048e-05,0.0337276,0.000514979,-0.68693,-0.0516111,9.79172,0.0969009,-0.540277,1.01633,-0.00687212,-0.000523074,0.0979169,1,3.50792e-05,-1.44188e-05,6.83386e-06,0.00701585,-0.00288375,0.00136677,0.999431,5.39048e-05,0.0337276,0.000514979,0.0155482,0.483374,-1.02315,32.25,1,22480,2295169
47,1,0.999431,5.39048e-05,0.0337276,0.000514979,-0.68693,-0.0516111,9.79172,0.0969009,-0.540277,1.01633,-0.00687212,-0.000523074,0.0979169,1,3.50792e-05,-1.44188e-05,6.83386e-06,0.00701585,-0.00288375,0.00136677,0.999431,5.39048e-05,0.0337276,0.000514979,0.0155482,0.483374,-1.02315,32.25,1,22480,2295169
47,2,0.999431,5.39048e-05,0.0337276,0.000514979,-0.68693,-0.0516111,9.79172,0.0969009,-0.540277,1.01633,-0.00687212,-0.000523074,0.0979169,1,3.50792e-05,-1.44188e-05,6.83386e-06,0.00701585,-0.00288375,0.00136677,0.999431,5.39048e-05,0.0337276,0.000514979,0.0155482,0.483374,-1.02315,32.25,1,22480,2295169
47,3,0.999431,7.86762e-05,0.0337212,0.000518242,-0.689225,-0.0457707,9.78295,0.0960313,-0.530125,1.01319,-0.00689391,-0.000463508,0.0978293,1,2.92566e-05,-8.55122e-06,5.5992e-06,0.00585132,-0.00171024,0.00111984,0.999431,7.86762e-05,0.0337212,0.000518242,0.0146315,0.484312,-1.0206,32.25,1,22481,2295269
47,4,0.999431,7.86762e-05,0.0337212,0.000518242,-0.689225,-0.0457707,9.78295,0.0960313,-0.530125,1.01319,-0.00689391,-0.000463508,0.0978293,1,2.92566e-05,-8.55122e-06,5.5992e-06,0.00585132,-0.00171024,0.00111984,0.999431,7.86762e-05,0.0337212,0.000518242,0.0146315,0.484312,-1.0206,32.25,1,22481,2295269
47,5,0.999431,7.86762e-05,0.0337212,0.000518242,-0.689225,-0.0457707,9.78295,0.0960313,-0.530125,1.01319,-0.00689391,-0.000463508,0.0978293,1,2.92566e-05,-8.55122e-06,5.5992e-06,0.00585132,-0.00171024,0.00111984,0.999431,7.86762e-05,0.0337212,0.000518242,0.0146315,0.484312,-1.0206,32.25,1,22481,2295269
47,6,0.999431,0.00011827,0.0337112,0.000531567,-0.682529,-0.0534118,9.7815,0.10387,-0.537616,1.00557,-0.0068276,-0.000542906,0.0978147,1,4.38151e-05,-1.18911e-05,1.59029e-05,0.00876302,-0.00237823,0.00318058,0.999431,0.00011827,0.0337112,0.000531567,0.0141793,0.484777,-1.01907,32.25,1,22482,2295369
47,7,0.999431,0.00011827,0.0337112,0.000531567,-0.682529,-0.0534118,9.7815,0.10387,-0.537616,1.00557,-0.0068276,-0.000542906,0.0978147,1,4.38151e-05,-1.18911e-05,1.59029e-05,0.00876302,-0.00237823,0.00318058,0.999431,0.00011827,0.0337112,0.000531567,0.0141793,0.484777,-1.01907,32.25,1,22482,2295369
47,8,0.999431,0.00011827,0.0337112,0.000531567,-0.682529,-0.0534118,9.7815,0.10387,-0.537616,1.00557,-0.0068276,-0.000542906,0.0978147,1,4.38151e-05,-1.18911e-05,1.59029e-05,0.00876302,-0.00237823,0.00318058,0.999431,0.00011827,0.0337112,0.000531567,0.0141793,0.484777,-1.01907,32.25,1,22482,2295369
48,1,0.999432,0.000157816,0.0337079,0.000546945,-0.665202,-0.0489088,9.79939,0.118527,-0.537529,1.02604,-0.00665307,-0.000497928,0.0979938,1,4.38878e-05,-5.44634e-06,1.79035e-05,0.00877755,-0.00108927,0.0035807,0.999432,0.000157816,0.0337079,0.000546945,0.0155738,0.486246,-1.02006,32.25,1,22483,2295469
48,2,0.999432,0.000157816,0.0337079,0.000546945,-0.665202,-0.0489088,9.79939,0.118527,-0.537529,1.02604,-0.00665307,-0.000497928,0.0979938,1,4.38878e-05,-5.44634e-06,1.79035e-05,0.00877755,-0.00108927,0.0035807,0.999432,0.000157816,0.0337079,0.000546945,0.0155738,0.486246,-1.02006,32.25,1,22483,2295469
48,3,0.999432,0.000157816,0.0337079,0.000546945,-0.665202,-0.0489088,9.79939,0.118527,-0.537529,1.02604,-0.00665307,-0.000497928,0.0979938,1,4.38878e-05,-5.44634e-06,1.79035e-05,0.00877755,-0.00108927,0.0035807,0.999432,0.000157816,0.0337079,0.000546945,0.0155738,0.486246,-1.02006,32.25,1,22483,2295469
48,4,0.999432,0.0001765,0.0336991,0.000566114,-0.670376,-0.0508848,9.78652,0.115013,-0.538743,1.01142,-0.00670593,-0.000513717,0.097865,1,2.33818e-05,-1.11798e-05,2.18524e-05,0.00467636,-0.00223595,0.00437049,0.999432,0.0001765,0.0336991,0.000566114,0.0165071,0.485777,-1.02159,32.25,1,22484,2295569
48,5,0.999432,0.0001765,0.0336991,0.000566114,-0.670376,-0.0508848,9.78652,0.115013,-0.538743,1.01142,-0.00670593,-0.000513717,0.097865,1,2.33818e-05,-1.11798e-05,2.18524e-05,0.00467636,-0.00223595,0.00437049,0.999432,0.0001765,0.0336991,0.000566114,0.0165071,0.485777,-1.02159,32.25,1,22484,2295569
48,6,0.999432,0.0001765,0.0336991,0.000566114,-0.670376,-0.0508848,9.78652,0.115013,-0.538743,1.01142,-0.00670593,-0.000513717,0.097865,1,2.33818e-05,-1.11798e-05,2.18524e-05,0.00467636,-0.00223595,0.00437049,0.999432,0.0001765,0.0336991,0.000566114,0.0165071,0.485777,-1.02159,32.25,1,22484,2295569
49,1,0.999432,0.000197994,0.0337014,0.000575021,-0.67892,-0.0471002,9.79034,0.107599,-0.536587,1.01473,-0.00678923,-0.000476545,0.0979033,1,2.75263e-05,-1.8999e-07,1.12837e-05,0.00550525,-3.79981e-05,0.00225675,0.999432,0.000197994,0.0337014,0.000575021,0.0150837,0.483847,-1.02213,32.25,1,22485,2295669
49,2,0.999432,0.000197994,0.0337014,0.000575021,-0.67892,-0.0471002,9.79034,0.107599,-0.536587,1.01473,-0.00678923,-0.000476545,0.0979033,1,2.75263e-05,-1.8999e-07,1.12837e-05,0.00550525,-3.79981e-05,0.00225675,0.999432,0.000197994,0.0337014,0.000575021,0.0150837,0.483847,-1.02213,32.25,1,22485,2295669
49,3,0.999432,0.000197994,0.0337014,0.000575021,-0.67892,-0.0471002,9.79034,0.107599,-0.536587,1.01473,-0.00678923,-0.000476545,0.0979033,1,2.75263e-05,-1.8999e-07,1.12837e-05,0.00550525,-3.79981e-05,0.00225675,0.999432,0.000197994,0.0337014,0.000575021,0.0150837,0.483847,-1.02213,32.25,1,22485,2295669
49,4,0.999432,0.000234277,0.0336968,0.000597085,-0.693232,-0.0444058,9.78876,0.0867197,-0.534595,1.014,-0.00693368,-0.000452556,0.0978875,1,4.17084e-05,-7.09296e-06,2.40355e-05,0.00834168,-0.00141859,0.00480711,0.999432,0.000234277,0.0336968,0.000597085,0.0141746,0.482853,-1.02063,32.25,1,22486,2295769
50,1,0.999432,0.000234277,0.0336968,0.000597085,-0.693232,-0.0444058,9.78876,0.0867197,-0.534595,1.014,-0.00693368,-0.000452556,0.0978875,1,4.17084e-05,-7.09296e-06,2.40355e-05,0.00834168,-0.00141859,0.00480711,0.999432,0.000234277,0.0336968,0.000597085,0.0141746,0.482853,-1.02063,32.25,1,22486,2295769
50,2,0.999432,0.000234277,0.0336968,0.000597085,-0.693232,-0.0444058,9.78876,0.0867197,-0.534595,1.014,-0.00693368,-0.000452556,0.0978875,1,4.17084e-05,-7.09296e-06,2.40355e-05,0.00834168,-0.00141859,0.00480711,0.999432,0.000234277,0.0336968,0.000597085,0.0141746,0.482853,-1.02063,32.25,1,22486,2295769
50,3,0.999432,0.000262608,0.0336895,0.000599805,-0.671457,-0.046951,9.79062,0.112003,-0.540458,1.0135,-0.0067164,-0.000476077,0.097906,1,3.32185e-05,-9.34094e-06,4.66796e-06,0.0066437,-0.00186819,0.000933592,0.999432,0.000262608,0.0336895,0.000599805,0.0137509,0.482333,-1.01862,32.25,1,22487,2295869
50,4,0.999432,0.000262608,0.0336895,0.000599805,-0.671457,-0.046951,9.79062,0.112003,-0.540458,1.0135,-0.0067164,-0.000476077,0.097906,1,3.32185e-05,-9.34094e-06,4.66796e-06,0.0066437,-0.00186819,0.000933592,0.999432,0.000262608,0.0336895,0.000599805,0.0137509,0.482333,-1.01862,32.25,1,22487,2295869
50,5,0.999432,0.000262608,0.0336895,0.000599805,-0.671457,-0.046951,9.79062,0.112003,-0.540458,1.0135,-0.0067164,-0.000476077,0.097906,1,3.32185e-05,-9.34094e-06,4.66796e-06,0.0066437,-0.00186819,0.000933592,0.999432,0.000262608,0.0336895,0.000599805,0.0137509,0.482333,-1.01862,32.25,1,22487,2295869
50,6,0.999432,0.000305927,0.0336805,0.000620091,-0.653055,-0.0456131,9.78814,0.132382,-0.535659,1.01247,-0.00653268,-0.000465654,0.0978812,1,4.71696e-05,-1.09431e-05,2.20984e-05,0.00943392,-0.00218862,0.00441969,0.999432,0.000305927,0.0336805,0.000620091,0.0147297,0.482795,-1.0176,32.25,1,22488,2295969
51,1,0.999432,0.000305927,0.0336805,0.000620091,-0.653055,-0.0456131,9.78814,0.132382,-0.535659,1.01247,-0.00653268,-0.000465654,0.0978812,1,4.71696e-05,-1.09431e-05,2.20984e-05,0.00943392,-0.00218862,0.00441969,0.999432,0.000305927,0.0336805,0.000620091,0.0147297,0.482795,-1.0176,32.25,1,22488,2295969
51,2,0.999432,0.000305927,0.0336805,0.000620091,-0.653055,-0.0456131,9.78814,0.132382,-0.535659,1.01247,-0.00653268,-0.000465654,0.0978812,1,4.71696e-05,-1.09431e-05,2.20984e-05,0.00943392,-0.00218862,0.00441969,0.999432,0.000305927,0.0336805,0.000620091,0.0147297,0.482795,-1.0176,32.25,1,22488,2295969
51,3,0.999432,0.000330051,0.0336854,0.000626735,-0.665153,-0.0410573,9.78316,0.121793,-0.532602,1.00292,-0.00665093,-0.000416257,0.0978317,1,2.8357e-05,3.04513e-06,1.02314e-05,0.0056714,0.000609026,0.00204629,0.999432,0.000330051,0.0336854,0.000626735,0.0146358,0.484791,-1.02009,32.25,1,22489,2296069
51,4,0.999432,0.000330051,0.0336854,0.000626735,-0.665153,-0.0410573,9.78316,0.121793,-0.532602,1.00292,-0.00665093,-0.000416257,0.0978317,1,2.8357e-05,3.04513e-06,1.02314e-05,0.0056714,0.000609026,0.00204629,0.999432,0.000330051,0.0336854,0.000626735,0.0146358,0.484791,-1.02009,32.25,1,22489,2296069
51,5,0.999432,0.000330051,0.0336854,0.000626735,-0.665153,-0.0410573,9.78316,0.121793,-0.532602,1.00292,-0.00665093,-0.000416257,0.0978317,1,2.8357e-05,3.04513e-06,1.02314e-05,0.0056714,0.000609026,0.00204629,0.999432,0.000330051,0.0336854,0.000626735,0.0146358,0.484791,-1.02009,32.25,1,22489,2296069
51,6,0.999433,0.000359028,0.0336776,0.000644096,-0.686747,-0.048724,9.78156,0.0984216,-0.542159,1.00129,-0.00686944,-0.000494478,0.0978154,1,3.55951e-05,-1.01869e-05,1.99489e-05,0.00711903,-0.00203738,0.00398978,0.999433,0.000359028,0.0336776,0.000644096,0.0140806,0.484849,-1.02311,32.25,1,22490,2296169
52,1,0.999433,0.000359028,0.0336776,0.000644096,-0.686747,-0.048724,9.78156,0.0984216,-0.542159,1.00129,-0.00686944,-0.000494478,0.0978154,1,3.55951e-05,-1.01869e-05,1.99489e-05,0.00711903,-0.00203738,0.00398978,0.999433,0.000359028,0.0336776,0.000644096,0.0140806,0.484849,-1.02311,32.25,1,22490,2296169
52,2,0.999433,0.000359028,0.0336776,0.000644096,-0.686747,-0.048724,9.78156,0.0984216,-0.542159,1.00129,-0.00686944,-0.000494478,0.0978154,1,3.55951e-05,-1.01869e-05,1.99489e-05,0.00711903,-0.00203738,0.00398978,0.999433,0.000359028,0.0336776,0.000644096,0.0140806,0.484849,-1.02311,32.25,1,22490,2296169
52,3,0.999433,0.000376521,0.0336689,0.000648653,-0.688403,-0.0536986,9.79068,0.100676,-0.546216,1.01708,-0.00688631,-0.000542524,0.0979067,1,2.79248e-05,-1.17048e-05,5.08145e-06,0.00558497,-0.00234095,0.00101629,0.999433,0.000376521,0.0336689,0.000648653,0.0131018,0.484387,-1.02413,32.25,1,22491,2296269
52,4,0.999433,0.000376521,0.0336689,0.000648653,-0.688403,-0.0536986,9.79068,0.100676,-0.546216,1.01708,-0.00688631,-0.000542524,0.0979067,1,2.79248e-05,-1.17048e-05,5.08145e-06,0.00558497,-0.00234095,0.00101629,0.999433,0.000376521,0.0336689,0.000648653,0.0131018,0.484387,-1.02413,32.25,1,22491,2296269
52,5,0.999433,0.000376521,0.0336689,0.000648653,-0.688403,-0.0536986,9.79068,0.100676,-0.546216,1.01708,-0.00688631,-0.000542524,0.0979067,1,2.79248e-05,-1.17048e-05,5.08145e-06,0.00558497,-0.00234095,0.00101629,0.999433,0.000376521,0.0336689,0.000648653,0.0131018,0.484387,-1.02413,32.25,1,22491,2296269
52,6,0.999433,0.000392608,0.0336591,0.000651132,-0.685418,-0.0502008,9.78018,0.100368,-0.544088,1.00369,-0.0068568,-0.000507494,0.0978016,1,2.81111e-05,-1.33718e-05,-9.06998e-07,0.00562222,-0.00267437,-0.0001814,0.999433,0.000392608,0.0336591,0.000651132,0.0141376,0.48288,-1.02215,32.25,1,22492,2296369
52,7,0.999433,0.000392608,0.0336591,0.000651132,-0.685418,-0.0502008,9.78018,0.100368,-0.544088,1.00369,-0.0068568,-0.000507494,0.0978016,1,2.81111e-05,-1.33718e-05,-9.06998e-07,0.00562222,-0.00267437,-0.0001814,0.999433,0.000392608,0.0336591,0.000651132,0.0141376,0.48288,-1.02215,32.25,1,22492,2296369
52,8,0.999433,0.000392608,0.0336591,0.000651132,-0.685418,-0.0502008,9.78018,0.100368,-0.544088,1.00369,-0.0068568,-0.000507494,0.0978016,1,2.81111e-05,-1.33718e-05,-9.06998e-07,0.00562222,-0.00267437,-0.0001814,0.999433,0.000392608,0.0336591,0.000651132,0.0141376,0.48288,-1.02215,32.25,1,22492,2296369
53,1,0.999434,0.000422156,0.0336433,0.000642044,-0.669336,-0.049584,9.78211,0.117476,-0.544712,1.00667,-0.00669724,-0.000503369,0.0978208,1,3.88567e-05,-1.98241e-05,-5.48351e-06,0.00777134,-0.00396482,-0.0010967,0.999434,0.000422156,0.0336433,0.000642044,0.0146315,0.484312,-1.0206,32.25,1,22493,2296469
53,2,0.999434,0.000422156,0.0336433,0.000642044,-0.669336,-0.049584,9.78211,0.117476,-0.544712,1.00667,-0.00669724,-0.000503369,0.0978208,1,3.88567e-05,-1.98241e-05,-5.48351e-06,0.00777134,-0.00396482,-0.0010967,0.999434,0.000422156,0.0336433,0.000642044,0.0146315,0.484312,-1.0206,32.25,1,22493,2296469
53,3,0.999434,0.000422156,0.0336433,0.000642044,-0.669336,-0.049584,9.78211,0.117476,-0.544712,1.00667,-0.00669724,-0.000503369,0.0978208,1,3.88567e-05,-1.98241e-05,-5.48351e-06,0.00777134,-0.00396482,-0.0010967,0.999434,0.000422156,0.0336433,0.000642044,0.0146315,0.484312,-1.0206,32.25,1,22493,2296469
53,4,0.999434,0.000459792,0.0336427,0.00064209,-0.666785,-0.0529089,9.77494,0.118908,-0.546572,0.998017,-0.00666836,-0.000537861,0.0977493,1,4.448e-05,-2.63186e-06,5.73329e-06,0.00889599,-0.000526371,0.00114666,0.999434,0.000459792,0.0336427,0.00064209,0.0146277,0.485279,-1.02007,32.25,1,22494,2296569
53,5,0.999434,0.000459792,0.0336427,0.00064209,-0.666785,-0.0529089,9.77494,0.118908,-0.546572,0.998017,-0.00666836,-0.000537861,0.0977493,1,4.448e-05,-2.63186e-06,5.73329e-06,0.00889599,-0.000526371,0.00114666,0.999434,0.000459792,0.0336427,0.00064209,0.0146277,0.485279,-1.02007,32.25,1,22494,2296569
53,6,0.999434,0.000459792,0.0336427,0.00064209,-0.666785,-0.0529089,9.77494,0.118908,-0.546572,0.998017,-0.00666836,-0.000537861,0.0977493,1,4.448e-05,-2.63186e-06,5.73329e-06,0.00889599,-0.000526371,0.00114666,0.999434,0.000459792,0.0336427,0.00064209,0.0146277,0.485279,-1.02007,32.25,1,22494,2296569
53,7,0.999434,0.000502027,0.0336418,0.000648651,-0.686102,-0.0415004,9.79179,0.102358,-0.544961,1.01932,-0.0068614,-0.000424816,0.0979179,1,4.95725e-05,-1.96134e-06,7.60503e-06,0.0099145,-0.000392269,0.00152101,0.999434,0.000502027,0.0336418,0.000648651,0.0141304,0.486258,-1.02005,32.25,1,22495,2296669
53,8,0.999434,0.000502027,0.0336418,0.000648651,-0.686102,-0.0415004,9.79179,0.102358,-0.544961,1.01932,-0.0068614,-0.000424816,0.0979179,1,4.95725e-05,-1.96134e-06,7.60503e-06,0.0099145,-0.000392269,0.00152101,0.999434,0.000502027,0.0336418,0.000648651,0.0141304,0.486258,-1.02005,32.25,1,22495,2296669
53,9,0.999434,0.000502027,0.0336418,0.000648651,-0.686102,-0.0415004,9.79179,0.102358,-0.544961,1.01932,-0.0068614,-0.000424816,0.0979179,1,4.95725e-05,-1.96134e-06,7.60503e-06,0.0099145,-0.000392269,0.00152101,0.999434,0.000502027,0.0336418,0.000648651,0.0141304,0.486258,-1.02005,32.25,1,22495,2296669
53,10,0.999434,0.000534665,0.0336289,0.000661733,-0.690284,-0.0580828,9.79202,0.0883019,-0.556701,1.0178,-0.0069058,-0.000589122,0.09792,1,4.13302e-05,-1.52162e-05,1.44987e-05,0.00826603,-0.00304324,0.00289974,0.999434,0.000534665,0.0336289,0.000661733,0.0141096,0.48531,-1.02159,32.25,1,22496,2296769
54,1,0.999434,0.000534665,0.0336289,0.000661733,-0.690284,-0.0580828,9.79202,0.0883019,-0.556701,1.0178,-0.0069058,-0.000589122,0.09792,1,4.13302e-05,-1.52162e-05,1.44987e-05,0.00826603,-0.00304324,0.00289974,0.999434,0.000534665,0.0336289,0.000661733,0.0141096,0.48531,-1.02159,32.25,1,22496,2296769
54,2,0.999434,0.000534665,0.0336289,0.000661733,-0.690284,-0.0580828,9.79202,0.0883019,-0.556701,1.0178,-0.0069058,-0.000589122,0.09792,1,4.13302e-05,-1.52162e-05,1.44987e-05,0.00826603,-0.00304324,0.00289974,0.999434,0.000534665,0.0336289,0.000661733,0.0141096,0.48531,-1.02159,32.25,1,22496,2296769
54,3,0.999434,0.000563937,0.0336206,0.000675756,-0.68776,-0.0519036,9.79374,0.0919415,-0.552871,1.01686,-0.00687981,-0.000527136,0.0979372,1,4.04975e-05,-1.13436e-05,1.22454e-05,0.0080995,-0.00226872,0.00244908,0.999434,0.000563937,0.0336206,0.000675756,0.0136156,0.483877,-1.02313,32.25,1,22497,2296869
54,4,0.999434,0.000563937,0.0336206,0.000675756,-0.68776,-0.0519036,9.79374,0.0919415,-0.552871,1.01686,-0.00687981,-0.000527136,0.0979372,1,4.04975e-05,-1.13436e-05,1.22454e-05,0.0080995,-0.00226872,0.00244908,0.999434,0.000563937,0.0336206,0.000675756,0.0136156,0.483877,-1.02313,32.25,1,22497,2296869
54,5,0.999434,0.000563937,0.0336206,0.000675756,-0.68776,-0.0519036,9.79374,0.0919415,-0.552871,1.01686,-0.00687981,-0.000527136,0.0979372,1,4.04975e-05,-1.13436e-05,1.22454e-05,0.0080995,-0.00226872,0.00244908,0.999434,0.000563937,0.0336206,0.000675756,0.0136156,0.483877,-1.02313,32.25,1,22497,2296869
54,6,0.999434,0.000593161,0.0336247,0.000694634,-0.666824,-0.0447517,9.78383,0.115761,-0.544699,1.00734,-0.00666831,-0.000456082,0.0978382,1,4.26564e-05,-4.30137e-07,1.63802e-05,0.00853128,-8.60273e-05,0.00327604,0.999434,0.000593161,0.0336247,0.000694634,0.0136854,0.483345,-1.02062,32.25,1,22498,2296969
54,7,0.999434,0.000593161,0.0336247,0.000694634,-0.666824,-0.0447517,9.78383,0.115761,-0.544699,1.00734,-0.00666831,-0.000456082,0.0978382,1,4.26564e-05,-4.30137e-07,1.63802e-05,0.00853128,-8.60273e-05,0.00327604,0.999434,0.000593161,0.0336247,0.000694634,0.0136854,0.483345,-1.02062,32.25,1,22498,2296969
54,8,0.999434,0.000593161,0.0336247,0.000694634,-0.666824,-0.0447517,9.78383,0.115761,-0.544699,1.00734,-0.00666831,-0.000456082,0.0978382,1,4.26564e-05,-4.30137e-07,1.63802e-05,0.00853128,-8.60273e-05,0.00327604,0.999434,0.000593161,0.0336247,0.000694634,0.0136854,0.483345,-1.02062,32.25,1,22498,2296969
55,1,0.999434,0.000635143,0.0336193,0.000707736,-0.669457,-0.044346,9.78182,0.114703,-0.547378,1.00526,-0.00669592,-0.000453007,0.097818,1,4.7829e-05,-6.94033e-06,1.42026e-05,0.0095658,-0.00138807,0.00284051,0.999434,0.000635143,0.0336193,0.000707736,0.013172,0.4853,-1.02057,32.25,1,22499,2297069
55,2,0.999434,0.000635143,0.0336193,0.000707736,-0.669457,-0.044346,9.78182,0.114703,-0.547378,1.00526,-0.00669592,-0.000453007,0.097818,1,4.7829e-05,-6.94033e-06,1.42026e-05,0.0095658,-0.00138807,0.00284051,0.999434,0.000635143,0.0336193,0.000707736,0.013172,0.4853,-1.02057,32.25,1,22499,2297069
55,3,0.999434,0.000635143,0.0336193,0.000707736,-0.669457,-0.044346,9.78182,0.114703,-0.547378,1.00526,-0.00669592,-0.000453007,0.097818,1,4.7829e-05,-6.94033e-06,1.42026e-05,0.0095658,-0.00138807,0.00284051,0.999434,0.000635143,0.0336193,0.000707736,0.013172,0.4853,-1.02057,32.25,1,22499,2297069
55,4,0.999435,0.000670503,0.0336118,0.00073471,-0.690433,-0.0473644,9.78906,0.0946345,-0.547467,1.01354,-0.00690611,-0.000482648,0.0978904,1,4.43703e-05,-9.16754e-06,2.29551e-05,0.00887405,-0.00183351,0.00459102,0.999435,0.000670503,0.0336118,0.00073471,0.0146239,0.486245,-1.01955,32.25,1,22500,2297169
55,5,0.999435,0.000670503,0.0336118,0.00073471,-0.690433,-0.0473644,9.78906,0.0946345,-0.547467,1.01354,-0.00690611,-0.000482648,0.0978904,1,4.43703e-05,-9.16754e-06,2.29551e-05,0.00887405,-0.00183351,0.00459102,0.999435,0.000670503,0.0336118,0.00073471,0.0146239,0.486245,-1.01955,32.25,1,22500,2297169
55,6,0.999435,0.000670503,0.0336118,0.00073471,-0.690433,-0.0473644,9.78906,0.0946345,-0.547467,1.01354,-0.00690611,-0.000482648,0.0978904,1,4.43703e-05,-9.16754e-06,2.29551e-05,0.00887405,-0.00183351,0.00459102,0.999435,0.000670503,0.0336118,0.00073471,0.0146239,0.486245,-1.01955,32.25,1,22500,2297169
55,7,0.999435,0.000696858,0.0335981,0.000744994,-0.68433,-0.0402612,9.79722,0.0980142,-0.547136,1.02509,-0.0068465,-0.000409831,0.097972,1,3.60701e-05,-1.6382e-05,1.10699e-05,0.00721401,-0.00327639,0.00221398,0.999435,0.000696858,0.0335981,0.000744994,0.0155576,0.487222,-1.02004,32.25,1,22501,2297269
55,8,0.999435,0.000696858,0.0335981,0.000744994,-0.68433,-0.0402612,9.79722,0.0980142,-0.547136,1.02509,-0.0068465,-0.000409831,0.097972,1,3.60701e-05,-1.6382e-05,1.10699e-05,0.00721401,-0.00327639,0.00221398,0.999435,0.000696858,0.0335981,0.000744994,0.0155576,0.487222,-1.02004,32.25,1,22501,2297269
56,1,0.999435,0.000696858,0.0335981,0.000744994,-0.68433,-0.0402612,9.79722,0.0980142,-0.547136,1.02509,-0.0068465,-0.000409831,0.097972,1,3.60701e-05,-1.6382e-05,1.10699e-05,0.00721401,-0.00327639,0.00221398,0.999435,0.000696858,0.0335981,0.000744994,0.0155576,0.487222,-1.02004,32.25,1,22501,2297269
56,2,0.999435,0.000716996,0.0335866,0.000749188,-0.683734,-0.0356963,9.77894,0.095634,-0.534793,0.999577,-0.00684054,-0.000363291,0.0977891,1,3.09629e-05,-1.64395e-05,1.99135e-05,0.00619258,-0.00328791,0.0039827,0.999435,0.000716996,0.0335866,0.000749188,0.016026,0.485781,-1.02158,32.25,1,22502,2297369
56,3,0.999435,0.000716996,0.0335866,0.000749188,-0.683734,-0.0356963,9.77894,0.095634,-0.534793,0.999577,-0.00684054,-0.000363291,0.0977891,1,3.09629e-05,-1.64395e-05,1.99135e-05,0.00619258,-0.00328791,0.0039827,0.999435,0.000716996,0.0335866,0.000749188,0.016026,0.485781,-1.02158,32.25,1,22502,2297369
56,4,0.999435,0.000716996,0.0335866,0.000749188,-0.683734,-0.0356963,9.77894,0.095634,-0.534793,0.999577,-0.00684054,-0.000363291,0.0977891,1,3.09629e-05,-1.64395e-05,1.99135e-05,0.00619258,-0.00328791,0.0039827,0.999435,0.000716996,0.0335866,0.000749188,0.016026,0.485781,-1.02158,32.25,1,22502,2297369
56,5,0.999435,0.000723,0.0335821,0.000742118,-0.664833,-0.0511898,9.79869,0.114909,-0.555193,1.0223,-0.00665043,-0.00051644,0.0979868,1,2.26051e-05,-1.07884e-05,8.44335e-06,0.00452102,-0.00215768,0.00168867,0.999435,0.000723,0.0335821,0.000742118,0.0160336,0.483848,-1.02264,32.25,1,22503,2297469
56,6,0.999435,0.000723,0.0335821,0.000742118,-0.664833,-0.0511898,9.79869,0.114909,-0.555193,1.0223,-0.00665043,-0.00051644,0.0979868,1,2.26051e-05,-1.07884e-05,8.44335e-06,0.00452102,-0.00215768,0.00168867,0.999435,0.000723,0.0335821,0.000742118,0.0160336,0.483848,-1.02264,32.25,1,22503,2297469
56,7,0.999435,0.000723,0.0335821,0.000742118,-0.664833,-0.0511898,9.79869,0.114909,-0.555193,1.0223,-0.00665043,-0.00051644,0.0979868,1,2.26051e-05,-1.07884e-05,8.44335e-06,0.00452102,-0.00215768,0.00168867,0.999435,0.000723,0.0335821,0.000742118,0.0160336,0.483848,-1.02264,32.25,1,22503,2297469
56,8,0.999436,0.00073348,0.0335735,0.000714548,-0.676437,-0.050818,9.7825,0.103553,-0.552666,1.0045,-0.00676746,-0.000513823,0.0978247,1,2.93106e-05,-1.57672e-05,-6.72257e-06,0.00586212,-0.00315343,-0.00134451,0.999436,0.00073348,0.0335735,0.000714548,0.0155852,0.483347,-1.02164,32.25,1,22504,2297569
57,1,0.999436,0.00073348,0.0335735,0.000714548,-0.676437,-0.050818,9.7825,0.103553,-0.552666,1.0045,-0.00676746,-0.000513823,0.0978247,1,2.93106e-05,-1.57672e-05,-6.72257e-06,0.00586212,-0.00315343,-0.00134451,0.999436,0.00073348,0.0335735,0.000714548,0.0155852,0.483347,-1.02164,32.25,1,22504,2297569
57,2,0.999436,0.00073348,0.0335735,0.000714548,-0.676437,-0.050818,9.7825,0.103553,-0.552666,1.0045,-0.00676746,-0.000513823,0.0978247,1,2.93106e-05,-1.57672e-05,-6.72257e-06,0.00586212,-0.00315343,-0.00134451,0.999436,0.00073348,0.0335735,0.000714548,0.0155852,0.483347,-1.02164,32.25,1,22504,2297569
57,3,0.999436,0.00075347,0.033578,0.000702758,-0.671734,-0.0542538,9.79531,0.111264,-0.559663,1.01974,-0.00671794,-0.00054895,0.097953,1,3.21939e-05,-3.13317e-06,7.8287e-06,0.00643879,-0.000626635,0.00156574,0.999436,0.00075347,0.033578,0.000702758,0.0151287,0.483333,-1.02063,32.25,1,22505,2297669
57,4,0.999436,0.00075347,0.033578,0.000702758,-0.671734,-0.0542538,9.79531,0.111264,-0.559663,1.01974,-0.00671794,-0.00054895,0.097953,1,3.21939e-05,-3.13317e-06,7.8287e-06,0.00643879,-0.000626635,0.00156574,0.999436,0.00075347,0.033578,0.000702758,0.0151287,0.483333,-1.02063,32.25,1,22505,2297669
57,5,0.999436,0.00075347,0.033578,0.000702758,-0.671734,-0.0542538,9.79531,0.111264,-0.559663,1.01974,-0.00671794,-0.00054895,0.097953,1,3.21939e-05,-3.13317e-06,7.8287e-06,0.00643879,-0.000626635,0.00156574,0.999436,0.00075347,0.033578,0.000702758,0.0151287,0.483333,-1.02063,32.25,1,22505,2297669
57,6,0.999436,0.00078788,0.0335716,0.00069893,-0.69567,-0.0398158,9.78,0.0857142,-0.54028,1.00838,-0.00695894,-0.000406531,0.0977998,1,4.21125e-05,-1.14759e-05,9.77337e-06,0.0084225,-0.00229517,0.00195467,0.999436,0.00078788,0.0335716,0.00069893,0.015133,0.483811,-1.02011,32.25,1,22506,2297769
57,7,0.999436,0.00078788,0.0335716,0.00069893,-0.69567,-0.0398158,9.78,0.0857142,-0.54028,1.00838,-0.00695894,-0.000406531,0.0977998,1,4.21125e-05,-1.14759e-05,9.77337e-06,0.0084225,-0.00229517,0.00195467,0.999436,0.00078788,0.0335716,0.00069893,0.015133,0.483811,-1.02011,32.25,1,22506,2297769
57,8,0.999436,0.00078788,0.0335716,0.00069893,-0.69567,-0.0398158,9.78,0.0857142,-0.54028,1.00838,-0.00695894,-0.000406531,0.0977998,1,4.21125e-05,-1.14759e-05,9.77337e-06,0.0084225,-0.00229517,0.00195467,0.999436,0.00078788,0.0335716,0.00069893,0.015133,0.483811,-1.02011,32.25,1,22506,2297769
58,1,0.999436,0.000826687,0.033561,0.000706456,-0.676559,-0.0438446,9.78967,0.100518,-0.546154,1.01335,-0.00676822,-0.000447453,0.0978965,1,4.45265e-05,-1.353e-05,2.13554e-05,0.0089053,-0.00270601,0.00427108,0.999436,0.000826687,0.033561,0.000706456,0.014138,0.484325,-1.0211,32.25,1,22507,2297869
58,2,0.999436,0.000826687,0.033561,0.000706456,-0.676559,-0.0438446,9.78967,0.100518,-0.546154,1.01335,-0.00676822,-0.000447453,0.0978965,1,4.45265e-05,-1.353e-05,2.13554e-05,0.0089053,-0.00270601,0.00427108,0.999436,0.000826687,0.033561,0.000706456,0.014138,0.484325,-1.0211,32.25,1,22507,2297869
58,3,0.999436,0.000826687,0.033561,0.000706456,-0.676559,-0.0438446,9.78967,0.100518,-0.546154,1.01335,-0.00676822,-0.000447453,0.0978965,1,4.45265e-05,-1.353e-05,2.13554e-05,0.0089053,-0.00270601,0.00427108,0.999436,0.000826687,0.033561,0.000706456,0.014138,0.484325,-1.0211,32.25,1,22507,2297869
58,4,0.999437,0.000846951,0.0335412,0.000716284,-0.681499,-0.0412995,9.79042,0.0975891,-0.545729,1.01365,-0.00681943,-0.000419249,0.0979038,1,3.1082e-05,-2.2702e-05,1.23436e-05,0.0062164,-0.0045404,0.00246872,0.999437,0.000846951,0.0335412,0.000716284,0.0136446,0.484338,-1.02161,32.25,1,22508,2297969
58,5,0.999437,0.000846951,0.0335412,0.000716284,-0.681499,-0.0412995,9.79042,0.0975891,-0.545729,1.01365,-0.00681943,-0.000419249,0.0979038,1,3.1082e-05,-2.2702e-05,1.23436e-05,0.0062164,-0.0045404,0.00246872,0.999437,0.000846951,0.0335412,0.000716284,0.0136446,0.484338,-1.02161,32.25,1,22508,2297969
58,6,0.999437,0.000846951,0.0335412,0.000716284,-0.681499,-0.0412995,9.79042,0.0975891,-0.545729,1.01365,-0.00681943,-0.000419249,0.0979038,1,3.1082e-05,-2.2702e-05,1.23436e-05,0.0062164,-0.0045404,0.00246872,0.999437,0.000846951,0.0335412,0.000716284,0.0136446,0.484338,-1.02161,32.25,1,22508,2297969
58,7,0.999437,0.000873593,0.0335204,0.000734236,-0.673677,-0.0421451,9.79477,0.110548,-0.546385,1.0168,-0.00674153,-0.000429362,0.0979473,1,3.95048e-05,-2.43504e-05,1.27835e-05,0.00790095,-0.00487008,0.0025567,0.999437,0.000873593,0.0335204,0.000734236,0.0126249,0.48487,-1.02361,32.25,1,22509,2298069
58,8,0.999437,0.000873593,0.0335204,0.000734236,-0.673677,-0.0421451,9.79477,0.110548,-0.546385,1.0168,-0.00674153,-0.000429362,0.0979473,1,3.95048e-05,-2.43504e-05,1.27835e-05,0.00790095,-0.00487008,0.0025567,0.999437,0.000873593,0.0335204,0.000734236,0.0126249,0.48487,-1.02361,32.25,1,22509,2298069
59,1,0.999437,0.000873593,0.0335204,0.000734236,-0.673677,-0.0421451,9.79477,0.110548,-0.546385,1.0168,-0.00674153,-0.000429362,0.0979473,1,3.95048e-05,-2.43504e-05,1.27835e-05,0.00790095,-0.00487008,0.0025567,0.999437,0.000873593,0.0335204,0.000734236,0.0126249,0.48487,-1.02361,32.25,1,22509,2298069
59,2,0.999438,0.00089692,0.0335147,0.000760364,-0.686801,-0.043162,9.78567,0.0943282,-0.546741,1.00822,-0.00686958,-0.000440955,0.0978566,1,4.76521e-05,-7.99425e-06,6.22197e-07,0.00953042,-0.00159885,0.000124439,0.999438,0.00089692,0.0335147,0.000760364,0.0146391,0.482379,-1.02165,32.25,1,22510,2298169
59,3,0.999438,0.00089692,0.0335147,0.000760364,-0.686801,-0.043162,9.78567,0.0943282,-0.546741,1.00822,-0.00686958,-0.000440955,0.0978566,1,4.76521e-05,-7.99425e-06,6.22197e-07,0.00953042,-0.00159885,0.000124439,0.999438,0.00089692,0.0335147,0.000760364,0.0146391,0.482379,-1.02165,32.25,1,22510,2298169
59,4,0.999438,0.00089692,0.0335147,0.000760364,-0.686801,-0.043162,9.78567,0.0943282,-0.546741,1.00822,-0.00686958,-0.000440955,0.0978566,1,4.76521e-05,-7.99425e-06,6.22197e-07,0.00953042,-0.00159885,0.000124439,0.999438,0.00089692,0.0335147,0.000760364,0.0146391,0.482379,-1.02165,32.25,1,22510,2298169
59,5,0.999438,0.00092435,0.033513,0.000751468,-0.674404,-0.0579339,9.79021,0.10733,-0.566844,1.01069,-0.00674569,-0.000586786,0.097902,1,3.76776e-05,-8.49555e-06,5.14092e-06,0.00753552,-0.00169911,0.00102818,0.999438,0.00092435,0.033513,0.000751468,0.0151904,0.483287,-1.0181,32.25,1,22511,2298269
59,6,0.999438,0.00092435,0.033513,0.000751468,-0.674404,-0.0579339,9.79021,0.10733,-0.566844,1.01069,-0.00674569,-0.000586786,0.097902,1,3.76776e-05,-8.49555e-06,5.14092e-06,0.00753552,-0.00169911,0.00102818,0.999438,0.00092435,0.033513,0.000751468,0.0151904,0.483287,-1.0181,32.25,1,22511,2298269
59,7,0.999438,0.00092435,0.033513,0.000751468,-0.674404,-0.0579339,9.79021,0.10733,-0.566844,1.01069,-0.00674569,-0.000586786,0.097902,1,3.76776e-05,-8.49555e-06,5.14092e-06,0.00753552,-0.00169911,0.00102818,0.999438,0.00092435,0.033513,0.000751468,0.0151904,0.483287,-1.0181,32.25,1,22511,2298269
59,8,0.999438,0.000967908,0.0335002,0.000735128,-0.674244,-0.0428181,9.78118,0.10405,-0.55058,1.00296,-0.00674489,-0.000434919,0.0978116,1,3.35684e-05,-1.25844e-05,1.27387e-05,0.00671368,-0.00251687,0.00254775,0.999438,0.000967908,0.0335002,0.000735128,0.0151947,0.483766,-1.01759,32.25,1,22512,2298369
60,1,0.999438,0.000967908,0.0335002,0.000735128,-0.674244,-0.0428181,9.78118,0.10405,-0.55058,1.00296,-0.00674489,-0.000434919,0.0978116,1,3.35684e-05,-1.25844e-05,1.27387e-05,0.00671368,-0.00251687,0.00254775,0.999438,0.000967908,0.0335002,0.000735128,0.0151947,0.483766,-1.01759,32.25,1,22512,2298369
60,2,0.999438,0.000967908,0.0335002,0.000735128,-0.674244,-0.0428181,9.78118,0.10405,-0.55058,1.00296,-0.00674489,-0.000434919,0.0978116,1,3.35684e-05,-1.25844e-05,1.27387e-05,0.00671368,-0.00251687,0.00254775,0.999438,0.000967908,0.0335002,0.000735128,0.0151947,0.483766,-1.01759,32.25,1,22512,2298369
60,3,0.999438,0.0010184,0.0334986,0.000716179,-0.674535,-0.0549228,9.78617,0.103177,-0.564589,1.01074,-0.00674572,-0.000557584,0.0978616,1,4.18331e-05,-1.95967e-06,1.24593e-05,0.00836663,-0.000391935,0.00249185,0.999438,0.0010184,0.0334986,0.000716179,0.0155937,0.484304,-1.02061,32.25,1,22513,2298469
60,4,0.999438,0.0010184,0.0334986,0.000716179,-0.674535,-0.0549228,9.78617,0.103177,-0.564589,1.01074,-0.00674572,-0.000557584,0.0978616,1,4.18331e-05,-1.95967e-06,1.24593e-05,0.00836663,-0.000391935,0.00249185,0.999438,0.0010184,0.0334986,0.000716179,0.0155937,0.484304,-1.02061,32.25,1,22513,2298469
60,5,0.999438,0.0010184,0.0334986,0.000716179,-0.674535,-0.0549228,9.78617,0.103177,-0.564589,1.01074,-0.00674572,-0.000557584,0.0978616,1,4.18331e-05,-1.95967e-06,1.24593e-05,0.00836663,-0.000391935,0.00249185,0.999438,0.0010184,0.0334986,0.000716179,0.0155937,0.484304,-1.02061,32.25,1,22513,2298469
60,6,0.999438,0.00102555,0.0334954,0.000701252,-0.672105,-0.0511485,9.78686,0.108252,-0.560892,1.01417,-0.00672239,-0.000515985,0.0978685,1,2.20183e-05,-6.87689e-06,1.42027e-05,0.00440366,-0.00137538,0.00284054,0.999438,0.00102555,0.0334954,0.000701252,0.0165071,0.485777,-1.02159,32.25,1,22514,2298569
61,1,0.999438,0.00102555,0.0334954,0.000701252,-0.672105,-0.0511485,9.78686,0.108252,-0.560892,1.01417,-0.00672239,-0.000515985,0.0978685,1,2.20183e-05,-6.87689e-06,1.42027e-05,0.00440366,-0.00137538,0.00284054,0.999438,0.00102555,0.0334954,0.000701252,0.0165071,0.485777,-1.02159,32.25,1,22514,2298569
61,2,0.999438,0.00102555,0.0334954,0.000701252,-0.672105,-0.0511485,9.78686,0.108252,-0.560892,1.01417,-0.00672239,-0.000515985,0.0978685,1,2.20183e-05,-6.87689e-06,1.42027e-05,0.00440366,-0.00137538,0.00284054,0.999438,0.00102555,0.0334954,0.000701252,0.0165071,0.485777,-1.02159,32.25,1,22514,2298569
61,3,0.999438,0.00103691,0.0334916,0.000673911,-0.679896,-0.0541399,9.78926,0.105294,-0.565252,1.0115,-0.00680004,-0.000549884,0.0978925,1,4.16227e-05,-5.64968e-06,2.47061e-05,0.00832453,-0.00112994,0.00494122,0.999438,0.00103691,0.0334916,0.000673911,0.0145949,0.485784,-1.02107,32.25,1,22515,2298669
61,4,0.999438,0.00103691,0.0334916,0.000673911,-0.679896,-0.0541399,9.78926,0.105294,-0.565252,1.0115,-0.00680004,-0.000549884,0.0978925,1,4.16227e-05,-5.64968e-06,2.47061e-05,0.00832453,-0.00112994,0.00494122,0.999438,0.00103691,0.0334916,0.000673911,0.0145949,0.485784,-1.02107,32.25,1,22515,2298669
61,5,0.999438,0.00103691,0.0334916,0.000673911,-0.679896,-0.0541399,9.78926,0.105294,-0.565252,1.0115,-0.00680004,-0.000549884,0.0978925,1,4.16227e-05,-5.64968e-06,2.47061e-05,0.00832453,-0.00112994,0.00494122,0.999438,0.00103691,0.0334916,0.000673911,0.0145949,0.485784,-1.02107,32.25,1,22515,2298669
61,6,0.999439,0.00105511,0.0334667,0.000653589,-0.691754,-0.0453024,9.77857,0.0906643,-0.552384,1.00048,-0.00692167,-0.000460957,0.0977854,1,3.92441e-05,-2.12193e-05,1.86374e-05,0.00784883,-0.00424387,0.00372749,0.999439,0.00105511,0.0334667,0.000653589,0.0146149,0.483842,-1.02162,32.25,1,22516,2298769
62,1,0.999439,0.00105511,0.0334667,0.000653589,-0.691754,-0.0453024,9.77857,0.0906643,-0.552384,1.00048,-0.00692167,-0.000460957,0.0977854,1,3.92441e-05,-2.12193e-05,1.86374e-05,0.00784883,-0.00424387,0.00372749,0.999439,0.00105511,0.0334667,0.000653589,0.0146149,0.483842,-1.02162,32.25,1,22516,2298769
62,2,0.999439,0.00105511,0.0334667,0.000653589,-0.691754,-0.0453024,9.77857,0.0906643,-0.552384,1.00048,-0.00692167,-0.000460957,0.0977854,1,3.92441e-05,-2.12193e-05,1.86374e-05,0.00784883,-0.00424387,0.00372749,0.999439,0.00105511,0.0334667,0.000653589,0.0146149,0.483842,-1.02162,32.25,1,22516,2298769
62,3,0.99944,0.00107565,0.0334486,0.000654302,-0.677108,-0.0424463,9.78902,0.102657,-0.551655,1.01071,-0.00677526,-0.000432291,0.0978898,1,3.86406e-05,-2.13904e-05,1.94461e-05,0.00772812,-0.00427809,0.00388922,0.99944,0.00107565,0.0334486,0.000654302,0.0146192,0.484321,-1.02111,32.25,1,22517,2298869
62,4,0.99944,0.00107565,0.0334486,0.000654302,-0.677108,-0.0424463,9.78902,0.102657,-0.551655,1.01071,-0.00677526,-0.000432291,0.0978898,1,3.86406e-05,-2.13904e-05,1.94461e-05,0.00772812,-0.00427809,0.00388922,0.99944,0.00107565,0.0334486,0.000654302,0.0146192,0.484321,-1.02111,32.25,1,22517,2298869
62,5,0.99944,0.00107565,0.0334486,0.000654302,-0.677108,-0.0424463,9.78902,0.102657,-0.551655,1.01071,-0.00677526,-0.000432291,0.0978898,1,3.86406e-05,-2.13904e-05,1.94461e-05,0.00772812,-0.00427809,0.00388922,0.99944,0.00107565,0.0334486,0.000654302,0.0146192,0.484321,-1.02111,32.25,1,22517,2298869
62,6,0.99944,0.00108997,0.0334465,0.000637559,-0.680005,-0.0467264,9.78695,0.100447,-0.557915,1.00961,-0.00680074,-0.000473472,0.0978695,1,3.11825e-05,-3.54637e-06,7.66105e-06,0.00623651,-0.000709273,0.00153221,0.99944,0.00108997,0.0334465,0.000637559,0.014167,0.484786,-1.01958,32.25,1,22518,2298969
62,7,0.99944,0.00108997,0.0334465,0.000637559,-0.680005,-0.0467264,9.78695,0.100447,-0.557915,1.00961,-0.00680074,-0.000473472,0.0978695,1,3.11825e-05,-3.54637e-06,7.66105e-06,0.00623651,-0.000709273,0.00153221,0.99944,0.00108997,0.0334465,0.000637559,0.014167,0.484786,-1.01958,32.25,1,22518,2298969
62,8,0.99944,0.00108997,0.0334465,0.000637559,-0.680005,-0.0467264,9.78695,0.100447,-0.557915,1.00961,-0.00680074,-0.000473472,0.0978695,1,3.11825e-05,-3.54637e-06,7.66105e-06,0.00623651,-0.000709273,0.00153221,0.99944,0.00108997,0.0334465,0.000637559,0.014167,0.484786,-1.01958,32.25,1,22518,2298969
63,1,0.99944,0.00113521,0.0334391,0.000615454,-0.675588,-0.044293,9.78118,0.102712,-0.551438,1.00428,-0.0067569,-0.000453232,0.0978117,1,5.20926e-05,-5.25821e-06,8.23463e-06,0.0104185,-0.00105164,0.00164693,0.99944,0.00113521,0.0334391,0.000615454,0.0145622,0.48629,-1.02207,32.25,1,22519,2299069
63,2,0.99944,0.00113521,0.0334391,0.000615454,-0.675588,-0.044293,9.78118,0.102712,-0.551438,1.00428,-0.0067569,-0.000453232,0.0978117,1,5.20926e-05,-5.25821e-06,8.23463e-06,0.0104185,-0.00105164,0.00164693,0.99944,0.00113521,0.0334391,0.000615454,0.0145622,0.48629,-1.02207,32.25,1,22519,2299069
63,3,0.99944,0.00113521,0.0334391,0.000615454,-0.675588,-0.044293,9.78118,0.102712,-0.551438,1.00428,-0.0067569,-0.000453232,0.0978117,1,5.20926e-05,-5.25821e-06,8.23463e-06,0.0104185,-0.00105164,0.00164693,0.99944,0.00113521,0.0334391,0.000615454,0.0145622,0.48629,-1.02207,32.25,1,22519,2299069
63,4,0.99944,0.00114011,0.0334272,0.000558387,-0.68104,-0.052791,9.78622,0.0989395,-0.565207,1.00662,-0.00681066,-0.000535353,0.0978622,1,3.76217e-05,-1.3838e-06,5.86005e-06,0.00752434,-0.00027676,0.00117201,0.99944,0.00114011,0.0334272,0.000558387,0.0155202,0.485803,-1.02259,32.25,1,22520,2299169
63,5,0.99944,0.00114011,0.0334272,0.000558387,-0.68104,-0.052791,9.78622,0.0989395,-0.565207,1.00662,-0.00681066,-0.000535353,0.0978622,1,3.76217e-05,-1.3838e-06,5.86005e-06,0.00752434,-0.00027676,0.00117201,0.99944,0.00114011,0.0334272,0.000558387,0.0155202,0.485803,-1.02259,32.25,1,22520,2299169
63,6,0.99944,0.00114011,0.0334272,0.000558387,-0.68104,-0.052791,9.78622,0.0989395,-0.565207,1.00662,-0.00681066,-0.000535353,0.0978622,1,3.76217e-05,-1.3838e-06,5.86005e-06,0.00752434,-0.00027676,0.00117201,0.99944,0.00114011,0.0334272,0.000558387,0.0155202,0.485803,-1.02259,32.25,1,22520,2299169
63,7,0.999441,0.00113041,0.0334136,0.000467362,-0.687741,-0.0516985,9.79714,0.0913043,-0.563787,1.0195,-0.00687767,-0.000523404,0.0979714,1,3.26615e-05,-1.32061e-06,1.44544e-06,0.0065323,-0.000264122,0.000289089,0.999441,0.00113041,0.0334136,0.000467362,0.0155359,0.483383,-1.02366,32.25,1,22521,2299269
63,8,0.999441,0.00113041,0.0334136,0.000467362,-0.687741,-0.0516985,9.79714,0.0913043,-0.563787,1.0195,-0.00687767,-0.000523404,0.0979714,1,3.26615e-05,-1.32061e-06,1.44544e-06,0.0065323,-0.000264122,0.000289089,0.999441,0.00113041,0.0334136,0.000467362,0.0155359,0.483383,-1.02366,32.25,1,22521,2299269
64,1,0.999441,0.00113041,0.0334136,0.000467362,-0.687741,-0.0516985,9.79714,0.0913043,-0.563787,1.0195,-0.00687767,-0.000523404,0.0979714,1,3.26615e-05,-1.32061e-06,1.44544e-06,0.0065323,-0.000264122,0.000289089,0.999441,0.00113041,0.0334136,0.000467362,0.0155359,0.483383,-1.02366,32.25,1,22521,2299269
64,2,0.999441,0.00112388,0.0334195,0.000423491,-0.685174,-0.0426015,9.79008,0.0909747,-0.553412,1.01591,-0.00685096,-0.000433837,0.0979008,1,4.0533e-05,4.02167e-06,-8.34468e-06,0.0081066,0.000804334,-0.00166894,0.999441,0.00112388,0.0334195,0.000423491,0.0150994,0.481427,-1.02319,32.25,1,22522,2299369
64,3,0.999441,0.00112388,0.0334195,0.000423491,-0.685174,-0.0426015,9.79008,0.0909747,-0.553412,1.01591,-0.00685096,-0.000433837,0.0979008,1,4.0533e-05,4.02167e-06,-8.34468e-06,0.0081066,0.000804334,-0.00166894,0.999441,0.00112388,0.0334195,0.000423491,0.0150994,0.481427,-1.02319,32.25,1,22522,2299369
64,4,0.999441,0.00112388,0.0334195,0.000423491,-0.685174,-0.0426015,9.79008,0.0909747,-0.553412,1.01591,-0.00685096,-0.000433837,0.0979008,1,4.0533e-05,4.02167e-06,-8.34468e-06,0.0081066,0.000804334,-0.00166894,0.999441,0.00112388,0.0334195,0.000423491,0.0150994,0.481427,-1.02319,32.25,1,22522,2299369
64,5,0.999441,0.00113778,0.0334237,0.000480603,-0.671342,-0.0512571,9.79059,0.102427,-0.564207,1.01455,-0.00671582,-0.000521286,0.0979057,1,4.35002e-05,-1.22917e-05,1.46684e-05,0.00870004,-0.00245833,0.00293367,0.999441,0.00113778,0.0334237,0.000480603,0.0146519,0.483815,-1.02011,32.25,1,22523,2299469
64,6,0.999441,0.00113778,0.0334237,0.000480603,-0.671342,-0.0512571,9.79059,0.102427,-0.564207,1.01455,-0.00671582,-0.000521286,0.0979057,1,4.35002e-05,-1.22917e-05,1.46684e-05,0.00870004,-0.00245833,0.00293367,0.999441,0.00113778,0.0334237,0.000480603,0.0146519,0.483815,-1.02011,32.25,1,22523,2299469
64,7,0.999441,0.00113778,0.0334237,0.000480603,-0.671342,-0.0512571,9.79059,0.102427,-0.564207,1.01455,-0.00671582,-0.000521286,0.0979057,1,4.35002e-05,-1.22917e-05,1.46684e-05,0.00870004,-0.00245833,0.00293367,0.999441,0.00113778,0.0334237,0.000480603,0.0146519,0.483815,-1.02011,32.25,1,22523,2299469
64,8,0.999441,0.00118573,0.033413,0.000457132,-0.675742,-0.0474373,9.78557,0.104328,-0.556759,1.00406,-0.00676046,-0.000484022,0.0978555,1,4.82892e-05,-1.55732e-05,1.47055e-05,0.00965785,-0.00311463,0.0029411,0.999441,0.00118573,0.033413,0.000457132,0.0160834,0.485258,-1.01958,32.25,1,22524,2299569
65,1,0.999441,0.00118573,0.033413,0.000457132,-0.675742,-0.0474373,9.78557,0.104328,-0.556759,1.00406,-0.00676046,-0.000484022,0.0978555,1,4.82892e-05,-1.55732e-05,1.47055e-05,0.00965785,-0.00311463,0.0029411,0.999441,0.00118573,0.033413,0.000457132,0.0160834,0.485258,-1.01958,32.25,1,22524,2299569
65,2,0.999441,0.00118573,0.033413,0.000457132,-0.675742,-0.0474373,9.78557,0.104328,-0.556759,1.00406,-0.00676046,-0.000484022,0.0978555,1,4.82892e-05,-1.55732e-05,1.47055e-05,0.00965785,-0.00311463,0.0029411,0.999441,0.00118573,0.033413,0.000457132,0.0160834,0.485258,-1.01958,32.25,1,22524,2299569
65,3,0.999441,0.00122171,0.0333977,0.000327338,-0.682565,-0.0489129,9.78764,0.0964939,-0.563195,1.00936,-0.00682853,-0.000499755,0.0978761,1,5.36684e-05,-1.47784e-05,8.81393e-06,0.0107337,-0.00295567,0.00176279,0.999441,0.00122171,0.0333977,0.000327338,0.0150761,0.48578,-1.02108,32.25,1,22525,2299669
65,4,0.999441,0.00122171,0.0333977,0.000327338,-0.682565,-0.0489129,9.78764,0.0964939,-0.563195,1.00936,-0.00682853,-0.000499755,0.0978761,1,5.36684e-05,-1.47784e-05,8.81393e-06,0.0107337,-0.00295567,0.00176279,0.999441,0.00122171,0.0333977,0.000327338,0.0150761,0.48578,-1.02108,32.25,1,22525,2299669
66,1,0.999441,0.00122171,0.0333977,0.000327338,-0.682565,-0.0489129,9.78764,0.0964939,-0.563195,1.00936,-0.00682853,-0.000499755,0.0978761,1,5.36684e-05,-1.47784e-05,8.81393e-06,0.0107337,-0.00295567,0.00176279,0.999441,0.00122171,0.0333977,0.000327338,0.0150761,0.48578,-1.02108,32.25,1,22525,2299669
66,2,0.999443,0.00122952,0.0333668,0.000186463,-0.691496,-0.0376311,9.79526,0.0893709,-0.547615,1.02,-0.00691759,-0.000383837,0.0979523,1,3.78228e-05,-1.34355e-05,8.38749e-06,0.00756456,-0.0026871,0.0016775,0.999443,0.00122952,0.0333668,0.000186463,0.0150471,0.48532,-1.0226,32.25,1,22526,2299769
66,3,0.999443,0.00122952,0.0333668,0.000186463,-0.691496,-0.0376311,9.79526,0.0893709,-0.547615,1.02,-0.00691759,-0.000383837,0.0979523,1,3.78228e-05,-1.34355e-05,8.38749e-06,0.00756456,-0.0026871,0.0016775,0.999443,0.00122952,0.0333668,0.000186463,0.0150471,0.48532,-1.0226,32.25,1,22526,2299769
66,4,0.999443,0.00122952,0.0333668,0.000186463,-0.691496,-0.0376311,9.79526,0.0893709,-0.547615,1.02,-0.00691759,-0.000383837,0.0979523,1,3.78228e-05,-1.34355e-05,8.38749e-06,0.00756456,-0.0026871,0.0016775,0.999443,0.00122952,0.0333668,0.000186463,0.0150471,0.48532,-1.0226,32.25,1,22526,2299769
67,1,0.999444,0.00122319,0.0333353,3.72765e-05,-0.685784,-0.0442355,9.78837,0.0893164,-0.560158,1.01543,-0.00685905,-0.000450565,0.0978836,1,4.14215e-05,-6.23237e-06,7.35937e-06,0.0082843,-0.00124647,0.00147187,0.999444,0.00122319,0.0333353,3.72765e-05,0.0145617,0.484845,-1.02311,32.25,1,22527,2299869
67,2,0.999444,0.00122319,0.0333353,3.72765e-05,-0.685784,-0.0442355,9.78837,0.0893164,-0.560158,1.01543,-0.00685905,-0.000450565,0.0978836,1,4.14215e-05,-6.23237e-06,7.35937e-06,0.0082843,-0.00124647,0.00147187,0.999444,0.00122319,0.0333353,3.72765e-05,0.0145617,0.484845,-1.02311,32.25,1,22527,2299869
67,3,0.999444,0.00122319,0.0333353,3.72765e-05,-0.685784,-0.0442355,9.78837,0.0893164,-0.560158,1.01543,-0.00685905,-0.000450565,0.0978836,1,4.14215e-05,-6.23237e-06,7.35937e-06,0.0082843,-0.00124647,0.00147187,0.999444,0.00122319,0.0333353,3.72765e-05,0.0145617,0.484845,-1.02311,32.25,1,22527,2299869
67,4,0.999445,0.00121982,0.0332961,-8.34776e-05,-0.671374,-0.0558021,9.78818,0.104016,-0.564211,1.00991,-0.00671555,-0.000566752,0.0978816,1,4.33009e-05,-9.33372e-06,1.89413e-05,0.00866018,-0.00186674,0.00378825,0.999445,0.00121982,0.0332961,-8.34776e-05,0.0141423,0.484804,-1.02059,32.25,1,22528,2299969
67,5,0.999445,0.00121982,0.0332961,-8.34776e-05,-0.671374,-0.0558021,9.78818,0.104016,-0.564211,1.00991,-0.00671555,-0.000566752,0.0978816,1,4.33009e-05,-9.33372e-06,1.89413e-05,0.00866018,-0.00186674,0.00378825,0.999445,0.00121982,0.0332961,-8.34776e-05,0.0141423,0.484804,-1.02059,32.25,1,22528,2299969
67,6,0.999445,0.00121982,0.0332961,-8.34776e-05,-0.671374,-0.0558021,9.78818,0.104016,-0.564211,1.00991,-0.00671555,-0.000566752,0.0978816,1,4.33009e-05,-9.33372e-06,1.89413e-05,0.00866018,-0.00186674,0.00378825,0.999445,0.00121982,0.0332961,-8.34776e-05,0.0141423,0.484804,-1.02059,32.25,1,22528,2299969
68,1,0.999445,0.00124328,0.0332794,-0.000214553,-0.681658,-0.0546,9.7791,0.0912451,-0.571245,1.00374,-0.00681756,-0.000551805,0.0977909,1,2.87015e-05,-5.12243e-06,1.40312e-05,0.00574031,-0.00102449,0.00280624,0.999445,0.00124328,0.0332794,-0.000214553,0.0141997,0.48428,-1.01858,32.25,1,22529,2300069
68,2,0.999445,0.00124328,0.0332794,-0.000214553,-0.681658,-0.0546,9.7791,0.0912451,-0.571245,1.00374,-0.00681756,-0.000551805,0.0977909,1,2.87015e-05,-5.12243e-06,1.40312e-05,0.00574031,-0.00102449,0.00280624,0.999445,0.00124328,0.0332794,-0.000214553,0.0141997,0.48428,-1.01858,32.25,1,22529,2300069
68,3,0.999445,0.00124328,0.0332794,-0.000214553,-0.681658,-0.0546,9.7791,0.0912451,-0.571245,1.00374,-0.00681756,-0.000551805,0.0977909,1,2.87015e-05,-5.12243e-06,1.40312e-05,0.00574031,-0.00102449,0.00280624,0.999445,0.00124328,0.0332794,-0.000214553,0.0141997,0.48428,-1.01858,32.25,1,22529,2300069
68,4,0.999445,0.00131648,0.0332909,-0.000308308,-0.692198,-0.0497541,9.79142,0.0857235,-0.56367,1.01939,-0.0069231,-0.000506957,0.097914,1,4.64432e-05,-5.8483e-06,2.32181e-05,0.00928864,-0.00116966,0.00464361,0.999445,0.00131648,0.0332909,-0.000308308,0.0156469,0.483301,-1.01911,32.25,1,22530,2300169
69,1,0.999445,0.00131648,0.0332909,-0.000308308,-0.692198,-0.0497541,9.79142,0.0857235,-0.56367,1.01939,-0.0069231,-0.000506957,0.097914,1,4.64432e-05,-5.8483e-06,2.32181e-05,0.00928864,-0.00116966,0.00464361,0.999445,0.00131648,0.0332909,-0.000308308,0.0156469,0.483301,-1.01911,32.25,1,22530,2300169
69,2,0.999445,0.00131648,0.0332909,-0.000308308,-0.692198,-0.0497541,9.79142,0.0857235,-0.56367,1.01939,-0.0069231,-0.000506957,0.097914,1,4.64432e-05,-5.8483e-06,2.32181e-05,0.00928864,-0.00116966,0.00464361,0.999445,0.00131648,0.0332909,-0.000308308,0.0156469,0.483301,-1.01911,32.25,1,22530,2300169
69,3,0.999444,0.00133524,0.0333106,-0.000371239,-0.676504,-0.0456338,9.78525,0.097266,-0.55693,1.00672,-0.00676779,-0.000461863,0.0978523,1,2.68853e-05,-1.41208e-05,1.94461e-05,0.00537707,-0.00282415,0.00388921,0.999444,0.00133524,0.0333106,-0.000371239,0.0155895,0.483825,-1.02112,32.25,1,22531,2300269
69,4,0.999444,0.00133524,0.0333106,-0.000371239,-0.676504,-0.0456338,9.78525,0.097266,-0.55693,1.00672,-0.00676779,-0.000461863,0.0978523,1,2.68853e-05,-1.41208e-05,1.94461e-05,0.00537707,-0.00282415,0.00388921,0.999444,0.00133524,0.0333106,-0.000371239,0.0155895,0.483825,-1.02112,32.25,1,22531,2300269
70,1,0.999444,0.00133524,0.0333106,-0.000371239,-0.676504,-0.0456338,9.78525,0.097266,-0.55693,1.00672,-0.00676779,-0.000461863,0.0978523,1,2.68853e-05,-1.41208e-05,1.94461e-05,0.00537707,-0.00282415,0.00388921,0.999444,0.00133524,0.0333106,-0.000371239,0.0155895,0.483825,-1.02112,32.25,1,22531,2300269
70,2,0.999445,0.00132642,0.0332941,-0.000503996,-0.681552,-0.056917,9.78281,0.0870786,-0.571021,1.008,-0.00681768,-0.000574985,0.0978279,1,2.97428e-05,-1.10286e-05,-3.2042e-07,0.00594855,-0.00220572,-6.4084e-05,0.999445,0.00132642,0.0332941,-0.000503996,0.0155733,0.484801,-1.0211,32.25,1,22532,2300369
71,1,0.999445,0.00132642,0.0332941,-0.000503996,-0.681552,-0.056917,9.78281,0.0870786,-0.571021,1.008,-0.00681768,-0.000574985,0.0978279,1,2.97428e-05,-1.10286e-05,-3.2042e-07,0.00594855,-0.00220572,-6.4084e-05,0.999445,0.00132642,0.0332941,-0.000503996,0.0155733,0.484801,-1.0211,32.25,1,22532,2300369
71,2,0.999445,0.00132642,0.0332941,-0.000503996,-0.681552,-0.056917,9.78281,0.0870786,-0.571021,1.008,-0.00681768,-0.000574985,0.0978279,1,2.97428e-05,-1.10286e-05,-3.2042e-07,0.00594855,-0.00220572,-6.4084e-05,0.999445,0.00132642,0.0332941,-0.000503996,0.0155733,0.484801,-1.0211,32.25,1,22532,2300369
72,1,0.999445,0.00131414,0.0332662,-0.00073926,-0.685842,-0.0501606,9.78322,0.0849553,-0.566818,1.00895,-0.0068588,-0.000508492,0.0978322,1,3.39522e-05,-2.03791e-06,1.76412e-05,0.00679044,-0.000407582,0.00352825,0.999445,0.00131414,0.0332662,-0.00073926,0.0136156,0.483877,-1.02313,32.25,1,22533,2300469
72,2,0.999445,0.00131414,0.0332662,-0.00073926,-0.685842,-0.0501606,9.78322,0.0849553,-0.566818,1.00895,-0.0068588,-0.000508492,0.0978322,1,3.39522e-05,-2.03791e-06,1.76412e-05,0.00679044,-0.000407582,0.00352825,0.999445,0.00131414,0.0332662,-0.00073926,0.0136156,0.483877,-1.02313,32.25,1,22533,2300469
72,3,0.999445,0.00131414,0.0332662,-0.00073926,-0.685842,-0.0501606,9.78322,0.0849553,-0.566818,1.00895,-0.0068588,-0.000508492,0.0978322,1,3.39522e-05,-2.03791e-06,1.76412e-05,0.00679044,-0.000407582,0.00352825,0.999445,0.00131414,0.0332662,-0.00073926,0.0136156,0.483877,-1.02313,32.25,1,22533,2300469
72,4,0.999447,0.00132695,0.0332166,-0.000815375,-0.674493,-0.0426372,9.7873,0.0978175,-0.558148,1.01423,-0.00674681,-0.000432476,0.0978728,1,2.9238e-05,-9.70833e-06,2.82096e-05,0.0058476,-0.00194167,0.00564193,0.999447,0.00132695,0.0332166,-0.000815375,0.0131877,0.482879,-1.02164,32.25,1,22534,2300569
73,1,0.999447,0.00132695,0.0332166,-0.000815375,-0.674493,-0.0426372,9.7873,0.0978175,-0.558148,1.01423,-0.00674681,-0.000432476,0.0978728,1,2.9238e-05,-9.70833e-06,2.82096e-05,0.0058476,-0.00194167,0.00564193,0.999447,0.00132695,0.0332166,-0.000815375,0.0131877,0.482879,-1.02164,32.25,1,22534,2300569
73,2,0.999447,0.00132695,0.0332166,-0.000815375,-0.674493,-0.0426372,9.7873,0.0978175,-0.558148,1.01423,-0.00674681,-0.000432476,0.0978728,1,2.9238e-05,-9.70833e-06,2.82096e-05,0.0058476,-0.00194167,0.00564193,0.999447,0.00132695,0.0332166,-0.000815375,0.0131877,0.482879,-1.02164,32.25,1,22534,2300569
74,1,0.999447,0.0013876,0.033207,-0.000748409,-0.686666,-0.04302,9.7928,0.0815222,-0.559569,1.01094,-0.00686953,-0.000437784,0.0979278,1,3.70146e-05,-1.48024e-05,2.43186e-05,0.00740291,-0.00296047,0.00486372,0.999447,0.0013876,0.033207,-0.000748409,0.0136816,0.484311,-1.02009,32.25,1,22535,2300669
74,2,0.999447,0.0013876,0.033207,-0.000748409,-0.686666,-0.04302,9.7928,0.0815222,-0.559569,1.01094,-0.00686953,-0.000437784,0.0979278,1,3.70146e-05,-1.48024e-05,2.43186e-05,0.00740291,-0.00296047,0.00486372,0.999447,0.0013876,0.033207,-0.000748409,0.0136816,0.484311,-1.02009,32.25,1,22535,2300669
75,1,0.999447,0.0013876,0.033207,-0.000748409,-0.686666,-0.04302,9.7928,0.0815222,-0.559569,1.01094,-0.00686953,-0.000437784,0.0979278,1,3.70146e-05,-1.48024e-05,2.43186e-05,0.00740291,-0.00296047,0.00486372,0.999447,0.0013876,0.033207,-0.000748409,0.0136816,0.484311,-1.02009,32.25,1,22535,2300669
75,2,0.999447,0.0014331,0.0332106,-0.000903888,-0.679832,-0.042924,9.79071,0.0937822,-0.560659,1.01182,-0.00679617,-0.00043606,0.0979072,1,3.34195e-05,1.08758e-05,2.03365e-05,0.00668391,0.00217517,0.00406729,0.999447,0.0014331,0.0332106,-0.000903888,0.0156307,0.484277,-1.01909,32.25,1,22536,2300769
76,1,0.999447,0.0014331,0.0332106,-0.000903888,-0.679832,-0.042924,9.79071,0.0937822,-0.560659,1.01182,-0.00679617,-0.00043606,0.0979072,1,3.34195e-05,1.08758e-05,2.03365e-05,0.00668391,0.00217517,0.00406729,0.999447,0.0014331,0.0332106,-0.000903888,0.0156307,0.484277,-1.01909,32.25,1,22536,2300769
76,2,0.999446,0.00144949,0.0332191,-0.00114391,-0.683067,-0.0482676,9.77848,0.0897045,-0.566415,1.00069,-0.00683157,-0.00049194,0.0977847,1,4.7192e-05,-4.62504e-06,2.53488e-06,0.00943839,-0.000925009,0.000506977,0.999446,0.00144949,0.0332191,-0.00114391,0.0170295,0.486225,-1.01956,32.25,1,22537,2300869
77,1,0.999446,0.00144949,0.0332191,-0.00114391,-0.683067,-0.0482676,9.77848,0.0897045,-0.566415,1.00069,-0.00683157,-0.00049194,0.0977847,1,4.7192e-05,-4.62504e-06,2.53488e-06,0.00943839,-0.000925009,0.000506977,0.999446,0.00144949,0.0332191,-0.00114391,0.0170295,0.486225,-1.01956,32.25,1,22537,2300869
77,2,0.999446,0.00144949,0.0332191,-0.00114391,-0.683067,-0.0482676,9.77848,0.0897045,-0.566415,1.00069,-0.00683157,-0.00049194,0.0977847,1,4.7192e-05,-4.62504e-06,2.53488e-06,0.00943839,-0.000925009,0.000506977,0.999446,0.00144949,0.0332191,-0.00114391,0.0170295,0.486225,-1.01956,32.25,1,22537,2300869
77,3,0.999448,0.00139318,0.0331622,-0.00174021,-0.686496,-0.039663,9.79452,0.085822,-0.556309,1.02064,-0.00686589,-0.000404299,0.0979451,1,3.78731e-05,-4.83764e-06,1.81684e-05,0.00757461,-0.000967528,0.00363367,0.999448,0.00139318,0.0331622,-0.00174021,0.0160013,0.485799,-1.02259,32.25,1,22538,2300969
77,4,0.999448,0.00139318,0.0331622,-0.00174021,-0.686496,-0.039663,9.79452,0.085822,-0.556309,1.02064,-0.00686589,-0.000404299,0.0979451,1,3.78731e-05,-4.83764e-06,1.81684e-05,0.00757461,-0.000967528,0.00363367,0.999448,0.00139318,0.0331622,-0.00174021,0.0160013,0.485799,-1.02259,32.25,1,22538,2300969
78,1,0.999448,0.00139318,0.0331622,-0.00174021,-0.686496,-0.039663,9.79452,0.085822,-0.556309,1.02064,-0.00686589,-0.000404299,0.0979451,1,3.78731e-05,-4.83764e-06,1.81684e-05,0.00757461,-0.000967528,0.00363367,0.999448,0.00139318,0.0331622,-0.00174021,0.0160013,0.485799,-1.02259,32.25,1,22538,2300969
78,2,0.999451,0.0013257,0.0330363,-0.00238227,-0.674486,-0.0506923,9.78587,0.0907389,-0.568512,1.00915,-0.00674644,-0.000514642,0.0978585,1,3.80017e-05,-8.17151e-06,2.08523e-05,0.00760034,-0.0016343,0.00417046,0.999451,0.0013257,0.0330363,-0.00238227,0.0145821,0.484348,-1.02262,32.25,1,22539,2301069
79,1,0.999451,0.0013257,0.0330363,-0.00238227,-0.674486,-0.0506923,9.78587,0.0907389,-0.568512,1.00915,-0.00674644,-0.000514642,0.0978585,1,3.80017e-05,-8.17151e-06,2.08523e-05,0.00760034,-0.0016343,0.00417046,0.999451,0.0013257,0.0330363,-0.00238227,0.0145821,0.484348,-1.02262,32.25,1,22539,2301069
79,2,0.999451,0.0013257,0.0330363,-0.00238227,-0.674486,-0.0506923,9.78587,0.0907389,-0.568512,1.00915,-0.00674644,-0.000514642,0.0978585,1,3.80017e-05,-8.17151e-06,2.08523e-05,0.00760034,-0.0016343,0.00417046,0.999451,0.0013257,0.0330363,-0.00238227,0.0145821,0.484348,-1.02262,32.25,1,22539,2301069
79,3,0.999452,0.00133111,0.0329559,-0.00275216,-0.684217,-0.0417843,9.7843,0.0766625,-0.557409,1.01024,-0.00684187,-0.00042636,0.097843,1,4.22671e-05,1.49583e-06,1.79579e-05,0.00845342,0.000299165,0.00359158,0.999452,0.00133111,0.0329559,-0.00275216,0.0131839,0.483845,-1.02111,32.25,1,22540,2301169
79,4,0.999452,0.00133111,0.0329559,-0.00275216,-0.684217,-0.0417843,9.7843,0.0766625,-0.557409,1.01024,-0.00684187,-0.00042636,0.097843,1,4.22671e-05,1.49583e-06,1.79579e-05,0.00845342,0.000299165,0.00359158,0.999452,0.00133111,0.0329559,-0.00275216,0.0131839,0.483845,-1.02111,32.25,1,22540,2301169
80,1,0.999452,0.00133111,0.0329559,-0.00275216,-0.684217,-0.0417843,9.7843,0.0766625,-0.557409,1.01024,-0.00684187,-0.00042636,0.097843,1,4.22671e-05,1.49583e-06,1.79579e-05,0.00845342,0.000299165,0.00359158,0.999452,0.00133111,0.0329559,-0.00275216,0.0131839,0.483845,-1.02111,32.25,1,22540,2301169
80,2,0.999452,0.00142712,0.0329404,-0.00294872,-0.69698,-0.0399598,9.79086,0.0615436,-0.550372,1.01127,-0.00696996,-0.000406139,0.0979086,1,3.2818e-05,-8.56819e-07,8.24202e-06,0.0065636,-0.000171364,0.0016484,0.999452,0.00142712,0.0329404,-0.00294872,0.0141708,0.483819,-1.0201,32.25,1,22541,2301269
81,1,0.999452,0.00142712,0.0329404,-0.00294872,-0.69698,-0.0399598,9.79086,0.0615436,-0.550372,1.01127,-0.00696996,-0.000406139,0.0979086,1,3.2818e-05,-8.56819e-07,8.24202e-06,0.0065636,-0.000171364,0.0016484,0.999452,0.00142712,0.0329404,-0.00294872,0.0141708,0.483819,-1.0201,32.25,1,22541,2301269
81,2,0.999452,0.00142712,0.0329404,-0.00294872,-0.69698,-0.0399598,9.79086,0.0615436,-0.550372,1.01127,-0.00696996,-0.000406139,0.0979086,1,3.2818e-05,-8.56819e-07,8.24202e-06,0.0065636,-0.000171364,0.0016484,0.999452,0.00142712,0.0329404,-0.00294872,0.0141708,0.483819,-1.0201,32.25,1,22541,2301269
82,1,0.999451,0.00148331,0.0329492,-0.00318385,-0.687297,-0.0484779,9.79548,0.0730948,-0.564542,1.01836,-0.00687631,-0.000492111,0.0979545,1,3.75527e-05,-1.70267e-05,-1.7713e-06,0.00751053,-0.00340535,-0.000354259,0.999451,0.00148331,0.0329492,-0.00318385,0.0165887,0.48379,-1.01961,32.25,1,22542,2301369
82,2,0.999451,0.00148331,0.0329492,-0.00318385,-0.687297,-0.0484779,9.79548,0.0730948,-0.564542,1.01836,-0.00687631,-0.000492111,0.0979545,1,3.75527e-05,-1.70267e-05,-1.7713e-06,0.00751053,-0.00340535,-0.000354259,0.999451,0.00148331,0.0329492,-0.00318385,0.0165887,0.48379,-1.01961,32.25,1,22542,2301369
84,1,0.999451,0.00148331,0.0329492,-0.00318385,-0.687297,-0.0484779,9.79548,0.0730948,-0.564542,1.01836,-0.00687631,-0.000492111,0.0979545,1,3.75527e-05,-1.70267e-05,-1.7713e-06,0.00751053,-0.00340535,-0.000354259,0.999451,0.00148331,0.0329492,-0.00318385,0.0165887,0.48379,-1.01961,32.25,1,22542,2301369
84,2,0.999449,0.00142294,0.0329805,-0.0034658,-0.681722,-0.042838,9.78293,0.0756327,-0.557068,1.0058,-0.00681903,-0.000436062,0.0978291,1,3.87281e-05,-9.30567e-06,7.67044e-06,0.00774562,-0.00186113,0.00153409,0.999449,0.00142294,0.0329805,-0.0034658,0.0165071,0.485777,-1.02159,32.25,1,22543,2301469
86,1,0.999449,0.00142294,0.0329805,-0.0034658,-0.681722,-0.042838,9.78293,0.0756327,-0.557068,1.0058,-0.00681903,-0.000436062,0.0978291,1,3.87281e-05,-9.30567e-06,7.67044e-06,0.00774562,-0.00186113,0.00153409,0.999449,0.00142294,0.0329805,-0.0034658,0.0165071,0.485777,-1.02159,32.25,1,22543,2301469
86,2,0.999449,0.00142294,0.0329805,-0.0034658,-0.681722,-0.042838,9.78293,0.0756327,-0.557068,1.0058,-0.00681903,-0.000436062,0.0978291,1,3.87281e-05,-9.30567e-06,7.67044e-06,0.00774562,-0.00186113,0.00153409,0.999449,0.00142294,0.0329805,-0.0034658,0.0165071,0.485777,-1.02159,32.25,1,22543,2301469
87,1,0.99945,0.00131887,0.0328512,-0.00431733,-0.678913,-0.050562,9.78895,0.0836741,-0.563137,1.01079,-0.00679052,-0.000510597,0.0978894,1,2.44267e-05,-7.16749e-06,1.43647e-05,0.00488534,-0.0014335,0.00287294,0.99945,0.00131887,0.0328512,-0.00431733,0.0145783,0.485315,-1.02209,32.25,1,22544,2301569
87,2,0.99945,0.00131887,0.0328512,-0.00431733,-0.678913,-0.050562,9.78895,0.0836741,-0.563137,1.01079,-0.00679052,-0.000510597,0.0978894,1,2.44267e-05,-7.16749e-06,1.43647e-05,0.00488534,-0.0014335,0.00287294,0.99945,0.00131887,0.0328512,-0.00431733,0.0145783,0.485315,-1.02209,32.25,1,22544,2301569
88,1,0.99945,0.00131887,0.0328512,-0.00431733,-0.678913,-0.050562,9.78895,0.0836741,-0.563137,1.01079,-0.00679052,-0.000510597,0.0978894,1,2.44267e-05,-7.16749e-06,1.43647e-05,0.00488534,-0.0014335,0.00287294,0.99945,0.00131887,0.0328512,-0.00431733,0.0145783,0.485315,-1.02209,32.25,1,22544,2301569
88,2,0.999451,0.00132787,0.0327116,-0.00500718,-0.675826,-0.0448559,9.78254,0.0739929,-0.560556,1.01023,-0.00676113,-0.000455985,0.0978252,1,3.60478e-05,-1.48266e-05,2.76695e-05,0.00720957,-0.00296532,0.00553391,0.999451,0.00132787,0.0327116,-0.00500718,0.0131673,0.483376,-1.02213,32.25,1,22545,2301669
88,3,0.999451,0.00132787,0.0327116,-0.00500718,-0.675826,-0.0448559,9.78254,0.0739929,-0.560556,1.01023,-0.00676113,-0.000455985,0.0978252,1,3.60478e-05,-1.48266e-05,2.76695e-05,0.00720957,-0.00296532,0.00553391,0.999451,0.00132787,0.0327116,-0.00500718,0.0131673,0.483376,-1.02213,32.25,1,22545,2301669
88,4,0.999451,0.00132787,0.0327116,-0.00500718,-0.675826,-0.0448559,9.78254,0.0739929,-0.560556,1.01023,-0.00676113,-0.000455985,0.0978252,1,3.60478e-05,-1.48266e-05,2.76695e-05,0.00720957,-0.00296532,0.00553391,0.999451,0.00132787,0.0327116,-0.00500718,0.0131673,0.483376,-1.02213,32.25,1,22545,2301669
88,5,0.999452,0.00143916,0.0326953,-0.0049708,-0.683919,-0.0562907,9.79029,0.0651726,-0.571152,1.01154,-0.00684058,-0.000569712,0.0979028,1,3.38536e-05,-7.17679e-06,1.28671e-05,0.00677072,-0.00143536,0.00257342,0.999452,0.00143916,0.0326953,-0.0049708,0.0156137,0.482362,-1.02115,32.25,1,22546,2301769
88,6,0.999452,0.00143916,0.0326953,-0.0049708,-0.683919,-0.0562907,9.79029,0.0651726,-0.571152,1.01154,-0.00684058,-0.000569712,0.0979028,1,3.38536e-05,-7.17679e-06,1.28671e-05,0.00677072,-0.00143536,0.00257342,0.999452,0.00143916,0.0326953,-0.0049708,0.0156137,0.482362,-1.02115,32.25,1,22546,2301769
89,1,0.999452,0.00143916,0.0326953,-0.0049708,-0.683919,-0.0562907,9.79029,0.0651726,-0.571152,1.01154,-0.00684058,-0.000569712,0.0979028,1,3.38536e-05,-7.17679e-06,1.28671e-05,0.00677072,-0.00143536,0.00257342,0.999452,0.00143916,0.0326953,-0.0049708,0.0156137,0.482362,-1.02115,32.25,1,22546,2301769
89,2,0.999451,0.0014314,0.0327721,-0.00469627,-0.685696,-0.0476356,9.7914,0.0650101,-0.567293,1.01753,-0.0068582,-0.000485057,0.0979138,1,4.33158e-05,-6.40741e-06,1.59405e-05,0.00866316,-0.00128148,0.00318809,0.999451,0.0014314,0.0327721,-0.00469627,0.0160872,0.484291,-1.0201,32.25,1,22547,2301869
91,1,0.999451,0.0014314,0.0327721,-0.00469627,-0.685696,-0.0476356,9.7914,0.0650101,-0.567293,1.01753,-0.0068582,-0.000485057,0.0979138,1,4.33158e-05,-6.40741e-06,1.59405e-05,0.00866316,-0.00128148,0.00318809,0.999451,0.0014314,0.0327721,-0.00469627,0.0160872,0.484291,-1.0201,32.25,1,22547,2301869
91,2,0.999451,0.0014314,0.0327721,-0.00469627,-0.685696,-0.0476356,9.7914,0.0650101,-0.567293,1.01753,-0.0068582,-0.000485057,0.0979138,1,4.33158e-05,-6.40741e-06,1.59405e-05,0.00866316,-0.00128148,0.00318809,0.999451,0.0014314,0.0327721,-0.00469627,0.0160872,0.484291,-1.0201,32.25,1,22547,2301869
92,1,0.99945,0.00141599,0.0327678,-0.00498164,-0.668026,-0.0406394,9.78964,0.0823399,-0.555334,1.01258,-0.0066831,-0.000415111,0.0978962,1,4.38448e-05,-1.45285e-05,9.90752e-06,0.00876896,-0.00290571,0.0019815,0.99945,0.00141599,0.0327678,-0.00498164,0.0170171,0.486234,-1.02006,32.25,1,22548,2301969
92,2,0.99945,0.00141599,0.0327678,-0.00498164,-0.668026,-0.0406394,9.78964,0.0823399,-0.555334,1.01258,-0.0066831,-0.000415111,0.0978962,1,4.38448e-05,-1.45285e-05,9.90752e-06,0.00876896,-0.00290571,0.0019815,0.99945,0.00141599,0.0327678,-0.00498164,0.0170171,0.486234,-1.02006,32.25,1,22548,2301969
95,1,0.99945,0.00141599,0.0327678,-0.00498164,-0.668026,-0.0406394,9.78964,0.0823399,-0.555334,1.01258,-0.0066831,-0.000415111,0.0978962,1,4.38448e-05,-1.45285e-05,9.90752e-06,0.00876896,-0.00290571,0.0019815,0.99945,0.00141599,0.0327678,-0.00498164,0.0170171,0.486234,-1.02006,32.25,1,22548,2301969
95,2,0.999448,0.00136117,0.0327124,-0.00555972,-0.677947,-0.0494503,9.78861,0.0731813,-0.563741,1.0106,-0.0067808,-0.000500861,0.097886,1,3.10613e-05,-6.91794e-06,2.04614e-05,0.00621226,-0.00138359,0.00409228,0.999448,0.00136117,0.0327124,-0.00555972,0.016499,0.486265,-1.02158,32.25,1,22549,2302069
96,1,0.999448,0.00136117,0.0327124,-0.00555972,-0.677947,-0.0494503,9.78861,0.0731813,-0.563741,1.0106,-0.0067808,-0.000500861,0.097886,1,3.10613e-05,-6.91794e-06,2.04614e-05,0.00621226,-0.00138359,0.00409228,0.999448,0.00136117,0.0327124,-0.00555972,0.016499,0.486265,-1.02158,32.25,1,22549,2302069
96,2,0.999448,0.00136117,0.0327124,-0.00555972,-0.677947,-0.0494503,9.78861,0.0731813,-0.563741,1.0106,-0.0067808,-0.000500861,0.097886,1,3.10613e-05,-6.91794e-06,2.04614e-05,0.00621226,-0.00138359,0.00409228,0.999448,0.00136117,0.0327124,-0.00555972,0.016499,0.486265,-1.02158,32.25,1,22549,2302069
98,1,0.999449,0.00132965,0.0326382,-0.00595748,-0.67536,-0.0487567,9.78726,0.0707802,-0.563728,1.01161,-0.00675771,-0.000492832,0.0978722,1,2.63993e-05,-2.10236e-05,7.21585e-06,0.00527987,-0.00420472,0.00144317,0.999449,0.00132965,0.0326382,-0.00595748,0.0145741,0.484836,-1.02261,32.25,1,22550,2302169
98,2,0.999449,0.00132965,0.0326382,-0.00595748,-0.67536,-0.0487567,9.78726,0.0707802,-0.563728,1.01161,-0.00675771,-0.000492832,0.0978722,1,2.63993e-05,-2.10236e-05,7.21585e-06,0.00527987,-0.00420472,0.00144317,0.999449,0.00132965,0.0326382,-0.00595748,0.0145741,0.484836,-1.02261,32.25,1,22550,2302169
98,3,0.999449,0.00132965,0.0326382,-0.00595748,-0.67536,-0.0487567,9.78726,0.0707802,-0.563728,1.01161,-0.00675771,-0.000492832,0.0978722,1,2.63993e-05,-2.10236e-05,7.21585e-06,0.00527987,-0.00420472,0.00144317,0.999449,0.00132965,0.0326382,-0.00595748,0.0145741,0.484836,-1.02261,32.25,1,22550,2302169
98,4,0.999449,0.00137784,0.0326195,-0.0059613,-0.692611,-0.040487,9.78098,0.0543834,-0.551061,1.00403,-0.00692831,-0.000414325,0.0978096,1,4.73055e-05,-1.12974e-05,1.45119e-05,0.0094611,-0.00225947,0.00290237,0.999449,0.00137784,0.0326195,-0.0059613,0.0140844,0.483882,-1.02364,32.25,1,22551,2302269
98,5,0.999449,0.00137784,0.0326195,-0.0059613,-0.692611,-0.040487,9.78098,0.0543834,-0.551061,1.00403,-0.00692831,-0.000414325,0.0978096,1,4.73055e-05,-1.12974e-05,1.45119e-05,0.0094611,-0.00225947,0.00290237,0.999449,0.00137784,0.0326195,-0.0059613,0.0140844,0.483882,-1.02364,32.25,1,22551,2302269
98,6,0.999449,0.00137784,0.0326195,-0.0059613,-0.692611,-0.040487,9.78098,0.0543834,-0.551061,1.00403,-0.00692831,-0.000414325,0.0978096,1,4.73055e-05,-1.12974e-05,1.45119e-05,0.0094611,-0.00225947,0.00290237,0.999449,0.00137784,0.0326195,-0.0059613,0.0140844,0.483882,-1.02364,32.25,1,22551,2302269
99,1,0.99945,0.00140735,0.0326029,-0.00589423,-0.682415,-0.047113,9.78665,0.0628513,-0.56355,1.0106,-0.00682908,-0.000478176,0.0978661,1,3.54108e-05,-2.52389e-05,8.3981e-06,0.00708217,-0.00504778,0.00167962,0.99945,0.00140735,0.0326029,-0.00589423,0.0155852,0.483347,-1.02164,32.25,1,22552,2302369
99,2,0.99945,0.00140735,0.0326029,-0.00589423,-0.682415,-0.047113,9.78665,0.0628513,-0.56355,1.0106,-0.00682908,-0.000478176,0.0978661,1,3.54108e-05,-2.52389e-05,8.3981e-06,0.00708217,-0.00504778,0.00167962,0.99945,0.00140735,0.0326029,-0.00589423,0.0155852,0.483347,-1.02164,32.25,1,22552,2302369
100,1,0.99945,0.00140735,0.0326029,-0.00589423,-0.682415,-0.047113,9.78665,0.0628513,-0.56355,1.0106,-0.00682908,-0.000478176,0.0978661,1,3.54108e-05,-2.52389e-05,8.3981e-06,0.00708217,-0.00504778,0.00167962,0.99945,0.00140735,0.0326029,-0.00589423,0.0155852,0.483347,-1.02164,32.25,1,22552,2302369
100,2,0.999449,0.00141919,0.0326253,-0.00585843,-0.688223,-0.0314001,9.78714,0.0597934,-0.549815,1.01215,-0.00688298,-0.000320385,0.0978714,1,3.23765e-05,-3.82977e-06,3.39728e-06,0.0064753,-0.000765954,0.000679456,0.999449,0.00141919,0.0326253,-0.00585843,0.0161199,0.483785,-1.0191,32.25,1,22553,2302469
100,3,0.999449,0.00141919,0.0326253,-0.00585843,-0.688223,-0.0314001,9.78714,0.0597934,-0.549815,1.01215,-0.00688298,-0.000320385,0.0978714,1,3.23765e-05,-3.82977e-06,3.39728e-06,0.0064753,-0.000765954,0.000679456,0.999449,0.00141919,0.0326253,-0.00585843,0.0161199,0.483785,-1.0191,32.25,1,22553,2302469
100,4,0.999449,0.00141919,0.0326253,-0.00585843,-0.688223,-0.0314001,9.78714,0.0597934,-0.549815,1.01215,-0.00688298,-0.000320385,0.0978714,1,3.23765e-05,-3.82977e-06,3.39728e-06,0.0064753,-0.000765954,0.000679456,0.999449,0.00141919,0.0326253,-0.00585843,0.0161199,0.483785,-1.0191,32.25,1,22553,2302469
101,1,0.999449,0.00143979,0.0326417,-0.00584581,-0.673232,-0.0465589,9.78216,0.0711996,-0.560185,1.004,-0.00673333,-0.000473274,0.0978215,1,3.77707e-05,-5.2619e-06,2.19271e-05,0.00755414,-0.00105238,0.00438542,0.999449,0.00143979,0.0326417,-0.00584581,0.015635,0.484756,-1.01858,32.25,1,22554,2302569
101,2,0.999449,0.00143979,0.0326417,-0.00584581,-0.673232,-0.0465589,9.78216,0.0711996,-0.560185,1.004,-0.00673333,-0.000473274,0.0978215,1,3.77707e-05,-5.2619e-06,2.19271e-05,0.00755414,-0.00105238,0.00438542,0.999449,0.00143979,0.0326417,-0.00584581,0.015635,0.484756,-1.01858,32.25,1,22554,2302569
101,3,0.999449,0.00143979,0.0326417,-0.00584581,-0.673232,-0.0465589,9.78216,0.0711996,-0.560185,1.004,-0.00673333,-0.000473274,0.0978215,1,3.77707e-05,-5.2619e-06,2.19271e-05,0.00755414,-0.00105238,0.00438542,0.999449,0.00143979,0.0326417,-0.00584581,0.015635,0.484756,-1.01858,32.25,1,22554,2302569
101,4,0.999449,0.00144979,0.0326508,-0.00585132,-0.678813,-0.0377281,9.7765,0.0660454,-0.552683,1.00006,-0.00678919,-0.00038273,0.0977649,1,2.6973e-05,-5.45368e-06,1.28803e-05,0.00539459,-0.00109074,0.00257607,0.999449,0.00144979,0.0326508,-0.00585132,0.0155325,0.485794,-1.02209,32.25,1,22555,2302669
103,1,0.999449,0.00144979,0.0326508,-0.00585132,-0.678813,-0.0377281,9.7765,0.0660454,-0.552683,1.00006,-0.00678919,-0.00038273,0.0977649,1,2.6973e-05,-5.45368e-06,1.28803e-05,0.00539459,-0.00109074,0.00257607,0.999449,0.00144979,0.0326508,-0.00585132,0.0155325,0.485794,-1.02209,32.25,1,22555,2302669
103,2,0.999449,0.00144979,0.0326508,-0.00585132,-0.678813,-0.0377281,9.7765,0.0660454,-0.552683,1.00006,-0.00678919,-0.00038273,0.0977649,1,2.6973e-05,-5.45368e-06,1.28803e-05,0.00539459,-0.00109074,0.00257607,0.999449,0.00144979,0.0326508,-0.00585132,0.0155325,0.485794,-1.02209,32.25,1,22555,2302669
103,3,0.999448,0.00146731,0.0326612,-0.00586223,-0.670034,-0.0537771,9.79767,0.0776774,-0.566042,1.01578,-0.00670079,-0.000545415,0.0979767,1,3.88324e-05,-2.34118e-06,2.57609e-06,0.00776648,-0.000468235,0.000515218,0.999448,0.00146731,0.0326612,-0.00586223,0.0164454,0.485822,-1.02411,32.25,1,22556,2302769
103,4,0.999448,0.00146731,0.0326612,-0.00586223,-0.670034,-0.0537771,9.79767,0.0776774,-0.566042,1.01578,-0.00670079,-0.000545415,0.0979767,1,3.88324e-05,-2.34118e-06,2.57609e-06,0.00776648,-0.000468235,0.000515218,0.999448,0.00146731,0.0326612,-0.00586223,0.0164454,0.485822,-1.02411,32.25,1,22556,2302769
104,1,0.999448,0.00146731,0.0326612,-0.00586223,-0.670034,-0.0537771,9.79767,0.0776774,-0.566042,1.01578,-0.00670079,-0.000545415,0.0979767,1,3.88324e-05,-2.34118e-06,2.57609e-06,0.00776648,-0.000468235,0.000515218,0.999448,0.00146731,0.0326612,-0.00586223,0.0164454,0.485822,-1.02411,32.25,1,22556,2302769
104,2,0.999448,0.00147742,0.0326588,-0.00585596,-0.688708,-0.0466982,9.78566,0.0547801,-0.562612,1.00925,-0.00689042,-0.000473401,0.0978564,1,3.17656e-05,-1.71269e-05,1.46759e-05,0.00635311,-0.00342538,0.00293517,0.999448,0.00147742,0.0326588,-0.00585596,0.0150305,0.48485,-1.02362,32.25,1,22557,2302869
104,3,0.999448,0.00147742,0.0326588,-0.00585596,-0.688708,-0.0466982,9.78566,0.0547801,-0.562612,1.00925,-0.00689042,-0.000473401,0.0978564,1,3.17656e-05,-1.71269e-05,1.46759e-05,0.00635311,-0.00342538,0.00293517,0.999448,0.00147742,0.0326588,-0.00585596,0.0150305,0.48485,-1.02362,32.25,1,22557,2302869
104,4,0.999448,0.00147742,0.0326588,-0.00585596,-0.688708,-0.0466982,9.78566,0.0547801,-0.562612,1.00925,-0.00689042,-0.000473401,0.0978564,1,3.17656e-05,-1.71269e-05,1.46759e-05,0.00635311,-0.00342538,0.00293517,0.999448,0.00147742,0.0326588,-0.00585596,0.0150305,0.48485,-1.02362,32.25,1,22557,2302869
105,1,0.999448,0.00149882,0.0326623,-0.005837,-0.679844,-0.0486582,9.79135,0.0706493,-0.5646,1.01467,-0.00680071,-0.000494688,0.0979133,1,3.98495e-05,-1.17049e-05,2.22902e-05,0.00796989,-0.00234098,0.00445804,0.999448,0.00149882,0.0326623,-0.005837,0.0151364,0.481399,-1.02168,32.25,1,22558,2302969
105,2,0.999448,0.00149882,0.0326623,-0.005837,-0.679844,-0.0486582,9.79135,0.0706493,-0.5646,1.01467,-0.00680071,-0.000494688,0.0979133,1,3.98495e-05,-1.17049e-05,2.22902e-05,0.00796989,-0.00234098,0.00445804,0.999448,0.00149882,0.0326623,-0.005837,0.0151364,0.481399,-1.02168,32.25,1,22558,2302969
105,3,0.999448,0.00149882,0.0326623,-0.005837,-0.679844,-0.0486582,9.79135,0.0706493,-0.5646,1.01467,-0.00680071,-0.000494688,0.0979133,1,3.98495e-05,-1.17049e-05,2.22902e-05,0.00796989,-0.00234098,0.00445804,0.999448,0.00149882,0.0326623,-0.005837,0.0151364,0.481399,-1.02168,32.25,1,22558,2302969
105,4,0.999448,0.00151646,0.0326711,-0.00584202,-0.680391,-0.0394871,9.78396,0.0666079,-0.55514,1.00757,-0.00680515,-0.000401711,0.0978395,1,3.47923e-05,-6.31816e-06,2.30405e-06,0.00695847,-0.00126363,0.000460811,0.999448,0.00151646,0.0326711,-0.00584202,0.015133,0.483811,-1.02011,32.25,1,22559,2303069
105,5,0.999448,0.00151646,0.0326711,-0.00584202,-0.680391,-0.0394871,9.78396,0.0666079,-0.55514,1.00757,-0.00680515,-0.000401711,0.0978395,1,3.47923e-05,-6.31816e-06,2.30405e-06,0.00695847,-0.00126363,0.000460811,0.999448,0.00151646,0.0326711,-0.00584202,0.015133,0.483811,-1.02011,32.25,1,22559,2303069
105,6,0.999448,0.00151646,0.0326711,-0.00584202,-0.680391,-0.0394871,9.78396,0.0666079,-0.55514,1.00757,-0.00680515,-0.000401711,0.0978395,1,3.47923e-05,-6.31816e-06,2.30405e-06,0.00695847,-0.00126363,0.000460811,0.999448,0.00151646,0.0326711,-0.00584202,0.015133,0.483811,-1.02011,32.25,1,22559,2303069
105,7,0.999448,0.00154054,0.0326789,-0.00582994,-0.676562,-0.0483694,9.79404,0.0702143,-0.562547,1.01738,-0.00676678,-0.000492102,0.0979402,1,4.15705e-05,-6.03109e-06,1.96269e-05,0.00831409,-0.00120622,0.00392538,0.999448,0.00154054,0.0326789,-0.00582994,0.015578,0.486725,-1.01954,32.25,1,22560,2303169
105,8,0.999448,0.00154054,0.0326789,-0.00582994,-0.676562,-0.0483694,9.79404,0.0702143,-0.562547,1.01738,-0.00676678,-0.000492102,0.0979402,1,4.15705e-05,-6.03109e-06,1.96269e-05,0.00831409,-0.00120622,0.00392538,0.999448,0.00154054,0.0326789,-0.00582994,0.015578,0.486725,-1.01954,32.25,1,22560,2303169
106,1,0.999448,0.00154054,0.0326789,-0.00582994,-0.676562,-0.0483694,9.79404,0.0702143,-0.562547,1.01738,-0.00676678,-0.000492102,0.0979402,1,4.15705e-05,-6.03109e-06,1.96269e-05,0.00831409,-0.00120622,0.00392538,0.999448,0.00154054,0.0326789,-0.00582994,0.015578,0.486725,-1.01954,32.25,1,22560,2303169
106,2,0.999447,0.00155871,0.0326874,-0.00581732,-0.673816,-0.050336,9.7879,0.0729355,-0.569873,1.01413,-0.0067392,-0.000510905,0.0978789,1,3.72529e-05,-5.40333e-06,1.86637e-05,0.00745059,-0.00108067,0.00373273,0.999447,0.00155871,0.0326874,-0.00581732,0.0155126,0.487736,-1.02154,32.25,1,22561,2303269
107,1,0.999447,0.00155871,0.0326874,-0.00581732,-0.673816,-0.050336,9.7879,0.0729355,-0.569873,1.01413,-0.0067392,-0.000510905,0.0978789,1,3.72529e-05,-5.40333e-06,1.86637e-05,0.00745059,-0.00108067,0.00373273,0.999447,0.00155871,0.0326874,-0.00581732,0.0155126,0.487736,-1.02154,32.25,1,22561,2303269
107,2,0.999447,0.00155871,0.0326874,-0.00581732,-0.673816,-0.050336,9.7879,0.0729355,-0.569873,1.01413,-0.0067392,-0.000510905,0.0978789,1,3.72529e-05,-5.40333e-06,1.86637e-05,0.00745059,-0.00108067,0.00373273,0.999447,0.00155871,0.0326874,-0.00581732,0.0155126,0.487736,-1.02154,32.25,1,22561,2303269
107,3,0.999447,0.00157481,0.0326962,-0.00579928,-0.678079,-0.0396158,9.77309,0.0629133,-0.559713,0.993019,-0.00678201,-0.000403588,0.0977308,1,3.64687e-05,-6.31996e-06,2.22419e-05,0.00729374,-0.00126399,0.00444838,0.999447,0.00157481,0.0326962,-0.00579928,0.0160013,0.485799,-1.02259,32.25,1,22562,2303369
107,4,0.999447,0.00157481,0.0326962,-0.00579928,-0.678079,-0.0396158,9.77309,0.0629133,-0.559713,0.993019,-0.00678201,-0.000403588,0.0977308,1,3.64687e-05,-6.31996e-06,2.22419e-05,0.00729374,-0.00126399,0.00444838,0.999447,0.00157481,0.0326962,-0.00579928,0.0160013,0.485799,-1.02259,32.25,1,22562,2303369
109,1,0.999447,0.00157481,0.0326962,-0.00579928,-0.678079,-0.0396158,9.77309,0.0629133,-0.559713,0.993019,-0.00678201,-0.000403588,0.0977308,1,3.64687e-05,-6.31996e-06,2.22419e-05,0.00729374,-0.00126399,0.00444838,0.999447,0.00157481,0.0326962,-0.00579928,0.0160013,0.485799,-1.02259,32.25,1,22562,2303369
109,2,0.999447,0.00160089,0.0327022,-0.00580278,-0.681612,-0.052077,9.7876,0.0594511,-0.572845,1.0104,-0.00681797,-0.000529938,0.0978758,1,4.654e-05,-9.4883e-06,4.21897e-06,0.00930801,-0.00189766,0.000843794,0.999447,0.00160089,0.0327022,-0.00580278,0.0165066,0.484332,-1.02263,32.25,1,22563,2303469
110,1,0.999447,0.00160089,0.0327022,-0.00580278,-0.681612,-0.052077,9.7876,0.0594511,-0.572845,1.0104,-0.00681797,-0.000529938,0.0978758,1,4.654e-05,-9.4883e-06,4.21897e-06,0.00930801,-0.00189766,0.000843794,0.999447,0.00160089,0.0327022,-0.00580278,0.0165066,0.484332,-1.02263,32.25,1,22563,2303469
110,2,0.999447,0.00160089,0.0327022,-0.00580278,-0.681612,-0.052077,9.7876,0.0594511,-0.572845,1.0104,-0.00681797,-0.000529938,0.0978758,1,4.654e-05,-9.4883e-06,4.21897e-06,0.00930801,-0.00189766,0.000843794,0.999447,0.00160089,0.0327022,-0.00580278,0.0165066,0.484332,-1.02263,32.25,1,22563,2303469
111,1,0.999447,0.00163467,0.0327076,-0.00579918,-0.672936,-0.0600922,9.79189,0.070094,-0.581442,1.01549,-0.00673124,-0.000611573,0.0979187,1,5.35064e-05,-9.7137e-06,1.27849e-05,0.0107013,-0.00194274,0.00255698,0.999447,0.00163467,0.0327076,-0.00579918,0.0155733,0.484801,-1.0211,32.25,1,22564,2303569
111,2,0.999447,0.00163467,0.0327076,-0.00579918,-0.672936,-0.0600922,9.79189,0.070094,-0.581442,1.01549,-0.00673124,-0.000611573,0.0979187,1,5.35064e-05,-9.7137e-06,1.27849e-05,0.0107013,-0.00194274,0.00255698,0.999447,0.00163467,0.0327076,-0.00579918,0.0155733,0.484801,-1.0211,32.25,1,22564,2303569
111,3,0.999447,0.00163467,0.0327076,-0.00579918,-0.672936,-0.0600922,9.79189,0.070094,-0.581442,1.01549,-0.00673124,-0.000611573,0.0979187,1,5.35064e-05,-9.7137e-06,1.27849e-05,0.0107013,-0.00194274,0.00255698,0.999447,0.00163467,0.0327076,-0.00579918,0.0155733,0.484801,-1.0211,32.25,1,22564,2303569
