frame_id,imu_idx,quat_w,quat_x,quat_y,quat_z,accel_x,accel_y,accel_z,free_accel_x,free_accel_y,free_accel_z,delta_v_x,delta_v_y,delta_v_z,delta_q_w,delta_q_x,delta_q_y,delta_q_z,rate_x,rate_y,rate_z,quat_w,quat_x,quat_y,quat_z,mag_x,mag_y,mag_z,temperature,status_byte,packet_counter,time_fine
1,1,0.983444,0.0351461,0.0298651,0.175244,-0.719111,0.00372743,9.79086,0.351227,-1.22847,0.877446,-0.00719176,2.82261e-05,0.0979085,1,4.53778e-05,-3.32111e-06,1.12931e-05,0.00907556,-0.000664221,0.00225862,0.983444,0.0351461,0.0298651,0.175244,0.0740621,0.359636,-0.978696,33,3,5305,582125
1,2,0.983444,0.0351461,0.0298651,0.175244,-0.522616,-0.0411832,7.34817,0.351227,-1.22847,0.877446,-0.00522677,-0.000417328,0.0734816,1,3.83276e-05,-4.04032e-06,-1.30925e-05,0.00766552,-0.000808063,-0.00261851,0.983444,0.0351461,0.0298651,0.175244,0.0358562,0.477831,-1.02286,33.1875,1,14701,1523253
3,1,0.983444,0.0351461,0.0298651,0.175244,-0.522616,-0.0411832,7.34817,0.351227,-1.22847,0.877446,-0.00522677,-0.000417328,0.0734816,1,3.83276e-05,-4.04032e-06,-1.30925e-05,0.00766552,-0.000808063,-0.00261851,0.983444,0.0351461,0.0298651,0.175244,0.0358562,0.477831,-1.02286,33.1875,1,14701,1523253
3,2,0.983444,0.0351461,0.0298651,0.175244,-0.522616,-0.0411832,7.34817,0.351227,-1.22847,0.877446,-0.00522677,-0.000417328,0.0734816,1,3.83276e-05,-4.04032e-06,-1.30925e-05,0.00766552,-0.000808063,-0.00261851,0.983444,0.0351461,0.0298651,0.175244,0.0358562,0.477831,-1.02286,33.1875,1,14701,1523253
3,3,0.999366,-0.00280141,0.0354993,-8.69239e-05,-0.684714,-0.0724387,9.78296,0.120651,-0.483905,1.01741,-0.00684681,-0.000730221,0.0978296,1,2.8789e-05,1.5609e-06,1.46591e-05,0.00575781,0.00031218,0.00293181,0.999366,-0.00280141,0.0354993,-8.69239e-05,0.0357907,0.478843,-1.02486,33.1875,1,14702,1523353
3,4,0.999366,-0.00280141,0.0354993,-8.69239e-05,-0.684714,-0.0724387,9.78296,0.120651,-0.483905,1.01741,-0.00684681,-0.000730221,0.0978296,1,2.8789e-05,1.5609e-06,1.46591e-05,0.00575781,0.00031218,0.00293181,0.999366,-0.00280141,0.0354993,-8.69239e-05,0.0357907,0.478843,-1.02486,33.1875,1,14702,1523353
3,5,0.999366,-0.00280141,0.0354993,-8.69239e-05,-0.684714,-0.0724387,9.78296,0.120651,-0.483905,1.01741,-0.00684681,-0.000730221,0.0978296,1,2.8789e-05,1.5609e-06,1.46591e-05,0.00575781,0.00031218,0.00293181,0.999366,-0.00280141,0.0354993,-8.69239e-05,0.0357907,0.478843,-1.02486,33.1875,1,14702,1523353
3,6,0.999366,-0.00275087,0.035493,-8.84956e-05,-0.697743,-0.0799229,9.79554,0.113391,-0.496192,1.03062,-0.00697853,-0.000809318,0.0979553,1,5.13848e-05,-5.65662e-06,1.64095e-06,0.010277,-0.00113132,0.00032819,0.999366,-0.00275087,0.035493,-8.84956e-05,0.0357125,0.478418,-1.02841,33.1875,1,14703,1523453
4,1,0.999366,-0.00275087,0.035493,-8.84956e-05,-0.697743,-0.0799229,9.79554,0.113391,-0.496192,1.03062,-0.00697853,-0.000809318,0.0979553,1,5.13848e-05,-5.65662e-06,1.64095e-06,0.010277,-0.00113132,0.00032819,0.999366,-0.00275087,0.035493,-8.84956e-05,0.0357125,0.478418,-1.02841,33.1875,1,14703,1523453
4,2,0.999366,-0.00275087,0.035493,-8.84956e-05,-0.697743,-0.0799229,9.79554,0.113391,-0.496192,1.03062,-0.00697853,-0.000809318,0.0979553,1,5.13848e-05,-5.65662e-06,1.64095e-06,0.010277,-0.00113132,0.00032819,0.999366,-0.00275087,0.035493,-8.84956e-05,0.0357125,0.478418,-1.02841,33.1875,1,14703,1523453
12,1,0.999366,-0.00271975,0.0354882,-7.34844e-05,-0.682284,-0.0669307,9.7813,0.119928,-0.478619,1.02006,-0.00682376,-0.000675567,0.0978129,1,3.08715e-05,-4.82048e-06,1.61714e-05,0.00617431,-0.000964096,0.00323428,0.999366,-0.00271975,0.0354882,-7.34844e-05,0.0367682,0.474969,-1.02697,33.1875,1,14704,1523553
12,2,0.999366,-0.00271975,0.0354882,-7.34844e-05,-0.682284,-0.0669307,9.7813,0.119928,-0.478619,1.02006,-0.00682376,-0.000675567,0.0978129,1,3.08715e-05,-4.82048e-06,1.61714e-05,0.00617431,-0.000964096,0.00323428,0.999366,-0.00271975,0.0354882,-7.34844e-05,0.0367682,0.474969,-1.02697,33.1875,1,14704,1523553
12,3,0.999366,-0.00271975,0.0354882,-7.34844e-05,-0.682284,-0.0669307,9.7813,0.119928,-0.478619,1.02006,-0.00682376,-0.000675567,0.0978129,1,3.08715e-05,-4.82048e-06,1.61714e-05,0.00617431,-0.000964096,0.00323428,0.999366,-0.00271975,0.0354882,-7.34844e-05,0.0367682,0.474969,-1.02697,33.1875,1,14704,1523553
12,4,0.999367,-0.00267739,0.0354828,-7.80772e-05,-0.686104,-0.071497,9.77722,0.118967,-0.491042,1.01857,-0.00686211,-0.000723254,0.097772,1,4.25726e-05,-5.45238e-06,-3.00605e-06,0.00851453,-0.00109048,-0.000601209,0.999367,-0.00267739,0.0354828,-7.80772e-05,0.0358268,0.475925,-1.02543,33.1875,1,14705,1523653
10,1,0.999367,-0.00267739,0.0354828,-7.80772e-05,-0.686104,-0.071497,9.77722,0.118967,-0.491042,1.01857,-0.00686211,-0.000723254,0.097772,1,4.25726e-05,-5.45238e-06,-3.00605e-06,0.00851453,-0.00109048,-0.000601209,0.999367,-0.00267739,0.0354828,-7.80772e-05,0.0358268,0.475925,-1.02543,33.1875,1,14705,1523653
10,2,0.999367,-0.00267739,0.0354828,-7.80772e-05,-0.686104,-0.071497,9.77722,0.118967,-0.491042,1.01857,-0.00686211,-0.000723254,0.097772,1,4.25726e-05,-5.45238e-06,-3.00605e-06,0.00851453,-0.00109048,-0.000601209,0.999367,-0.00267739,0.0354828,-7.80772e-05,0.0358268,0.475925,-1.02543,33.1875,1,14705,1523653
10,3,0.999367,-0.00263679,0.0354706,-5.60037e-05,-0.680224,-0.0713619,9.78499,0.123145,-0.48263,1.02208,-0.0068046,-0.000721546,0.0978496,1,3.88919e-05,-1.22229e-05,2.32105e-05,0.00777838,-0.00244458,0.0046421,0.999367,-0.00263679,0.0354706,-5.60037e-05,0.0358472,0.475428,-1.02494,33.1875,1,14706,1523753
10,4,0.999367,-0.00263679,0.0354706,-5.60037e-05,-0.680224,-0.0713619,9.78499,0.123145,-0.48263,1.02208,-0.0068046,-0.000721546,0.0978496,1,3.88919e-05,-1.22229e-05,2.32105e-05,0.00777838,-0.00244458,0.0046421,0.999367,-0.00263679,0.0354706,-5.60037e-05,0.0358472,0.475428,-1.02494,33.1875,1,14706,1523753
14,1,0.999367,-0.00263679,0.0354706,-5.60037e-05,-0.680224,-0.0713619,9.78499,0.123145,-0.48263,1.02208,-0.0068046,-0.000721546,0.0978496,1,3.88919e-05,-1.22229e-05,2.32105e-05,0.00777838,-0.00244458,0.0046421,0.999367,-0.00263679,0.0354706,-5.60037e-05,0.0358472,0.475428,-1.02494,33.1875,1,14706,1523753
14,2,0.999367,-0.00258819,0.0354668,-4.30106e-05,-0.691006,-0.0768132,9.79281,0.115718,-0.493569,1.03134,-0.00691076,-0.000777785,0.097928,1,4.82481e-05,-3.72375e-06,1.47335e-05,0.00964962,-0.00074475,0.0029467,0.999367,-0.00258819,0.0354668,-4.30106e-05,0.0343754,0.476425,-1.02541,33.1875,1,14707,1523853
14,3,0.999367,-0.00258819,0.0354668,-4.30106e-05,-0.691006,-0.0768132,9.79281,0.115718,-0.493569,1.03134,-0.00691076,-0.000777785,0.097928,1,4.82481e-05,-3.72375e-06,1.47335e-05,0.00964962,-0.00074475,0.0029467,0.999367,-0.00258819,0.0354668,-4.30106e-05,0.0343754,0.476425,-1.02541,33.1875,1,14707,1523853
14,4,0.999367,-0.00258819,0.0354668,-4.30106e-05,-0.691006,-0.0768132,9.79281,0.115718,-0.493569,1.03134,-0.00691076,-0.000777785,0.097928,1,4.82481e-05,-3.72375e-06,1.47335e-05,0.00964962,-0.00074475,0.0029467,0.999367,-0.00258819,0.0354668,-4.30106e-05,0.0343754,0.476425,-1.02541,33.1875,1,14707,1523853
15,1,0.999368,-0.00254879,0.0354571,-4.55727e-05,-0.677022,-0.0792015,9.791,0.126204,-0.489815,1.02396,-0.00677214,-0.000799756,0.0979098,1,3.96483e-05,-9.76584e-06,-1.64468e-06,0.00792965,-0.00195317,-0.000328937,0.999368,-0.00254879,0.0354571,-4.55727e-05,0.0338416,0.478877,-1.02586,33.1875,1,14708,1523953
15,2,0.999368,-0.00254879,0.0354571,-4.55727e-05,-0.677022,-0.0792015,9.791,0.126204,-0.489815,1.02396,-0.00677214,-0.000799756,0.0979098,1,3.96483e-05,-9.76584e-06,-1.64468e-06,0.00792965,-0.00195317,-0.000328937,0.999368,-0.00254879,0.0354571,-4.55727e-05,0.0338416,0.478877,-1.02586,33.1875,1,14708,1523953
15,3,0.999368,-0.00254879,0.0354571,-4.55727e-05,-0.677022,-0.0792015,9.791,0.126204,-0.489815,1.02396,-0.00677214,-0.000799756,0.0979098,1,3.96483e-05,-9.76584e-06,-1.64468e-06,0.00792965,-0.00195317,-0.000328937,0.999368,-0.00254879,0.0354571,-4.55727e-05,0.0338416,0.478877,-1.02586,33.1875,1,14708,1523953
15,4,0.999368,-0.00250106,0.0354449,-4.0024e-05,-0.685185,-0.0813157,9.79578,0.122807,-0.502497,1.0335,-0.00685424,-0.000822485,0.0979576,1,4.71174e-05,-1.226e-05,7.07471e-06,0.00942348,-0.00245199,0.00141494,0.999368,-0.00250106,0.0354449,-4.0024e-05,0.0352432,0.476968,-1.02894,33.1875,1,14709,1524053
16,1,0.999368,-0.00250106,0.0354449,-4.0024e-05,-0.685185,-0.0813157,9.79578,0.122807,-0.502497,1.0335,-0.00685424,-0.000822485,0.0979576,1,4.71174e-05,-1.226e-05,7.07471e-06,0.00942348,-0.00245199,0.00141494,0.999368,-0.00250106,0.0354449,-4.0024e-05,0.0352432,0.476968,-1.02894,33.1875,1,14709,1524053
16,2,0.999368,-0.00250106,0.0354449,-4.0024e-05,-0.685185,-0.0813157,9.79578,0.122807,-0.502497,1.0335,-0.00685424,-0.000822485,0.0979576,1,4.71174e-05,-1.226e-05,7.07471e-06,0.00942348,-0.00245199,0.00141494,0.999368,-0.00250106,0.0354449,-4.0024e-05,0.0352432,0.476968,-1.02894,33.1875,1,14709,1524053
16,3,0.999369,-0.00246201,0.0354352,-2.44724e-05,-0.680748,-0.0529695,9.7692,0.12219,-0.48039,1.00313,-0.00680936,-0.000537353,0.0976918,1,3.80184e-05,-9.71004e-06,1.6842e-05,0.00760369,-0.00194201,0.00336841,0.999369,-0.00246201,0.0354352,-2.44724e-05,0.0352589,0.474547,-1.03,33.1875,1,14710,1524153
16,4,0.999369,-0.00246201,0.0354352,-2.44724e-05,-0.680748,-0.0529695,9.7692,0.12219,-0.48039,1.00313,-0.00680936,-0.000537353,0.0976918,1,3.80184e-05,-9.71004e-06,1.6842e-05,0.00760369,-0.00194201,0.00336841,0.999369,-0.00246201,0.0354352,-2.44724e-05,0.0352589,0.474547,-1.03,33.1875,1,14710,1524153
17,1,0.999369,-0.00246201,0.0354352,-2.44724e-05,-0.680748,-0.0529695,9.7692,0.12219,-0.48039,1.00313,-0.00680936,-0.000537353,0.0976918,1,3.80184e-05,-9.71004e-06,1.6842e-05,0.00760369,-0.00194201,0.00336841,0.999369,-0.00246201,0.0354352,-2.44724e-05,0.0352589,0.474547,-1.03,33.1875,1,14710,1524153
17,2,0.99937,-0.00242021,0.0354178,7.17541e-06,-0.686719,-0.0840608,9.79815,0.117963,-0.50572,1.04006,-0.00687054,-0.000848948,0.0979812,1,4.02369e-05,-1.7354e-05,3.3144e-05,0.00804737,-0.0034708,0.00662881,0.99937,-0.00242021,0.0354178,7.17541e-06,0.0338445,0.47502,-1.02847,33.1875,1,14711,1524253
17,3,0.99937,-0.00242021,0.0354178,7.17541e-06,-0.686719,-0.0840608,9.79815,0.117963,-0.50572,1.04006,-0.00687054,-0.000848948,0.0979812,1,4.02369e-05,-1.7354e-05,3.3144e-05,0.00804737,-0.0034708,0.00662881,0.99937,-0.00242021,0.0354178,7.17541e-06,0.0338445,0.47502,-1.02847,33.1875,1,14711,1524253
17,4,0.99937,-0.00242021,0.0354178,7.17541e-06,-0.686719,-0.0840608,9.79815,0.117963,-0.50572,1.04006,-0.00687054,-0.000848948,0.0979812,1,4.02369e-05,-1.7354e-05,3.3144e-05,0.00804737,-0.0034708,0.00662881,0.99937,-0.00242021,0.0354178,7.17541e-06,0.0338445,0.47502,-1.02847,33.1875,1,14711,1524253
18,1,0.99937,-0.0023685,0.0354082,1.54658e-05,-0.681844,-0.0654061,9.78946,0.127708,-0.487191,1.02961,-0.00682031,-0.000664378,0.0978944,1,5.19845e-05,-9.58547e-06,1.01847e-05,0.0103969,-0.00191709,0.00203694,0.99937,-0.0023685,0.0354082,1.54658e-05,0.0353334,0.475938,-1.02593,33.1875,1,14712,1524353
18,2,0.99937,-0.0023685,0.0354082,1.54658e-05,-0.681844,-0.0654061,9.78946,0.127708,-0.487191,1.02961,-0.00682031,-0.000664378,0.0978944,1,5.19845e-05,-9.58547e-06,1.01847e-05,0.0103969,-0.00191709,0.00203694,0.99937,-0.0023685,0.0354082,1.54658e-05,0.0353334,0.475938,-1.02593,33.1875,1,14712,1524353
18,3,0.99937,-0.0023685,0.0354082,1.54658e-05,-0.681844,-0.0654061,9.78946,0.127708,-0.487191,1.02961,-0.00682031,-0.000664378,0.0978944,1,5.19845e-05,-9.58547e-06,1.01847e-05,0.0103969,-0.00191709,0.00203694,0.99937,-0.0023685,0.0354082,1.54658e-05,0.0353334,0.475938,-1.02593,33.1875,1,14712,1524353
18,4,0.999371,-0.00233208,0.0353997,2.81188e-05,-0.678297,-0.0779215,9.79849,0.129955,-0.497301,1.03694,-0.00678458,-0.00078648,0.0979847,1,3.60963e-05,-8.3353e-06,1.4087e-05,0.00721926,-0.00166706,0.0028174,0.999371,-0.00233208,0.0353997,2.81188e-05,0.035815,0.477379,-1.02489,33.1875,1,14713,1524453
19,1,0.999371,-0.00233208,0.0353997,2.81188e-05,-0.678297,-0.0779215,9.79849,0.129955,-0.497301,1.03694,-0.00678458,-0.00078648,0.0979847,1,3.60963e-05,-8.3353e-06,1.4087e-05,0.00721926,-0.00166706,0.0028174,0.999371,-0.00233208,0.0353997,2.81188e-05,0.035815,0.477379,-1.02489,33.1875,1,14713,1524453
19,2,0.999371,-0.00233208,0.0353997,2.81188e-05,-0.678297,-0.0779215,9.79849,0.129955,-0.497301,1.03694,-0.00678458,-0.00078648,0.0979847,1,3.60963e-05,-8.3353e-06,1.4087e-05,0.00721926,-0.00166706,0.0028174,0.999371,-0.00233208,0.0353997,2.81188e-05,0.035815,0.477379,-1.02489,33.1875,1,14713,1524453
19,3,0.999371,-0.00227942,0.0353769,4.26284e-05,-0.683463,-0.0711402,9.78807,0.118346,-0.490663,1.02249,-0.00683903,-0.000721848,0.0978803,1,5.22396e-05,-2.26069e-05,1.60601e-05,0.0104479,-0.00452139,0.00321201,0.999371,-0.00227942,0.0353769,4.26284e-05,0.0357941,0.476431,-1.02643,33.1875,1,14714,1524553
19,4,0.999371,-0.00227942,0.0353769,4.26284e-05,-0.683463,-0.0711402,9.78807,0.118346,-0.490663,1.02249,-0.00683903,-0.000721848,0.0978803,1,5.22396e-05,-2.26069e-05,1.60601e-05,0.0104479,-0.00452139,0.00321201,0.999371,-0.00227942,0.0353769,4.26284e-05,0.0357941,0.476431,-1.02643,33.1875,1,14714,1524553
20,1,0.999371,-0.00227942,0.0353769,4.26284e-05,-0.683463,-0.0711402,9.78807,0.118346,-0.490663,1.02249,-0.00683903,-0.000721848,0.0978803,1,5.22396e-05,-2.26069e-05,1.60601e-05,0.0104479,-0.00452139,0.00321201,0.999371,-0.00227942,0.0353769,4.26284e-05,0.0357941,0.476431,-1.02643,33.1875,1,14714,1524553
20,2,0.999372,-0.00223466,0.0353599,6.11764e-05,-0.680664,-0.077119,9.79139,0.127689,-0.502313,1.0272,-0.00680991,-0.000780119,0.0979136,1,4.42007e-05,-1.68568e-05,2.00569e-05,0.00884014,-0.00337135,0.00401137,0.999372,-0.00223466,0.0353599,6.11764e-05,0.0356873,0.476991,-1.03046,33.1875,1,14715,1524653
20,3,0.999372,-0.00223466,0.0353599,6.11764e-05,-0.680664,-0.077119,9.79139,0.127689,-0.502313,1.0272,-0.00680991,-0.000780119,0.0979136,1,4.42007e-05,-1.68568e-05,2.00569e-05,0.00884014,-0.00337135,0.00401137,0.999372,-0.00223466,0.0353599,6.11764e-05,0.0356873,0.476991,-1.03046,33.1875,1,14715,1524653
20,4,0.999372,-0.00223466,0.0353599,6.11764e-05,-0.680664,-0.077119,9.79139,0.127689,-0.502313,1.0272,-0.00680991,-0.000780119,0.0979136,1,4.42007e-05,-1.68568e-05,2.00569e-05,0.00884014,-0.00337135,0.00401137,0.999372,-0.00223466,0.0353599,6.11764e-05,0.0356873,0.476991,-1.03046,33.1875,1,14715,1524653
21,1,0.999372,-0.00220377,0.0353531,8.14534e-05,-0.686695,-0.0719686,9.77552,0.112685,-0.498501,1.01556,-0.00686821,-0.00072588,0.0977551,1,3.01749e-05,-6.62343e-06,2.14017e-05,0.00603498,-0.00132469,0.00428035,0.999372,-0.00220377,0.0353531,8.14534e-05,0.0361969,0.476002,-1.02998,33.1875,1,14716,1524753
21,2,0.999372,-0.00220377,0.0353531,8.14534e-05,-0.686695,-0.0719686,9.77552,0.112685,-0.498501,1.01556,-0.00686821,-0.00072588,0.0977551,1,3.01749e-05,-6.62343e-06,2.14017e-05,0.00603498,-0.00132469,0.00428035,0.999372,-0.00220377,0.0353531,8.14534e-05,0.0361969,0.476002,-1.02998,33.1875,1,14716,1524753
21,3,0.999372,-0.00220377,0.0353531,8.14534e-05,-0.686695,-0.0719686,9.77552,0.112685,-0.498501,1.01556,-0.00686821,-0.00072588,0.0977551,1,3.01749e-05,-6.62343e-06,2.14017e-05,0.00603498,-0.00132469,0.00428035,0.999372,-0.00220377,0.0353531,8.14534e-05,0.0361969,0.476002,-1.02998,33.1875,1,14716,1524753
21,4,0.999373,-0.0021726,0.0353289,0.000103821,-0.676844,-0.0802725,9.791,0.128337,-0.508287,1.02749,-0.00677312,-0.000809039,0.0979096,1,3.06405e-05,-2.40934e-05,2.32235e-05,0.0061281,-0.00481868,0.00464469,0.999373,-0.0021726,0.0353289,0.000103821,0.0363198,0.474467,-1.02597,33.1875,1,14717,1524853
22,1,0.999373,-0.0021726,0.0353289,0.000103821,-0.676844,-0.0802725,9.791,0.128337,-0.508287,1.02749,-0.00677312,-0.000809039,0.0979096,1,3.06405e-05,-2.40934e-05,2.32235e-05,0.0061281,-0.00481868,0.00464469,0.999373,-0.0021726,0.0353289,0.000103821,0.0363198,0.474467,-1.02597,33.1875,1,14717,1524853
22,2,0.999373,-0.0021726,0.0353289,0.000103821,-0.676844,-0.0802725,9.791,0.128337,-0.508287,1.02749,-0.00677312,-0.000809039,0.0979096,1,3.06405e-05,-2.40934e-05,2.32235e-05,0.0061281,-0.00481868,0.00464469,0.999373,-0.0021726,0.0353289,0.000103821,0.0363198,0.474467,-1.02597,33.1875,1,14717,1524853
22,3,0.999374,-0.00214143,0.0353102,0.000108351,-0.680762,-0.0632081,9.79083,0.122473,-0.489698,1.03024,-0.00681123,-0.000638368,0.097908,1,3.17115e-05,-1.84979e-05,5.67728e-06,0.00634231,-0.00369959,0.00113546,0.999374,-0.00214143,0.0353102,0.000108351,0.0368137,0.475899,-1.02443,33.1875,1,14718,1524953
22,4,0.999374,-0.00214143,0.0353102,0.000108351,-0.680762,-0.0632081,9.79083,0.122473,-0.489698,1.03024,-0.00681123,-0.000638368,0.097908,1,3.17115e-05,-1.84979e-05,5.67728e-06,0.00634231,-0.00369959,0.00113546,0.999374,-0.00214143,0.0353102,0.000108351,0.0368137,0.475899,-1.02443,33.1875,1,14718,1524953
23,1,0.999374,-0.00214143,0.0353102,0.000108351,-0.680762,-0.0632081,9.79083,0.122473,-0.489698,1.03024,-0.00681123,-0.000638368,0.097908,1,3.17115e-05,-1.84979e-05,5.67728e-06,0.00634231,-0.00369959,0.00113546,0.999374,-0.00214143,0.0353102,0.000108351,0.0368137,0.475899,-1.02443,33.1875,1,14718,1524953
23,2,0.999375,-0.00209936,0.0352935,0.000114353,-0.671599,-0.0783548,9.78351,0.130076,-0.5025,1.02127,-0.00671922,-0.000791747,0.0978348,1,4.13842e-05,-1.6587e-05,7.55316e-06,0.00827683,-0.00331739,0.00151063,0.999375,-0.00209936,0.0352935,0.000114353,0.0362633,0.477881,-1.02589,33.1875,1,14719,1525053
23,3,0.999375,-0.00209936,0.0352935,0.000114353,-0.671599,-0.0783548,9.78351,0.130076,-0.5025,1.02127,-0.00671922,-0.000791747,0.0978348,1,4.13842e-05,-1.6587e-05,7.55316e-06,0.00827683,-0.00331739,0.00151063,0.999375,-0.00209936,0.0352935,0.000114353,0.0362633,0.477881,-1.02589,33.1875,1,14719,1525053
23,4,0.999375,-0.00209936,0.0352935,0.000114353,-0.671599,-0.0783548,9.78351,0.130076,-0.5025,1.02127,-0.00671922,-0.000791747,0.0978348,1,4.13842e-05,-1.6587e-05,7.55316e-06,0.00827683,-0.00331739,0.00151063,0.999375,-0.00209936,0.0352935,0.000114353,0.0362633,0.477881,-1.02589,33.1875,1,14719,1525053
24,1,0.999375,-0.00205657,0.0352774,0.000116147,-0.681908,-0.0745293,9.77377,0.118199,-0.503755,1.00662,-0.00682217,-0.000753858,0.0977374,1,4.35858e-05,-1.58288e-05,3.3083e-06,0.00871717,-0.00316575,0.00066166,0.999375,-0.00205657,0.0352774,0.000116147,0.0357699,0.477894,-1.0264,33.1875,1,14720,1525153
24,2,0.999375,-0.00205657,0.0352774,0.000116147,-0.681908,-0.0745293,9.77377,0.118199,-0.503755,1.00662,-0.00682217,-0.000753858,0.0977374,1,4.35858e-05,-1.58288e-05,3.3083e-06,0.00871717,-0.00316575,0.00066166,0.999375,-0.00205657,0.0352774,0.000116147,0.0357699,0.477894,-1.0264,33.1875,1,14720,1525153
24,3,0.999375,-0.00205657,0.0352774,0.000116147,-0.681908,-0.0745293,9.77377,0.118199,-0.503755,1.00662,-0.00682217,-0.000753858,0.0977374,1,4.35858e-05,-1.58288e-05,3.3083e-06,0.00871717,-0.00316575,0.00066166,0.999375,-0.00205657,0.0352774,0.000116147,0.0357699,0.477894,-1.0264,33.1875,1,14720,1525153
24,4,0.999376,-0.00201103,0.0352782,0.000124851,-0.685219,-0.0812129,9.79172,0.117235,-0.513902,1.0266,-0.00685198,-0.000821259,0.0979171,1,4.58993e-05,9.72466e-07,1.03544e-05,0.00917987,0.000194493,0.00207088,0.999376,-0.00201103,0.0352782,0.000124851,0.0347626,0.478417,-1.0279,33.1875,1,14721,1525253
25,1,0.999376,-0.00201103,0.0352782,0.000124851,-0.685219,-0.0812129,9.79172,0.117235,-0.513902,1.0266,-0.00685198,-0.000821259,0.0979171,1,4.58993e-05,9.72466e-07,1.03544e-05,0.00917987,0.000194493,0.00207088,0.999376,-0.00201103,0.0352782,0.000124851,0.0347626,0.478417,-1.0279,33.1875,1,14721,1525253
25,2,0.999376,-0.00201103,0.0352782,0.000124851,-0.685219,-0.0812129,9.79172,0.117235,-0.513902,1.0266,-0.00685198,-0.000821259,0.0979171,1,4.58993e-05,9.72466e-07,1.03544e-05,0.00917987,0.000194493,0.00207088,0.999376,-0.00201103,0.0352782,0.000124851,0.0347626,0.478417,-1.0279,33.1875,1,14721,1525253
25,3,0.999376,-0.00198135,0.0352665,0.000134744,-0.676131,-0.0610396,9.78233,0.124903,-0.493272,1.02161,-0.00676352,-0.000616402,0.0978231,1,2.99253e-05,-1.1351e-05,1.11329e-05,0.00598506,-0.0022702,0.00222659,0.999376,-0.00198135,0.0352665,0.000134744,0.0362259,0.476463,-1.02845,33.1875,1,14722,1525353
25,4,0.999376,-0.00198135,0.0352665,0.000134744,-0.676131,-0.0610396,9.78233,0.124903,-0.493272,1.02161,-0.00676352,-0.000616402,0.0978231,1,2.99253e-05,-1.1351e-05,1.11329e-05,0.00598506,-0.0022702,0.00222659,0.999376,-0.00198135,0.0352665,0.000134744,0.0362259,0.476463,-1.02845,33.1875,1,14722,1525353
26,1,0.999376,-0.00198135,0.0352665,0.000134744,-0.676131,-0.0610396,9.78233,0.124903,-0.493272,1.02161,-0.00676352,-0.000616402,0.0978231,1,2.99253e-05,-1.1351e-05,1.11329e-05,0.00598506,-0.0022702,0.00222659,0.999376,-0.00198135,0.0352665,0.000134744,0.0362259,0.476463,-1.02845,33.1875,1,14722,1525353
26,2,0.999376,-0.00193914,0.0352628,0.000148834,-0.673531,-0.0683374,9.77478,0.128547,-0.496255,1.01175,-0.00673595,-0.000691936,0.0977477,1,4.27123e-05,-3.36024e-06,1.58102e-05,0.00854246,-0.000672048,0.00316205,0.999376,-0.00193914,0.0352628,0.000148834,0.0357979,0.475464,-1.02696,33.1875,1,14723,1525453
26,3,0.999376,-0.00193914,0.0352628,0.000148834,-0.673531,-0.0683374,9.77478,0.128547,-0.496255,1.01175,-0.00673595,-0.000691936,0.0977477,1,4.27123e-05,-3.36024e-06,1.58102e-05,0.00854246,-0.000672048,0.00316205,0.999376,-0.00193914,0.0352628,0.000148834,0.0357979,0.475464,-1.02696,33.1875,1,14723,1525453
26,4,0.999376,-0.00193914,0.0352628,0.000148834,-0.673531,-0.0683374,9.77478,0.128547,-0.496255,1.01175,-0.00673595,-0.000691936,0.0977477,1,4.27123e-05,-3.36024e-06,1.58102e-05,0.00854246,-0.000672048,0.00316205,0.999376,-0.00193914,0.0352628,0.000148834,0.0357979,0.475464,-1.02696,33.1875,1,14723,1525453
27,1,0.999377,-0.00188517,0.0352509,0.00017032,-0.688005,-0.0789872,9.77615,0.10846,-0.514705,1.01626,-0.00688227,-0.000800654,0.0977612,1,5.34839e-05,-1.15692e-05,2.35869e-05,0.0106968,-0.00231384,0.00471737,0.999377,-0.00188517,0.0352509,0.00017032,0.0353619,0.474954,-1.02545,33.1875,1,14724,1525553
27,2,0.999377,-0.00188517,0.0352509,0.00017032,-0.688005,-0.0789872,9.77615,0.10846,-0.514705,1.01626,-0.00688227,-0.000800654,0.0977612,1,5.34839e-05,-1.15692e-05,2.35869e-05,0.0106968,-0.00231384,0.00471737,0.999377,-0.00188517,0.0352509,0.00017032,0.0353619,0.474954,-1.02545,33.1875,1,14724,1525553
27,3,0.999377,-0.00188517,0.0352509,0.00017032,-0.688005,-0.0789872,9.77615,0.10846,-0.514705,1.01626,-0.00688227,-0.000800654,0.0977612,1,5.34839e-05,-1.15692e-05,2.35869e-05,0.0106968,-0.00231384,0.00471737,0.999377,-0.00188517,0.0352509,0.00017032,0.0353619,0.474954,-1.02545,33.1875,1,14724,1525553
27,4,0.999377,-0.00184226,0.0352413,0.000191243,-0.682243,-0.0682686,9.79146,0.118621,-0.504328,1.02691,-0.00682419,-0.000691387,0.0979145,1,4.28482e-05,-9.13275e-06,2.27263e-05,0.00856964,-0.00182655,0.00454525,0.999377,-0.00184226,0.0352413,0.000191243,0.0362795,0.476906,-1.02592,33.1875,1,14725,1525653
28,1,0.999377,-0.00184226,0.0352413,0.000191243,-0.682243,-0.0682686,9.79146,0.118621,-0.504328,1.02691,-0.00682419,-0.000691387,0.0979145,1,4.28482e-05,-9.13275e-06,2.27263e-05,0.00856964,-0.00182655,0.00454525,0.999377,-0.00184226,0.0352413,0.000191243,0.0362795,0.476906,-1.02592,33.1875,1,14725,1525653
28,2,0.999377,-0.00184226,0.0352413,0.000191243,-0.682243,-0.0682686,9.79146,0.118621,-0.504328,1.02691,-0.00682419,-0.000691387,0.0979145,1,4.28482e-05,-9.13275e-06,2.27263e-05,0.00856964,-0.00182655,0.00454525,0.999377,-0.00184226,0.0352413,0.000191243,0.0362795,0.476906,-1.02592,33.1875,1,14725,1525653
28,3,0.999377,-0.00179787,0.0352326,0.000211301,-0.68935,-0.0760641,9.78467,0.117118,-0.511155,1.02249,-0.00689509,-0.000769614,0.0978465,1,4.43085e-05,-8.31296e-06,2.1916e-05,0.00886171,-0.00166259,0.0043832,0.999377,-0.00179787,0.0352326,0.000211301,0.0372256,0.477873,-1.0259,33.1875,1,14726,1525753
28,4,0.999377,-0.00179787,0.0352326,0.000211301,-0.68935,-0.0760641,9.78467,0.117118,-0.511155,1.02249,-0.00689509,-0.000769614,0.0978465,1,4.43085e-05,-8.31296e-06,2.1916e-05,0.00886171,-0.00166259,0.0043832,0.999377,-0.00179787,0.0352326,0.000211301,0.0372256,0.477873,-1.0259,33.1875,1,14726,1525753
29,1,0.999377,-0.00179787,0.0352326,0.000211301,-0.68935,-0.0760641,9.78467,0.117118,-0.511155,1.02249,-0.00689509,-0.000769614,0.0978465,1,4.43085e-05,-8.31296e-06,2.1916e-05,0.00886171,-0.00166259,0.0043832,0.999377,-0.00179787,0.0352326,0.000211301,0.0372256,0.477873,-1.0259,33.1875,1,14726,1525753
29,2,0.999378,-0.00175476,0.0352246,0.000219236,-0.675069,-0.0793866,9.78217,0.123599,-0.515732,1.01625,-0.00675216,-0.00080253,0.0978215,1,4.36083e-05,-7.60862e-06,9.81992e-06,0.00872166,-0.00152172,0.00196398,0.999378,-0.00175476,0.0352246,0.000219236,0.0381427,0.47838,-1.02741,33.1875,1,14727,1525853
29,3,0.999378,-0.00175476,0.0352246,0.000219236,-0.675069,-0.0793866,9.78217,0.123599,-0.515732,1.01625,-0.00675216,-0.00080253,0.0978215,1,4.36083e-05,-7.60862e-06,9.81992e-06,0.00872166,-0.00152172,0.00196398,0.999378,-0.00175476,0.0352246,0.000219236,0.0381427,0.47838,-1.02741,33.1875,1,14727,1525853
29,4,0.999378,-0.00175476,0.0352246,0.000219236,-0.675069,-0.0793866,9.78217,0.123599,-0.515732,1.01625,-0.00675216,-0.00080253,0.0978215,1,4.36083e-05,-7.60862e-06,9.81992e-06,0.00872166,-0.00152172,0.00196398,0.999378,-0.00175476,0.0352246,0.000219236,0.0381427,0.47838,-1.02741,33.1875,1,14727,1525853
30,1,0.999378,-0.00171629,0.0352149,0.00021955,-0.689527,-0.0875814,9.79034,0.1067,-0.528727,1.03008,-0.00689709,-0.000883566,0.0979032,1,3.94639e-05,-9.30021e-06,1.80297e-06,0.00789277,-0.00186004,0.000360594,0.999378,-0.00171629,0.0352149,0.00021955,0.0371473,0.477449,-1.02944,33.1875,1,14728,1525953
30,2,0.999378,-0.00171629,0.0352149,0.00021955,-0.689527,-0.0875814,9.79034,0.1067,-0.528727,1.03008,-0.00689709,-0.000883566,0.0979032,1,3.94639e-05,-9.30021e-06,1.80297e-06,0.00789277,-0.00186004,0.000360594,0.999378,-0.00171629,0.0352149,0.00021955,0.0371473,0.477449,-1.02944,33.1875,1,14728,1525953
30,3,0.999379,-0.001683,0.0351974,0.000237857,-0.682152,-0.0758079,9.7853,0.116093,-0.512493,1.02429,-0.00682481,-0.000764931,0.0978527,1,3.36635e-05,-1.6939e-05,1.93399e-05,0.00673269,-0.0033878,0.00386799,0.999379,-0.001683,0.0351974,0.000237857,0.0347987,0.475499,-1.02847,33.1875,1,14729,1526053
30,4,0.999379,-0.001683,0.0351974,0.000237857,-0.682152,-0.0758079,9.7853,0.116093,-0.512493,1.02429,-0.00682481,-0.000764931,0.0978527,1,3.36635e-05,-1.6939e-05,1.93399e-05,0.00673269,-0.0033878,0.00386799,0.999379,-0.001683,0.0351974,0.000237857,0.0347987,0.475499,-1.02847,33.1875,1,14729,1526053
31,1,0.999379,-0.001683,0.0351974,0.000237857,-0.682152,-0.0758079,9.7853,0.116093,-0.512493,1.02429,-0.00682481,-0.000764931,0.0978527,1,3.36635e-05,-1.6939e-05,1.93399e-05,0.00673269,-0.0033878,0.00386799,0.999379,-0.001683,0.0351974,0.000237857,0.0347987,0.475499,-1.02847,33.1875,1,14729,1526053
31,2,0.999379,-0.00164297,0.0351895,0.000243915,-0.690026,-0.066251,9.78815,0.11114,-0.504488,1.03058,-0.00690171,-0.000670804,0.0978813,1,4.18034e-05,-7.4636e-06,8.02407e-06,0.00836068,-0.00149272,0.00160481,0.999379,-0.00164297,0.0351895,0.000243915,0.0363526,0.473961,-1.02497,33.1875,1,14730,1526153
31,3,0.999379,-0.00164297,0.0351895,0.000243915,-0.690026,-0.066251,9.78815,0.11114,-0.504488,1.03058,-0.00690171,-0.000670804,0.0978813,1,4.18034e-05,-7.4636e-06,8.02407e-06,0.00836068,-0.00149272,0.00160481,0.999379,-0.00164297,0.0351895,0.000243915,0.0363526,0.473961,-1.02497,33.1875,1,14730,1526153
31,4,0.999379,-0.00164297,0.0351895,0.000243915,-0.690026,-0.066251,9.78815,0.11114,-0.504488,1.03058,-0.00690171,-0.000670804,0.0978813,1,4.18034e-05,-7.4636e-06,8.02407e-06,0.00836068,-0.00149272,0.00160481,0.999379,-0.00164297,0.0351895,0.000243915,0.0363526,0.473961,-1.02497,33.1875,1,14730,1526153
32,1,0.99938,-0.0016059,0.0351816,0.000249948,-0.678953,-0.0648561,9.78503,0.118105,-0.503129,1.01524,-0.00679095,-0.000656189,0.0978501,1,3.84338e-05,-7.32211e-06,7.78049e-06,0.00768675,-0.00146442,0.0015561,0.99938,-0.0016059,0.0351816,0.000249948,0.0362875,0.476418,-1.02593,33.1875,1,14731,1526253
32,2,0.99938,-0.0016059,0.0351816,0.000249948,-0.678953,-0.0648561,9.78503,0.118105,-0.503129,1.01524,-0.00679095,-0.000656189,0.0978501,1,3.84338e-05,-7.32211e-06,7.78049e-06,0.00768675,-0.00146442,0.0015561,0.99938,-0.0016059,0.0351816,0.000249948,0.0362875,0.476418,-1.02593,33.1875,1,14731,1526253
32,3,0.99938,-0.0016059,0.0351816,0.000249948,-0.678953,-0.0648561,9.78503,0.118105,-0.503129,1.01524,-0.00679095,-0.000656189,0.0978501,1,3.84338e-05,-7.32211e-06,7.78049e-06,0.00768675,-0.00146442,0.0015561,0.99938,-0.0016059,0.0351816,0.000249948,0.0362875,0.476418,-1.02593,33.1875,1,14731,1526253
32,4,0.99938,-0.00157243,0.0351744,0.000257935,-0.687632,-0.0730967,9.7823,0.116381,-0.510256,1.01976,-0.0068776,-0.000738049,0.0978229,1,3.54983e-05,-6.6199e-06,9.93323e-06,0.00709967,-0.00132398,0.00198665,0.99938,-0.00157243,0.0351744,0.000257935,0.0366989,0.476947,-1.02844,33.1875,1,14732,1526353
33,1,0.99938,-0.00157243,0.0351744,0.000257935,-0.687632,-0.0730967,9.7823,0.116381,-0.510256,1.01976,-0.0068776,-0.000738049,0.0978229,1,3.54983e-05,-6.6199e-06,9.93323e-06,0.00709967,-0.00132398,0.00198665,0.99938,-0.00157243,0.0351744,0.000257935,0.0366989,0.476947,-1.02844,33.1875,1,14732,1526353
33,2,0.99938,-0.00157243,0.0351744,0.000257935,-0.687632,-0.0730967,9.7823,0.116381,-0.510256,1.01976,-0.0068776,-0.000738049,0.0978229,1,3.54983e-05,-6.6199e-06,9.93323e-06,0.00709967,-0.00132398,0.00198665,0.99938,-0.00157243,0.0351744,0.000257935,0.0366989,0.476947,-1.02844,33.1875,1,14732,1526353
33,3,0.99938,-0.00153732,0.0351648,0.000267786,-0.68573,-0.0645702,9.78474,0.106501,-0.503478,1.01838,-0.00685905,-0.000652936,0.0978472,1,3.61501e-05,-9.03979e-06,1.16305e-05,0.00723002,-0.00180796,0.00232609,0.99938,-0.00153732,0.0351648,0.000267786,0.0356959,0.477948,-1.02943,33.1875,1,14733,1526453
33,4,0.99938,-0.00153732,0.0351648,0.000267786,-0.68573,-0.0645702,9.78474,0.106501,-0.503478,1.01838,-0.00685905,-0.000652936,0.0978472,1,3.61501e-05,-9.03979e-06,1.16305e-05,0.00723002,-0.00180796,0.00232609,0.99938,-0.00153732,0.0351648,0.000267786,0.0356959,0.477948,-1.02943,33.1875,1,14733,1526453
34,1,0.99938,-0.00153732,0.0351648,0.000267786,-0.68573,-0.0645702,9.78474,0.106501,-0.503478,1.01838,-0.00685905,-0.000652936,0.0978472,1,3.61501e-05,-9.03979e-06,1.16305e-05,0.00723002,-0.00180796,0.00232609,0.99938,-0.00153732,0.0351648,0.000267786,0.0356959,0.477948,-1.02943,33.1875,1,14733,1526453
34,2,0.999381,-0.00151207,0.0351587,0.000278545,-0.688255,-0.0780394,9.78803,0.113926,-0.52281,1.02777,-0.00688362,-0.000785929,0.0978802,1,2.74107e-05,-5.55807e-06,1.2243e-05,0.00548215,-0.00111161,0.00244861,0.999381,-0.00151207,0.0351587,0.000278545,0.0347417,0.477469,-1.02943,33.1875,1,14734,1526553
34,3,0.999381,-0.00151207,0.0351587,0.000278545,-0.688255,-0.0780394,9.78803,0.113926,-0.52281,1.02777,-0.00688362,-0.000785929,0.0978802,1,2.74107e-05,-5.55807e-06,1.2243e-05,0.00548215,-0.00111161,0.00244861,0.999381,-0.00151207,0.0351587,0.000278545,0.0347417,0.477469,-1.02943,33.1875,1,14734,1526553
34,4,0.999381,-0.00151207,0.0351587,0.000278545,-0.688255,-0.0780394,9.78803,0.113926,-0.52281,1.02777,-0.00688362,-0.000785929,0.0978802,1,2.74107e-05,-5.55807e-06,1.2243e-05,0.00548215,-0.00111161,0.00244861,0.999381,-0.00151207,0.0351587,0.000278545,0.0347417,0.477469,-1.02943,33.1875,1,14734,1526553
35,1,0.999381,-0.00148384,0.0351525,0.000291659,-0.682584,-0.0632217,9.7888,0.115434,-0.49877,1.02381,-0.0068269,-0.000638282,0.0978879,1,2.99365e-05,-5.46502e-06,1.49401e-05,0.0059873,-0.001093,0.00298802,0.999381,-0.00148384,0.0351525,0.000291659,0.0348233,0.475481,-1.02746,33.1875,1,14735,1526653
35,2,0.999381,-0.00148384,0.0351525,0.000291659,-0.682584,-0.0632217,9.7888,0.115434,-0.49877,1.02381,-0.0068269,-0.000638282,0.0978879,1,2.99365e-05,-5.46502e-06,1.49401e-05,0.0059873,-0.001093,0.00298802,0.999381,-0.00148384,0.0351525,0.000291659,0.0348233,0.475481,-1.02746,33.1875,1,14735,1526653
35,3,0.999381,-0.00148384,0.0351525,0.000291659,-0.682584,-0.0632217,9.7888,0.115434,-0.49877,1.02381,-0.0068269,-0.000638282,0.0978879,1,2.99365e-05,-5.46502e-06,1.49401e-05,0.0059873,-0.001093,0.00298802,0.999381,-0.00148384,0.0351525,0.000291659,0.0348233,0.475481,-1.02746,33.1875,1,14735,1526653
35,4,0.999381,-0.00144952,0.0351508,0.000291729,-0.691034,-0.086783,9.78424,0.10829,-0.530633,1.02383,-0.00691056,-0.00087494,0.0978423,1,3.62024e-05,-1.1531e-06,1.87947e-06,0.00724047,-0.00023062,0.000375894,0.999381,-0.00144952,0.0351508,0.000291729,0.0358188,0.476413,-1.02542,33.1875,1,14736,1526753
36,1,0.999381,-0.00144952,0.0351508,0.000291729,-0.691034,-0.086783,9.78424,0.10829,-0.530633,1.02383,-0.00691056,-0.00087494,0.0978423,1,3.62024e-05,-1.1531e-06,1.87947e-06,0.00724047,-0.00023062,0.000375894,0.999381,-0.00144952,0.0351508,0.000291729,0.0358188,0.476413,-1.02542,33.1875,1,14736,1526753
36,2,0.999381,-0.00144952,0.0351508,0.000291729,-0.691034,-0.086783,9.78424,0.10829,-0.530633,1.02383,-0.00691056,-0.00087494,0.0978423,1,3.62024e-05,-1.1531e-06,1.87947e-06,0.00724047,-0.00023062,0.000375894,0.999381,-0.00144952,0.0351508,0.000291729,0.0358188,0.476413,-1.02542,33.1875,1,14736,1526753
36,3,0.999381,-0.0014058,0.0351464,0.000298392,-0.679915,-0.0647177,9.78266,0.117798,-0.507053,1.01702,-0.00679987,-0.000656388,0.0978265,1,4.646e-05,-3.71791e-06,8.92002e-06,0.009292,-0.000743581,0.001784,0.999381,-0.0014058,0.0351464,0.000298392,0.0352807,0.478386,-1.02638,33.1875,1,14737,1526853
36,4,0.999381,-0.0014058,0.0351464,0.000298392,-0.679915,-0.0647177,9.78266,0.117798,-0.507053,1.01702,-0.00679987,-0.000656388,0.0978265,1,4.646e-05,-3.71791e-06,8.92002e-06,0.009292,-0.000743581,0.001784,0.999381,-0.0014058,0.0351464,0.000298392,0.0352807,0.478386,-1.02638,33.1875,1,14737,1526853
37,1,0.999381,-0.0014058,0.0351464,0.000298392,-0.679915,-0.0647177,9.78266,0.117798,-0.507053,1.01702,-0.00679987,-0.000656388,0.0978265,1,4.646e-05,-3.71791e-06,8.92002e-06,0.009292,-0.000743581,0.001784,0.999381,-0.0014058,0.0351464,0.000298392,0.0352807,0.478386,-1.02638,33.1875,1,14737,1526853
37,2,0.999381,-0.00136764,0.0351389,0.000321654,-0.681857,-0.073988,9.78836,0.117881,-0.519597,1.02183,-0.00681987,-0.000748085,0.0978835,1,4.01363e-05,-6.8246e-06,2.55369e-05,0.00802725,-0.00136492,0.00510739,0.999381,-0.00136764,0.0351389,0.000321654,0.0362055,0.47696,-1.02894,33.1875,1,14738,1526953
37,3,0.999381,-0.00136764,0.0351389,0.000321654,-0.681857,-0.073988,9.78836,0.117881,-0.519597,1.02183,-0.00681987,-0.000748085,0.0978835,1,4.01363e-05,-6.8246e-06,2.55369e-05,0.00802725,-0.00136492,0.00510739,0.999381,-0.00136764,0.0351389,0.000321654,0.0362055,0.47696,-1.02894,33.1875,1,14738,1526953
37,4,0.999381,-0.00136764,0.0351389,0.000321654,-0.681857,-0.073988,9.78836,0.117881,-0.519597,1.02183,-0.00681987,-0.000748085,0.0978835,1,4.01363e-05,-6.8246e-06,2.55369e-05,0.00802725,-0.00136492,0.00510739,0.999381,-0.00136764,0.0351389,0.000321654,0.0362055,0.47696,-1.02894,33.1875,1,14738,1526953
38,1,0.999381,-0.0013292,0.0351377,0.000342431,-0.692167,-0.0765452,9.79145,0.100439,-0.519095,1.02692,-0.00692176,-0.000773753,0.0979144,1,4.07619e-05,-6.52164e-07,2.30469e-05,0.00815238,-0.000130433,0.00460938,0.999381,-0.0013292,0.0351377,0.000342431,0.0361765,0.476499,-1.03047,33.1875,1,14739,1527053
38,2,0.999381,-0.0013292,0.0351377,0.000342431,-0.692167,-0.0765452,9.79145,0.100439,-0.519095,1.02692,-0.00692176,-0.000773753,0.0979144,1,4.07619e-05,-6.52164e-07,2.30469e-05,0.00815238,-0.000130433,0.00460938,0.999381,-0.0013292,0.0351377,0.000342431,0.0361765,0.476499,-1.03047,33.1875,1,14739,1527053
38,3,0.999381,-0.0013292,0.0351377,0.000342431,-0.692167,-0.0765452,9.79145,0.100439,-0.519095,1.02692,-0.00692176,-0.000773753,0.0979144,1,4.07619e-05,-6.52164e-07,2.30469e-05,0.00815238,-0.000130433,0.00460938,0.999381,-0.0013292,0.0351377,0.000342431,0.0361765,0.476499,-1.03047,33.1875,1,14739,1527053
38,4,0.999382,-0.00128784,0.0351172,0.000357112,-0.684309,-0.0853187,9.79067,0.113561,-0.53532,1.02959,-0.00684693,-0.000861933,0.0979063,1,4.34816e-05,-1.97517e-05,1.69313e-05,0.00869631,-0.00395034,0.00338626,0.999382,-0.00128784,0.0351172,0.000357112,0.0357447,0.476467,-1.02845,33.1875,1,14740,1527153
39,1,0.999382,-0.00128784,0.0351172,0.000357112,-0.684309,-0.0853187,9.79067,0.113561,-0.53532,1.02959,-0.00684693,-0.000861933,0.0979063,1,4.34816e-05,-1.97517e-05,1.69313e-05,0.00869631,-0.00395034,0.00338626,0.999382,-0.00128784,0.0351172,0.000357112,0.0357447,0.476467,-1.02845,33.1875,1,14740,1527153
39,2,0.999382,-0.00128784,0.0351172,0.000357112,-0.684309,-0.0853187,9.79067,0.113561,-0.53532,1.02959,-0.00684693,-0.000861933,0.0979063,1,4.34816e-05,-1.97517e-05,1.69313e-05,0.00869631,-0.00395034,0.00338626,0.999382,-0.00128784,0.0351172,0.000357112,0.0357447,0.476467,-1.02845,33.1875,1,14740,1527153
39,3,0.999382,-0.00124628,0.0351148,0.000361475,-0.688709,-0.0737421,9.78841,0.10551,-0.520147,1.02855,-0.00688741,-0.000746189,0.097884,1,4.43067e-05,-1.69314e-06,6.81732e-06,0.00886135,-0.000338629,0.00136346,0.999382,-0.00124628,0.0351148,0.000361475,0.0357405,0.475988,-1.02896,33.1875,1,14741,1527253
39,4,0.999382,-0.00124628,0.0351148,0.000361475,-0.688709,-0.0737421,9.78841,0.10551,-0.520147,1.02855,-0.00688741,-0.000746189,0.097884,1,4.43067e-05,-1.69314e-06,6.81732e-06,0.00886135,-0.000338629,0.00136346,0.999382,-0.00124628,0.0351148,0.000361475,0.0357405,0.475988,-1.02896,33.1875,1,14741,1527253
40,1,0.999382,-0.00124628,0.0351148,0.000361475,-0.688709,-0.0737421,9.78841,0.10551,-0.520147,1.02855,-0.00688741,-0.000746189,0.097884,1,4.43067e-05,-1.69314e-06,6.81732e-06,0.00886135,-0.000338629,0.00136346,0.999382,-0.00124628,0.0351148,0.000361475,0.0357405,0.475988,-1.02896,33.1875,1,14741,1527253
40,2,0.999382,-0.00120157,0.0351185,0.00038244,-0.68401,-0.0753272,9.78225,0.115339,-0.52585,1.02066,-0.00683924,-0.000762857,0.0978225,1,4.73597e-05,4.22407e-06,2.33761e-05,0.00947193,0.000844815,0.00467523,0.999382,-0.00120157,0.0351185,0.00038244,0.0352802,0.476941,-1.02743,33.1875,1,14742,1527353
40,3,0.999382,-0.00120157,0.0351185,0.00038244,-0.68401,-0.0753272,9.78225,0.115339,-0.52585,1.02066,-0.00683924,-0.000762857,0.0978225,1,4.73597e-05,4.22407e-06,2.33761e-05,0.00947193,0.000844815,0.00467523,0.999382,-0.00120157,0.0351185,0.00038244,0.0352802,0.476941,-1.02743,33.1875,1,14742,1527353
40,4,0.999382,-0.00120157,0.0351185,0.00038244,-0.68401,-0.0753272,9.78225,0.115339,-0.52585,1.02066,-0.00683924,-0.000762857,0.0978225,1,4.73597e-05,4.22407e-06,2.33761e-05,0.00947193,0.000844815,0.00467523,0.999382,-0.00120157,0.0351185,0.00038244,0.0352802,0.476941,-1.02743,33.1875,1,14742,1527353
41,1,0.999383,-0.00115805,0.0351108,0.000397521,-0.681659,-0.070819,9.77855,0.113865,-0.521826,1.0133,-0.00681798,-0.000717616,0.0977853,1,4.69702e-05,-7.21968e-06,1.76619e-05,0.00939404,-0.00144394,0.00353237,0.999383,-0.00115805,0.0351108,0.000397521,0.0347996,0.47839,-1.02638,33.1875,1,14743,1527453
41,2,0.999383,-0.00115805,0.0351108,0.000397521,-0.681659,-0.070819,9.77855,0.113865,-0.521826,1.0133,-0.00681798,-0.000717616,0.0977853,1,4.69702e-05,-7.21968e-06,1.76619e-05,0.00939404,-0.00144394,0.00353237,0.999383,-0.00115805,0.0351108,0.000397521,0.0347996,0.47839,-1.02638,33.1875,1,14743,1527453
41,3,0.999383,-0.00115805,0.0351108,0.000397521,-0.681659,-0.070819,9.77855,0.113865,-0.521826,1.0133,-0.00681798,-0.000717616,0.0977853,1,4.69702e-05,-7.21968e-06,1.76619e-05,0.00939404,-0.00144394,0.00353237,0.999383,-0.00115805,0.0351108,0.000397521,0.0347996,0.47839,-1.02638,33.1875,1,14743,1527453
41,4,0.999383,-0.00111536,0.035112,0.000412914,-0.676409,-0.0787946,9.79201,0.122114,-0.529784,1.02949,-0.00676364,-0.00079731,0.0979201,1,4.6596e-05,2.15137e-06,1.7641e-05,0.00931919,0.000430274,0.0035282,0.999383,-0.00111536,0.035112,0.000412914,0.0371682,0.478397,-1.02791,33.1875,1,14744,1527553
42,1,0.999383,-0.00111536,0.035112,0.000412914,-0.676409,-0.0787946,9.79201,0.122114,-0.529784,1.02949,-0.00676364,-0.00079731,0.0979201,1,4.6596e-05,2.15137e-06,1.7641e-05,0.00931919,0.000430274,0.0035282,0.999383,-0.00111536,0.035112,0.000412914,0.0371682,0.478397,-1.02791,33.1875,1,14744,1527553
42,2,0.999383,-0.00111536,0.035112,0.000412914,-0.676409,-0.0787946,9.79201,0.122114,-0.529784,1.02949,-0.00676364,-0.00079731,0.0979201,1,4.6596e-05,2.15137e-06,1.7641e-05,0.00931919,0.000430274,0.0035282,0.999383,-0.00111536,0.035112,0.000412914,0.0371682,0.478397,-1.02791,33.1875,1,14744,1527553
42,3,0.999383,-0.00109,0.0350992,0.000410654,-0.688677,-0.0683287,9.77999,0.106877,-0.516862,1.0126,-0.00688914,-0.000688902,0.0977997,1,2.87555e-05,-1.2124e-05,-6.4273e-07,0.0057511,-0.0024248,-0.000128546,0.999383,-0.00109,0.0350992,0.000410654,0.0375838,0.479405,-1.02991,33.1875,1,14745,1527653
42,4,0.999383,-0.00109,0.0350992,0.000410654,-0.688677,-0.0683287,9.77999,0.106877,-0.516862,1.0126,-0.00688914,-0.000688902,0.0977997,1,2.87555e-05,-1.2124e-05,-6.4273e-07,0.0057511,-0.0024248,-0.000128546,0.999383,-0.00109,0.0350992,0.000410654,0.0375838,0.479405,-1.02991,33.1875,1,14745,1527653
43,1,0.999383,-0.00109,0.0350992,0.000410654,-0.688677,-0.0683287,9.77999,0.106877,-0.516862,1.0126,-0.00688914,-0.000688902,0.0977997,1,2.87555e-05,-1.2124e-05,-6.4273e-07,0.0057511,-0.0024248,-0.000128546,0.999383,-0.00109,0.0350992,0.000410654,0.0375838,0.479405,-1.02991,33.1875,1,14745,1527653
43,2,0.999384,-0.00105656,0.0350876,0.000420159,-0.684346,-0.0627614,9.78067,0.111805,-0.515506,1.01815,-0.00684556,-0.000635098,0.0978066,1,3.74057e-05,-1.08237e-05,1.21891e-05,0.00748114,-0.00216475,0.00243783,0.999384,-0.00105656,0.0350876,0.000420159,0.0361442,0.47845,-1.03043,33.1875,1,14746,1527753
43,3,0.999384,-0.00105656,0.0350876,0.000420159,-0.684346,-0.0627614,9.78067,0.111805,-0.515506,1.01815,-0.00684556,-0.000635098,0.0978066,1,3.74057e-05,-1.08237e-05,1.21891e-05,0.00748114,-0.00216475,0.00243783,0.999384,-0.00105656,0.0350876,0.000420159,0.0361442,0.47845,-1.03043,33.1875,1,14746,1527753
43,4,0.999384,-0.00105656,0.0350876,0.000420159,-0.684346,-0.0627614,9.78067,0.111805,-0.515506,1.01815,-0.00684556,-0.000635098,0.0978066,1,3.74057e-05,-1.08237e-05,1.21891e-05,0.00748114,-0.00216475,0.00243783,0.999384,-0.00105656,0.0350876,0.000420159,0.0361442,0.47845,-1.03043,33.1875,1,14746,1527753
44,1,0.999384,-0.00101894,0.0350768,0.00043671,-0.68228,-0.0644785,9.78912,0.112924,-0.517695,1.02376,-0.00682474,-0.000653204,0.097891,1,4.16487e-05,-1.00154e-05,1.9368e-05,0.00832973,-0.00200309,0.0038736,0.999384,-0.00101894,0.0350768,0.00043671,0.0352598,0.477437,-1.02792,33.1875,1,14747,1527853
44,2,0.999384,-0.00101894,0.0350768,0.00043671,-0.68228,-0.0644785,9.78912,0.112924,-0.517695,1.02376,-0.00682474,-0.000653204,0.097891,1,4.16487e-05,-1.00154e-05,1.9368e-05,0.00832973,-0.00200309,0.0038736,0.999384,-0.00101894,0.0350768,0.00043671,0.0352598,0.477437,-1.02792,33.1875,1,14747,1527853
44,3,0.999384,-0.00101894,0.0350768,0.00043671,-0.68228,-0.0644785,9.78912,0.112924,-0.517695,1.02376,-0.00682474,-0.000653204,0.097891,1,4.16487e-05,-1.00154e-05,1.9368e-05,0.00832973,-0.00200309,0.0038736,0.999384,-0.00101894,0.0350768,0.00043671,0.0352598,0.477437,-1.02792,33.1875,1,14747,1527853
44,4,0.999384,-0.000979301,0.0350765,0.000453129,-0.672927,-0.0805154,9.79571,0.123879,-0.537467,1.03639,-0.00672914,-0.00081397,0.097957,1,4.36772e-05,5.04882e-07,1.92745e-05,0.00873545,0.000100976,0.0038549,0.999384,-0.000979301,0.0350765,0.000453129,0.0372583,0.477367,-1.0249,33.1875,1,14748,1527953
45,1,0.999384,-0.000979301,0.0350765,0.000453129,-0.672927,-0.0805154,9.79571,0.123879,-0.537467,1.03639,-0.00672914,-0.00081397,0.097957,1,4.36772e-05,5.04882e-07,1.92745e-05,0.00873545,0.000100976,0.0038549,0.999384,-0.000979301,0.0350765,0.000453129,0.0372583,0.477367,-1.0249,33.1875,1,14748,1527953
45,2,0.999384,-0.000979301,0.0350765,0.000453129,-0.672927,-0.0805154,9.79571,0.123879,-0.537467,1.03639,-0.00672914,-0.00081397,0.097957,1,4.36772e-05,5.04882e-07,1.92745e-05,0.00873545,0.000100976,0.0038549,0.999384,-0.000979301,0.0350765,0.000453129,0.0372583,0.477367,-1.0249,33.1875,1,14748,1527953
45,3,0.999384,-0.000955317,0.0350736,0.000451902,-0.692567,-0.0694419,9.77897,0.100786,-0.524733,1.01509,-0.00692606,-0.000700166,0.0977896,1,2.92696e-05,-2.01152e-06,1.64476e-06,0.00585392,-0.000402303,0.000328952,0.999384,-0.000955317,0.0350736,0.000451902,0.0367198,0.477895,-1.02691,33.1875,1,14749,1528053
45,4,0.999384,-0.000955317,0.0350736,0.000451902,-0.692567,-0.0694419,9.77897,0.100786,-0.524733,1.01509,-0.00692606,-0.000700166,0.0977896,1,2.92696e-05,-2.01152e-06,1.64476e-06,0.00585392,-0.000402303,0.000328952,0.999384,-0.000955317,0.0350736,0.000451902,0.0367198,0.477895,-1.02691,33.1875,1,14749,1528053
46,1,0.999384,-0.000955317,0.0350736,0.000451902,-0.692567,-0.0694419,9.77897,0.100786,-0.524733,1.01509,-0.00692606,-0.000700166,0.0977896,1,2.92696e-05,-2.01152e-06,1.64476e-06,0.00585392,-0.000402303,0.000328952,0.999384,-0.000955317,0.0350736,0.000451902,0.0367198,0.477895,-1.02691,33.1875,1,14749,1528053
46,2,0.999385,-0.000923902,0.0350652,0.000461858,-0.674327,-0.0749922,9.79204,0.121592,-0.528684,1.02829,-0.00674473,-0.00075722,0.0979202,1,3.63942e-05,-7.59578e-06,1.27014e-05,0.00727885,-0.00151916,0.00254028,0.999385,-0.000923902,0.0350652,0.000461858,0.0362097,0.477439,-1.02843,33.1875,1,14750,1528153
46,3,0.999385,-0.000923902,0.0350652,0.000461858,-0.674327,-0.0749922,9.79204,0.121592,-0.528684,1.02829,-0.00674473,-0.00075722,0.0979202,1,3.63942e-05,-7.59578e-06,1.27014e-05,0.00727885,-0.00151916,0.00254028,0.999385,-0.000923902,0.0350652,0.000461858,0.0362097,0.477439,-1.02843,33.1875,1,14750,1528153
46,4,0.999385,-0.000923902,0.0350652,0.000461858,-0.674327,-0.0749922,9.79204,0.121592,-0.528684,1.02829,-0.00674473,-0.00075722,0.0979202,1,3.63942e-05,-7.59578e-06,1.27014e-05,0.00727885,-0.00151916,0.00254028,0.999385,-0.000923902,0.0350652,0.000461858,0.0362097,0.477439,-1.02843,33.1875,1,14750,1528153
47,1,0.999385,-0.000892518,0.0350424,0.000467343,-0.682842,-0.0662158,9.782,0.115307,-0.5218,1.01598,-0.00683271,-0.000669483,0.0978196,1,3.68356e-05,-2.19607e-05,8.67057e-06,0.00736713,-0.00439214,0.00173411,0.999385,-0.000892518,0.0350424,0.000467343,0.0352105,0.477474,-1.02994,33.1875,1,14751,1528253
47,2,0.999385,-0.000892518,0.0350424,0.000467343,-0.682842,-0.0662158,9.782,0.115307,-0.5218,1.01598,-0.00683271,-0.000669483,0.0978196,1,3.68356e-05,-2.19607e-05,8.67057e-06,0.00736713,-0.00439214,0.00173411,0.999385,-0.000892518,0.0350424,0.000467343,0.0352105,0.477474,-1.02994,33.1875,1,14751,1528253
47,3,0.999385,-0.000892518,0.0350424,0.000467343,-0.682842,-0.0662158,9.782,0.115307,-0.5218,1.01598,-0.00683271,-0.000669483,0.0978196,1,3.68356e-05,-2.19607e-05,8.67057e-06,0.00736713,-0.00439214,0.00173411,0.999385,-0.000892518,0.0350424,0.000467343,0.0352105,0.477474,-1.02994,33.1875,1,14751,1528253
47,4,0.999386,-0.000842827,0.0350388,0.000467877,-0.681806,-0.0770013,9.79411,0.115258,-0.538037,1.03037,-0.00681859,-0.000780956,0.0979409,1,5.55869e-05,-2.73794e-06,3.99903e-06,0.0111174,-0.000547589,0.000799806,0.999386,-0.000842827,0.0350388,0.000467877,0.0357077,0.476494,-1.02996,33.1875,1,14752,1528353
48,1,0.999386,-0.000842827,0.0350388,0.000467877,-0.681806,-0.0770013,9.79411,0.115258,-0.538037,1.03037,-0.00681859,-0.000780956,0.0979409,1,5.55869e-05,-2.73794e-06,3.99903e-06,0.0111174,-0.000547589,0.000799806,0.999386,-0.000842827,0.0350388,0.000467877,0.0357077,0.476494,-1.02996,33.1875,1,14752,1528353
48,2,0.999386,-0.000842827,0.0350388,0.000467877,-0.681806,-0.0770013,9.79411,0.115258,-0.538037,1.03037,-0.00681859,-0.000780956,0.0979409,1,5.55869e-05,-2.73794e-06,3.99903e-06,0.0111174,-0.000547589,0.000799806,0.999386,-0.000842827,0.0350388,0.000467877,0.0357077,0.476494,-1.02996,33.1875,1,14752,1528353
48,3,0.999386,-0.000796898,0.0350378,0.000479776,-0.682038,-0.0639225,9.77827,0.112062,-0.5216,1.01441,-0.00682034,-0.000649513,0.0977826,1,5.15096e-05,8.20481e-08,1.57317e-05,0.0103019,1.64096e-05,0.00314635,0.999386,-0.000796898,0.0350378,0.000479776,0.0362135,0.476472,-1.02896,33.1875,1,14753,1528453
48,4,0.999386,-0.000796898,0.0350378,0.000479776,-0.682038,-0.0639225,9.77827,0.112062,-0.5216,1.01441,-0.00682034,-0.000649513,0.0977826,1,5.15096e-05,8.20481e-08,1.57317e-05,0.0103019,1.64096e-05,0.00314635,0.999386,-0.000796898,0.0350378,0.000479776,0.0362135,0.476472,-1.02896,33.1875,1,14753,1528453
49,1,0.999386,-0.000796898,0.0350378,0.000479776,-0.682038,-0.0639225,9.77827,0.112062,-0.5216,1.01441,-0.00682034,-0.000649513,0.0977826,1,5.15096e-05,8.20481e-08,1.57317e-05,0.0103019,1.64096e-05,0.00314635,0.999386,-0.000796898,0.0350378,0.000479776,0.0362135,0.476472,-1.02896,33.1875,1,14753,1528453
49,2,0.999386,-0.000775248,0.0350276,0.000493204,-0.676359,-0.0793949,9.7937,0.123173,-0.537318,1.0335,-0.00676535,-0.000799461,0.0979369,1,2.70698e-05,-9.13447e-06,1.55699e-05,0.00541395,-0.00182689,0.00311398,0.999386,-0.000775248,0.0350276,0.000493204,0.0347868,0.476954,-1.02793,33.1875,1,14754,1528553
49,3,0.999386,-0.000775248,0.0350276,0.000493204,-0.676359,-0.0793949,9.7937,0.123173,-0.537318,1.0335,-0.00676535,-0.000799461,0.0979369,1,2.70698e-05,-9.13447e-06,1.55699e-05,0.00541395,-0.00182689,0.00311398,0.999386,-0.000775248,0.0350276,0.000493204,0.0347868,0.476954,-1.02793,33.1875,1,14754,1528553
49,4,0.999386,-0.000775248,0.0350276,0.000493204,-0.676359,-0.0793949,9.7937,0.123173,-0.537318,1.0335,-0.00676535,-0.000799461,0.0979369,1,2.70698e-05,-9.13447e-06,1.55699e-05,0.00541395,-0.00182689,0.00311398,0.999386,-0.000775248,0.0350276,0.000493204,0.0347868,0.476954,-1.02793,33.1875,1,14754,1528553
50,1,0.999387,-0.000725647,0.0350109,0.000501876,-0.689997,-0.073491,9.7752,0.106373,-0.53393,1.01065,-0.00690302,-0.000745801,0.0977517,1,5.49276e-05,-1.57058e-05,1.10342e-05,0.0109855,-0.00314117,0.00220685,0.999387,-0.000725647,0.0350109,0.000501876,0.034783,0.47792,-1.0274,33.1875,1,14755,1528653
50,2,0.999387,-0.000725647,0.0350109,0.000501876,-0.689997,-0.073491,9.7752,0.106373,-0.53393,1.01065,-0.00690302,-0.000745801,0.0977517,1,5.49276e-05,-1.57058e-05,1.10342e-05,0.0109855,-0.00314117,0.00220685,0.999387,-0.000725647,0.0350109,0.000501876,0.034783,0.47792,-1.0274,33.1875,1,14755,1528653
50,3,0.999387,-0.000725647,0.0350109,0.000501876,-0.689997,-0.073491,9.7752,0.106373,-0.53393,1.01065,-0.00690302,-0.000745801,0.0977517,1,5.49276e-05,-1.57058e-05,1.10342e-05,0.0109855,-0.00314117,0.00220685,0.999387,-0.000725647,0.0350109,0.000501876,0.034783,0.47792,-1.0274,33.1875,1,14755,1528653
50,4,0.999386,-0.000703264,0.0350175,0.000504986,-0.686387,-0.0758875,9.79413,0.10944,-0.533232,1.0296,-0.00686233,-0.000764532,0.0979414,1,2.85282e-05,7.82143e-06,5.06271e-06,0.00570564,0.00156429,0.00101254,0.999386,-0.000703264,0.0350175,0.000504986,0.035749,0.476946,-1.02793,33.1875,1,14756,1528753
51,1,0.999386,-0.000703264,0.0350175,0.000504986,-0.686387,-0.0758875,9.79413,0.10944,-0.533232,1.0296,-0.00686233,-0.000764532,0.0979414,1,2.85282e-05,7.82143e-06,5.06271e-06,0.00570564,0.00156429,0.00101254,0.999386,-0.000703264,0.0350175,0.000504986,0.035749,0.476946,-1.02793,33.1875,1,14756,1528753
51,2,0.999386,-0.000703264,0.0350175,0.000504986,-0.686387,-0.0758875,9.79413,0.10944,-0.533232,1.0296,-0.00686233,-0.000764532,0.0979414,1,2.85282e-05,7.82143e-06,5.06271e-06,0.00570564,0.00156429,0.00101254,0.999386,-0.000703264,0.0350175,0.000504986,0.035749,0.476946,-1.02793,33.1875,1,14756,1528753
51,3,0.999386,-0.00066268,0.035016,0.000505505,-0.682549,-0.0828849,9.78591,0.113066,-0.544423,1.02201,-0.00682564,-0.000838205,0.097859,1,4.75347e-05,-8.49124e-07,3.88555e-06,0.00950694,-0.000169825,0.000777111,0.999386,-0.00066268,0.035016,0.000505505,0.0356793,0.477479,-1.03045,33.1875,1,14757,1528853
51,4,0.999386,-0.00066268,0.035016,0.000505505,-0.682549,-0.0828849,9.78591,0.113066,-0.544423,1.02201,-0.00682564,-0.000838205,0.097859,1,4.75347e-05,-8.49124e-07,3.88555e-06,0.00950694,-0.000169825,0.000777111,0.999386,-0.00066268,0.035016,0.000505505,0.0356793,0.477479,-1.03045,33.1875,1,14757,1528853
52,1,0.999386,-0.00066268,0.035016,0.000505505,-0.682549,-0.0828849,9.78591,0.113066,-0.544423,1.02201,-0.00682564,-0.000838205,0.097859,1,4.75347e-05,-8.49124e-07,3.88555e-06,0.00950694,-0.000169825,0.000777111,0.999386,-0.00066268,0.035016,0.000505505,0.0356793,0.477479,-1.03045,33.1875,1,14757,1528853
52,2,0.999387,-0.000638654,0.0350015,0.000509671,-0.678481,-0.0675087,9.7823,0.118769,-0.530081,1.01801,-0.00678735,-0.000681672,0.0978227,1,3.30285e-05,-1.3016e-05,9.07296e-06,0.00660569,-0.00260321,0.00181459,0.999387,-0.000638654,0.0350015,0.000509671,0.0352309,0.476977,-1.02945,33.1875,1,14758,1528953
52,3,0.999387,-0.000638654,0.0350015,0.000509671,-0.678481,-0.0675087,9.7823,0.118769,-0.530081,1.01801,-0.00678735,-0.000681672,0.0978227,1,3.30285e-05,-1.3016e-05,9.07296e-06,0.00660569,-0.00260321,0.00181459,0.999387,-0.000638654,0.0350015,0.000509671,0.0352309,0.476977,-1.02945,33.1875,1,14758,1528953
52,4,0.999387,-0.000638654,0.0350015,0.000509671,-0.678481,-0.0675087,9.7823,0.118769,-0.530081,1.01801,-0.00678735,-0.000681672,0.0978227,1,3.30285e-05,-1.3016e-05,9.07296e-06,0.00660569,-0.00260321,0.00181459,0.999387,-0.000638654,0.0350015,0.000509671,0.0352309,0.476977,-1.02945,33.1875,1,14758,1528953
53,1,0.999387,-0.00061434,0.034992,0.000513121,-0.677782,-0.0740294,9.78189,0.115927,-0.536797,1.0164,-0.00677943,-0.00074671,0.0978188,1,3.23467e-05,-8.24405e-06,6.50056e-06,0.00646934,-0.00164881,0.00130011,0.999387,-0.00061434,0.034992,0.000513121,0.0357367,0.476955,-1.02844,33.1875,1,14759,1529053
53,2,0.999387,-0.00061434,0.034992,0.000513121,-0.677782,-0.0740294,9.78189,0.115927,-0.536797,1.0164,-0.00677943,-0.00074671,0.0978188,1,3.23467e-05,-8.24405e-06,6.50056e-06,0.00646934,-0.00164881,0.00130011,0.999387,-0.00061434,0.034992,0.000513121,0.0357367,0.476955,-1.02844,33.1875,1,14759,1529053
53,3,0.999387,-0.00061434,0.034992,0.000513121,-0.677782,-0.0740294,9.78189,0.115927,-0.536797,1.0164,-0.00677943,-0.00074671,0.0978188,1,3.23467e-05,-8.24405e-06,6.50056e-06,0.00646934,-0.00164881,0.00130011,0.999387,-0.00061434,0.034992,0.000513121,0.0357367,0.476955,-1.02844,33.1875,1,14759,1529053
53,4,0.999388,-0.000575138,0.0349823,0.000524272,-0.678984,-0.0791445,9.80221,0.117492,-0.541654,1.03463,-0.0067915,-0.00080075,0.0980219,1,4.62923e-05,-8.59038e-06,1.69185e-05,0.00925847,-0.00171808,0.00338371,0.999388,-0.000575138,0.0349823,0.000524272,0.0357898,0.475952,-1.02695,33.1875,1,14760,1529153
54,1,0.999388,-0.000575138,0.0349823,0.000524272,-0.678984,-0.0791445,9.80221,0.117492,-0.541654,1.03463,-0.0067915,-0.00080075,0.0980219,1,4.62923e-05,-8.59038e-06,1.69185e-05,0.00925847,-0.00171808,0.00338371,0.999388,-0.000575138,0.0349823,0.000524272,0.0357898,0.475952,-1.02695,33.1875,1,14760,1529153
54,2,0.999388,-0.000575138,0.0349823,0.000524272,-0.678984,-0.0791445,9.80221,0.117492,-0.541654,1.03463,-0.0067915,-0.00080075,0.0980219,1,4.62923e-05,-8.59038e-06,1.69185e-05,0.00925847,-0.00171808,0.00338371,0.999388,-0.000575138,0.0349823,0.000524272,0.0357898,0.475952,-1.02695,33.1875,1,14760,1529153
54,3,0.999388,-0.000532077,0.0349709,0.00053867,-0.696866,-0.0675312,9.78648,0.0983797,-0.532525,1.02245,-0.00697078,-0.000685003,0.0978646,1,4.82648e-05,-1.09299e-05,1.74737e-05,0.00965296,-0.00218597,0.00349473,0.999388,-0.000532077,0.0349709,0.00053867,0.0367606,0.476902,-1.02592,33.1875,1,14761,1529253
54,4,0.999388,-0.000532077,0.0349709,0.00053867,-0.696866,-0.0675312,9.78648,0.0983797,-0.532525,1.02245,-0.00697078,-0.000685003,0.0978646,1,4.82648e-05,-1.09299e-05,1.74737e-05,0.00965296,-0.00218597,0.00349473,0.999388,-0.000532077,0.0349709,0.00053867,0.0367606,0.476902,-1.02592,33.1875,1,14761,1529253
55,1,0.999388,-0.000532077,0.0349709,0.00053867,-0.696866,-0.0675312,9.78648,0.0983797,-0.532525,1.02245,-0.00697078,-0.000685003,0.0978646,1,4.82648e-05,-1.09299e-05,1.74737e-05,0.00965296,-0.00218597,0.00349473,0.999388,-0.000532077,0.0349709,0.00053867,0.0367606,0.476902,-1.02592,33.1875,1,14761,1529253
55,2,0.999389,-0.000510854,0.034949,0.000544541,-0.677693,-0.0767548,9.77882,0.115602,-0.542852,1.00828,-0.00678118,-0.000772802,0.0977879,1,2.60993e-05,-2.18041e-05,1.09917e-05,0.00521987,-0.00436082,0.00219833,0.999389,-0.000510854,0.034949,0.000544541,0.0362182,0.478396,-1.0274,33.1875,1,14762,1529353
55,3,0.999389,-0.000510854,0.034949,0.000544541,-0.677693,-0.0767548,9.77882,0.115602,-0.542852,1.00828,-0.00678118,-0.000772802,0.0977879,1,2.60993e-05,-2.18041e-05,1.09917e-05,0.00521987,-0.00436082,0.00219833,0.999389,-0.000510854,0.034949,0.000544541,0.0362182,0.478396,-1.0274,33.1875,1,14762,1529353
55,4,0.999389,-0.000510854,0.034949,0.000544541,-0.677693,-0.0767548,9.77882,0.115602,-0.542852,1.00828,-0.00678118,-0.000772802,0.0977879,1,2.60993e-05,-2.18041e-05,1.09917e-05,0.00521987,-0.00436082,0.00219833,0.999389,-0.000510854,0.034949,0.000544541,0.0362182,0.478396,-1.0274,33.1875,1,14762,1529353
56,1,0.999389,-0.000474002,0.034942,0.000547024,-0.673723,-0.0714523,9.78256,0.119368,-0.538401,1.01645,-0.00673824,-0.000723501,0.0978255,1,4.52865e-05,-5.25668e-06,8.68712e-06,0.0090573,-0.00105134,0.00173742,0.999389,-0.000474002,0.034942,0.000547024,0.0337387,0.47847,-1.03042,33.1875,1,14763,1529453
56,2,0.999389,-0.000474002,0.034942,0.000547024,-0.673723,-0.0714523,9.78256,0.119368,-0.538401,1.01645,-0.00673824,-0.000723501,0.0978255,1,4.52865e-05,-5.25668e-06,8.68712e-06,0.0090573,-0.00105134,0.00173742,0.999389,-0.000474002,0.034942,0.000547024,0.0337387,0.47847,-1.03042,33.1875,1,14763,1529453
56,3,0.999389,-0.000474002,0.034942,0.000547024,-0.673723,-0.0714523,9.78256,0.119368,-0.538401,1.01645,-0.00673824,-0.000723501,0.0978255,1,4.52865e-05,-5.25668e-06,8.68712e-06,0.0090573,-0.00105134,0.00173742,0.999389,-0.000474002,0.034942,0.000547024,0.0337387,0.47847,-1.03042,33.1875,1,14763,1529453
56,4,0.999389,-0.000445544,0.0349302,0.000551048,-0.688506,-0.0805689,9.79141,0.103895,-0.548228,1.02993,-0.00688678,-0.000813816,0.0979139,1,4.12036e-05,-8.81413e-06,4.24857e-06,0.00824071,-0.00176283,0.000849713,0.999389,-0.000445544,0.0349302,0.000551048,0.0352143,0.476507,-1.03047,33.1875,1,14764,1529553
57,1,0.999389,-0.000445544,0.0349302,0.000551048,-0.688506,-0.0805689,9.79141,0.103895,-0.548228,1.02993,-0.00688678,-0.000813816,0.0979139,1,4.12036e-05,-8.81413e-06,4.24857e-06,0.00824071,-0.00176283,0.000849713,0.999389,-0.000445544,0.0349302,0.000551048,0.0352143,0.476507,-1.03047,33.1875,1,14764,1529553
57,2,0.999389,-0.000445544,0.0349302,0.000551048,-0.688506,-0.0805689,9.79141,0.103895,-0.548228,1.02993,-0.00688678,-0.000813816,0.0979139,1,4.12036e-05,-8.81413e-06,4.24857e-06,0.00824071,-0.00176283,0.000849713,0.999389,-0.000445544,0.0349302,0.000551048,0.0352143,0.476507,-1.03047,33.1875,1,14764,1529553
57,3,0.99939,-0.000406693,0.0349233,0.000563473,-0.688587,-0.0709995,9.79454,0.107507,-0.540735,1.03303,-0.0068867,-0.000720326,0.0979453,1,5.16159e-05,-4.35295e-06,1.59476e-05,0.0103232,-0.000870589,0.00318953,0.99939,-0.000406693,0.0349233,0.000563473,0.0352921,0.475486,-1.02796,33.1875,1,14765,1529653
57,4,0.99939,-0.000406693,0.0349233,0.000563473,-0.688587,-0.0709995,9.79454,0.107507,-0.540735,1.03303,-0.0068867,-0.000720326,0.0979453,1,5.16159e-05,-4.35295e-06,1.59476e-05,0.0103232,-0.000870589,0.00318953,0.99939,-0.000406693,0.0349233,0.000563473,0.0352921,0.475486,-1.02796,33.1875,1,14765,1529653
58,1,0.99939,-0.000406693,0.0349233,0.000563473,-0.688587,-0.0709995,9.79454,0.107507,-0.540735,1.03303,-0.0068867,-0.000720326,0.0979453,1,5.16159e-05,-4.35295e-06,1.59476e-05,0.0103232,-0.000870589,0.00318953,0.99939,-0.000406693,0.0349233,0.000563473,0.0352921,0.475486,-1.02796,33.1875,1,14765,1529653
58,2,0.99939,-0.000377006,0.0349061,0.000573627,-0.683802,-0.0743569,9.78601,0.108335,-0.543501,1.01593,-0.00684131,-0.000750733,0.0978598,1,3.59416e-05,-1.68735e-05,9.44936e-06,0.00718833,-0.0033747,0.00188987,0.99939,-0.000377006,0.0349061,0.000573627,0.0358349,0.475437,-1.02544,33.1875,1,14766,1529753
58,3,0.99939,-0.000377006,0.0349061,0.000573627,-0.683802,-0.0743569,9.78601,0.108335,-0.543501,1.01593,-0.00684131,-0.000750733,0.0978598,1,3.59416e-05,-1.68735e-05,9.44936e-06,0.00718833,-0.0033747,0.00188987,0.99939,-0.000377006,0.0349061,0.000573627,0.0358349,0.475437,-1.02544,33.1875,1,14766,1529753
58,4,0.99939,-0.000377006,0.0349061,0.000573627,-0.683802,-0.0743569,9.78601,0.108335,-0.543501,1.01593,-0.00684131,-0.000750733,0.0978598,1,3.59416e-05,-1.68735e-05,9.44936e-06,0.00718833,-0.0033747,0.00188987,0.99939,-0.000377006,0.0349061,0.000573627,0.0358349,0.475437,-1.02544,33.1875,1,14766,1529753
59,1,0.99939,-0.000341812,0.0349021,0.00058084,-0.693437,-0.0734653,9.78912,0.0972503,-0.545076,1.02894,-0.00693541,-0.000741742,0.0978911,1,3.55486e-05,-5.4054e-06,9.29653e-06,0.00710971,-0.00108108,0.00185931,0.99939,-0.000341812,0.0349021,0.00058084,0.0357248,0.478409,-1.0279,33.1875,1,14767,1529853
59,2,0.99939,-0.000341812,0.0349021,0.00058084,-0.693437,-0.0734653,9.78912,0.0972503,-0.545076,1.02894,-0.00693541,-0.000741742,0.0978911,1,3.55486e-05,-5.4054e-06,9.29653e-06,0.00710971,-0.00108108,0.00185931,0.99939,-0.000341812,0.0349021,0.00058084,0.0357248,0.478409,-1.0279,33.1875,1,14767,1529853
59,3,0.99939,-0.000341812,0.0349021,0.00058084,-0.693437,-0.0734653,9.78912,0.0972503,-0.545076,1.02894,-0.00693541,-0.000741742,0.0978911,1,3.55486e-05,-5.4054e-06,9.29653e-06,0.00710971,-0.00108108,0.00185931,0.99939,-0.000341812,0.0349021,0.00058084,0.0357248,0.478409,-1.0279,33.1875,1,14767,1529853
59,4,0.999391,-0.00031872,0.0348898,0.00057735,-0.678353,-0.0782231,9.79,0.118474,-0.543704,1.02425,-0.00678566,-0.00078894,0.0978998,1,3.38388e-05,-1.08963e-05,6.13551e-06,0.00676775,-0.00217927,0.0012271,0.999391,-0.00031872,0.0348898,0.00057735,0.0347298,0.478923,-1.02889,33.1875,1,14768,1529953
60,1,0.999391,-0.00031872,0.0348898,0.00057735,-0.678353,-0.0782231,9.79,0.118474,-0.543704,1.02425,-0.00678566,-0.00078894,0.0978998,1,3.38388e-05,-1.08963e-05,6.13551e-06,0.00676775,-0.00217927,0.0012271,0.999391,-0.00031872,0.0348898,0.00057735,0.0347298,0.478923,-1.02889,33.1875,1,14768,1529953
60,2,0.999391,-0.00031872,0.0348898,0.00057735,-0.678353,-0.0782231,9.79,0.118474,-0.543704,1.02425,-0.00678566,-0.00078894,0.0978998,1,3.38388e-05,-1.08963e-05,6.13551e-06,0.00676775,-0.00217927,0.0012271,0.999391,-0.00031872,0.0348898,0.00057735,0.0347298,0.478923,-1.02889,33.1875,1,14768,1529953
60,3,0.999391,-0.00028581,0.0348788,0.000595297,-0.693744,-0.0707526,9.79017,0.100924,-0.541206,1.02692,-0.00693925,-0.000716508,0.0979015,1,4.45861e-05,-9.33737e-06,1.81366e-05,0.00891723,-0.00186747,0.00362731,0.999391,-0.00028581,0.0348788,0.000595297,0.0347374,0.47699,-1.02995,33.1875,1,14769,1530053
60,4,0.999391,-0.00028581,0.0348788,0.000595297,-0.693744,-0.0707526,9.79017,0.100924,-0.541206,1.02692,-0.00693925,-0.000716508,0.0979015,1,4.45861e-05,-9.33737e-06,1.81366e-05,0.00891723,-0.00186747,0.00362731,0.999391,-0.00028581,0.0348788,0.000595297,0.0347374,0.47699,-1.02995,33.1875,1,14769,1530053
61,1,0.999391,-0.00028581,0.0348788,0.000595297,-0.693744,-0.0707526,9.79017,0.100924,-0.541206,1.02692,-0.00693925,-0.000716508,0.0979015,1,4.45861e-05,-9.33737e-06,1.81366e-05,0.00891723,-0.00186747,0.00362731,0.999391,-0.00028581,0.0348788,0.000595297,0.0347374,0.47699,-1.02995,33.1875,1,14769,1530053
61,2,0.999392,-0.000269272,0.0348531,0.000612052,-0.669254,-0.0725077,9.77913,0.121591,-0.541458,1.01002,-0.00669698,-0.000731479,0.097791,1,3.15624e-05,-2.28509e-05,1.70975e-05,0.00631248,-0.00457017,0.00341951,0.999392,-0.000269272,0.0348531,0.000612052,0.0348029,0.475978,-1.02795,33.1875,1,14770,1530153
61,3,0.999392,-0.000269272,0.0348531,0.000612052,-0.669254,-0.0725077,9.77913,0.121591,-0.541458,1.01002,-0.00669698,-0.000731479,0.097791,1,3.15624e-05,-2.28509e-05,1.70975e-05,0.00631248,-0.00457017,0.00341951,0.999392,-0.000269272,0.0348531,0.000612052,0.0348029,0.475978,-1.02795,33.1875,1,14770,1530153
61,4,0.999392,-0.000269272,0.0348531,0.000612052,-0.669254,-0.0725077,9.77913,0.121591,-0.541458,1.01002,-0.00669698,-0.000731479,0.097791,1,3.15624e-05,-2.28509e-05,1.70975e-05,0.00631248,-0.00457017,0.00341951,0.999392,-0.000269272,0.0348531,0.000612052,0.0348029,0.475978,-1.02795,33.1875,1,14770,1530153
62,1,0.999392,-0.00022972,0.0348529,0.000628032,-0.678915,-0.0742749,9.78325,0.113269,-0.544571,1.02088,-0.00678901,-0.000752091,0.0978324,1,4.68641e-05,6.42525e-07,1.27219e-05,0.00937283,0.000128505,0.00254439,0.999392,-0.00022972,0.0348529,0.000628032,0.0343384,0.476452,-1.02693,33.1875,1,14771,1530253
62,2,0.999392,-0.00022972,0.0348529,0.000628032,-0.678915,-0.0742749,9.78325,0.113269,-0.544571,1.02088,-0.00678901,-0.000752091,0.0978324,1,4.68641e-05,6.42525e-07,1.27219e-05,0.00937283,0.000128505,0.00254439,0.999392,-0.00022972,0.0348529,0.000628032,0.0343384,0.476452,-1.02693,33.1875,1,14771,1530253
62,3,0.999392,-0.00022972,0.0348529,0.000628032,-0.678915,-0.0742749,9.78325,0.113269,-0.544571,1.02088,-0.00678901,-0.000752091,0.0978324,1,4.68641e-05,6.42525e-07,1.27219e-05,0.00937283,0.000128505,0.00254439,0.999392,-0.00022972,0.0348529,0.000628032,0.0343384,0.476452,-1.02693,33.1875,1,14771,1530253
62,4,0.999392,-0.000200875,0.0348505,0.000643736,-0.683228,-0.0759123,9.78938,0.106569,-0.548353,1.02214,-0.00683247,-0.000765768,0.0978937,1,3.32538e-05,-1.06169e-06,9.80491e-06,0.00665076,-0.000212337,0.00196098,0.999392,-0.000200875,0.0348505,0.000643736,0.0362387,0.477899,-1.0269,33.1875,1,14772,1530353
63,1,0.999392,-0.000200875,0.0348505,0.000643736,-0.683228,-0.0759123,9.78938,0.106569,-0.548353,1.02214,-0.00683247,-0.000765768,0.0978937,1,3.32538e-05,-1.06169e-06,9.80491e-06,0.00665076,-0.000212337,0.00196098,0.999392,-0.000200875,0.0348505,0.000643736,0.0362387,0.477899,-1.0269,33.1875,1,14772,1530353
63,2,0.999392,-0.000200875,0.0348505,0.000643736,-0.683228,-0.0759123,9.78938,0.106569,-0.548353,1.02214,-0.00683247,-0.000765768,0.0978937,1,3.32538e-05,-1.06169e-06,9.80491e-06,0.00665076,-0.000212337,0.00196098,0.999392,-0.000200875,0.0348505,0.000643736,0.0362387,0.477899,-1.0269,33.1875,1,14772,1530353
63,3,0.999392,-0.000174183,0.0348517,0.0006457,-0.684572,-0.0700407,9.79554,0.107818,-0.54718,1.03332,-0.00684563,-0.000707506,0.0979553,1,3.49991e-05,3.74115e-07,1.77341e-05,0.00699983,7.4823e-05,0.00354682,0.999392,-0.000174183,0.0348517,0.0006457,0.0366709,0.479377,-1.02788,33.1875,1,14773,1530453
63,4,0.999392,-0.000174183,0.0348517,0.0006457,-0.684572,-0.0700407,9.79554,0.107818,-0.54718,1.03332,-0.00684563,-0.000707506,0.0979553,1,3.49991e-05,3.74115e-07,1.77341e-05,0.00699983,7.4823e-05,0.00354682,0.999392,-0.000174183,0.0348517,0.0006457,0.0366709,0.479377,-1.02788,33.1875,1,14773,1530453
64,1,0.999392,-0.000174183,0.0348517,0.0006457,-0.684572,-0.0700407,9.79554,0.107818,-0.54718,1.03332,-0.00684563,-0.000707506,0.0979553,1,3.49991e-05,3.74115e-07,1.77341e-05,0.00699983,7.4823e-05,0.00354682,0.999392,-0.000174183,0.0348517,0.0006457,0.0366709,0.479377,-1.02788,33.1875,1,14773,1530453
64,2,0.999393,-0.000162828,0.0348365,0.000625881,-0.687896,-0.0747027,9.79281,0.102756,-0.55062,1.0288,-0.0068818,-0.00075209,0.0979279,1,2.52481e-05,-1.46051e-05,8.59982e-06,0.00504962,-0.00292102,0.00171996,0.999393,-0.000162828,0.0348365,0.000625881,0.0361936,0.478414,-1.02841,33.1875,1,14774,1530553
64,3,0.999393,-0.000162828,0.0348365,0.000625881,-0.687896,-0.0747027,9.79281,0.102756,-0.55062,1.0288,-0.0068818,-0.00075209,0.0979279,1,2.52481e-05,-1.46051e-05,8.59982e-06,0.00504962,-0.00292102,0.00171996,0.999393,-0.000162828,0.0348365,0.000625881,0.0361936,0.478414,-1.02841,33.1875,1,14774,1530553
64,4,0.999393,-0.000162828,0.0348365,0.000625881,-0.687896,-0.0747027,9.79281,0.102756,-0.55062,1.0288,-0.0068818,-0.00075209,0.0979279,1,2.52481e-05,-1.46051e-05,8.59982e-06,0.00504962,-0.00292102,0.00171996,0.999393,-0.000162828,0.0348365,0.000625881,0.0361936,0.478414,-1.02841,33.1875,1,14774,1530553
65,1,0.999393,-0.000146386,0.0348302,0.000630386,-0.684595,-0.0792428,9.78765,0.102537,-0.554865,1.02169,-0.00684669,-0.000799314,0.0978764,1,3.32667e-05,-4.04764e-06,2.72953e-05,0.00665335,-0.000809527,0.00545906,0.999393,-0.000146386,0.0348302,0.000630386,0.0361646,0.477953,-1.02993,33.1875,1,14775,1530653
65,2,0.999393,-0.000146386,0.0348302,0.000630386,-0.684595,-0.0792428,9.78765,0.102537,-0.554865,1.02169,-0.00684669,-0.000799314,0.0978764,1,3.32667e-05,-4.04764e-06,2.72953e-05,0.00665335,-0.000809527,0.00545906,0.999393,-0.000146386,0.0348302,0.000630386,0.0361646,0.477953,-1.02993,33.1875,1,14775,1530653
65,3,0.999393,-0.000146386,0.0348302,0.000630386,-0.684595,-0.0792428,9.78765,0.102537,-0.554865,1.02169,-0.00684669,-0.000799314,0.0978764,1,3.32667e-05,-4.04764e-06,2.72953e-05,0.00665335,-0.000809527,0.00545906,0.999393,-0.000146386,0.0348302,0.000630386,0.0361646,0.477953,-1.02993,33.1875,1,14775,1530653
65,4,0.999394,-0.000134151,0.0348165,0.00061601,-0.682033,-0.0785528,9.79443,0.10569,-0.553049,1.02725,-0.00682238,-0.000792862,0.0979441,1,3.69065e-05,-1.05556e-05,7.60509e-06,0.0073813,-0.00211112,0.00152102,0.999394,-0.000134151,0.0348165,0.00061601,0.0361808,0.476978,-1.02995,33.1875,1,14776,1530753
66,1,0.999394,-0.000134151,0.0348165,0.00061601,-0.682033,-0.0785528,9.79443,0.10569,-0.553049,1.02725,-0.00682238,-0.000792862,0.0979441,1,3.69065e-05,-1.05556e-05,7.60509e-06,0.0073813,-0.00211112,0.00152102,0.999394,-0.000134151,0.0348165,0.00061601,0.0361808,0.476978,-1.02995,33.1875,1,14776,1530753
66,2,0.999394,-0.000134151,0.0348165,0.00061601,-0.682033,-0.0785528,9.79443,0.10569,-0.553049,1.02725,-0.00682238,-0.000792862,0.0979441,1,3.69065e-05,-1.05556e-05,7.60509e-06,0.0073813,-0.00211112,0.00152102,0.999394,-0.000134151,0.0348165,0.00061601,0.0361808,0.476978,-1.02995,33.1875,1,14776,1530753
66,3,0.999394,-0.000133412,0.0348116,0.000610067,-0.679784,-0.0843821,9.78385,0.114406,-0.559915,1.0199,-0.0067984,-0.00084889,0.0978384,1,2.47751e-05,-2.99698e-06,1.62832e-05,0.00495502,-0.000599396,0.00325664,0.999394,-0.000133412,0.0348116,0.000610067,0.0348153,0.475969,-1.02745,33.1875,1,14777,1530853
66,4,0.999394,-0.000133412,0.0348116,0.000610067,-0.679784,-0.0843821,9.78385,0.114406,-0.559915,1.0199,-0.0067984,-0.00084889,0.0978384,1,2.47751e-05,-2.99698e-06,1.62832e-05,0.00495502,-0.000599396,0.00325664,0.999394,-0.000133412,0.0348116,0.000610067,0.0348153,0.475969,-1.02745,33.1875,1,14777,1530853
67,1,0.999394,-0.000133412,0.0348116,0.000610067,-0.679784,-0.0843821,9.78385,0.114406,-0.559915,1.0199,-0.0067984,-0.00084889,0.0978384,1,2.47751e-05,-2.99698e-06,1.62832e-05,0.00495502,-0.000599396,0.00325664,0.999394,-0.000133412,0.0348116,0.000610067,0.0348153,0.475969,-1.02745,33.1875,1,14777,1530853
67,2,0.999394,-0.000104487,0.0348032,0.000635625,-0.676783,-0.0674859,9.78567,0.110704,-0.540172,1.0208,-0.0067697,-0.00068121,0.0978566,1,3.15029e-05,-9.65217e-06,1.36719e-05,0.00630058,-0.00193043,0.00273438,0.999394,-0.000104487,0.0348032,0.000635625,0.0338981,0.475462,-1.02594,33.1875,1,14778,1530953
67,3,0.999394,-0.000104487,0.0348032,0.000635625,-0.676783,-0.0674859,9.78567,0.110704,-0.540172,1.0208,-0.0067697,-0.00068121,0.0978566,1,3.15029e-05,-9.65217e-06,1.36719e-05,0.00630058,-0.00193043,0.00273438,0.999394,-0.000104487,0.0348032,0.000635625,0.0338981,0.475462,-1.02594,33.1875,1,14778,1530953
67,4,0.999394,-0.000104487,0.0348032,0.000635625,-0.676783,-0.0674859,9.78567,0.110704,-0.540172,1.0208,-0.0067697,-0.00068121,0.0978566,1,3.15029e-05,-9.65217e-06,1.36719e-05,0.00630058,-0.00193043,0.00273438,0.999394,-0.000104487,0.0348032,0.000635625,0.0338981,0.475462,-1.02594,33.1875,1,14778,1530953
68,1,0.999394,-5.40893e-05,0.0347902,0.000675056,-0.694005,-0.0813503,9.78737,0.0987108,-0.560468,1.02455,-0.00694283,-0.00082148,0.0978734,1,4.00709e-05,-1.42607e-05,9.61324e-06,0.00801419,-0.00285214,0.00192265,0.999394,-5.40893e-05,0.0347902,0.000675056,0.0342933,0.476967,-1.02843,33.1875,1,14779,1531053
68,2,0.999394,-5.40893e-05,0.0347902,0.000675056,-0.694005,-0.0813503,9.78737,0.0987108,-0.560468,1.02455,-0.00694283,-0.00082148,0.0978734,1,4.00709e-05,-1.42607e-05,9.61324e-06,0.00801419,-0.00285214,0.00192265,0.999394,-5.40893e-05,0.0347902,0.000675056,0.0342933,0.476967,-1.02843,33.1875,1,14779,1531053
68,3,0.999394,-5.40893e-05,0.0347902,0.000675056,-0.694005,-0.0813503,9.78737,0.0987108,-0.560468,1.02455,-0.00694283,-0.00082148,0.0978734,1,4.00709e-05,-1.42607e-05,9.61324e-06,0.00801419,-0.00285214,0.00192265,0.999394,-5.40893e-05,0.0347902,0.000675056,0.0342933,0.476967,-1.02843,33.1875,1,14779,1531053
68,4,0.999395,-4.41132e-05,0.0347817,0.00070564,-0.681834,-0.0804314,9.78864,0.110361,-0.553945,1.02085,-0.00681927,-0.000809164,0.0978863,1,2.35606e-05,-4.87831e-06,1.74194e-05,0.00471212,-0.000975662,0.00348389,0.999395,-4.41132e-05,0.0347817,0.00070564,0.036687,0.478401,-1.0279,33.1875,1,14780,1531153
69,1,0.999395,-4.41132e-05,0.0347817,0.00070564,-0.681834,-0.0804314,9.78864,0.110361,-0.553945,1.02085,-0.00681927,-0.000809164,0.0978863,1,2.35606e-05,-4.87831e-06,1.74194e-05,0.00471212,-0.000975662,0.00348389,0.999395,-4.41132e-05,0.0347817,0.00070564,0.036687,0.478401,-1.0279,33.1875,1,14780,1531153
69,2,0.999395,-4.41132e-05,0.0347817,0.00070564,-0.681834,-0.0804314,9.78864,0.110361,-0.553945,1.02085,-0.00681927,-0.000809164,0.0978863,1,2.35606e-05,-4.87831e-06,1.74194e-05,0.00471212,-0.000975662,0.00348389,0.999395,-4.41132e-05,0.0347817,0.00070564,0.036687,0.478401,-1.0279,33.1875,1,14780,1531153
69,3,0.999395,-1.71145e-05,0.0347611,0.000684365,-0.685713,-0.0778473,9.79244,0.105889,-0.551633,1.03025,-0.00686129,-0.000787422,0.097924,1,4.43813e-05,-2.13757e-05,1.87158e-05,0.00887626,-0.00427514,0.00374315,0.999395,-1.71145e-05,0.0347611,0.000684365,0.0366339,0.479404,-1.0294,33.1875,1,14781,1531253
69,4,0.999395,-1.71145e-05,0.0347611,0.000684365,-0.685713,-0.0778473,9.79244,0.105889,-0.551633,1.03025,-0.00686129,-0.000787422,0.097924,1,4.43813e-05,-2.13757e-05,1.87158e-05,0.00887626,-0.00427514,0.00374315,0.999395,-1.71145e-05,0.0347611,0.000684365,0.0366339,0.479404,-1.0294,33.1875,1,14781,1531253
70,1,0.999395,-1.71145e-05,0.0347611,0.000684365,-0.685713,-0.0778473,9.79244,0.105889,-0.551633,1.03025,-0.00686129,-0.000787422,0.097924,1,4.43813e-05,-2.13757e-05,1.87158e-05,0.00887626,-0.00427514,0.00374315,0.999395,-1.71145e-05,0.0347611,0.000684365,0.0366339,0.479404,-1.0294,33.1875,1,14781,1531253
70,2,0.999396,-1.44055e-05,0.0347432,0.000646805,-0.68564,-0.068261,9.77962,0.0997888,-0.543701,1.0146,-0.00685888,-0.000689595,0.097796,1,3.43937e-05,-1.28132e-05,1.87959e-05,0.00687875,-0.00256263,0.00375919,0.999396,-1.44055e-05,0.0347432,0.000646805,0.0366496,0.476983,-1.03046,33.1875,1,14782,1531353
70,3,0.999396,-1.44055e-05,0.0347432,0.000646805,-0.68564,-0.068261,9.77962,0.0997888,-0.543701,1.0146,-0.00685888,-0.000689595,0.097796,1,3.43937e-05,-1.28132e-05,1.87959e-05,0.00687875,-0.00256263,0.00375919,0.999396,-1.44055e-05,0.0347432,0.000646805,0.0366496,0.476983,-1.03046,33.1875,1,14782,1531353
70,4,0.999396,-1.44055e-05,0.0347432,0.000646805,-0.68564,-0.068261,9.77962,0.0997888,-0.543701,1.0146,-0.00685888,-0.000689595,0.097796,1,3.43937e-05,-1.28132e-05,1.87959e-05,0.00687875,-0.00256263,0.00375919,0.999396,-1.44055e-05,0.0347432,0.000646805,0.0366496,0.476983,-1.03046,33.1875,1,14782,1531353
71,1,0.999397,-2.91682e-06,0.0347243,0.000620273,-0.681929,-0.0832418,9.79576,0.110036,-0.567225,1.03306,-0.00682174,-0.000841632,0.0979574,1,4.60391e-05,-1.2636e-05,1.42806e-05,0.00920782,-0.00252721,0.00285611,0.999397,-2.91682e-06,0.0347243,0.000620273,0.0357732,0.475482,-1.02797,33.1875,1,14783,1531453
71,2,0.999397,-2.91682e-06,0.0347243,0.000620273,-0.681929,-0.0832418,9.79576,0.110036,-0.567225,1.03306,-0.00682174,-0.000841632,0.0979574,1,4.60391e-05,-1.2636e-05,1.42806e-05,0.00920782,-0.00252721,0.00285611,0.999397,-2.91682e-06,0.0347243,0.000620273,0.0357732,0.475482,-1.02797,33.1875,1,14783,1531453
71,3,0.999397,-2.91682e-06,0.0347243,0.000620273,-0.681929,-0.0832418,9.79576,0.110036,-0.567225,1.03306,-0.00682174,-0.000841632,0.0979574,1,4.60391e-05,-1.2636e-05,1.42806e-05,0.00920782,-0.00252721,0.00285611,0.999397,-2.91682e-06,0.0347243,0.000620273,0.0357732,0.475482,-1.02797,33.1875,1,14783,1531453
71,4,0.999397,2.517e-05,0.0347306,0.000641771,-0.682508,-0.0559132,9.77664,0.106447,-0.530697,1.01218,-0.00682464,-0.000566019,0.0977664,1,3.39001e-05,2.13455e-06,1.8904e-05,0.00678003,0.00042691,0.0037808,0.999397,2.517e-05,0.0347306,0.000641771,0.0367725,0.475447,-1.02646,33.1875,1,14784,1531553
72,1,0.999397,2.517e-05,0.0347306,0.000641771,-0.682508,-0.0559132,9.77664,0.106447,-0.530697,1.01218,-0.00682464,-0.000566019,0.0977664,1,3.39001e-05,2.13455e-06,1.8904e-05,0.00678003,0.00042691,0.0037808,0.999397,2.517e-05,0.0347306,0.000641771,0.0367725,0.475447,-1.02646,33.1875,1,14784,1531553
72,2,0.999397,2.517e-05,0.0347306,0.000641771,-0.682508,-0.0559132,9.77664,0.106447,-0.530697,1.01218,-0.00682464,-0.000566019,0.0977664,1,3.39001e-05,2.13455e-06,1.8904e-05,0.00678003,0.00042691,0.0037808,0.999397,2.517e-05,0.0347306,0.000641771,0.0367725,0.475447,-1.02646,33.1875,1,14784,1531553
72,3,0.999397,7.30358e-05,0.0347202,0.000629776,-0.683296,-0.0881196,9.79335,0.110249,-0.569823,1.02931,-0.00683661,-0.00089029,0.0979332,1,4.6052e-05,-1.87216e-05,5.40348e-06,0.0092104,-0.00374431,0.0010807,0.999397,7.30358e-05,0.0347202,0.000629776,0.0367317,0.476441,-1.02744,33.1875,1,14785,1531653
72,4,0.999397,7.30358e-05,0.0347202,0.000629776,-0.683296,-0.0881196,9.79335,0.110249,-0.569823,1.02931,-0.00683661,-0.00089029,0.0979332,1,4.6052e-05,-1.87216e-05,5.40348e-06,0.0092104,-0.00374431,0.0010807,0.999397,7.30358e-05,0.0347202,0.000629776,0.0367317,0.476441,-1.02744,33.1875,1,14785,1531653
73,1,0.999397,7.30358e-05,0.0347202,0.000629776,-0.683296,-0.0881196,9.79335,0.110249,-0.569823,1.02931,-0.00683661,-0.00089029,0.0979332,1,4.6052e-05,-1.87216e-05,5.40348e-06,0.0092104,-0.00374431,0.0010807,0.999397,7.30358e-05,0.0347202,0.000629776,0.0367317,0.476441,-1.02744,33.1875,1,14785,1531653
73,2,0.999397,0.000110719,0.0347094,0.00059906,-0.686026,-0.0660618,9.77828,0.102069,-0.546769,1.01188,-0.00686275,-0.000670491,0.0977826,1,4.99376e-05,-1.28035e-05,7.79703e-06,0.00998752,-0.0025607,0.00155941,0.999397,0.000110719,0.0347094,0.00059906,0.0362178,0.476951,-1.02844,33.1875,1,14786,1531753
73,3,0.999397,0.000110719,0.0347094,0.00059906,-0.686026,-0.0660618,9.77828,0.102069,-0.546769,1.01188,-0.00686275,-0.000670491,0.0977826,1,4.99376e-05,-1.28035e-05,7.79703e-06,0.00998752,-0.0025607,0.00155941,0.999397,0.000110719,0.0347094,0.00059906,0.0362178,0.476951,-1.02844,33.1875,1,14786,1531753
73,4,0.999397,0.000110719,0.0347094,0.00059906,-0.686026,-0.0660618,9.77828,0.102069,-0.546769,1.01188,-0.00686275,-0.000670491,0.0977826,1,4.99376e-05,-1.28035e-05,7.79703e-06,0.00998752,-0.0025607,0.00155941,0.999397,0.000110719,0.0347094,0.00059906,0.0362178,0.476951,-1.02844,33.1875,1,14786,1531753
74,1,0.999397,0.000139221,0.0347122,0.000572564,-0.675179,-0.0721676,9.79104,0.116864,-0.54828,1.02753,-0.00675088,-0.000731673,0.0979104,1,5.00586e-05,4.53412e-06,1.4376e-05,0.0100117,0.000906824,0.00287519,0.999397,0.000139221,0.0347122,0.000572564,0.0362178,0.476951,-1.02844,33.1875,1,14787,1531853
74,2,0.999397,0.000139221,0.0347122,0.000572564,-0.675179,-0.0721676,9.79104,0.116864,-0.54828,1.02753,-0.00675088,-0.000731673,0.0979104,1,5.00586e-05,4.53412e-06,1.4376e-05,0.0100117,0.000906824,0.00287519,0.999397,0.000139221,0.0347122,0.000572564,0.0362178,0.476951,-1.02844,33.1875,1,14787,1531853
74,3,0.999397,0.000139221,0.0347122,0.000572564,-0.675179,-0.0721676,9.79104,0.116864,-0.54828,1.02753,-0.00675088,-0.000731673,0.0979104,1,5.00586e-05,4.53412e-06,1.4376e-05,0.0100117,0.000906824,0.00287519,0.999397,0.000139221,0.0347122,0.000572564,0.0362178,0.476951,-1.02844,33.1875,1,14787,1531853
74,4,0.999397,0.000151344,0.0347089,0.000548548,-0.686519,-0.0675157,9.77827,0.100762,-0.54566,1.01194,-0.00686481,-0.000681906,0.0977826,1,3.31978e-05,1.81441e-06,1.86545e-05,0.00663957,0.000362881,0.0037309,0.999397,0.000151344,0.0347089,0.000548548,0.0357775,0.475961,-1.02745,33.1875,1,14788,1531953
75,1,0.999397,0.000151344,0.0347089,0.000548548,-0.686519,-0.0675157,9.77827,0.100762,-0.54566,1.01194,-0.00686481,-0.000681906,0.0977826,1,3.31978e-05,1.81441e-06,1.86545e-05,0.00663957,0.000362881,0.0037309,0.999397,0.000151344,0.0347089,0.000548548,0.0357775,0.475961,-1.02745,33.1875,1,14788,1531953
75,2,0.999397,0.000151344,0.0347089,0.000548548,-0.686519,-0.0675157,9.77827,0.100762,-0.54566,1.01194,-0.00686481,-0.000681906,0.0977826,1,3.31978e-05,1.81441e-06,1.86545e-05,0.00663957,0.000362881,0.0037309,0.999397,0.000151344,0.0347089,0.000548548,0.0357775,0.475961,-1.02745,33.1875,1,14788,1531953
75,3,0.999398,0.000186306,0.0346976,0.000551932,-0.681116,-0.0666516,9.79962,0.110295,-0.546156,1.03557,-0.00681374,-0.000674736,0.0979959,1,4.0913e-05,-1.32358e-05,1.47671e-05,0.00818261,-0.00264715,0.00295342,0.999398,0.000186306,0.0346976,0.000551932,0.0362259,0.476463,-1.02845,33.1875,1,14789,1532053
75,4,0.999398,0.000186306,0.0346976,0.000551932,-0.681116,-0.0666516,9.79962,0.110295,-0.546156,1.03557,-0.00681374,-0.000674736,0.0979959,1,4.0913e-05,-1.32358e-05,1.47671e-05,0.00818261,-0.00264715,0.00295342,0.999398,0.000186306,0.0346976,0.000551932,0.0362259,0.476463,-1.02845,33.1875,1,14789,1532053
76,1,0.999398,0.000186306,0.0346976,0.000551932,-0.681116,-0.0666516,9.79962,0.110295,-0.546156,1.03557,-0.00681374,-0.000674736,0.0979959,1,4.0913e-05,-1.32358e-05,1.47671e-05,0.00818261,-0.00264715,0.00295342,0.999398,0.000186306,0.0346976,0.000551932,0.0362259,0.476463,-1.02845,33.1875,1,14789,1532053
76,2,0.999398,0.000201846,0.034684,0.000523921,-0.688272,-0.0774328,9.78329,0.0981251,-0.559458,1.01693,-0.00688483,-0.00078165,0.0978327,1,3.6493e-05,-1.0915e-05,1.31727e-05,0.0072986,-0.00218299,0.00263454,0.999398,0.000201846,0.034684,0.000523921,0.0367032,0.477425,-1.02793,33.1875,1,14790,1532153
76,3,0.999398,0.000201846,0.034684,0.000523921,-0.688272,-0.0774328,9.78329,0.0981251,-0.559458,1.01693,-0.00688483,-0.00078165,0.0978327,1,3.6493e-05,-1.0915e-05,1.31727e-05,0.0072986,-0.00218299,0.00263454,0.999398,0.000201846,0.034684,0.000523921,0.0367032,0.477425,-1.02793,33.1875,1,14790,1532153
76,4,0.999398,0.000201846,0.034684,0.000523921,-0.688272,-0.0774328,9.78329,0.0981251,-0.559458,1.01693,-0.00688483,-0.00078165,0.0978327,1,3.6493e-05,-1.0915e-05,1.31727e-05,0.0072986,-0.00218299,0.00263454,0.999398,0.000201846,0.034684,0.000523921,0.0367032,0.477425,-1.02793,33.1875,1,14790,1532153
77,1,0.999399,0.000231259,0.0346735,0.000456102,-0.690012,-0.0760106,9.78874,0.0977883,-0.555811,1.0234,-0.00690123,-0.000771135,0.0978872,1,5.53522e-05,-5.77028e-06,1.39588e-05,0.0110704,-0.00115406,0.00279176,0.999399,0.000231259,0.0346735,0.000456102,0.0367032,0.477425,-1.02793,33.1875,1,14791,1532253
77,2,0.999399,0.000231259,0.0346735,0.000456102,-0.690012,-0.0760106,9.78874,0.0977883,-0.555811,1.0234,-0.00690123,-0.000771135,0.0978872,1,5.53522e-05,-5.77028e-06,1.39588e-05,0.0110704,-0.00115406,0.00279176,0.999399,0.000231259,0.0346735,0.000456102,0.0367032,0.477425,-1.02793,33.1875,1,14791,1532253
77,3,0.999399,0.000231259,0.0346735,0.000456102,-0.690012,-0.0760106,9.78874,0.0977883,-0.555811,1.0234,-0.00690123,-0.000771135,0.0978872,1,5.53522e-05,-5.77028e-06,1.39588e-05,0.0110704,-0.00115406,0.00279176,0.999399,0.000231259,0.0346735,0.000456102,0.0367032,0.477425,-1.02793,33.1875,1,14791,1532253
77,4,0.999399,0.000247974,0.0346569,0.000345347,-0.688444,-0.0681957,9.7776,0.0967531,-0.552113,1.0125,-0.00688631,-0.000690512,0.0977758,1,4.42024e-05,-9.55547e-06,-6.38879e-06,0.00884048,-0.00191109,-0.00127776,0.999399,0.000247974,0.0346569,0.000345347,0.0366828,0.477922,-1.02842,33.1875,1,14792,1532353
78,1,0.999399,0.000247974,0.0346569,0.000345347,-0.688444,-0.0681957,9.7776,0.0967531,-0.552113,1.0125,-0.00688631,-0.000690512,0.0977758,1,4.42024e-05,-9.55547e-06,-6.38879e-06,0.00884048,-0.00191109,-0.00127776,0.999399,0.000247974,0.0346569,0.000345347,0.0366828,0.477922,-1.02842,33.1875,1,14792,1532353
78,2,0.999399,0.000247974,0.0346569,0.000345347,-0.688444,-0.0681957,9.7776,0.0967531,-0.552113,1.0125,-0.00688631,-0.000690512,0.0977758,1,4.42024e-05,-9.55547e-06,-6.38879e-06,0.00884048,-0.00191109,-0.00127776,0.999399,0.000247974,0.0346569,0.000345347,0.0366828,0.477922,-1.02842,33.1875,1,14792,1532353
78,3,0.9994,0.000258608,0.0346309,0.00021402,-0.676027,-0.075329,9.79171,0.114073,-0.55863,1.02826,-0.00676218,-0.000762548,0.0979169,1,4.65159e-05,-9.85695e-06,1.09393e-05,0.00930317,-0.00197139,0.00218787,0.9994,0.000258608,0.0346309,0.00021402,0.0356755,0.478445,-1.02992,33.1875,1,14793,1532453
78,4,0.9994,0.000258608,0.0346309,0.00021402,-0.676027,-0.075329,9.79171,0.114073,-0.55863,1.02826,-0.00676218,-0.000762548,0.0979169,1,4.65159e-05,-9.85695e-06,1.09393e-05,0.00930317,-0.00197139,0.00218787,0.9994,0.000258608,0.0346309,0.00021402,0.0356755,0.478445,-1.02992,33.1875,1,14793,1532453
79,1,0.9994,0.000258608,0.0346309,0.00021402,-0.676027,-0.075329,9.79171,0.114073,-0.55863,1.02826,-0.00676218,-0.000762548,0.0979169,1,4.65159e-05,-9.85695e-06,1.09393e-05,0.00930317,-0.00197139,0.00218787,0.9994,0.000258608,0.0346309,0.00021402,0.0356755,0.478445,-1.02992,33.1875,1,14793,1532453
79,2,0.999402,0.000260028,0.0345773,2.97155e-05,-0.676265,-0.0661921,9.76702,0.105812,-0.548792,0.998926,-0.006765,-0.000671703,0.09767,1,4.96747e-05,-1.20909e-05,5.83213e-06,0.00993495,-0.00241818,0.00116643,0.999402,0.000260028,0.0345773,2.97155e-05,0.0361314,0.477014,-1.03197,33.1875,1,14794,1532553
79,3,0.999402,0.000260028,0.0345773,2.97155e-05,-0.676265,-0.0661921,9.76702,0.105812,-0.548792,0.998926,-0.006765,-0.000671703,0.09767,1,4.96747e-05,-1.20909e-05,5.83213e-06,0.00993495,-0.00241818,0.00116643,0.999402,0.000260028,0.0345773,2.97155e-05,0.0361314,0.477014,-1.03197,33.1875,1,14794,1532553
79,4,0.999402,0.000260028,0.0345773,2.97155e-05,-0.676265,-0.0661921,9.76702,0.105812,-0.548792,0.998926,-0.006765,-0.000671703,0.09767,1,4.96747e-05,-1.20909e-05,5.83213e-06,0.00993495,-0.00241818,0.00116643,0.999402,0.000260028,0.0345773,2.97155e-05,0.0361314,0.477014,-1.03197,33.1875,1,14794,1532553
80,1,0.999404,0.000231352,0.0345078,-9.32258e-05,-0.680729,-0.0719466,9.79177,0.10286,-0.554827,1.02473,-0.00681093,-0.000728164,0.0979174,1,4.29804e-05,-1.87419e-05,2.06048e-05,0.00859609,-0.00374839,0.00412095,0.999404,0.000231352,0.0345078,-9.32258e-05,0.0347374,0.47699,-1.02995,33.1875,1,14795,1532653
80,2,0.999404,0.000231352,0.0345078,-9.32258e-05,-0.680729,-0.0719466,9.79177,0.10286,-0.554827,1.02473,-0.00681093,-0.000728164,0.0979174,1,4.29804e-05,-1.87419e-05,2.06048e-05,0.00859609,-0.00374839,0.00412095,0.999404,0.000231352,0.0345078,-9.32258e-05,0.0347374,0.47699,-1.02995,33.1875,1,14795,1532653
80,3,0.999404,0.000231352,0.0345078,-9.32258e-05,-0.680729,-0.0719466,9.79177,0.10286,-0.554827,1.02473,-0.00681093,-0.000728164,0.0979174,1,4.29804e-05,-1.87419e-05,2.06048e-05,0.00859609,-0.00374839,0.00412095,0.999404,0.000231352,0.0345078,-9.32258e-05,0.0347374,0.47699,-1.02995,33.1875,1,14795,1532653
80,4,0.999406,0.000250513,0.0344662,-0.000189718,-0.685614,-0.0744045,9.79177,0.0967505,-0.55722,1.0283,-0.00685655,-0.000753666,0.0979176,1,4.83412e-05,-2.16818e-06,1.12262e-05,0.00966824,-0.000433637,0.00224524,0.999406,0.000250513,0.0344662,-0.000189718,0.0338943,0.476429,-1.02541,33.1875,1,14796,1532753
81,1,0.999406,0.000250513,0.0344662,-0.000189718,-0.685614,-0.0744045,9.79177,0.0967505,-0.55722,1.0283,-0.00685655,-0.000753666,0.0979176,1,4.83412e-05,-2.16818e-06,1.12262e-05,0.00966824,-0.000433637,0.00224524,0.999406,0.000250513,0.0344662,-0.000189718,0.0338943,0.476429,-1.02541,33.1875,1,14796,1532753
81,2,0.999406,0.000250513,0.0344662,-0.000189718,-0.685614,-0.0744045,9.79177,0.0967505,-0.55722,1.0283,-0.00685655,-0.000753666,0.0979176,1,4.83412e-05,-2.16818e-06,1.12262e-05,0.00966824,-0.000433637,0.00224524,0.999406,0.000250513,0.0344662,-0.000189718,0.0338943,0.476429,-1.02541,33.1875,1,14796,1532753
81,3,0.999405,0.000361575,0.0344942,-0.000184239,-0.681771,-0.0753391,9.78768,0.0978554,-0.558561,1.02133,-0.00681929,-0.000762655,0.0978766,1,4.64582e-05,-8.16378e-06,1.25037e-05,0.00929164,-0.00163276,0.00250074,0.999405,0.000361575,0.0344942,-0.000184239,0.0347953,0.477911,-1.0269,33.1875,1,14797,1532853
81,4,0.999405,0.000361575,0.0344942,-0.000184239,-0.681771,-0.0753391,9.78768,0.0978554,-0.558561,1.02133,-0.00681929,-0.000762655,0.0978766,1,4.64582e-05,-8.16378e-06,1.25037e-05,0.00929164,-0.00163276,0.00250074,0.999405,0.000361575,0.0344942,-0.000184239,0.0347953,0.477911,-1.0269,33.1875,1,14797,1532853
82,1,0.999405,0.000361575,0.0344942,-0.000184239,-0.681771,-0.0753391,9.78768,0.0978554,-0.558561,1.02133,-0.00681929,-0.000762655,0.0978766,1,4.64582e-05,-8.16378e-06,1.25037e-05,0.00929164,-0.00163276,0.00250074,0.999405,0.000361575,0.0344942,-0.000184239,0.0347953,0.477911,-1.0269,33.1875,1,14797,1532853
82,2,0.999406,0.000421298,0.0344691,-0.000378934,-0.686267,-0.075696,9.79109,0.0978267,-0.5617,1.02394,-0.00686402,-0.000767515,0.0979107,1,5.21447e-05,-7.05568e-06,2.50136e-05,0.0104289,-0.00141114,0.00500273,0.999406,0.000421298,0.0344691,-0.000378934,0.036687,0.478401,-1.0279,33.1875,1,14798,1532953
82,3,0.999406,0.000421298,0.0344691,-0.000378934,-0.686267,-0.075696,9.79109,0.0978267,-0.5617,1.02394,-0.00686402,-0.000767515,0.0979107,1,5.21447e-05,-7.05568e-06,2.50136e-05,0.0104289,-0.00141114,0.00500273,0.999406,0.000421298,0.0344691,-0.000378934,0.036687,0.478401,-1.0279,33.1875,1,14798,1532953
82,4,0.999406,0.000421298,0.0344691,-0.000378934,-0.686267,-0.075696,9.79109,0.0978267,-0.5617,1.02394,-0.00686402,-0.000767515,0.0979107,1,5.21447e-05,-7.05568e-06,2.50136e-05,0.0104289,-0.00141114,0.00500273,0.999406,0.000421298,0.0344691,-0.000378934,0.036687,0.478401,-1.0279,33.1875,1,14798,1532953
83,1,0.999408,0.000409627,0.0344058,-0.000765604,-0.681844,-0.0658119,9.78844,0.0985179,-0.551914,1.02111,-0.00682207,-0.000665755,0.0978841,1,3.85753e-05,-1.85483e-05,6.15807e-06,0.00771507,-0.00370966,0.00123161,0.999408,0.000409627,0.0344058,-0.000765604,0.0366742,0.476965,-1.02945,33.1875,1,14799,1533053
83,2,0.999408,0.000409627,0.0344058,-0.000765604,-0.681844,-0.0658119,9.78844,0.0985179,-0.551914,1.02111,-0.00682207,-0.000665755,0.0978841,1,3.85753e-05,-1.85483e-05,6.15807e-06,0.00771507,-0.00370966,0.00123161,0.999408,0.000409627,0.0344058,-0.000765604,0.0366742,0.476965,-1.02945,33.1875,1,14799,1533053
83,3,0.999409,0.00036986,0.0343544,-0.00105835,-0.694191,-0.0681397,9.78849,0.0863743,-0.555649,1.02979,-0.00694222,-0.000686971,0.0978848,1,2.80738e-05,-1.62973e-06,5.64756e-06,0.00561476,-0.000325946,0.00112951,0.999409,0.00036986,0.0343544,-0.00105835,0.0357158,0.476006,-1.02997,33.1875,1,14800,1533153
83,4,0.999409,0.00036986,0.0343544,-0.00105835,-0.694191,-0.0681397,9.78849,0.0863743,-0.555649,1.02979,-0.00694222,-0.000686971,0.0978848,1,2.80738e-05,-1.62973e-06,5.64756e-06,0.00561476,-0.000325946,0.00112951,0.999409,0.00036986,0.0343544,-0.00105835,0.0357158,0.476006,-1.02997,33.1875,1,14800,1533153
84,1,0.999409,0.00036986,0.0343544,-0.00105835,-0.694191,-0.0681397,9.78849,0.0863743,-0.555649,1.02979,-0.00694222,-0.000686971,0.0978848,1,2.80738e-05,-1.62973e-06,5.64756e-06,0.00561476,-0.000325946,0.00112951,0.999409,0.00036986,0.0343544,-0.00105835,0.0357158,0.476006,-1.02997,33.1875,1,14800,1533153
84,2,0.999411,0.00036277,0.0343065,-0.00117076,-0.669841,-0.0771751,9.7869,0.106877,-0.554969,1.0184,-0.00670031,-0.000778558,0.0978689,1,3.37773e-05,-9.80122e-06,1.46364e-05,0.00675546,-0.00196024,0.00292727,0.999411,0.00036277,0.0343065,-0.00117076,0.0362382,0.476454,-1.02795,33.1875,1,14801,1533253
84,3,0.999411,0.00036277,0.0343065,-0.00117076,-0.669841,-0.0771751,9.7869,0.106877,-0.554969,1.0184,-0.00670031,-0.000778558,0.0978689,1,3.37773e-05,-9.80122e-06,1.46364e-05,0.00675546,-0.00196024,0.00292727,0.999411,0.00036277,0.0343065,-0.00117076,0.0362382,0.476454,-1.02795,33.1875,1,14801,1533253
84,4,0.999411,0.00036277,0.0343065,-0.00117076,-0.669841,-0.0771751,9.7869,0.106877,-0.554969,1.0184,-0.00670031,-0.000778558,0.0978689,1,3.37773e-05,-9.80122e-06,1.46364e-05,0.00675546,-0.00196024,0.00292727,0.999411,0.00036277,0.0343065,-0.00117076,0.0362382,0.476454,-1.02795,33.1875,1,14801,1533253
85,1,0.999411,0.000375997,0.0342927,-0.00142605,-0.695084,-0.0731523,9.78812,0.0756792,-0.559491,1.02231,-0.00695269,-0.00074018,0.097881,1,4.43383e-05,-9.4159e-06,-1.65037e-06,0.00886767,-0.00188318,-0.000330073,0.999411,0.000375997,0.0342927,-0.00142605,0.0362671,0.476915,-1.02642,33.1875,1,14802,1533353
85,2,0.999411,0.000375997,0.0342927,-0.00142605,-0.695084,-0.0731523,9.78812,0.0756792,-0.559491,1.02231,-0.00695269,-0.00074018,0.097881,1,4.43383e-05,-9.4159e-06,-1.65037e-06,0.00886767,-0.00188318,-0.000330073,0.999411,0.000375997,0.0342927,-0.00142605,0.0362671,0.476915,-1.02642,33.1875,1,14802,1533353
85,3,0.999411,0.000375997,0.0342927,-0.00142605,-0.695084,-0.0731523,9.78812,0.0756792,-0.559491,1.02231,-0.00695269,-0.00074018,0.097881,1,4.43383e-05,-9.4159e-06,-1.65037e-06,0.00886767,-0.00188318,-0.000330073,0.999411,0.000375997,0.0342927,-0.00142605,0.0362671,0.476915,-1.02642,33.1875,1,14802,1533353
85,4,0.99941,0.000413193,0.0343104,-0.00176295,-0.672721,-0.0820308,9.78755,0.103552,-0.565012,1.02375,-0.00672762,-0.000830662,0.0978753,1,5.25601e-05,-2.12552e-06,4.82835e-06,0.010512,-0.000425105,0.00096567,0.99941,0.000413193,0.0343104,-0.00176295,0.0343346,0.477418,-1.0264,33.1875,1,14803,1533453
86,1,0.99941,0.000413193,0.0343104,-0.00176295,-0.672721,-0.0820308,9.78755,0.103552,-0.565012,1.02375,-0.00672762,-0.000830662,0.0978753,1,5.25601e-05,-2.12552e-06,4.82835e-06,0.010512,-0.000425105,0.00096567,0.99941,0.000413193,0.0343104,-0.00176295,0.0343346,0.477418,-1.0264,33.1875,1,14803,1533453
86,2,0.99941,0.000413193,0.0343104,-0.00176295,-0.672721,-0.0820308,9.78755,0.103552,-0.565012,1.02375,-0.00672762,-0.000830662,0.0978753,1,5.25601e-05,-2.12552e-06,4.82835e-06,0.010512,-0.000425105,0.00096567,0.99941,0.000413193,0.0343104,-0.00176295,0.0343346,0.477418,-1.0264,33.1875,1,14803,1533453
86,3,0.99941,0.000517397,0.034285,-0.00217699,-0.682639,-0.0687609,9.77756,0.0960179,-0.552737,1.01117,-0.00682848,-0.000697509,0.0977754,1,5.00884e-05,-1.07103e-05,7.7264e-06,0.0100177,-0.00214207,0.00154528,0.99941,0.000517397,0.034285,-0.00217699,0.0333311,0.476975,-1.02843,33.1875,1,14804,1533553
86,4,0.99941,0.000517397,0.034285,-0.00217699,-0.682639,-0.0687609,9.77756,0.0960179,-0.552737,1.01117,-0.00682848,-0.000697509,0.0977754,1,5.00884e-05,-1.07103e-05,7.7264e-06,0.0100177,-0.00214207,0.00154528,0.99941,0.000517397,0.034285,-0.00217699,0.0333311,0.476975,-1.02843,33.1875,1,14804,1533553
87,1,0.99941,0.000517397,0.034285,-0.00217699,-0.682639,-0.0687609,9.77756,0.0960179,-0.552737,1.01117,-0.00682848,-0.000697509,0.0977754,1,5.00884e-05,-1.07103e-05,7.7264e-06,0.0100177,-0.00214207,0.00154528,0.99941,0.000517397,0.034285,-0.00217699,0.0333311,0.476975,-1.02843,33.1875,1,14804,1533553
87,2,0.999411,0.000637142,0.0342252,-0.00251822,-0.676919,-0.0654251,9.7867,0.0948689,-0.554257,1.02008,-0.00676797,-0.000663334,0.097867,1,4.48451e-05,6.07001e-06,2.25788e-05,0.00896903,0.001214,0.00451576,0.999411,0.000637142,0.0342252,-0.00251822,0.0337795,0.477477,-1.02943,33.1875,1,14805,1533653
87,3,0.999411,0.000637142,0.0342252,-0.00251822,-0.676919,-0.0654251,9.7867,0.0948689,-0.554257,1.02008,-0.00676797,-0.000663334,0.097867,1,4.48451e-05,6.07001e-06,2.25788e-05,0.00896903,0.001214,0.00451576,0.999411,0.000637142,0.0342252,-0.00251822,0.0337795,0.477477,-1.02943,33.1875,1,14805,1533653
87,4,0.999411,0.000637142,0.0342252,-0.00251822,-0.676919,-0.0654251,9.7867,0.0948689,-0.554257,1.02008,-0.00676797,-0.000663334,0.097867,1,4.48451e-05,6.07001e-06,2.25788e-05,0.00896903,0.001214,0.00451576,0.999411,0.000637142,0.0342252,-0.00251822,0.0337795,0.477477,-1.02943,33.1875,1,14805,1533653
88,1,0.999414,0.000721632,0.0340885,-0.00311636,-0.683855,-0.0659568,9.79761,0.0903682,-0.55714,1.03573,-0.00684028,-0.000667678,0.0979759,1,3.9611e-05,-9.00774e-06,2.54325e-05,0.00792221,-0.00180155,0.0050865,0.999414,0.000721632,0.0340885,-0.00311636,0.0347578,0.476493,-1.02945,33.1875,1,14806,1533753
88,2,0.999414,0.000721632,0.0340885,-0.00311636,-0.683855,-0.0659568,9.79761,0.0903682,-0.55714,1.03573,-0.00684028,-0.000667678,0.0979759,1,3.9611e-05,-9.00774e-06,2.54325e-05,0.00792221,-0.00180155,0.0050865,0.999414,0.000721632,0.0340885,-0.00311636,0.0347578,0.476493,-1.02945,33.1875,1,14806,1533753
88,3,0.999414,0.000721632,0.0340885,-0.00311636,-0.683855,-0.0659568,9.79761,0.0903682,-0.55714,1.03573,-0.00684028,-0.000667678,0.0979759,1,3.9611e-05,-9.00774e-06,2.54325e-05,0.00792221,-0.00180155,0.0050865,0.999414,0.000721632,0.0340885,-0.00311636,0.0347578,0.476493,-1.02945,33.1875,1,14806,1533753
88,4,0.999415,0.000767174,0.0339948,-0.00353482,-0.680273,-0.0702038,9.77617,0.0822712,-0.561812,1.01126,-0.00680427,-0.000709776,0.0977615,1,3.83947e-05,-8.00212e-06,1.70265e-05,0.00767893,-0.00160042,0.0034053,0.999415,0.000767174,0.0339948,-0.00353482,0.0343009,0.475034,-1.02948,33.1875,1,14807,1533853
89,1,0.999415,0.000767174,0.0339948,-0.00353482,-0.680273,-0.0702038,9.77617,0.0822712,-0.561812,1.01126,-0.00680427,-0.000709776,0.0977615,1,3.83947e-05,-8.00212e-06,1.70265e-05,0.00767893,-0.00160042,0.0034053,0.999415,0.000767174,0.0339948,-0.00353482,0.0343009,0.475034,-1.02948,33.1875,1,14807,1533853
89,2,0.999415,0.000767174,0.0339948,-0.00353482,-0.680273,-0.0702038,9.77617,0.0822712,-0.561812,1.01126,-0.00680427,-0.000709776,0.0977615,1,3.83947e-05,-8.00212e-06,1.70265e-05,0.00767893,-0.00160042,0.0034053,0.999415,0.000767174,0.0339948,-0.00353482,0.0343009,0.475034,-1.02948,33.1875,1,14807,1533853
89,3,0.999416,0.000852955,0.0339847,-0.0034397,-0.676065,-0.0682233,9.78871,0.0847714,-0.562843,1.02186,-0.00676338,-0.000689811,0.0978869,1,3.79793e-05,-1.40501e-05,1.05129e-05,0.00759585,-0.00281001,0.00210258,0.999416,0.000852955,0.0339847,-0.0034397,0.0348276,0.47596,-1.02694,33.1875,1,14808,1533953
89,4,0.999416,0.000852955,0.0339847,-0.0034397,-0.676065,-0.0682233,9.78871,0.0847714,-0.562843,1.02186,-0.00676338,-0.000689811,0.0978869,1,3.79793e-05,-1.40501e-05,1.05129e-05,0.00759585,-0.00281001,0.00210258,0.999416,0.000852955,0.0339847,-0.0034397,0.0348276,0.47596,-1.02694,33.1875,1,14808,1533953
90,1,0.999416,0.000852955,0.0339847,-0.0034397,-0.676065,-0.0682233,9.78871,0.0847714,-0.562843,1.02186,-0.00676338,-0.000689811,0.0978869,1,3.79793e-05,-1.40501e-05,1.05129e-05,0.00759585,-0.00281001,0.00210258,0.999416,0.000852955,0.0339847,-0.0034397,0.0348276,0.47596,-1.02694,33.1875,1,14808,1533953
90,2,0.999414,0.000912795,0.0340294,-0.00368228,-0.673953,-0.0742411,9.79272,0.0913054,-0.566302,1.02631,-0.00674175,-0.000752153,0.097927,1,4.87044e-05,-1.14869e-05,1.49999e-05,0.00974089,-0.00229738,0.00299998,0.999414,0.000912795,0.0340294,-0.00368228,0.0352968,0.47741,-1.02641,33.1875,1,14809,1534053
90,3,0.999414,0.000912795,0.0340294,-0.00368228,-0.673953,-0.0742411,9.79272,0.0913054,-0.566302,1.02631,-0.00674175,-0.000752153,0.097927,1,4.87044e-05,-1.14869e-05,1.49999e-05,0.00974089,-0.00229738,0.00299998,0.999414,0.000912795,0.0340294,-0.00368228,0.0352968,0.47741,-1.02641,33.1875,1,14809,1534053
90,4,0.999414,0.000912795,0.0340294,-0.00368228,-0.673953,-0.0742411,9.79272,0.0913054,-0.566302,1.02631,-0.00674175,-0.000752153,0.097927,1,4.87044e-05,-1.14869e-05,1.49999e-05,0.00974089,-0.00229738,0.00299998,0.999414,0.000912795,0.0340294,-0.00368228,0.0352968,0.47741,-1.02641,33.1875,1,14809,1534053
91,1,0.999411,0.00091821,0.034004,-0.00448909,-0.690831,-0.0710268,9.77488,0.0731495,-0.567031,1.01251,-0.00690881,-0.000716744,0.0977487,1,3.30117e-05,-2.55757e-06,1.61856e-06,0.00660233,-0.000511513,0.000323712,0.999411,0.00091821,0.034004,-0.00448909,0.0367155,0.477416,-1.02742,33.1875,1,14810,1534153
91,2,0.999411,0.00091821,0.034004,-0.00448909,-0.690831,-0.0710268,9.77488,0.0731495,-0.567031,1.01251,-0.00690881,-0.000716744,0.0977487,1,3.30117e-05,-2.55757e-06,1.61856e-06,0.00660233,-0.000511513,0.000323712,0.999411,0.00091821,0.034004,-0.00448909,0.0367155,0.477416,-1.02742,33.1875,1,14810,1534153
91,3,0.999411,0.00091821,0.034004,-0.00448909,-0.690831,-0.0710268,9.77488,0.0731495,-0.567031,1.01251,-0.00690881,-0.000716744,0.0977487,1,3.30117e-05,-2.55757e-06,1.61856e-06,0.00660233,-0.000511513,0.000323712,0.999411,0.00091821,0.034004,-0.00448909,0.0367155,0.477416,-1.02742,33.1875,1,14810,1534153
91,4,0.99941,0.000825874,0.0339165,-0.00542108,-0.686291,-0.0787372,9.78089,0.0728566,-0.569018,1.01356,-0.00686434,-0.000794846,0.0978087,1,3.68673e-05,-7.45789e-06,1.90755e-05,0.00737346,-0.00149158,0.00381509,0.99941,0.000825874,0.0339165,-0.00542108,0.0352309,0.476977,-1.02945,33.1875,1,14811,1534253
92,1,0.99941,0.000825874,0.0339165,-0.00542108,-0.686291,-0.0787372,9.78089,0.0728566,-0.569018,1.01356,-0.00686434,-0.000794846,0.0978087,1,3.68673e-05,-7.45789e-06,1.90755e-05,0.00737346,-0.00149158,0.00381509,0.99941,0.000825874,0.0339165,-0.00542108,0.0352309,0.476977,-1.02945,33.1875,1,14811,1534253
92,2,0.99941,0.000825874,0.0339165,-0.00542108,-0.686291,-0.0787372,9.78089,0.0728566,-0.569018,1.01356,-0.00686434,-0.000794846,0.0978087,1,3.68673e-05,-7.45789e-06,1.90755e-05,0.00737346,-0.00149158,0.00381509,0.99941,0.000825874,0.0339165,-0.00542108,0.0352309,0.476977,-1.02945,33.1875,1,14811,1534253
92,3,0.99941,0.000841327,0.0337542,-0.00624984,-0.688976,-0.077173,9.79245,0.0723536,-0.567551,1.02492,-0.00689052,-0.000780358,0.0979244,1,4.29619e-05,-4.00996e-06,1.55699e-05,0.00859239,-0.000801992,0.00311399,0.99941,0.000841327,0.0337542,-0.00624984,0.0362254,0.475018,-1.02949,33.1875,1,14812,1534353
92,4,0.99941,0.000841327,0.0337542,-0.00624984,-0.688976,-0.077173,9.79245,0.0723536,-0.567551,1.02492,-0.00689052,-0.000780358,0.0979244,1,4.29619e-05,-4.00996e-06,1.55699e-05,0.00859239,-0.000801992,0.00311399,0.99941,0.000841327,0.0337542,-0.00624984,0.0362254,0.475018,-1.02949,33.1875,1,14812,1534353
93,1,0.99941,0.000841327,0.0337542,-0.00624984,-0.688976,-0.077173,9.79245,0.0723536,-0.567551,1.02492,-0.00689052,-0.000780358,0.0979244,1,4.29619e-05,-4.00996e-06,1.55699e-05,0.00859239,-0.000801992,0.00311399,0.99941,0.000841327,0.0337542,-0.00624984,0.0362254,0.475018,-1.02949,33.1875,1,14812,1534353
93,2,0.999411,0.000786301,0.0337499,-0.006154,-0.691142,-0.0710283,9.78234,0.0566837,-0.563553,1.01667,-0.00691337,-0.000716784,0.0978233,1,3.18809e-05,-1.01493e-05,1.9083e-05,0.00637619,-0.00202986,0.00381661,0.999411,0.000786301,0.0337499,-0.006154,0.036242,0.475487,-1.02847,33.1875,1,14813,1534453
93,3,0.999411,0.000786301,0.0337499,-0.006154,-0.691142,-0.0710283,9.78234,0.0566837,-0.563553,1.01667,-0.00691337,-0.000716784,0.0978233,1,3.18809e-05,-1.01493e-05,1.9083e-05,0.00637619,-0.00202986,0.00381661,0.999411,0.000786301,0.0337499,-0.006154,0.036242,0.475487,-1.02847,33.1875,1,14813,1534453
93,4,0.999411,0.000786301,0.0337499,-0.006154,-0.691142,-0.0710283,9.78234,0.0566837,-0.563553,1.01667,-0.00691337,-0.000716784,0.0978233,1,3.18809e-05,-1.01493e-05,1.9083e-05,0.00637619,-0.00202986,0.00381661,0.999411,0.000786301,0.0337499,-0.006154,0.036242,0.475487,-1.02847,33.1875,1,14813,1534453
94,1,0.99941,0.000753407,0.0337615,-0.00629607,-0.689615,-0.0741308,9.78876,0.0675311,-0.568037,1.02335,-0.00689783,-0.000748129,0.0978874,1,3.45744e-05,-8.61482e-06,3.78666e-06,0.00691489,-0.00172296,0.000757331,0.99941,0.000753407,0.0337615,-0.00629607,0.034355,0.476922,-1.02591,33.1875,1,14814,1534553
94,2,0.99941,0.000753407,0.0337615,-0.00629607,-0.689615,-0.0741308,9.78876,0.0675311,-0.568037,1.02335,-0.00689783,-0.000748129,0.0978874,1,3.45744e-05,-8.61482e-06,3.78666e-06,0.00691489,-0.00172296,0.000757331,0.99941,0.000753407,0.0337615,-0.00629607,0.034355,0.476922,-1.02591,33.1875,1,14814,1534553
94,3,0.99941,0.000753407,0.0337615,-0.00629607,-0.689615,-0.0741308,9.78876,0.0675311,-0.568037,1.02335,-0.00689783,-0.000748129,0.0978874,1,3.45744e-05,-8.61482e-06,3.78666e-06,0.00691489,-0.00172296,0.000757331,0.99941,0.000753407,0.0337615,-0.00629607,0.034355,0.476922,-1.02591,33.1875,1,14814,1534553
94,4,0.999406,0.000846403,0.0337773,-0.00679946,-0.673723,-0.0712083,9.78697,0.0771355,-0.56212,1.01968,-0.00673911,-0.000719349,0.0978695,1,3.62545e-05,-9.69303e-06,1.26084e-05,0.00725091,-0.00193861,0.00252167,0.999406,0.000846403,0.0337773,-0.00679946,0.0352598,0.477437,-1.02792,33.1875,1,14815,1534653
95,1,0.999406,0.000846403,0.0337773,-0.00679946,-0.673723,-0.0712083,9.78697,0.0771355,-0.56212,1.01968,-0.00673911,-0.000719349,0.0978695,1,3.62545e-05,-9.69303e-06,1.26084e-05,0.00725091,-0.00193861,0.00252167,0.999406,0.000846403,0.0337773,-0.00679946,0.0352598,0.477437,-1.02792,33.1875,1,14815,1534653
95,2,0.999406,0.000846403,0.0337773,-0.00679946,-0.673723,-0.0712083,9.78697,0.0771355,-0.56212,1.01968,-0.00673911,-0.000719349,0.0978695,1,3.62545e-05,-9.69303e-06,1.26084e-05,0.00725091,-0.00193861,0.00252167,0.999406,0.000846403,0.0337773,-0.00679946,0.0352598,0.477437,-1.02792,33.1875,1,14815,1534653
95,3,0.999405,0.00085805,0.0336933,-0.00733744,-0.685218,-0.0797981,9.77952,0.0651635,-0.572505,1.01485,-0.00685486,-0.000805958,0.0977949,1,3.93985e-05,-1.38342e-05,1.97665e-05,0.0078797,-0.00276684,0.00395329,0.999405,0.00085805,0.0336933,-0.00733744,0.035712,0.476973,-1.02945,33.1875,1,14816,1534753
95,4,0.999405,0.00085805,0.0336933,-0.00733744,-0.685218,-0.0797981,9.77952,0.0651635,-0.572505,1.01485,-0.00685486,-0.000805958,0.0977949,1,3.93985e-05,-1.38342e-05,1.97665e-05,0.0078797,-0.00276684,0.00395329,0.999405,0.00085805,0.0336933,-0.00733744,0.035712,0.476973,-1.02945,33.1875,1,14816,1534753
96,1,0.999405,0.00085805,0.0336933,-0.00733744,-0.685218,-0.0797981,9.77952,0.0651635,-0.572505,1.01485,-0.00685486,-0.000805958,0.0977949,1,3.93985e-05,-1.38342e-05,1.97665e-05,0.0078797,-0.00276684,0.00395329,0.999405,0.00085805,0.0336933,-0.00733744,0.035712,0.476973,-1.02945,33.1875,1,14816,1534753
96,2,0.999405,0.000834144,0.0336239,-0.00760094,-0.683289,-0.0738497,9.77989,0.0663265,-0.56548,1.01108,-0.00683471,-0.000743086,0.0977988,1,2.28583e-05,-9.35433e-06,8.63526e-06,0.00457166,-0.00187087,0.00172705,0.999405,0.000834144,0.0336239,-0.00760094,0.0332903,0.477968,-1.02941,33.1875,1,14817,1534853
96,3,0.999405,0.000834144,0.0336239,-0.00760094,-0.683289,-0.0738497,9.77989,0.0663265,-0.56548,1.01108,-0.00683471,-0.000743086,0.0977988,1,2.28583e-05,-9.35433e-06,8.63526e-06,0.00457166,-0.00187087,0.00172705,0.999405,0.000834144,0.0336239,-0.00760094,0.0332903,0.477968,-1.02941,33.1875,1,14817,1534853
96,4,0.999405,0.000834144,0.0336239,-0.00760094,-0.683289,-0.0738497,9.77989,0.0663265,-0.56548,1.01108,-0.00683471,-0.000743086,0.0977988,1,2.28583e-05,-9.35433e-06,8.63526e-06,0.00457166,-0.00187087,0.00172705,0.999405,0.000834144,0.0336239,-0.00760094,0.0332903,0.477968,-1.02941,33.1875,1,14817,1534853
97,1,0.999406,0.000896433,0.0335492,-0.00787125,-0.680521,-0.0895411,9.79027,0.0631418,-0.585024,1.0279,-0.00680938,-0.000902898,0.0979023,1,3.73554e-05,-2.14037e-05,1.26788e-05,0.00747108,-0.00428074,0.00253576,0.999406,0.000896433,0.0335492,-0.00787125,0.0342644,0.476506,-1.02996,33.1875,1,14818,1534953
97,2,0.999406,0.000896433,0.0335492,-0.00787125,-0.680521,-0.0895411,9.79027,0.0631418,-0.585024,1.0279,-0.00680938,-0.000902898,0.0979023,1,3.73554e-05,-2.14037e-05,1.26788e-05,0.00747108,-0.00428074,0.00253576,0.999406,0.000896433,0.0335492,-0.00787125,0.0342644,0.476506,-1.02996,33.1875,1,14818,1534953
97,3,0.999406,0.000896433,0.0335492,-0.00787125,-0.680521,-0.0895411,9.79027,0.0631418,-0.585024,1.0279,-0.00680938,-0.000902898,0.0979023,1,3.73554e-05,-2.14037e-05,1.26788e-05,0.00747108,-0.00428074,0.00253576,0.999406,0.000896433,0.0335492,-0.00787125,0.0342644,0.476506,-1.02996,33.1875,1,14818,1534953
97,4,0.999406,0.000935692,0.0335464,-0.00784384,-0.68329,-0.0741996,9.78566,0.0601619,-0.56685,1.02009,-0.00683348,-0.000753347,0.0978564,1,5.73546e-05,-2.99093e-06,9.24438e-06,0.0114709,-0.000598186,0.00184888,0.999406,0.000935692,0.0335464,-0.00784384,0.0338283,0.475995,-1.02845,33.1875,1,14819,1535053
98,1,0.999406,0.000935692,0.0335464,-0.00784384,-0.68329,-0.0741996,9.78566,0.0601619,-0.56685,1.02009,-0.00683348,-0.000753347,0.0978564,1,5.73546e-05,-2.99093e-06,9.24438e-06,0.0114709,-0.000598186,0.00184888,0.999406,0.000935692,0.0335464,-0.00784384,0.0338283,0.475995,-1.02845,33.1875,1,14819,1535053
98,2,0.999406,0.000935692,0.0335464,-0.00784384,-0.68329,-0.0741996,9.78566,0.0601619,-0.56685,1.02009,-0.00683348,-0.000753347,0.0978564,1,5.73546e-05,-2.99093e-06,9.24438e-06,0.0114709,-0.000598186,0.00184888,0.999406,0.000935692,0.0335464,-0.00784384,0.0338283,0.475995,-1.02845,33.1875,1,14819,1535053
98,3,0.999406,0.000963508,0.0335618,-0.0078047,-0.680462,-0.0798445,9.79169,0.0664884,-0.577312,1.02527,-0.00680579,-0.000807026,0.0979168,1,4.35262e-05,-5.97743e-06,4.19291e-06,0.00870525,-0.00119549,0.000838582,0.999406,0.000963508,0.0335618,-0.0078047,0.0333358,0.478899,-1.02687,33.1875,1,14820,1535153
98,4,0.999406,0.000963508,0.0335618,-0.0078047,-0.680462,-0.0798445,9.79169,0.0664884,-0.577312,1.02527,-0.00680579,-0.000807026,0.0979168,1,4.35262e-05,-5.97743e-06,4.19291e-06,0.00870525,-0.00119549,0.000838582,0.999406,0.000963508,0.0335618,-0.0078047,0.0333358,0.478899,-1.02687,33.1875,1,14820,1535153
98,5,0.999406,0.000963508,0.0335618,-0.0078047,-0.680462,-0.0798445,9.79169,0.0664884,-0.577312,1.02527,-0.00680579,-0.000807026,0.0979168,1,4.35262e-05,-5.97743e-06,4.19291e-06,0.00870525,-0.00119549,0.000838582,0.999406,0.000963508,0.0335618,-0.0078047,0.0333358,0.478899,-1.02687,33.1875,1,14820,1535153
98,6,0.999405,0.000978153,0.0335538,-0.0078827,-0.681219,-0.0630675,9.78744,0.0604171,-0.55605,1.02293,-0.00681393,-0.000637682,0.0978742,1,3.46508e-05,-9.00393e-06,1.64508e-05,0.00693017,-0.00180079,0.00329017,0.999405,0.000978153,0.0335538,-0.0078827,0.0338459,0.479355,-1.02535,33.1875,1,14821,1535253
98,7,0.999405,0.000978153,0.0335538,-0.0078827,-0.681219,-0.0630675,9.78744,0.0604171,-0.55605,1.02293,-0.00681393,-0.000637682,0.0978742,1,3.46508e-05,-9.00393e-06,1.64508e-05,0.00693017,-0.00180079,0.00329017,0.999405,0.000978153,0.0335538,-0.0078827,0.0338459,0.479355,-1.02535,33.1875,1,14821,1535253
98,8,0.999405,0.000978153,0.0335538,-0.0078827,-0.681219,-0.0630675,9.78744,0.0604171,-0.55605,1.02293,-0.00681393,-0.000637682,0.0978742,1,3.46508e-05,-9.00393e-06,1.64508e-05,0.00693017,-0.00180079,0.00329017,0.999405,0.000978153,0.0335538,-0.0078827,0.0338459,0.479355,-1.02535,33.1875,1,14821,1535253
98,9,0.999405,0.000981122,0.0335435,-0.00791493,-0.675904,-0.081937,9.78453,0.0686214,-0.580923,1.02127,-0.00676243,-0.000824872,0.097845,1,2.69321e-05,-1.7464e-05,1.71512e-05,0.00538642,-0.0034928,0.00343025,0.999405,0.000981122,0.0335435,-0.00791493,0.034763,0.479862,-1.02685,33.1875,1,14822,1535353
98,10,0.999405,0.000981122,0.0335435,-0.00791493,-0.675904,-0.081937,9.78453,0.0686214,-0.580923,1.02127,-0.00676243,-0.000824872,0.097845,1,2.69321e-05,-1.7464e-05,1.71512e-05,0.00538642,-0.0034928,0.00343025,0.999405,0.000981122,0.0335435,-0.00791493,0.034763,0.479862,-1.02685,33.1875,1,14822,1535353
98,11,0.999405,0.000981122,0.0335435,-0.00791493,-0.675904,-0.081937,9.78453,0.0686214,-0.580923,1.02127,-0.00676243,-0.000824872,0.097845,1,2.69321e-05,-1.7464e-05,1.71512e-05,0.00538642,-0.0034928,0.00343025,0.999405,0.000981122,0.0335435,-0.00791493,0.034763,0.479862,-1.02685,33.1875,1,14822,1535353
98,12,0.999405,0.000993944,0.0335494,-0.00792487,-0.674538,-0.0735215,9.77474,0.0686051,-0.575469,1.00392,-0.00674526,-0.000743271,0.0977474,1,4.00506e-05,4.82175e-07,1.67508e-05,0.00801012,9.6435e-05,0.00335015,0.999405,0.000993944,0.0335494,-0.00792487,0.0356346,0.479439,-1.03091,33.1875,1,14823,1535453
99,1,0.999405,0.000993944,0.0335494,-0.00792487,-0.674538,-0.0735215,9.77474,0.0686051,-0.575469,1.00392,-0.00674526,-0.000743271,0.0977474,1,4.00506e-05,4.82175e-07,1.67508e-05,0.00801012,9.6435e-05,0.00335015,0.999405,0.000993944,0.0335494,-0.00792487,0.0356346,0.479439,-1.03091,33.1875,1,14823,1535453
99,2,0.999405,0.000993944,0.0335494,-0.00792487,-0.674538,-0.0735215,9.77474,0.0686051,-0.575469,1.00392,-0.00674526,-0.000743271,0.0977474,1,4.00506e-05,4.82175e-07,1.67508e-05,0.00801012,9.6435e-05,0.00335015,0.999405,0.000993944,0.0335494,-0.00792487,0.0356346,0.479439,-1.03091,33.1875,1,14823,1535453
99,3,0.999405,0.00100907,0.0335497,-0.00792662,-0.685479,-0.0846436,9.7944,0.0589794,-0.587135,1.02754,-0.00685602,-0.000855103,0.0979438,1,4.35971e-05,-6.32908e-06,9.25561e-06,0.00871942,-0.00126582,0.00185112,0.999405,0.00100907,0.0335497,-0.00792662,0.0361765,0.476499,-1.03047,33.1875,1,14824,1535553
99,4,0.999405,0.00100907,0.0335497,-0.00792662,-0.685479,-0.0846436,9.7944,0.0589794,-0.587135,1.02754,-0.00685602,-0.000855103,0.0979438,1,4.35971e-05,-6.32908e-06,9.25561e-06,0.00871942,-0.00126582,0.00185112,0.999405,0.00100907,0.0335497,-0.00792662,0.0361765,0.476499,-1.03047,33.1875,1,14824,1535553
100,1,0.999405,0.00100907,0.0335497,-0.00792662,-0.685479,-0.0846436,9.7944,0.0589794,-0.587135,1.02754,-0.00685602,-0.000855103,0.0979438,1,4.35971e-05,-6.32908e-06,9.25561e-06,0.00871942,-0.00126582,0.00185112,0.999405,0.00100907,0.0335497,-0.00792662,0.0361765,0.476499,-1.03047,33.1875,1,14824,1535553
100,2,0.999405,0.00102106,0.0335504,-0.00791762,-0.695515,-0.0713984,9.78067,0.0447705,-0.573921,1.01419,-0.00695674,-0.000721509,0.0978066,1,3.74373e-05,-8.23474e-06,1.45044e-05,0.00748747,-0.00164695,0.00290087,0.999405,0.00102106,0.0335504,-0.00791762,0.0352513,0.47648,-1.02895,33.1875,1,14825,1535653
100,3,0.999405,0.00102106,0.0335504,-0.00791762,-0.695515,-0.0713984,9.78067,0.0447705,-0.573921,1.01419,-0.00695674,-0.000721509,0.0978066,1,3.74373e-05,-8.23474e-06,1.45044e-05,0.00748747,-0.00164695,0.00290087,0.999405,0.00102106,0.0335504,-0.00791762,0.0352513,0.47648,-1.02895,33.1875,1,14825,1535653
100,4,0.999405,0.00102106,0.0335504,-0.00791762,-0.695515,-0.0713984,9.78067,0.0447705,-0.573921,1.01419,-0.00695674,-0.000721509,0.0978066,1,3.74373e-05,-8.23474e-06,1.45044e-05,0.00748747,-0.00164695,0.00290087,0.999405,0.00102106,0.0335504,-0.00791762,0.0352513,0.47648,-1.02895,33.1875,1,14825,1535653
101,1,0.999405,0.00104269,0.0335426,-0.00792084,-0.69125,-0.070034,9.79254,0.0527001,-0.565807,1.02953,-0.00691564,-0.000709543,0.0979251,1,4.66555e-05,-1.6058e-05,4.76069e-06,0.0093311,-0.0032116,0.000952139,0.999405,0.00104269,0.0335426,-0.00792084,0.0357333,0.479367,-1.02687,33.1875,1,14826,1535753
101,2,0.999405,0.00104269,0.0335426,-0.00792084,-0.69125,-0.070034,9.79254,0.0527001,-0.565807,1.02953,-0.00691564,-0.000709543,0.0979251,1,4.66555e-05,-1.6058e-05,4.76069e-06,0.0093311,-0.0032116,0.000952139,0.999405,0.00104269,0.0335426,-0.00792084,0.0357333,0.479367,-1.02687,33.1875,1,14826,1535753
101,3,0.999405,0.00104269,0.0335426,-0.00792084,-0.69125,-0.070034,9.79254,0.0527001,-0.565807,1.02953,-0.00691564,-0.000709543,0.0979251,1,4.66555e-05,-1.6058e-05,4.76069e-06,0.0093311,-0.0032116,0.000952139,0.999405,0.00104269,0.0335426,-0.00792084,0.0357333,0.479367,-1.02687,33.1875,1,14826,1535753
101,4,0.999405,0.00106788,0.0335524,-0.00791279,-0.686022,-0.0804405,9.78392,0.0543243,-0.579877,1.02158,-0.00685982,-0.000814472,0.0978391,1,5.02541e-05,1.93536e-06,1.70676e-05,0.0100508,0.000387072,0.00341352,0.999405,0.00106788,0.0335524,-0.00791279,0.0367326,0.479331,-1.02536,33.1875,1,14827,1535853
102,1,0.999405,0.00106788,0.0335524,-0.00791279,-0.686022,-0.0804405,9.78392,0.0543243,-0.579877,1.02158,-0.00685982,-0.000814472,0.0978391,1,5.02541e-05,1.93536e-06,1.70676e-05,0.0100508,0.000387072,0.00341352,0.999405,0.00106788,0.0335524,-0.00791279,0.0367326,0.479331,-1.02536,33.1875,1,14827,1535853
102,2,0.999405,0.00106788,0.0335524,-0.00791279,-0.686022,-0.0804405,9.78392,0.0543243,-0.579877,1.02158,-0.00685982,-0.000814472,0.0978391,1,5.02541e-05,1.93536e-06,1.70676e-05,0.0100508,0.000387072,0.00341352,0.999405,0.00106788,0.0335524,-0.00791279,0.0367326,0.479331,-1.02536,33.1875,1,14827,1535853
102,3,0.999405,0.0010865,0.033555,-0.00789938,-0.682562,-0.0757525,9.78259,0.0630077,-0.575651,1.01208,-0.00682669,-0.000766366,0.0978258,1,4.35989e-05,-5.65321e-06,2.27503e-05,0.00871979,-0.00113064,0.00455006,0.999405,0.0010865,0.033555,-0.00789938,0.0367317,0.476441,-1.02744,33.1875,1,14828,1535953
102,4,0.999405,0.0010865,0.033555,-0.00789938,-0.682562,-0.0757525,9.78259,0.0630077,-0.575651,1.01208,-0.00682669,-0.000766366,0.0978258,1,4.35989e-05,-5.65321e-06,2.27503e-05,0.00871979,-0.00113064,0.00455006,0.999405,0.0010865,0.033555,-0.00789938,0.0367317,0.476441,-1.02744,33.1875,1,14828,1535953
103,1,0.999405,0.0010865,0.033555,-0.00789938,-0.682562,-0.0757525,9.78259,0.0630077,-0.575651,1.01208,-0.00682669,-0.000766366,0.0978258,1,4.35989e-05,-5.65321e-06,2.27503e-05,0.00871979,-0.00113064,0.00455006,0.999405,0.0010865,0.033555,-0.00789938,0.0367317,0.476441,-1.02744,33.1875,1,14828,1535953
103,2,0.999405,0.00109842,0.0335599,-0.00790393,-0.688494,-0.0600152,9.78479,0.0546229,-0.558367,1.01756,-0.00688567,-0.000607671,0.0978478,1,3.81954e-05,-3.74412e-06,3.23363e-06,0.00763908,-0.000748824,0.000646727,0.999405,0.00109842,0.0335599,-0.00790393,0.0352347,0.47601,-1.02997,33.1875,1,14829,1536053
103,3,0.999405,0.00109842,0.0335599,-0.00790393,-0.688494,-0.0600152,9.78479,0.0546229,-0.558367,1.01756,-0.00688567,-0.000607671,0.0978478,1,3.81954e-05,-3.74412e-06,3.23363e-06,0.00763908,-0.000748824,0.000646727,0.999405,0.00109842,0.0335599,-0.00790393,0.0352347,0.47601,-1.02997,33.1875,1,14829,1536053
103,4,0.999405,0.0011025,0.0335606,-0.0078983,-0.679882,-0.07469,9.77783,0.0619001,-0.575783,1.01081,-0.00680036,-0.00075303,0.0977781,1,3.05325e-05,-7.95162e-06,1.1731e-05,0.0061065,-0.00159032,0.0023462,0.999405,0.0011025,0.0335606,-0.0078983,0.0353125,0.47499,-1.02747,33.1875,1,14830,1536153
104,1,0.999405,0.0011025,0.0335606,-0.0078983,-0.679882,-0.07469,9.77783,0.0619001,-0.575783,1.01081,-0.00680036,-0.00075303,0.0977781,1,3.05325e-05,-7.95162e-06,1.1731e-05,0.0061065,-0.00159032,0.0023462,0.999405,0.0011025,0.0335606,-0.0078983,0.0353125,0.47499,-1.02747,33.1875,1,14830,1536153
104,2,0.999405,0.0011025,0.0335606,-0.0078983,-0.679882,-0.07469,9.77783,0.0619001,-0.575783,1.01081,-0.00680036,-0.00075303,0.0977781,1,3.05325e-05,-7.95162e-06,1.1731e-05,0.0061065,-0.00159032,0.0023462,0.999405,0.0011025,0.0335606,-0.0078983,0.0353125,0.47499,-1.02747,33.1875,1,14830,1536153
104,3,0.999405,0.00112063,0.0335653,-0.00789816,-0.682056,-0.0638805,9.77522,0.0620202,-0.561998,1.01219,-0.00682126,-0.000647482,0.097752,1,4.37889e-05,-3.63406e-06,8.53651e-06,0.00875778,-0.000726811,0.0017073,0.999405,0.00112063,0.0335653,-0.00789816,0.0348361,0.476918,-1.02591,33.1875,1,14831,1536253
104,4,0.999405,0.00112063,0.0335653,-0.00789816,-0.682056,-0.0638805,9.77522,0.0620202,-0.561998,1.01219,-0.00682126,-0.000647482,0.097752,1,4.37889e-05,-3.63406e-06,8.53651e-06,0.00875778,-0.000726811,0.0017073,0.999405,0.00112063,0.0335653,-0.00789816,0.0348361,0.476918,-1.02591,33.1875,1,14831,1536253
105,1,0.999405,0.00112063,0.0335653,-0.00789816,-0.682056,-0.0638805,9.77522,0.0620202,-0.561998,1.01219,-0.00682126,-0.000647482,0.097752,1,4.37889e-05,-3.63406e-06,8.53651e-06,0.00875778,-0.000726811,0.0017073,0.999405,0.00112063,0.0335653,-0.00789816,0.0348361,0.476918,-1.02591,33.1875,1,14831,1536253
105,2,0.999404,0.00113899,0.0335711,-0.00790254,-0.673388,-0.0858136,9.78447,0.071157,-0.582025,1.01427,-0.00673435,-0.000866913,0.0978446,1,4.45824e-05,-2.40298e-06,3.96404e-06,0.00891647,-0.000480596,0.000792809,0.999404,0.00113899,0.0335711,-0.00790254,0.0343631,0.476434,-1.02592,33.1875,1,14832,1536353
