frame_id,accel_x,accel_y,accel_z,free_accel_x,free_accel_y,free_accel_z,delta_v_x,delta_v_y,delta_v_z,delta_q_w,delta_q_x,delta_q_y,delta_q_z,rate_x,rate_y,rate_z,quat_w,quat_x,quat_y,quat_z,mag_x,mag_y,mag_z,temperature,status_byte,packet_counter,time_fine
15,-0.710579,-0.131185,9.8052,0.202157,-0.444281,1.03106,-0.00711478,-0.00132169,0.0980513,1,4.78919e-05,-4.62594e-05,3.14323e-05,0.00957838,-0.00925187,0.00628645,0,0,0,0,0.0948023,0.499809,-0.996889,34.8125,1,7839,7398001
16,-0.827246,0.0340509,9.78565,0.0783511,-0.467669,1.01634,-0.00827652,0.000328206,0.0978562,1,6.23278e-05,-2.06883e-05,6.33782e-06,0.0124655,-0.00413765,0.00126756,0,0,0,0,0.088546,0.494079,-1.00103,34.8125,1,7842,7398301
17,-0.366597,-0.333412,9.86766,0.54618,-1.02311,1.20029,-0.00365956,-0.00335166,0.0986762,1,8.73835e-05,3.10717e-05,4.07801e-05,0.0174767,0.00621433,0.00815602,0,0,0,0,0.0942923,0.499352,-0.998412,34.8125,1,7845,7398601
18,-0.640675,0.348957,9.76518,0.18812,-0.029716,0.954334,-0.00640953,0.00347947,0.097652,1,4.79088e-05,-1.2163e-05,5.80071e-05,0.00958176,-0.0024326,0.0116014,0,0,0,0,0.091185,0.490998,-0.993532,34.8125,1,7849,7399001
19,-0.783049,-0.0919718,9.80636,0.124676,-0.674643,1.04358,-0.00783508,-0.000924742,0.0980632,1,2.50843e-05,-2.34542e-05,6.68654e-06,0.00501685,-0.00469085,0.00133731,0,0,0,0,0.0950737,0.499958,-1.00547,34.8125,1,7852,7399301
20,-0.844538,-0.033812,9.75806,0.0475852,-0.448867,0.988773,-0.00844675,-0.000347605,0.0975804,1,4.80674e-05,-7.01506e-06,6.18152e-06,0.00961348,-0.00140301,0.00123631,0,0,0,0,0.0891173,0.493046,-0.998023,34.8125,1,7855,7399601
21,-0.718089,-0.204569,9.80664,0.153506,-0.675716,1.01255,-0.00718869,-0.00205673,0.0980656,1,5.52666e-05,-4.00562e-05,1.38783e-05,0.0110533,-0.00801125,0.00277566,0,0,0,0,0.0911826,0.496647,-1.00957,34.8125,1,7859,7400001
22,-0.687958,-0.0362152,9.8038,0.190461,-0.538779,1.01431,-0.00688513,-0.000374035,0.0980375,1,5.99159e-05,-2.83621e-05,9.78633e-06,0.0119832,-0.00567242,0.00195727,0,0,0,0,0.0930041,0.495877,-0.994443,34.8125,1,7862,7400301
23,-0.728851,-0.0871493,9.77174,0.139663,-0.60076,0.984757,-0.00728846,-0.000879277,0.0977173,1,3.68115e-05,-8.76993e-08,4.04547e-05,0.00736231,-1.75399e-05,0.00809094,0,0,0,0,0.0917254,0.496598,-1.00705,34.8125,1,7865,7400601
24,-0.726692,-0.0294015,9.78647,0.141238,-0.534886,0.99262,-0.00726942,-0.000301924,0.0978645,1,3.93969e-05,-1.28092e-05,1.3655e-05,0.00787938,-0.00256185,0.002731,0,0,0,0,0.0924252,0.498844,-0.996394,34.8125,1,7869,7401001
25,-0.739739,-0.0839688,9.77963,0.13349,-0.596719,0.993492,-0.007397,-0.000851638,0.0977963,1,5.95748e-05,1.79358e-06,2.01035e-05,0.011915,0.000358717,0.00402071,0,0,0,0,0.0895201,0.492617,-1.00157,34.8125,1,7872,7401301
26,-0.709034,-0.0468265,9.79229,0.174786,-0.560814,1.00041,-0.00708833,-0.000474782,0.0979231,1,3.19332e-05,1.01777e-05,1.85014e-05,0.00638665,0.00203553,0.00370029,0,0,0,0,0.0938112,0.499356,-0.998409,34.8125,1,7875,7401601
27,-0.754865,-0.0741455,9.79168,0.123367,-0.588718,1.01331,-0.00754518,-0.000751545,0.097917,1,4.91943e-05,1.74604e-05,3.01582e-05,0.00983885,0.00349208,0.00603164,0,0,0,0,0.0896767,0.493466,-0.994481,34.8125,1,7879,7402001
28,-0.787125,-0.0318498,9.77564,0.0909362,-0.553937,0.99121,-0.00787052,-0.000328398,0.0977565,1,4.86151e-05,3.65057e-06,2.50712e-05,0.00972302,0.000730114,0.00501424,0,0,0,0,0.0955549,0.499954,-1.00548,34.8125,1,7882,7402301
29,-0.790436,-0.0397593,9.77391,0.0735114,-0.555977,0.993065,-0.00790364,-0.000406451,0.0977391,1,4.36474e-05,3.55011e-06,2.05727e-05,0.00872949,0.000710022,0.00411455,0,0,0,0,0.0901374,0.493959,-0.994977,34.8125,1,7885,7402601
30,-0.815351,-0.0955707,9.72918,0.0396547,-0.618365,0.940325,-0.00815603,-0.000966079,0.0972915,1,5.08874e-05,-1.32583e-05,2.88133e-05,0.0101775,-0.00265166,0.00576267,0,0,0,0,0.0932176,0.495105,-1.00608,34.8125,1,7889,7403001
31,-1.11856,0.0196358,9.46536,-0.296128,-0.543547,0.709421,-0.0111992,0.000187344,0.094652,1,4.45349e-05,-7.21027e-05,2.60629e-05,0.00890698,-0.0144205,0.00521258,0,0,0,0,0.0925111,0.497336,-0.993903,34.8125,1,7892,7403301
32,-0.131528,-0.0364117,9.86077,0.72353,-0.566651,1.00474,-0.00133399,-0.000367819,0.0986074,1,1.80052e-05,-9.51193e-05,5.70028e-05,0.00360104,-0.0190239,0.0114006,0,0,0,0,0.0922474,0.495601,-1.00606,34.8125,1,7895,7403601
33,-0.0173593,-0.09107,9.88259,0.860082,-0.600181,0.995626,-0.000188325,-0.000919496,0.0988258,1,4.43997e-05,-7.50715e-05,5.77854e-05,0.00887994,-0.0150143,0.0115571,0,0,0,0,0.0938359,0.499338,-0.9974,34.8125,1,7899,7404001
34,0.0787789,0.0226538,9.84392,0.802041,-0.544597,1.04067,0.000766212,0.000219115,0.0984394,1,3.80986e-05,-0.000109481,4.96389e-05,0.00761973,-0.0218963,0.00992779,0,0,0,0,0.0900828,0.490626,-0.999596,34.8125,1,7902,7404301
35,-0.00852785,0.115592,9.89874,0.801614,-0.255255,1.02119,-8.49402e-05,0.0011355,0.0989876,1,0.000103098,2.47235e-06,6.5958e-05,0.0206195,0.00049447,0.0131916,0,0,0,0,0.0927749,0.499418,-1.00143,34.8125,1,7906,7404701
36,1.13986,-0.0918,9.98496,1.68689,-0.469117,0.948447,0.0113728,-0.000919162,0.0998525,1,2.10427e-05,-0.000130355,0.000133521,0.00420853,-0.026071,0.0267042,0,0,0,0,0.0891922,0.495882,-0.99291,34.8125,1,7909,7405001
37,-0.263378,0.289683,9.78165,0.928209,-0.125909,1.07319,-0.00261711,0.00287833,0.0978175,1,9.18164e-05,8.8249e-05,0.000101649,0.0183633,0.0176498,0.0203299,0,0,0,0,0.0946871,0.499411,-1.00195,34.8125,1,7912,7405301
38,0.385391,-0.0256962,10.0237,1.33948,-0.826298,1.23972,0.00385986,-0.000264118,0.100236,1,4.03213e-05,2.93837e-05,0.000120232,0.00806427,0.00587674,0.0240464,0,0,0,0,0.0922099,0.493835,-0.988929,34.8125,1,7915,7405601
39,-0.374966,-0.191588,9.87805,0.557937,-0.668233,1.12268,-0.00374888,-0.00192759,0.0987804,1,5.51465e-05,1.81902e-06,0.000108392,0.0110293,0.000363805,0.0216784,0,0,0,0,0.0914213,0.496955,-0.999462,34.8125,1,7919,7406001
40,-0.308105,-0.0490745,9.8961,0.473137,-0.66921,1.11398,-0.00307874,-0.000495357,0.098961,1,1.91767e-05,1.10007e-05,0.000132534,0.00383534,0.00220015,0.0265068,0,0,0,0,0.0920423,0.497331,-0.993396,34.8125,1,7922,7406301
41,-0.282493,-0.12415,9.8064,0.603568,-0.643123,1.0471,-0.00282167,-0.00125036,0.098064,1,4.21708e-05,1.53231e-05,0.000103893,0.00843417,0.00306461,0.0207786,0,0,0,0,0.0947682,0.495978,-1.00101,34.8125,1,7925,7406601
42,0.213673,-0.189251,9.89426,0.888522,-0.903773,0.970288,0.00212602,-0.00187937,0.0989431,1,-6.40647e-05,-5.61883e-05,0.000107772,-0.0128129,-0.0112377,0.0215543,0,0,0,0,0.0938652,0.501244,-0.994832,34.8125,1,7929,7407001
43,0.177956,0.0615689,9.98405,0.82382,-0.356986,1.12687,0.00177594,0.000607068,0.0998406,1,4.46686e-05,-1.76365e-05,8.39315e-05,0.00893372,-0.00352729,0.0167863,0,0,0,0,0.0901383,0.49685,-0.992893,34.8125,1,7932,7407301
44,0.162002,-0.0229947,9.89421,0.727032,-0.665911,1.09988,0.00161466,-0.000235613,0.0989421,1,3.04072e-05,-2.73004e-05,0.000108409,0.00608144,-0.00546009,0.0216819,0,0,0,0,0.0953617,0.500229,-0.993347,34.8125,1,7935,7407601
45,-0.263756,0.094741,9.98256,0.36694,-0.389432,1.16847,-0.00265178,0.000940107,0.0998252,1,3.42128e-05,-7.03707e-05,8.93017e-05,0.00684257,-0.0140741,0.0178603,0,0,0,0,0.0940532,0.497251,-0.989871,34.8125,1,7939,7408001
46,-0.0469805,-0.120187,9.90323,0.749693,-0.646264,1.0928,-0.00046612,-0.0012001,0.0990323,1,-9.29017e-06,1.77226e-05,7.27888e-05,-0.00185803,0.00354452,0.0145578,0,0,0,0,0.0957617,0.503658,-0.994282,34.8125,1,7942,7408301
47,-0.366422,-0.104821,9.61561,0.251669,-0.37,0.842678,-0.00367401,-0.00106043,0.0961556,1,6.12254e-05,-5.15657e-05,6.10095e-05,0.0122451,-0.0103131,0.0122019,0,0,0,0,0.0916281,0.500659,-0.988269,34.8125,1,7945,7408601
48,0.122643,-0.29364,9.89154,0.596887,-1.01168,1.0132,0.00121565,-0.00292634,0.0989158,1,-5.02557e-05,-5.58746e-05,4.71644e-05,-0.0100511,-0.0111749,0.00943289,0,0,0,0,0.0933224,0.501293,-0.997354,34.8125,1,7949,7409001
49,-0.432153,0.0496043,9.62048,0.309916,-0.343505,0.783164,-0.00432837,0.000464769,0.0962047,1,0.000161791,-3.54358e-05,1.66971e-05,0.0323582,-0.00708716,0.00333942,0,0,0,0,0.0954703,0.50545,-0.98515,34.8125,1,7952,7409301
50,-0.315133,-0.184019,9.87709,0.536885,-0.662394,1.08456,-0.00313836,-0.0018384,0.0987713,1,-9.59284e-06,6.5379e-05,1.69458e-05,-0.00191857,0.0130758,0.00338916,0,0,0,0,0.0943354,0.505585,-0.992213,34.8125,1,7955,7409601
51,-0.634685,0.0461489,9.54604,0.169377,-0.431607,0.826426,-0.00634666,0.000464775,0.0954604,1,-1.68635e-05,9.66684e-07,-5.26031e-06,-0.00337269,0.000193337,-0.00105206,0,0,0,0,0.094304,0.510426,-0.990085,34.8125,1,7959,7410001
52,-0.742534,-0.23926,9.62194,0.0378675,-0.851275,0.972329,-0.00740752,-0.00239065,0.0962208,1,-9.91081e-06,9.27094e-05,-2.86276e-06,-0.00198216,0.0185419,-0.000572552,0,0,0,0,0.0915559,0.506494,-0.987129,34.8125,1,7962,7410301
53,-0.163287,-0.174024,10.1451,0.421709,-0.543189,1.28548,-0.00162843,-0.00175334,0.10145,1,6.54435e-05,2.28798e-05,-5.56009e-05,0.0130887,0.00457595,-0.0111202,0,0,0,0,0.0957607,0.513296,-0.987502,34.8125,1,7965,7410601
54,-0.204308,0.0786476,9.91286,0.283088,-0.733257,1.01689,-0.00204081,0.000765146,0.0991288,1,0.000108672,1.10459e-05,-5.26523e-05,0.0217345,0.00220919,-0.0105305,0,0,0,0,0.0906971,0.508354,-0.981528,34.8125,1,7969,7411001
55,-0.698092,-0.232297,9.89073,0.0622678,-0.63265,1.05497,-0.00698021,-0.00232107,0.0989074,1,-4.45608e-06,5.32022e-06,-7.24572e-05,-0.000891215,0.00106404,-0.0144914,0,0,0,0,0.0948117,0.516185,-0.984908,34.8125,1,7972,7411301
56,-0.87629,-0.224676,9.43199,-0.290181,-0.732668,0.649357,-0.00874769,-0.00224482,0.0943214,1,1.09913e-06,8.35144e-05,-0.000122547,0.000219826,0.0167029,-0.0245094,0,0,0,0,0.094471,0.518014,-0.977795,34.8125,1,7976,7411701
57,0.111438,0.105127,10.4292,0.716831,-0.501255,1.67091,0.00111562,0.00103851,0.104292,1,5.98232e-05,4.71124e-06,-0.000126552,0.0119646,0.000942247,-0.0253104,0,0,0,0,0.0914851,0.516665,-0.982862,34.8125,1,7979,7412001
58,-0.207905,-0.109329,10.2871,0.549819,-0.613219,1.39069,-0.00208674,-0.00110557,0.10287,1,6.31042e-05,-3.56027e-05,-0.000168865,0.0126208,-0.00712053,-0.0337731,0,0,0,0,0.0906348,0.519482,-0.97623,34.8125,1,7982,7412301
59,-0.632043,-0.270795,9.3744,-0.179814,-0.782013,0.678591,-0.0063321,-0.00271562,0.093743,1,5.25766e-05,-5.72516e-05,-0.000172681,0.0105153,-0.0114503,-0.0345362,0,0,0,0,0.08776,0.518052,-0.976753,34.8125,1,7986,7412701
60,-0.5517,-0.0509723,9.60227,0.25603,-0.672845,0.888378,-0.00550563,-0.000524321,0.0960232,1,8.70728e-05,6.02072e-05,-0.000192707,0.0174146,0.0120414,-0.0385415,0,0,0,0,0.0905014,0.526808,-0.976571,34.8125,1,7989,7413001
61,-0.467129,-0.25626,9.92392,0.0431858,-0.861959,0.983865,-0.00467039,-0.00257944,0.0992388,1,9.48763e-05,1.00584e-05,-0.00021297,0.0189753,0.00201167,-0.042594,0,0,0,0,0.0858654,0.521419,-0.973134,34.8125,1,7992,7413301
62,-0.304391,-0.518403,10.2136,0.272246,-1.02916,1.25163,-0.003038,-0.00519482,0.102136,1,5.93644e-05,4.01354e-05,-0.000220833,0.0118729,0.00802707,-0.0441667,0,0,0,0,0.0891045,0.530641,-0.971934,34.8125,1,7995,7413601
63,-0.56309,-0.177345,9.60841,0.00153736,-0.888516,0.833548,-0.00562777,-0.00179337,0.0960839,1,0.000118637,2.10507e-05,-0.000255715,0.0237274,0.00421013,-0.0511429,0,0,0,0,0.0849092,0.527687,-0.968445,34.8125,1,7999,7414001
64,-0.555888,-0.227994,9.40376,-0.206015,-0.643455,0.457871,-0.00556915,-0.00227097,0.0940372,1,-3.19759e-05,-4.81885e-05,-0.000265387,-0.00639518,-0.0096377,-0.0530775,0,0,0,0,0.0861851,0.531171,-0.972919,34.8125,1,8002,7414301
65,-0.469638,0.262509,9.64514,0.139131,-0.36974,0.81448,-0.00470104,0.00261593,0.0964514,1,6.14372e-05,-3.18886e-05,-0.00028597,0.0122874,-0.00637772,-0.057194,0,0,0,0,0.0815751,0.5301,-0.965346,34.8125,1,8005,7414601
66,-0.299462,0.1087,9.82446,0.290946,-0.464259,1.06705,-0.00299308,0.001067,0.0982448,1,0.000111251,4.44243e-06,-0.000310276,0.0222502,0.000888486,-0.0620551,0,0,0,0,0.0795567,0.532112,-0.967817,34.8125,1,8009,7415001
67,-0.0868968,0.014099,10.1116,0.491451,-0.515967,1.2426,-0.000863478,0.000140657,0.101116,1,4.55395e-06,2.66723e-05,-0.000339178,0.00091079,0.00533446,-0.0678355,0,0,0,0,0.0791505,0.534953,-0.962701,34.8125,1,8012,7415301
68,-0.243328,-0.0517434,10.0639,0.0874057,-0.666999,1.2542,-0.00242514,-0.000549377,0.100639,1,0.000166975,4.22462e-05,-0.000342809,0.033395,0.00844924,-0.0685617,0,0,0,0,0.0747502,0.534076,-0.966236,34.8125,1,8015,7415601
69,-0.53288,-0.0150857,9.62294,-0.312904,-0.663584,0.733825,-0.00532483,-0.000157309,0.0962297,1,5.14329e-05,2.11691e-05,-0.000323508,0.0102866,0.00423382,-0.0647015,0,0,0,0,0.074233,0.536998,-0.965664,34.8125,1,8019,7416001
70,-0.125139,-0.680118,9.68339,0.336179,-1.37749,0.758156,-0.00127461,-0.00683357,0.0968313,1,0.000171739,-9.57148e-05,-0.000343348,0.0343477,-0.019143,-0.0686697,0,0,0,0,0.0705316,0.535476,-0.96063,34.8125,1,8022,7416301
71,-0.443088,0.423075,9.84272,-0.155992,-0.288261,0.820571,-0.00443959,0.00422167,0.0984272,1,6.26056e-05,-5.99655e-05,-0.000365966,0.0125211,-0.0119931,-0.0731932,0,0,0,0,0.0689777,0.537015,-0.964124,34.8125,3,8026,7416701
72,-0.483277,-0.21231,9.37703,-0.223388,-0.785982,0.655856,-0.00484845,-0.00213375,0.0937692,1,7.46191e-05,-7.57608e-05,-0.000345127,0.0149238,-0.0151521,-0.0690254,0,0,0,0,0.0686897,0.536396,-0.95656,34.8125,3,8029,7417001
73,-0.179863,-0.339897,9.60974,0.19422,-1.18832,0.920846,-0.00180719,-0.00342781,0.0960962,1,0.000157097,-3.11606e-05,-0.000376783,0.0314193,-0.00623212,-0.0753566,0,0,0,0,0.0646472,0.535605,-0.965145,34.8125,3,8032,7417301
74,-0.0742172,0.202319,10.7612,0.864251,-0.381881,2.0353,-0.000714315,0.00201399,0.107612,1,4.55976e-05,0.000121633,-0.000415984,0.00911953,0.0243265,-0.0831967,0,0,0,0,0.064874,0.537367,-0.954501,34.8125,3,8035,7417601
75,-1.42144,-1.08457,8.87734,-1.13716,-1.41419,0.02863,-0.0142293,-0.0108588,0.0887694,1,0.000137058,-3.55658e-05,-0.00039702,0.0274115,-0.00711316,-0.079404,0,0,0,0,0.0604201,0.536048,-0.96057,34.8125,3,8039,7418001
76,-0.739506,0.20201,9.48227,-0.41786,-0.432043,0.583601,-0.00739508,0.00199718,0.0948231,1,0.000148905,-7.75195e-06,-0.000359967,0.029781,-0.00155039,-0.0719934,0,0,0,0,0.0629049,0.539343,-0.954953,34.8125,3,8042,7418301
77,0.352522,-0.236104,10.6702,1.02264,-1.27691,1.98335,0.00352036,-0.00239111,0.106701,1,0.000126791,-1.32577e-05,-0.00042781,0.0253583,-0.00265155,-0.085562,0,0,0,0,0.0586551,0.533056,-0.956083,34.8125,3,8046,7418701
78,-0.0404408,0.241308,10.1197,0.654146,-0.476284,1.16116,-0.000425075,0.00241154,0.101197,1,9.44168e-06,-0.000112945,-0.000454427,0.00188834,-0.0225891,-0.0908854,0,0,0,0,0.0590346,0.536982,-0.957513,34.8125,3,8049,7419001
79,-0.417579,-0.795367,10.4063,-0.411426,-1.35041,1.18754,-0.00417716,-0.00795247,0.104063,1,9.89643e-06,2.32393e-05,-0.000390186,0.00197929,0.00464786,-0.0780371,0,0,0,0,0.0553779,0.5335,-0.952018,34.8125,3,8052,7419301
80,0.470671,0.415836,10.977,1.08199,0.000930659,2.28583,0.00469988,0.00414662,0.109771,1,3.52645e-05,-4.71922e-05,-0.000425495,0.0070529,-0.00943844,-0.085099,0,0,0,0,0.0562499,0.534522,-0.955029,34.8125,3,8056,7419701
81,0.356941,-0.236542,10.2772,0.523758,-1.25248,1.31348,0.00355634,-0.00237897,0.102772,1,5.1259e-05,-5.38111e-05,-0.000421803,0.0102518,-0.0107622,-0.0843607,0,0,0,0,0.0530918,0.534396,-0.946431,34.8125,3,8059,7420001
82,-0.267776,-0.908244,10.5605,0.83265,-1.59216,1.84716,-0.00267851,-0.00910661,0.105603,1,0.000125414,3.36268e-05,-0.000431867,0.0250828,0.00672537,-0.0863734,0,0,0,0,0.0558016,0.53402,-0.954028,34.8125,3,8062,7420301
83,0.034642,0.332969,10.1087,-0.331465,-0.642061,0.885782,0.000343591,0.00330737,0.101088,1,0.000109058,-2.71094e-05,-0.000399496,0.0218115,-0.00542188,-0.0798993,0,0,0,0,0.0507517,0.533405,-0.944422,34.8125,3,8065,7420601
84,-0.722619,0.213491,9.77524,0.169317,-0.204502,1.10804,-0.0072309,0.00210253,0.0977528,1,0.000199606,-3.40077e-05,-0.000459377,0.0399212,-0.00680154,-0.0918754,0,0,0,0,0.0488107,0.532951,-0.945434,34.8125,3,8069,7421001
85,-0.0879503,-0.789465,9.42436,-0.213951,-1.8481,0.479991,-0.000883719,-0.00787764,0.094245,1,-8.63015e-05,1.3216e-05,-0.000425192,-0.0172603,0.0026432,-0.0850385,0,0,0,0,0.0531796,0.538669,-0.939771,34.8125,3,8072,7421301
86,-0.487485,-0.614426,9.72417,-0.199144,-0.905629,0.809608,-0.00488217,-0.00616125,0.0972402,1,0.000108751,-1.07012e-05,-0.000425649,0.0217502,-0.00214024,-0.0851299,0,0,0,0,0.046443,0.535835,-0.941823,34.8125,3,8075,7421601
87,0.281055,0.420403,10.0585,0.0821699,-0.421606,1.00997,0.00281334,0.0041937,0.100585,1,3.94209e-05,-3.87798e-06,-0.000425546,0.00788418,-0.000775596,-0.0851092,0,0,0,0,0.0493477,0.540616,-0.93769,34.8125,3,8079,7422001
88,-0.605755,-0.465386,9.93704,0.511413,-0.648858,1.04202,-0.00610823,-0.00468351,0.0993659,1,0.000178713,-0.000232365,-0.000482383,0.0357425,-0.046473,-0.0964766,0,0,0,0,0.0442723,0.537129,-0.931178,34.8125,3,8082,7422301
89,-1.11327,0.556922,9.4074,-0.676062,0.0425536,0.724627,-0.0111002,0.00561143,0.0940753,1,-0.000176615,0.00014889,-0.000404123,-0.0353231,0.0297779,-0.0808246,0,0,0,0,0.046125,0.544393,-0.929005,34.8125,3,8085,7422601
90,-0.599717,-0.761826,9.43355,-0.42541,-1.42844,0.537496,-0.00597147,-0.00761187,0.0943376,1,-9.26318e-06,0.000167564,-0.000388006,-0.00185264,0.0335128,-0.0776011,0,0,0,0,0.0454992,0.541746,-0.91694,34.8125,3,8089,7423001
91,-0.696194,0.0368422,9.7899,-0.190875,-0.711694,0.995053,-0.00694302,0.000337479,0.0979004,1,0.000188851,9.50891e-05,-0.000433904,0.0377701,0.0190178,-0.0867808,0,0,0,0,0.0428355,0.544846,-0.925444,34.8125,3,8092,7423301
92,-1.95197,0.107917,9.00917,-1.00248,-0.347381,0.488062,-0.019499,0.00108865,0.0900961,1,4.16871e-05,0.000110122,-0.000435628,0.00833742,0.0220244,-0.0871255,0,0,0,0,0.040706,0.546591,-0.912769,34.8125,3,8095,7423601
93,-0.599091,-0.659577,10.6793,0.557276,-1.05033,1.92238,-0.00599119,-0.00658372,0.106794,1,-2.99105e-05,2.78672e-05,-0.00047296,-0.0059821,0.00557344,-0.094592,0,0,0,0,0.0383583,0.547533,-0.909707,34.8125,3,8099,7424001
94,-1.15569,-0.738493,9.8926,-0.270243,-1.14572,1.20476,-0.0115396,-0.00735911,0.09893,1,-7.54454e-05,0.000122807,-0.000471779,-0.0150891,0.0245615,-0.0943558,0,0,0,0,0.0403833,0.553226,-0.901509,34.8125,3,8102,7424301
95,-0.461592,-0.323522,9.82094,-0.0493381,-0.941978,0.74903,-0.00461701,-0.00326048,0.0982085,1,0.000148642,8.57145e-06,-0.000426588,0.0297283,0.00171429,-0.0853175,0,0,0,0,0.0352182,0.552213,-0.896962,34.8125,3,8106,7424701
96,-0.148026,0.523668,9.80007,-0.0609876,-0.624517,0.917407,-0.00146156,0.00520295,0.0980028,1,0.000178961,7.09535e-05,-0.00045977,0.0357922,0.0141907,-0.0919541,0,0,0,0,0.0374567,0.557134,-0.900398,34.8125,3,8109,7425001
97,0.402714,0.0423465,10.5112,0.487349,-0.946515,1.93357,0.00407985,0.000418609,0.10511,1,4.4057e-06,0.000248769,-0.000484794,0.00088114,0.0497539,-0.0969588,0,0,0,0,0.0335086,0.555445,-0.885771,34.8125,3,8112,7425301
98,-1.50332,-1.03001,9.6988,-0.665211,-1.7733,0.822957,-0.0150215,-0.0103266,0.0969869,1,0.000210973,0.000111347,-0.000477438,0.0421947,0.0222694,-0.0954876,0,0,0,0,0.0348622,0.557908,-0.887743,34.8125,3,8116,7425701
99,-1.09295,0.266895,9.93909,-0.521272,-0.376853,1.2451,-0.0109361,0.00263218,0.0993912,1,0.000240637,-4.6731e-05,-0.000505927,0.0481275,-0.0093462,-0.101185,0,0,0,0,0.0308235,0.555804,-0.877165,34.8125,3,8119,7426001
100,0.0316903,0.198007,10.0612,0.246101,-0.510894,1.22001,0.00031946,0.00197005,0.100612,1,4.81743e-05,2.63892e-06,-0.000512948,0.00963485,0.000527783,-0.10259,0,0,0,0,0.0312064,0.557317,-0.880163,34.8125,3,8122,7426301
101,0.337266,-0.394838,10.1993,0.51449,-1.32019,1.22255,0.00339284,-0.00399612,0.101991,1,0.000218993,0.000116594,-0.000453396,0.0437986,0.0233188,-0.0906792,0,0,0,0,0.0300757,0.557582,-0.86702,34.8125,3,8125,7426601
102,-1.43813,1.11704,8.15574,-1.39403,0.642722,-0.536906,-0.0143878,0.0111611,0.0815576,1,0.000160184,-0.0001198,-0.000584232,0.0320368,-0.02396,-0.116846,0,0,0,0,0.0277219,0.552264,-0.868643,34.8125,3,8129,7427001
103,-0.197153,-0.882039,9.84282,0.00494743,-1.41364,1.0944,-0.00194162,-0.00883054,0.0984279,1,6.20904e-05,0.000199567,-0.000530893,0.0124181,0.0399134,-0.106179,0,0,0,0,0.0321146,0.555073,-0.864055,34.8125,3,8132,7427301
104,-0.626491,-0.289062,9.88158,-0.508647,-1.06211,0.893896,-0.00629998,-0.00289631,0.0988134,1,5.97968e-05,-0.000163177,-0.00048763,0.0119594,-0.0326354,-0.0975259,0,0,0,0,0.0298713,0.548229,-0.862177,34.8125,3,8135,7427601
105,-1.2335,-0.26565,9.83748,-0.330958,-0.88572,0.770574,-0.012332,-0.00267978,0.0983745,1,0.000183671,2.94177e-05,-0.000520949,0.0367343,0.00588354,-0.10419,0,0,0,0,0.0346464,0.551106,-0.86163,34.8125,3,8139,7428001
106,-1.18215,-0.107214,9.41089,-0.790263,-0.76536,0.616762,-0.0118448,-0.0010724,0.094106,1,7.7858e-05,-0.000116877,-0.000608199,0.0155716,-0.0233754,-0.12164,0,0,0,0,0.0325754,0.54269,-0.853726,34.8125,3,8142,7428301
107,-1.42799,-0.625711,8.26904,-1.55936,-1.13815,-0.83459,-0.014282,-0.00624324,0.0826911,1,6.16211e-06,2.66439e-05,-0.000521098,0.00123242,0.00532879,-0.10422,0,0,0,0,0.0367413,0.543738,-0.859783,34.8125,3,8145,7428601
108,-0.894255,0.585719,9.80514,0.077002,0.0152881,0.954868,-0.00896431,0.00584794,0.09805,1,9.6963e-05,-0.000143468,-0.000545314,0.0193926,-0.0286937,-0.109063,0,0,0,0,0.0399227,0.539162,-0.850808,34.8125,3,8149,7429001
109,0.275231,-0.294194,9.65884,-0.067007,-1.28133,0.627566,0.002732,-0.00298711,0.0965876,1,0.000217416,-8.74037e-05,-0.000578692,0.0434831,-0.0174807,-0.115739,0,0,0,0,0.0418453,0.533364,-0.854986,34.8125,3,8152,7429301
110,-0.251643,-1.07654,10.5593,0.299643,-1.95323,1.5746,-0.00251369,-0.010795,0.10559,1,0.000152652,6.60737e-05,-0.000520093,0.0305304,0.0132147,-0.104019,0,0,0,0,0.0458504,0.532736,-0.848958,34.8125,3,8155,7429601
111,0.00508357,-0.892915,10.7587,0.247892,-1.66204,1.84044,4.00674e-05,-0.00895679,0.107585,1,0.000128174,-6.54236e-06,-0.000523351,0.0256349,-0.00130847,-0.10467,0,0,0,0,0.0453997,0.525008,-0.853168,34.8125,3,8159,7430001
112,-1.31231,0.396478,9.66639,-0.922874,-0.121179,0.887145,-0.0131251,0.00395515,0.0966641,1,0.000123809,-3.26405e-05,-0.000544958,0.0247618,-0.0065281,-0.108992,0,0,0,0,0.0525111,0.529844,-0.854104,34.8125,3,8162,7430301
113,-0.199599,0.216812,9.51251,-0.0720697,-0.243537,0.595041,-0.00197365,0.0021639,0.0951257,1,3.34824e-05,0.000105076,-0.000542,0.00669648,0.0210152,-0.1084,0,0,0,0,0.052151,0.522531,-0.854265,34.8125,3,8165,7430601
114,-0.4404,0.185793,9.72852,-0.204834,-0.145438,0.847064,-0.00438889,0.0018769,0.0972855,1,-7.24646e-05,6.69973e-05,-0.000554155,-0.0144929,0.0133995,-0.110831,0,0,0,0,0.059176,0.52743,-0.858734,34.8125,3,8169,7431001
115,-1.12123,-0.184854,9.36832,-0.938818,-0.759722,0.229635,-0.0112112,-0.00187775,0.0936828,1,0.000216655,1.57958e-05,-0.00050734,0.0433311,0.00315915,-0.101468,0,0,0,0,0.0604453,0.522861,-0.849245,34.8125,3,8172,7431301
116,-0.619725,-0.467476,10.1648,0.127242,-0.908786,1.16545,-0.00618295,-0.00466573,0.101649,1,-1.06959e-05,9.57257e-05,-0.000552988,-0.00213918,0.0191451,-0.110598,0,0,0,0,0.0645618,0.523945,-0.857321,34.8125,3,8176,7431701
117,-0.19558,-0.126763,9.41456,-0.363645,-1.00779,0.607571,-0.00195666,-0.00130105,0.0941452,1,0.000188246,2.50672e-06,-0.000518171,0.0376493,0.000501344,-0.103634,0,0,0,0,0.0646767,0.522897,-0.853304,34.8125,3,8179,7432001
118,-1.50924,0.609869,9.65872,-1.06429,0.0605935,0.776889,-0.0150689,0.00610066,0.0965907,1,7.49222e-05,8.71598e-05,-0.000545028,0.0149844,0.017432,-0.109006,0,0,0,0,0.063973,0.521618,-0.863431,34.8125,3,8182,7432301
119,-0.590271,-1.03087,10.3295,-0.380221,-2.20409,1.88204,-0.00587779,-0.0103698,0.103291,1,0.000328555,0.000178495,-0.000577638,0.0657111,0.035699,-0.115528,0,0,0,0,0.0688834,0.522951,-0.858373,34.8125,3,8185,7432601
120,0.0123842,0.871642,9.42156,0.212643,0.0608467,0.660176,9.81105e-05,0.00870133,0.0942171,1,7.93784e-05,-0.000191468,-0.000594049,0.0158757,-0.0382936,-0.11881,0,0,0,0,0.0679036,0.519599,-0.861473,34.8125,3,8189,7433001
121,-1.06511,-0.147988,9.05267,-0.751563,-0.551328,0.157652,-0.0106355,-0.00148986,0.0905284,1,0.000122436,9.54874e-05,-0.000572956,0.0244871,0.0190975,-0.114591,0,0,0,0,0.068695,0.525498,-0.864376,34.8125,3,8192,7433301
122,-1.2524,0.576607,9.00226,-0.700949,0.195547,0.305518,-0.0124787,0.00577171,0.0900285,1,5.18183e-05,0.000213462,-0.000598819,0.0103637,0.0426923,-0.119764,0,0,0,0,0.0645026,0.518687,-0.863498,34.8125,3,8196,7433701
123,-1.5764,-0.0393244,8.79347,-1.69369,-0.431773,-0.22472,-0.0157845,-0.000373079,0.0879311,1,-2.04662e-06,-0.000113744,-0.000627785,-0.000409324,-0.0227488,-0.125557,0,0,0,0,0.0647123,0.518882,-0.874606,34.8125,3,8199,7434001
124,-0.612003,0.907256,10.6312,0.084602,0.469413,1.73213,-0.00614742,0.00910515,0.106308,1,-0.000120176,-0.000177826,-0.000573221,-0.0240352,-0.0355652,-0.114644,0,0,0,0,0.0605944,0.513462,-0.869657,34.8125,3,8202,7434301
125,-0.576992,-1.62697,10.3738,-0.483328,-2.60558,1.6296,-0.00579075,-0.0162867,0.103734,1,0.000116106,-4.64168e-06,-0.000610037,0.0232211,-0.000928337,-0.122007,0,0,0,0,0.0574087,0.51756,-0.879147,34.8125,3,8205,7434601
126,0.711573,0.0774833,10.9823,0.996669,-0.898038,1.88072,0.00711958,0.000736445,0.109823,1,0.00013693,1.35208e-05,-0.000583882,0.027386,0.00270416,-0.116776,0,0,0,0,0.0522996,0.511687,-0.875719,34.8125,3,8209,7435001
127,-1.05409,-0.0864629,8.88895,-1.0373,-1.12785,-0.029552,-0.0105126,-0.000886226,0.0888927,1,0.000195562,0.000165428,-0.000625589,0.0391124,0.0330855,-0.125118,0,0,0,0,0.0511875,0.506022,-0.885941,34.8125,3,8212,7435301
128,-0.871666,-0.358573,9.02976,-0.756412,-0.949183,0.0368826,-0.00873198,-0.00361703,0.0902949,1,0.000222511,-6.45027e-05,-0.000509317,0.0445023,-0.0129005,-0.101863,0,0,0,0,0.0501878,0.504612,-0.888493,34.8125,3,8216,7435701
129,0.0840475,0.534794,10.9988,0.165751,-0.207978,1.92252,0.000827034,0.00531834,0.10999,1,0.000130168,-8.92848e-05,-0.000581253,0.0260336,-0.017857,-0.116251,0,0,0,0,0.0446167,0.493911,-0.887695,34.8125,3,8219,7436001
130,-0.979068,0.202304,9.58458,-0.958584,-0.363615,0.940337,-0.00982244,0.00201777,0.0958426,1,8.78148e-05,-0.00017809,-0.00058921,0.017563,-0.0356181,-0.117842,0,0,0,0,0.0444074,0.49551,-0.895234,34.8125,3,8222,7436301
131,0.716887,-1.09593,10.8169,0.882316,-2.17047,1.97616,0.00717707,-0.0110193,0.108163,1,0.000240511,9.45736e-05,-0.000557535,0.0481023,0.0189147,-0.111507,0,0,0,0,0.0378991,0.486244,-0.89238,34.8125,3,8226,7436701
132,-0.643368,-0.0681687,9.28433,-0.562462,-0.677976,0.570197,-0.00644348,-0.000692106,0.0928425,1,9.62896e-05,-4.84918e-05,-0.000579399,0.0192579,-0.00969836,-0.11588,0,0,0,0,0.0375627,0.488899,-0.904441,34.8125,3,8229,7437001
133,-0.566964,0.202249,10.4968,-0.148038,-0.379176,2.04763,-0.00564585,0.00201962,0.104969,1,4.4634e-05,0.000102232,-0.000574729,0.0089268,0.0204464,-0.114946,0,0,0,0,0.033591,0.47759,-0.897603,34.8125,3,8232,7437301
134,0.639001,0.426193,10.6282,0.922099,-0.373936,1.75055,0.0063988,0.00422829,0.106283,1,0.000122235,1.7391e-05,-0.000599276,0.0244471,0.00347819,-0.119855,0,0,0,0,0.0314891,0.475809,-0.906219,34.8125,3,8236,7437701
135,-1.57123,0.832521,8.99273,-1.14143,0.162428,0.20138,-0.0157069,0.00829309,0.0899313,1,0.000280965,-2.40436e-05,-0.000586188,0.0561931,-0.00480872,-0.117238,0,0,0,0,0.0305971,0.476729,-0.902659,34.8125,3,8239,7438001
136,-1.16207,-0.0736323,9.18353,-0.75473,-0.479489,0.280705,-0.0116163,-0.000731173,0.0918359,1,5.17696e-05,2.90475e-05,-0.00063081,0.0103539,0.00580951,-0.126162,0,0,0,0,0.0299746,0.472018,-0.911852,34.8125,3,8242,7438301
137,0.400835,-1.08028,10.8124,0.399527,-1.74239,1.78189,0.00398771,-0.0108322,0.108122,1,0.000112087,-3.0454e-05,-0.000649552,0.0224173,-0.00609081,-0.12991,0,0,0,0,0.0247041,0.475901,-0.908206,34.8125,3,8246,7438701
138,-0.286941,0.807976,10.0118,0.093669,-0.0675558,1.00395,-0.00285805,0.00803964,0.100122,1,0.000219568,2.56072e-06,-0.000672623,0.0439136,0.000512144,-0.134525,0,0,0,0,0.0176208,0.468635,-0.90783,34.8125,3,8249,7439001
139,0.884489,-2.45304,10.77,0.486576,-3.03551,1.6864,0.00880962,-0.0245426,0.107701,1,4.51975e-06,-1.92178e-05,-0.00063431,0.000903949,-0.00384357,-0.126862,0,0,0,0,0.021788,0.474019,-0.91076,34.8125,3,8252,7439301
140,-0.857514,0.435134,10.0493,-0.858619,0.237169,0.63243,-0.00853778,0.00433553,0.100497,1,0.000130541,0.000159549,-0.000609218,0.0261081,0.0319098,-0.121844,0,0,0,0,0.0157086,0.468642,-0.907316,34.8125,3,8255,7439601
141,-0.877743,1.3061,9.35913,-0.569535,1.50532,0.269351,-0.00877857,0.0130868,0.0935876,1,-7.3718e-05,-0.000101494,-0.000683109,-0.0147436,-0.0202988,-0.136622,0,0,0,0,0.0150358,0.473605,-0.911748,34.8125,3,8259,7440001
142,-0.566386,-0.258495,9.23361,-0.634056,-1.33296,0.546932,-0.00567384,-0.00260843,0.0923348,1,0.00016765,-3.54906e-05,-0.000659852,0.0335301,-0.00709813,-0.13197,0,0,0,0,0.0104951,0.470556,-0.902703,34.8125,3,8262,7440301
143,-0.31144,-0.30663,9.09863,-0.298406,-0.490327,-0.110221,-0.00313928,-0.00308844,0.0909847,1,0.000144108,-0.000114668,-0.000652772,0.0288216,-0.0229336,-0.130554,0,0,0,0,0.00169454,0.468803,-0.909773,34.8125,3,8266,7440701
144,-0.395134,-0.0193633,9.58961,-0.0903917,-0.733857,0.820221,-0.00392543,-0.00018843,0.0958972,1,6.02321e-07,0.000136451,-0.000675323,0.000120464,0.0272902,-0.135065,0,0,0,0,-0.00153194,0.473547,-0.900561,34.8125,3,8269,7441001
145,-0.790468,0.040706,9.01784,-0.806042,-0.931883,-0.0175211,-0.00790625,0.000358721,0.0901785,1,0.000325351,-1.14611e-05,-0.00065401,0.0650701,-0.00229221,-0.130802,0,0,0,0,-0.0063777,0.468311,-0.905706,34.8125,3,8272,7441301
146,-0.175601,0.665825,10.9605,0.507511,-0.518686,2.1519,-0.00172656,0.00663262,0.109607,1,0.000127784,9.2926e-05,-0.000682987,0.0255567,0.0185852,-0.136597,0,0,0,0,-0.0112534,0.472253,-0.905596,34.8125,3,8276,7441701
147,-0.0581289,-1.46074,9.74081,-0.563747,-2.89886,0.877816,-0.00062044,-0.0146646,0.0973993,1,0.000297683,-0.000108099,-0.000618077,0.0595366,-0.0216198,-0.123615,0,0,0,0,-0.0196084,0.461983,-0.90023,34.8125,3,8279,7442001
148,-0.496838,-0.210262,9.94648,-0.0740757,-0.596475,1.68081,-0.00493012,-0.00209951,0.0994667,1,1.40775e-05,0.000204925,-0.000597345,0.0028155,0.040985,-0.119469,0,0,0,0,-0.022748,0.468456,-0.906132,34.8125,3,8282,7442301
149,-0.441616,-0.7089,9.8453,-0.211909,-1.84093,1.08767,-0.00438399,-0.00714684,0.0984502,1,0.000319852,0.000205648,-0.000584705,0.0639703,0.0411297,-0.116941,0,0,0,0,-0.0296473,0.458165,-0.900268,34.8125,3,8286,7442701
150,0.268041,0.992488,11.0683,0.844843,0.0506751,2.04376,0.00266305,0.00990717,0.110685,1,6.9526e-05,-0.0001174,-0.000435122,0.0139052,-0.02348,-0.0870245,0,0,0,0,-0.0327479,0.457863,-0.909352,34.8125,3,8289,7443001
151,-1.1915,-0.49922,9.17271,-1.10413,-0.747702,0.172467,-0.0119231,-0.00500377,0.0917255,1,0.000118931,-2.07155e-05,-0.000429896,0.0237862,-0.0041431,-0.0859793,0,0,0,0,-0.0348346,0.451868,-0.900384,34.8125,3,8292,7443301
152,-0.330738,0.0833213,9.58808,-0.45898,-0.494628,0.890896,-0.00330402,0.000820598,0.0958811,1,7.6258e-05,1.49097e-05,-0.000303792,0.0152516,0.00298194,-0.0607585,0,0,0,0,-0.037838,0.447158,-0.908556,34.8125,3,8296,7443701
153,-0.371794,0.261787,10.1258,0.00736187,-0.377017,1.45285,-0.00370272,0.00258619,0.101259,1,0.000163439,7.02625e-05,-0.000190531,0.0326878,0.0140525,-0.0381063,0,0,0,0,-0.0407029,0.451021,-0.904922,34.8125,3,8299,7444001
154,-1.55015,-1.02766,8.57407,-1.89779,-1.28041,-0.317598,-0.0155093,-0.0103151,0.0857347,1,0.000244461,-3.2479e-05,-0.000110059,0.0488923,-0.00649579,-0.0220118,0,0,0,0,-0.0382911,0.444733,-0.909113,34.8125,3,8302,7444301
155,0.0394674,-0.722126,10.6546,0.0289203,-1.18224,1.4965,0.000391182,-0.00721701,0.106546,1,-2.03317e-05,-9.10075e-06,-0.00010756,-0.00406635,-0.00182015,-0.021512,0,0,0,0,-0.0384164,0.45157,-0.909465,34.8125,3,8306,7444701
156,-0.819478,0.770067,9.543,-0.882235,0.484558,0.145219,-0.00823231,0.00768489,0.0954281,1,9.7962e-05,-0.00021094,-0.000177748,0.0195924,-0.042188,-0.0355496,0,0,0,0,-0.0434273,0.444181,-0.903041,34.8125,3,8309,7445001
157,-1.67197,-0.149662,8.19875,-1.68965,-0.529152,-0.902296,-0.0167522,-0.00149464,0.0819809,1,1.37061e-05,-0.000195828,-0.000126467,0.00274122,-0.0391657,-0.0252935,0,0,0,0,-0.0398095,0.454437,-0.905355,34.8125,3,8312,7445301
158,-0.940899,0.0797188,8.79798,-0.989451,-0.637655,-0.340599,-0.00942949,0.000784848,0.0879777,1,8.06707e-05,-0.00011741,-9.84441e-05,0.0161341,-0.023482,-0.0196888,0,0,0,0,-0.0438644,0.453308,-0.894755,34.8125,3,8316,7445701
159,-1.49846,0.476152,8.679,-1.21433,0.0407811,-0.20668,-0.0149679,0.00473447,0.0867944,1,0.000165579,9.35164e-05,-5.64571e-05,0.0331159,0.0187033,-0.0112914,0,0,0,0,-0.0450231,0.456351,-0.900743,34.8125,3,8319,7446001
160,-1.61174,0.439404,8.25256,-1.18819,0.195383,-0.593474,-0.0161067,0.00440849,0.0825269,1,-6.5309e-05,5.91014e-05,-0.000113818,-0.0130618,0.0118203,-0.0227635,0,0,0,0,-0.0461571,0.459028,-0.886031,34.8125,3,8322,7446301
161,-0.630821,-0.540592,10.5519,-0.228359,-1.59061,1.71695,-0.00630262,-0.00540615,0.105519,1,7.23699e-06,3.17944e-05,-0.000103283,0.0014474,0.00635888,-0.0206566,0,0,0,0,-0.0462549,0.461991,-0.887985,34.8125,3,8326,7446701
162,-0.419603,0.0241669,9.27994,-0.155364,-1.03477,0.458867,-0.0042349,0.000228803,0.0927976,1,7.05127e-05,-0.000209492,-2.61878e-05,0.0141025,-0.0418984,-0.00523755,0,0,0,0,-0.0500688,0.468743,-0.881757,34.8125,3,8329,7447001
163,-0.923367,0.0567498,9.51606,-0.344148,-1.069,0.946579,-0.00922482,0.000537478,0.0951617,1,0.000163307,4.62042e-05,-5.74387e-05,0.0326614,0.00924083,-0.0114877,0,0,0,0,-0.0533388,0.465809,-0.879787,34.8125,3,8332,7447301
164,0.605125,-1.41782,10.8711,-0.233954,-2.0957,1.05843,0.005999,-0.014163,0.108716,1,-7.66633e-05,-0.000224765,-0.000119364,-0.0153327,-0.0449531,-0.0238728,0,0,0,0,-0.0587475,0.475093,-0.87804,34.8125,3,8336,7447701
165,-2.3329,1.47852,7.92867,-1.96368,1.56834,-1.10801,-0.0233493,0.0147721,0.0792831,1,0.000102117,-0.000140858,-6.62372e-05,0.0204234,-0.0281715,-0.0132474,0,0,0,0,-0.060353,0.469094,-0.869075,34.8125,3,8339,7448001
166,0.401191,-0.377069,11.0792,0.654296,-1.57267,2.23428,0.00403351,-0.00384142,0.110788,1,0.000314361,0.000102074,-0.00013242,0.0628722,0.0204148,-0.026484,0,0,0,0,-0.0663543,0.477018,-0.872912,34.8125,3,8342,7448301
167,0.514329,-0.238721,10.7194,0.841892,-1.3015,1.4917,0.00511864,-0.0024074,0.107195,1,8.52276e-05,-0.00011076,-0.000187308,0.0170455,-0.022152,-0.0374616,0,0,0,0,-0.0673928,0.469506,-0.861457,34.8125,3,8346,7448701
168,-0.392002,-0.344422,9.32403,-0.0770421,-1.17241,0.323656,-0.0039279,-0.00345918,0.0932394,1,8.76904e-05,-3.56938e-05,-0.000177272,0.0175381,-0.00713875,-0.0354544,0,0,0,0,-0.0737503,0.469151,-0.865981,34.8125,3,8349,7449001
169,-2.81389,-0.611148,8.97051,-2.7309,-0.720767,0.471049,-0.0280723,-0.00608737,0.0897276,1,-6.54197e-05,0.000386268,-0.000220141,-0.0130839,0.0772536,-0.0440283,0,0,0,0,-0.0720122,0.464587,-0.857,34.8125,3,8352,7449301
170,-0.0497093,0.157207,10.1439,0.267359,-1.03572,1.34934,-0.000465171,0.00154106,0.101439,1,0.000154006,0.000153609,-0.000243455,0.0308012,0.0307218,-0.048691,0,0,0,0,-0.0747561,0.461134,-0.853528,34.8125,3,8356,7449701
171,-0.843672,-0.559764,10.5411,-0.743306,-1.62535,1.62065,-0.00842549,-0.00561986,0.10541,1,0.00012573,6.67905e-05,-0.000253876,0.025146,0.0133581,-0.0507751,0,0,0,0,-0.0717859,0.464904,-0.847398,34.8125,3,8359,7450001
172,-0.401019,-0.831438,9.10697,-0.602448,-1.40397,0.0409911,-0.00407979,-0.00832586,0.0910655,1,7.39677e-05,-0.000359681,-0.000245486,0.0147935,-0.0719361,-0.0490971,0,0,0,0,-0.0729398,0.456994,-0.841002,34.8125,3,8362,7450301
173,-0.857242,-0.816444,10.0477,-0.63783,-1.7056,1.09529,-0.00854124,-0.00819409,0.100477,1,0.000167413,0.000174172,-0.000233528,0.0334827,0.0348345,-0.0467055,0,0,0,0,-0.0719791,0.465179,-0.835269,34.8125,3,8366,7450701
174,0.404721,-0.17901,11.1487,0.607931,-1.75009,2.10974,0.00407723,-0.00184033,0.111485,1,0.000217818,0.000137955,-0.000204295,0.0435635,0.0275911,-0.0408591,0,0,0,0,-0.0672276,0.458089,-0.822822,34.8125,3,8369,7451001
175,-0.940962,0.632781,9.15674,-0.844362,-0.0748511,-0.0219963,-0.00942439,0.00631589,0.0915667,1,9.2936e-05,-9.93547e-05,-0.00027074,0.0185872,-0.0198709,-0.0541481,0,0,0,0,-0.0620156,0.464368,-0.821697,34.8125,3,8372,7451301
176,-0.906817,-1.23832,9.75456,-1.26608,-1.30988,0.627244,-0.00910429,-0.0124001,0.0975401,1,0.000103541,-0.000162546,-0.000177943,0.0207081,-0.0325092,-0.0355886,0,0,0,0,-0.0553089,0.463504,-0.803565,34.8125,3,8376,7451701
177,0.962614,1.0375,11.261,1.54753,-0.602424,2.29133,0.00960416,0.0103195,0.112617,1,0.000233447,-0.000111486,-0.000151564,0.0466894,-0.0222972,-0.0303128,0,0,0,0,-0.0519942,0.464478,-0.805073,34.8125,3,8379,7452001
178,0.240673,-0.176348,10.8775,0.750706,-1.58505,1.79683,0.00241881,-0.00177063,0.108775,1,2.7092e-05,5.97765e-05,-0.000259513,0.0054184,0.0119553,-0.0519025,0,0,0,0,-0.0468903,0.466634,-0.791412,34.8125,3,8382,7452301
179,-0.840116,-0.906377,9.10353,-0.942984,-1.06248,0.303947,-0.00841721,-0.00905658,0.0910345,1,-1.8333e-05,-6.53824e-05,-0.000229158,-0.00366659,-0.0130765,-0.0458315,0,0,0,0,-0.0386378,0.465066,-0.789465,34.8125,3,8386,7452701
180,0.134635,0.441103,11.0483,0.188315,0.134302,1.77308,0.00133193,0.00443176,0.110482,1,-9.61218e-05,-7.27825e-05,-0.000188269,-0.0192244,-0.0145565,-0.0376539,0,0,0,0,-0.0376609,0.472276,-0.783754,34.8125,3,8389,7453001
181,0.021477,0.566094,10.9908,0.693186,-0.364819,1.96021,0.000209249,0.00566499,0.109908,1,-1.8879e-05,-3.73601e-05,-0.000237673,-0.0037758,-0.00747202,-0.0475346,0,0,0,0,-0.0317289,0.466329,-0.781388,34.8125,3,8392,7453301
182,-0.489071,-1.56,10.3462,-1.06485,-2.81256,1.40828,-0.00487422,-0.0156361,0.103457,1,0.000187181,0.000119742,-0.00026499,0.0374361,0.0239485,-0.052998,0,0,0,0,-0.0250242,0.47256,-0.77825,34.8125,3,8396,7453701
183,0.355367,-2.01661,10.6546,-0.357382,-3.2744,1.6529,0.00355778,-0.0201869,0.106542,1,8.99048e-05,6.19254e-05,-0.000225179,0.017981,0.0123851,-0.0450358,0,0,0,0,-0.0194101,0.462644,-0.771931,34.8125,3,8399,7454001
184,-0.891325,-0.000249112,9.34083,-0.985812,-0.435252,0.690131,-0.00887699,2.678e-06,0.0934118,1,-7.07334e-06,0.000194058,-0.00021628,-0.00141467,0.0388116,-0.043256,0,0,0,0,-0.0129815,0.467149,-0.781456,34.8125,3,8402,7454301
185,-0.122374,1.13841,9.66903,-0.0101024,0.419523,0.353638,-0.00125273,0.0113787,0.0966905,1,3.15091e-05,-0.000179863,-0.000254739,0.00630182,-0.0359727,-0.0509477,0,0,0,0,-0.00702201,0.457327,-0.780692,34.8125,3,8406,7454701
186,-0.12728,0.604709,11.2147,-0.0283302,-0.621063,2.48283,-0.00122367,0.00603698,0.112148,1,4.80181e-05,0.000204781,-0.000264537,0.00960362,0.0409562,-0.0529075,0,0,0,0,-0.002384,0.455968,-0.788824,34.8125,3,8409,7455001
187,-0.356504,-0.262853,9.39203,-0.472628,-0.709148,0.116076,-0.0035848,-0.00264469,0.0939191,1,9.43421e-05,-9.9105e-05,-0.000217305,0.0188684,-0.019821,-0.043461,0,0,0,0,0.00547378,0.454342,-0.783341,34.8125,3,8412,7455301
188,-0.994877,-0.040458,9.18538,-0.839307,-0.388275,0.454264,-0.00992699,-0.000409388,0.0918562,1,5.38565e-05,0.000119695,-0.000255887,0.0107713,0.0239391,-0.0511774,0,0,0,0,0.0150028,0.445175,-0.79369,34.8125,3,8416,7455701
189,-1.42163,-0.531036,8.81638,-1.29297,-0.625921,0.0424144,-0.014217,-0.00529942,0.0881643,1,-2.51254e-05,9.35337e-06,-0.000228838,-0.00502507,0.00187067,-0.0457676,0,0,0,0,0.0228999,0.451095,-0.801171,34.8125,3,8419,7456001
190,-0.613914,-0.03347,10.399,0.00222414,-0.517546,1.53819,-0.00611688,-0.000330629,0.103991,1,-8.59414e-06,0.000107608,-0.000186259,-0.00171883,0.0215217,-0.0372518,0,0,0,0,0.0291891,0.44379,-0.804898,34.8125,3,8422,7456301
191,-0.673805,-0.0107973,9.61596,-0.517306,-0.66653,0.711665,-0.00672416,-0.000128723,0.0961605,1,0.000121092,7.24627e-05,-0.000188512,0.0242184,0.0144925,-0.0377024,0,0,0,0,0.0380841,0.445339,-0.813996,34.8125,3,8426,7456701
192,-1.04405,-0.46782,8.85713,-1.37607,-0.610206,-0.875287,-0.0104669,-0.00466991,0.0885686,1,-2.50074e-05,-0.000138858,-0.000184381,-0.00500147,-0.0277717,-0.0368761,0,0,0,0,0.0435515,0.439867,-0.810607,34.8125,3,8429,7457001
193,-0.906521,-1.35462,9.91831,-1.31582,-1.53136,0.848055,-0.00906574,-0.0135683,0.0991801,1,0.00013192,2.80073e-05,-0.000224267,0.0263841,0.00560145,-0.0448534,0,0,0,0,0.0508232,0.444933,-0.82467,34.8125,3,8432,7457301
194,0.843422,2.04279,11.3619,2.38985,0.569757,2.88371,0.00849424,0.0204032,0.113619,1,9.30377e-05,0.000226273,-0.000210624,0.0186075,0.0452546,-0.0421247,0,0,0,0,0.0571632,0.441927,-0.823251,34.8125,3,8436,7457701
195,-0.333534,-0.108986,10.7027,0.0835073,-0.623802,2.14467,-0.0033087,-0.00105679,0.107028,1,-0.000145489,0.000127353,-0.000289767,-0.0290978,0.0254707,-0.0579533,0,0,0,0,0.0616864,0.441616,-0.8354,34.8125,3,8439,7458001
196,-0.0664195,0.432833,10.3459,0.594823,-0.712639,1.65424,-0.000630186,0.00429746,0.103461,1,0.000150773,0.000153786,-0.00025367,0.0301546,0.0307571,-0.0507341,0,0,0,0,0.0655847,0.441548,-0.833399,34.8125,3,8442,7458301
197,-0.864551,-0.342664,9.93132,-0.493085,-0.856255,0.965012,-0.0086118,-0.00346439,0.0993148,1,0.000210063,0.000177696,-0.000230165,0.0420125,0.0355392,-0.0460331,0,0,0,0,0.0691864,0.440251,-0.844556,34.8125,3,8446,7458701
198,-1.29844,-0.366484,9.74672,-1.38995,-0.709499,0.690065,-0.0129712,-0.00366842,0.0974688,1,5.40119e-05,7.80857e-05,-0.000267485,0.0108024,0.0156171,-0.0534969,0,0,0,0,0.0703849,0.4462,-0.85049,34.8125,3,8449,7459001
199,-1.27752,0.409399,9.45817,-1.18513,0.433608,0.257238,-0.0127966,0.00412443,0.0945774,1,-0.000122767,-0.000125769,-0.000282227,-0.0245533,-0.0251538,-0.0564453,0,0,0,0,0.0703048,0.439994,-0.858203,34.8125,3,8452,7459301
200,-0.256844,0.623865,10.1444,0.0635531,-0.306008,1.3118,-0.00259946,0.00620992,0.101445,1,0.000146242,-0.000164053,-0.000182021,0.0292483,-0.0328106,-0.0364042,0,0,0,0,0.0695641,0.438742,-0.869844,34.8125,3,8456,7459701
201,-1.90245,1.3322,8.07731,-1.60457,1.12734,-1.14755,-0.0190381,0.0132876,0.0807756,1,0.000262414,-0.000118842,-0.000210307,0.0524829,-0.0237684,-0.0420614,0,0,0,0,0.0701293,0.431449,-0.871524,34.8125,3,8459,7460001
202,-0.240169,-1.00694,10.0913,-0.327949,-1.57409,0.852159,-0.0024124,-0.0100691,0.100913,1,3.93204e-06,-3.05644e-05,-0.000225742,0.000786409,-0.00611287,-0.0451484,0,0,0,0,0.0692781,0.431723,-0.886666,34.8125,3,8462,7460301
203,-0.845551,-0.647564,10.1694,-0.698754,-1.29882,1.68733,-0.00845302,-0.00646306,0.101695,1,-4.73483e-05,2.32949e-05,-0.000174071,-0.00946966,0.00465898,-0.0348143,0,0,0,0,0.0726522,0.425427,-0.890862,34.8125,3,8466,7460701
204,0.381198,-1.05333,10.5727,0.427362,-2.35264,2.31219,0.00380286,-0.0105622,0.105725,1,0.000129382,-2.2309e-05,-0.000208653,0.0258765,-0.0044618,-0.0417306,0,0,0,0,0.0700142,0.41887,-0.905137,34.8125,3,8469,7461001
205,-0.426753,-0.358852,9.9986,-0.295581,-1.40441,1.26477,-0.00425986,-0.00362921,0.0999848,1,0.000212361,4.59073e-05,-0.000208378,0.0424722,0.00918146,-0.0416756,0,0,0,0,0.0709845,0.418374,-0.905153,34.8125,3,8472,7461301
206,0.355416,-0.816116,10.9836,0.206352,-2.30713,1.6738,0.00351489,-0.00820674,0.109834,1,0.000199631,-0.000160568,-0.000244187,0.0399261,-0.0321136,-0.0488375,0,0,0,0,0.0712052,0.414224,-0.918883,34.8125,3,8475,7461601
207,-0.831708,-0.171693,9.86159,-1.00452,-0.617784,0.548503,-0.00833769,-0.00171343,0.0986142,1,7.63878e-07,-0.000100702,-0.000219462,0.000152776,-0.0201405,-0.0438924,0,0,0,0,0.0690638,0.417771,-0.92536,34.8125,3,8479,7462001
208,-0.547942,0.502483,9.32413,-0.149047,-0.358422,0.724979,-0.00546566,0.00504861,0.0932408,1,-0.000112358,5.98623e-05,-0.000257755,-0.0224716,0.0119725,-0.0515509,0,0,0,0,0.0715497,0.411429,-0.926522,34.8125,3,8482,7462301
209,-0.554835,-0.962599,10.6487,-0.724385,-1.14256,1.71455,-0.00554549,-0.00960574,0.106489,1,-8.31509e-05,3.41596e-05,-0.000229156,-0.0166302,0.00683193,-0.0458312,0,0,0,0,0.0688622,0.417437,-0.933952,34.8125,3,8486,7462701
210,-0.276774,0.31076,10.0006,0.206727,-0.274714,0.927776,-0.00279633,0.00309418,0.100006,1,7.20496e-05,-0.000148514,-0.000178881,0.0144099,-0.0297027,-0.0357763,0,0,0,0,0.067546,0.416392,-0.929424,34.8125,3,8489,7463001
211,-1.62522,0.0640897,8.77845,-1.56425,0.099647,-0.277908,-0.016226,0.00066963,0.0877891,1,-0.000114965,0.00014725,-0.000263205,-0.0229929,0.0294501,-0.0526409,0,0,0,0,0.0668646,0.420398,-0.934887,34.8125,3,8492,7463301
212,-0.500805,-0.0751465,9.72672,-0.466717,-0.652456,0.771544,-0.00504355,-0.000755433,0.0972653,1,3.19268e-05,-0.000180778,-0.000223086,0.00638536,-0.0361556,-0.0446171,0,0,0,0,0.0640073,0.422328,-0.932306,34.8125,3,8496,7463701
213,-0.484953,1.46715,9.808,0.0340387,1.0211,1.19398,-0.00487036,0.0146686,0.0980794,1,2.21821e-05,-0.00012829,-0.000147636,0.00443642,-0.0256579,-0.0295272,0,0,0,0,0.0605365,0.421949,-0.936844,34.8125,3,8499,7464001
214,-0.123273,0.423413,10.4864,0.0880927,-0.381207,1.89555,-0.00121929,0.00420692,0.104866,1,0.000132085,5.60244e-05,-0.000199809,0.0264169,0.0112049,-0.0399618,0,0,0,0,0.0568166,0.426705,-0.928135,34.8125,3,8502,7464301
215,-0.660195,0.94277,10.3709,0.0291254,0.323752,1.88164,-0.00653319,0.00943844,0.103712,1,-4.0389e-05,0.000315192,-0.000179349,-0.0080778,0.0630383,-0.0358698,0,0,0,0,0.05575,0.421971,-0.935811,34.8125,3,8506,7464701
216,-1.37175,-1.15123,8.45191,-1.95133,-1.48743,-0.6062,-0.0137603,-0.0115643,0.0845051,1,0.00033502,-0.000229808,-0.000170174,0.067004,-0.0459617,-0.0340347,0,0,0,0,0.0523096,0.426389,-0.935697,34.8125,3,8509,7465001
217,-2.55168,-0.0558217,7.67163,-2.28584,0.356576,-1.17947,-0.0255083,-0.000562988,0.0767191,1,7.67087e-05,5.64799e-05,-0.00013716,0.0153417,0.011296,-0.0274321,0,0,0,0,0.0500094,0.421513,-0.934785,34.8125,3,8512,7465301
218,1.10631,-2.14288,11.3575,0.772468,-3.44604,2.31812,0.0110442,-0.0214682,0.11357,1,0.000155791,-4.85535e-05,-0.000182939,0.0311582,-0.00971069,-0.0365879,0,0,0,0,0.0459711,0.421202,-0.942854,34.8125,3,8516,7465701
219,-1.98449,0.163981,9.85783,-1.56779,-0.452453,1.19276,-0.019797,0.0016205,0.0985883,1,0.000125925,0.000240592,-0.000139408,0.0251849,0.0481185,-0.0278816,0,0,0,0,0.0465989,0.416754,-0.939925,34.8125,3,8519,7466001
220,0.489912,-0.461988,10.8313,0.371035,-1.88772,2.14399,0.00492341,-0.00467938,0.108309,1,0.000270053,0.000116482,-0.000101973,0.0540106,0.0232963,-0.0203947,0,0,0,0,0.04734,0.419798,-0.946932,34.8125,3,8522,7466301
221,-1.5,-0.357651,8.9428,-1.23437,-0.936757,0.584518,-0.0149744,-0.00361001,0.089431,1,0.000196863,0.000145793,-5.699e-05,0.0393726,0.0291587,-0.011398,0,0,0,0,0.0483431,0.418797,-0.945949,34.8125,3,8526,7466701
222,-0.268475,0.320117,10.8943,0.43186,-0.297694,1.99732,-0.00267208,0.00319584,0.108944,1,2.58741e-05,5.64666e-05,-5.64964e-05,0.00517481,0.0112933,-0.0112993,0,0,0,0,0.0506988,0.417368,-0.949022,34.8125,3,8529,7467001
223,-1.11552,-0.309804,9.31472,-1.30779,-0.854287,0.374972,-0.0111628,-0.00312357,0.0931454,1,0.0001327,-4.235e-05,3.64469e-05,0.0265399,-0.00847001,0.00728938,0,0,0,0,0.0549899,0.424106,-0.945861,34.8125,3,8532,7467301
224,-0.593503,1.40375,9.3876,-0.196775,0.657449,0.327073,-0.00592236,0.0140644,0.0938728,1,-0.000144098,6.95766e-05,1.3969e-05,-0.0288197,0.0139153,0.00279379,0,0,0,0,0.0558696,0.423195,-0.949926,34.8125,3,8535,7467601
225,-1.18723,-1.68446,10.1574,-1.08241,-2.01445,1.67268,-0.0118532,-0.0168504,0.101576,1,1.8801e-05,8.02813e-05,8.25125e-05,0.0037602,0.0160563,0.0165025,0,0,0,0,0.0633496,0.436301,-0.949669,34.8125,3,8539,7468001
226,-0.331603,1.31726,9.80317,0.7947,0.404092,1.19605,-0.00333859,0.013164,0.0980321,1,3.92889e-05,-9.61411e-05,0.000140673,0.00785778,-0.0192282,0.0281347,0,0,0,0,0.0650026,0.436135,-0.941095,34.8125,3,8542,7468301
227,-0.310956,-0.68791,10.6861,0.0279616,-0.948882,2.10539,-0.00308767,-0.00681954,0.106866,1,-0.000280829,9.76753e-05,7.45925e-05,-0.0561658,0.0195351,0.0149185,0,0,0,0,0.0661004,0.448905,-0.946371,34.8125,3,8546,7468701
228,-0.835425,0.836402,9.19372,0.0413173,0.350956,1.27474,-0.00833003,0.00838908,0.0919371,1,-0.00014661,0.000142083,0.000113881,-0.0293221,0.0284165,0.0227762,0,0,0,0,0.0672116,0.451679,-0.938234,34.8125,3,8549,7469001
229,-0.599619,0.297446,9.28725,-0.838334,-0.022422,0.212401,-0.00602612,0.00297994,0.0928704,1,-3.85311e-05,-0.000156674,0.000139304,-0.00770621,-0.0313347,0.0278608,0,0,0,0,0.0688665,0.457642,-0.94518,34.8125,3,8552,7469301
230,0.220533,0.16821,10.5399,0.435676,-0.839889,1.57833,0.00217484,0.00169396,0.1054,1,-5.31933e-05,-0.00014223,0.00014892,-0.0106387,-0.028446,0.029784,0,0,0,0,0.0693737,0.461956,-0.941046,34.8125,3,8555,7469601
231,-0.320553,0.259534,10.3504,0.252366,-0.175456,1.93837,-0.0032109,0.00257709,0.103504,1,8.44294e-05,-2.29015e-05,0.000120844,0.0168859,-0.00458031,0.0241689,0,0,0,0,0.0706329,0.46497,-0.94654,34.8125,3,8559,7470001
232,-0.195867,0.178633,10.1187,0.00189608,-0.910414,1.28566,-0.00201203,0.00173558,0.101187,1,0.000247909,-0.000261091,0.000147242,0.0495818,-0.0522181,0.0294484,0,0,0,0,0.0681751,0.468883,-0.945937,34.8125,3,8562,7470301
233,-0.125392,0.17858,9.64159,-0.289165,-0.88349,1.12844,-0.00128208,0.0017596,0.096416,1,0.00013561,-0.000145636,2.17219e-05,0.027122,-0.0291272,0.00434438,0,0,0,0,0.0690543,0.466527,-0.951044,34.8125,3,8566,7470701
234,0.0189234,-0.328108,10.577,-0.0319149,-1.45534,1.93699,0.000218849,-0.00334866,0.105768,1,0.000319667,0.000136912,9.84993e-05,0.0639335,0.0273825,0.0196999,0,0,0,0,0.0678961,0.471015,-0.95599,34.8125,3,8569,7471001
235,-2.30476,0.570085,8.2646,-1.70461,0.558036,-0.271317,-0.0230441,0.00572013,0.0826456,1,-0.000117122,2.10714e-05,1.65629e-06,-0.0234243,0.00421428,0.000331258,0,0,0,0,0.0716995,0.470052,-0.958554,34.8125,3,8572,7471301
236,-1.29145,-0.686253,8.7211,-1.50068,-1.1189,0.0533819,-0.0129022,-0.00690319,0.0872096,1,0.000220796,6.34676e-05,8.34909e-05,0.0441592,0.0126935,0.0166982,0,0,0,0,0.0762117,0.474086,-0.968081,34.8125,3,8576,7471701
237,-0.951,0.681238,8.50881,-0.873111,0.276375,0.0227854,-0.00952457,0.00680486,0.0850871,1,4.75302e-05,-8.80808e-05,-3.02368e-05,0.00950604,-0.0176162,-0.00604735,0,0,0,0,0.0781936,0.473546,-0.966082,34.8125,3,8579,7472001
238,-0.166089,0.112453,10.4451,-0.395589,-0.981575,1.56968,-0.00166574,0.00109125,0.104452,1,0.000157364,-2.19342e-05,0.000121669,0.0314729,-0.00438685,0.0243338,0,0,0,0,0.0784128,0.477588,-0.974074,34.8125,3,8582,7472301
239,-1.30014,0.216234,8.19664,-1.54108,-0.255177,-0.373358,-0.0130083,0.00212661,0.0819662,1,0.000207957,-4.079e-05,6.30849e-05,0.0415914,-0.008158,0.012617,0,0,0,0,0.0816434,0.485852,-0.973905,34.8125,3,8586,7472701
240,-0.387768,-0.744021,9.52922,-0.615413,-1.83406,1.08302,-0.00385237,-0.00745921,0.0952917,1,9.88075e-05,0.000131094,2.15923e-05,0.0197615,0.0262187,0.00431846,0,0,0,0,0.0863801,0.484421,-0.978,34.8125,3,8589,7473001
241,-2.43174,0.272077,8.00174,-2.38758,0.0214958,-0.465163,-0.0243029,0.00267729,0.0800233,1,0.000243314,9.35216e-05,9.34358e-05,0.0486627,0.0187043,0.0186872,0,0,0,0,0.0891258,0.493656,-0.977302,34.8125,3,8592,7473301
242,1.04404,-0.574189,12.1671,1.16063,-2.42566,3.78288,0.0104536,-0.00570196,0.121672,1,-0.000155498,4.95877e-05,0.000100011,-0.0310996,0.00991754,0.0200022,0,0,0,0,0.091046,0.493161,-0.977827,34.8125,3,8596,7473701
243,-0.833081,-0.0929604,9.58309,-0.83037,-1.08488,1.16149,-0.00830811,-0.000934452,0.0958329,1,1.84631e-05,0.000117702,7.87083e-05,0.00369261,0.0235404,0.0157417,0,0,0,0,0.0922748,0.503907,-0.979109,34.8125,3,8599,7474001
244,-0.222088,-0.761299,9.7957,-0.40771,-1.97409,0.981036,-0.00224092,-0.00759942,0.0979577,1,-7.05648e-05,-0.000106707,5.69151e-05,-0.014113,-0.0213413,0.011383,0,0,0,0,0.0956668,0.502416,-0.979158,34.8125,3,8602,7474301
245,-0.783625,-0.932664,10.4667,-0.835489,-1.5271,1.68979,-0.00783607,-0.00931106,0.104669,1,-8.2564e-05,-8.76009e-06,0.000108318,-0.0165128,-0.00175202,0.0216636,0,0,0,0,0.0949009,0.512265,-0.983986,34.8125,3,8606,7474701
246,0.0510454,-1.0389,10.941,-0.0400157,-1.83523,1.9391,0.000539364,-0.0103873,0.10941,1,-7.76722e-06,0.000124573,7.94913e-05,-0.00155344,0.0249146,0.0158983,0,0,0,0,0.0983342,0.511226,-0.982005,34.8125,3,8609,7475001
247,-0.796606,-1.91955,10.2682,-1.56981,-2.99597,1.4812,-0.0079727,-0.0192416,0.102673,1,0.00021862,-4.62635e-05,7.42454e-05,0.043724,-0.00925271,0.0148491,0,0,0,0,0.0966399,0.510939,-0.992609,34.8125,3,8612,7475301
248,-0.407449,-0.645843,10.7394,-0.315618,-1.54742,2.37833,-0.0040336,-0.00647552,0.107395,1,7.49771e-05,0.000183091,0.000121044,0.0149954,0.0366181,0.0242088,0,0,0,0,0.0980381,0.511442,-0.99412,34.8125,3,8616,7475701
249,-2.19155,0.610203,7.32748,-1.97628,1.18502,-1.68845,-0.0219519,0.0061236,0.0732622,1,-0.000161689,-0.000244197,4.83747e-05,-0.0323379,-0.0488393,0.00967495,0,0,0,0,0.0998336,0.506701,-1.00282,34.8125,3,8619,7476001
250,-2.38303,1.48403,8.36644,-1.84279,1.61863,-0.33852,-0.0238188,0.0148619,0.0836639,1,-0.000135687,7.28042e-05,2.36781e-05,-0.0271373,0.0145608,0.00473563,0,0,0,0,0.10018,0.509687,-1.00629,34.8125,3,8622,7476301
251,-0.376007,-0.0397354,9.73701,-0.418303,-0.665803,0.984815,-0.00378576,-0.000402723,0.0973691,1,2.31748e-05,-0.000132367,0.000113444,0.00463497,-0.0264734,0.0226889,0,0,0,0,0.104348,0.505433,-1.016,34.8125,3,8626,7476701
252,0.556945,0.156999,10.6705,0.358542,-0.325079,1.28944,0.00553751,0.00157203,0.106707,1,-5.781e-06,-0.000148617,7.21464e-05,-0.0011562,-0.0297235,0.0144293,0,0,0,0,0.103617,0.508029,-1.02453,34.8125,3,8629,7477001
253,-1.5671,-0.466834,8.17925,-1.68327,-0.307163,-0.984231,-0.0156632,-0.0046639,0.0817942,1,-4.49203e-05,4.2387e-05,9.27455e-05,-0.00898406,0.0084774,0.0185491,0,0,0,0,0.112621,0.503716,-1.03325,34.8125,3,8632,7477301
254,-1.76961,0.194774,8.69582,-1.72551,0.258045,-0.392166,-0.0176977,0.00196298,0.0869575,1,-0.000112923,-6.26745e-06,0.000124226,-0.0225846,-0.00125349,0.0248452,0,0,0,0,0.11569,0.506316,-1.04381,34.8125,3,8636,7477701
255,-0.448905,1.21313,10.168,0.61289,0.240715,1.59966,-0.00447766,0.0121191,0.101682,1,5.4284e-05,7.11899e-05,0.000127079,0.0108568,0.014238,0.0254159,0,0,0,0,0.117458,0.506896,-1.04987,34.8125,3,8639,7478001
256,-0.765624,0.250884,10.2255,-0.300722,-0.292306,1.33481,-0.00765213,0.00248513,0.102256,1,0.000108466,2.24889e-05,9.91754e-05,0.0216932,0.00449778,0.0198351,0,0,0,0,0.11963,0.509938,-1.05739,34.8125,3,8642,7478301
257,-0.97194,-0.0540931,9.86834,-0.770185,-1.30624,0.975242,-0.00972042,-0.00061221,0.0986829,1,0.000350707,-5.74292e-06,0.000106008,0.0701414,-0.00114858,0.0212015,0,0,0,0,0.123176,0.513501,-1.06742,34.8125,3,8646,7478701
258,-0.650718,-0.440269,10.4447,0.0700005,-1.56135,2.35916,-0.00646019,-0.00438121,0.104451,1,-0.000103802,0.000224274,1.5612e-05,-0.0207605,0.0448548,0.0031224,0,0,0,0,0.122029,0.513644,-1.07499,34.8125,3,8649,7479001
259,-1.10703,0.719759,9.62382,-0.424512,0.217625,1.46103,-0.011029,0.00719188,0.0962434,1,2.56487e-05,0.000216879,3.49901e-05,0.00512974,0.0433759,0.00699801,0,0,0,0,0.118466,0.521043,-1.07784,34.8125,3,8652,7479301
260,-0.426966,-0.727386,10.4561,-0.578841,-1.5027,1.5486,-0.00429501,-0.00727132,0.10456,1,-1.33721e-05,-0.000123349,3.00317e-05,-0.00267442,-0.0246698,0.00600634,0,0,0,0,0.114358,0.522709,-1.08738,34.8125,3,8656,7479701
261,-0.457379,-0.401999,10.3201,-0.659174,-1.71795,1.78152,-0.00456865,-0.00406394,0.103199,1,0.000208886,2.13293e-05,9.19332e-05,0.0417772,0.00426586,0.0183866,0,0,0,0,0.110655,0.529728,-1.0963,34.8125,3,8659,7480001
262,-1.05404,0.398026,10.1301,-0.59913,-0.829173,1.97081,-0.0105075,0.00394312,0.101306,1,0.000180422,0.000163772,2.80271e-05,0.0360843,0.0327543,0.00560542,0,0,0,0,0.103808,0.526975,-1.10289,34.8125,3,8662,7480301
263,-1.29928,-0.370053,8.89687,-1.54912,-0.555011,-0.0863258,-0.0130353,-0.00372896,0.0889613,1,0.000144911,-0.000243452,0.000101799,0.0289823,-0.0486905,0.0203598,0,0,0,0,0.095288,0.529219,-1.11543,34.8125,3,8666,7480701
264,-0.743944,-1.42562,9.62388,-1.47051,-2.28015,1.00372,-0.00745578,-0.0142785,0.0962342,1,0.000108059,-9.96531e-05,9.95344e-05,0.0216118,-0.0199306,0.0199069,0,0,0,0,0.0874672,0.530819,-1.1194,34.8125,3,8669,7481001
265,0.246274,-1.45419,9.471,-0.344906,-2.26088,0.86964,0.00244842,-0.0145501,0.0947091,1,4.47373e-05,-8.35401e-05,5.16091e-05,0.00894747,-0.016708,0.0103218,0,0,0,0,0.0819315,0.528631,-1.13104,34.8125,3,8672,7481301
266,-1.87435,-0.31382,9.48024,-1.85124,-0.667107,0.989867,-0.0187124,-0.00312601,0.094809,1,-8.9218e-05,0.000160074,0.000126284,-0.0178436,0.0320149,0.0252569,0,0,0,0,0.0750147,0.527856,-1.13911,34.8125,3,8676,7481701
267,0.125137,-0.77318,10.6591,-0.256867,-1.60863,1.86076,0.00121104,-0.00773901,0.106591,1,3.5558e-05,-0.00020005,0.000149586,0.0071116,-0.0400099,0.0299173,0,0,0,0,0.0647993,0.525131,-1.14569,34.8125,3,8679,7482001
268,-0.384548,-0.723036,10.4273,-0.450654,-1.48517,1.44053,-0.00386428,-0.00726007,0.10427,1,0.000137499,-9.95435e-05,0.000134631,0.0274998,-0.0199087,0.0269261,0,0,0,0,0.0573618,0.529689,-1.15161,34.8125,3,8682,7482301
266,-0.592758,1.128,9.9649,-0.148997,0.111495,1.12371,-0.00595798,0.0112231,0.0996536,1,0.000276632,-0.00013645,0.000142614,0.0553265,-0.02729,0.0285228,0,0,0,0,0.0496962,0.527802,-1.15162,34.8125,3,8686,7482701
270,-2.23936,-0.32875,8.48423,-2.47739,-0.618621,-0.391395,-0.0224034,-0.00332303,0.0848384,1,0.000180284,-6.20246e-05,0.000110225,0.0360567,-0.0124049,0.0220449,0,0,0,0,0.0451,0.531405,-1.1601,34.8125,3,8689,7483001
271,-0.918055,0.494128,9.39208,-0.88582,-0.163905,0.68964,-0.00918643,0.00493995,0.0939203,1,2.55837e-06,-2.88734e-05,4.62288e-05,0.000511675,-0.00577468,0.00924577,0,0,0,0,0.0365594,0.532354,-1.15449,34.8125,3,8692,7483301
272,-1.4662,0.120939,9.18699,-1.14071,-0.397185,0.740684,-0.0146531,0.00119359,0.0918715,1,7.29035e-05,4.94393e-05,8.19494e-05,0.0145807,0.00988787,0.0163899,0,0,0,0,0.0292326,0.535385,-1.15691,34.8125,3,8696,7483701
273,-1.10662,0.845052,9.77995,-0.439916,-0.469628,1.42771,-0.0110838,0.00838091,0.0978035,1,0.000348849,-8.47877e-05,6.18323e-05,0.0697698,-0.0169575,0.0123665,0,0,0,0,0.0215332,0.543642,-1.15113,34.8125,3,8699,7484001
274,-0.650743,-1.48768,10.5847,-0.763957,-2.6162,2.07282,-0.00649465,-0.0148627,0.10585,1,-6.97844e-05,5.28436e-05,5.38509e-05,-0.0139569,0.0105687,0.0107702,0,0,0,0,0.0157479,0.545144,-1.15057,34.8125,3,8702,7484301
275,-0.749456,0.0343125,10.1005,-0.108837,-0.754238,1.39842,-0.00753214,0.000365745,0.101003,1,-0.00010983,-0.000186127,-2.88563e-05,-0.021966,-0.0372255,-0.00577126,0,0,0,0,0.00470534,0.553411,-1.14377,34.8125,3,8706,7484701
276,-0.685466,-0.459314,10.2999,-0.675036,-0.858855,1.4653,-0.0068933,-0.00454833,0.102999,1,-0.000222157,-0.000190677,6.9787e-05,-0.0444313,-0.0381354,0.0139574,0,0,0,0,-0.00527811,0.555817,-1.1371,34.8125,3,8709,7485001
277,-0.587661,0.163676,10.3025,-0.724165,-0.878919,1.26061,-0.00592056,0.00164199,0.103022,1,-3.19974e-05,-0.000211471,0.000115338,-0.00639948,-0.0422941,0.0230676,0,0,0,0,-0.0129129,0.560172,-1.13142,34.8125,3,8712,7485301
278,-1.55856,0.335011,9.03129,-1.48198,-0.0264162,0.213344,-0.0155711,0.00335017,0.0903154,1,-1.48575e-05,8.34056e-05,8.41518e-05,-0.00297151,0.0166811,0.0168304,0,0,0,0,-0.0237974,0.561095,-1.12326,34.8125,3,8716,7485701
279,-1.10204,-1.14823,9.46341,-1.07515,-1.95673,1.40932,-0.0110077,-0.0115116,0.094632,1,0.000142565,5.3887e-05,0.000107081,0.028513,0.0107774,0.0214162,0,0,0,0,-0.0304989,0.564981,-1.11911,34.8125,3,8719,7486001
280,-0.827438,0.161956,9.80307,-0.488961,-0.618438,0.995139,-0.00832577,0.0016356,0.098026,1,-9.59811e-05,-0.000259385,0.0001672,-0.0191962,-0.0518769,0.03344,0,0,0,0,-0.0388643,0.560501,-1.11008,34.8125,3,8722,7486301
281,0.151507,-0.340126,10.2787,-0.176137,-1.46811,1.24056,0.00149087,-0.00341479,0.102787,1,6.78816e-05,-0.000122338,0.000139522,0.0135763,-0.0244677,0.0279045,0,0,0,0,-0.0507941,0.559083,-1.10702,34.8125,3,8726,7486701
282,0.14558,2.24951,10.4953,0.632302,1.07977,1.97389,0.00146988,0.0224927,0.104953,1,1.31922e-05,9.71938e-05,0.000140584,0.00263844,0.0194388,0.0281168,0,0,0,0,-0.0540466,0.559509,-1.10195,34.8125,3,8729,7487001
283,-1.16706,0.634408,9.38665,-0.555297,-0.129032,0.230536,-0.0116749,0.00631425,0.093868,1,0.000145265,-1.52894e-05,0.000109776,0.0290531,-0.00305787,0.0219551,0,0,0,0,-0.0587353,0.556568,-1.09896,34.8125,3,8732,7487301
284,-0.640328,-0.458108,9.74131,-0.700111,-1.25227,0.674483,-0.00640388,-0.00459362,0.0974125,1,5.98201e-05,-6.35594e-06,6.97452e-05,0.011964,-0.00127119,0.013949,0,0,0,0,-0.0585218,0.555448,-1.09091,34.8125,3,8736,7487701
285,-1.3483,-0.337265,7.85183,-1.29414,-1.15499,-0.79996,-0.0134948,-0.00340243,0.0785149,1,0.000168786,-8.047e-05,0.000121583,0.0337573,-0.016094,0.0243166,0,0,0,0,-0.0654358,0.550469,-1.08189,34.8125,3,8739,7488001
286,-1.4028,-0.358853,9.27501,-1.22909,-0.904486,0.444416,-0.0140148,-0.00357566,0.0927526,1,-7.79842e-05,6.90642e-05,5.69719e-05,-0.0155968,0.0138129,0.0113944,0,0,0,0,-0.065312,0.551824,-1.0758,34.8125,3,8742,7488301
287,0.361268,0.620058,11.108,0.935538,-0.716268,2.46481,0.00362617,0.00618831,0.11108,1,5.93235e-05,6.77212e-05,0.000125503,0.0118647,0.0135442,0.0251005,0,0,0,0,-0.0639844,0.549621,-1.06222,34.8125,3,8746,7488701
288,-0.594202,-0.789583,10.0991,-0.468938,-1.52396,1.078,-0.00596918,-0.00788383,0.10099,1,-6.15242e-05,-0.000137257,3.58201e-05,-0.0123048,-0.0274514,0.00716403,0,0,0,0,-0.0639375,0.554887,-1.05655,34.8125,3,8749,7489001
289,-0.275318,-1.11736,10.3963,-0.13154,-2.49234,2.04101,-0.00275808,-0.0112312,0.103957,1,0.00027401,-3.69341e-05,0.000123843,0.0548019,-0.00738682,0.0247686,0,0,0,0,-0.0646036,0.554679,-1.04443,34.8125,3,8752,7489301
290,-0.882507,0.90187,9.36918,-0.803213,0.65656,0.394233,-0.00883019,0.00906355,0.093687,1,-0.000252324,-1.40457e-05,0.000137512,-0.0504647,-0.00280915,0.0275024,0,0,0,0,-0.067729,0.554048,-1.03483,34.8125,3,8756,7489701
291,-0.16723,0.0916341,10.2679,-0.0103581,-1.36636,1.67931,-0.00163098,0.000886511,0.10268,1,0.000143915,0.000201953,8.34856e-05,0.028783,0.0403906,0.0166971,0,0,0,0,-0.0655484,0.5577,-1.02163,34.8125,3,8759,7490001
292,-1.1579,0.307975,8.78578,-0.851743,-0.0236845,-0.446686,-0.011582,0.00308716,0.0878572,1,-6.03572e-05,-1.19067e-05,0.000137672,-0.0120714,-0.00238135,0.0275344,0,0,0,0,-0.0643892,0.556102,-1.0146,34.8125,3,8762,7490301
293,-1.42959,-0.471265,8.98993,-1.54557,-1.28778,-0.216274,-0.0143154,-0.00472281,0.0898957,1,3.39241e-05,-0.000115657,0.000141746,0.00678481,-0.0231314,0.0283492,0,0,0,0,-0.0636894,0.558348,-1.00395,34.8125,3,8766,7490701
294,-0.96129,-0.382194,9.00647,-1.04844,-1.08082,0.143167,-0.00963344,-0.00383889,0.0900617,1,8.78832e-05,-0.000116506,5.82304e-05,0.0175766,-0.0233011,0.0116461,0,0,0,0,-0.0652447,0.555203,-0.990878,34.8125,3,8769,7491001
295,-1.44086,-0.320069,7.72927,-1.74521,-1.18323,-1.29215,-0.0144084,-0.0031999,0.0772928,1,-2.83212e-05,-3.77087e-06,0.000124233,-0.00566423,-0.000754175,0.0248465,0,0,0,0,-0.0636286,0.555065,-0.983818,34.8125,3,8772,7491301
296,-1.69354,0.489741,8.79789,-1.04985,-0.220324,0.251,-0.0169035,0.00489753,0.087985,1,-2.90541e-05,0.000189435,0.000147707,-0.00581081,0.037887,0.0295414,0,0,0,0,-0.0602959,0.547968,-0.970354,34.8125,3,8776,7491701
297,-1.85048,-0.808735,8.26714,-1.6422,-0.972248,-0.787368,-0.0185147,-0.00807871,0.08267,1,-6.61131e-05,-6.60429e-05,6.18896e-05,-0.0132226,-0.0132086,0.0123779,0,0,0,0,-0.0563415,0.543041,-0.969472,34.8125,3,8779,7492001
298,0.115408,-0.0322006,10.9778,0.202422,-1.31327,2.3878,0.00118251,-0.000364046,0.109778,1,0.000192656,0.000129135,0.000110578,0.0385313,0.0258269,0.0221157,0,0,0,0,-0.0541072,0.534606,-0.962599,34.8125,3,8782,7492301
299,-0.981345,0.144324,9.25484,-0.712911,-0.356332,0.753379,-0.00980339,0.00145483,0.0925493,1,-6.96551e-05,5.53762e-05,6.65072e-05,-0.013931,0.0110752,0.0133014,0,0,0,0,-0.0457407,0.529101,-0.958719,34.8125,3,8786,7492701
300,-0.323162,0.809002,10.0268,0.223128,-0.337358,1.02919,-0.00318638,0.00805864,0.100272,1,0.000152871,0.000234628,0.000112169,0.0305742,0.0469255,0.0224338,0,0,0,0,-0.0392902,0.524569,-0.953799,34.8125,3,8789,7493001
301,-1.70964,-0.028846,9.13625,-1.38398,-0.489667,0.395125,-0.0171101,-0.000307696,0.0913599,1,9.41659e-05,-7.52567e-05,5.9315e-05,0.0188332,-0.0150513,0.011863,0,0,0,0,-0.034756,0.519565,-0.948881,34.8125,3,8792,7493301
302,-1.13425,-0.75757,10.0652,-1.10658,-1.87613,1.10309,-0.0113531,-0.00758115,0.100651,1,2.13484e-05,-5.65655e-05,5.08395e-05,0.00426967,-0.0113131,0.0101679,0,0,0,0,-0.0268987,0.516493,-0.94444,34.8125,3,8796,7493701
303,0.0143851,-0.8068,10.5815,-0.0417297,-2.30888,1.88319,0.000141599,-0.00811035,0.105811,1,0.000200266,-1.79458e-05,9.55573e-05,0.0400533,-0.00358915,0.0191115,0,0,0,0,-0.0189555,0.511913,-0.937508,34.8125,3,8799,7494001
304,-1.23834,0.0287925,8.67273,-0.872851,-0.462451,-0.503226,-0.0123985,0.000316123,0.086725,1,-0.000165604,-8.68847e-05,2.12245e-05,-0.0331207,-0.0173769,0.0042449,0,0,0,0,-0.0111836,0.511795,-0.934516,34.8125,3,8802,7494301
305,-1.25363,-1.74666,10.2255,-1.33241,-2.66848,1.36909,-0.0125294,-0.0174916,0.102252,1,0.000112879,2.01713e-05,7.88976e-05,0.0225758,0.00403425,0.0157795,0,0,0,0,-0.00270473,0.510544,-0.922966,34.8125,3,8806,7494701
306,0.0206082,1.27519,10.8404,0.74932,0.27132,2.0548,0.000180378,0.0127823,0.108401,1,-0.000140056,-0.00010323,0.000130135,-0.0280111,-0.0206461,0.026027,0,0,0,0,0.00301126,0.51102,-0.925002,34.8125,3,8809,7495001
307,-0.549162,0.274286,9.95513,-0.3352,-0.0621847,1.10143,-0.00550393,0.00280521,0.0995489,1,-0.000316276,-6.02627e-05,5.6254e-05,-0.0632551,-0.0120525,0.0112508,0,0,0,0,0.00912063,0.506871,-0.914011,34.8125,3,8812,7495301
308,0.561458,0.925318,10.3744,0.994987,-1.19391,1.89833,0.00560699,0.00916305,0.103753,1,0.000440444,-2.66889e-05,0.000111759,0.0880889,-0.00533778,0.0223519,0,0,0,0,0.015461,0.505311,-0.91155,34.8125,3,8816,7495701
309,-1.02462,-0.102802,10.4656,-0.411387,-1.07843,1.45649,-0.0102149,-0.00107525,0.104659,1,0.000214376,0.000148596,0.000115018,0.0428752,0.0297192,0.0230037,0,0,0,0,0.0212681,0.507648,-0.908494,34.8125,3,8819,7496001
310,-0.293525,0.19311,10.1828,-0.0285221,-1.62313,2.08127,-0.00291499,0.0018971,0.10183,1,0.000164986,0.000100753,6.78543e-05,0.0329972,0.0201506,0.0135709,0,0,0,0,0.025667,0.504188,-0.908087,34.8125,3,8822,7496301
311,-2.50923,-0.821731,8.03657,-2.78851,-1.11488,-1.05009,-0.0251122,-0.00826881,0.0803542,1,0.000301502,-0.000129491,6.04396e-05,0.0603004,-0.0258983,0.0120879,0,0,0,0,0.0338527,0.499297,-0.911263,34.8125,3,8826,7496701
312,0.00450316,0.752577,10.1841,0.0815834,0.0289502,1.29491,2.65376e-05,0.00753134,0.10184,1,-2.73543e-05,-8.57049e-05,6.89102e-05,-0.00547086,-0.017141,0.013782,0,0,0,0,0.0350351,0.493345,-0.906351,34.8125,3,8829,7497001
313,-0.262722,-0.363973,10.0187,-0.373051,-1.1053,0.931227,-0.00264265,-0.00367146,0.100185,1,0.000157217,-7.85863e-05,4.26423e-05,0.0314435,-0.0157173,0.00852847,0,0,0,0,0.0392979,0.48854,-0.912538,34.8125,3,8832,7497301
314,-1.29343,0.776905,9.06006,-0.889758,0.795595,-0.144762,-0.0129713,0.00777399,0.0905948,1,-3.37754e-05,-0.000200715,4.55981e-05,-0.00675508,-0.0401431,0.00911963,0,0,0,0,0.0441888,0.480731,-0.914754,34.8125,3,8835,7497601
315,-2.01716,-0.593705,9.45873,-1.70942,-0.992527,0.705297,-0.0201714,-0.00590489,0.0945894,1,-0.000180732,-2.16111e-06,5.01113e-05,-0.0361464,-0.000432221,0.0100223,0,0,0,0,0.0498375,0.476438,-0.922957,34.8125,3,8839,7498001
316,-1.15358,0.437747,8.6937,-0.778981,-0.105813,-0.289811,-0.0115597,0.00434606,0.0869355,1,0.000170343,-0.00013372,7.74544e-05,0.0340685,-0.026744,0.0154909,0,0,0,0,0.0575872,0.471035,-0.924628,34.8125,3,8842,7498301
317,-1.35821,0.701261,8.57869,-1.40154,0.0586183,-0.221584,-0.013583,0.00696272,0.0857908,1,0.00027876,1.25589e-06,7.59914e-05,0.0557521,0.000251178,0.0151983,0,0,0,0,0.0594804,0.463332,-0.931374,34.8125,3,8845,7498601
318,-0.31043,0.528045,10.8534,-0.0461524,-1.12895,1.72471,-0.00309703,0.00523287,0.108536,1,0.000217356,3.65981e-05,6.39772e-05,0.0434712,0.00731961,0.0127954,0,0,0,0,0.0666754,0.459433,-0.935029,34.8125,3,8849,7499001
319,-1.22283,-0.471196,9.61583,-1.49694,-0.516263,0.560775,-0.0122508,-0.00471682,0.0961552,1,7.6898e-06,-0.000123711,0.000138148,0.00153796,-0.0247422,0.0276296,0,0,0,0,0.0724227,0.455067,-0.939193,34.8125,3,8852,7499301
320,-1.97918,0.887549,8.74481,-1.06173,0.271438,0.280853,-0.0197777,0.00884627,0.0874543,1,0.000152331,8.71996e-05,6.51991e-05,0.0304662,0.0174399,0.0130398,0,0,0,0,0.0756658,0.450794,-0.947384,34.8125,3,8856,7499701
321,-0.494366,-0.987732,10.0344,-0.473059,-2.2208,1.38013,-0.00493305,-0.00990745,0.100342,1,0.000145741,4.40612e-05,8.95633e-05,0.0291482,0.00881223,0.0179127,0,0,0,0,0.0810559,0.447787,-0.945455,34.8125,3,8859,7500001
322,-0.586697,-0.721304,10.1326,-0.709258,-1.88822,1.61575,-0.00582743,-0.00726895,0.101324,1,0.000269132,0.000186713,0.000117806,0.0538264,0.0373425,0.0235613,0,0,0,0,0.0823185,0.448389,-0.952519,34.8125,3,8862,7500301
323,-1.61612,0.671293,8.55282,-1.38307,0.417372,-0.566169,-0.0161782,0.00674843,0.0855222,1,-0.000220082,-9.36392e-05,6.6447e-05,-0.0440165,-0.0187278,0.0132894,0,0,0,0,0.0858406,0.441984,-0.950657,34.8125,3,8866,7500701
324,-1.00658,-0.30526,9.26623,-1.32049,-1.02165,0.25494,-0.0100732,-0.00306074,0.0926612,1,3.89017e-05,-4.15828e-05,4.6111e-05,0.00778035,-0.00831655,0.0092222,0,0,0,0,0.0885797,0.443513,-0.955686,34.8125,3,8869,7501001
325,-0.802753,0.0477704,9.36239,-0.613094,-0.79553,0.508221,-0.00803177,0.000468665,0.0936236,1,4.0157e-05,-2.21974e-05,9.46371e-05,0.00803139,-0.00443947,0.0189274,0,0,0,0,0.0891832,0.440529,-0.952725,34.8125,3,8872,7501301
326,-2.07192,-0.860629,8.61085,-2.02874,-1.2025,-0.269067,-0.0207218,-0.00861792,0.0861067,1,5.37639e-05,-2.09698e-05,5.72668e-05,0.0107528,-0.00419396,0.0114534,0,0,0,0,0.0871876,0.436742,-0.958356,34.8125,3,8876,7501701
327,-1.50312,-0.5895,8.94911,-1.87295,-0.784536,-0.33496,-0.0150397,-0.00588529,0.0894903,1,-5.64856e-05,-4.82399e-05,1.30531e-05,-0.0112971,-0.00964798,0.00261062,0,0,0,0,0.0861267,0.436822,-0.962389,34.8125,3,8879,7502001
328,-1.86606,-0.0637336,8.51926,-2.06177,-0.475967,-0.511873,-0.0186948,-0.000633365,0.0851852,1,-3.52073e-05,-0.000201169,5.42898e-05,-0.00704147,-0.0402338,0.010858,0,0,0,0,0.0827647,0.429136,-0.967595,34.8125,3,8882,7502301
329,-1.0251,1.73259,10.7114,-0.0165494,0.759126,2.18802,-0.0102122,0.0173428,0.107115,1,-8.69234e-05,0.000195251,8.80119e-05,-0.0173847,0.0390501,0.0176024,0,0,0,0,0.0773804,0.424428,-0.974746,34.8125,3,8886,7502701
330,0.784411,-1.01009,11.4133,0.838064,-2.54448,2.59176,0.00783864,-0.0101442,0.11413,1,0.000192685,-2.75175e-05,4.01346e-05,0.0385371,-0.0055035,0.00802692,0,0,0,0,0.0751205,0.417114,-0.973888,34.8125,3,8889,7503001
331,-0.117209,0.426477,10.4997,0.336879,-0.402794,1.50359,-0.00118814,0.00426251,0.104997,1,9.41541e-06,-7.15647e-05,0.000120078,0.00188308,-0.0143129,0.0240157,0,0,0,0,0.0759495,0.411902,-0.983099,34.8125,3,8892,7503301
332,-2.82402,-0.106802,8.3027,-2.23972,-0.355348,0.030169,-0.0282283,-0.00106097,0.0830311,1,-9.25905e-05,7.01621e-05,0.000147499,-0.0185181,0.0140324,0.0294998,0,0,0,0,0.0716945,0.402246,-0.986829,34.8125,3,8896,7503701
333,-0.520463,-0.608841,9.31213,-0.657044,-1.31056,0.258274,-0.00522558,-0.00609993,0.0931194,1,4.19682e-05,-0.000135788,0.000355307,0.00839364,-0.0271576,0.0710614,0,0,0,0,0.0706156,0.397521,-0.99501,34.8125,3,8899,7504001
334,-1.16433,0.202315,9.80466,-0.8486,-0.765218,0.890677,-0.0116396,0.0019865,0.0980478,1,0.000136829,2.75271e-05,0.00042189,0.0273658,0.00550542,0.0843781,0,0,0,0,0.0659587,0.391184,-0.993109,34.8125,3,8902,7504301
335,-0.485355,0.841561,10.4148,0.547327,-0.244028,1.78143,-0.00485652,0.00837073,0.104152,1,0.000181756,4.40428e-05,0.000723365,0.0363512,0.00880856,0.144673,0,0,0,0,0.065035,0.382972,-0.997328,34.8125,3,8906,7504701
336,-1.13266,-0.824739,10.1742,-0.613979,-1.51417,1.39666,-0.0113036,-0.0082603,0.101744,0.999999,-3.82588e-05,3.85793e-05,0.00091459,-0.00765176,0.00771586,0.182918,0,0,0,0,0.0664822,0.381993,-0.997862,34.8125,3,8909,7505001
337,-1.24814,0.231714,10.0972,-0.657272,-0.335913,1.24792,-0.012474,0.00229912,0.100973,0.999999,-5.986e-05,6.41292e-05,0.00120666,-0.011972,0.0128258,0.241332,0,0,0,0,0.0646379,0.375686,-0.999003,34.8125,3,8912,7505301
338,-0.730299,0.797527,10.1096,-0.168157,0.129296,1.35308,-0.00734998,0.00796834,0.101093,0.999999,-7.77106e-05,-0.000110535,0.00154515,-0.0155421,-0.0221069,0.309031,0,0,0,0,0.0646337,0.375207,-0.999519,34.8125,3,8916,7505701
339,-1.28564,0.0977039,9.26512,-1.14188,-0.0813152,0.414946,-0.0128785,0.000959043,0.0926484,0.999998,-0.000151904,-0.000100046,0.00179302,-0.0303808,-0.0200093,0.358604,0,0,0,0,0.0652823,0.371708,-0.995054,34.8125,3,8919,7506001
340,-1.28028,1.94519,10.0858,-0.0994913,1.28983,1.63922,-0.0128139,0.019397,0.100867,0.999998,4.88191e-06,0.000350228,0.00210542,0.000976383,0.0700457,0.421084,0,0,0,0,0.0677121,0.370225,-0.995098,34.8125,3,8922,7506301
341,-2.48695,0.924521,8.13044,-1.98115,0.533184,-0.445408,-0.0249427,0.00917747,0.0812896,0.999997,-0.000314712,-0.000180135,0.00238726,-0.0629425,-0.0360271,0.477453,0,0,0,0,0.069275,0.371089,-0.989531,34.8125,3,8926,7506701
342,-1.10741,-0.290543,9.6678,-0.962759,-1.44773,0.738015,-0.0110796,-0.00294699,0.0966762,0.999996,-0.000100236,-0.000111567,0.00275081,-0.0200472,-0.0223135,0.550162,0,0,0,0,0.0688271,0.372032,-0.987487,34.8125,3,8929,7507001
343,-0.868362,0.8617,9.51613,-0.967021,0.124706,0.232216,-0.00876915,0.00861698,0.0951534,0.999996,-0.000271954,-0.000180756,0.00296703,-0.0543908,-0.0361512,0.593408,0,0,0,0,0.0713314,0.37194,-0.983461,34.8125,3,8932,7507301
344,0.0152795,0.406176,10.0997,0.0338804,-0.532941,1.5669,0.000110644,0.00412554,0.100994,0.999995,-0.000311603,-7.99091e-05,0.0031768,-0.0623207,-0.0159819,0.635362,0,0,0,0,0.072881,0.369923,-0.980482,34.8125,3,8936,7507701
345,-1.08266,0.293925,9.72147,-0.538072,-1.85054,0.798053,-0.0108513,0.00292864,0.0972123,0.999995,-0.000281523,-3.60831e-05,0.00301428,-0.0563047,-0.00721663,0.602858,0,0,0,0,0.0743049,0.373299,-0.978899,34.8125,3,8939,7508001
346,-2.32985,2.78511,10.1485,-1.61594,3.67132,0.948228,-0.0235401,0.0276473,0.101485,0.999994,0.00018287,-0.000217545,0.00355862,0.0365742,-0.0435091,0.711725,0,0,0,0,0.0787935,0.367364,-0.976526,34.8125,3,8942,7508301
347,-0.287775,0.601864,9.68117,-0.14757,0.559163,0.772828,-0.0029393,0.00603221,0.0968091,0.999994,-0.000177264,-9.58182e-05,0.00356815,-0.0354528,-0.0191637,0.713631,0,0,0,0,0.0831928,0.36535,-0.975076,34.8125,3,8946,7508701
348,0.760971,-0.935782,10.8729,1.0445,-2.24103,1.81024,0.00767005,-0.00929696,0.10873,0.999994,-2.73253e-05,-3.08434e-05,0.00359405,-0.00546507,-0.00616869,0.718811,0,0,0,0,0.0833509,0.358006,-0.973725,34.8125,3,8949,7509001
349,-2.0832,1.43059,8.64783,-1.94766,1.12508,-0.114403,-0.020911,0.0142376,0.0864705,0.999994,-0.000459658,0.00012766,0.003541,-0.0919317,0.0255321,0.708202,0,0,0,0,0.0901022,0.35553,-0.974821,34.8125,3,8952,7509301
350,-0.703466,1.31549,9.55504,-0.176714,0.355456,0.759401,-0.00710744,0.0131335,0.095548,0.999993,-0.00015405,0.000114294,0.00359937,-0.0308101,0.0228589,0.719876,0,0,0,0,0.0994475,0.350486,-0.969926,34.8125,3,8956,7509701
351,-0.231049,1.48161,10.3845,0.063431,0.437385,1.70461,-0.00246445,0.014854,0.103836,0.999994,-0.000263587,-0.000239376,0.00351318,-0.0527176,-0.0478753,0.702637,0,0,0,0,0.101844,0.348063,-0.972011,34.8125,3,8959,7510001
352,-0.441711,0.221717,10.1372,0.0430033,-0.841334,1.17445,-0.00445729,0.0021821,0.101371,0.999994,2.05902e-05,-0.000122613,0.00348123,0.00411805,-0.0245226,0.696246,0,0,0,0,0.109306,0.343487,-0.965076,34.8125,3,8962,7510301
353,-1.29238,0.587496,9.77556,-0.761649,0.160361,0.857163,-0.0129548,0.00587298,0.0977517,0.999994,-0.00045167,5.13466e-05,0.00348883,-0.0903341,0.0102693,0.697768,0,0,0,0,0.113681,0.342936,-0.963593,34.8125,3,8966,7510701
354,-1.05989,1.27662,9.0898,-0.771975,0.735888,0.396162,-0.0106829,0.0127699,0.0908877,0.999994,-0.00042893,2.81367e-05,0.00348779,-0.0857861,0.00562735,0.69756,0,0,0,0,0.120914,0.341901,-0.96365,34.8125,3,8969,7511001
355,-1.52038,1.17475,8.88579,-1.66566,0.649785,-0.49087,-0.0153381,0.0117065,0.0888402,0.999994,-0.00036755,-0.000296618,0.00347969,-0.0735101,-0.0593236,0.695939,0,0,0,0,0.125429,0.341729,-0.956098,34.8125,3,8972,7511301
356,0.214687,1.57951,10.3687,0.656689,0.282193,1.72415,0.00202803,0.0158071,0.103688,0.999994,1.22833e-05,-4.17183e-05,0.00348667,0.00245666,-0.00834367,0.697336,0,0,0,0,0.13513,0.342074,-0.9526,34.8125,3,8976,7511701
357,-1.39722,0.315403,9.5634,-0.592253,-0.743627,0.653831,-0.0139898,0.00314025,0.0956319,0.999994,-0.000433261,2.15408e-05,0.00345662,-0.0866524,0.00430817,0.691325,0,0,0,0,0.138235,0.342854,-0.943001,34.8125,3,8979,7512001
358,-0.143521,0.208072,9.82802,0.036609,-0.718594,1.17747,-0.0014447,0.00210344,0.0982796,0.999994,-0.000166522,2.57148e-05,0.00347586,-0.0333044,0.00514297,0.695174,0,0,0,0,0.143977,0.346203,-0.941943,34.8125,3,8982,7512301
359,-0.731346,0.766023,10.3486,-0.163037,0.210402,1.63155,-0.00736374,0.00764845,0.103483,0.999994,-0.000194011,1.88286e-05,0.00353863,-0.0388022,0.00376573,0.707727,0,0,0,0,0.153259,0.349397,-0.933834,34.8125,3,8986,7512701
360,-0.697375,1.44367,9.7094,-0.345804,0.42551,0.907281,-0.00707048,0.0144269,0.0970885,0.999994,-0.000203961,2.49862e-05,0.0035193,-0.0407923,0.00499725,0.703862,0,0,0,0,0.157597,0.348873,-0.933866,34.8125,3,8989,7513001
361,-1.16928,0.970661,9.2231,-0.932241,-0.227042,0.462127,-0.0117799,0.00965214,0.0922257,0.999994,-0.000149268,-0.000105307,0.00349374,-0.0298537,-0.0210614,0.69875,0,0,0,0,0.16314,0.347682,-0.924321,34.8125,3,8992,7513301
362,-1.82943,0.8118,8.66004,-1.19148,-0.25633,0.0290997,-0.0183412,0.00803007,0.0865987,0.999994,-0.000235286,5.67358e-05,0.00351268,-0.0470574,0.0113472,0.702537,0,0,0,0,0.1676,0.344178,-0.92139,34.8125,3,8996,7513701
363,-0.495557,1.64859,9.50091,-0.322146,0.954401,0.615076,-0.00506743,0.0165162,0.0949979,0.999994,-0.00034241,1.37084e-05,0.00346828,-0.0684822,0.00274168,0.693658,0,0,0,0,0.174777,0.346557,-0.92137,34.8125,3,8999,7514001
364,-1.75541,1.27036,9.00277,-1.19982,0.149651,0.506781,-0.0176209,0.0126165,0.0900269,0.999994,-0.000190637,0.000114644,0.00345297,-0.0381275,0.0229288,0.690595,0,0,0,0,0.179775,0.339634,-0.918516,34.8125,3,9002,7514301
365,-1.05087,1.56853,8.80099,-1.2744,0.449289,-0.0827246,-0.0106389,0.0156247,0.0880051,0.999994,-5.85367e-05,-0.000143393,0.00335203,-0.0117074,-0.0286787,0.670408,0,0,0,0,0.191333,0.338083,-0.919109,34.8125,3,9006,7514701
366,-1.94733,1.11613,8.60973,-1.58152,-0.645476,-0.369277,-0.0195637,0.011101,0.0860846,0.999994,-0.000401172,-9.63416e-05,0.0033137,-0.0802346,-0.0192684,0.662741,0,0,0,0,0.196833,0.33066,-0.915764,34.8125,3,9009,7515001
367,-1.24759,0.133591,8.8604,-1.13435,-0.753384,-0.309716,-0.0125032,0.0012931,0.0886008,0.999995,-0.000219002,-0.000105866,0.00326748,-0.0438006,-0.0211733,0.653498,0,0,0,0,0.206524,0.325711,-0.916424,34.8125,3,9012,7515301
368,-0.473252,1.635,10.5064,-0.218664,0.473612,1.97419,-0.00483735,0.0163399,0.105061,0.999995,-0.000101008,9.8544e-06,0.00327025,-0.0202015,0.00197088,0.65405,0,0,0,0,0.218361,0.320584,-0.908007,34.8125,3,9016,7515701
369,-0.317155,-0.00116314,10.1413,0.371459,-1.05333,1.21013,-0.00322704,-2.74233e-05,0.101411,0.999995,-2.4597e-05,-0.000274238,0.00324768,-0.0049194,-0.0548477,0.649537,0,0,0,0,0.227069,0.31614,-0.909156,34.8125,3,9019,7516001
370,-1.11486,0.727334,10.0105,-0.783661,-0.333332,0.960543,-0.011197,0.00724883,0.100102,0.999995,-0.000243629,-3.3829e-06,0.00327993,-0.0487258,-0.000676582,0.655988,0,0,0,0,0.235428,0.312568,-0.904223,34.8125,3,9022,7516301
371,-0.931704,1.95848,9.34018,-1.22645,1.0566,0.662726,-0.00942931,0.0195581,0.0933961,0.999995,-0.000170792,5.40651e-05,0.00312615,-0.0341586,0.010813,0.62523,0,0,0,0,0.247599,0.30899,-0.900823,34.8125,3,9026,7516701
372,-0.849044,1.56211,9.91398,-1.00096,0.182509,1.01975,-0.00860655,0.015588,0.099135,0.999995,-9.32595e-05,-0.000110623,0.00301756,-0.0186519,-0.0221246,0.603513,0,0,0,0,0.259178,0.308388,-0.89988,34.8125,3,9029,7517001
373,-0.250651,0.586365,10.0522,-0.00270342,-0.108149,1.07363,-0.00254722,0.00588272,0.10052,0.999996,-0.000165429,-3.84323e-05,0.00280734,-0.0330858,-0.00768646,0.561469,0,0,0,0,0.264675,0.303376,-0.894966,34.8125,3,9032,7517301
374,-0.546289,1.41995,10.4802,-0.380478,0.230512,1.76374,-0.0055241,0.0142379,0.104794,0.999997,-0.000314739,4.78154e-05,0.00250494,-0.0629478,0.0095631,0.500988,0,0,0,0,0.278235,0.299344,-0.894108,34.8125,3,9036,7517701
375,-1.21686,0.0876258,10.0088,-0.461208,-0.79745,1.23376,-0.0121764,0.000873709,0.100087,0.999997,-0.000267601,-1.86813e-05,0.00230502,-0.0535202,-0.00373627,0.461004,0,0,0,0,0.283692,0.299662,-0.887056,34.8125,3,9039,7518001
376,-1.17839,0.584668,8.9298,-1.00749,-0.691601,-0.162038,-0.0118282,0.00580854,0.0892947,0.999997,-8.27668e-05,-0.00010138,0.00224163,-0.0165534,-0.0202761,0.448326,0,0,0,0,0.289503,0.299587,-0.885569,34.8125,3,9042,7518301
377,-0.201887,1.1932,10.9832,-0.354231,0.268426,2.0949,-0.00207757,0.0119297,0.109831,0.999998,-2.89006e-05,-3.90676e-05,0.00210054,-0.00578012,-0.00781352,0.420108,0,0,0,0,0.299729,0.297967,-0.881612,34.8125,3,9046,7518701
378,-0.79124,0.137925,10.2904,0.17681,-1.51051,1.25119,-0.00796585,0.00133989,0.1029,0.999998,2.83399e-05,-0.000231797,0.0021118,0.00566798,-0.0463594,0.42236,0,0,0,0,0.303084,0.296503,-0.883175,34.8125,3,9049,7519001
379,-0.132788,-0.0584681,10.1495,0.39877,-0.657026,1.07117,-0.00135166,-0.000535529,0.101495,0.999998,-0.000269653,-0.000128682,0.00208394,-0.0539306,-0.0257363,0.416789,0,0,0,0,0.308482,0.293009,-0.881257,34.8125,3,9052,7519301
380,-1.04877,0.304978,9.58368,-0.323733,-1.12685,0.708716,-0.0105154,0.00299202,0.0958356,0.999998,7.23626e-05,-7.84635e-05,0.00208942,0.0144725,-0.0156927,0.417885,0,0,0,0,0.315294,0.287596,-0.881914,34.8125,3,9056,7519701
381,0.0169466,-0.087616,11.4028,0.798352,-0.181816,2.42352,0.000189308,-0.000853757,0.114028,0.999998,-9.49242e-05,7.1046e-05,0.0021036,-0.0189849,0.0142092,0.420721,0,0,0,0,0.321963,0.285661,-0.886028,34.8125,3,9059,7520001
382,-1.52239,0.597547,9.33639,-1.24554,-1.03403,0.435505,-0.0152873,0.00592682,0.0933567,0.999998,-8.19647e-05,-0.000205736,0.00209636,-0.0163929,-0.0411472,0.419272,0,0,0,0,0.32451,0.276383,-0.886751,34.8125,3,9062,7520301
383,-0.435248,0.177701,9.47575,-0.175362,-0.604309,0.527696,-0.00438708,0.00178215,0.0947558,0.999998,-0.000125282,-0.000142577,0.00212857,-0.0250564,-0.0285155,0.425714,0,0,0,0,0.336014,0.271499,-0.891964,34.8125,3,9066,7520701
384,-0.812722,0.559999,11.3612,-0.0740346,-0.490361,2.55648,-0.0081161,0.00558062,0.113614,0.999998,-6.52235e-05,0.000152523,0.00210495,-0.0130447,0.0305047,0.42099,0,0,0,0,0.340478,0.264138,-0.891643,34.8125,3,9069,7521001
385,-0.715909,-0.615253,9.30921,0.22199,-1.71996,0.0965815,-0.00714821,-0.00618849,0.0930906,0.999998,3.47208e-05,-7.81815e-05,0.00206123,0.00694417,-0.0156363,0.412246,0,0,0,0,0.34863,0.258307,-0.896861,34.8125,3,9072,7521301
386,-1.5641,0.563489,9.0956,-0.745046,-1.02599,0.127585,-0.015686,0.00557575,0.0909519,0.999998,-2.35058e-05,-0.000122528,0.00202451,-0.00470117,-0.0245056,0.404902,0,0,0,0,0.353987,0.252915,-0.898015,34.8125,3,9075,7521601
387,-2.33037,-0.251555,8.12829,-0.703659,-2.01562,-0.934709,-0.0233109,-0.00258142,0.0812788,0.999998,-0.000166581,-0.000106811,0.00199407,-0.0333162,-0.0213621,0.398813,0,0,0,0,0.365046,0.245118,-0.903795,34.8125,3,9079,7522001
388,-0.354004,0.558394,9.57584,-0.293457,-0.418382,0.782575,-0.00357226,0.0055774,0.0957576,0.999998,-3.93755e-05,-5.28319e-05,0.00198061,-0.0078751,-0.0105664,0.396122,0,0,0,0,0.37194,0.239164,-0.901434,34.8125,3,9082,7522301
389,-0.873524,0.379756,9.68602,-0.357665,-0.947325,0.908369,-0.00876904,0.00381588,0.0968564,0.999998,-0.000271115,-9.76893e-05,0.00195353,-0.0542231,-0.0195379,0.390705,0,0,0,0,0.377683,0.234319,-0.906114,34.8125,3,9086,7522701
390,-1.25264,-0.541905,9.85335,0.692038,-1.60436,0.935934,-0.0124984,-0.00548065,0.0985336,0.999998,6.22041e-05,3.3016e-05,0.00197161,0.0124408,0.00660321,0.394321,0,0,0,0,0.386325,0.229441,-0.910303,34.8125,3,9089,7523001
391,-1.54106,0.457417,8.78493,-1.28373,-1.33038,-0.362942,-0.0154714,0.00453763,0.0878405,0.999998,-0.000129198,-0.000246818,0.00191821,-0.0258396,-0.0493636,0.383641,0,0,0,0,0.39026,0.226456,-0.908872,34.8125,3,9092,7523301
392,-0.175985,0.992538,9.1302,-0.937298,-0.812157,-0.597628,-0.00183433,0.0099732,0.0912953,0.999998,-0.000298609,-0.000204383,0.00186755,-0.0597219,-0.0408766,0.37351,0,0,0,0,0.39745,0.222078,-0.913043,34.8125,3,9095,7523601
393,-1.26457,0.90745,8.90683,-1.50921,-0.789731,-0.13581,-0.0127209,0.00905775,0.0890593,0.999998,-0.000184444,-0.000223169,0.00195543,-0.0368888,-0.0446338,0.391086,0,0,0,0,0.405735,0.217114,-0.912182,34.8125,3,9099,7524001
394,-1.07578,0.0935129,9.29327,-0.0718063,-1.07313,0.445566,-0.0107402,0.000968068,0.0929344,0.999998,-0.000400091,0.000114402,0.00192693,-0.0800181,0.0228804,0.385385,0,0,0,0,0.409505,0.215212,-0.916787,34.8125,3,9102,7524301
395,-2.15592,1.25162,9.27405,-1.53411,-0.480688,0.554978,-0.0216022,0.0124825,0.092735,0.999998,-0.000262423,2.4788e-05,0.00190694,-0.0524847,0.0049576,0.381388,0,0,0,0,0.413891,0.211762,-0.916884,34.8125,3,9105,7524601
396,-0.0431084,-0.148617,10.7189,0.609671,-0.342058,1.74992,-0.000385522,-0.00144274,0.10719,0.999998,-0.000209856,0.000186409,0.00191194,-0.0419713,0.0372819,0.382388,0,0,0,0,0.418167,0.209838,-0.920482,34.8125,3,9109,7525001
397,-1.46987,0.396157,9.57344,-0.10743,-0.915811,0.835359,-0.0146947,0.00390657,0.0957372,0.999998,7.74665e-07,9.73719e-05,0.00186592,0.000154933,0.0194744,0.373185,0,0,0,0,0.422566,0.204933,-0.921116,34.8125,3,9112,7525301
398,-0.804492,0.335001,9.48131,-0.440299,-0.72393,0.830701,-0.0080746,0.00336424,0.0948101,0.999998,-0.000225838,-9.37439e-05,0.00177387,-0.0451677,-0.0187488,0.354774,0,0,0,0,0.422006,0.204513,-0.924658,34.8125,3,9115,7525601
399,-0.909534,0.136505,9.91471,0.254894,-0.537059,1.10304,-0.00908949,0.0013408,0.099148,0.999999,-3.61021e-05,5.30795e-05,0.00172734,-0.00722042,0.0106159,0.345467,0,0,0,0,0.427293,0.199654,-0.928326,34.8125,3,9119,7526001
400,-1.06273,0.556969,9.10684,-0.414478,-1.15537,0.194389,-0.0106594,0.00554119,0.0910664,0.999998,-3.84206e-05,-7.45804e-05,0.00166751,-0.00768412,-0.0149161,0.333501,0,0,0,0,0.426395,0.194315,-0.929451,34.8125,3,9122,7526301
401,-0.67051,-0.452777,10.7943,0.905953,-1.0556,1.69886,-0.00670922,-0.00457654,0.107941,0.999998,0.00012371,-8.8451e-05,0.00164458,0.024742,-0.0176902,0.328916,0,0,0,0,0.431086,0.190508,-0.937133,34.8125,3,9126,7526701
402,0.154698,0.645469,10.3128,0.115107,0.132318,1.65549,0.00153597,0.00647494,0.103127,0.999999,-7.36301e-05,4.95164e-05,0.00164105,-0.014726,0.00990329,0.328211,0,0,0,0,0.429714,0.183239,-0.939308,34.8125,3,9129,7527001
403,-0.495563,0.657044,9.72523,0.00562634,-0.58768,0.753189,-0.00493332,0.00655893,0.0972542,0.999999,-2.31963e-05,0.000224093,0.00162062,-0.00463926,0.0448187,0.324125,0,0,0,0,0.433018,0.177475,-0.946017,34.8125,3,9132,7527301
404,-0.753419,-0.742753,10.1933,0.810752,-0.942992,1.4878,-0.00750025,-0.00747991,0.101931,0.999998,0.000137793,4.83807e-05,0.00161536,0.0275587,0.00967613,0.323073,0,0,0,0,0.435002,0.170188,-0.948714,34.8125,3,9135,7527601
405,-1.82805,-0.0298913,9.78875,0.235577,-1.50353,1.32157,-0.018218,-0.000314879,0.0978991,0.999999,-0.000220905,0.000314069,0.00162241,-0.044181,0.0628139,0.324483,0,0,0,0,0.437307,0.164459,-0.956933,34.8125,3,9139,7528001
406,-0.368888,-0.0955485,10.669,0.570867,-0.610835,1.64999,-0.00370566,-0.000960036,0.106689,0.999999,-3.45054e-05,-9.30921e-05,0.00161108,-0.00690108,-0.0186184,0.322215,0,0,0,0,0.438222,0.159184,-0.96261,34.8125,3,9142,7528301
407,-0.768216,0.966564,9.64131,-0.46365,-0.217175,0.746695,-0.00768056,0.00964615,0.0964152,0.999999,-2.83698e-05,0.000171045,0.00162489,-0.00567396,0.034209,0.324979,0,0,0,0,0.442073,0.152405,-0.967324,34.8125,3,9146,7528701
408,-2.42461,-0.478785,9.12647,-0.0309743,-2.48526,0.334129,-0.024219,-0.00482922,0.0912698,0.999999,-0.000194953,6.50782e-05,0.00158784,-0.0389906,0.0130156,0.317568,0,0,0,0,0.444428,0.148085,-0.972481,34.8125,3,9149,7529001
409,-0.628342,-0.0137607,9.6562,-0.112763,-1.13869,0.591552,-0.00633015,-0.000153207,0.0965589,0.999999,-2.64432e-05,-0.000244478,0.00164162,-0.00528863,-0.0488957,0.328325,0,0,0,0,0.447355,0.144177,-0.973592,34.8125,3,9152,7529301
410,-1.1006,0.523818,10.3652,0.166837,-0.644209,1.60873,-0.0110353,0.00520854,0.10365,0.999999,-2.8731e-05,-6.01045e-05,0.00161481,-0.0057462,-0.0120209,0.322962,0,0,0,0,0.4507,0.138865,-0.978271,34.8125,3,9156,7529701
411,-0.292927,0.882931,10.468,-0.28459,0.453812,1.99389,-0.00296853,0.00883874,0.104678,0.999999,-8.95464e-05,-5.4184e-05,0.0015795,-0.0179093,-0.0108368,0.3159,0,0,0,0,0.452147,0.136441,-0.979847,34.8125,3,9159,7530001
412,-1.4036,1.21293,9.20351,-0.759928,-1.32009,0.318255,-0.0140514,0.0120605,0.0920418,0.999999,0.000135356,0.000121179,0.00155964,0.0270711,0.0242358,0.311928,0,0,0,0,0.454568,0.134,-0.980922,34.8125,3,9162,7530301
413,-2.29847,0.84103,9.44154,-1.34248,-1.18785,0.661161,-0.0230024,0.00835672,0.0944159,0.999999,-0.000102892,4.73842e-05,0.00158766,-0.0205784,0.00947684,0.317532,0,0,0,0,0.457466,0.129631,-0.983558,34.8125,3,9166,7530701
414,-1.25341,1.14185,9.48295,-0.9605,-0.41171,0.95445,-0.0126068,0.0114004,0.0948221,0.999999,-0.000116089,-0.000190561,0.00159818,-0.0232178,-0.0381122,0.319637,0,0,0,0,0.457013,0.12576,-0.985157,34.8125,3,9169,7531001
415,0.161618,0.375487,10.314,0.223889,-0.195738,1.32028,0.00155461,0.00376609,0.103141,0.999999,-2.97732e-05,-0.000240013,0.00160321,-0.00595464,-0.0480027,0.320643,0,0,0,0,0.456646,0.123271,-0.982181,34.8125,3,9172,7531301
416,-2.31877,0.248293,8.43838,-0.645998,-1.59787,-0.284484,-0.0231683,0.00243449,0.0843906,0.999999,-0.000141333,0.000160725,0.00155965,-0.0282666,0.032145,0.311929,0,0,0,0,0.459503,0.121341,-0.984762,34.8125,3,9176,7531701
417,-2.11462,0.711024,8.93466,-1.14506,-1.35995,0.0020237,-0.021184,0.00708833,0.0893395,0.999999,-0.000249624,-8.65225e-05,0.00157143,-0.0499248,-0.0173045,0.314285,0,0,0,0,0.45998,0.120858,-0.98528,34.8125,3,9179,7532001
418,-1.35842,-0.218377,9.41816,0.326385,-1.48429,0.766393,-0.0135843,-0.0022197,0.0941808,0.999999,-3.74801e-05,-3.7621e-05,0.0015823,-0.00749602,-0.0075242,0.31646,0,0,0,0,0.459124,0.117416,-0.983332,34.8125,3,9182,7532301
419,-0.73296,1.28042,9.50329,-0.940335,-0.328753,0.825805,-0.00734738,0.0128053,0.0950314,0.999999,-0.000126094,0.000116827,0.00156114,-0.0252187,0.0233654,0.312228,0,0,0,0,0.456256,0.114053,-0.984909,34.8125,3,9186,7532701
420,-0.990673,0.674638,9.44074,-0.257017,-0.957108,0.458534,-0.00990652,0.00674595,0.0944075,0.999999,-0.000161895,0.000112939,0.00156472,-0.032379,0.0225877,0.312944,0,0,0,0,0.455865,0.111582,-0.982942,34.8125,3,9189,7533001
421,-1.42638,-0.118301,9.52997,0.344729,-1.11605,0.907764,-0.0142539,-0.00119341,0.0953011,0.999999,-0.000176801,3.2969e-05,0.00154629,-0.0353602,0.0065938,0.309259,0,0,0,0,0.457768,0.110617,-0.984487,34.8125,3,9192,7533301
422,-1.22386,0.424059,9.63915,-0.308039,-0.894239,0.953661,-0.0122719,0.00421997,0.0963882,0.999999,-8.34562e-05,-0.000107034,0.00149754,-0.0166913,-0.0214068,0.299508,0,0,0,0,0.455932,0.103822,-0.98564,34.8125,3,9196,7533701
423,-0.549205,-0.0908225,9.32847,0.315937,-0.767948,0.499269,-0.00552333,-0.000919153,0.0932828,0.999999,-3.15323e-05,-0.000182628,0.0015261,-0.00630646,-0.0365256,0.305219,0,0,0,0,0.452099,0.101434,-0.986685,34.8125,3,9199,7534001
424,0.658431,0.508542,11.7482,0.232814,0.698061,2.88596,0.00658152,0.0051503,0.117479,0.999999,-0.000193508,5.23534e-05,0.00147476,-0.0387016,0.0104707,0.294951,0,0,0,0,0.453627,0.0970226,-0.986285,34.8125,3,9202,7534301
425,-1.34995,0.296246,9.47342,-0.0198421,-1.19957,0.624966,-0.0135247,0.00293081,0.0947316,0.999999,-4.57537e-05,-8.65274e-05,0.00149178,-0.00915075,-0.0173055,0.298357,0,0,0,0,0.452692,0.0902649,-0.989967,34.8125,3,9206,7534701
426,-1.02138,0.22306,9.59525,0.0013348,-1.09036,0.688086,-0.0102772,0.00220163,0.0959465,0.999999,-1.19714e-05,-0.000295261,0.00152569,-0.00239427,-0.0590523,0.305137,0,0,0,0,0.449828,0.0844898,-0.993112,34.8125,3,9209,7535001
427,-0.188335,0.283021,10.3485,0.249508,-0.383033,1.4884,-0.00194042,0.00282217,0.103484,0.999999,1.13257e-05,-0.000235028,0.00149062,0.00226514,-0.0470056,0.298125,0,0,0,0,0.44705,0.0786516,-0.992724,34.8125,3,9212,7535301
428,-0.967196,0.639622,9.38821,-0.607633,-0.787426,0.400438,-0.00971712,0.00639199,0.0938777,0.999999,-0.000128559,-0.000140858,0.00146332,-0.0257118,-0.0281716,0.292664,0,0,0,0,0.44855,0.0737799,-0.99385,34.8125,3,9215,7535601
429,-0.83498,0.416541,9.18867,-0.127622,-1.51105,-0.0280466,-0.00837734,0.00414117,0.0918853,0.999999,2.79372e-06,-8.57582e-05,0.00141814,0.000558745,-0.0171517,0.283629,0,0,0,0,0.448642,0.0674479,-0.994496,34.8125,3,9219,7536001
430,-1.04463,0.508687,9.95247,-0.248997,-0.833859,1.22215,-0.0104685,0.00509389,0.099522,0.999999,-0.000180141,-4.10866e-05,0.00137843,-0.0360282,-0.00821731,0.275686,0,0,0,0,0.450569,0.0621295,-0.998158,34.8125,3,9222,7536301
431,-0.168265,-0.35701,10.0631,1.31578,-0.694114,1.38957,-0.0017164,-0.00360547,0.10063,0.999999,0.000153736,-0.000214161,0.00130268,0.0307472,-0.0428322,0.260535,0,0,0,0,0.449753,0.054803,-0.997307,34.8125,3,9226,7536701
432,0.767727,0.414991,10.4142,0.108404,0.453939,1.32299,0.00758121,0.00415977,0.104149,0.999999,4.8324e-05,-0.000409094,0.00130618,0.0096648,-0.0818188,0.261236,0,0,0,0,0.4474,0.0523751,-0.996845,34.8125,3,9229,7537001
433,-1.36494,0.544243,9.74379,-0.537875,-1.03024,0.97125,-0.0136836,0.0054123,0.0974348,0.999999,-1.70952e-05,-0.000107278,0.00122419,-0.00341905,-0.0214556,0.244838,0,0,0,0,0.448867,0.0480092,-0.998969,34.8125,3,9232,7537301
434,-1.72868,0.396843,8.90363,-0.320663,-1.2134,0.0980053,-0.0173013,0.00394028,0.0890347,0.999999,-8.12168e-05,-2.67848e-05,0.00123178,-0.0162434,-0.00535697,0.246356,0,0,0,0,0.449413,0.0469936,-0.996974,34.8125,3,9235,7537601
435,-1.58333,0.243715,9.56435,-0.338594,-1.43447,0.770013,-0.0158326,0.00242268,0.095644,0.999999,-0.000135692,3.59765e-05,0.00127651,-0.0271385,0.00719531,0.255301,0,0,0,0,0.451393,0.0406727,-0.999144,34.8125,3,9239,7538001
436,-1.14896,-0.216717,9.80097,0.777132,-0.872325,1.19422,-0.0114818,-0.00221416,0.0980096,0.999999,8.83947e-05,1.11117e-05,0.00129109,0.017679,0.00222235,0.258218,0,0,0,0,0.450521,0.0396511,-0.996132,34.8125,3,9242,7538301
437,-0.784909,-0.0333511,9.61364,0.506914,-0.992982,1.01835,-0.00785805,-0.000349255,0.0961357,0.999999,-2.65322e-05,-5.12974e-05,0.00132713,-0.00530644,-0.0102595,0.265426,0,0,0,0,0.450688,0.033265,-0.99375,34.8125,3,9246,7538701
438,-0.865793,0.482161,9.7259,0.129879,-1.12068,0.885428,-0.00865901,0.00480359,0.0972598,0.999999,-2.71108e-05,6.10467e-05,0.00134506,-0.00542215,0.0122093,0.269012,0,0,0,0,0.451715,0.0308001,-0.992799,34.8125,3,9249,7539001
439,-1.54906,-0.176348,10.9612,0.617275,-0.960617,2.10335,-0.0154764,-0.00181546,0.109613,0.999999,3.82344e-05,4.1841e-05,0.00140775,0.00764688,0.00836821,0.281549,0,0,0,0,0.452751,0.0292927,-0.990817,34.8125,3,9252,7539301
440,-1.6763,0.339263,9.97692,0.302556,-1.60645,1.12434,-0.0167585,0.00337092,0.0997707,0.999999,-0.000118154,6.83263e-05,0.00135102,-0.0236309,0.0136653,0.270204,0,0,0,0,0.452405,0.026307,-0.987347,34.8125,3,9255,7539601
441,-1.53201,0.0983036,9.36435,-0.0531997,-1.59081,0.450099,-0.0153566,0.000946724,0.0936379,0.999999,-1.15259e-05,-0.000182142,0.00125409,-0.00230518,-0.0364284,0.250819,0,0,0,0,0.4515,0.0257912,-0.985334,34.8125,3,9259,7540001
442,-1.20406,0.832631,9.64132,-0.395103,-0.734216,0.700052,-0.0120794,0.00831702,0.0964091,0.999999,-0.000117013,-8.69013e-05,0.00132061,-0.0234025,-0.0173803,0.264122,0,0,0,0,0.450716,0.0194041,-0.982442,34.8125,3,9262,7540301
443,-1.20267,-0.119424,9.9045,-0.0227394,-0.98787,0.922014,-0.0120115,-0.00120625,0.0990467,0.999999,-0.000104558,5.9953e-05,0.00136131,-0.0209117,0.0119906,0.272262,0,0,0,0,0.449318,0.0189013,-0.980931,34.8125,3,9266,7540701
444,-1.73569,-0.090898,9.61669,0.255564,-1.56737,0.902107,-0.0173484,-0.000951794,0.096168,0.999999,-3.83492e-05,3.00489e-05,0.00144618,-0.00766984,0.00600978,0.289235,0,0,0,0,0.450785,0.0159807,-0.982013,34.8125,3,9269,7541001
445,-1.97899,0.23803,9.10518,0.130597,-2.3873,0.073209,-0.0198156,0.0023385,0.0910473,0.999999,-0.000115927,-9.98394e-05,0.00158842,-0.0231854,-0.0199679,0.317683,0,0,0,0,0.448971,0.013025,-0.979545,34.8125,3,9272,7541301
446,-0.789231,0.402113,9.8944,0.0786843,-0.745263,1.00628,-0.0079519,0.00402768,0.0989389,0.999998,-0.000174972,-0.000229053,0.00177187,-0.0349944,-0.0458107,0.354373,0,0,0,0,0.450466,0.00911984,-0.980144,34.8125,3,9276,7541701
447,-1.74415,0.111118,9.45311,-0.165055,-1.31284,0.769535,-0.0174364,0.00108069,0.0945324,0.999998,-0.000176725,4.81954e-05,0.00183224,-0.0353451,0.00963909,0.366448,0,0,0,0,0.443913,0.000368934,-0.978793,34.8125,3,9279,7542001
448,-1.88503,0.356702,9.00062,0.111219,-1.58531,0.358851,-0.0188363,0.00351648,0.0900111,0.999998,-0.000105143,0.0001504,0.00184316,-0.0210285,0.03008,0.368633,0,0,0,0,0.447264,-0.00157408,-0.980872,34.8125,3,9282,7542301
449,-1.54551,0.464981,8.91409,-0.00621897,-1.55767,-0.0759206,-0.0154803,0.00460246,0.089139,0.999998,-5.53512e-05,-4.55894e-05,0.00184967,-0.0110702,-0.00911789,0.369934,0,0,0,0,0.444559,-0.010357,-0.979539,34.8125,3,9286,7542701
450,-1.95634,0.635718,9.24302,-0.209616,-1.96403,0.340777,-0.0195903,0.00630795,0.0924279,0.999998,-0.000117824,-2.09404e-05,0.00181359,-0.0235648,-0.00418808,0.362718,0,0,0,0,0.443168,-0.0142381,-0.980124,34.8125,3,9289,7543001
451,-1.06515,-0.394438,9.17565,0.74611,-1.02836,0.337746,-0.0106822,-0.00396386,0.0917521,0.999998,-9.86587e-05,-0.000243279,0.0017619,-0.0197318,-0.0486558,0.35238,0,0,0,0,0.443762,-0.0210709,-0.980279,34.8125,3,9292,7543301
452,-0.236668,0.141454,9.45553,0.487292,-0.601153,0.534553,-0.00240426,0.00142249,0.0945542,0.999998,-8.81165e-05,-0.000171338,0.00182569,-0.0176233,-0.0342677,0.365138,0,0,0,0,0.440052,-0.0264404,-0.978361,34.8125,3,9295,7543601
453,0.235014,0.0189683,10.9943,0.616725,0.715141,2.29803,0.00235058,0.000182055,0.109943,0.999998,7.45328e-05,5.15126e-06,0.00186354,0.0149066,0.00103025,0.372708,0,0,0,0,0.438178,-0.0360987,-0.983112,34.8125,3,9299,7544001
454,-0.663641,0.449966,10.1881,0.101012,-0.81446,1.37121,-0.00663432,0.00448523,0.101882,0.999998,-4.81528e-05,9.07959e-05,0.00182676,-0.00963057,0.0181592,0.365351,0,0,0,0,0.4379,-0.0439531,-0.980255,34.8125,3,9302,7544301
455,-1.2022,0.863001,9.41299,-0.128826,-1.27218,0.516135,-0.0120462,0.00861537,0.0941281,0.999998,-0.00014278,2.93595e-05,0.00172535,-0.028556,0.0058719,0.34507,0,0,0,0,0.438933,-0.0526868,-0.983485,34.8125,3,9306,7544701
456,-1.03904,-0.539232,9.17348,1.17467,-1.11181,0.260522,-0.0103918,-0.00542287,0.0917329,0.999998,-3.07764e-05,-0.000110441,0.00174181,-0.00615528,-0.0220883,0.348362,0,0,0,0,0.437159,-0.0595267,-0.982113,34.8125,3,9309,7545001
457,-0.689371,0.25483,9.75134,0.0227072,-0.442356,0.969536,-0.00693018,0.00252341,0.0975115,0.999998,4.59373e-06,-0.000141847,0.00173539,0.000918747,-0.0283693,0.347078,0,0,0,0,0.43719,-0.0643683,-0.984241,34.8125,3,9312,7545301
458,-0.0260125,0.492156,10.4662,-0.0404956,0.237004,1.76233,-0.000272102,0.00494643,0.104661,0.999998,-0.000123329,2.5947e-05,0.00176414,-0.0246657,0.00518939,0.352828,0,0,0,0,0.434013,-0.0721897,-0.981875,34.8125,3,9316,7545701
459,-0.661743,0.703861,10.0082,0.0205204,-0.547093,1.34842,-0.00662455,0.00702131,0.100083,0.999998,-3.08158e-05,8.88783e-05,0.00177186,-0.00616316,0.0177757,0.354372,0,0,0,0,0.43364,-0.0809385,-0.983583,34.8125,3,9319,7546001
460,-1.0372,-0.0294049,10.2685,0.316803,-0.668851,1.67051,-0.0103457,-0.000314905,0.102688,0.999998,-7.84966e-05,0.00012276,0.00178481,-0.0156993,0.0245519,0.356963,0,0,0,0,0.435189,-0.0858462,-0.982689,34.8125,3,9322,7546301
461,-1.0605,0.421079,9.53141,0.436907,-0.937959,0.854787,-0.010605,0.00418058,0.0953154,0.999998,-4.04745e-05,7.875e-05,0.00178792,-0.0080949,0.01575,0.357584,0,0,0,0,0.432419,-0.0936175,-0.983354,34.8125,3,9326,7546701
462,-1.31931,0.264317,9.70229,-0.0218875,-1.13828,1.03328,-0.0132024,0.0026365,0.0970218,0.999998,-0.000197648,-1.34924e-06,0.00170578,-0.0395297,-0.000269847,0.341155,0,0,0,0,0.435818,-0.0984872,-0.985498,34.8125,3,9329,7547001
463,-0.233207,0.0380991,9.93081,0.588089,-0.381441,0.926808,-0.00236333,0.000414815,0.0993072,0.999998,-0.000212054,-0.000150304,0.00176614,-0.0424109,-0.0300607,0.353228,0,0,0,0,0.431162,-0.103379,-0.982555,34.8125,3,9332,7547301
464,0.111599,0.00391358,10.963,6.9961e-06,0.620988,2.01252,0.0011209,6.8035e-05,0.10963,0.999998,-0.000113806,2.32625e-05,0.00176405,-0.0227613,0.0046525,0.35281,0,0,0,0,0.432727,-0.109262,-0.981683,34.8125,3,9336,7547701
465,-1.05779,0.653854,9.4465,0.242136,-1.362,0.48588,-0.0105854,0.00655354,0.0944631,0.999998,-0.000277803,8.3292e-05,0.00177123,-0.0555607,0.0166584,0.354246,0,0,0,0,0.430802,-0.110692,-0.982716,34.8125,3,9339,7548001
466,-1.04109,0.0430111,9.39611,0.21841,-0.802422,0.622529,-0.0104291,0.0004115,0.0939592,0.999998,-9.54371e-05,-8.89848e-05,0.00175363,-0.0190874,-0.017797,0.350727,0,0,0,0,0.430475,-0.117065,-0.980836,34.8125,3,9342,7548301
467,-0.833072,-0.120287,9.51698,0.710747,-0.704722,0.659334,-0.00834232,-0.00118869,0.095169,0.999998,-0.000234077,-8.38329e-05,0.0018218,-0.0468155,-0.0167666,0.364361,0,0,0,0,0.429157,-0.122445,-0.979434,34.8125,3,9346,7548701
468,-0.0486548,0.800983,9.48795,-0.12402,-0.0997506,0.580102,-0.000529139,0.00801579,0.0948788,0.999998,-4.10732e-05,-7.1974e-05,0.00180542,-0.00821465,-0.0143948,0.361085,0,0,0,0,0.424444,-0.123922,-0.976415,34.8125,3,9349,7549001
469,-1.03417,0.062571,9.76996,0.385959,-0.448587,0.975339,-0.0103196,0.000594177,0.0977021,0.999998,-3.58001e-05,0.000124921,0.00186475,-0.00716003,0.0249843,0.37295,0,0,0,0,0.422102,-0.130695,-0.978575,34.8125,3,9352,7549301
470,-1.76001,-0.0241438,9.04038,0.362398,-1.4919,0.280477,-0.0175776,-0.000269403,0.0904081,0.999998,-0.000200882,0.000119335,0.0018275,-0.0401764,0.0238671,0.3655,0,0,0,0,0.422238,-0.13224,-0.974064,34.8125,3,9356,7549701
471,-0.193331,1.03654,9.68121,-0.35855,-0.53338,0.885361,-0.00196501,0.0103989,0.0968079,0.999998,-0.000209787,3.35462e-05,0.00183972,-0.0419574,0.00670925,0.367944,0,0,0,0,0.421804,-0.136608,-0.97517,34.8125,3,9359,7550001
472,-1.39974,-0.142207,9.59146,0.498786,-0.864419,0.852035,-0.014011,-0.00146919,0.0959119,0.999998,-1.8148e-05,-9.78885e-05,0.00180685,-0.0036296,-0.0195777,0.361371,0,0,0,0,0.419062,-0.135725,-0.968571,34.8125,3,9362,7550301
473,-0.805859,-0.596976,9.41144,1.02566,-0.319679,0.562059,-0.00804526,-0.00595667,0.0941163,0.999998,-0.000231584,-4.91686e-05,0.001894,-0.0463168,-0.00983373,0.378799,0,0,0,0,0.415655,-0.141451,-0.974239,34.8125,3,9365,7550601
474,-0.529339,0.31722,10.2107,0.302862,-0.191162,1.24575,-0.00528111,0.00315156,0.102109,0.999998,-8.83035e-07,0.000121091,0.0019685,-0.000176607,0.0242182,0.3937,0,0,0,0,0.412496,-0.144467,-0.967725,34.8125,3,9369,7551001
475,-0.190362,0.156233,9.85614,0.396206,-0.211808,0.912947,-0.00189693,0.00158869,0.0985612,0.999998,-0.000171031,6.49265e-05,0.00193647,-0.0342063,0.0129853,0.387295,0,0,0,0,0.410644,-0.148841,-0.967814,34.8125,3,9372,7551301
476,-1.35555,0.428671,8.8992,0.686161,-1.07414,0.000742674,-0.0135649,0.00423393,0.0889931,0.999998,-1.45458e-05,4.49185e-05,0.00204139,-0.00290916,0.0089837,0.408279,0,0,0,0,0.407349,-0.153203,-0.967896,34.8125,3,9376,7551701
477,0.547491,0.794426,10.8565,-0.649806,0.468367,2.00533,0.00544763,0.00799672,0.108563,0.999998,-0.000135207,2.95994e-05,0.0021144,-0.0270414,0.00591989,0.422881,0,0,0,0,0.398342,-0.157562,-0.965426,34.8125,3,9379,7552001
478,-0.779765,-0.455244,11.114,4.29966,1.51598,2.86725,-0.00777617,-0.00459706,0.111139,0.999997,4.74664e-05,6.58828e-06,0.00218798,0.00949328,0.00131766,0.437596,0,0,0,0,0.400812,-0.164375,-0.967609,34.8125,3,9382,7552301
479,-1.39953,-0.215305,9.15311,1.46025,-0.463135,0.227015,-0.0139652,-0.00222345,0.091534,0.999997,3.06644e-05,0.000109185,0.00231709,0.00613288,0.021837,0.463419,0,0,0,0,0.392262,-0.167274,-0.965109,34.8125,3,9386,7552701
480,-1.37968,0.475763,10.0767,-0.120563,-0.841553,1.27073,-0.0137957,0.00471071,0.100769,0.999997,-8.05896e-05,0.000112675,0.00228913,-0.0161179,0.0225351,0.457827,0,0,0,0,0.388941,-0.174509,-0.968284,34.8125,3,9389,7553001
481,-1.58988,0.459148,9.45312,0.0423484,-1.23095,0.519291,-0.0159397,0.0045526,0.0945262,0.999997,-0.00017869,-0.000105755,0.00228229,-0.035738,-0.021151,0.456458,0,0,0,0,0.382816,-0.179371,-0.966344,34.8125,3,9392,7553301
482,-0.399046,0.323343,9.46912,0.374236,-0.474108,0.604586,-0.0040385,0.00323642,0.0946891,0.999997,-0.000112545,-0.000175723,0.00228147,-0.0225091,-0.0351447,0.456294,0,0,0,0,0.378574,-0.187591,-0.968527,34.8125,3,9396,7553701
483,0.601189,0.578885,10.263,-0.257667,0.339617,1.15195,0.00595951,0.00583238,0.10263,0.999997,-7.84836e-05,-0.000125503,0.00229071,-0.0156967,-0.0251006,0.458142,0,0,0,0,0.372878,-0.191454,-0.968082,34.8125,3,9399,7554001
484,0.344858,0.679621,10.6641,-0.42559,0.333786,2.02972,0.00347584,0.00686503,0.106635,0.999997,-0.000247981,0.000275247,0.00230121,-0.0495963,0.0550495,0.460243,0,0,0,0,0.369055,-0.199633,-0.972791,34.8125,3,9402,7554301
485,-1.16059,-0.171887,9.49676,0.631455,-0.671772,0.80986,-0.0115689,-0.00172489,0.0949719,0.999997,-0.000252994,0.000152263,0.00233298,-0.0505988,0.0304527,0.466596,0,0,0,0,0.365756,-0.203028,-0.972347,34.8125,3,9405,7554601
486,-1.28036,0.968322,9.40841,-0.0243156,-1.57971,0.688639,-0.0128595,0.00965873,0.094079,0.999997,-0.00020879,-4.13796e-05,0.00248508,-0.0417581,-0.00827593,0.497017,0,0,0,0,0.360572,-0.210292,-0.972989,34.8125,3,9409,7555001
487,-0.822418,0.433373,9.54365,0.243075,-0.684326,0.790534,-0.00826463,0.00432557,0.0954334,0.999997,-0.000170087,-0.000100166,0.00246343,-0.0340174,-0.0200333,0.492687,0,0,0,0,0.359193,-0.215627,-0.974112,34.8125,3,9412,7555301
488,0.293304,0.227167,9.99189,0.0540727,0.288425,1.12125,0.00287468,0.0023008,0.0999199,0.999997,-7.4963e-05,-0.000236269,0.00243635,-0.0149926,-0.0472538,0.487271,0,0,0,0,0.35313,-0.221979,-0.970689,34.8125,3,9416,7555701
489,0.660545,0.547065,10.1553,-0.592334,0.306102,1.18238,0.00655016,0.00553071,0.101554,0.999997,-0.000135642,-0.000138347,0.00247101,-0.0271285,-0.0276695,0.494202,0,0,0,0,0.3474,-0.226782,-0.972285,34.8125,3,9419,7556001
490,-1.12465,0.643186,9.82981,-0.0956793,-0.726656,0.972647,-0.0112744,0.00640141,0.0982969,0.999997,-0.000127367,1.89056e-05,0.00246406,-0.0254734,0.00378113,0.492812,0,0,0,0,0.345606,-0.230234,-0.969323,34.8125,3,9422,7556301
491,-0.796684,0.0799504,9.78425,0.5231,-0.262432,1.00426,-0.00797814,0.000801396,0.0978415,0.999997,-0.00021022,-3.76043e-05,0.00246123,-0.0420441,-0.00752087,0.492247,0,0,0,0,0.341328,-0.234091,-0.969894,34.8125,3,9426,7556701
492,-0.243877,0.579906,9.82807,-0.0601063,-0.420126,0.855702,-0.002489,0.00583891,0.0982771,0.999997,-0.000266134,-0.000105903,0.00252738,-0.0532268,-0.0211807,0.505477,0,0,0,0,0.338046,-0.237017,-0.968429,34.8125,3,9429,7557001
493,0.462713,-0.00653009,10.5178,-0.0478694,0.653049,1.5966,0.00460389,-3.61026e-05,0.105179,0.999997,-2.79162e-05,-0.000111692,0.0025269,-0.00558325,-0.0223384,0.50538,0,0,0,0,0.332379,-0.238974,-0.965416,34.8125,3,9432,7557301
494,-1.04818,0.734472,9.38647,0.0218787,-1.14743,0.502374,-0.0105193,0.00731394,0.0938629,0.999997,-0.000123846,1.14612e-06,0.00257285,-0.0247693,0.000229224,0.51457,0,0,0,0,0.329088,-0.242857,-0.964982,34.8125,3,9436,7557701
495,-0.72462,-0.19422,9.97791,0.098784,-0.113039,1.21843,-0.00723064,-0.00197344,0.0997796,0.999996,-3.51877e-05,2.61403e-05,0.00264324,-0.00703755,0.00522807,0.528648,0,0,0,0,0.323869,-0.244313,-0.96297,34.8125,3,9439,7558001
496,-0.350502,1.06549,9.77341,-0.185017,-0.947157,0.751856,-0.00356738,0.0106847,0.0977286,0.999996,-0.000247849,-3.09056e-05,0.00263903,-0.0495698,-0.00618113,0.527807,0,0,0,0,0.321619,-0.247779,-0.958996,34.8125,3,9442,7558301
497,-0.133324,0.520281,10.1382,-0.125541,-0.324985,1.21385,-0.00136902,0.00522466,0.10138,0.999997,-0.000142255,-4.31996e-05,0.00259189,-0.0284511,-0.00863992,0.518378,0,0,0,0,0.312666,-0.25025,-0.952949,34.8125,3,9446,7558701
498,-0.295015,-0.111691,10.6839,-0.0858176,-0.0860154,1.68718,-0.00296994,-0.0010743,0.106839,0.999996,-0.000272091,-0.000119535,0.00262195,-0.0544183,-0.0239071,0.52439,0,0,0,0,0.309668,-0.250145,-0.957478,34.8125,3,9449,7559001
499,-0.159312,0.680273,9.47533,0.0743807,-0.551569,0.480579,-0.00163247,0.00681787,0.0947516,0.999997,-0.000124043,-2.11531e-05,0.00259488,-0.0248085,-0.00423062,0.518976,0,0,0,0,0.304067,-0.251669,-0.951425,34.8125,3,9452,7559301
500,-0.19322,-0.194648,9.65392,0.635507,-0.101065,0.744107,-0.00193291,-0.00192988,0.0965396,0.999996,-0.000138735,-5.65667e-05,0.00263466,-0.027747,-0.0113134,0.526933,0,0,0,0,0.298815,-0.254064,-0.951454,34.8125,3,9456,7559701
501,-1.17459,0.537076,9.87483,0.230213,-0.696438,0.922048,-0.0117737,0.00531474,0.098748,0.999996,-3.08869e-05,1.94392e-06,0.00264134,-0.0061774,0.000388784,0.528268,0,0,0,0,0.292071,-0.254965,-0.952453,34.8125,3,9459,7560001
502,-1.2513,0.903814,9.68592,-0.102126,-1.33396,1.01426,-0.0125451,0.00904268,0.0968546,0.999996,-0.000361811,7.83299e-05,0.0026156,-0.0723623,0.015666,0.523121,0,0,0,0,0.285919,-0.257397,-0.949954,34.8125,3,9462,7560301
503,-0.240882,-0.105284,9.50807,0.684232,0.0272081,0.723657,-0.00241874,-0.00102411,0.0950808,0.999996,-0.000217955,-8.09262e-05,0.0026338,-0.043591,-0.0161853,0.52676,0,0,0,0,0.278786,-0.263181,-0.950555,34.8125,3,9466,7560701
504,-0.707787,1.25024,9.73968,-0.016641,-0.996666,1.06197,-0.00716005,0.0124805,0.0973936,0.999996,-7.98456e-05,-8.40448e-05,0.00263409,-0.0159691,-0.016809,0.526818,0,0,0,0,0.273012,-0.266024,-0.952611,34.8125,3,9469,7561001
505,-1.02046,-0.13476,10.3036,0.266773,0.109476,1.80161,-0.0101702,-0.00134832,0.10304,0.999996,-0.000262155,0.000131851,0.00268692,-0.0524312,0.0263702,0.537385,0,0,0,0,0.266305,-0.266952,-0.952096,34.8125,3,9472,7561301
506,-1.13314,0.545566,9.96426,-0.282166,-1.24965,1.09206,-0.0113526,0.00542483,0.0996419,0.999996,-0.000159665,4.43478e-05,0.00276168,-0.031933,0.00886957,0.552338,0,0,0,0,0.261051,-0.273683,-0.955252,34.8125,3,9476,7561701
507,-0.291655,1.09486,10.4774,-0.114378,-0.89901,1.36683,-0.00298945,0.0109689,0.10477,0.999996,-0.000173423,-6.45715e-05,0.00270894,-0.0346845,-0.0129143,0.541789,0,0,0,0,0.2573,-0.278059,-0.954322,34.8125,3,9479,7562001
508,0.473455,0.468624,10.3651,-0.847209,0.154353,1.4442,0.00465011,0.00476548,0.103652,0.999997,-0.000264595,-0.00028888,0.00259792,-0.0529191,-0.0577761,0.519584,0,0,0,0,0.251583,-0.281425,-0.95437,34.8125,3,9482,7562301
509,-0.633581,0.546824,9.32457,0.0900588,-0.80459,0.397957,-0.00637306,0.00546491,0.0932434,0.999997,-0.000155381,-5.06972e-05,0.00254204,-0.0310763,-0.0101395,0.50841,0,0,0,0,0.246913,-0.289199,-0.954016,34.8125,3,9486,7562701
510,-1.46678,-0.144957,9.40521,0.920843,-0.547218,0.632328,-0.0146546,-0.00150258,0.0940533,0.999997,-0.000111921,3.08193e-05,0.00252588,-0.0223842,0.00616386,0.505176,0,0,0,0,0.242566,-0.291078,-0.956058,34.8125,3,9489,7563001
511,-1.57949,0.305625,9.56259,0.44734,-1.07914,0.783122,-0.0157991,0.00302568,0.0956262,0.999997,-0.000257063,5.80744e-05,0.00252386,-0.0514127,0.0116149,0.504772,0,0,0,0,0.240645,-0.294919,-0.95866,34.8125,3,9492,7563301
512,-0.903186,1.02254,10.1254,-0.524834,-0.906495,1.37534,-0.0090732,0.0102149,0.101252,0.999997,-0.000169545,4.62394e-05,0.00248031,-0.0339091,0.00924788,0.496062,0,0,0,0,0.234566,-0.29885,-0.954174,34.8125,3,9496,7563701
513,-1.47898,0.0679276,8.97298,0.929451,-0.80249,0.256315,-0.0147828,0.000659727,0.0897311,0.999997,-0.000291573,5.7303e-05,0.00243044,-0.0583147,0.0114606,0.486088,0,0,0,0,0.229327,-0.298363,-0.951613,34.8125,3,9499,7564001
514,0.436495,1.38101,10.1947,-1.25004,-0.849631,1.08106,0.00431068,0.0139158,0.101935,0.999997,-0.000415862,6.14123e-05,0.00240877,-0.0831724,0.0122825,0.481755,0,0,0,0,0.225591,-0.303715,-0.950705,34.8125,3,9502,7564301
515,-0.731892,-0.0580266,9.77121,-0.00629942,-0.0333184,1.30793,-0.00730211,-0.00051903,0.0977137,0.999997,-0.000490011,7.27353e-05,0.00236134,-0.0980023,0.0145471,0.472268,0,0,0,0,0.220855,-0.302284,-0.946611,34.8125,3,9506,7564701
516,-1.68437,-0.0175141,8.89008,1.14132,-1.2235,0.0830214,-0.0168199,-0.000207549,0.0889053,0.999997,-0.000247954,0.000128895,0.00227235,-0.0495908,0.025779,0.45447,0,0,0,0,0.217034,-0.304682,-0.947151,34.8125,3,9509,7565001
517,-1.17053,1.12297,8.84098,-0.0357863,-1.73958,-0.237623,-0.0117492,0.0112173,0.0884055,0.999997,-0.000223654,3.32619e-05,0.00221533,-0.0447309,0.00665238,0.443065,0,0,0,0,0.212798,-0.305196,-0.943608,34.8125,3,9512,7565301
518,-1.20778,0.991903,9.69413,0.367052,-1.25431,0.808348,-0.0121344,0.00991562,0.0969345,0.999998,-0.000247855,-7.46096e-05,0.0021254,-0.049571,-0.0149219,0.42508,0,0,0,0,0.207555,-0.305189,-0.941563,34.8125,3,9516,7565701
519,-0.355552,-0.125714,9.24963,0.518438,-0.0909046,0.462655,-0.00360292,-0.00124304,0.0924947,0.999998,-0.000155765,-0.000284006,0.00205586,-0.0311531,-0.0568012,0.411171,0,0,0,0,0.202897,-0.303333,-0.933925,34.8125,3,9519,7566001
520,-0.414666,0.855228,8.90918,0.1912,-0.877671,-0.0337827,-0.0041945,0.00855852,0.089089,0.999998,-0.000132827,-6.7765e-05,0.00209048,-0.0265654,-0.013553,0.418096,0,0,0,0,0.198147,-0.303338,-0.931378,34.8125,3,9522,7566301
521,-0.999496,0.705143,9.98582,-0.376081,-0.917409,0.952499,-0.0100021,0.00704806,0.0998578,0.999998,-0.000195357,0.000113846,0.00211961,-0.0390714,0.0227691,0.423923,0,0,0,0,0.191543,-0.30386,-0.926308,34.8125,3,9526,7566701
522,-2.229,-0.846592,9.76186,1.55551,-0.220407,1.15464,-0.022246,-0.00853863,0.0976223,0.999998,-0.000106602,4.23548e-05,0.00210003,-0.0213205,0.00847096,0.420006,0,0,0,0,0.186744,-0.303829,-0.92578,34.8125,3,9529,7567001
523,-0.714002,0.369828,10.4553,0.0361019,-0.703537,1.34106,-0.0072206,0.00372375,0.104547,0.999998,-0.000266012,-0.000310819,0.00209958,-0.0532024,-0.0621638,0.419917,0,0,0,0,0.181535,-0.302881,-0.921695,34.8125,3,9532,7567301
524,0.669749,0.893552,10.0553,-1.05867,-0.475094,1.15316,0.00667707,0.00901509,0.100547,0.999997,-0.000251413,9.20332e-05,0.00216852,-0.0502826,0.0184067,0.433704,0,0,0,0,0.172076,-0.30533,-0.916655,34.8125,3,9536,7567701
522,-1.31047,-0.127887,8.98068,0.972385,0.00793655,0.235359,-0.0130603,-0.00133862,0.0898124,0.999997,1.91813e-05,0.00021591,0.00215197,0.00383627,0.0431821,0.430395,0,0,0,0,0.165324,-0.305744,-0.917643,34.8125,3,9539,7568001
526,-1.58054,0.111952,10.8207,0.194094,-0.807822,2.09976,-0.0157651,0.00109778,0.108213,0.999997,-0.000214226,0.0002085,0.00215742,-0.0428453,0.0417001,0.431485,0,0,0,0,0.160558,-0.306219,-0.916116,34.8125,3,9542,7568301
527,-0.378044,0.357036,9.40543,0.195967,-0.560882,0.514295,-0.00381143,0.0035727,0.094053,0.999998,-9.91072e-05,-8.32197e-05,0.00214679,-0.0198215,-0.016644,0.429357,0,0,0,0,0.154413,-0.310584,-0.91467,34.8125,3,9546,7568701
528,-0.664361,0.899417,9.49404,0.169301,-1.05782,0.492457,-0.00669046,0.00896712,0.0949397,0.999998,-7.67791e-06,-4.44974e-05,0.002138,-0.00153558,-0.00889948,0.4276,0,0,0,0,0.14965,-0.312025,-0.91367,34.8125,3,9549,7569001
529,-0.346807,1.28569,10.512,-0.691629,-1.09594,1.78047,-0.00349274,0.0128751,0.105117,0.999998,-0.000156674,0.000141987,0.00211888,-0.0313349,0.0283975,0.423777,0,0,0,0,0.142058,-0.316857,-0.912732,34.8125,3,9552,7569301
530,-0.0148167,0.0395843,9.76151,0.425681,0.061021,0.656175,-0.000188788,0.000405828,0.097615,0.999998,-5.47376e-05,-0.000199519,0.00208233,-0.0109475,-0.0399038,0.416467,0,0,0,0,0.1369,-0.319803,-0.909238,34.8125,3,9556,7569701
531,0.246319,0.884786,9.86491,-0.358394,-0.543671,0.884827,0.00240264,0.00885342,0.0986501,0.999998,2.48849e-05,-0.00011383,0.00215193,0.00497698,-0.022766,0.430386,0,0,0,0,0.13549,-0.320296,-0.908232,34.8125,3,9559,7570001
532,0.317375,0.238082,10.1756,-0.737477,0.0529677,1.50826,0.00319002,0.00242442,0.101754,0.999997,-0.000146422,0.000131176,0.00216924,-0.0292843,0.0262352,0.433848,0,0,0,0,0.133162,-0.322742,-0.906761,34.8125,3,9562,7570301
533,0.0747487,0.134599,10.5844,-0.235621,-0.0724085,1.80263,0.00070392,0.00132896,0.105844,0.999998,9.47172e-05,-0.000179544,0.00207837,0.0189435,-0.0359088,0.415675,0,0,0,0,0.12847,-0.321826,-0.901163,34.8125,3,9566,7570701
534,0.0169155,1.11345,9.84868,-0.139746,-0.636022,0.838598,0.000106456,0.011157,0.0984843,0.999998,-0.000111653,-7.91829e-05,0.00211299,-0.0223306,-0.0158366,0.422597,0,0,0,0,0.124703,-0.323781,-0.899169,34.8125,3,9569,7571001
535,-1.03755,0.177425,9.1869,0.254839,-0.373968,0.432607,-0.0103828,0.00177823,0.0918681,0.999998,-0.000252157,-3.4998e-07,0.0020402,-0.0504315,-6.99961e-05,0.408039,0,0,0,0,0.122363,-0.321882,-0.895076,34.8125,3,9572,7571301
536,-0.0626951,0.361038,9.88154,-0.022317,-0.0216583,1.14461,-0.000631526,0.00363338,0.0988145,0.999998,-0.000128384,4.59115e-05,0.00188412,-0.0256768,0.00918232,0.376825,0,0,0,0,0.119045,-0.32189,-0.89304,34.8125,3,9576,7571701
537,-1.14078,1.13016,9.92164,-0.24204,-1.55215,1.0308,-0.011439,0.0113179,0.0992109,0.999998,-0.000290468,4.8604e-05,0.00180825,-0.0580936,0.00972081,0.361649,0,0,0,0,0.117257,-0.319083,-0.885394,34.8125,3,9579,7572001
538,-0.240735,0.15912,9.52017,0.525101,-0.0746983,0.532953,-0.00245639,0.00158924,0.0952005,0.999998,-3.29385e-05,-0.000229285,0.00169238,-0.00658769,-0.045857,0.338476,0,0,0,0,0.113866,-0.316146,-0.884302,34.8125,3,9582,7572301
539,-0.947997,0.794273,9.36865,0.564154,-0.971691,0.4657,-0.00952331,0.00794402,0.093682,0.999999,-0.000171874,-9.33138e-05,0.00162704,-0.0343749,-0.0186628,0.325408,0,0,0,0,0.110185,-0.315274,-0.87669,34.8125,3,9586,7572701
540,-0.565988,-0.919588,10.1802,0.355967,0.718553,1.26115,-0.00562604,-0.00916559,0.101806,0.999999,-0.000235877,2.45551e-05,0.00157091,-0.0471754,0.00491102,0.314182,0,0,0,0,0.106876,-0.311434,-0.871539,34.8125,3,9589,7573001
541,-0.117325,0.973085,10.0681,-0.436125,-0.863675,1.19109,-0.00117348,0.00975155,0.100679,0.999999,-0.00012084,0.000148726,0.00154897,-0.024168,0.0297451,0.309793,0,0,0,0,0.10691,-0.309049,-0.868456,34.8125,3,9592,7573301
542,-1.14094,0.987072,9.98404,0.356171,-1.45876,1.08975,-0.0114374,0.00985805,0.0998385,0.999999,-0.000106313,6.34507e-06,0.00148381,-0.0212626,0.00126901,0.296762,0,0,0,0,0.104555,-0.306175,-0.86434,34.8125,3,9596,7573701
543,-1.85774,0.253318,8.74565,1.48146,-0.763241,-0.184667,-0.0185834,0.00246623,0.0874572,0.999999,6.96928e-05,7.89323e-06,0.00147348,0.0139386,0.00157865,0.294696,0,0,0,0,0.101694,-0.303278,-0.861233,34.8125,3,9599,7574001
544,-0.462077,0.23614,9.86026,0.0826201,-0.400171,1.10916,-0.00461037,0.00237282,0.0986028,0.999999,-0.000124451,8.68862e-05,0.00142135,-0.0248903,0.0173772,0.284271,0,0,0,0,0.100386,-0.30192,-0.854631,34.8125,3,9602,7574301
545,-0.843256,-0.583192,10.0906,0.619944,0.0146111,1.31542,-0.00840637,-0.00581103,0.10091,0.999999,-0.000220186,4.90672e-05,0.00139845,-0.0440371,0.00981345,0.279689,0,0,0,0,0.0965503,-0.300452,-0.853065,34.8125,3,9606,7574701
546,-0.986749,-0.164745,9.95173,0.781731,-0.106401,0.886549,-0.00987924,-0.00168095,0.0995156,0.999999,2.74095e-05,-8.27653e-05,0.00141998,0.00548191,-0.0165531,0.283995,0,0,0,0,0.0932527,-0.299511,-0.849494,34.8125,3,9609,7575001
547,-1.14598,0.465244,10.1539,0.566155,-0.897216,1.34238,-0.0114655,0.00464403,0.101539,0.999999,-0.000115824,3.56928e-05,0.00139299,-0.0231647,0.00713856,0.278598,0,0,0,0,0.0932485,-0.29999,-0.850009,34.8125,3,9612,7575301
548,-1.0131,0.200634,9.90364,0.172407,-0.634403,1.16392,-0.0101022,0.00199182,0.0990396,0.999999,-6.76663e-05,0.000172855,0.00138012,-0.0135333,0.034571,0.276023,0,0,0,0,0.0890456,-0.301011,-0.845467,34.8125,3,9616,7575701
549,-0.800184,0.672352,10.061,0.258485,-0.531818,1.2907,-0.00800702,0.00667779,0.100613,0.999999,0.000124835,5.99763e-05,0.00128742,0.024967,0.0119953,0.257485,0,0,0,0,0.0866443,-0.300512,-0.84494,34.8125,3,9619,7576001
550,-0.661104,0.239017,10.8515,0.435741,-0.356928,1.76501,-0.00662929,0.00239736,0.108514,0.999999,-0.000107286,-5.72295e-05,0.00121585,-0.0214571,-0.0114459,0.24317,0,0,0,0,0.0876796,-0.303465,-0.844,34.8125,3,9622,7576301
551,-0.608144,0.213532,9.58536,0.267057,-0.378244,0.693121,-0.00611627,0.00212366,0.0958517,0.999999,-5.7344e-06,-0.000158436,0.00104575,-0.00114688,-0.0316872,0.209149,0,0,0,0,0.0862409,-0.301529,-0.842435,34.8125,3,9626,7576701
