frame_id,imu_idx,quat_w,quat_x,quat_y,quat_z,accel_x,accel_y,accel_z,free_accel_x,free_accel_y,free_accel_z,delta_v_x,delta_v_y,delta_v_z,delta_q_w,delta_q_x,delta_q_y,delta_q_z,rate_x,rate_y,rate_z,quat_w,quat_x,quat_y,quat_z,mag_x,mag_y,mag_z,temperature,status_byte,packet_counter,time_fine
1,1,0.998887,0.0319226,0.0318281,0.0138741,-0.736118,-0.0644227,9.76959,-0.037225,-1.18907,0.896187,-0.0073643,-0.000655202,0.0976956,1,5.5466e-05,-1.6045e-05,9.33878e-06,0.0110932,-0.003209,0.00186776,0.998887,0.0319226,0.0318281,0.0138741,0.0823707,0.353209,-0.977867,32.8125,3,16292,1676398
1,2,0.998887,0.0319226,0.0318281,0.0138741,-0.58508,-0.0193349,7.31821,-0.037225,-1.18907,0.896187,-0.00585557,-0.000198316,0.0731817,1,3.37809e-05,-3.25702e-05,1.97464e-06,0.00675618,-0.00651405,0.000394928,0.998887,0.0319226,0.0318281,0.0138741,0.521967,0.0814532,-0.717245,33.25,1,25919,2640612
1,3,0.998887,0.0319226,0.0318281,0.0138741,-0.58508,-0.0193349,7.31821,-0.037225,-1.18907,0.896187,-0.00585557,-0.000198316,0.0731817,1,3.37809e-05,-3.25702e-05,1.97464e-06,0.00675618,-0.00651405,0.000394928,0.998887,0.0319226,0.0318281,0.0138741,0.521967,0.0814532,-0.717245,33.25,1,25919,2640612
1,4,0.998887,0.0319226,0.0318281,0.0138741,-0.58508,-0.0193349,7.31821,-0.037225,-1.18907,0.896187,-0.00585557,-0.000198316,0.0731817,1,3.37809e-05,-3.25702e-05,1.97464e-06,0.00675618,-0.00651405,0.000394928,0.998887,0.0319226,0.0318281,0.0138741,0.521967,0.0814532,-0.717245,33.25,1,25919,2640612
1,5,0.999204,-0.00129499,0.0398713,-3.89545e-05,-0.680179,0.0342785,9.76447,-0.301498,-0.017984,0.766326,-0.00680963,0.000332019,0.0976442,1,5.39386e-05,-4.01008e-05,1.70635e-05,0.0107877,-0.00802016,0.0034127,0.999204,-0.00129499,0.0398713,-3.89545e-05,0.521446,0.0824508,-0.71823,33.25,1,25920,2640712
1,6,0.999204,-0.00129499,0.0398713,-3.89545e-05,-0.680179,0.0342785,9.76447,-0.301498,-0.017984,0.766326,-0.00680963,0.000332019,0.0976442,1,5.39386e-05,-4.01008e-05,1.70635e-05,0.0107877,-0.00802016,0.0034127,0.999204,-0.00129499,0.0398713,-3.89545e-05,0.521446,0.0824508,-0.71823,33.25,1,25920,2640712
1,7,0.999204,-0.00129499,0.0398713,-3.89545e-05,-0.680179,0.0342785,9.76447,-0.301498,-0.017984,0.766326,-0.00680963,0.000332019,0.0976442,1,5.39386e-05,-4.01008e-05,1.70635e-05,0.0107877,-0.00802016,0.0034127,0.999204,-0.00129499,0.0398713,-3.89545e-05,0.521446,0.0824508,-0.71823,33.25,1,25920,2640712
1,8,0.999205,-0.00124956,0.0398472,-3.56606e-05,-0.592491,0.041041,9.8528,-0.192316,-0.015235,0.853742,-0.00592877,0.00040062,0.0985278,1,4.86578e-05,-1.95542e-05,1.70172e-05,0.00973156,-0.00391084,0.00340345,0.999205,-0.00124956,0.0398472,-3.56606e-05,0.520528,0.081944,-0.716722,33.25,1,25921,2640812
1,9,0.999205,-0.00124956,0.0398472,-3.56606e-05,-0.592491,0.041041,9.8528,-0.192316,-0.015235,0.853742,-0.00592877,0.00040062,0.0985278,1,4.86578e-05,-1.95542e-05,1.70172e-05,0.00973156,-0.00391084,0.00340345,0.999205,-0.00124956,0.0398472,-3.56606e-05,0.520528,0.081944,-0.716722,33.25,1,25921,2640812
1,10,0.999205,-0.00124956,0.0398472,-3.56606e-05,-0.592491,0.041041,9.8528,-0.192316,-0.015235,0.853742,-0.00592877,0.00040062,0.0985278,1,4.86578e-05,-1.95542e-05,1.70172e-05,0.00973156,-0.00391084,0.00340345,0.999205,-0.00124956,0.0398472,-3.56606e-05,0.520528,0.081944,-0.716722,33.25,1,25921,2640812
2,1,0.999205,-0.00121037,0.0398377,-3.01296e-05,-0.753171,-0.0670236,9.76169,-0.365228,-0.116226,0.780418,-0.00753345,-0.000677935,0.0976167,1,3.88976e-05,-8.94829e-06,7.01468e-06,0.00777952,-0.00178966,0.00140294,0.999205,-0.00121037,0.0398377,-3.01296e-05,0.518603,0.0805147,-0.717755,33.25,1,25922,2640912
2,2,0.999205,-0.00121037,0.0398377,-3.01296e-05,-0.753171,-0.0670236,9.76169,-0.365228,-0.116226,0.780418,-0.00753345,-0.000677935,0.0976167,1,3.88976e-05,-8.94829e-06,7.01468e-06,0.00777952,-0.00178966,0.00140294,0.999205,-0.00121037,0.0398377,-3.01296e-05,0.518603,0.0805147,-0.717755,33.25,1,25922,2640912
2,3,0.999205,-0.00121037,0.0398377,-3.01296e-05,-0.753171,-0.0670236,9.76169,-0.365228,-0.116226,0.780418,-0.00753345,-0.000677935,0.0976167,1,3.88976e-05,-8.94829e-06,7.01468e-06,0.00777952,-0.00178966,0.00140294,0.999205,-0.00121037,0.0398377,-3.01296e-05,0.518603,0.0805147,-0.717755,33.25,1,25922,2640912
2,4,0.999206,-0.00116434,0.0398165,-2.88744e-05,-0.737184,-0.107059,9.74904,-0.371277,-0.140773,0.746363,-0.00737586,-0.00107958,0.09749,1,4.58639e-05,-2.06828e-05,3.06794e-06,0.00917278,-0.00413656,0.000613589,0.999206,-0.00116434,0.0398165,-2.88744e-05,0.51954,0.0790794,-0.719811,33.25,1,25923,2641012
2,5,0.999206,-0.00116434,0.0398165,-2.88744e-05,-0.737184,-0.107059,9.74904,-0.371277,-0.140773,0.746363,-0.00737586,-0.00107958,0.09749,1,4.58639e-05,-2.06828e-05,3.06794e-06,0.00917278,-0.00413656,0.000613589,0.999206,-0.00116434,0.0398165,-2.88744e-05,0.51954,0.0790794,-0.719811,33.25,1,25923,2641012
2,6,0.999206,-0.00116434,0.0398165,-2.88744e-05,-0.737184,-0.107059,9.74904,-0.371277,-0.140773,0.746363,-0.00737586,-0.00107958,0.09749,1,4.58639e-05,-2.06828e-05,3.06794e-06,0.00917278,-0.00413656,0.000613589,0.999206,-0.00116434,0.0398165,-2.88744e-05,0.51954,0.0790794,-0.719811,33.25,1,25923,2641012
2,7,0.999207,-0.00111482,0.0398032,-2.33293e-05,-0.609626,-0.0990701,9.82491,-0.22517,-0.153333,0.818686,-0.00609882,-0.00100049,0.0982488,1,4.93209e-05,-1.31225e-05,8.0374e-06,0.00986418,-0.0026245,0.00160748,0.999207,-0.00111482,0.0398032,-2.33293e-05,0.520968,0.080043,-0.719797,33.25,1,25924,2641112
2,8,0.999207,-0.00111482,0.0398032,-2.33293e-05,-0.609626,-0.0990701,9.82491,-0.22517,-0.153333,0.818686,-0.00609882,-0.00100049,0.0982488,1,4.93209e-05,-1.31225e-05,8.0374e-06,0.00986418,-0.0026245,0.00160748,0.999207,-0.00111482,0.0398032,-2.33293e-05,0.520968,0.080043,-0.719797,33.25,1,25924,2641112
3,1,0.999207,-0.00111482,0.0398032,-2.33293e-05,-0.609626,-0.0990701,9.82491,-0.22517,-0.153333,0.818686,-0.00609882,-0.00100049,0.0982488,1,4.93209e-05,-1.31225e-05,8.0374e-06,0.00986418,-0.0026245,0.00160748,0.999207,-0.00111482,0.0398032,-2.33293e-05,0.520968,0.080043,-0.719797,33.25,1,25924,2641112
3,2,0.999207,-0.00105854,0.0397999,-1.8497e-05,-0.669714,-0.0588502,9.79139,-0.282149,-0.126529,0.804181,-0.00669772,-0.000599585,0.0979138,1,5.61067e-05,-3.03044e-06,7.19884e-06,0.0112213,-0.000606089,0.00143977,0.999207,-0.00105854,0.0397999,-1.8497e-05,0.520956,0.0814973,-0.719259,33.25,1,25925,2641212
3,3,0.999207,-0.00105854,0.0397999,-1.8497e-05,-0.669714,-0.0588502,9.79139,-0.282149,-0.126529,0.804181,-0.00669772,-0.000599585,0.0979138,1,5.61067e-05,-3.03044e-06,7.19884e-06,0.0112213,-0.000606089,0.00143977,0.999207,-0.00105854,0.0397999,-1.8497e-05,0.520956,0.0814973,-0.719259,33.25,1,25925,2641212
3,4,0.999207,-0.00105854,0.0397999,-1.8497e-05,-0.669714,-0.0588502,9.79139,-0.282149,-0.126529,0.804181,-0.00669772,-0.000599585,0.0979138,1,5.61067e-05,-3.03044e-06,7.19884e-06,0.0112213,-0.000606089,0.00143977,0.999207,-0.00105854,0.0397999,-1.8497e-05,0.520956,0.0814973,-0.719259,33.25,1,25925,2641212
3,5,0.999208,-0.000997477,0.0397884,-1.65659e-07,-0.700436,0.0472432,9.75621,-0.328159,-0.023896,0.759438,-0.00700639,0.000460357,0.097562,1,6.03887e-05,-1.03379e-05,2.08637e-05,0.0120777,-0.00206758,0.00417275,0.999208,-0.000997477,0.0397884,-1.65659e-07,0.519089,0.0809894,-0.717242,33.25,1,25926,2641312
3,6,0.999208,-0.000997477,0.0397884,-1.65659e-07,-0.700436,0.0472432,9.75621,-0.328159,-0.023896,0.759438,-0.00700639,0.000460357,0.097562,1,6.03887e-05,-1.03379e-05,2.08637e-05,0.0120777,-0.00206758,0.00417275,0.999208,-0.000997477,0.0397884,-1.65659e-07,0.519089,0.0809894,-0.717242,33.25,1,25926,2641312
3,7,0.999208,-0.000997477,0.0397884,-1.65659e-07,-0.700436,0.0472432,9.75621,-0.328159,-0.023896,0.759438,-0.00700639,0.000460357,0.097562,1,6.03887e-05,-1.03379e-05,2.08637e-05,0.0120777,-0.00206758,0.00417275,0.999208,-0.000997477,0.0397884,-1.65659e-07,0.519089,0.0809894,-0.717242,33.25,1,25926,2641312
3,8,0.999208,-0.000940967,0.0397796,2.0599e-05,-0.678033,0.0565389,9.8094,-0.292154,-0.00635196,0.802909,-0.006782,0.000554159,0.0980939,1,5.56577e-05,-8.35552e-06,2.29163e-05,0.0111315,-0.0016711,0.00458325,0.999208,-0.000940967,0.0397796,2.0599e-05,0.518159,0.0790463,-0.717281,33.25,1,25927,2641412
4,1,0.999208,-0.000940967,0.0397796,2.0599e-05,-0.678033,0.0565389,9.8094,-0.292154,-0.00635196,0.802909,-0.006782,0.000554159,0.0980939,1,5.56577e-05,-8.35552e-06,2.29163e-05,0.0111315,-0.0016711,0.00458325,0.999208,-0.000940967,0.0397796,2.0599e-05,0.518159,0.0790463,-0.717281,33.25,1,25927,2641412
4,2,0.999208,-0.000940967,0.0397796,2.0599e-05,-0.678033,0.0565389,9.8094,-0.292154,-0.00635196,0.802909,-0.006782,0.000554159,0.0980939,1,5.56577e-05,-8.35552e-06,2.29163e-05,0.0111315,-0.0016711,0.00458325,0.999208,-0.000940967,0.0397796,2.0599e-05,0.518159,0.0790463,-0.717281,33.25,1,25927,2641412
4,3,0.999208,-0.000877166,0.0397726,1.5658e-05,-0.757398,-0.0475421,9.81786,-0.366245,-0.11276,0.835696,-0.00757513,-0.000487913,0.0981784,1,6.38105e-05,-5.81679e-06,-2.45867e-06,0.0127621,-0.00116336,-0.000491734,0.999208,-0.000877166,0.0397726,1.5658e-05,0.518599,0.0785906,-0.719313,33.25,1,25928,2641512
4,4,0.999208,-0.000877166,0.0397726,1.5658e-05,-0.757398,-0.0475421,9.81786,-0.366245,-0.11276,0.835696,-0.00757513,-0.000487913,0.0981784,1,6.38105e-05,-5.81679e-06,-2.45867e-06,0.0127621,-0.00116336,-0.000491734,0.999208,-0.000877166,0.0397726,1.5658e-05,0.518599,0.0785906,-0.719313,33.25,1,25928,2641512
4,5,0.999208,-0.000877166,0.0397726,1.5658e-05,-0.757398,-0.0475421,9.81786,-0.366245,-0.11276,0.835696,-0.00757513,-0.000487913,0.0981784,1,6.38105e-05,-5.81679e-06,-2.45867e-06,0.0127621,-0.00116336,-0.000491734,0.999208,-0.000877166,0.0397726,1.5658e-05,0.518599,0.0785906,-0.719313,33.25,1,25928,2641512
4,6,0.999208,-0.000820267,0.0397716,2.2735e-05,-0.797519,-0.0624527,9.75558,-0.417952,-0.111048,0.768795,-0.00797524,-0.000635727,0.0975557,1,5.66356e-05,-3.41157e-07,9.40804e-06,0.0113271,-6.82315e-05,0.00188161,0.999208,-0.000820267,0.0397716,2.2735e-05,0.520079,0.0785516,-0.717805,33.25,1,25929,2641612
4,7,0.999208,-0.000820267,0.0397716,2.2735e-05,-0.797519,-0.0624527,9.75558,-0.417952,-0.111048,0.768795,-0.00797524,-0.000635727,0.0975557,1,5.66356e-05,-3.41157e-07,9.40804e-06,0.0113271,-6.82315e-05,0.00188161,0.999208,-0.000820267,0.0397716,2.2735e-05,0.520079,0.0785516,-0.717805,33.25,1,25929,2641612
4,8,0.999208,-0.000820267,0.0397716,2.2735e-05,-0.797519,-0.0624527,9.75558,-0.417952,-0.111048,0.768795,-0.00797524,-0.000635727,0.0975557,1,5.66356e-05,-3.41157e-07,9.40804e-06,0.0113271,-6.82315e-05,0.00188161,0.999208,-0.000820267,0.0397716,2.2735e-05,0.520079,0.0785516,-0.717805,33.25,1,25929,2641612
21,1,0.999209,-0.000756052,0.0397606,3.469e-05,-0.742155,-0.0744827,9.77987,-0.367261,-0.122502,0.782905,-0.0074235,-0.000757523,0.0977985,1,6.38029e-05,-1.01127e-05,1.46053e-05,0.0127606,-0.00202253,0.00292105,0.999209,-0.000756052,0.0397606,3.469e-05,0.520005,0.080051,-0.719792,33.25,1,25930,2641712
21,2,0.999209,-0.000756052,0.0397606,3.469e-05,-0.742155,-0.0744827,9.77987,-0.367261,-0.122502,0.782905,-0.0074235,-0.000757523,0.0977985,1,6.38029e-05,-1.01127e-05,1.46053e-05,0.0127606,-0.00202253,0.00292105,0.999209,-0.000756052,0.0397606,3.469e-05,0.520005,0.080051,-0.719792,33.25,1,25930,2641712
21,3,0.999209,-0.000756052,0.0397606,3.469e-05,-0.742155,-0.0744827,9.77987,-0.367261,-0.122502,0.782905,-0.0074235,-0.000757523,0.0977985,1,6.38029e-05,-1.01127e-05,1.46053e-05,0.0127606,-0.00202253,0.00292105,0.999209,-0.000756052,0.0397606,3.469e-05,0.520005,0.080051,-0.719792,33.25,1,25930,2641712
21,4,0.99921,-0.0007042,0.0397469,3.68634e-05,-0.739598,-0.0582033,9.80205,-0.365567,-0.123361,0.809839,-0.00739846,-0.000592274,0.0980203,1,5.19157e-05,-1.26622e-05,4.29508e-06,0.0103831,-0.00253244,0.000859017,0.99921,-0.0007042,0.0397469,3.68634e-05,0.519545,0.0795582,-0.719296,33.25,1,25931,2641812
21,5,0.99921,-0.0007042,0.0397469,3.68634e-05,-0.739598,-0.0582033,9.80205,-0.365567,-0.123361,0.809839,-0.00739846,-0.000592274,0.0980203,1,5.19157e-05,-1.26622e-05,4.29508e-06,0.0103831,-0.00253244,0.000859017,0.99921,-0.0007042,0.0397469,3.68634e-05,0.519545,0.0795582,-0.719296,33.25,1,25931,2641812
21,6,0.99921,-0.0007042,0.0397469,3.68634e-05,-0.739598,-0.0582033,9.80205,-0.365567,-0.123361,0.809839,-0.00739846,-0.000592274,0.0980203,1,5.19157e-05,-1.26622e-05,4.29508e-06,0.0103831,-0.00253244,0.000859017,0.99921,-0.0007042,0.0397469,3.68634e-05,0.519545,0.0795582,-0.719296,33.25,1,25931,2641812
21,7,0.99921,-0.000653355,0.0397406,5.27677e-05,-0.688506,-0.0162837,9.7851,-0.310703,-0.0938381,0.792145,-0.00688612,-0.000172952,0.0978509,1,5.04162e-05,-5.45938e-06,1.79895e-05,0.0100832,-0.00109188,0.00359789,0.99921,-0.000653355,0.0397406,5.27677e-05,0.519595,0.0809674,-0.716234,33.25,1,25932,2641912
21,8,0.99921,-0.000653355,0.0397406,5.27677e-05,-0.688506,-0.0162837,9.7851,-0.310703,-0.0938381,0.792145,-0.00688612,-0.000172952,0.0978509,1,5.04162e-05,-5.45938e-06,1.79895e-05,0.0100832,-0.00109188,0.00359789,0.99921,-0.000653355,0.0397406,5.27677e-05,0.519595,0.0809674,-0.716234,33.25,1,25932,2641912
21,9,0.99921,-0.000653355,0.0397406,5.27677e-05,-0.688506,-0.0162837,9.7851,-0.310703,-0.0938381,0.792145,-0.00688612,-0.000172952,0.0978509,1,5.04162e-05,-5.45938e-06,1.79895e-05,0.0100832,-0.00109188,0.00359789,0.99921,-0.000653355,0.0397406,5.27677e-05,0.519595,0.0809674,-0.716234,33.25,1,25932,2641912
21,10,0.99921,-0.000598108,0.03973,8.29362e-05,-0.683691,0.0514076,9.76462,-0.305971,-0.0177285,0.762681,-0.00683871,0.000503039,0.0976461,1,5.42198e-05,-9.05804e-06,3.28197e-05,0.010844,-0.00181161,0.00656394,0.99921,-0.000598108,0.03973,8.29362e-05,0.520573,0.0814291,-0.715218,33.25,1,25933,2642012
9,1,0.99921,-0.000598108,0.03973,8.29362e-05,-0.683691,0.0514076,9.76462,-0.305971,-0.0177285,0.762681,-0.00683871,0.000503039,0.0976461,1,5.42198e-05,-9.05804e-06,3.28197e-05,0.010844,-0.00181161,0.00656394,0.99921,-0.000598108,0.03973,8.29362e-05,0.520573,0.0814291,-0.715218,33.25,1,25933,2642012
9,2,0.99921,-0.000598108,0.03973,8.29362e-05,-0.683691,0.0514076,9.76462,-0.305971,-0.0177285,0.762681,-0.00683871,0.000503039,0.0976461,1,5.42198e-05,-9.05804e-06,3.28197e-05,0.010844,-0.00181161,0.00656394,0.99921,-0.000598108,0.03973,8.29362e-05,0.520573,0.0814291,-0.715218,33.25,1,25933,2642012
9,3,0.999211,-0.000544843,0.0397235,0.000104614,-0.698263,-0.0134725,9.80723,-0.321407,-0.080273,0.808237,-0.00698358,-0.000145361,0.0980722,1,5.25191e-05,-4.90976e-06,2.39519e-05,0.0105038,-0.000981953,0.00479037,0.999211,-0.000544843,0.0397235,0.000104614,0.520108,0.0804576,-0.715238,33.25,1,25934,2642112
9,4,0.999211,-0.000544843,0.0397235,0.000104614,-0.698263,-0.0134725,9.80723,-0.321407,-0.080273,0.808237,-0.00698358,-0.000145361,0.0980722,1,5.25191e-05,-4.90976e-06,2.39519e-05,0.0105038,-0.000981953,0.00479037,0.999211,-0.000544843,0.0397235,0.000104614,0.520108,0.0804576,-0.715238,33.25,1,25934,2642112
9,5,0.999211,-0.000544843,0.0397235,0.000104614,-0.698263,-0.0134725,9.80723,-0.321407,-0.080273,0.808237,-0.00698358,-0.000145361,0.0980722,1,5.25191e-05,-4.90976e-06,2.39519e-05,0.0105038,-0.000981953,0.00479037,0.999211,-0.000544843,0.0397235,0.000104614,0.520108,0.0804576,-0.715238,33.25,1,25934,2642112
9,6,0.999211,-0.000489688,0.039713,0.000104977,-0.72074,-0.0515244,9.79383,-0.334968,-0.116188,0.798924,-0.00720932,-0.000526096,0.0979382,1,5.52331e-05,-9.78998e-06,2.35047e-06,0.0110466,-0.001958,0.000470094,0.999211,-0.000489688,0.039713,0.000104977,0.521996,0.0804686,-0.716762,33.25,1,25935,2642212
9,7,0.999211,-0.000489688,0.039713,0.000104977,-0.72074,-0.0515244,9.79383,-0.334968,-0.116188,0.798924,-0.00720932,-0.000526096,0.0979382,1,5.52331e-05,-9.78998e-06,2.35047e-06,0.0110466,-0.001958,0.000470094,0.999211,-0.000489688,0.039713,0.000104977,0.521996,0.0804686,-0.716762,33.25,1,25935,2642212
9,8,0.999211,-0.000489688,0.039713,0.000104977,-0.72074,-0.0515244,9.79383,-0.334968,-0.116188,0.798924,-0.00720932,-0.000526096,0.0979382,1,5.52331e-05,-9.78998e-06,2.35047e-06,0.0110466,-0.001958,0.000470094,0.999211,-0.000489688,0.039713,0.000104977,0.521996,0.0804686,-0.716762,33.25,1,25935,2642212
23,1,0.999211,-0.000440709,0.0397026,0.000105112,-0.740576,-0.0605007,9.77625,-0.356888,-0.119539,0.780711,-0.00740749,-0.000614639,0.0977623,1,4.91198e-05,-8.86247e-06,1.90191e-06,0.00982396,-0.00177249,0.000380383,0.999211,-0.000440709,0.0397026,0.000105112,0.521429,0.081981,-0.719251,33.25,1,25936,2642312
23,2,0.999211,-0.000440709,0.0397026,0.000105112,-0.740576,-0.0605007,9.77625,-0.356888,-0.119539,0.780711,-0.00740749,-0.000614639,0.0977623,1,4.91198e-05,-8.86247e-06,1.90191e-06,0.00982396,-0.00177249,0.000380383,0.999211,-0.000440709,0.0397026,0.000105112,0.521429,0.081981,-0.719251,33.25,1,25936,2642312
23,3,0.999211,-0.000440709,0.0397026,0.000105112,-0.740576,-0.0605007,9.77625,-0.356888,-0.119539,0.780711,-0.00740749,-0.000614639,0.0977623,1,4.91198e-05,-8.86247e-06,1.90191e-06,0.00982396,-0.00177249,0.000380383,0.999211,-0.000440709,0.0397026,0.000105112,0.521429,0.081981,-0.719251,33.25,1,25936,2642312
23,4,0.999211,-0.000401282,0.0397017,9.79421e-05,-0.736076,-0.0711109,9.78392,-0.36104,-0.151464,0.789391,-0.00736061,-0.000718853,0.0978392,1,3.99891e-05,8.1027e-07,-5.52091e-06,0.00799783,0.000162054,-0.00110418,0.999211,-0.000401282,0.0397017,9.79421e-05,0.519521,0.0810215,-0.719263,33.25,1,25937,2642412
23,5,0.999211,-0.000401282,0.0397017,9.79421e-05,-0.736076,-0.0711109,9.78392,-0.36104,-0.151464,0.789391,-0.00736061,-0.000718853,0.0978392,1,3.99891e-05,8.1027e-07,-5.52091e-06,0.00799783,0.000162054,-0.00110418,0.999211,-0.000401282,0.0397017,9.79421e-05,0.519521,0.0810215,-0.719263,33.25,1,25937,2642412
23,6,0.999211,-0.000401282,0.0397017,9.79421e-05,-0.736076,-0.0711109,9.78392,-0.36104,-0.151464,0.789391,-0.00736061,-0.000718853,0.0978392,1,3.99891e-05,8.1027e-07,-5.52091e-06,0.00799783,0.000162054,-0.00110418,0.999211,-0.000401282,0.0397017,9.79421e-05,0.519521,0.0810215,-0.719263,33.25,1,25937,2642412
23,7,0.999212,-0.000349999,0.0396938,0.00011953,-0.698565,-0.0335039,9.78536,-0.321556,-0.117346,0.7904,-0.00698684,-0.000345327,0.0978534,1,5.0865e-05,-6.21029e-06,2.38847e-05,0.010173,-0.00124206,0.00477695,0.999212,-0.000349999,0.0396938,0.00011953,0.51862,0.0809844,-0.716735,33.25,1,25938,2642512
23,8,0.999212,-0.000349999,0.0396938,0.00011953,-0.698565,-0.0335039,9.78536,-0.321556,-0.117346,0.7904,-0.00698684,-0.000345327,0.0978534,1,5.0865e-05,-6.21029e-06,2.38847e-05,0.010173,-0.00124206,0.00477695,0.999212,-0.000349999,0.0396938,0.00011953,0.51862,0.0809844,-0.716735,33.25,1,25938,2642512
23,9,0.999212,-0.000349999,0.0396938,0.00011953,-0.698565,-0.0335039,9.78536,-0.321556,-0.117346,0.7904,-0.00698684,-0.000345327,0.0978534,1,5.0865e-05,-6.21029e-06,2.38847e-05,0.010173,-0.00124206,0.00477695,0.999212,-0.000349999,0.0396938,0.00011953,0.51862,0.0809844,-0.716735,33.25,1,25938,2642512
23,10,0.999212,-0.000326607,0.0396832,0.000130068,-0.708856,0.00192252,9.76199,-0.330213,-0.0750832,0.76602,-0.00709018,1.44812e-05,0.0976198,1,2.34377e-05,-8.28126e-06,1.18465e-05,0.00468753,-0.00165625,0.00236929,0.999212,-0.000326607,0.0396832,0.000130068,0.520541,0.0819349,-0.716217,33.25,1,25939,2642612
24,1,0.999212,-0.000326607,0.0396832,0.000130068,-0.708856,0.00192252,9.76199,-0.330213,-0.0750832,0.76602,-0.00709018,1.44812e-05,0.0976198,1,2.34377e-05,-8.28126e-06,1.18465e-05,0.00468753,-0.00165625,0.00236929,0.999212,-0.000326607,0.0396832,0.000130068,0.520541,0.0819349,-0.716217,33.25,1,25939,2642612
24,2,0.999212,-0.000326607,0.0396832,0.000130068,-0.708856,0.00192252,9.76199,-0.330213,-0.0750832,0.76602,-0.00709018,1.44812e-05,0.0976198,1,2.34377e-05,-8.28126e-06,1.18465e-05,0.00468753,-0.00165625,0.00236929,0.999212,-0.000326607,0.0396832,0.000130068,0.520541,0.0819349,-0.716217,33.25,1,25939,2642612
24,3,0.999213,-0.00027439,0.0396654,0.000151151,-0.724155,-0.011741,9.77894,-0.346005,-0.0868936,0.77694,-0.00724475,-0.000127875,0.0977892,1,5.18057e-05,-1.63766e-05,2.29849e-05,0.0103611,-0.00327532,0.00459699,0.999213,-0.00027439,0.0396654,0.000151151,0.52054,0.0804897,-0.717259,33.25,1,25940,2642712
24,4,0.999213,-0.00027439,0.0396654,0.000151151,-0.724155,-0.011741,9.77894,-0.346005,-0.0868936,0.77694,-0.00724475,-0.000127875,0.0977892,1,5.18057e-05,-1.63766e-05,2.29849e-05,0.0103611,-0.00327532,0.00459699,0.999213,-0.00027439,0.0396654,0.000151151,0.52054,0.0804897,-0.717259,33.25,1,25940,2642712
24,5,0.999213,-0.00027439,0.0396654,0.000151151,-0.724155,-0.011741,9.77894,-0.346005,-0.0868936,0.77694,-0.00724475,-0.000127875,0.0977892,1,5.18057e-05,-1.63766e-05,2.29849e-05,0.0103611,-0.00327532,0.00459699,0.999213,-0.00027439,0.0396654,0.000151151,0.52054,0.0804897,-0.717259,33.25,1,25940,2642712
24,6,0.999214,-0.000232894,0.0396512,0.000158546,-0.695715,-0.0266036,9.80542,-0.313955,-0.0971019,0.805939,-0.00695963,-0.000274337,0.098054,1,4.16934e-05,-1.26698e-05,8.89602e-06,0.00833868,-0.00253396,0.0017792,0.999214,-0.000232894,0.0396512,0.000158546,0.520108,0.0790123,-0.71628,33.25,1,25941,2642812
24,7,0.999214,-0.000232894,0.0396512,0.000158546,-0.695715,-0.0266036,9.80542,-0.313955,-0.0971019,0.805939,-0.00695963,-0.000274337,0.098054,1,4.16934e-05,-1.26698e-05,8.89602e-06,0.00833868,-0.00253396,0.0017792,0.999214,-0.000232894,0.0396512,0.000158546,0.520108,0.0790123,-0.71628,33.25,1,25941,2642812
24,8,0.999214,-0.000232894,0.0396512,0.000158546,-0.695715,-0.0266036,9.80542,-0.313955,-0.0971019,0.805939,-0.00695963,-0.000274337,0.098054,1,4.16934e-05,-1.26698e-05,8.89602e-06,0.00833868,-0.00253396,0.0017792,0.999214,-0.000232894,0.0396512,0.000158546,0.520108,0.0790123,-0.71628,33.25,1,25941,2642812
24,9,0.999214,-0.000206679,0.0396437,0.000179261,-0.702189,-0.0572843,9.77771,-0.325709,-0.124702,0.781224,-0.00702287,-0.000578209,0.097777,1,2.58739e-05,-5.15779e-06,2.17725e-05,0.00517479,-0.00103156,0.0043545,0.999214,-0.000206679,0.0396437,0.000179261,0.520573,0.0785386,-0.717303,33.25,1,25942,2642912
24,10,0.999214,-0.000206679,0.0396437,0.000179261,-0.702189,-0.0572843,9.77771,-0.325709,-0.124702,0.781224,-0.00702287,-0.000578209,0.097777,1,2.58739e-05,-5.15779e-06,2.17725e-05,0.00517479,-0.00103156,0.0043545,0.999214,-0.000206679,0.0396437,0.000179261,0.520573,0.0785386,-0.717303,33.25,1,25942,2642912
24,11,0.999214,-0.000206679,0.0396437,0.000179261,-0.702189,-0.0572843,9.77771,-0.325709,-0.124702,0.781224,-0.00702287,-0.000578209,0.097777,1,2.58739e-05,-5.15779e-06,2.17725e-05,0.00517479,-0.00103156,0.0043545,0.999214,-0.000206679,0.0396437,0.000179261,0.520573,0.0785386,-0.717303,33.25,1,25942,2642912
24,12,0.999214,-0.000157144,0.0396317,0.000196448,-0.721013,-0.0743942,9.78549,-0.348462,-0.152335,0.785035,-0.00721201,-0.00075391,0.0978547,1,4.95146e-05,-9.74713e-06,1.92227e-05,0.00990292,-0.00194943,0.00384454,0.999214,-0.000157144,0.0396317,0.000196448,0.521066,0.0785256,-0.7168,33.25,1,25943,2643012
12,1,0.999214,-0.000157144,0.0396317,0.000196448,-0.721013,-0.0743942,9.78549,-0.348462,-0.152335,0.785035,-0.00721201,-0.00075391,0.0978547,1,4.95146e-05,-9.74713e-06,1.92227e-05,0.00990292,-0.00194943,0.00384454,0.999214,-0.000157144,0.0396317,0.000196448,0.521066,0.0785256,-0.7168,33.25,1,25943,2643012
12,2,0.999214,-0.000157144,0.0396317,0.000196448,-0.721013,-0.0743942,9.78549,-0.348462,-0.152335,0.785035,-0.00721201,-0.00075391,0.0978547,1,4.95146e-05,-9.74713e-06,1.92227e-05,0.00990292,-0.00194943,0.00384454,0.999214,-0.000157144,0.0396317,0.000196448,0.521066,0.0785256,-0.7168,33.25,1,25943,2643012
12,3,0.999215,-0.000103054,0.0396233,0.000209644,-0.677119,-0.0475068,9.81732,-0.294529,-0.125777,0.820584,-0.00677237,-0.00048597,0.098173,1,5.4434e-05,-6.07535e-06,1.5771e-05,0.0108868,-0.00121507,0.00315419,0.999215,-0.000103054,0.0396233,0.000209644,0.520092,0.0799879,-0.716258,33.25,1,25944,2643112
12,4,0.999215,-0.000103054,0.0396233,0.000209644,-0.677119,-0.0475068,9.81732,-0.294529,-0.125777,0.820584,-0.00677237,-0.00048597,0.098173,1,5.4434e-05,-6.07535e-06,1.5771e-05,0.0108868,-0.00121507,0.00315419,0.999215,-0.000103054,0.0396233,0.000209644,0.520092,0.0799879,-0.716258,33.25,1,25944,2643112
12,5,0.999215,-0.000103054,0.0396233,0.000209644,-0.677119,-0.0475068,9.81732,-0.294529,-0.125777,0.820584,-0.00677237,-0.00048597,0.098173,1,5.4434e-05,-6.07535e-06,1.5771e-05,0.0108868,-0.00121507,0.00315419,0.999215,-0.000103054,0.0396233,0.000209644,0.520092,0.0799879,-0.716258,33.25,1,25944,2643112
12,6,0.999214,-4.97223e-05,0.0396345,0.000215126,-0.714149,-0.0121249,9.79411,-0.33015,-0.0930199,0.797736,-0.00713875,-0.000131946,0.0979413,1,5.40372e-05,1.40107e-05,7.8249e-06,0.0108075,0.00280214,0.00156498,0.999214,-4.97223e-05,0.0396345,0.000215126,0.52012,0.0790033,-0.715775,33.25,1,25945,2643212
12,7,0.999214,-4.97223e-05,0.0396345,0.000215126,-0.714149,-0.0121249,9.79411,-0.33015,-0.0930199,0.797736,-0.00713875,-0.000131946,0.0979413,1,5.40372e-05,1.40107e-05,7.8249e-06,0.0108075,0.00280214,0.00156498,0.999214,-4.97223e-05,0.0396345,0.000215126,0.52012,0.0790033,-0.715775,33.25,1,25945,2643212
12,8,0.999214,-4.97223e-05,0.0396345,0.000215126,-0.714149,-0.0121249,9.79411,-0.33015,-0.0930199,0.797736,-0.00713875,-0.000131946,0.0979413,1,5.40372e-05,1.40107e-05,7.8249e-06,0.0108075,0.00280214,0.00156498,0.999214,-4.97223e-05,0.0396345,0.000215126,0.52012,0.0790033,-0.715775,33.25,1,25945,2643212
10,1,0.999215,7.02803e-06,0.0396228,0.000221789,-0.76293,0.00316604,9.7627,-0.38669,-0.0781432,0.766882,-0.00763097,2.02892e-05,0.0976268,1,5.75111e-05,-8.58842e-06,9.30774e-06,0.0115022,-0.00171768,0.00186155,0.999215,7.02803e-06,0.0396228,0.000221789,0.52054,0.0790444,-0.718302,33.25,1,25946,2643312
10,2,0.999215,7.02803e-06,0.0396228,0.000221789,-0.76293,0.00316604,9.7627,-0.38669,-0.0781432,0.766882,-0.00763097,2.02892e-05,0.0976268,1,5.75111e-05,-8.58842e-06,9.30774e-06,0.0115022,-0.00171768,0.00186155,0.999215,7.02803e-06,0.0396228,0.000221789,0.52054,0.0790444,-0.718302,33.25,1,25946,2643312
10,3,0.999215,7.02803e-06,0.0396228,0.000221789,-0.76293,0.00316604,9.7627,-0.38669,-0.0781432,0.766882,-0.00763097,2.02892e-05,0.0976268,1,5.75111e-05,-8.58842e-06,9.30774e-06,0.0115022,-0.00171768,0.00186155,0.999215,7.02803e-06,0.0396228,0.000221789,0.52054,0.0790444,-0.718302,33.25,1,25946,2643312
10,4,0.999215,6.01972e-05,0.0396066,0.000239619,-0.717572,-0.0132437,9.8016,-0.344696,-0.091641,0.801849,-0.00717831,-0.000143209,0.0980158,1,5.34691e-05,-1.32004e-05,2.02302e-05,0.0106938,-0.00264009,0.00404603,0.999215,6.01972e-05,0.0396066,0.000239619,0.520967,0.0785977,-0.720839,33.25,1,25947,2643412
10,5,0.999215,6.01972e-05,0.0396066,0.000239619,-0.717572,-0.0132437,9.8016,-0.344696,-0.091641,0.801849,-0.00717831,-0.000143209,0.0980158,1,5.34691e-05,-1.32004e-05,2.02302e-05,0.0106938,-0.00264009,0.00404603,0.999215,6.01972e-05,0.0396066,0.000239619,0.520967,0.0785977,-0.720839,33.25,1,25947,2643412
10,6,0.999215,6.01972e-05,0.0396066,0.000239619,-0.717572,-0.0132437,9.8016,-0.344696,-0.091641,0.801849,-0.00717831,-0.000143209,0.0980158,1,5.34691e-05,-1.32004e-05,2.02302e-05,0.0106938,-0.00264009,0.00404603,0.999215,6.01972e-05,0.0396066,0.000239619,0.520967,0.0785977,-0.720839,33.25,1,25947,2643412
10,7,0.999216,0.000123019,0.0395936,0.000262899,-0.692752,-0.0275403,9.7908,-0.317041,-0.107634,0.797837,-0.00692939,-0.000288088,0.0979078,1,6.29407e-05,-9.62228e-06,2.60267e-05,0.0125881,-0.00192446,0.00520534,0.999216,0.000123019,0.0395936,0.000262899,0.521436,0.0786027,-0.721346,33.25,1,25948,2643512
10,8,0.999216,0.000123019,0.0395936,0.000262899,-0.692752,-0.0275403,9.7908,-0.317041,-0.107634,0.797837,-0.00692939,-0.000288088,0.0979078,1,6.29407e-05,-9.62228e-06,2.60267e-05,0.0125881,-0.00192446,0.00520534,0.999216,0.000123019,0.0395936,0.000262899,0.521436,0.0786027,-0.721346,33.25,1,25948,2643512
14,1,0.999216,0.000123019,0.0395936,0.000262899,-0.692752,-0.0275403,9.7908,-0.317041,-0.107634,0.797837,-0.00692939,-0.000288088,0.0979078,1,6.29407e-05,-9.62228e-06,2.60267e-05,0.0125881,-0.00192446,0.00520534,0.999216,0.000123019,0.0395936,0.000262899,0.521436,0.0786027,-0.721346,33.25,1,25948,2643512
14,2,0.999216,0.000169504,0.0395831,0.000276881,-0.649476,-0.0498085,9.77912,-0.279472,-0.127956,0.77932,-0.00649605,-0.000507489,0.0977911,1,4.70188e-05,-6.68885e-06,1.60391e-05,0.00940375,-0.00133777,0.00320782,0.999216,0.000169504,0.0395831,0.000276881,0.52248,0.0780528,-0.718333,33.25,1,25949,2643612
14,3,0.999216,0.000169504,0.0395831,0.000276881,-0.649476,-0.0498085,9.77912,-0.279472,-0.127956,0.77932,-0.00649605,-0.000507489,0.0977911,1,4.70188e-05,-6.68885e-06,1.60391e-05,0.00940375,-0.00133777,0.00320782,0.999216,0.000169504,0.0395831,0.000276881,0.52248,0.0780528,-0.718333,33.25,1,25949,2643612
14,4,0.999216,0.000169504,0.0395831,0.000276881,-0.649476,-0.0498085,9.77912,-0.279472,-0.127956,0.77932,-0.00649605,-0.000507489,0.0977911,1,4.70188e-05,-6.68885e-06,1.60391e-05,0.00940375,-0.00133777,0.00320782,0.999216,0.000169504,0.0395831,0.000276881,0.52248,0.0780528,-0.718333,33.25,1,25949,2643612
14,5,0.999216,0.000223387,0.0395789,0.000285823,-0.611249,-0.0533461,9.80698,-0.235924,-0.13869,0.805676,-0.00611261,-0.000544367,0.0980697,1,5.48866e-05,-6.59804e-07,1.1539e-05,0.0109773,-0.000131961,0.00230781,0.999216,0.000223387,0.0395789,0.000285823,0.520592,0.0765965,-0.717851,33.25,1,25950,2643712
14,6,0.999216,0.000223387,0.0395789,0.000285823,-0.611249,-0.0533461,9.80698,-0.235924,-0.13869,0.805676,-0.00611261,-0.000544367,0.0980697,1,5.48866e-05,-6.59804e-07,1.1539e-05,0.0109773,-0.000131961,0.00230781,0.999216,0.000223387,0.0395789,0.000285823,0.520592,0.0765965,-0.717851,33.25,1,25950,2643712
14,7,0.999216,0.000223387,0.0395789,0.000285823,-0.611249,-0.0533461,9.80698,-0.235924,-0.13869,0.805676,-0.00611261,-0.000544367,0.0980697,1,5.48866e-05,-6.59804e-07,1.1539e-05,0.0109773,-0.000131961,0.00230781,0.999216,0.000223387,0.0395789,0.000285823,0.520592,0.0765965,-0.717851,33.25,1,25950,2643712
14,8,0.999216,0.000270872,0.0395839,0.000297717,-0.617916,-0.0411481,9.80848,-0.237928,-0.126735,0.803578,-0.00617727,-0.000421198,0.0980849,1,4.8615e-05,9.55161e-06,1.45715e-05,0.00972301,0.00191032,0.00291429,0.999216,0.000270872,0.0395839,0.000297717,0.519663,0.0760987,-0.716848,33.25,1,25951,2643812
15,1,0.999216,0.000270872,0.0395839,0.000297717,-0.617916,-0.0411481,9.80848,-0.237928,-0.126735,0.803578,-0.00617727,-0.000421198,0.0980849,1,4.8615e-05,9.55161e-06,1.45715e-05,0.00972301,0.00191032,0.00291429,0.999216,0.000270872,0.0395839,0.000297717,0.519663,0.0760987,-0.716848,33.25,1,25951,2643812
15,2,0.999216,0.000270872,0.0395839,0.000297717,-0.617916,-0.0411481,9.80848,-0.237928,-0.126735,0.803578,-0.00617727,-0.000421198,0.0980849,1,4.8615e-05,9.55161e-06,1.45715e-05,0.00972301,0.00191032,0.00291429,0.999216,0.000270872,0.0395839,0.000297717,0.519663,0.0760987,-0.716848,33.25,1,25951,2643812
15,3,0.999216,0.000312523,0.0395983,0.000317775,-0.629012,-0.0205314,9.80873,-0.252536,-0.106591,0.807375,-0.00628618,-0.000213962,0.0980875,1,4.26379e-05,2.00736e-05,2.25025e-05,0.00852758,0.00401472,0.0045005,0.999216,0.000312523,0.0395983,0.000317775,0.520136,0.0765825,-0.716839,33.25,1,25952,2643912
15,4,0.999216,0.000312523,0.0395983,0.000317775,-0.629012,-0.0205314,9.80873,-0.252536,-0.106591,0.807375,-0.00628618,-0.000213962,0.0980875,1,4.26379e-05,2.00736e-05,2.25025e-05,0.00852758,0.00401472,0.0045005,0.999216,0.000312523,0.0395983,0.000317775,0.520136,0.0765825,-0.716839,33.25,1,25952,2643912
15,5,0.999216,0.000312523,0.0395983,0.000317775,-0.629012,-0.0205314,9.80873,-0.252536,-0.106591,0.807375,-0.00628618,-0.000213962,0.0980875,1,4.26379e-05,2.00736e-05,2.25025e-05,0.00852758,0.00401472,0.0045005,0.999216,0.000312523,0.0395983,0.000317775,0.520136,0.0765825,-0.716839,33.25,1,25952,2643912
15,6,0.999216,0.00033632,0.0395965,0.000342258,-0.618547,-0.00435865,9.79694,-0.245574,-0.089689,0.79361,-0.0061847,-4.87321e-05,0.0979694,1,2.46279e-05,3.92669e-06,2.58702e-05,0.00492559,0.000785338,0.00517404,0.999216,0.00033632,0.0395965,0.000342258,0.521505,0.0766246,-0.719875,33.25,1,25953,2644012
15,7,0.999216,0.00033632,0.0395965,0.000342258,-0.618547,-0.00435865,9.79694,-0.245574,-0.089689,0.79361,-0.0061847,-4.87321e-05,0.0979694,1,2.46279e-05,3.92669e-06,2.58702e-05,0.00492559,0.000785338,0.00517404,0.999216,0.00033632,0.0395965,0.000342258,0.521505,0.0766246,-0.719875,33.25,1,25953,2644012
15,8,0.999216,0.00033632,0.0395965,0.000342258,-0.618547,-0.00435865,9.79694,-0.245574,-0.089689,0.79361,-0.0061847,-4.87321e-05,0.0979694,1,2.46279e-05,3.92669e-06,2.58702e-05,0.00492559,0.000785338,0.00517404,0.999216,0.00033632,0.0395965,0.000342258,0.521505,0.0766246,-0.719875,33.25,1,25953,2644012
16,1,0.999216,0.000381847,0.0395981,0.000346935,-0.598986,-0.0442919,9.78899,-0.220425,-0.126536,0.78765,-0.00598841,-0.000452245,0.09789,1,4.72087e-05,7.3967e-06,6.94596e-06,0.00944174,0.00147934,0.00138919,0.999216,0.000381847,0.0395981,0.000346935,0.521949,0.0766476,-0.721392,33.25,1,25954,2644112
16,2,0.999216,0.000381847,0.0395981,0.000346935,-0.598986,-0.0442919,9.78899,-0.220425,-0.126536,0.78765,-0.00598841,-0.000452245,0.09789,1,4.72087e-05,7.3967e-06,6.94596e-06,0.00944174,0.00147934,0.00138919,0.999216,0.000381847,0.0395981,0.000346935,0.521949,0.0766476,-0.721392,33.25,1,25954,2644112
16,3,0.999216,0.000381847,0.0395981,0.000346935,-0.598986,-0.0442919,9.78899,-0.220425,-0.126536,0.78765,-0.00598841,-0.000452245,0.09789,1,4.72087e-05,7.3967e-06,6.94596e-06,0.00944174,0.00147934,0.00138919,0.999216,0.000381847,0.0395981,0.000346935,0.521949,0.0766476,-0.721392,33.25,1,25954,2644112
16,4,0.999216,0.000422572,0.0395885,0.00037223,-0.599233,-0.0470112,9.78015,-0.226274,-0.129515,0.776357,-0.00599284,-0.000478594,0.0978014,1,4.16897e-05,-2.75664e-06,2.73381e-05,0.00833793,-0.000551329,0.00546763,0.999216,0.000422572,0.0395885,0.00037223,0.52202,0.0775601,-0.717836,33.25,1,25955,2644212
16,5,0.999216,0.000422572,0.0395885,0.00037223,-0.599233,-0.0470112,9.78015,-0.226274,-0.129515,0.776357,-0.00599284,-0.000478594,0.0978014,1,4.16897e-05,-2.75664e-06,2.73381e-05,0.00833793,-0.000551329,0.00546763,0.999216,0.000422572,0.0395885,0.00037223,0.52202,0.0775601,-0.717836,33.25,1,25955,2644212
16,6,0.999216,0.000422572,0.0395885,0.00037223,-0.599233,-0.0470112,9.78015,-0.226274,-0.129515,0.776357,-0.00599284,-0.000478594,0.0978014,1,4.16897e-05,-2.75664e-06,2.73381e-05,0.00833793,-0.000551329,0.00546763,0.999216,0.000422572,0.0395885,0.00037223,0.52202,0.0775601,-0.717836,33.25,1,25955,2644212
16,7,0.999216,0.000469688,0.0395773,0.000391926,-0.559672,-0.0359537,9.80645,-0.196041,-0.127063,0.792939,-0.00559731,-0.000369317,0.0980644,1,4.85871e-05,-3.10898e-06,2.2376e-05,0.00971742,-0.000621796,0.0044752,0.999216,0.000469688,0.0395773,0.000391926,0.520144,0.07754,-0.715808,33.25,1,25956,2644312
16,8,0.999216,0.000469688,0.0395773,0.000391926,-0.559672,-0.0359537,9.80645,-0.196041,-0.127063,0.792939,-0.00559731,-0.000369317,0.0980644,1,4.85871e-05,-3.10898e-06,2.2376e-05,0.00971742,-0.000621796,0.0044752,0.999216,0.000469688,0.0395773,0.000391926,0.520144,0.07754,-0.715808,33.25,1,25956,2644312
16,9,0.999216,0.000469688,0.0395773,0.000391926,-0.559672,-0.0359537,9.80645,-0.196041,-0.127063,0.792939,-0.00559731,-0.000369317,0.0980644,1,4.85871e-05,-3.10898e-06,2.2376e-05,0.00971742,-0.000621796,0.0044752,0.999216,0.000469688,0.0395773,0.000391926,0.520144,0.07754,-0.715808,33.25,1,25956,2644312
16,10,0.999217,0.000517512,0.0395582,0.000408858,-0.527916,-0.0472564,9.80206,-0.166703,-0.148873,0.780129,-0.00528125,-0.000482499,0.0980205,1,4.96134e-05,-1.07642e-05,1.97142e-05,0.00992269,-0.00215284,0.00394284,0.999217,0.000517512,0.0395582,0.000408858,0.520601,0.0761087,-0.717862,33.25,1,25957,2644412
17,1,0.999217,0.000517512,0.0395582,0.000408858,-0.527916,-0.0472564,9.80206,-0.166703,-0.148873,0.780129,-0.00528125,-0.000482499,0.0980205,1,4.96134e-05,-1.07642e-05,1.97142e-05,0.00992269,-0.00215284,0.00394284,0.999217,0.000517512,0.0395582,0.000408858,0.520601,0.0761087,-0.717862,33.25,1,25957,2644412
17,2,0.999217,0.000517512,0.0395582,0.000408858,-0.527916,-0.0472564,9.80206,-0.166703,-0.148873,0.780129,-0.00528125,-0.000482499,0.0980205,1,4.96134e-05,-1.07642e-05,1.97142e-05,0.00992269,-0.00215284,0.00394284,0.999217,0.000517512,0.0395582,0.000408858,0.520601,0.0761087,-0.717862,33.25,1,25957,2644412
17,3,0.999218,0.000566076,0.0395442,0.00041982,-0.404835,-0.0482061,9.80259,-0.041735,-0.148735,0.787627,-0.0040492,-0.000492118,0.0980258,1,5.07236e-05,-4.39408e-06,1.38169e-05,0.0101447,-0.000878817,0.00276339,0.999218,0.000566076,0.0395442,0.00041982,0.521057,0.0746775,-0.719916,33.25,1,25958,2644512
17,4,0.999218,0.000566076,0.0395442,0.00041982,-0.404835,-0.0482061,9.80259,-0.041735,-0.148735,0.787627,-0.0040492,-0.000492118,0.0980258,1,5.07236e-05,-4.39408e-06,1.38169e-05,0.0101447,-0.000878817,0.00276339,0.999218,0.000566076,0.0395442,0.00041982,0.521057,0.0746775,-0.719916,33.25,1,25958,2644512
17,5,0.999218,0.000566076,0.0395442,0.00041982,-0.404835,-0.0482061,9.80259,-0.041735,-0.148735,0.787627,-0.0040492,-0.000492118,0.0980258,1,5.07236e-05,-4.39408e-06,1.38169e-05,0.0101447,-0.000878817,0.00276339,0.999218,0.000566076,0.0395442,0.00041982,0.521057,0.0746775,-0.719916,33.25,1,25958,2644512
17,6,0.999218,0.00062165,0.0395446,0.000435028,-0.396771,-0.0227408,9.79495,-0.0178803,-0.125193,0.773291,-0.00396553,-0.000238884,0.0979495,1,5.78575e-05,1.10751e-05,1.79745e-05,0.0115715,0.00221502,0.00359489,0.999218,0.00062165,0.0395446,0.000435028,0.520123,0.0737009,-0.719429,33.25,1,25959,2644612
17,7,0.999218,0.00062165,0.0395446,0.000435028,-0.396771,-0.0227408,9.79495,-0.0178803,-0.125193,0.773291,-0.00396553,-0.000238884,0.0979495,1,5.78575e-05,1.10751e-05,1.79745e-05,0.0115715,0.00221502,0.00359489,0.999218,0.00062165,0.0395446,0.000435028,0.520123,0.0737009,-0.719429,33.25,1,25959,2644612
17,8,0.999218,0.00062165,0.0395446,0.000435028,-0.396771,-0.0227408,9.79495,-0.0178803,-0.125193,0.773291,-0.00396553,-0.000238884,0.0979495,1,5.78575e-05,1.10751e-05,1.79745e-05,0.0115715,0.00221502,0.00359489,0.999218,0.00062165,0.0395446,0.000435028,0.520123,0.0737009,-0.719429,33.25,1,25959,2644612
31,1,0.999218,0.000671165,0.0395345,0.000451527,-0.395535,-0.0195947,9.82142,-0.0212117,-0.105908,0.791669,-0.00395485,-0.000206287,0.0982142,1,5.18542e-05,2.46215e-06,1.9569e-05,0.0103708,0.000492429,0.0039138,0.999218,0.000671165,0.0395345,0.000451527,0.521517,0.0751703,-0.720413,33.25,1,25960,2644712
31,2,0.999218,0.000671165,0.0395345,0.000451527,-0.395535,-0.0195947,9.82142,-0.0212117,-0.105908,0.791669,-0.00395485,-0.000206287,0.0982142,1,5.18542e-05,2.46215e-06,1.9569e-05,0.0103708,0.000492429,0.0039138,0.999218,0.000671165,0.0395345,0.000451527,0.521517,0.0751703,-0.720413,33.25,1,25960,2644712
31,3,0.999218,0.000671165,0.0395345,0.000451527,-0.395535,-0.0195947,9.82142,-0.0212117,-0.105908,0.791669,-0.00395485,-0.000206287,0.0982142,1,5.18542e-05,2.46215e-06,1.9569e-05,0.0103708,0.000492429,0.0039138,0.999218,0.000671165,0.0395345,0.000451527,0.521517,0.0751703,-0.720413,33.25,1,25960,2644712
31,4,0.999218,0.000713954,0.0395202,0.000453811,-0.432955,-0.0527569,9.82207,-0.0506576,-0.13731,0.804768,-0.00432953,-0.000536609,0.0982207,1,4.57783e-05,7.59315e-08,5.45188e-06,0.00915565,1.51863e-05,0.00109038,0.999218,0.000713954,0.0395202,0.000453811,0.522492,0.0751533,-0.719912,33.25,1,25961,2644812
31,5,0.999218,0.000713954,0.0395202,0.000453811,-0.432955,-0.0527569,9.82207,-0.0506576,-0.13731,0.804768,-0.00432953,-0.000536609,0.0982207,1,4.57783e-05,7.59315e-08,5.45188e-06,0.00915565,1.51863e-05,0.00109038,0.999218,0.000713954,0.0395202,0.000453811,0.522492,0.0751533,-0.719912,33.25,1,25961,2644812
31,6,0.999218,0.000713954,0.0395202,0.000453811,-0.432955,-0.0527569,9.82207,-0.0506576,-0.13731,0.804768,-0.00432953,-0.000536609,0.0982207,1,4.57783e-05,7.59315e-08,5.45188e-06,0.00915565,1.51863e-05,0.00109038,0.999218,0.000713954,0.0395202,0.000453811,0.522492,0.0751533,-0.719912,33.25,1,25961,2644812
31,7,0.99922,0.000758676,0.0394894,0.000452462,-0.405151,-0.0834527,9.80229,-0.043725,-0.183834,0.782461,-0.00405452,-0.000843979,0.0980227,1,4.81511e-05,-1.53354e-05,1.56657e-06,0.00963023,-0.00306707,0.000313314,0.99922,0.000758676,0.0394894,0.000452462,0.520637,0.0746364,-0.71739,33.25,1,25962,2644912
31,8,0.99922,0.000758676,0.0394894,0.000452462,-0.405151,-0.0834527,9.80229,-0.043725,-0.183834,0.782461,-0.00405452,-0.000843979,0.0980227,1,4.81511e-05,-1.53354e-05,1.56657e-06,0.00963023,-0.00306707,0.000313314,0.99922,0.000758676,0.0394894,0.000452462,0.520637,0.0746364,-0.71739,33.25,1,25962,2644912
31,9,0.99922,0.000758676,0.0394894,0.000452462,-0.405151,-0.0834527,9.80229,-0.043725,-0.183834,0.782461,-0.00405452,-0.000843979,0.0980227,1,4.81511e-05,-1.53354e-05,1.56657e-06,0.00963023,-0.00306707,0.000313314,0.99922,0.000758676,0.0394894,0.000452462,0.520637,0.0746364,-0.71739,33.25,1,25962,2644912
31,10,0.999221,0.000803636,0.0394542,0.000456807,-0.208485,-0.0330845,9.82718,0.144522,-0.135073,0.791594,-0.00208835,-0.000340424,0.0982717,1,4.85796e-05,-1.78332e-05,7.35008e-06,0.00971592,-0.00356663,0.00147002,0.999221,0.000803636,0.0394542,0.000456807,0.522105,0.0746064,-0.716387,33.25,1,25963,2645012
32,1,0.999221,0.000803636,0.0394542,0.000456807,-0.208485,-0.0330845,9.82718,0.144522,-0.135073,0.791594,-0.00208835,-0.000340424,0.0982717,1,4.85796e-05,-1.78332e-05,7.35008e-06,0.00971592,-0.00356663,0.00147002,0.999221,0.000803636,0.0394542,0.000456807,0.522105,0.0746064,-0.716387,33.25,1,25963,2645012
32,2,0.999221,0.000803636,0.0394542,0.000456807,-0.208485,-0.0330845,9.82718,0.144522,-0.135073,0.791594,-0.00208835,-0.000340424,0.0982717,1,4.85796e-05,-1.78332e-05,7.35008e-06,0.00971592,-0.00356663,0.00147002,0.999221,0.000803636,0.0394542,0.000456807,0.522105,0.0746064,-0.716387,33.25,1,25963,2645012
32,3,0.999222,0.000841334,0.0394359,0.000478871,-0.0997906,0.0159163,9.84485,0.278184,-0.0906387,0.804949,-0.000997591,0.000151049,0.0984485,1,4.09577e-05,1.63915e-06,2.50247e-05,0.00819154,0.000327831,0.00500493,0.999222,0.000841334,0.0394359,0.000478871,0.523553,0.0750732,-0.715879,33.25,1,25964,2645112
32,4,0.999222,0.000841334,0.0394359,0.000478871,-0.0997906,0.0159163,9.84485,0.278184,-0.0906387,0.804949,-0.000997591,0.000151049,0.0984485,1,4.09577e-05,1.63915e-06,2.50247e-05,0.00819154,0.000327831,0.00500493,0.999222,0.000841334,0.0394359,0.000478871,0.523553,0.0750732,-0.715879,33.25,1,25964,2645112
32,5,0.999222,0.000841334,0.0394359,0.000478871,-0.0997906,0.0159163,9.84485,0.278184,-0.0906387,0.804949,-0.000997591,0.000151049,0.0984485,1,4.09577e-05,1.63915e-06,2.50247e-05,0.00819154,0.000327831,0.00500493,0.999222,0.000841334,0.0394359,0.000478871,0.523553,0.0750732,-0.715879,33.25,1,25964,2645112
32,6,0.999221,0.000873463,0.0394462,0.000498224,-0.229945,0.00552952,9.79474,0.15663,-0.0839992,0.762736,-0.00229297,4.82232e-05,0.0979476,1,3.55876e-05,3.30899e-05,2.18919e-05,0.00711751,0.00661799,0.00437837,0.999221,0.000873463,0.0394462,0.000498224,0.523018,0.0760797,-0.717369,33.25,1,25965,2645212
32,7,0.999221,0.000873463,0.0394462,0.000498224,-0.229945,0.00552952,9.79474,0.15663,-0.0839992,0.762736,-0.00229297,4.82232e-05,0.0979476,1,3.55876e-05,3.30899e-05,2.18919e-05,0.00711751,0.00661799,0.00437837,0.999221,0.000873463,0.0394462,0.000498224,0.523018,0.0760797,-0.717369,33.25,1,25965,2645212
32,8,0.999221,0.000873463,0.0394462,0.000498224,-0.229945,0.00552952,9.79474,0.15663,-0.0839992,0.762736,-0.00229297,4.82232e-05,0.0979476,1,3.55876e-05,3.30899e-05,2.18919e-05,0.00711751,0.00661799,0.00437837,0.999221,0.000873463,0.0394462,0.000498224,0.523018,0.0760797,-0.717369,33.25,1,25965,2645212
33,1,0.999221,0.000928416,0.0394408,0.00051367,-0.337933,-0.0541052,9.7729,0.0239651,-0.145116,0.740038,-0.00337539,-0.000552604,0.0977291,1,5.84256e-05,2.0031e-05,1.95856e-05,0.0116851,0.00400621,0.00391713,0.999221,0.000928416,0.0394408,0.00051367,0.521469,0.0780969,-0.720347,33.25,1,25966,2645312
33,2,0.999221,0.000928416,0.0394408,0.00051367,-0.337933,-0.0541052,9.7729,0.0239651,-0.145116,0.740038,-0.00337539,-0.000552604,0.0977291,1,5.84256e-05,2.0031e-05,1.95856e-05,0.0116851,0.00400621,0.00391713,0.999221,0.000928416,0.0394408,0.00051367,0.521469,0.0780969,-0.720347,33.25,1,25966,2645312
33,3,0.999221,0.000928416,0.0394408,0.00051367,-0.337933,-0.0541052,9.7729,0.0239651,-0.145116,0.740038,-0.00337539,-0.000552604,0.0977291,1,5.84256e-05,2.0031e-05,1.95856e-05,0.0116851,0.00400621,0.00391713,0.999221,0.000928416,0.0394408,0.00051367,0.521469,0.0780969,-0.720347,33.25,1,25966,2645312
33,4,0.999222,0.000954134,0.0394178,0.000525892,-0.22637,-0.0857103,9.8628,0.134042,-0.18043,0.820281,-0.00226275,-0.00086302,0.098628,1,2.9644e-05,4.70865e-06,1.53574e-05,0.00592881,0.00094173,0.00307148,0.999222,0.000954134,0.0394178,0.000525892,0.521,0.0766466,-0.720882,33.25,1,25967,2645412
33,5,0.999222,0.000954134,0.0394178,0.000525892,-0.22637,-0.0857103,9.8628,0.134042,-0.18043,0.820281,-0.00226275,-0.00086302,0.098628,1,2.9644e-05,4.70865e-06,1.53574e-05,0.00592881,0.00094173,0.00307148,0.999222,0.000954134,0.0394178,0.000525892,0.521,0.0766466,-0.720882,33.25,1,25967,2645412
33,6,0.999222,0.000954134,0.0394178,0.000525892,-0.22637,-0.0857103,9.8628,0.134042,-0.18043,0.820281,-0.00226275,-0.00086302,0.098628,1,2.9644e-05,4.70865e-06,1.53574e-05,0.00592881,0.00094173,0.00307148,0.999222,0.000954134,0.0394178,0.000525892,0.521,0.0766466,-0.720882,33.25,1,25967,2645412
33,7,0.999223,0.000992748,0.0393989,0.000549664,-0.195437,-0.0778855,9.87454,0.195916,-0.184401,0.847148,-0.00195216,-0.000787418,0.0987453,1,4.28354e-05,1.0956e-05,2.64717e-05,0.00856708,0.0021912,0.00529435,0.999223,0.000992748,0.0393989,0.000549664,0.521473,0.0771304,-0.720874,33.25,1,25968,2645512
33,8,0.999223,0.000992748,0.0393989,0.000549664,-0.195437,-0.0778855,9.87454,0.195916,-0.184401,0.847148,-0.00195216,-0.000787418,0.0987453,1,4.28354e-05,1.0956e-05,2.64717e-05,0.00856708,0.0021912,0.00529435,0.999223,0.000992748,0.0393989,0.000549664,0.521473,0.0771304,-0.720874,33.25,1,25968,2645512
21,1,0.999223,0.000992748,0.0393989,0.000549664,-0.195437,-0.0778855,9.87454,0.195916,-0.184401,0.847148,-0.00195216,-0.000787418,0.0987453,1,4.28354e-05,1.0956e-05,2.64717e-05,0.00856708,0.0021912,0.00529435,0.999223,0.000992748,0.0393989,0.000549664,0.521473,0.0771304,-0.720874,33.25,1,25968,2645512
21,2,0.999225,0.0010455,0.0393565,0.000571255,-0.285649,-0.0101239,9.76208,0.0813443,-0.118968,0.739103,-0.00285839,-0.000112564,0.0976208,1,5.72485e-05,-9.75278e-06,2.57229e-05,0.0114497,-0.00195056,0.00514458,0.999225,0.0010455,0.0393565,0.000571255,0.520523,0.0785746,-0.719322,33.25,1,25969,2645612
21,3,0.999225,0.0010455,0.0393565,0.000571255,-0.285649,-0.0101239,9.76208,0.0813443,-0.118968,0.739103,-0.00285839,-0.000112564,0.0976208,1,5.72485e-05,-9.75278e-06,2.57229e-05,0.0114497,-0.00195056,0.00514458,0.999225,0.0010455,0.0393565,0.000571255,0.520523,0.0785746,-0.719322,33.25,1,25969,2645612
21,4,0.999225,0.0010455,0.0393565,0.000571255,-0.285649,-0.0101239,9.76208,0.0813443,-0.118968,0.739103,-0.00285839,-0.000112564,0.0976208,1,5.72485e-05,-9.75278e-06,2.57229e-05,0.0114497,-0.00195056,0.00514458,0.999225,0.0010455,0.0393565,0.000571255,0.520523,0.0785746,-0.719322,33.25,1,25969,2645612
21,5,0.999226,0.00109432,0.0393069,0.000600517,-0.0795317,-0.0387523,9.82626,0.261357,-0.134082,0.768149,-0.000798614,-0.000397853,0.0982625,1,5.22772e-05,-1.69216e-05,3.52709e-05,0.0104555,-0.00338432,0.00705418,0.999226,0.00109432,0.0393069,0.000600517,0.522501,0.0775561,-0.717839,33.25,1,25970,2645712
21,6,0.999226,0.00109432,0.0393069,0.000600517,-0.0795317,-0.0387523,9.82626,0.261357,-0.134082,0.768149,-0.000798614,-0.000397853,0.0982625,1,5.22772e-05,-1.69216e-05,3.52709e-05,0.0104555,-0.00338432,0.00705418,0.999226,0.00109432,0.0393069,0.000600517,0.522501,0.0775561,-0.717839,33.25,1,25970,2645712
35,1,0.999226,0.00109432,0.0393069,0.000600517,-0.0795317,-0.0387523,9.82626,0.261357,-0.134082,0.768149,-0.000798614,-0.000397853,0.0982625,1,5.22772e-05,-1.69216e-05,3.52709e-05,0.0104555,-0.00338432,0.00705418,0.999226,0.00109432,0.0393069,0.000600517,0.522501,0.0775561,-0.717839,33.25,1,25970,2645712
35,2,0.999227,0.00113814,0.0392846,0.000620485,0.0102297,-0.0779331,9.89045,0.424881,-0.170576,0.844872,0.000105125,-0.000788883,0.0989044,1,4.83131e-05,1.41095e-05,2.34568e-05,0.00966261,0.00282191,0.00469136,0.999227,0.00113814,0.0392846,0.000620485,0.524372,0.0770974,-0.720383,33.25,1,25971,2645812
35,3,0.999227,0.00113814,0.0392846,0.000620485,0.0102297,-0.0779331,9.89045,0.424881,-0.170576,0.844872,0.000105125,-0.000788883,0.0989044,1,4.83131e-05,1.41095e-05,2.34568e-05,0.00966261,0.00282191,0.00469136,0.999227,0.00113814,0.0392846,0.000620485,0.524372,0.0770974,-0.720383,33.25,1,25971,2645812
35,4,0.999227,0.00113814,0.0392846,0.000620485,0.0102297,-0.0779331,9.89045,0.424881,-0.170576,0.844872,0.000105125,-0.000788883,0.0989044,1,4.83131e-05,1.41095e-05,2.34568e-05,0.00966261,0.00282191,0.00469136,0.999227,0.00113814,0.0392846,0.000620485,0.524372,0.0770974,-0.720383,33.25,1,25971,2645812
35,5,0.999229,0.00118263,0.0392434,0.000646068,-0.272691,-0.0731642,9.76044,0.0883681,-0.169435,0.733412,-0.00272564,-0.000741622,0.0976043,1,5.02414e-05,6.24881e-06,3.15193e-05,0.0100483,0.00124976,0.00630387,0.999229,0.00118263,0.0392434,0.000646068,0.523332,0.078126,-0.72288,33.25,1,25972,2645912
35,6,0.999229,0.00118263,0.0392434,0.000646068,-0.272691,-0.0731642,9.76044,0.0883681,-0.169435,0.733412,-0.00272564,-0.000741622,0.0976043,1,5.02414e-05,6.24881e-06,3.15193e-05,0.0100483,0.00124976,0.00630387,0.999229,0.00118263,0.0392434,0.000646068,0.523332,0.078126,-0.72288,33.25,1,25972,2645912
36,1,0.999229,0.00118263,0.0392434,0.000646068,-0.272691,-0.0731642,9.76044,0.0883681,-0.169435,0.733412,-0.00272564,-0.000741622,0.0976043,1,5.02414e-05,6.24881e-06,3.15193e-05,0.0100483,0.00124976,0.00630387,0.999229,0.00118263,0.0392434,0.000646068,0.523332,0.078126,-0.72288,33.25,1,25972,2645912
36,2,0.999232,0.00124624,0.0391688,0.000653953,-0.00107826,-0.0100988,9.84837,0.344069,-0.0923374,0.787976,-1.47308e-05,-0.000114902,0.0984837,1,7.06353e-05,-2.00698e-05,2.25546e-05,0.0141271,-0.00401396,0.00451093,0.999232,0.00124624,0.0391688,0.000653953,0.522953,0.0785366,-0.718324,33.25,1,25973,2646012
36,3,0.999232,0.00124624,0.0391688,0.000653953,-0.00107826,-0.0100988,9.84837,0.344069,-0.0923374,0.787976,-1.47308e-05,-0.000114902,0.0984837,1,7.06353e-05,-2.00698e-05,2.25546e-05,0.0141271,-0.00401396,0.00451093,0.999232,0.00124624,0.0391688,0.000653953,0.522953,0.0785366,-0.718324,33.25,1,25973,2646012
36,4,0.999232,0.00124624,0.0391688,0.000653953,-0.00107826,-0.0100988,9.84837,0.344069,-0.0923374,0.787976,-1.47308e-05,-0.000114902,0.0984837,1,7.06353e-05,-2.00698e-05,2.25546e-05,0.0141271,-0.00401396,0.00451093,0.999232,0.00124624,0.0391688,0.000653953,0.522953,0.0785366,-0.718324,33.25,1,25973,2646012
36,5,0.999233,0.00128851,0.0391263,0.000667647,-0.113336,-0.02489,9.84187,0.285104,-0.12498,0.810381,-0.00113359,-0.000257994,0.0984187,1,4.59348e-05,-1.22745e-06,2.32959e-05,0.00918696,-0.00024549,0.00465918,0.999233,0.00128851,0.0391263,0.000667647,0.522542,0.0780078,-0.715809,33.25,1,25974,2646112
36,6,0.999233,0.00128851,0.0391263,0.000667647,-0.113336,-0.02489,9.84187,0.285104,-0.12498,0.810381,-0.00113359,-0.000257994,0.0984187,1,4.59348e-05,-1.22745e-06,2.32959e-05,0.00918696,-0.00024549,0.00465918,0.999233,0.00128851,0.0391263,0.000667647,0.522542,0.0780078,-0.715809,33.25,1,25974,2646112
36,7,0.999233,0.00128851,0.0391263,0.000667647,-0.113336,-0.02489,9.84187,0.285104,-0.12498,0.810381,-0.00113359,-0.000257994,0.0984187,1,4.59348e-05,-1.22745e-06,2.32959e-05,0.00918696,-0.00024549,0.00465918,0.999233,0.00128851,0.0391263,0.000667647,0.522542,0.0780078,-0.715809,33.25,1,25974,2646112
36,8,0.999235,0.00134123,0.0390695,0.00068559,-0.0714944,-0.0801146,9.80991,0.264645,-0.218429,0.768156,-0.000719437,-0.000812004,0.098099,1,5.52089e-05,-2.30477e-05,1.81427e-05,0.0110418,-0.00460953,0.00362854,0.999235,0.00134123,0.0390695,0.00068559,0.523504,0.0765545,-0.716856,33.25,1,25975,2646212
37,1,0.999235,0.00134123,0.0390695,0.00068559,-0.0714944,-0.0801146,9.80991,0.264645,-0.218429,0.768156,-0.000719437,-0.000812004,0.098099,1,5.52089e-05,-2.30477e-05,1.81427e-05,0.0110418,-0.00460953,0.00362854,0.999235,0.00134123,0.0390695,0.00068559,0.523504,0.0765545,-0.716856,33.25,1,25975,2646212
37,2,0.999235,0.00134123,0.0390695,0.00068559,-0.0714944,-0.0801146,9.80991,0.264645,-0.218429,0.768156,-0.000719437,-0.000812004,0.098099,1,5.52089e-05,-2.30477e-05,1.81427e-05,0.0110418,-0.00460953,0.00362854,0.999235,0.00134123,0.0390695,0.00068559,0.523504,0.0765545,-0.716856,33.25,1,25975,2646212
37,3,0.999238,0.00135352,0.039011,0.000727171,-0.0528437,-0.0126484,9.79645,0.307251,-0.121922,0.746691,-0.000530664,-0.000130114,0.0979645,1,1.83488e-05,-1.14075e-05,3.31848e-05,0.00366975,-0.0022815,0.00663697,0.999238,0.00135352,0.039011,0.000727171,0.523014,0.075601,-0.717885,33.25,1,25976,2646312
37,4,0.999238,0.00135352,0.039011,0.000727171,-0.0528437,-0.0126484,9.79645,0.307251,-0.121922,0.746691,-0.000530664,-0.000130114,0.0979645,1,1.83488e-05,-1.14075e-05,3.31848e-05,0.00366975,-0.0022815,0.00663697,0.999238,0.00135352,0.039011,0.000727171,0.523014,0.075601,-0.717885,33.25,1,25976,2646312
37,5,0.999238,0.00135352,0.039011,0.000727171,-0.0528437,-0.0126484,9.79645,0.307251,-0.121922,0.746691,-0.000530664,-0.000130114,0.0979645,1,1.83488e-05,-1.14075e-05,3.31848e-05,0.00366975,-0.0022815,0.00663697,0.999238,0.00135352,0.039011,0.000727171,0.523014,0.075601,-0.717885,33.25,1,25976,2646312
37,6,0.99924,0.00140327,0.0389497,0.000773867,-0.00139293,-0.00503287,9.83688,0.359636,-0.123722,0.791144,-1.5244e-05,-6.1864e-05,0.0983688,1,5.86283e-05,-6.70012e-06,3.07824e-05,0.0117257,-0.00134002,0.00615647,0.99924,0.00140327,0.0389497,0.000773867,0.523026,0.0727014,-0.719464,33.25,1,25977,2646412
37,7,0.99924,0.00140327,0.0389497,0.000773867,-0.00139293,-0.00503287,9.83688,0.359636,-0.123722,0.791144,-1.5244e-05,-6.1864e-05,0.0983688,1,5.86283e-05,-6.70012e-06,3.07824e-05,0.0117257,-0.00134002,0.00615647,0.99924,0.00140327,0.0389497,0.000773867,0.523026,0.0727014,-0.719464,33.25,1,25977,2646412
37,8,0.99924,0.00140327,0.0389497,0.000773867,-0.00139293,-0.00503287,9.83688,0.359636,-0.123722,0.791144,-1.5244e-05,-6.1864e-05,0.0983688,1,5.86283e-05,-6.70012e-06,3.07824e-05,0.0117257,-0.00134002,0.00615647,0.99924,0.00140327,0.0389497,0.000773867,0.523026,0.0727014,-0.719464,33.25,1,25977,2646412
37,9,0.999243,0.00144513,0.0388786,0.000856945,-0.0351421,-0.044731,9.8656,0.317155,-0.128864,0.816037,-0.000351583,-0.0004586,0.098656,1,5.7092e-05,-9.85218e-07,3.55856e-05,0.0114184,-0.000197044,0.00711712,0.999243,0.00144513,0.0388786,0.000856945,0.522985,0.073695,-0.720452,33.25,1,25978,2646512
37,10,0.999243,0.00144513,0.0388786,0.000856945,-0.0351421,-0.044731,9.8656,0.317155,-0.128864,0.816037,-0.000351583,-0.0004586,0.098656,1,5.7092e-05,-9.85218e-07,3.55856e-05,0.0114184,-0.000197044,0.00711712,0.999243,0.00144513,0.0388786,0.000856945,0.522985,0.073695,-0.720452,33.25,1,25978,2646512
37,11,0.999243,0.00144513,0.0388786,0.000856945,-0.0351421,-0.044731,9.8656,0.317155,-0.128864,0.816037,-0.000351583,-0.0004586,0.098656,1,5.7092e-05,-9.85218e-07,3.55856e-05,0.0114184,-0.000197044,0.00711712,0.999243,0.00144513,0.0388786,0.000856945,0.522985,0.073695,-0.720452,33.25,1,25978,2646512
37,12,0.999246,0.00146455,0.0387873,0.000919477,0.000753631,-0.0229001,9.82042,0.368411,-0.116489,0.765391,5.85154e-06,-0.000235542,0.0982042,1,3.3304e-05,-8.65625e-06,3.31271e-05,0.0066608,-0.00173125,0.00662543,0.999246,0.00146455,0.0387873,0.000919477,0.523459,0.0770693,-0.718359,33.25,1,25979,2646612
38,1,0.999246,0.00146455,0.0387873,0.000919477,0.000753631,-0.0229001,9.82042,0.368411,-0.116489,0.765391,5.85154e-06,-0.000235542,0.0982042,1,3.3304e-05,-8.65625e-06,3.31271e-05,0.0066608,-0.00173125,0.00662543,0.999246,0.00146455,0.0387873,0.000919477,0.523459,0.0770693,-0.718359,33.25,1,25979,2646612
38,2,0.999246,0.00146455,0.0387873,0.000919477,0.000753631,-0.0229001,9.82042,0.368411,-0.116489,0.765391,5.85154e-06,-0.000235542,0.0982042,1,3.3304e-05,-8.65625e-06,3.31271e-05,0.0066608,-0.00173125,0.00662543,0.999246,0.00146455,0.0387873,0.000919477,0.523459,0.0770693,-0.718359,33.25,1,25979,2646612
38,3,0.999249,0.00153466,0.0387165,0.000926312,0.0325881,-0.0455093,9.83088,0.397558,-0.168654,0.794639,0.000325021,-0.000469243,0.0983087,1,7.2062e-05,-4.50754e-06,2.84782e-05,0.0144124,-0.000901508,0.00569563,0.999249,0.00153466,0.0387165,0.000926312,0.52206,0.0765665,-0.716849,33.25,1,25980,2646712
38,4,0.999249,0.00153466,0.0387165,0.000926312,0.0325881,-0.0455093,9.83088,0.397558,-0.168654,0.794639,0.000325021,-0.000469243,0.0983087,1,7.2062e-05,-4.50754e-06,2.84782e-05,0.0144124,-0.000901508,0.00569563,0.999249,0.00153466,0.0387165,0.000926312,0.52206,0.0765665,-0.716849,33.25,1,25980,2646712
38,5,0.999249,0.00153466,0.0387165,0.000926312,0.0325881,-0.0455093,9.83088,0.397558,-0.168654,0.794639,0.000325021,-0.000469243,0.0983087,1,7.2062e-05,-4.50754e-06,2.84782e-05,0.0144124,-0.000901508,0.00569563,0.999249,0.00153466,0.0387165,0.000926312,0.52206,0.0765665,-0.716849,33.25,1,25980,2646712
38,6,0.999251,0.00156995,0.0386497,0.000942361,-0.132059,-0.101235,9.76367,0.197656,-0.20494,0.715177,-0.00132497,-0.0010203,0.0976365,1,4.03282e-05,-2.26813e-05,2.61515e-05,0.00806564,-0.00453625,0.0052303,0.999251,0.00156995,0.0386497,0.000942361,0.521114,0.0755989,-0.716866,33.25,1,25981,2646812
38,7,0.999251,0.00156995,0.0386497,0.000942361,-0.132059,-0.101235,9.76367,0.197656,-0.20494,0.715177,-0.00132497,-0.0010203,0.0976365,1,4.03282e-05,-2.26813e-05,2.61515e-05,0.00806564,-0.00453625,0.0052303,0.999251,0.00156995,0.0386497,0.000942361,0.521114,0.0755989,-0.716866,33.25,1,25981,2646812
38,8,0.999251,0.00156995,0.0386497,0.000942361,-0.132059,-0.101235,9.76367,0.197656,-0.20494,0.715177,-0.00132497,-0.0010203,0.0976365,1,4.03282e-05,-2.26813e-05,2.61515e-05,0.00806564,-0.00453625,0.0052303,0.999251,0.00156995,0.0386497,0.000942361,0.521114,0.0755989,-0.716866,33.25,1,25981,2646812
38,9,0.999254,0.00161009,0.038577,0.000984426,0.0971313,-0.0482603,9.87079,0.449158,-0.214634,0.800351,0.000965454,-0.000492258,0.0987079,1,4.92129e-05,-2.98286e-05,3.1106e-05,0.00984259,-0.00596573,0.0062212,0.999254,0.00161009,0.038577,0.000984426,0.521559,0.075622,-0.718382,33.25,1,25982,2646912
38,10,0.999254,0.00161009,0.038577,0.000984426,0.0971313,-0.0482603,9.87079,0.449158,-0.214634,0.800351,0.000965454,-0.000492258,0.0987079,1,4.92129e-05,-2.98286e-05,3.1106e-05,0.00984259,-0.00596573,0.0062212,0.999254,0.00161009,0.038577,0.000984426,0.521559,0.075622,-0.718382,33.25,1,25982,2646912
26,1,0.999254,0.00161009,0.038577,0.000984426,0.0971313,-0.0482603,9.87079,0.449158,-0.214634,0.800351,0.000965454,-0.000492258,0.0987079,1,4.92129e-05,-2.98286e-05,3.1106e-05,0.00984259,-0.00596573,0.0062212,0.999254,0.00161009,0.038577,0.000984426,0.521559,0.075622,-0.718382,33.25,1,25982,2646912
26,2,0.999257,0.00166077,0.0385015,0.00101093,0.137557,0.00484375,9.90829,0.494836,-0.121924,0.849279,0.00137447,3.63597e-05,0.0990829,1,6.13389e-05,-5.50054e-06,2.81759e-05,0.0122678,-0.00110011,0.00563518,0.999257,0.00166077,0.0385015,0.00101093,0.523022,0.0736679,-0.718938,33.25,1,25983,2647012
26,3,0.999257,0.00166077,0.0385015,0.00101093,0.137557,0.00484375,9.90829,0.494836,-0.121924,0.849279,0.00137447,3.63597e-05,0.0990829,1,6.13389e-05,-5.50054e-06,2.81759e-05,0.0122678,-0.00110011,0.00563518,0.999257,0.00166077,0.0385015,0.00101093,0.523022,0.0736679,-0.718938,33.25,1,25983,2647012
26,4,0.999257,0.00166077,0.0385015,0.00101093,0.137557,0.00484375,9.90829,0.494836,-0.121924,0.849279,0.00137447,3.63597e-05,0.0990829,1,6.13389e-05,-5.50054e-06,2.81759e-05,0.0122678,-0.00110011,0.00563518,0.999257,0.00166077,0.0385015,0.00101093,0.523022,0.0736679,-0.718938,33.25,1,25983,2647012
26,5,0.999261,0.00170054,0.0383952,0.00108559,0.0097581,-0.0445773,9.84292,0.335221,-0.162757,0.789025,9.5858e-05,-0.00045678,0.0984291,1,5.59431e-05,-8.87898e-06,2.75923e-05,0.0111886,-0.0017758,0.00551847,0.999261,0.00170054,0.0383952,0.00108559,0.523967,0.0731902,-0.719963,33.25,1,25984,2647112
26,6,0.999261,0.00170054,0.0383952,0.00108559,0.0097581,-0.0445773,9.84292,0.335221,-0.162757,0.789025,9.5858e-05,-0.00045678,0.0984291,1,5.59431e-05,-8.87898e-06,2.75923e-05,0.0111886,-0.0017758,0.00551847,0.999261,0.00170054,0.0383952,0.00108559,0.523967,0.0731902,-0.719963,33.25,1,25984,2647112
27,1,0.999261,0.00170054,0.0383952,0.00108559,0.0097581,-0.0445773,9.84292,0.335221,-0.162757,0.789025,9.5858e-05,-0.00045678,0.0984291,1,5.59431e-05,-8.87898e-06,2.75923e-05,0.0111886,-0.0017758,0.00551847,0.999261,0.00170054,0.0383952,0.00108559,0.523967,0.0731902,-0.719963,33.25,1,25984,2647112
27,2,0.999266,0.00175142,0.0382461,0.00118524,-0.0815346,-0.00322152,9.77061,0.263203,-0.126094,0.721398,-0.000819248,-4.54126e-05,0.097706,1,6.72211e-05,-1.99822e-05,3.7644e-05,0.0134442,-0.00399644,0.00752879,0.999266,0.00175142,0.0382461,0.00118524,0.525456,0.0726634,-0.718466,33.25,1,25985,2647212
27,3,0.999266,0.00175142,0.0382461,0.00118524,-0.0815346,-0.00322152,9.77061,0.263203,-0.126094,0.721398,-0.000819248,-4.54126e-05,0.097706,1,6.72211e-05,-1.99822e-05,3.7644e-05,0.0134442,-0.00399644,0.00752879,0.999266,0.00175142,0.0382461,0.00118524,0.525456,0.0726634,-0.718466,33.25,1,25985,2647212
27,4,0.999266,0.00175142,0.0382461,0.00118524,-0.0815346,-0.00322152,9.77061,0.263203,-0.126094,0.721398,-0.000819248,-4.54126e-05,0.097706,1,6.72211e-05,-1.99822e-05,3.7644e-05,0.0134442,-0.00399644,0.00752879,0.999266,0.00175142,0.0382461,0.00118524,0.525456,0.0726634,-0.718466,33.25,1,25985,2647212
27,5,0.999272,0.00178892,0.0380842,0.00131879,0.143941,-0.0267178,9.88457,0.462855,-0.139854,0.817117,0.00143359,-0.000276853,0.0988458,1,4.92186e-05,-2.94594e-05,1.92357e-05,0.00984372,-0.00589188,0.00384714,0.999272,0.00178892,0.0380842,0.00131879,0.524082,0.0721425,-0.715946,33.25,1,25986,2647312
27,6,0.999272,0.00178892,0.0380842,0.00131879,0.143941,-0.0267178,9.88457,0.462855,-0.139854,0.817117,0.00143359,-0.000276853,0.0988458,1,4.92186e-05,-2.94594e-05,1.92357e-05,0.00984372,-0.00589188,0.00384714,0.999272,0.00178892,0.0380842,0.00131879,0.524082,0.0721425,-0.715946,33.25,1,25986,2647312
28,1,0.999272,0.00178892,0.0380842,0.00131879,0.143941,-0.0267178,9.88457,0.462855,-0.139854,0.817117,0.00143359,-0.000276853,0.0988458,1,4.92186e-05,-2.94594e-05,1.92357e-05,0.00984372,-0.00589188,0.00384714,0.999272,0.00178892,0.0380842,0.00131879,0.524082,0.0721425,-0.715946,33.25,1,25986,2647312
28,2,0.999274,0.00181475,0.038019,0.00151206,0.150821,-0.112531,9.95808,0.521411,-0.226936,0.906157,0.00150958,-0.00113355,0.0995807,1,4.17975e-05,6.56985e-06,2.72136e-05,0.0083595,0.00131397,0.00544273,0.999274,0.00181475,0.038019,0.00151206,0.522627,0.0721635,-0.716444,33.25,1,25987,2647412
28,3,0.999274,0.00181475,0.038019,0.00151206,0.150821,-0.112531,9.95808,0.521411,-0.226936,0.906157,0.00150958,-0.00113355,0.0995807,1,4.17975e-05,6.56985e-06,2.72136e-05,0.0083595,0.00131397,0.00544273,0.999274,0.00181475,0.038019,0.00151206,0.522627,0.0721635,-0.716444,33.25,1,25987,2647412
28,4,0.999274,0.00181475,0.038019,0.00151206,0.150821,-0.112531,9.95808,0.521411,-0.226936,0.906157,0.00150958,-0.00113355,0.0995807,1,4.17975e-05,6.56985e-06,2.72136e-05,0.0083595,0.00131397,0.00544273,0.999274,0.00181475,0.038019,0.00151206,0.522627,0.0721635,-0.716444,33.25,1,25987,2647412
42,1,0.999277,0.00185706,0.0379445,0.00166259,-0.153975,-0.117375,9.76536,0.202255,-0.248041,0.737202,-0.0015405,-0.00118772,0.0976535,1,7.09984e-05,-4.23392e-06,3.28311e-05,0.0141997,-0.000846784,0.00656623,0.999277,0.00185706,0.0379445,0.00166259,0.523507,0.0741427,-0.718424,33.25,1,25988,2647512
42,2,0.999277,0.00185706,0.0379445,0.00166259,-0.153975,-0.117375,9.76536,0.202255,-0.248041,0.737202,-0.0015405,-0.00118772,0.0976535,1,7.09984e-05,-4.23392e-06,3.28311e-05,0.0141997,-0.000846784,0.00656623,0.999277,0.00185706,0.0379445,0.00166259,0.523507,0.0741427,-0.718424,33.25,1,25988,2647512
42,3,0.999277,0.00185706,0.0379445,0.00166259,-0.153975,-0.117375,9.76536,0.202255,-0.248041,0.737202,-0.0015405,-0.00118772,0.0976535,1,7.09984e-05,-4.23392e-06,3.28311e-05,0.0141997,-0.000846784,0.00656623,0.999277,0.00185706,0.0379445,0.00166259,0.523507,0.0741427,-0.718424,33.25,1,25988,2647512
42,4,0.999282,0.0019033,0.0378,0.00174003,-0.00871979,0.0266596,9.79209,0.284538,-0.0711294,0.734136,-9.29781e-05,0.00025657,0.0979209,1,5.11503e-05,-2.93824e-05,4.93668e-05,0.0102301,-0.00587647,0.00987336,0.999282,0.0019033,0.0378,0.00174003,0.52495,0.0726854,-0.719473,33.25,1,25989,2647612
42,5,0.999282,0.0019033,0.0378,0.00174003,-0.00871979,0.0266596,9.79209,0.284538,-0.0711294,0.734136,-9.29781e-05,0.00025657,0.0979209,1,5.11503e-05,-2.93824e-05,4.93668e-05,0.0102301,-0.00587647,0.00987336,0.999282,0.0019033,0.0378,0.00174003,0.52495,0.0726854,-0.719473,33.25,1,25989,2647612
42,6,0.999282,0.0019033,0.0378,0.00174003,-0.00871979,0.0266596,9.79209,0.284538,-0.0711294,0.734136,-9.29781e-05,0.00025657,0.0979209,1,5.11503e-05,-2.93824e-05,4.93668e-05,0.0102301,-0.00587647,0.00987336,0.999282,0.0019033,0.0378,0.00174003,0.52495,0.0726854,-0.719473,33.25,1,25989,2647612
42,7,0.999288,0.00194681,0.0376217,0.00192238,0.0980576,-0.0957705,9.91041,0.507962,-0.213887,0.856797,0.000981854,-0.000966082,0.099104,1,4.26879e-05,6.03171e-06,4.2919e-05,0.00853758,0.00120634,0.00858381,0.999288,0.00194681,0.0376217,0.00192238,0.525381,0.0712722,-0.722537,33.25,1,25990,2647712
42,8,0.999288,0.00194681,0.0376217,0.00192238,0.0980576,-0.0957705,9.91041,0.507962,-0.213887,0.856797,0.000981854,-0.000966082,0.099104,1,4.26879e-05,6.03171e-06,4.2919e-05,0.00853758,0.00120634,0.00858381,0.999288,0.00194681,0.0376217,0.00192238,0.525381,0.0712722,-0.722537,33.25,1,25990,2647712
30,1,0.999288,0.00194681,0.0376217,0.00192238,0.0980576,-0.0957705,9.91041,0.507962,-0.213887,0.856797,0.000981854,-0.000966082,0.099104,1,4.26879e-05,6.03171e-06,4.2919e-05,0.00853758,0.00120634,0.00858381,0.999288,0.00194681,0.0376217,0.00192238,0.525381,0.0712722,-0.722537,33.25,1,25990,2647712
30,2,0.999299,0.00199461,0.0373188,0.00219326,-0.212058,-0.0628895,9.79302,0.164102,-0.189407,0.775027,-0.00211962,-0.000637689,0.0979302,1,4.37518e-05,4.54871e-06,5.30853e-05,0.00875037,0.000909743,0.0106171,0.999299,0.00199461,0.0373188,0.00219326,0.526389,0.0707494,-0.721038,33.25,1,25991,2647812
30,3,0.999299,0.00199461,0.0373188,0.00219326,-0.212058,-0.0628895,9.79302,0.164102,-0.189407,0.775027,-0.00211962,-0.000637689,0.0979302,1,4.37518e-05,4.54871e-06,5.30853e-05,0.00875037,0.000909743,0.0106171,0.999299,0.00199461,0.0373188,0.00219326,0.526389,0.0707494,-0.721038,33.25,1,25991,2647812
30,4,0.999299,0.00199461,0.0373188,0.00219326,-0.212058,-0.0628895,9.79302,0.164102,-0.189407,0.775027,-0.00211962,-0.000637689,0.0979302,1,4.37518e-05,4.54871e-06,5.30853e-05,0.00875037,0.000909743,0.0106171,0.999299,0.00199461,0.0373188,0.00219326,0.526389,0.0707494,-0.721038,33.25,1,25991,2647812
30,5,0.999311,0.0021069,0.0369504,0.00264464,-0.135775,-0.0882968,9.7075,0.151539,-0.249384,0.670039,-0.00136631,-0.000901173,0.0970747,1,9.30524e-05,-4.45688e-05,5.08708e-05,0.0186105,-0.00891376,0.0101742,0.999311,0.0021069,0.0369504,0.00264464,0.525468,0.0712091,-0.719004,33.25,1,25992,2647912
30,6,0.999311,0.0021069,0.0369504,0.00264464,-0.135775,-0.0882968,9.7075,0.151539,-0.249384,0.670039,-0.00136631,-0.000901173,0.0970747,1,9.30524e-05,-4.45688e-05,5.08708e-05,0.0186105,-0.00891376,0.0101742,0.999311,0.0021069,0.0369504,0.00264464,0.525468,0.0712091,-0.719004,33.25,1,25992,2647912
44,1,0.999311,0.0021069,0.0369504,0.00264464,-0.135775,-0.0882968,9.7075,0.151539,-0.249384,0.670039,-0.00136631,-0.000901173,0.0970747,1,9.30524e-05,-4.45688e-05,5.08708e-05,0.0186105,-0.00891376,0.0101742,0.999311,0.0021069,0.0369504,0.00264464,0.525468,0.0712091,-0.719004,33.25,1,25992,2647912
44,2,0.999319,0.00218595,0.0366995,0.00312672,0.266655,0.0488265,9.90847,0.571744,-0.060216,0.827518,0.00266278,0.000474925,0.0990849,1,6.89596e-05,-1.87199e-05,6.12057e-05,0.0137919,-0.00374397,0.0122412,0.999319,0.00218595,0.0366995,0.00312672,0.52504,0.0702105,-0.717509,33.25,1,25993,2648012
44,3,0.999319,0.00218595,0.0366995,0.00312672,0.266655,0.0488265,9.90847,0.571744,-0.060216,0.827518,0.00266278,0.000474925,0.0990849,1,6.89596e-05,-1.87199e-05,6.12057e-05,0.0137919,-0.00374397,0.0122412,0.999319,0.00218595,0.0366995,0.00312672,0.52504,0.0702105,-0.717509,33.25,1,25993,2648012
44,4,0.999319,0.00218595,0.0366995,0.00312672,0.266655,0.0488265,9.90847,0.571744,-0.060216,0.827518,0.00266278,0.000474925,0.0990849,1,6.89596e-05,-1.87199e-05,6.12057e-05,0.0137919,-0.00374397,0.0122412,0.999319,0.00218595,0.0366995,0.00312672,0.52504,0.0702105,-0.717509,33.25,1,25993,2648012
44,5,0.999323,0.00220515,0.0365327,0.00371975,-0.0536347,-0.0553464,9.81746,0.325247,-0.183696,0.789586,-0.000533402,-0.000562189,0.0981746,1,4.41035e-05,1.4655e-05,6.13502e-05,0.0088207,0.00293099,0.01227,0.999323,0.00220515,0.0365327,0.00371975,0.525977,0.0687753,-0.719565,33.25,1,25994,2648112
44,6,0.999323,0.00220515,0.0365327,0.00371975,-0.0536347,-0.0553464,9.81746,0.325247,-0.183696,0.789586,-0.000533402,-0.000562189,0.0981746,1,4.41035e-05,1.4655e-05,6.13502e-05,0.0088207,0.00293099,0.01227,0.999323,0.00220515,0.0365327,0.00371975,0.525977,0.0687753,-0.719565,33.25,1,25994,2648112
44,7,0.999323,0.00220515,0.0365327,0.00371975,-0.0536347,-0.0553464,9.81746,0.325247,-0.183696,0.789586,-0.000533402,-0.000562189,0.0981746,1,4.41035e-05,1.4655e-05,6.13502e-05,0.0088207,0.00293099,0.01227,0.999323,0.00220515,0.0365327,0.00371975,0.525977,0.0687753,-0.719565,33.25,1,25994,2648112
44,8,0.999334,0.00229645,0.0361418,0.00456411,-0.152649,-0.183518,9.76344,0.137609,-0.301283,0.723765,-0.00152974,-0.00184769,0.0976341,1,6.33205e-05,-1.75318e-05,4.79929e-05,0.0126641,-0.00350636,0.00959859,0.999334,0.00229645,0.0361418,0.00456411,0.527371,0.0687993,-0.721591,33.25,1,25995,2648212
44,9,0.999334,0.00229645,0.0361418,0.00456411,-0.152649,-0.183518,9.76344,0.137609,-0.301283,0.723765,-0.00152974,-0.00184769,0.0976341,1,6.33205e-05,-1.75318e-05,4.79929e-05,0.0126641,-0.00350636,0.00959859,0.999334,0.00229645,0.0361418,0.00456411,0.527371,0.0687993,-0.721591,33.25,1,25995,2648212
44,10,0.999334,0.00229645,0.0361418,0.00456411,-0.152649,-0.183518,9.76344,0.137609,-0.301283,0.723765,-0.00152974,-0.00184769,0.0976341,1,6.33205e-05,-1.75318e-05,4.79929e-05,0.0126641,-0.00350636,0.00959859,0.999334,0.00229645,0.0361418,0.00456411,0.527371,0.0687993,-0.721591,33.25,1,25995,2648212
45,1,0.999348,0.00254637,0.0355604,0.00579512,0.0958223,0.00575035,9.93572,0.494218,-0.0947178,0.886532,0.000954348,4.04032e-05,0.0993572,1,8.65282e-05,-1.94753e-05,4.9203e-05,0.0173056,-0.00389506,0.00984061,0.999348,0.00254637,0.0355604,0.00579512,0.528305,0.0697759,-0.722079,33.25,1,25996,2648312
45,2,0.999348,0.00254637,0.0355604,0.00579512,0.0958223,0.00575035,9.93572,0.494218,-0.0947178,0.886532,0.000954348,4.04032e-05,0.0993572,1,8.65282e-05,-1.94753e-05,4.9203e-05,0.0173056,-0.00389506,0.00984061,0.999348,0.00254637,0.0355604,0.00579512,0.528305,0.0697759,-0.722079,33.25,1,25996,2648312
45,3,0.999348,0.00254637,0.0355604,0.00579512,0.0958223,0.00575035,9.93572,0.494218,-0.0947178,0.886532,0.000954348,4.04032e-05,0.0993572,1,8.65282e-05,-1.94753e-05,4.9203e-05,0.0173056,-0.00389506,0.00984061,0.999348,0.00254637,0.0355604,0.00579512,0.528305,0.0697759,-0.722079,33.25,1,25996,2648312
45,4,0.999358,0.00293465,0.0349378,0.00739463,-0.265049,-0.0258984,9.84493,0.0816908,-0.129486,0.81426,-0.00265436,-0.000274492,0.0984492,1,7.77622e-05,-1.97724e-05,3.69506e-05,0.0155524,-0.00395448,0.00739012,0.999358,0.00293465,0.0349378,0.00739463,0.528802,0.0702416,-0.721061,33.25,1,25997,2648412
45,5,0.999358,0.00293465,0.0349378,0.00739463,-0.265049,-0.0258984,9.84493,0.0816908,-0.129486,0.81426,-0.00265436,-0.000274492,0.0984492,1,7.77622e-05,-1.97724e-05,3.69506e-05,0.0155524,-0.00395448,0.00739012,0.999358,0.00293465,0.0349378,0.00739463,0.528802,0.0702416,-0.721061,33.25,1,25997,2648412
45,6,0.999358,0.00293465,0.0349378,0.00739463,-0.265049,-0.0258984,9.84493,0.0816908,-0.129486,0.81426,-0.00265436,-0.000274492,0.0984492,1,7.77622e-05,-1.97724e-05,3.69506e-05,0.0155524,-0.00395448,0.00739012,0.999358,0.00293465,0.0349378,0.00739463,0.528802,0.0702416,-0.721061,33.25,1,25997,2648412
45,7,0.99936,0.00333377,0.0344206,0.00916242,0.0865394,-0.0413102,9.86109,0.211942,-0.240366,0.750599,0.000854588,-0.000428176,0.0986109,1,7.67323e-05,-5.49345e-05,3.39684e-05,0.0153465,-0.0109869,0.00679368,0.99936,0.00333377,0.0344206,0.00916242,0.526911,0.0711971,-0.719011,33.25,1,25998,2648512
45,8,0.99936,0.00333377,0.0344206,0.00916242,0.0865394,-0.0413102,9.86109,0.211942,-0.240366,0.750599,0.000854588,-0.000428176,0.0986109,1,7.67323e-05,-5.49345e-05,3.39684e-05,0.0153465,-0.0109869,0.00679368,0.99936,0.00333377,0.0344206,0.00916242,0.526911,0.0711971,-0.719011,33.25,1,25998,2648512
46,1,0.99936,0.00333377,0.0344206,0.00916242,0.0865394,-0.0413102,9.86109,0.211942,-0.240366,0.750599,0.000854588,-0.000428176,0.0986109,1,7.67323e-05,-5.49345e-05,3.39684e-05,0.0153465,-0.0109869,0.00679368,0.99936,0.00333377,0.0344206,0.00916242,0.526911,0.0711971,-0.719011,33.25,1,25998,2648512
46,2,0.999358,0.00340474,0.0343116,0.00969146,0.216572,-0.0401187,9.89245,0.410674,-0.223723,0.836702,0.00216721,-0.000411024,0.0989245,1,5.06157e-05,7.3563e-06,4.08882e-05,0.0101231,0.00147126,0.00817764,0.999358,0.00340474,0.0343116,0.00969146,0.526471,0.0716528,-0.716978,33.25,1,25999,2648612
46,3,0.999358,0.00340474,0.0343116,0.00969146,0.216572,-0.0401187,9.89245,0.410674,-0.223723,0.836702,0.00216721,-0.000411024,0.0989245,1,5.06157e-05,7.3563e-06,4.08882e-05,0.0101231,0.00147126,0.00817764,0.999358,0.00340474,0.0343116,0.00969146,0.526471,0.0716528,-0.716978,33.25,1,25999,2648612
46,4,0.999358,0.00340474,0.0343116,0.00969146,0.216572,-0.0401187,9.89245,0.410674,-0.223723,0.836702,0.00216721,-0.000411024,0.0989245,1,5.06157e-05,7.3563e-06,4.08882e-05,0.0101231,0.00147126,0.00817764,0.999358,0.00340474,0.0343116,0.00969146,0.526471,0.0716528,-0.716978,33.25,1,25999,2648612
46,5,0.999359,0.00342201,0.0342533,0.00978731,-0.382759,-0.248341,9.73934,-0.0711887,-0.385444,0.729279,-0.00382607,-0.0025001,0.0973931,1,8.37963e-05,6.59648e-06,4.86118e-05,0.0167593,0.0013193,0.00972235,0.999359,0.00342201,0.0342533,0.00978731,0.528363,0.0706973,-0.719028,33.25,1,26000,2648712
46,6,0.999359,0.00342201,0.0342533,0.00978731,-0.382759,-0.248341,9.73934,-0.0711887,-0.385444,0.729279,-0.00382607,-0.0025001,0.0973931,1,8.37963e-05,6.59648e-06,4.86118e-05,0.0167593,0.0013193,0.00972235,0.999359,0.00342201,0.0342533,0.00978731,0.528363,0.0706973,-0.719028,33.25,1,26000,2648712
46,7,0.999359,0.00342201,0.0342533,0.00978731,-0.382759,-0.248341,9.73934,-0.0711887,-0.385444,0.729279,-0.00382607,-0.0025001,0.0973931,1,8.37963e-05,6.59648e-06,4.86118e-05,0.0167593,0.0013193,0.00972235,0.999359,0.00342201,0.0342533,0.00978731,0.528363,0.0706973,-0.719028,33.25,1,26000,2648712
46,8,0.999365,0.00354697,0.0340439,0.00993211,-0.0382673,-0.135744,9.89404,0.264604,-0.294437,0.818645,-0.000394232,-0.00138203,0.0989401,1,0.000124109,-5.89703e-05,4.03317e-05,0.0248218,-0.0117941,0.00806634,0.999365,0.00354697,0.0340439,0.00993211,0.528341,0.0668583,-0.722649,33.25,1,26001,2648812
34,1,0.999365,0.00354697,0.0340439,0.00993211,-0.0382673,-0.135744,9.89404,0.264604,-0.294437,0.818645,-0.000394232,-0.00138203,0.0989401,1,0.000124109,-5.89703e-05,4.03317e-05,0.0248218,-0.0117941,0.00806634,0.999365,0.00354697,0.0340439,0.00993211,0.528341,0.0668583,-0.722649,33.25,1,26001,2648812
34,2,0.999365,0.00354697,0.0340439,0.00993211,-0.0382673,-0.135744,9.89404,0.264604,-0.294437,0.818645,-0.000394232,-0.00138203,0.0989401,1,0.000124109,-5.89703e-05,4.03317e-05,0.0248218,-0.0117941,0.00806634,0.999365,0.00354697,0.0340439,0.00993211,0.528341,0.0668583,-0.722649,33.25,1,26001,2648812
34,3,0.99937,0.00361988,0.0338595,0.00998775,0.149225,0.127458,9.88076,0.273906,-0.0881041,0.824483,0.00148653,0.00125638,0.0988079,1,9.27081e-05,-2.84477e-05,3.92605e-05,0.0185416,-0.00568955,0.00785209,0.99937,0.00361988,0.0338595,0.00998775,0.526922,0.065407,-0.722675,33.25,1,26002,2648912
34,4,0.99937,0.00361988,0.0338595,0.00998775,0.149225,0.127458,9.88076,0.273906,-0.0881041,0.824483,0.00148653,0.00125638,0.0988079,1,9.27081e-05,-2.84477e-05,3.92605e-05,0.0185416,-0.00568955,0.00785209,0.99937,0.00361988,0.0338595,0.00998775,0.526922,0.065407,-0.722675,33.25,1,26002,2648912
34,5,0.99937,0.00361988,0.0338595,0.00998775,0.149225,0.127458,9.88076,0.273906,-0.0881041,0.824483,0.00148653,0.00125638,0.0988079,1,9.27081e-05,-2.84477e-05,3.92605e-05,0.0185416,-0.00568955,0.00785209,0.99937,0.00361988,0.0338595,0.00998775,0.526922,0.065407,-0.722675,33.25,1,26002,2648912
34,6,0.999375,0.00364763,0.0337136,0.0100215,-0.136537,0.118568,9.7778,0.21647,-0.0484393,0.76289,-0.00136664,0.00117478,0.0977781,1,5.51724e-05,-6.00384e-06,4.07997e-05,0.0110345,-0.00120077,0.00815993,0.999375,0.00364763,0.0337136,0.0100215,0.527424,0.0663515,-0.721141,33.25,1,26003,2649012
34,7,0.999375,0.00364763,0.0337136,0.0100215,-0.136537,0.118568,9.7778,0.21647,-0.0484393,0.76289,-0.00136664,0.00117478,0.0977781,1,5.51724e-05,-6.00384e-06,4.07997e-05,0.0110345,-0.00120077,0.00815993,0.999375,0.00364763,0.0337136,0.0100215,0.527424,0.0663515,-0.721141,33.25,1,26003,2649012
34,8,0.999375,0.00364763,0.0337136,0.0100215,-0.136537,0.118568,9.7778,0.21647,-0.0484393,0.76289,-0.00136664,0.00117478,0.0977781,1,5.51724e-05,-6.00384e-06,4.07997e-05,0.0110345,-0.00120077,0.00815993,0.999375,0.00364763,0.0337136,0.0100215,0.527424,0.0663515,-0.721141,33.25,1,26003,2649012
48,1,0.999381,0.00371477,0.0335029,0.010041,-0.00844617,0.0928803,9.85,0.162514,-0.0351903,0.767381,-9.90258e-05,0.000910888,0.0985002,1,9.0912e-05,-7.36352e-05,3.1499e-05,0.0181824,-0.014727,0.0062998,0.999381,0.00371477,0.0335029,0.010041,0.526441,0.0683015,-0.720588,33.25,1,26004,2649112
48,2,0.999381,0.00371477,0.0335029,0.010041,-0.00844617,0.0928803,9.85,0.162514,-0.0351903,0.767381,-9.90258e-05,0.000910888,0.0985002,1,9.0912e-05,-7.36352e-05,3.1499e-05,0.0181824,-0.014727,0.0062998,0.999381,0.00371477,0.0335029,0.010041,0.526441,0.0683015,-0.720588,33.25,1,26004,2649112
48,3,0.999381,0.00371477,0.0335029,0.010041,-0.00844617,0.0928803,9.85,0.162514,-0.0351903,0.767381,-9.90258e-05,0.000910888,0.0985002,1,9.0912e-05,-7.36352e-05,3.1499e-05,0.0181824,-0.014727,0.0062998,0.999381,0.00371477,0.0335029,0.010041,0.526441,0.0683015,-0.720588,33.25,1,26004,2649112
48,4,0.999385,0.00374178,0.033406,0.010039,0.248336,0.145925,9.95121,0.381895,-0.000166016,0.906125,0.00249196,0.00144907,0.099512,1,5.1478e-05,4.34327e-05,1.3663e-05,0.0102956,0.00868655,0.00273261,0.999385,0.00374178,0.033406,0.010039,0.526943,0.0678007,-0.720096,33.25,1,26005,2649212
48,5,0.999385,0.00374178,0.033406,0.010039,0.248336,0.145925,9.95121,0.381895,-0.000166016,0.906125,0.00249196,0.00144907,0.099512,1,5.1478e-05,4.34327e-05,1.3663e-05,0.0102956,0.00868655,0.00273261,0.999385,0.00374178,0.033406,0.010039,0.526943,0.0678007,-0.720096,33.25,1,26005,2649212
48,6,0.999385,0.00374178,0.033406,0.010039,0.248336,0.145925,9.95121,0.381895,-0.000166016,0.906125,0.00249196,0.00144907,0.099512,1,5.1478e-05,4.34327e-05,1.3663e-05,0.0102956,0.00868655,0.00273261,0.999385,0.00374178,0.033406,0.010039,0.526943,0.0678007,-0.720096,33.25,1,26005,2649212
48,7,0.99939,0.00376901,0.033237,0.010047,-0.546297,0.0251002,9.81306,-0.022944,-0.103779,0.784444,-0.0054674,0.000240824,0.0981304,1,5.08651e-05,-2.25586e-05,1.78793e-05,0.010173,-0.00451173,0.00357587,0.99939,0.00376901,0.033237,0.010047,0.528855,0.0663485,-0.721653,33.25,1,26006,2649312
48,8,0.99939,0.00376901,0.033237,0.010047,-0.546297,0.0251002,9.81306,-0.022944,-0.103779,0.784444,-0.0054674,0.000240824,0.0981304,1,5.08651e-05,-2.25586e-05,1.78793e-05,0.010173,-0.00451173,0.00357587,0.99939,0.00376901,0.033237,0.010047,0.528855,0.0663485,-0.721653,33.25,1,26006,2649312
48,9,0.99939,0.00376901,0.033237,0.010047,-0.546297,0.0251002,9.81306,-0.022944,-0.103779,0.784444,-0.0054674,0.000240824,0.0981304,1,5.08651e-05,-2.25586e-05,1.78793e-05,0.010173,-0.00451173,0.00357587,0.99939,0.00376901,0.033237,0.010047,0.528855,0.0663485,-0.721653,33.25,1,26006,2649312
48,10,0.999396,0.00377492,0.0330473,0.0100482,0.213077,-0.150441,9.77287,0.0890838,-0.357927,0.712088,0.00212269,-0.0015103,0.0977288,1,3.03408e-05,-4.15127e-05,9.57908e-06,0.00606815,-0.00830254,0.00191582,0.999396,0.00377492,0.0330473,0.0100482,0.53126,0.0663285,-0.721664,33.25,1,26007,2649412
49,1,0.999396,0.00377492,0.0330473,0.0100482,0.213077,-0.150441,9.77287,0.0890838,-0.357927,0.712088,0.00212269,-0.0015103,0.0977288,1,3.03408e-05,-4.15127e-05,9.57908e-06,0.00606815,-0.00830254,0.00191582,0.999396,0.00377492,0.0330473,0.0100482,0.53126,0.0663285,-0.721664,33.25,1,26007,2649412
49,2,0.999396,0.00377492,0.0330473,0.0100482,0.213077,-0.150441,9.77287,0.0890838,-0.357927,0.712088,0.00212269,-0.0015103,0.0977288,1,3.03408e-05,-4.15127e-05,9.57908e-06,0.00606815,-0.00830254,0.00191582,0.999396,0.00377492,0.0330473,0.0100482,0.53126,0.0663285,-0.721664,33.25,1,26007,2649412
49,3,0.9994,0.00379346,0.0329132,0.0100573,-0.302495,-0.0487668,9.93564,0.176483,-0.258823,0.880948,-0.00302154,-0.000496506,0.0993565,1,4.38969e-05,1.70898e-05,1.91019e-05,0.00877939,0.00341795,0.00382037,0.9994,0.00379346,0.0329132,0.0100573,0.530232,0.0673481,-0.723657,33.25,1,26008,2649512
49,4,0.9994,0.00379346,0.0329132,0.0100573,-0.302495,-0.0487668,9.93564,0.176483,-0.258823,0.880948,-0.00302154,-0.000496506,0.0993565,1,4.38969e-05,1.70898e-05,1.91019e-05,0.00877939,0.00341795,0.00382037,0.9994,0.00379346,0.0329132,0.0100573,0.530232,0.0673481,-0.723657,33.25,1,26008,2649512
49,5,0.9994,0.00379346,0.0329132,0.0100573,-0.302495,-0.0487668,9.93564,0.176483,-0.258823,0.880948,-0.00302154,-0.000496506,0.0993565,1,4.38969e-05,1.70898e-05,1.91019e-05,0.00877939,0.00341795,0.00382037,0.9994,0.00379346,0.0329132,0.0100573,0.530232,0.0673481,-0.723657,33.25,1,26008,2649512
49,6,0.999407,0.00381205,0.0327127,0.0100375,0.29157,0.100594,9.84299,0.361563,-0.0696206,0.821641,0.00290584,0.000997068,0.0984303,1,4.48341e-05,-5.01608e-05,-8.38818e-06,0.00896681,-0.0100322,-0.00167764,0.999407,0.00381205,0.0327127,0.0100375,0.52978,0.0663675,-0.723172,33.25,1,26009,2649612
37,1,0.999407,0.00381205,0.0327127,0.0100375,0.29157,0.100594,9.84299,0.361563,-0.0696206,0.821641,0.00290584,0.000997068,0.0984303,1,4.48341e-05,-5.01608e-05,-8.38818e-06,0.00896681,-0.0100322,-0.00167764,0.999407,0.00381205,0.0327127,0.0100375,0.52978,0.0663675,-0.723172,33.25,1,26009,2649612
37,2,0.999407,0.00381205,0.0327127,0.0100375,0.29157,0.100594,9.84299,0.361563,-0.0696206,0.821641,0.00290584,0.000997068,0.0984303,1,4.48341e-05,-5.01608e-05,-8.38818e-06,0.00896681,-0.0100322,-0.00167764,0.999407,0.00381205,0.0327127,0.0100375,0.52978,0.0663675,-0.723172,33.25,1,26009,2649612
37,3,0.999411,0.00381827,0.0326043,0.0100097,-0.170576,0.175405,9.86334,0.0938892,-0.0302818,0.795146,-0.00169647,0.00174756,0.0986337,1,3.32349e-05,4.67394e-05,-1.98748e-05,0.00664698,0.00934788,-0.00397496,0.999411,0.00381827,0.0326043,0.0100097,0.529878,0.0662954,-0.719133,33.25,1,26010,2649712
37,4,0.999411,0.00381827,0.0326043,0.0100097,-0.170576,0.175405,9.86334,0.0938892,-0.0302818,0.795146,-0.00169647,0.00174756,0.0986337,1,3.32349e-05,4.67394e-05,-1.98748e-05,0.00664698,0.00934788,-0.00397496,0.999411,0.00381827,0.0326043,0.0100097,0.529878,0.0662954,-0.719133,33.25,1,26010,2649712
37,5,0.999411,0.00381827,0.0326043,0.0100097,-0.170576,0.175405,9.86334,0.0938892,-0.0302818,0.795146,-0.00169647,0.00174756,0.0986337,1,3.32349e-05,4.67394e-05,-1.98748e-05,0.00664698,0.00934788,-0.00397496,0.999411,0.00381827,0.0326043,0.0100097,0.529878,0.0662954,-0.719133,33.25,1,26010,2649712
37,6,0.999417,0.00380936,0.0324313,0.0099518,-0.16087,0.02417,9.87519,0.149285,-0.0962791,0.873356,-0.00161222,0.000238474,0.0987519,1,1.71505e-05,-1.79581e-05,-4.99086e-05,0.00343011,-0.00359162,-0.00998173,0.999417,0.00380936,0.0324313,0.0099518,0.529928,0.0662593,-0.717114,33.25,1,26011,2649812
37,7,0.999417,0.00380936,0.0324313,0.0099518,-0.16087,0.02417,9.87519,0.149285,-0.0962791,0.873356,-0.00161222,0.000238474,0.0987519,1,1.71505e-05,-1.79581e-05,-4.99086e-05,0.00343011,-0.00359162,-0.00998173,0.999417,0.00380936,0.0324313,0.0099518,0.529928,0.0662593,-0.717114,33.25,1,26011,2649812
37,8,0.999417,0.00380936,0.0324313,0.0099518,-0.16087,0.02417,9.87519,0.149285,-0.0962791,0.873356,-0.00161222,0.000238474,0.0987519,1,1.71505e-05,-1.79581e-05,-4.99086e-05,0.00343011,-0.00359162,-0.00998173,0.999417,0.00380936,0.0324313,0.0099518,0.529928,0.0662593,-0.717114,33.25,1,26011,2649812
37,9,0.999424,0.00382492,0.0322416,0.00987337,-0.20597,-0.0329464,9.86044,-0.152437,-0.191439,0.797019,-0.00206622,-0.000337518,0.0986042,1,4.22792e-05,-3.28019e-05,-6.8775e-05,0.00845584,-0.00656038,-0.013755,0.999424,0.00382492,0.0322416,0.00987337,0.53036,0.0662914,-0.719136,33.25,1,26012,2649912
37,10,0.999424,0.00382492,0.0322416,0.00987337,-0.20597,-0.0329464,9.86044,-0.152437,-0.191439,0.797019,-0.00206622,-0.000337518,0.0986042,1,4.22792e-05,-3.28019e-05,-6.8775e-05,0.00845584,-0.00656038,-0.013755,0.999424,0.00382492,0.0322416,0.00987337,0.53036,0.0662914,-0.719136,33.25,1,26012,2649912
38,1,0.999424,0.00382492,0.0322416,0.00987337,-0.20597,-0.0329464,9.86044,-0.152437,-0.191439,0.797019,-0.00206622,-0.000337518,0.0986042,1,4.22792e-05,-3.28019e-05,-6.8775e-05,0.00845584,-0.00656038,-0.013755,0.999424,0.00382492,0.0322416,0.00987337,0.53036,0.0662914,-0.719136,33.25,1,26012,2649912
38,2,0.999429,0.00383993,0.0321028,0.00978413,-0.175965,-0.311408,9.86497,0.105914,-0.451909,0.802612,-0.00175628,-0.0031223,0.0986495,1,4.30918e-05,1.96102e-05,-8.00419e-05,0.00861837,0.00392203,-0.0160084,0.999429,0.00383993,0.0321028,0.00978413,0.532736,0.0643654,-0.721715,33.25,1,26013,2650012
38,3,0.999429,0.00383993,0.0321028,0.00978413,-0.175965,-0.311408,9.86497,0.105914,-0.451909,0.802612,-0.00175628,-0.0031223,0.0986495,1,4.30918e-05,1.96102e-05,-8.00419e-05,0.00861837,0.00392203,-0.0160084,0.999429,0.00383993,0.0321028,0.00978413,0.532736,0.0643654,-0.721715,33.25,1,26013,2650012
38,4,0.999429,0.00383993,0.0321028,0.00978413,-0.175965,-0.311408,9.86497,0.105914,-0.451909,0.802612,-0.00175628,-0.0031223,0.0986495,1,4.30918e-05,1.96102e-05,-8.00419e-05,0.00861837,0.00392203,-0.0160084,0.999429,0.00383993,0.0321028,0.00978413,0.532736,0.0643654,-0.721715,33.25,1,26013,2650012
38,5,0.999436,0.00387883,0.0319284,0.00967641,-0.0370026,-0.201188,9.85377,0.114702,-0.382075,0.822726,-0.00037334,-0.00202553,0.0985374,1,6.96134e-05,-1.48365e-05,-9.66279e-05,0.0139227,-0.00296729,-0.0193256,0.999436,0.00387883,0.0319284,0.00967641,0.532258,0.0634029,-0.722239,33.25,1,26014,2650112
38,6,0.999436,0.00387883,0.0319284,0.00967641,-0.0370026,-0.201188,9.85377,0.114702,-0.382075,0.822726,-0.00037334,-0.00202553,0.0985374,1,6.96134e-05,-1.48365e-05,-9.66279e-05,0.0139227,-0.00296729,-0.0193256,0.999436,0.00387883,0.0319284,0.00967641,0.532258,0.0634029,-0.722239,33.25,1,26014,2650112
38,7,0.999436,0.00387883,0.0319284,0.00967641,-0.0370026,-0.201188,9.85377,0.114702,-0.382075,0.822726,-0.00037334,-0.00202553,0.0985374,1,6.96134e-05,-1.48365e-05,-9.66279e-05,0.0139227,-0.00296729,-0.0193256,0.999436,0.00387883,0.0319284,0.00967641,0.532258,0.0634029,-0.722239,33.25,1,26014,2650112
38,8,0.999442,0.00392069,0.0317677,0.00953793,-0.131265,0.0838306,9.73675,-0.000857767,-0.153056,0.690598,-0.0013124,0.000823977,0.0973676,1,7.53002e-05,1.70156e-07,-0.000127424,0.01506,3.40312e-05,-0.0254848,0.999442,0.00392069,0.0317677,0.00953793,0.531317,0.0643594,-0.720698,33.25,1,26015,2650212
38,9,0.999442,0.00392069,0.0317677,0.00953793,-0.131265,0.0838306,9.73675,-0.000857767,-0.153056,0.690598,-0.0013124,0.000823977,0.0973676,1,7.53002e-05,1.70156e-07,-0.000127424,0.01506,3.40312e-05,-0.0254848,0.999442,0.00392069,0.0317677,0.00953793,0.531317,0.0643594,-0.720698,33.25,1,26015,2650212
38,10,0.999442,0.00392069,0.0317677,0.00953793,-0.131265,0.0838306,9.73675,-0.000857767,-0.153056,0.690598,-0.0013124,0.000823977,0.0973676,1,7.53002e-05,1.70156e-07,-0.000127424,0.01506,3.40312e-05,-0.0254848,0.999442,0.00392069,0.0317677,0.00953793,0.531317,0.0643594,-0.720698,33.25,1,26015,2650212
39,1,0.999448,0.0039403,0.0316103,0.00940793,-0.224721,0.0912527,9.81648,0.0221489,-0.0837158,0.755025,-0.00224604,0.000902795,0.0981649,1,5.22991e-05,4.83754e-06,-0.000119282,0.0104598,0.000967508,-0.0238564,0.999448,0.0039403,0.0316103,0.00940793,0.531309,0.0648471,-0.720687,33.25,1,26016,2650312
39,2,0.999448,0.0039403,0.0316103,0.00940793,-0.224721,0.0912527,9.81648,0.0221489,-0.0837158,0.755025,-0.00224604,0.000902795,0.0981649,1,5.22991e-05,4.83754e-06,-0.000119282,0.0104598,0.000967508,-0.0238564,0.999448,0.0039403,0.0316103,0.00940793,0.531309,0.0648471,-0.720687,33.25,1,26016,2650312
39,3,0.999448,0.0039403,0.0316103,0.00940793,-0.224721,0.0912527,9.81648,0.0221489,-0.0837158,0.755025,-0.00224604,0.000902795,0.0981649,1,5.22991e-05,4.83754e-06,-0.000119282,0.0104598,0.000967508,-0.0238564,0.999448,0.0039403,0.0316103,0.00940793,0.531309,0.0648471,-0.720687,33.25,1,26016,2650312
39,4,0.999455,0.0039276,0.0314549,0.00925154,-0.160697,-0.0101882,9.92408,0.0395689,-0.177877,0.888566,-0.00160543,-0.000105434,0.0992409,1,2.02682e-05,7.87539e-06,-0.000146741,0.00405364,0.00157508,-0.0293482,0.999455,0.0039276,0.0314549,0.00925154,0.531819,0.0638586,-0.720206,33.25,1,26017,2650412
39,5,0.999455,0.0039276,0.0314549,0.00925154,-0.160697,-0.0101882,9.92408,0.0395689,-0.177877,0.888566,-0.00160543,-0.000105434,0.0992409,1,2.02682e-05,7.87539e-06,-0.000146741,0.00405364,0.00157508,-0.0293482,0.999455,0.0039276,0.0314549,0.00925154,0.531819,0.0638586,-0.720206,33.25,1,26017,2650412
39,6,0.999455,0.0039276,0.0314549,0.00925154,-0.160697,-0.0101882,9.92408,0.0395689,-0.177877,0.888566,-0.00160543,-0.000105434,0.0992409,1,2.02682e-05,7.87539e-06,-0.000146741,0.00405364,0.00157508,-0.0293482,0.999455,0.0039276,0.0314549,0.00925154,0.531819,0.0638586,-0.720206,33.25,1,26017,2650412
39,7,0.999462,0.00395536,0.0312767,0.00909403,-0.24701,-0.0266473,9.86211,-0.110444,-0.194578,0.843843,-0.00247303,-0.000277714,0.098621,1,6.06617e-05,-1.44462e-05,-0.000146479,0.0121323,-0.00288923,-0.0292958,0.999462,0.00395536,0.0312767,0.00909403,0.532275,0.0638726,-0.721218,33.25,1,26018,2650512
39,8,0.999462,0.00395536,0.0312767,0.00909403,-0.24701,-0.0266473,9.86211,-0.110444,-0.194578,0.843843,-0.00247303,-0.000277714,0.098621,1,6.06617e-05,-1.44462e-05,-0.000146479,0.0121323,-0.00288923,-0.0292958,0.999462,0.00395536,0.0312767,0.00909403,0.532275,0.0638726,-0.721218,33.25,1,26018,2650512
39,9,0.999462,0.00395536,0.0312767,0.00909403,-0.24701,-0.0266473,9.86211,-0.110444,-0.194578,0.843843,-0.00247303,-0.000277714,0.098621,1,6.06617e-05,-1.44462e-05,-0.000146479,0.0121323,-0.00288923,-0.0292958,0.999462,0.00395536,0.0312767,0.00909403,0.532275,0.0638726,-0.721218,33.25,1,26018,2650512
39,10,0.999469,0.00399515,0.0310894,0.00892143,-0.171253,-0.241126,9.88691,0.0469198,-0.376262,0.822624,-0.00171793,-0.00242523,0.0988686,1,7.34587e-05,-2.33733e-05,-0.000161171,0.0146917,-0.00467465,-0.0322343,0.999469,0.00399515,0.0310894,0.00892143,0.534158,0.0634049,-0.723258,33.25,1,26019,2650612
40,1,0.999469,0.00399515,0.0310894,0.00892143,-0.171253,-0.241126,9.88691,0.0469198,-0.376262,0.822624,-0.00171793,-0.00242523,0.0988686,1,7.34587e-05,-2.33733e-05,-0.000161171,0.0146917,-0.00467465,-0.0322343,0.999469,0.00399515,0.0310894,0.00892143,0.534158,0.0634049,-0.723258,33.25,1,26019,2650612
40,2,0.999469,0.00399515,0.0310894,0.00892143,-0.171253,-0.241126,9.88691,0.0469198,-0.376262,0.822624,-0.00171793,-0.00242523,0.0988686,1,7.34587e-05,-2.33733e-05,-0.000161171,0.0146917,-0.00467465,-0.0322343,0.999469,0.00399515,0.0310894,0.00892143,0.534158,0.0634049,-0.723258,33.25,1,26019,2650612
40,3,0.999475,0.00404766,0.0309258,0.0087503,-0.165611,-0.120498,9.66806,0.0478885,-0.301535,0.647779,-0.00165632,-0.00122153,0.0966804,1,8.8265e-05,8.96615e-07,-0.000158683,0.017653,0.000179323,-0.0317367,0.999475,0.00404766,0.0309258,0.0087503,0.534162,0.0624384,-0.723784,33.25,1,26020,2650712
40,4,0.999475,0.00404766,0.0309258,0.0087503,-0.165611,-0.120498,9.66806,0.0478885,-0.301535,0.647779,-0.00165632,-0.00122153,0.0966804,1,8.8265e-05,8.96615e-07,-0.000158683,0.017653,0.000179323,-0.0317367,0.999475,0.00404766,0.0309258,0.0087503,0.534162,0.0624384,-0.723784,33.25,1,26020,2650712
40,5,0.999475,0.00404766,0.0309258,0.0087503,-0.165611,-0.120498,9.66806,0.0478885,-0.301535,0.647779,-0.00165632,-0.00122153,0.0966804,1,8.8265e-05,8.96615e-07,-0.000158683,0.017653,0.000179323,-0.0317367,0.999475,0.00404766,0.0309258,0.0087503,0.534162,0.0624384,-0.723784,33.25,1,26020,2650712
40,6,0.999483,0.00407428,0.0307283,0.00860158,-0.118018,0.155884,9.76339,0.000393791,-0.0358705,0.726577,-0.00118598,0.00154701,0.097634,1,6.22671e-05,-3.18856e-05,-0.000137197,0.0124534,-0.00637712,-0.0274395,0.999483,0.00407428,0.0307283,0.00860158,0.534187,0.0624203,-0.722775,33.25,1,26021,2650812
41,1,0.999483,0.00407428,0.0307283,0.00860158,-0.118018,0.155884,9.76339,0.000393791,-0.0358705,0.726577,-0.00118598,0.00154701,0.097634,1,6.22671e-05,-3.18856e-05,-0.000137197,0.0124534,-0.00637712,-0.0274395,0.999483,0.00407428,0.0307283,0.00860158,0.534187,0.0624203,-0.722775,33.25,1,26021,2650812
41,2,0.999483,0.00407428,0.0307283,0.00860158,-0.118018,0.155884,9.76339,0.000393791,-0.0358705,0.726577,-0.00118598,0.00154701,0.097634,1,6.22671e-05,-3.18856e-05,-0.000137197,0.0124534,-0.00637712,-0.0274395,0.999483,0.00407428,0.0307283,0.00860158,0.534187,0.0624203,-0.722775,33.25,1,26021,2650812
41,3,0.99949,0.0040618,0.030538,0.00843891,-0.32121,0.243559,9.80658,-0.158469,0.0467841,0.764443,-0.00321595,0.00243214,0.0980657,1,2.26287e-05,-2.34579e-05,-0.000152708,0.00452574,-0.00469158,-0.0305415,0.99949,0.0040618,0.030538,0.00843891,0.534204,0.0643354,-0.720712,33.25,1,26022,2650912
41,4,0.99949,0.0040618,0.030538,0.00843891,-0.32121,0.243559,9.80658,-0.158469,0.0467841,0.764443,-0.00321595,0.00243214,0.0980657,1,2.26287e-05,-2.34579e-05,-0.000152708,0.00452574,-0.00469158,-0.0305415,0.99949,0.0040618,0.030538,0.00843891,0.534204,0.0643354,-0.720712,33.25,1,26022,2650912
41,5,0.99949,0.0040618,0.030538,0.00843891,-0.32121,0.243559,9.80658,-0.158469,0.0467841,0.764443,-0.00321595,0.00243214,0.0980657,1,2.26287e-05,-2.34579e-05,-0.000152708,0.00452574,-0.00469158,-0.0305415,0.99949,0.0040618,0.030538,0.00843891,0.534204,0.0643354,-0.720712,33.25,1,26022,2650912
41,6,0.999497,0.00402498,0.0303534,0.00825587,-0.248237,0.00857517,9.86716,-0.0201295,-0.160016,0.87722,-0.00248599,8.71569e-05,0.0986715,1,-2.743e-06,-1.84812e-05,-0.00017388,-0.0005486,-0.00369624,-0.0347759,0.999497,0.00402498,0.0303534,0.00825587,0.533841,0.0608799,-0.718262,33.25,1,26023,2651012
41,7,0.999497,0.00402498,0.0303534,0.00825587,-0.248237,0.00857517,9.86716,-0.0201295,-0.160016,0.87722,-0.00248599,8.71569e-05,0.0986715,1,-2.743e-06,-1.84812e-05,-0.00017388,-0.0005486,-0.00369624,-0.0347759,0.999497,0.00402498,0.0303534,0.00825587,0.533841,0.0608799,-0.718262,33.25,1,26023,2651012
41,8,0.999497,0.00402498,0.0303534,0.00825587,-0.248237,0.00857517,9.86716,-0.0201295,-0.160016,0.87722,-0.00248599,8.71569e-05,0.0986715,1,-2.743e-06,-1.84812e-05,-0.00017388,-0.0005486,-0.00369624,-0.0347759,0.999497,0.00402498,0.0303534,0.00825587,0.533841,0.0608799,-0.718262,33.25,1,26023,2651012
42,1,0.999506,0.00403693,0.0301159,0.00806284,-0.185884,-0.104971,9.77284,-0.0878127,-0.271065,0.729561,-0.0018733,-0.00105799,0.097728,1,4.58681e-05,-7.20123e-05,-0.000182461,0.00917361,-0.0144025,-0.0364922,0.999506,0.00403693,0.0301159,0.00806284,0.533347,0.0594476,-0.719806,33.25,1,26024,2651112
42,2,0.999506,0.00403693,0.0301159,0.00806284,-0.185884,-0.104971,9.77284,-0.0878127,-0.271065,0.729561,-0.0018733,-0.00105799,0.097728,1,4.58681e-05,-7.20123e-05,-0.000182461,0.00917361,-0.0144025,-0.0364922,0.999506,0.00403693,0.0301159,0.00806284,0.533347,0.0594476,-0.719806,33.25,1,26024,2651112
42,3,0.999506,0.00403693,0.0301159,0.00806284,-0.185884,-0.104971,9.77284,-0.0878127,-0.271065,0.729561,-0.0018733,-0.00105799,0.097728,1,4.58681e-05,-7.20123e-05,-0.000182461,0.00917361,-0.0144025,-0.0364922,0.999506,0.00403693,0.0301159,0.00806284,0.533347,0.0594476,-0.719806,33.25,1,26024,2651112
42,4,0.999513,0.00403745,0.0299128,0.00789002,-0.124233,-0.116281,9.78011,-0.00211656,-0.237314,0.717156,-0.00124991,-0.00116923,0.0978009,1,3.4935e-05,-3.67975e-05,-0.000162417,0.00698699,-0.0073595,-0.0324835,0.999513,0.00403745,0.0299128,0.00789002,0.534199,0.0609661,-0.723312,33.25,1,26025,2651212
42,5,0.999513,0.00403745,0.0299128,0.00789002,-0.124233,-0.116281,9.78011,-0.00211656,-0.237314,0.717156,-0.00124991,-0.00116923,0.0978009,1,3.4935e-05,-3.67975e-05,-0.000162417,0.00698699,-0.0073595,-0.0324835,0.999513,0.00403745,0.0299128,0.00789002,0.534199,0.0609661,-0.723312,33.25,1,26025,2651212
42,6,0.999513,0.00403745,0.0299128,0.00789002,-0.124233,-0.116281,9.78011,-0.00211656,-0.237314,0.717156,-0.00124991,-0.00116923,0.0978009,1,3.4935e-05,-3.67975e-05,-0.000162417,0.00698699,-0.0073595,-0.0324835,0.999513,0.00403745,0.0299128,0.00789002,0.534199,0.0609661,-0.723312,33.25,1,26025,2651212
43,1,0.99952,0.00406559,0.0297298,0.00771854,-0.104936,-0.277811,9.82067,0.0761487,-0.448715,0.795033,-0.00105335,-0.00279026,0.0982063,1,6.35718e-05,-1.57839e-05,-0.000159853,0.0127144,-0.00315678,-0.0319706,0.99952,0.00406559,0.0297298,0.00771854,0.534626,0.0605194,-0.725849,33.25,1,26026,2651312
43,2,0.99952,0.00406559,0.0297298,0.00771854,-0.104936,-0.277811,9.82067,0.0761487,-0.448715,0.795033,-0.00105335,-0.00279026,0.0982063,1,6.35718e-05,-1.57839e-05,-0.000159853,0.0127144,-0.00315678,-0.0319706,0.99952,0.00406559,0.0297298,0.00771854,0.534626,0.0605194,-0.725849,33.25,1,26026,2651312
43,3,0.99952,0.00406559,0.0297298,0.00771854,-0.104936,-0.277811,9.82067,0.0761487,-0.448715,0.795033,-0.00105335,-0.00279026,0.0982063,1,6.35718e-05,-1.57839e-05,-0.000159853,0.0127144,-0.00315678,-0.0319706,0.99952,0.00406559,0.0297298,0.00771854,0.534626,0.0605194,-0.725849,33.25,1,26026,2651312
43,4,0.999526,0.0041166,0.0295473,0.00755647,-0.196444,-0.328069,9.90804,-0.0799758,-0.518741,0.874844,-0.00196834,-0.0032976,0.0990798,1,8.82797e-05,-1.47556e-05,-0.000149245,0.0176559,-0.00295112,-0.0298491,0.999526,0.0041166,0.0295473,0.00755647,0.536094,0.0604893,-0.724847,33.25,1,26027,2651412
43,5,0.999526,0.0041166,0.0295473,0.00755647,-0.196444,-0.328069,9.90804,-0.0799758,-0.518741,0.874844,-0.00196834,-0.0032976,0.0990798,1,8.82797e-05,-1.47556e-05,-0.000149245,0.0176559,-0.00295112,-0.0298491,0.999526,0.0041166,0.0295473,0.00755647,0.536094,0.0604893,-0.724847,33.25,1,26027,2651412
43,6,0.999526,0.0041166,0.0295473,0.00755647,-0.196444,-0.328069,9.90804,-0.0799758,-0.518741,0.874844,-0.00196834,-0.0032976,0.0990798,1,8.82797e-05,-1.47556e-05,-0.000149245,0.0176559,-0.00295112,-0.0298491,0.999526,0.0041166,0.0295473,0.00755647,0.536094,0.0604893,-0.724847,33.25,1,26027,2651412
57,1,0.999533,0.00416642,0.0293699,0.00738744,-0.424847,-0.0233211,9.86266,-0.281543,-0.251544,0.833748,-0.00425042,-0.000249594,0.0986265,1,8.97644e-05,-9.55102e-06,-0.000155696,0.0179529,-0.0019102,-0.0311392,0.999533,0.00416642,0.0293699,0.00738744,0.538072,0.060916,-0.722321,33.25,1,26028,2651512
57,2,0.999533,0.00416642,0.0293699,0.00738744,-0.424847,-0.0233211,9.86266,-0.281543,-0.251544,0.833748,-0.00425042,-0.000249594,0.0986265,1,8.97644e-05,-9.55102e-06,-0.000155696,0.0179529,-0.0019102,-0.0311392,0.999533,0.00416642,0.0293699,0.00738744,0.538072,0.060916,-0.722321,33.25,1,26028,2651512
57,3,0.999533,0.00416642,0.0293699,0.00738744,-0.424847,-0.0233211,9.86266,-0.281543,-0.251544,0.833748,-0.00425042,-0.000249594,0.0986265,1,8.97644e-05,-9.55102e-06,-0.000155696,0.0179529,-0.0019102,-0.0311392,0.999533,0.00416642,0.0293699,0.00738744,0.538072,0.060916,-0.722321,33.25,1,26028,2651512
57,4,0.999539,0.00420656,0.0291925,0.00723851,-0.229067,0.0463623,9.847,-0.0606149,-0.130954,0.861533,-0.00229273,0.00044856,0.09847,1,7.96573e-05,-1.10685e-05,-0.000136143,0.0159315,-0.00221371,-0.0272286,0.999539,0.00420656,0.0291925,0.00723851,0.537636,0.0604052,-0.720815,33.25,1,26029,2651612
57,5,0.999539,0.00420656,0.0291925,0.00723851,-0.229067,0.0463623,9.847,-0.0606149,-0.130954,0.861533,-0.00229273,0.00044856,0.09847,1,7.96573e-05,-1.10685e-05,-0.000136143,0.0159315,-0.00221371,-0.0272286,0.999539,0.00420656,0.0291925,0.00723851,0.537636,0.0604052,-0.720815,33.25,1,26029,2651612
57,6,0.999539,0.00420656,0.0291925,0.00723851,-0.229067,0.0463623,9.847,-0.0606149,-0.130954,0.861533,-0.00229273,0.00044856,0.09847,1,7.96573e-05,-1.10685e-05,-0.000136143,0.0159315,-0.00221371,-0.0272286,0.999539,0.00420656,0.0291925,0.00723851,0.537636,0.0604052,-0.720815,33.25,1,26029,2651612
57,7,0.999545,0.00424858,0.0290168,0.00706562,-0.342226,0.112999,9.65699,-0.223069,-0.0615023,0.660172,-0.0034237,0.00111527,0.09657,1,8.18974e-05,-9.35712e-06,-0.000159731,0.0163795,-0.00187142,-0.0319462,0.999545,0.00424858,0.0290168,0.00706562,0.537077,0.0614298,-0.723315,33.25,1,26030,2651712
57,8,0.999545,0.00424858,0.0290168,0.00706562,-0.342226,0.112999,9.65699,-0.223069,-0.0615023,0.660172,-0.0034237,0.00111527,0.09657,1,8.18974e-05,-9.35712e-06,-0.000159731,0.0163795,-0.00187142,-0.0319462,0.999545,0.00424858,0.0290168,0.00706562,0.537077,0.0614298,-0.723315,33.25,1,26030,2651712
57,9,0.999545,0.00424858,0.0290168,0.00706562,-0.342226,0.112999,9.65699,-0.223069,-0.0615023,0.660172,-0.0034237,0.00111527,0.09657,1,8.18974e-05,-9.35712e-06,-0.000159731,0.0163795,-0.00187142,-0.0319462,0.999545,0.00424858,0.0290168,0.00706562,0.537077,0.0614298,-0.723315,33.25,1,26030,2651712
57,10,0.999552,0.00427587,0.0288169,0.00687676,-0.184535,0.0232151,9.74541,-0.143018,-0.128298,0.646524,-0.0018521,0.000219826,0.097454,1,6.65896e-05,-3.50563e-05,-0.000176664,0.0133179,-0.00701126,-0.0353328,0.999552,0.00427587,0.0288169,0.00687676,0.53755,0.0619136,-0.723307,33.25,1,26031,2651812
58,1,0.999552,0.00427587,0.0288169,0.00687676,-0.184535,0.0232151,9.74541,-0.143018,-0.128298,0.646524,-0.0018521,0.000219826,0.097454,1,6.65896e-05,-3.50563e-05,-0.000176664,0.0133179,-0.00701126,-0.0353328,0.999552,0.00427587,0.0288169,0.00687676,0.53755,0.0619136,-0.723307,33.25,1,26031,2651812
58,2,0.999552,0.00427587,0.0288169,0.00687676,-0.184535,0.0232151,9.74541,-0.143018,-0.128298,0.646524,-0.0018521,0.000219826,0.097454,1,6.65896e-05,-3.50563e-05,-0.000176664,0.0133179,-0.00701126,-0.0353328,0.999552,0.00427587,0.0288169,0.00687676,0.53755,0.0619136,-0.723307,33.25,1,26031,2651812
58,3,0.999557,0.00427794,0.0286944,0.00667902,-0.0486851,-0.0245008,9.93507,0.179977,-0.179749,0.897791,-0.000478415,-0.000253167,0.0993507,1,4.19709e-05,4.29256e-05,-0.000186232,0.00839418,0.00858513,-0.0372464,0.999557,0.00427794,0.0286944,0.00667902,0.537518,0.0624194,-0.724305,33.25,1,26032,2651912
58,4,0.999557,0.00427794,0.0286944,0.00667902,-0.0486851,-0.0245008,9.93507,0.179977,-0.179749,0.897791,-0.000478415,-0.000253167,0.0993507,1,4.19709e-05,4.29256e-05,-0.000186232,0.00839418,0.00858513,-0.0372464,0.999557,0.00427794,0.0286944,0.00667902,0.537518,0.0624194,-0.724305,33.25,1,26032,2651912
58,5,0.999557,0.00427794,0.0286944,0.00667902,-0.0486851,-0.0245008,9.93507,0.179977,-0.179749,0.897791,-0.000478415,-0.000253167,0.0993507,1,4.19709e-05,4.29256e-05,-0.000186232,0.00839418,0.00858513,-0.0372464,0.999557,0.00427794,0.0286944,0.00667902,0.537518,0.0624194,-0.724305,33.25,1,26032,2651912
58,6,0.999562,0.0042862,0.0285432,0.00648891,-0.417005,-0.25013,9.79857,-0.306866,-0.419684,0.753341,-0.00416807,-0.00250921,0.0979856,1,4.79671e-05,1.46669e-05,-0.00017855,0.00959341,0.00293337,-0.0357099,0.999562,0.0042862,0.0285432,0.00648891,0.537591,0.06092,-0.722319,33.25,1,26033,2652012
58,7,0.999562,0.0042862,0.0285432,0.00648891,-0.417005,-0.25013,9.79857,-0.306866,-0.419684,0.753341,-0.00416807,-0.00250921,0.0979856,1,4.79671e-05,1.46669e-05,-0.00017855,0.00959341,0.00293337,-0.0357099,0.999562,0.0042862,0.0285432,0.00648891,0.537591,0.06092,-0.722319,33.25,1,26033,2652012
58,8,0.999562,0.0042862,0.0285432,0.00648891,-0.417005,-0.25013,9.79857,-0.306866,-0.419684,0.753341,-0.00416807,-0.00250921,0.0979856,1,4.79671e-05,1.46669e-05,-0.00017855,0.00959341,0.00293337,-0.0357099,0.999562,0.0042862,0.0285432,0.00648891,0.537591,0.06092,-0.722319,33.25,1,26033,2652012
46,1,0.999567,0.00433092,0.0283991,0.00629838,-0.350799,-0.242101,9.87962,-0.282763,-0.433349,0.855747,-0.00350491,-0.00243681,0.0987959,1,8.62644e-05,1.99117e-05,-0.000177508,0.0172529,0.00398234,-0.0355015,0.999567,0.00433092,0.0283991,0.00629838,0.535737,0.0618485,-0.718754,33.25,1,26034,2652112
46,2,0.999567,0.00433092,0.0283991,0.00629838,-0.350799,-0.242101,9.87962,-0.282763,-0.433349,0.855747,-0.00350491,-0.00243681,0.0987959,1,8.62644e-05,1.99117e-05,-0.000177508,0.0172529,0.00398234,-0.0355015,0.999567,0.00433092,0.0283991,0.00629838,0.535737,0.0618485,-0.718754,33.25,1,26034,2652112
46,3,0.999567,0.00433092,0.0283991,0.00629838,-0.350799,-0.242101,9.87962,-0.282763,-0.433349,0.855747,-0.00350491,-0.00243681,0.0987959,1,8.62644e-05,1.99117e-05,-0.000177508,0.0172529,0.00398234,-0.0355015,0.999567,0.00433092,0.0283991,0.00629838,0.535737,0.0618485,-0.718754,33.25,1,26034,2652112
46,4,0.999572,0.0043735,0.0282627,0.00611565,-0.491834,-0.398512,9.91994,-0.268658,-0.564387,0.953804,-0.00491448,-0.00400044,0.099199,1,8.56715e-05,2.62874e-05,-0.000169587,0.0171343,0.00525748,-0.0339174,0.999572,0.0043735,0.0282627,0.00611565,0.537653,0.0608749,-0.719795,33.25,1,26035,2652212
46,5,0.999572,0.0043735,0.0282627,0.00611565,-0.491834,-0.398512,9.91994,-0.268658,-0.564387,0.953804,-0.00491448,-0.00400044,0.099199,1,8.56715e-05,2.62874e-05,-0.000169587,0.0171343,0.00525748,-0.0339174,0.999572,0.0043735,0.0282627,0.00611565,0.537653,0.0608749,-0.719795,33.25,1,26035,2652212
46,6,0.999572,0.0043735,0.0282627,0.00611565,-0.491834,-0.398512,9.91994,-0.268658,-0.564387,0.953804,-0.00491448,-0.00400044,0.099199,1,8.56715e-05,2.62874e-05,-0.000169587,0.0171343,0.00525748,-0.0339174,0.999572,0.0043735,0.0282627,0.00611565,0.537653,0.0608749,-0.719795,33.25,1,26035,2652212
60,1,0.999577,0.00445195,0.0281177,0.00592935,-0.261648,-0.0222416,10.04,-0.173554,-0.221449,1.04968,-0.00261348,-0.000246508,0.1004,1,0.00012445,1.53486e-05,-0.00017164,0.02489,0.00306971,-0.034328,0.999577,0.00445195,0.0281177,0.00592935,0.53903,0.0604293,-0.722841,33.25,1,26036,2652312
60,2,0.999577,0.00445195,0.0281177,0.00592935,-0.261648,-0.0222416,10.04,-0.173554,-0.221449,1.04968,-0.00261348,-0.000246508,0.1004,1,0.00012445,1.53486e-05,-0.00017164,0.02489,0.00306971,-0.034328,0.999577,0.00445195,0.0281177,0.00592935,0.53903,0.0604293,-0.722841,33.25,1,26036,2652312
60,3,0.999577,0.00445195,0.0281177,0.00592935,-0.261648,-0.0222416,10.04,-0.173554,-0.221449,1.04968,-0.00261348,-0.000246508,0.1004,1,0.00012445,1.53486e-05,-0.00017164,0.02489,0.00306971,-0.034328,0.999577,0.00445195,0.0281177,0.00592935,0.53903,0.0604293,-0.722841,33.25,1,26036,2652312
60,4,0.999582,0.0045038,0.0279885,0.00576048,-0.3436,0.147212,9.96937,-0.213824,-0.00224209,0.914635,-0.00342947,0.00145375,0.0996942,1,9.74881e-05,3.04587e-05,-0.000155201,0.0194976,0.00609175,-0.0310403,0.999582,0.0045038,0.0279885,0.00576048,0.540938,0.0599435,-0.723871,33.25,1,26037,2652412
60,5,0.999582,0.0045038,0.0279885,0.00576048,-0.3436,0.147212,9.96937,-0.213824,-0.00224209,0.914635,-0.00342947,0.00145375,0.0996942,1,9.74881e-05,3.04587e-05,-0.000155201,0.0194976,0.00609175,-0.0310403,0.999582,0.0045038,0.0279885,0.00576048,0.540938,0.0599435,-0.723871,33.25,1,26037,2652412
60,6,0.999582,0.0045038,0.0279885,0.00576048,-0.3436,0.147212,9.96937,-0.213824,-0.00224209,0.914635,-0.00342947,0.00145375,0.0996942,1,9.74881e-05,3.04587e-05,-0.000155201,0.0194976,0.00609175,-0.0310403,0.999582,0.0045038,0.0279885,0.00576048,0.540938,0.0599435,-0.723871,33.25,1,26037,2652412
60,7,0.999586,0.00453365,0.0278416,0.00559846,-0.672595,0.195733,9.45705,-0.585489,0.0543532,0.370986,-0.00672324,0.00194534,0.0945709,1,7.40249e-05,1.12498e-05,-0.00014996,0.014805,0.00224996,-0.0299919,0.999586,0.00453365,0.0278416,0.00559846,0.542356,0.0585043,-0.72593,33.25,1,26038,2652512
60,8,0.999586,0.00453365,0.0278416,0.00559846,-0.672595,0.195733,9.45705,-0.585489,0.0543532,0.370986,-0.00672324,0.00194534,0.0945709,1,7.40249e-05,1.12498e-05,-0.00014996,0.014805,0.00224996,-0.0299919,0.999586,0.00453365,0.0278416,0.00559846,0.542356,0.0585043,-0.72593,33.25,1,26038,2652512
60,9,0.999586,0.00453365,0.0278416,0.00559846,-0.672595,0.195733,9.45705,-0.585489,0.0543532,0.370986,-0.00672324,0.00194534,0.0945709,1,7.40249e-05,1.12498e-05,-0.00014996,0.014805,0.00224996,-0.0299919,0.999586,0.00453365,0.0278416,0.00559846,0.542356,0.0585043,-0.72593,33.25,1,26038,2652512
60,10,0.999591,0.0045803,0.0276917,0.00541777,-0.370579,-0.0441409,9.45432,-0.303262,-0.220335,0.394972,-0.00370506,-0.000457149,0.0945432,1,8.98019e-05,4.64815e-06,-0.000167337,0.0179604,0.00092963,-0.0334675,0.999591,0.0045803,0.0276917,0.00541777,0.541406,0.0585033,-0.72542,33.25,1,26039,2652612
48,1,0.999591,0.0045803,0.0276917,0.00541777,-0.370579,-0.0441409,9.45432,-0.303262,-0.220335,0.394972,-0.00370506,-0.000457149,0.0945432,1,8.98019e-05,4.64815e-06,-0.000167337,0.0179604,0.00092963,-0.0334675,0.999591,0.0045803,0.0276917,0.00541777,0.541406,0.0585033,-0.72542,33.25,1,26039,2652612
48,2,0.999591,0.0045803,0.0276917,0.00541777,-0.370579,-0.0441409,9.45432,-0.303262,-0.220335,0.394972,-0.00370506,-0.000457149,0.0945432,1,8.98019e-05,4.64815e-06,-0.000167337,0.0179604,0.00092963,-0.0334675,0.999591,0.0045803,0.0276917,0.00541777,0.541406,0.0585033,-0.72542,33.25,1,26039,2652612
48,3,0.999597,0.00462642,0.0275241,0.00520978,-0.284239,-0.0995654,9.65819,-0.294725,-0.298006,0.636433,-0.00284563,-0.00101195,0.0965816,1,9.01009e-05,-1.47275e-05,-0.000195226,0.0180202,-0.00294551,-0.0390452,0.999597,0.00462642,0.0275241,0.00520978,0.538606,0.0584642,-0.721873,33.25,1,26040,2652712
48,4,0.999597,0.00462642,0.0275241,0.00520978,-0.284239,-0.0995654,9.65819,-0.294725,-0.298006,0.636433,-0.00284563,-0.00101195,0.0965816,1,9.01009e-05,-1.47275e-05,-0.000195226,0.0180202,-0.00294551,-0.0390452,0.999597,0.00462642,0.0275241,0.00520978,0.538606,0.0584642,-0.721873,33.25,1,26040,2652712
48,5,0.999597,0.00462642,0.0275241,0.00520978,-0.284239,-0.0995654,9.65819,-0.294725,-0.298006,0.636433,-0.00284563,-0.00101195,0.0965816,1,9.01009e-05,-1.47275e-05,-0.000195226,0.0180202,-0.00294551,-0.0390452,0.999597,0.00462642,0.0275241,0.00520978,0.538606,0.0584642,-0.721873,33.25,1,26040,2652712
48,6,0.999601,0.00466917,0.0273961,0.0050199,-0.217861,-0.274993,9.90829,-0.139264,-0.455916,0.907344,-0.00217483,-0.00276643,0.0990825,1,8.71064e-05,2.39964e-05,-0.000176702,0.0174213,0.00479929,-0.0353404,0.999601,0.00466917,0.0273961,0.0050199,0.540608,0.0559823,-0.720422,33.25,1,26041,2652812
49,1,0.999601,0.00466917,0.0273961,0.0050199,-0.217861,-0.274993,9.90829,-0.139264,-0.455916,0.907344,-0.00217483,-0.00276643,0.0990825,1,8.71064e-05,2.39964e-05,-0.000176702,0.0174213,0.00479929,-0.0353404,0.999601,0.00466917,0.0273961,0.0050199,0.540608,0.0559823,-0.720422,33.25,1,26041,2652812
49,2,0.999601,0.00466917,0.0273961,0.0050199,-0.217861,-0.274993,9.90829,-0.139264,-0.455916,0.907344,-0.00217483,-0.00276643,0.0990825,1,8.71064e-05,2.39964e-05,-0.000176702,0.0174213,0.00479929,-0.0353404,0.999601,0.00466917,0.0273961,0.0050199,0.540608,0.0559823,-0.720422,33.25,1,26041,2652812
49,3,0.999605,0.00473434,0.0272852,0.00483045,-0.490136,-0.111374,9.95527,-0.326156,-0.282368,0.949172,-0.00489372,-0.00113423,0.0995528,1,0.000111526,4.03844e-05,-0.000175242,0.0223051,0.00807687,-0.0350485,0.999605,0.00473434,0.0272852,0.00483045,0.542956,0.0564861,-0.722442,33.25,1,26042,2652912
49,4,0.999605,0.00473434,0.0272852,0.00483045,-0.490136,-0.111374,9.95527,-0.326156,-0.282368,0.949172,-0.00489372,-0.00113423,0.0995528,1,0.000111526,4.03844e-05,-0.000175242,0.0223051,0.00807687,-0.0350485,0.999605,0.00473434,0.0272852,0.00483045,0.542956,0.0564861,-0.722442,33.25,1,26042,2652912
49,5,0.999605,0.00473434,0.0272852,0.00483045,-0.490136,-0.111374,9.95527,-0.326156,-0.282368,0.949172,-0.00489372,-0.00113423,0.0995528,1,0.000111526,4.03844e-05,-0.000175242,0.0223051,0.00807687,-0.0350485,0.999605,0.00473434,0.0272852,0.00483045,0.542956,0.0564861,-0.722442,33.25,1,26042,2652912
49,6,0.999609,0.00481951,0.0271438,0.00464982,-0.724179,-0.0392353,9.78784,-0.566133,-0.217979,0.732661,-0.00724033,-0.000415747,0.0978784,1,0.000131767,8.14732e-06,-0.000165713,0.0263533,0.00162946,-0.0331426,0.999609,0.00481951,0.0271438,0.00464982,0.542422,0.0574927,-0.723932,33.25,1,26043,2653012
49,7,0.999609,0.00481951,0.0271438,0.00464982,-0.724179,-0.0392353,9.78784,-0.566133,-0.217979,0.732661,-0.00724033,-0.000415747,0.0978784,1,0.000131767,8.14732e-06,-0.000165713,0.0263533,0.00162946,-0.0331426,0.999609,0.00481951,0.0271438,0.00464982,0.542422,0.0574927,-0.723932,33.25,1,26043,2653012
49,8,0.999609,0.00481951,0.0271438,0.00464982,-0.724179,-0.0392353,9.78784,-0.566133,-0.217979,0.732661,-0.00724033,-0.000415747,0.0978784,1,0.000131767,8.14732e-06,-0.000165713,0.0263533,0.00162946,-0.0331426,0.999609,0.00481951,0.0271438,0.00464982,0.542422,0.0574927,-0.723932,33.25,1,26043,2653012
50,1,0.999615,0.00486524,0.0269401,0.00447131,-0.523598,0.0405038,9.63354,-0.491955,-0.162543,0.618586,-0.00524722,0.000388997,0.0963349,1,9.22368e-05,-5.89931e-05,-0.000165092,0.0184474,-0.0117986,-0.0330183,0.999615,0.00486524,0.0269401,0.00447131,0.542825,0.057064,-0.727479,33.25,1,26044,2653112
50,2,0.999615,0.00486524,0.0269401,0.00447131,-0.523598,0.0405038,9.63354,-0.491955,-0.162543,0.618586,-0.00524722,0.000388997,0.0963349,1,9.22368e-05,-5.89931e-05,-0.000165092,0.0184474,-0.0117986,-0.0330183,0.999615,0.00486524,0.0269401,0.00447131,0.542825,0.057064,-0.727479,33.25,1,26044,2653112
50,3,0.999615,0.00486524,0.0269401,0.00447131,-0.523598,0.0405038,9.63354,-0.491955,-0.162543,0.618586,-0.00524722,0.000388997,0.0963349,1,9.22368e-05,-5.89931e-05,-0.000165092,0.0184474,-0.0117986,-0.0330183,0.999615,0.00486524,0.0269401,0.00447131,0.542825,0.057064,-0.727479,33.25,1,26044,2653112
50,4,0.99962,0.00491284,0.0267819,0.0042596,-0.13753,0.2828,9.85009,-0.0779588,0.0215744,0.864393,-0.00137739,0.00280988,0.0985014,1,9.47317e-05,-1.62749e-05,-0.000197993,0.0189463,-0.00325497,-0.0395986,0.99962,0.00491284,0.0267819,0.0042596,0.542894,0.0550859,-0.726008,33.25,1,26045,2653212
50,5,0.99962,0.00491284,0.0267819,0.0042596,-0.13753,0.2828,9.85009,-0.0779588,0.0215744,0.864393,-0.00137739,0.00280988,0.0985014,1,9.47317e-05,-1.62749e-05,-0.000197993,0.0189463,-0.00325497,-0.0395986,0.99962,0.00491284,0.0267819,0.0042596,0.542894,0.0550859,-0.726008,33.25,1,26045,2653212
50,6,0.99962,0.00491284,0.0267819,0.0042596,-0.13753,0.2828,9.85009,-0.0779588,0.0215744,0.864393,-0.00137739,0.00280988,0.0985014,1,9.47317e-05,-1.62749e-05,-0.000197993,0.0189463,-0.00325497,-0.0395986,0.99962,0.00491284,0.0267819,0.0042596,0.542894,0.0550859,-0.726008,33.25,1,26045,2653212
64,1,0.999624,0.00491342,0.0266638,0.00405134,-0.141221,0.454881,10.0473,-0.0422019,0.297186,0.969203,-0.00140547,0.00454019,0.100474,1,4.56295e-05,2.46669e-05,-0.000195988,0.00912591,0.00493338,-0.0391975,0.999624,0.00491342,0.0266638,0.00405134,0.541027,0.0545781,-0.723991,33.25,1,26046,2653312
64,2,0.999624,0.00491342,0.0266638,0.00405134,-0.141221,0.454881,10.0473,-0.0422019,0.297186,0.969203,-0.00140547,0.00454019,0.100474,1,4.56295e-05,2.46669e-05,-0.000195988,0.00912591,0.00493338,-0.0391975,0.999624,0.00491342,0.0266638,0.00405134,0.541027,0.0545781,-0.723991,33.25,1,26046,2653312
64,3,0.999624,0.00491342,0.0266638,0.00405134,-0.141221,0.454881,10.0473,-0.0422019,0.297186,0.969203,-0.00140547,0.00454019,0.100474,1,4.56295e-05,2.46669e-05,-0.000195988,0.00912591,0.00493338,-0.0391975,0.999624,0.00491342,0.0266638,0.00405134,0.541027,0.0545781,-0.723991,33.25,1,26046,2653312
64,4,0.999628,0.0049046,0.0265475,0.00384844,-0.723953,0.203385,9.6495,-0.671157,0.0771842,0.670301,-0.00723373,0.00203032,0.0964955,1,3.27027e-05,2.60299e-05,-0.00019251,0.00654053,0.00520599,-0.038502,0.999628,0.0049046,0.0265475,0.00384844,0.542528,0.0540422,-0.721989,33.25,1,26047,2653412
64,5,0.999628,0.0049046,0.0265475,0.00384844,-0.723953,0.203385,9.6495,-0.671157,0.0771842,0.670301,-0.00723373,0.00203032,0.0964955,1,3.27027e-05,2.60299e-05,-0.00019251,0.00654053,0.00520599,-0.038502,0.999628,0.0049046,0.0265475,0.00384844,0.542528,0.0540422,-0.721989,33.25,1,26047,2653412
64,6,0.999628,0.0049046,0.0265475,0.00384844,-0.723953,0.203385,9.6495,-0.671157,0.0771842,0.670301,-0.00723373,0.00203032,0.0964955,1,3.27027e-05,2.60299e-05,-0.00019251,0.00654053,0.00520599,-0.038502,0.999628,0.0049046,0.0265475,0.00384844,0.542528,0.0540422,-0.721989,33.25,1,26047,2653412
64,7,0.999633,0.00485627,0.0263969,0.00364187,-0.583686,-0.0633643,9.73957,-0.546926,-0.135726,0.778623,-0.00583943,-0.000629714,0.0973955,1,-8.35335e-06,-1.19148e-05,-0.000197126,-0.00167067,-0.00238297,-0.0394251,0.999633,0.00485627,0.0263969,0.00364187,0.543461,0.0535735,-0.723519,33.25,1,26048,2653512
64,8,0.999633,0.00485627,0.0263969,0.00364187,-0.583686,-0.0633643,9.73957,-0.546926,-0.135726,0.778623,-0.00583943,-0.000629714,0.0973955,1,-8.35335e-06,-1.19148e-05,-0.000197126,-0.00167067,-0.00238297,-0.0394251,0.999633,0.00485627,0.0263969,0.00364187,0.543461,0.0535735,-0.723519,33.25,1,26048,2653512
65,1,0.999633,0.00485627,0.0263969,0.00364187,-0.583686,-0.0633643,9.73957,-0.546926,-0.135726,0.778623,-0.00583943,-0.000629714,0.0973955,1,-8.35335e-06,-1.19148e-05,-0.000197126,-0.00167067,-0.00238297,-0.0394251,0.999633,0.00485627,0.0263969,0.00364187,0.543461,0.0535735,-0.723519,33.25,1,26048,2653512
65,2,0.999639,0.00484617,0.026208,0.003436,-0.443156,-0.418296,9.80853,-0.364906,-0.534739,0.630685,-0.0044437,-0.00418714,0.0980846,1,3.01445e-05,-5.35685e-05,-0.000195263,0.00602889,-0.0107137,-0.0390526,0.999639,0.00484617,0.026208,0.003436,0.546269,0.0531248,-0.727078,33.25,1,26049,2653612
65,3,0.999639,0.00484617,0.026208,0.003436,-0.443156,-0.418296,9.80853,-0.364906,-0.534739,0.630685,-0.0044437,-0.00418714,0.0980846,1,3.01445e-05,-5.35685e-05,-0.000195263,0.00602889,-0.0107137,-0.0390526,0.999639,0.00484617,0.026208,0.003436,0.546269,0.0531248,-0.727078,33.25,1,26049,2653612
65,4,0.999639,0.00484617,0.026208,0.003436,-0.443156,-0.418296,9.80853,-0.364906,-0.534739,0.630685,-0.0044437,-0.00418714,0.0980846,1,3.01445e-05,-5.35685e-05,-0.000195263,0.00602889,-0.0107137,-0.0390526,0.999639,0.00484617,0.026208,0.003436,0.546269,0.0531248,-0.727078,33.25,1,26049,2653612
65,5,0.999643,0.00490118,0.026051,0.00324487,-0.0879677,-0.643662,9.83376,-0.111565,-0.871087,0.851738,-0.000886702,-0.00645557,0.0983363,1,9.79586e-05,-2.4035e-05,-0.000178203,0.0195917,-0.004807,-0.0356407,0.999643,0.00490118,0.026051,0.00324487,0.547211,0.0536136,-0.727576,33.25,1,26050,2653712
65,6,0.999643,0.00490118,0.026051,0.00324487,-0.0879677,-0.643662,9.83376,-0.111565,-0.871087,0.851738,-0.000886702,-0.00645557,0.0983363,1,9.79586e-05,-2.4035e-05,-0.000178203,0.0195917,-0.004807,-0.0356407,0.999643,0.00490118,0.026051,0.00324487,0.547211,0.0536136,-0.727576,33.25,1,26050,2653712
65,7,0.999643,0.00490118,0.026051,0.00324487,-0.0879677,-0.643662,9.83376,-0.111565,-0.871087,0.851738,-0.000886702,-0.00645557,0.0983363,1,9.79586e-05,-2.4035e-05,-0.000178203,0.0195917,-0.004807,-0.0356407,0.999643,0.00490118,0.026051,0.00324487,0.547211,0.0536136,-0.727576,33.25,1,26050,2653712
