frame_id,accel_x,accel_y,accel_z,free_accel_x,free_accel_y,free_accel_z,delta_v_x,delta_v_y,delta_v_z,delta_q_w,delta_q_x,delta_q_y,delta_q_z,rate_x,rate_y,rate_z,quat_w,quat_x,quat_y,quat_z,mag_x,mag_y,mag_z,temperature,status_byte,packet_counter,time_fine
14,-1.28192,0.162965,9.81326,-0.773887,-0.16943,1.04413,-0.0128261,0.00162723,0.0981317,1,4.53668e-06,-3.43787e-05,5.96326e-05,0.000907336,-0.00687574,0.0119265,0,0,0,0,0.0902489,0.495323,-0.989392,34.8125,1,53750,5430984
15,-0.353762,-0.00353019,9.73532,0.227768,-0.391396,0.916155,-0.00353071,-3.78706e-05,0.0973534,1,1.19858e-05,3.54827e-05,3.32432e-05,0.00239717,0.00709654,0.00664864,0,0,0,0,0.0921211,0.4992,-0.988809,34.8125,1,53754,5431384
16,-0.685317,-0.0668232,9.82758,-0.0831313,-0.493898,1.04304,-0.00684918,-0.000673293,0.098276,1,2.42427e-05,2.01588e-05,2.16308e-05,0.00484853,0.00403176,0.00432616,0,0,0,0,0.0874893,0.494291,-0.984856,34.8125,1,53757,5431684
17,-0.820105,-0.109083,9.84613,-0.255733,-0.517631,1.06065,-0.00820544,-0.001099,0.0984608,1,3.66436e-05,-2.29368e-05,5.81668e-05,0.00732872,-0.00458737,0.0116334,0,0,0,0,0.091175,0.498233,-0.988826,34.8125,1,53761,5432084
18,-0.587381,-0.0441964,9.76914,-0.00666348,-0.381257,0.981632,-0.00588318,-0.000452163,0.0976908,1,4.98591e-05,-4.81518e-05,3.88597e-05,0.00997181,-0.00963035,0.00777194,0,0,0,0,0.088489,0.495701,-0.982304,34.8125,1,53764,5432384
19,-0.522028,-0.0105589,9.79272,0.0549175,-0.419459,0.989613,-0.00522564,-0.000114866,0.0979269,1,4.60947e-05,-2.74128e-05,2.38383e-05,0.00921894,-0.00548256,0.00476766,0,0,0,0,0.092133,0.497746,-0.989346,34.8125,1,53767,5432684
20,-0.688869,-0.0138649,9.80704,-0.119462,-0.420796,1.01496,-0.00689239,-0.000147243,0.0980701,1,4.24591e-05,-1.88722e-05,1.93043e-05,0.00849183,-0.00377444,0.00386086,0,0,0,0,0.0894266,0.495711,-0.983318,34.8125,1,53770,5432984
21,-0.772916,-0.0412707,9.78091,-0.209578,-0.458936,0.994498,-0.00773112,-0.000424021,0.0978088,1,5.59484e-05,-1.01215e-05,2.38827e-05,0.0111897,-0.00202431,0.00477653,0,0,0,0,0.0907266,0.497731,-0.987825,34.8125,1,53774,5433384
22,-0.631827,-0.0944438,9.77475,-0.0698561,-0.517639,0.979601,-0.006318,-0.000954249,0.0977474,1,4.89914e-05,1.23272e-06,1.84548e-05,0.00979829,0.000246544,0.00369095,0,0,0,0,0.0913102,0.496688,-0.984315,34.8125,1,53777,5433684
23,-0.782466,-0.0655651,9.79162,-0.220881,-0.493282,1.00349,-0.00782695,-0.000664438,0.097916,1,4.33234e-05,-1.18148e-05,1.93265e-05,0.00866468,-0.00236296,0.0038653,0,0,0,0,0.0892994,0.496768,-0.98784,34.8125,1,53780,5433984
24,-0.813569,-0.0278993,9.78536,-0.232855,-0.453805,0.994011,-0.00813574,-0.000291301,0.0978536,1,6.07446e-05,-3.70415e-07,2.58199e-05,0.0121489,-7.4083e-05,0.00516399,0,0,0,0,0.0906777,0.499213,-0.988802,34.8125,1,53784,5434384
25,-0.77262,-0.0371118,9.77111,-0.205623,-0.468483,0.988805,-0.00772865,-0.000381393,0.0977109,1,5.29439e-05,-1.25205e-05,-4.6159e-06,0.0105888,-0.00250409,-0.00092318,0,0,0,0,0.0902982,0.495287,-0.987372,34.8125,1,53787,5434684
26,-0.763484,-0.0442037,9.78555,-0.184761,-0.479403,0.989892,-0.00763479,-0.000454727,0.0978555,1,6.4522e-05,2.27124e-07,4.04763e-06,0.0129044,4.54248e-05,0.000809525,0,0,0,0,0.0897188,0.496809,-0.990366,34.8125,1,53791,5435084
27,-0.855024,-0.03387,9.76592,-0.282847,-0.467166,0.984864,-0.00855185,-0.000351599,0.0976591,1,6.5608e-05,-8.24208e-06,4.98043e-06,0.0131216,-0.00164842,0.000996086,0,0,0,0,0.0903603,0.496687,-0.983806,34.8125,1,53794,5435384
28,-0.830647,-0.0325892,9.78952,-0.252177,-0.480794,0.998395,-0.00831048,-0.000337689,0.0978948,1,5.7606e-05,-2.05599e-05,3.11807e-05,0.0115212,-0.00411198,0.00623613,0,0,0,0,0.0921206,0.497755,-0.989851,34.8125,1,53797,5435684
29,-0.835007,-0.0137425,9.7697,-0.256876,-0.471208,0.982261,-0.00835442,-0.000147461,0.0976966,1,5.08242e-05,-2.22828e-05,6.30867e-06,0.0101648,-0.00445656,0.00126173,0,0,0,0,0.0918042,0.498121,-0.982771,34.8125,1,53800,5435984
30,-0.796409,-0.0284663,9.79271,-0.219832,-0.485593,1.00655,-0.00796578,-0.000296449,0.0979269,1,5.861e-05,-8.6985e-06,1.93006e-05,0.011722,-0.0017397,0.00386012,0,0,0,0,0.0902446,0.494845,-0.989907,34.8125,1,53804,5436384
31,-0.854714,-0.0233923,9.76534,-0.269765,-0.485116,0.978441,-0.00855099,-0.000240317,0.0976531,1,3.20783e-05,-1.97369e-05,7.52297e-06,0.00641567,-0.00394738,0.00150459,0,0,0,0,0.0927455,0.497164,-0.984311,34.8125,1,53807,5436684
32,-0.721488,0.0180237,9.7848,-0.139142,-0.448071,0.993692,-0.00721484,0.000174497,0.097848,1,2.70735e-05,2.36374e-07,3.06182e-05,0.0054147,4.72748e-05,0.00612364,0,0,0,0,0.0912073,0.496282,-0.98887,34.8125,1,53810,5436984
33,-0.731594,-0.00979131,9.79072,-0.140447,-0.469048,0.999492,-0.00731126,-9.88402e-05,0.0979075,1,3.04557e-06,2.39013e-05,2.26127e-05,0.000609113,0.00478025,0.00452253,0,0,0,0,0.0926145,0.499187,-0.988306,34.8125,1,53814,5437384
34,-0.84605,0.00111096,9.77733,-0.247962,-0.45513,0.986746,-0.00845572,9.45953e-06,0.0977737,1,6.27534e-06,2.44491e-05,2.50023e-05,0.00125507,0.00488982,0.00500045,0,0,0,0,0.0903964,0.49377,-0.984376,34.8125,1,53817,5437684
35,-0.963736,-0.0925637,9.75494,-0.349407,-0.536783,0.966527,-0.009634,-0.000924346,0.0975497,1,-7.76544e-06,1.70822e-05,1.1582e-05,-0.00155309,0.00341643,0.0023164,0,0,0,0,0.0935934,0.499649,-0.987291,34.8125,1,53820,5437984
36,-0.745306,-0.157383,9.80927,-0.151876,-0.628345,1.02125,-0.00746141,-0.00157319,0.0980921,1,-5.53043e-06,-4.3023e-05,2.94098e-05,-0.00110609,-0.0086046,0.00588196,0,0,0,0,0.0908329,0.495726,-0.98484,34.8125,1,53824,5438384
37,-0.84298,0.0668476,9.80198,-0.224606,-0.411744,1.01034,-0.00843279,0.000663391,0.0980196,1,2.31583e-05,-1.50535e-05,3.23524e-05,0.00463166,-0.00301071,0.00647048,0,0,0,0,0.0926141,0.497742,-0.989349,34.8125,1,53827,5438684
38,-0.653878,-0.026232,9.75313,-0.0291608,-0.535715,0.964039,-0.00654937,-0.000260677,0.0975306,1,-9.89632e-06,-5.43668e-05,2.19851e-05,-0.00197927,-0.0108734,0.00439702,0,0,0,0,0.0902915,0.500111,-0.984235,34.8125,1,53830,5438984
39,-0.861659,-0.0630928,9.77795,-0.248407,-0.514532,0.990862,-0.00862295,-0.000630385,0.0977789,1,-4.8841e-06,-3.26799e-05,2.39351e-05,-0.000976821,-0.00653599,0.00478701,0,0,0,0,0.0907917,0.495274,-0.98687,34.8125,1,53834,5439384
40,-1.06215,-0.0757729,9.79111,-0.447286,-0.562788,1.01659,-0.0106322,-0.000757795,0.0979099,1,-2.35958e-06,-5.45398e-05,2.48315e-05,-0.000471915,-0.010908,0.0049663,0,0,0,0,0.0917183,0.499629,-0.985262,34.8125,1,53837,5439684
41,-0.743556,-0.109035,9.76419,-0.115369,-0.568883,0.977016,-0.00743891,-0.00109388,0.0976416,1,1.4549e-05,-1.76806e-05,4.61432e-05,0.00290981,-0.00353612,0.00922865,0,0,0,0,0.0889046,0.496708,-0.984304,34.8125,1,53841,5440084
42,-1.07782,0.132664,9.89237,-0.426717,-0.541716,1.15988,-0.0107834,0.00131405,0.0989233,1,6.00611e-05,-2.57375e-05,3.27239e-05,0.0120122,-0.00514749,0.00654478,0,0,0,0,0.0921092,0.500655,-0.988271,34.8125,1,53844,5440384
43,-0.916849,-0.076621,9.80588,-0.325862,-0.475937,0.946388,-0.00918667,-0.000782315,0.0980569,1,7.72901e-05,-9.3075e-05,5.15928e-05,0.015458,-0.018615,0.0103186,0,0,0,0,0.0879382,0.496238,-0.984815,34.8125,1,53847,5440684
44,-0.816723,-0.0195407,9.7933,-0.222534,-0.392934,0.974904,-0.00817096,-0.00020134,0.0979327,1,2.74725e-05,-1.91428e-05,3.38012e-05,0.00549449,-0.00382855,0.00676023,0,0,0,0,0.0916689,0.499665,-0.987281,34.8125,1,53850,5440984
45,-0.535005,-0.251316,9.85522,0.123644,-0.735657,1.04743,-0.00536239,-0.00251523,0.0985514,1,9.59247e-06,-6.30412e-05,1.64925e-05,0.00191849,-0.0126082,0.0032985,0,0,0,0,0.0898882,0.499094,-0.98173,34.8125,1,53854,5441384
46,-0.433179,-0.0292006,9.81742,0.198341,-0.473528,1.0025,-0.00434723,-0.000304072,0.0981735,1,6.08672e-05,-7.87214e-05,1.31754e-05,0.0121734,-0.0157443,0.00263508,0,0,0,0,0.0917059,0.499638,-0.985767,34.8125,1,53857,5441684
47,-0.558702,-0.0956146,9.79902,0.0812925,-0.597755,0.99001,-0.00559224,-0.000967311,0.0979898,1,5.60468e-05,-2.67812e-05,1.61663e-05,0.0112094,-0.00535624,0.00323326,0,0,0,0,0.0912945,0.499109,-0.983251,34.8125,1,53860,5441984
48,-0.80168,-0.064225,9.76395,-0.152385,-0.556594,0.964851,-0.0080203,-0.000653748,0.0976392,1,5.7133e-05,-1.80749e-05,2.12137e-05,0.0114266,-0.00361498,0.00424273,0,0,0,0,0.0887941,0.498235,-0.987805,34.8125,1,53864,5442384
49,-0.798464,-0.0146971,9.7898,-0.142107,-0.528432,0.996967,-0.0079885,-0.000156214,0.0978977,1,4.71305e-05,-1.96713e-05,9.12383e-07,0.0094261,-0.00393426,0.000182477,0,0,0,0,0.0883466,0.500624,-0.984719,34.8125,1,53867,5442684
50,-0.732685,-0.0308015,9.79905,-0.0784838,-0.498652,0.996367,-0.00732969,-0.000315924,0.0979903,1,4.03003e-05,-1.44764e-05,7.27799e-07,0.00806005,-0.00289528,0.00014556,0,0,0,0,0.0869308,0.496761,-0.986314,34.8125,1,53870,5442984
51,-0.742399,-0.0975591,9.78668,-0.0776578,-0.603714,0.987748,-0.00742929,-0.000984815,0.0978663,1,4.55546e-05,-2.73083e-05,2.06886e-05,0.00911092,-0.00546165,0.00413773,0,0,0,0,0.0887338,0.502616,-0.987202,34.8125,1,53874,5443384
52,-0.774295,-0.00558287,9.8104,-0.106362,-0.521262,1.00779,-0.0077464,-6.03481e-05,0.0981038,1,2.08357e-05,-1.7559e-05,2.78391e-05,0.00416714,-0.0035118,0.00556782,0,0,0,0,0.0870091,0.497185,-0.982769,34.8125,1,53877,5443684
53,-0.856451,-0.11178,9.75645,-0.191641,-0.612557,0.967558,-0.0085674,-0.00112498,0.0975642,1,3.45726e-05,-1.50874e-05,2.53486e-05,0.00691453,-0.00301749,0.00506972,0,0,0,0,0.0892761,0.501121,-0.985723,34.8125,1,53880,5443984
54,-0.754038,-0.047377,9.7563,-0.084004,-0.545769,0.96025,-0.0075427,-0.000483958,0.0975628,1,5.00566e-05,-1.20194e-05,2.78896e-05,0.0100113,-0.00240389,0.00557793,0,0,0,0,0.0879267,0.499137,-0.983235,34.8125,1,53884,5444384
55,-0.723015,-0.165112,9.79918,-0.0509897,-0.62038,0.919822,-0.00722926,-0.00165947,0.0979917,1,4.13563e-05,4.22967e-06,1.73344e-05,0.00827125,0.000845934,0.00346689,0,0,0,0,0.0907518,0.499158,-0.985773,34.8125,1,53887,5444684
56,-0.828884,-0.123237,9.77547,-0.0523795,-0.602621,1.01976,-0.00828129,-0.00124372,0.0977552,1,5.6017e-05,3.83134e-05,2.36173e-05,0.0112034,0.00766268,0.00472346,0,0,0,0,0.0874499,0.49962,-0.982717,34.8125,1,53890,5444984
57,-0.700214,-0.0667736,9.78903,-0.00435588,-0.607965,0.986357,-0.00700427,-0.000677451,0.0978901,1,4.84959e-05,-1.10176e-05,1.57727e-05,0.00969918,-0.00220352,0.00315454,0,0,0,0,0.0874124,0.498202,-0.985274,34.8125,1,53894,5445384
58,-0.819246,-0.0412794,9.49303,-0.233032,-0.549861,0.702584,-0.00821517,-0.000424361,0.0949283,1,5.97591e-05,-0.000119638,1.34738e-05,0.0119518,-0.0239276,0.00269475,0,0,0,0,0.08979,0.500612,-0.984726,34.8125,1,53897,5445684
59,-0.0677497,-0.0681325,9.86888,0.647649,-0.605518,1.00961,-0.000694713,-0.000687943,0.0986886,1,3.36004e-05,-8.71532e-05,-1.06623e-05,0.00672008,-0.0174306,-0.00213247,0,0,0,0,0.0884487,0.49814,-0.98225,34.8125,1,53901,5446084
60,0.00417518,-0.125882,9.89469,0.668123,-0.657055,1.0319,1.9098e-05,-0.00126896,0.0989468,1,5.12005e-05,-0.000113923,-4.31518e-05,0.0102401,-0.0227846,-0.00863035,0,0,0,0,0.0888316,0.499653,-0.985248,34.8125,1,53904,5446384
61,-0.190644,-0.060455,9.71886,0.420235,-0.58552,0.870056,-0.00193329,-0.000611188,0.097188,1,3.48745e-05,-0.000137869,-3.65782e-05,0.00697489,-0.0275739,-0.00731564,0,0,0,0,0.0855373,0.498182,-0.983245,34.8125,1,53907,5446684
62,0.541899,0.0436378,9.8362,1.21169,-0.456644,0.974813,0.00541154,0.000425729,0.0983624,1,4.92223e-05,-3.82889e-05,-8.91672e-05,0.00984447,-0.00765778,-0.0178334,0,0,0,0,0.086537,0.499592,-0.980693,34.8125,1,53910,5446984
63,2.55787,0.0715729,10.1055,2.83274,-0.629658,0.751173,0.025514,0.00069991,0.101072,1,5.41315e-05,-0.000320853,-9.54813e-05,0.0108263,-0.0641706,-0.0190963,0,0,0,0,0.0852497,0.499008,-0.97464,34.8125,1,53914,5447384
64,-0.0551814,-0.0148808,9.72727,0.479325,-0.397362,0.73419,-0.000588175,-0.000162886,0.0972724,1,7.35253e-05,-0.000186586,-0.000197655,0.0147051,-0.0373172,-0.0395311,0,0,0,0,0.0864013,0.499691,-0.986246,34.8125,1,53917,5447684
65,-0.0127453,-0.386366,9.62846,0.521926,-0.703934,0.669219,-0.000143852,-0.00387779,0.0962841,1,7.36773e-05,-7.76521e-05,-0.000186704,0.0147355,-0.0155304,-0.0373408,0,0,0,0,0.082828,0.500004,-0.974606,34.8125,1,53920,5447984
66,0.22368,-0.178299,9.80526,0.920606,-0.745423,0.892646,0.00224462,-0.00179459,0.0980522,1,5.36394e-05,4.4262e-05,-0.000242483,0.0107279,0.0088524,-0.0484967,0,0,0,0,0.0826506,0.498206,-0.983232,34.8125,1,53924,5448384
67,0.353208,-0.234863,10.0071,1.0306,-0.790145,1.1076,0.00353076,-0.00235732,0.100071,1,3.48861e-05,-9.11341e-07,-0.000241917,0.00697722,-0.000182268,-0.0483834,0,0,0,0,0.0831905,0.502014,-0.978099,34.8125,1,53927,5448684
68,-0.0208069,-0.16984,9.78764,0.745163,-0.691207,0.982518,-0.000201502,-0.0017121,0.0978762,1,7.05723e-05,3.82786e-05,-0.00027154,0.0141145,0.00765571,-0.054308,0,0,0,0,0.0807925,0.500101,-0.97914,34.8125,1,53930,5448984
69,-0.583586,-0.114728,9.67758,0.0134066,-0.649348,0.904426,-0.00583117,-0.00115321,0.096776,1,4.91017e-05,2.78263e-05,-0.000305955,0.00982035,0.00556527,-0.061191,0,0,0,0,0.0806459,0.504545,-0.982071,34.8125,1,53934,5449384
70,0.280291,-0.22576,9.88419,0.852666,-0.797932,1.05932,0.00279405,-0.00228151,0.0988416,1,0.000111262,-3.69624e-05,-0.000341524,0.0222524,-0.00739248,-0.0683048,0,0,0,0,0.077948,0.503467,-0.975012,34.8125,1,53937,5449684
71,-0.55109,0.0755096,9.69051,-0.0564195,-0.455256,0.787751,-0.00550706,0.000734298,0.0969054,1,0.000127309,1.71165e-05,-0.000351738,0.0254618,0.00342331,-0.0703476,0,0,0,0,0.0787916,0.505473,-0.978507,34.8125,3,53940,5449984
72,0.18296,-0.21911,9.97817,0.834188,-0.68013,1.03596,0.00181978,-0.00219383,0.0997818,1,7.275e-06,-4.15398e-05,-0.00034929,0.001455,-0.00830797,-0.0698579,0,0,0,0,0.0774104,0.506885,-0.974934,34.8125,3,53944,5450384
73,-0.900492,-0.166941,9.42015,-0.344127,-0.648948,0.573108,-0.00900863,-0.00167769,0.0942009,1,7.42131e-05,-1.40592e-05,-0.000316551,0.0148426,-0.00281183,-0.0633103,0,0,0,0,0.0773368,0.508385,-0.97692,34.8125,3,53947,5450684
74,0.432004,0.133256,9.73766,0.817829,-0.426176,0.823189,0.00430721,0.00132168,0.0973774,1,4.11615e-05,-7.03986e-05,-0.000331953,0.0082323,-0.0140797,-0.0663905,0,0,0,0,0.0751286,0.50826,-0.968832,34.8125,3,53950,5450984
75,-0.408975,-0.196403,9.7914,0.136267,-0.887607,0.981461,-0.00408852,-0.00198228,0.0979137,1,0.000105998,1.24952e-05,-0.000306921,0.0211996,0.00249903,-0.0613841,0,0,0,0,0.0716047,0.508884,-0.974862,34.8125,3,53954,5451384
76,-0.0348682,0.261955,10.0886,0.3147,-0.216803,1.28268,-0.000346039,0.00258668,0.100887,1,0.000163999,4.97898e-06,-0.000314577,0.0327997,0.000995796,-0.0629153,0,0,0,0,0.0755703,0.513586,-0.966695,34.8125,3,53957,5451684
77,0.0924876,-0.533902,9.85235,0.776216,-1.17787,0.888422,0.00090977,-0.00534478,0.0985233,1,2.66406e-05,-6.14529e-05,-0.000280511,0.00532812,-0.0122906,-0.0561021,0,0,0,0,0.0711122,0.511788,-0.97328,34.8125,3,53960,5451984
78,-0.00776764,-0.306235,9.74846,0.811728,-0.899639,0.917696,-9.45418e-05,-0.00306899,0.0974844,1,3.42789e-05,-7.90372e-05,-0.000237403,0.00685579,-0.0158074,-0.0474806,0,0,0,0,0.0687701,0.517544,-0.966576,34.8125,3,53964,5452384
79,-0.267725,-0.091567,9.88088,0.375007,-0.609516,1.00532,-0.00268149,-0.000919674,0.0988086,1,2.72433e-05,-1.9057e-05,-0.000257432,0.00544866,-0.0038114,-0.0514864,0,0,0,0,0.0684033,0.515055,-0.963599,34.8125,3,53967,5452684
80,0.44952,0.124052,9.87111,0.917109,-0.496675,0.996413,0.0044927,0.00123732,0.0987112,1,4.7852e-06,-1.57828e-05,-0.000250292,0.000957039,-0.00315657,-0.0500583,0,0,0,0,0.0668138,0.520956,-0.965481,34.8125,3,53970,5452984
81,-0.265316,-0.14895,9.71226,0.292319,-1.06797,0.936573,-0.00265304,-0.00150076,0.0971224,1,6.3646e-05,3.86887e-06,-0.000208488,0.0127292,0.000773774,-0.0416976,0,0,0,0,0.066,0.522301,-0.958376,34.8125,3,53974,5453384
82,0.00285863,-0.0331451,9.7732,0.457376,-0.670561,0.914751,2.59934e-05,-0.00034309,0.097732,1,5.94847e-05,-1.25613e-05,-0.000204064,0.0118969,-0.00251225,-0.0408129,0,0,0,0,0.0639854,0.523347,-0.961374,34.8125,3,53977,5453684
83,0.0713858,-0.650405,9.90924,0.628705,-1.3695,1.11706,0.000719754,-0.00654475,0.0990897,1,0.000204164,4.0786e-05,-0.000167608,0.0408328,0.0081572,-0.0335215,0,0,0,0,0.0660375,0.52372,-0.95582,34.8125,3,53980,5453984
84,-0.16454,0.588035,9.72077,0.137362,-0.139113,0.866164,-0.00164217,0.0058594,0.097209,1,0.000111429,3.56113e-06,-0.000215781,0.0222859,0.000712226,-0.0431561,0,0,0,0,0.0583073,0.525735,-0.955739,34.8125,3,53984,5454384
85,-0.296804,-0.155933,9.79603,0.125956,-0.658092,1.17677,-0.00295491,-0.00157079,0.0979605,1,6.49207e-05,7.04361e-05,-0.000211846,0.0129841,0.0140872,-0.0423692,0,0,0,0,0.0616315,0.530557,-0.954132,34.8125,3,53987,5454684
86,-0.196726,0.473693,9.88441,0.293289,0.0549122,0.90892,-0.0019807,0.00472895,0.0988443,1,4.40898e-05,-7.69538e-05,-0.000187164,0.00881797,-0.0153908,-0.0374328,0,0,0,0,0.0574124,0.530512,-0.949568,34.8125,3,53991,5455084
87,-0.281241,-0.0271889,10.1367,0.522743,-0.720339,1.18805,-0.00283884,-0.000290482,0.101366,1,9.68667e-05,-0.000129867,-0.000184883,0.0193733,-0.0259733,-0.0369765,0,0,0,0,0.056324,0.534468,-0.952,34.8125,3,53994,5455384
88,0.626594,0.0211014,9.69701,0.793462,-0.629748,0.66308,0.00623917,0.000206006,0.0969718,1,1.23204e-05,-0.000138459,-0.000209396,0.00246408,-0.0276919,-0.0418792,0,0,0,0,0.0550158,0.532935,-0.947483,34.8125,3,53997,5455684
89,-0.0983423,-0.238374,9.44511,0.488313,-0.917474,0.653459,-0.000998929,-0.00240675,0.0944503,1,0.000124061,-7.66378e-05,-0.000214883,0.0248123,-0.0153275,-0.0429766,0,0,0,0,0.0506412,0.534931,-0.947923,34.8125,3,54001,5456084
90,-0.275457,0.0368473,9.99698,0.0351922,-0.865858,1.26148,-0.00271911,0.000345752,0.0999709,1,0.000118623,0.00017673,-0.000181975,0.0237246,0.035346,-0.0363949,0,0,0,0,0.0464392,0.536801,-0.941297,34.8125,3,54004,5456384
91,0.135384,-0.12269,9.88218,0.498268,-0.633239,1.07189,0.00136811,-0.0012394,0.0988214,1,6.0962e-05,7.42675e-05,-0.000165737,0.0121924,0.0148535,-0.0331474,0,0,0,0,0.0501524,0.536868,-0.946868,34.8125,3,54007,5456684
92,-0.542218,0.116301,9.32836,-0.1076,-0.886106,0.563994,-0.00542636,0.00112412,0.0932839,1,0.000212205,-2.32028e-05,-6.46203e-05,0.0424411,-0.00464056,-0.0129241,0,0,0,0,0.0479234,0.535796,-0.940316,34.8125,3,54010,5456984
93,0.65563,-0.522568,10.277,0.614733,-0.990297,1.1323,0.0065154,-0.00522875,0.102772,1,1.67454e-05,-0.000200426,2.81594e-05,0.00334908,-0.0400852,0.00563189,0,0,0,0,0.0436545,0.534341,-0.938813,34.8125,3,54014,5457384
94,0.785286,0.367361,10.6967,1.36826,-0.389162,1.80274,0.00784313,0.00363194,0.106969,1,0.000195875,-4.49957e-05,1.50084e-05,0.039175,-0.00899914,0.00300169,0,0,0,0,0.0479974,0.535741,-0.937287,34.8125,3,54017,5457684
95,-0.496993,0.230688,9.6489,-0.267516,-0.262178,0.679081,-0.00497593,0.00233154,0.0964881,1,-0.000127264,-3.12836e-05,-9.67813e-06,-0.0254528,-0.00625673,-0.00193563,0,0,0,0,0.0461175,0.533797,-0.936816,34.8125,3,54021,5458084
96,0.598764,-0.312301,10.5734,1.0901,-1.1484,1.71531,0.00600381,-0.00313612,0.105733,1,6.1498e-05,7.67134e-05,-8.54589e-06,0.0122996,0.0153427,-0.00170918,0,0,0,0,0.0455714,0.536258,-0.937769,34.8125,3,54024,5458384
97,-1.81812,0.252844,9.15253,-1.20047,-0.299392,0.365788,-0.0181511,0.00251299,0.0915317,1,7.86541e-05,0.000165093,2.89481e-05,0.0157308,0.0330187,0.00578961,0,0,0,0,0.0447525,0.534234,-0.933265,34.8125,3,54027,5458684
98,0.266349,-0.541393,10.562,0.582703,-1.00499,1.52326,0.00262976,-0.00538561,0.105622,1,-0.000134146,-0.000159466,-3.64301e-06,-0.0268292,-0.0318933,-0.000728603,0,0,0,0,0.0465948,0.53476,-0.936292,34.8125,3,54031,5459084
99,-0.245311,-0.180577,9.23042,-0.015711,-0.893107,0.447039,-0.00245744,-0.00184719,0.0923033,1,0.000222484,-2.48648e-05,6.9228e-05,0.0444968,-0.00497295,0.0138456,0,0,0,0,0.048339,0.536456,-0.922626,34.8125,3,54034,5459384
100,0.102307,0.680321,9.23438,0.490596,-0.052416,0.474424,0.00103298,0.00678742,0.0923449,1,8.56667e-05,5.47988e-05,1.52541e-05,0.0171333,0.0109598,0.00305082,0,0,0,0,0.0463239,0.536056,-0.926666,34.8125,3,54037,5459684
101,-0.410733,-0.677145,10.3605,-0.0746621,-1.46033,1.54806,-0.00406333,-0.00678266,0.103606,1,5.49547e-05,0.000213715,-2.09306e-05,0.0109909,0.0427429,-0.00418611,0,0,0,0,0.0502397,0.539348,-0.92156,34.8125,3,54041,5460084
102,-1.38809,0.520992,9.01536,-1.11025,0.17305,0.175266,-0.0138611,0.00519072,0.0901578,1,0.000106823,0.000109449,-2.14279e-06,0.0213646,0.0218897,-0.000428557,0,0,0,0,0.0480173,0.533452,-0.918146,34.8125,3,54044,5460384
103,-0.778143,0.410758,9.48735,-0.33382,-0.352536,0.636734,-0.00779184,0.00408861,0.0948734,1,0.000100784,-5.52651e-05,-9.59114e-06,0.0201568,-0.011053,-0.00191823,0,0,0,0,0.0527682,0.537793,-0.917566,34.8125,3,54047,5460684
104,-0.444532,0.724729,9.1699,-0.33073,0.264324,-0.000145435,-0.00447572,0.00726142,0.0916964,1,-7.66593e-05,-0.000166428,-7.93927e-06,-0.0153319,-0.0332857,-0.00158785,0,0,0,0,0.0491337,0.539595,-0.907408,34.8125,3,54051,5461084
105,0.700515,-0.273221,10.1829,0.84805,-0.700187,1.10112,0.00698163,-0.00273784,0.10183,1,2.66039e-05,-0.000115074,-1.53409e-05,0.00532077,-0.0230148,-0.00306818,0,0,0,0,0.0500603,0.54395,-0.9058,34.8125,3,54054,5461384
106,-1.46006,0.16045,8.62949,-0.974599,-0.460314,-0.17535,-0.0145774,0.00156351,0.0862995,1,0.000235054,0.000134718,1.43636e-05,0.0470107,0.0269436,0.00287273,0,0,0,0,0.0498586,0.543268,-0.894703,34.8125,3,54057,5461684
107,-1.65575,0.180586,8.57787,-1.45584,-0.74183,-0.219945,-0.0165417,0.00176597,0.0857826,1,0.000243833,9.03458e-05,-5.86558e-05,0.0487666,0.0180692,-0.0117312,0,0,0,0,0.0530394,0.550123,-0.897596,34.8125,3,54061,5462084
108,-1.56821,-0.629,9.15556,-1.27557,-1.1585,0.0674715,-0.0157047,-0.00626039,0.0915538,1,-0.000153405,-0.000120173,-4.84713e-05,-0.0306811,-0.0240346,-0.00969426,0,0,0,0,0.0532088,0.552409,-0.88896,34.8125,3,54064,5462384
109,-0.76823,-0.95151,9.55508,-0.448822,-1.40841,0.558744,-0.00771483,-0.00948538,0.0955511,1,-0.000154572,-0.000169128,-1.11545e-05,-0.0309145,-0.0338256,-0.00223089,0,0,0,0,0.0527732,0.553343,-0.886412,34.8125,3,54067,5462684
110,0.418921,0.0393344,10.4584,0.759359,-0.71231,1.64219,0.00418049,0.000393555,0.104585,1,2.08151e-07,-4.16077e-05,3.04028e-05,4.16302e-05,-0.00832154,0.00608055,0,0,0,0,0.0539423,0.557039,-0.875224,34.8125,3,54071,5463084
111,-0.553968,0.044528,9.43377,-0.162412,-0.0473951,0.241754,-0.0055344,0.000484127,0.0943378,1,-0.000206329,2.79891e-05,7.48496e-06,-0.0412658,0.00559782,0.00149699,0,0,0,0,0.0507306,0.556471,-0.869161,34.8125,3,54074,5463384
112,0.088906,-0.251331,10.0749,0.538415,-1.01697,1.17365,0.000902768,-0.00250793,0.100749,1,-2.6911e-05,6.86181e-05,-2.34838e-05,-0.0053822,0.0137236,-0.00469676,0,0,0,0,0.054626,0.56026,-0.864549,34.8125,3,54077,5463684
113,-1.50486,0.740249,8.73276,-1.37984,0.0953057,-0.514714,-0.0150481,0.00741155,0.087327,1,-5.13353e-05,2.33626e-06,-3.09651e-06,-0.0102671,0.000467252,-0.000619302,0,0,0,0,0.0528695,0.558226,-0.85903,34.8125,3,54080,5463984
114,0.138756,0.0308482,9.67166,0.263249,-0.589496,0.517394,0.00134995,0.000290901,0.0967172,1,9.09375e-05,-0.00019442,3.1231e-06,0.0181875,-0.0388841,0.000624619,0,0,0,0,0.0543792,0.560093,-0.854955,34.8125,3,54084,5464384
115,0.162512,0.126223,9.5099,0.404374,-0.781139,0.79942,0.00164458,0.00125854,0.0950987,1,1.93261e-05,0.000102283,-4.16811e-06,0.00386523,0.0204567,-0.000833623,0,0,0,0,0.0542668,0.55549,-0.842936,34.8125,3,54087,5464684
116,0.0249419,-0.932636,10.2603,0.364766,-1.71123,1.48874,0.000259664,-0.00934144,0.102601,1,7.33946e-05,5.35923e-05,-4.03392e-05,0.0146789,0.0107185,-0.00806784,0,0,0,0,0.0581229,0.55208,-0.84505,34.8125,3,54091,5465084
117,-0.643162,-0.413325,9.11204,-1.05115,-1.01439,-0.372997,-0.00645278,-0.00417453,0.091117,1,0.000224411,-0.000117482,2.98817e-05,0.0448822,-0.0234965,0.00597633,0,0,0,0,0.0626176,0.552406,-0.837992,34.8125,3,54094,5465384
118,-1.3668,0.694775,9.33521,-0.907142,0.0659578,0.479586,-0.0136372,0.00695573,0.093356,1,-4.17679e-05,0.000164602,-6.40625e-06,-0.00835357,0.0329205,-0.00128125,0,0,0,0,0.0655186,0.545625,-0.842197,34.8125,3,54097,5465684
119,-0.555188,-0.248253,9.19441,-0.629045,-1.10139,-0.116959,-0.00555798,-0.00250447,0.0919432,1,0.000118823,-3.34031e-05,8.11113e-06,0.0237646,-0.00668063,0.00162223,0,0,0,0,0.0718918,0.543559,-0.838737,34.8125,3,54101,5466084
120,-0.522331,-0.511888,9.91304,-0.304782,-1.05933,0.888777,-0.00524633,-0.00513345,0.0991285,1,7.45329e-05,-0.000115132,-1.91719e-05,0.0149066,-0.0230264,-0.00383439,0,0,0,0,0.0741185,0.537058,-0.83081,34.8125,3,54104,5466384
121,0.313294,0.070843,10.2155,0.511224,-0.509237,1.05313,0.00311916,0.000691409,0.102156,1,8.15716e-05,-6.78793e-05,-5.67103e-05,0.0163143,-0.0135759,-0.0113421,0,0,0,0,0.079974,0.536468,-0.82782,34.8125,3,54107,5466684
122,-0.580886,-0.460307,8.98145,-0.0668488,-1.45958,0.369663,-0.005802,-0.00461757,0.0898142,1,8.38142e-05,4.06771e-05,-4.84484e-05,0.0167628,0.00813542,-0.00968968,0,0,0,0,0.0840342,0.528089,-0.824995,34.8125,3,54110,5466984
123,-0.589129,0.00438433,9.46165,-0.729832,-0.645702,0.0593646,-0.00590094,2.36809e-05,0.094616,1,0.000110389,-5.10278e-05,-6.16396e-05,0.0220779,-0.0102056,-0.0123279,0,0,0,0,0.0963506,0.530054,-0.831574,34.8125,3,54114,5467384
124,-0.576881,-0.065375,10.2995,-0.0494322,-0.920781,1.4777,-0.00575112,-0.00066932,0.102996,1,7.8829e-05,8.62417e-05,-5.79507e-05,0.0157658,0.0172483,-0.0115901,0,0,0,0,0.0989603,0.525066,-0.826646,34.8125,3,54117,5467684
125,0.108609,-0.693597,10.6427,0.592933,-1.3563,1.77159,0.0010428,-0.00694719,0.106426,1,5.19265e-05,-0.000198334,-7.72935e-05,0.0103853,-0.0396669,-0.0154587,0,0,0,0,0.105564,0.525588,-0.831716,34.8125,3,54120,5467984
126,0.723551,-1.18221,10.8619,1.43438,-1.76739,2.16852,0.0072106,-0.0118331,0.10862,1,4.67731e-05,-0.000108409,-5.72577e-05,0.00935461,-0.0216818,-0.0114515,0,0,0,0,0.111995,0.522998,-0.826247,34.8125,3,54124,5468384
127,0.809759,0.43297,11.7333,1.44786,-0.391491,2.7799,0.00813411,0.00430027,0.117331,1,0.000126838,0.000156375,2.07359e-05,0.0253677,0.031275,0.00414717,0,0,0,0,0.117197,0.522538,-0.830322,34.8125,3,54127,5468684
128,-0.745868,0.591978,9.53122,-0.557944,-0.0109313,0.571037,-0.0074273,0.00594014,0.0953133,1,-9.92893e-05,0.000158624,-9.57719e-05,-0.0198579,0.0317249,-0.0191544,0,0,0,0,0.123834,0.524,-0.83335,34.8125,3,54131,5469084
129,-0.354639,-1.24777,10.3864,0.102942,-1.73484,1.61838,-0.00352464,-0.0124598,0.103867,1,-8.4768e-05,0.000109255,-3.77738e-05,-0.0169536,0.0218511,-0.00755476,0,0,0,0,0.125244,0.523048,-0.835398,34.8125,3,54134,5469384
130,0.169262,-0.153398,10.5186,0.287723,-0.685179,1.44202,0.00166654,-0.00152587,0.105187,1,-3.8275e-05,-0.000124203,1.55997e-05,-0.00765499,-0.0248405,0.00311994,0,0,0,0,0.128938,0.526503,-0.839379,34.8125,3,54137,5469684
131,0.0681884,-0.751771,10.3166,0.649285,-2.0124,1.76099,0.000721038,-0.00754211,0.103164,1,0.000118041,0.000191725,-2.68334e-05,0.0236083,0.0383449,-0.00536668,0,0,0,0,0.128102,0.521118,-0.83798,34.8125,3,54141,5470084
132,-0.398267,0.42981,10.1421,0.0930784,-0.263686,1.59231,-0.00395235,0.00428283,0.101423,1,7.54283e-05,0.000149299,-4.27257e-06,0.0150857,0.0298597,-0.000854515,0,0,0,0,0.130696,0.521789,-0.849593,34.8125,3,54144,5470384
133,-0.620723,0.474399,9.68062,-0.137026,-0.216752,0.588008,-0.00621325,0.00474553,0.0968058,1,-7.58959e-06,-3.13678e-05,-5.44801e-06,-0.00151792,-0.00627357,-0.0010896,0,0,0,0,0.13025,0.51454,-0.853288,34.8125,3,54147,5470684
134,-1.72769,0.036962,8.06627,-1.52164,-0.431691,-1.01574,-0.017271,0.000369374,0.080664,1,4.13857e-06,3.66962e-05,-1.21977e-05,0.000827714,0.00733925,-0.00243955,0,0,0,0,0.13145,0.510851,-0.866002,34.8125,3,54151,5471084
135,-0.935961,-0.967991,8.52072,-0.905465,-1.52241,-0.319173,-0.00939041,-0.00969774,0.0852018,1,0.00010845,-0.000176829,-3.44832e-05,0.0216901,-0.0353659,-0.00689664,0,0,0,0,0.128628,0.508418,-0.865033,34.8125,3,54154,5471384
136,-0.356904,0.460784,10.2207,0.16101,-0.165823,1.51222,-0.00360054,0.00455218,0.102209,1,0.000272781,-0.000154725,-1.38866e-05,0.0545563,-0.030945,-0.00277732,0,0,0,0,0.127927,0.503282,-0.87777,34.8125,3,54157,5471684
137,-0.45527,0.182274,9.21212,-0.507766,-0.577217,0.0117407,-0.00460982,0.0018009,0.0921188,1,0.000119683,-0.000310504,-2.30881e-05,0.0239366,-0.0621007,-0.00461761,0,0,0,0,0.126984,0.497012,-0.881441,34.8125,3,54161,5472084
138,-1.18455,-0.594109,8.4257,-0.93569,-1.39568,-0.484385,-0.0118225,-0.00597852,0.0842576,1,0.000225031,0.000138167,-2.068e-05,0.0450062,0.0276334,-0.00413601,0,0,0,0,0.121277,0.487856,-0.885153,34.8125,3,54164,5472384
139,-1.40975,-0.115117,8.96696,-1.20114,-0.481551,0.101085,-0.014109,-0.00114033,0.089668,1,-5.17123e-05,-6.31406e-05,-5.5446e-05,-0.0103425,-0.0126281,-0.0110892,0,0,0,0,0.124587,0.485461,-0.889262,34.8125,3,54167,5472684
140,0.996636,-0.0882743,11.3249,1.13052,-1.0796,2.17133,0.00993029,-0.000917732,0.113252,1,0.00015306,-0.000159097,-1.61327e-05,0.0306119,-0.0318193,-0.00322655,0,0,0,0,0.120312,0.477747,-0.892444,34.8125,3,54171,5473084
141,-0.449873,-0.623416,9.98772,-0.582943,-1.12806,0.560587,-0.00452999,-0.00624968,0.0998748,1,7.80504e-05,-0.000156019,-7.52368e-06,0.0156101,-0.0312037,-0.00150474,0,0,0,0,0.121987,0.481768,-0.899939,34.8125,3,54174,5473384
142,0.227619,-0.38505,10.0004,0.248522,-1.04569,0.948211,0.00227237,-0.00381063,0.100005,1,-0.00020033,-1.73719e-05,-4.50134e-05,-0.0400661,-0.00347439,-0.00900269,0,0,0,0,0.115491,0.473939,-0.895537,34.8125,3,54177,5473684
143,-1.41227,0.377956,8.76997,-1.00302,-0.123685,0.0457962,-0.0141116,0.00380646,0.0877003,1,-0.000146526,6.11046e-05,-4.24057e-05,-0.0293052,0.0122209,-0.00848114,0,0,0,0,0.114724,0.480898,-0.90245,34.8125,3,54181,5474084
144,-0.497721,-0.180205,9.71048,-0.207892,-0.753771,1.15634,-0.00496416,-0.00181562,0.0971052,1,6.89802e-05,6.68436e-05,1.74585e-05,0.013796,0.0133687,0.0034917,0,0,0,0,0.112438,0.480349,-0.897906,34.8125,3,54184,5474384
145,-1.76239,0.900942,8.26094,-1.55542,0.0105654,-0.478054,-0.0175811,0.00896668,0.0826232,1,0.000254698,0.000260931,1.87493e-05,0.0509395,0.0521861,0.00374985,0,0,0,0,0.111829,0.481409,-0.902425,34.8125,3,54187,5474684
146,-0.911806,0.00890843,9.10874,-0.618031,-0.301511,0.353919,-0.00912579,8.94191e-05,0.0910866,1,-4.52178e-06,-4.23895e-05,2.6803e-05,-0.000904356,-0.00847791,0.00536059,0,0,0,0,0.107936,0.484847,-0.901825,34.8125,3,54191,5475084
147,-0.533227,0.362367,9.97039,-0.370672,-0.582854,0.888386,-0.00533089,0.0036099,0.0997044,1,6.79399e-05,7.65564e-06,2.08046e-05,0.013588,0.00153113,0.00416092,0,0,0,0,0.102216,0.483892,-0.900305,34.8125,3,54194,5475384
148,0.537149,-0.609932,10.6163,0.581107,-1.2588,1.80795,0.00537381,-0.0060938,0.106163,1,-2.44822e-05,9.17968e-06,2.96885e-05,-0.00489643,0.00183594,0.0059377,0,0,0,0,0.100732,0.486343,-0.900244,34.8125,3,54197,5475684
149,-1.70043,0.601578,8.60447,-2.18057,-0.0599957,-0.895015,-0.0170182,0.00599463,0.0860434,1,0.000133184,-8.46306e-05,-5.1993e-05,0.0266368,-0.0169261,-0.0103986,0,0,0,0,0.0950558,0.480538,-0.900347,34.8125,3,54201,5476084
150,-0.058793,-0.217842,9.60991,-0.218334,-0.635469,0.0937939,-0.000628036,-0.00216087,0.0960992,1,-9.08444e-05,-0.000207031,-7.25159e-05,-0.0181689,-0.0414061,-0.0145032,0,0,0,0,0.0929264,0.482631,-0.907361,34.8125,3,54204,5476384
151,-1.46059,-1.84753,8.47474,-1.3576,-1.98392,-0.584026,-0.0146248,-0.0184547,0.0847486,1,-0.000111481,-9.88358e-05,-5.96971e-05,-0.0222963,-0.0197672,-0.0119394,0,0,0,0,0.086904,0.475285,-0.902951,34.8125,3,54207,5476684
152,-1.49011,1.20104,8.54127,-1.07939,0.601188,-0.123877,-0.014885,0.011958,0.0854228,1,0.000310052,9.17901e-05,-1.95482e-05,0.0620105,0.018358,-0.00390964,0,0,0,0,0.0815163,0.47299,-0.908533,34.8125,3,54211,5477084
153,-1.98922,0.807143,9.1442,-1.66953,0.0679808,0.458272,-0.0198643,0.00808065,0.0914472,1,-3.23153e-05,0.000145206,-8.32321e-05,-0.00646306,0.0290412,-0.0166464,0,0,0,0,0.0815116,0.471066,-0.910091,34.8125,3,54214,5477384
154,0.429113,-0.213587,10.6958,0.484022,-0.562862,1.25673,0.00427064,-0.00212932,0.106959,1,-3.16358e-05,-9.52989e-05,-2.54987e-05,-0.00632716,-0.0190598,-0.00509973,0,0,0,0,0.0777348,0.465263,-0.911212,34.8125,3,54217,5477684
155,-0.103478,-0.0419223,10.2487,0.78765,-1.05315,1.85016,-0.00103136,-0.000422982,0.102487,1,1.8985e-05,1.69651e-05,-6.38544e-05,0.00379701,0.00339301,-0.0127709,0,0,0,0,0.0743343,0.465796,-0.912195,34.8125,3,54221,5478084
156,-1.50931,-0.698339,8.97209,-0.896535,-1.20038,0.383793,-0.0150798,-0.0069784,0.0897236,1,-1.97521e-05,7.7855e-05,-4.79454e-05,-0.00395041,0.015571,-0.00958908,0,0,0,0,0.0759238,0.459895,-0.910313,34.8125,3,54224,5478384
157,-2.03478,-1.00942,8.05889,-1.99279,-1.52016,-0.850141,-0.0203668,-0.0100978,0.0805837,1,3.00326e-05,-0.000113862,-3.0803e-05,0.00600653,-0.0227723,-0.0061606,0,0,0,0,0.073922,0.462377,-0.911764,34.8125,3,54227,5478684
158,-1.48478,-0.169867,8.83995,-0.972558,-0.654809,0.312771,-0.0148333,-0.00167495,0.0884024,1,-0.000130154,8.2258e-05,-2.39523e-05,-0.0260308,0.0164516,-0.00479046,0,0,0,0,0.0731847,0.458366,-0.905284,34.8125,3,54231,5479084
159,-1.37217,-0.260781,8.82863,-0.845902,-1.70799,0.347397,-0.0137229,-0.00266396,0.0882844,1,0.000321362,-6.40134e-06,-2.16909e-05,0.0642724,-0.00128027,-0.00433817,0,0,0,0,0.0744363,0.463312,-0.909725,34.8125,3,54234,5479384
160,-0.168668,-0.0907562,9.80945,-0.308238,-0.345567,0.633438,-0.00167364,-0.000914204,0.0980947,1,3.40213e-05,6.65524e-05,-9.6128e-06,0.00680426,0.0133105,-0.00192256,0,0,0,0,0.0727249,0.460763,-0.902703,34.8125,3,54237,5479684
161,-1.48176,0.461072,8.95231,-0.982335,-0.0694175,0.107225,-0.0148033,0.00463403,0.0895242,1,-0.000124542,7.81322e-05,-3.3949e-05,-0.0249084,0.0156264,-0.00678979,0,0,0,0,0.0730717,0.465194,-0.905132,34.8125,3,54241,5480084
162,-1.63119,-1.17133,8.8571,-1.69411,-1.72521,-0.271967,-0.0163109,-0.0117382,0.0885679,1,0.000154249,1.54341e-05,-7.37524e-05,0.0308498,0.00308682,-0.0147505,0,0,0,0,0.0730693,0.470497,-0.901478,34.8125,3,54244,5480384
163,-0.733783,-0.142424,9.46433,-0.796893,-0.463747,0.688845,-0.00736959,-0.00142168,0.0946409,1,-1.40122e-05,-0.000167847,6.17112e-06,-0.00280244,-0.0335695,0.00123422,0,0,0,0,0.0701579,0.470539,-0.902474,34.8125,3,54247,5480684
164,-0.181278,-1.67437,10.3003,0.0735786,-2.63482,1.2545,-0.00182494,-0.0167606,0.103,1,8.27255e-05,-5.26115e-05,-3.95635e-05,0.0165451,-0.0105223,-0.00791269,0,0,0,0,0.0673091,0.473426,-0.898861,34.8125,3,54251,5481084
165,-2.11858,0.410094,8.07392,-2.0913,-0.159737,-0.895238,-0.0212169,0.0040815,0.080732,1,0.000142664,-0.000196661,-8.48628e-05,0.0285327,-0.0393322,-0.0169726,0,0,0,0,0.0635494,0.469538,-0.89792,34.8125,3,54254,5481384
166,0.501891,0.573357,11.0665,0.654489,0.50197,1.89478,0.00502808,0.00577475,0.110663,1,-0.000185887,4.1592e-05,3.34533e-06,-0.0371774,0.0083184,0.000669066,0,0,0,0,0.0634104,0.472049,-0.901904,34.8125,3,54257,5481684
167,-0.716063,-1.76045,9.91017,-0.774655,-2.4953,0.343965,-0.00717,-0.0176515,0.0990926,1,0.000239662,-4.14536e-05,-3.28915e-05,0.0479325,-0.00829072,-0.0065783,0,0,0,0,0.058371,0.465644,-0.895963,34.8125,3,54261,5482084
168,-0.201189,-0.0331564,11.4087,-0.259747,-0.784015,2.1078,-0.00200214,-0.000333296,0.114087,1,8.60629e-06,4.28706e-05,-5.76587e-05,0.00172126,0.00857412,-0.0115317,0,0,0,0,0.0609375,0.4673,-0.908059,34.8125,3,54264,5482384
169,0.699343,0.482169,10.7331,0.870642,-0.209492,1.70531,0.00693207,0.00481637,0.107336,1,2.3731e-05,-0.000286573,-1.59712e-05,0.0047462,-0.0573146,-0.00319424,0,0,0,0,0.0602448,0.461328,-0.901118,34.8125,3,54267,5482684
170,-0.319615,1.15209,9.71931,-0.0165759,0.426726,0.91983,-0.00319534,0.011512,0.0971942,1,4.7086e-05,3.69329e-08,-3.49281e-05,0.00941721,7.38658e-06,-0.00698561,0,0,0,0,0.0578786,0.456019,-0.903245,34.8125,3,54271,5483084
171,0.960922,-1.10438,10.6951,1.35869,-2.06895,1.7748,0.00958215,-0.011106,0.106947,1,0.000290697,-0.000126465,-1.05431e-06,0.0581395,-0.0252929,-0.000210863,0,0,0,0,0.0545449,0.459877,-0.899104,34.8125,3,54274,5483384
172,-0.611835,0.437077,10.2772,-0.108107,-0.619085,1.44253,-0.00606972,0.00435574,0.102776,1,7.68336e-05,0.000233946,-6.20438e-05,0.0153667,0.0467892,-0.0124088,0,0,0,0,0.058467,0.4569,-0.898178,34.8125,3,54277,5483684
173,-3.0479,0.868599,6.6495,-2.71772,0.547021,-1.96016,-0.0304655,0.00871785,0.0664971,1,-0.000212283,9.38428e-05,-5.95491e-05,-0.0424566,0.0187686,-0.0119098,0,0,0,0,0.0623714,0.463092,-0.891492,34.8125,3,54281,5484084
174,-1.18061,-0.833433,9.50405,-0.788191,-1.59874,0.729409,-0.0117485,-0.00837785,0.0950438,1,0.000240289,0.000310808,-9.1374e-05,0.0480578,0.0621616,-0.0182748,0,0,0,0,0.0625891,0.462451,-0.882922,34.8125,3,54284,5484384
175,0.472233,0.456067,10.5691,0.0520242,0.111861,0.755141,0.00465561,0.00457435,0.105693,1,-6.51194e-05,-0.000316032,-9.42628e-06,-0.0130239,-0.0632065,-0.00188526,0,0,0,0,0.0659673,0.469161,-0.877737,34.8125,3,54287,5484684
176,-0.128752,-0.54082,10.4911,-0.101808,-1.35596,1.19228,-0.00128864,-0.00537529,0.104913,1,-0.000155461,3.84005e-07,-0.000112134,-0.0310923,7.68009e-05,-0.0224268,0,0,0,0,0.0691672,0.470836,-0.863573,34.8125,3,54291,5485084
177,-1.00055,-1.2729,10.0295,-0.794647,-2.30042,1.04202,-0.0100182,-0.0127517,0.100291,1,0.000117817,-5.80277e-05,-4.37309e-05,0.0235634,-0.0116055,-0.00874618,0,0,0,0,0.071427,0.478151,-0.864431,34.8125,3,54294,5485384
178,-1.5028,0.664998,8.49502,-0.683973,0.347818,0.124261,-0.015011,0.00667577,0.0849512,1,-0.000149411,9.85354e-05,-1.35449e-05,-0.0298823,0.0197071,-0.00270899,0,0,0,0,0.0726929,0.475993,-0.853374,34.8125,3,54297,5485684
179,0.0831964,0.80415,9.84468,0.686664,-0.122824,1.37484,0.000860757,0.00804811,0.098446,1,-3.4241e-05,0.000139669,-8.03996e-05,-0.0068482,0.0279339,-0.0160799,0,0,0,0,0.076567,0.477388,-0.85134,34.8125,3,54301,5486084
180,-1.52511,-1.17559,9.29383,-1.55006,-1.94557,-0.0470212,-0.0152797,-0.0117636,0.0929326,1,5.50563e-05,-0.000143285,-8.49928e-05,0.0110113,-0.0286569,-0.0169986,0,0,0,0,0.0815219,0.476762,-0.845821,34.8125,3,54304,5486384
181,-0.683967,-1.79688,9.4774,-1.08246,-2.70369,0.00806713,-0.00685603,-0.0179531,0.0947758,1,-8.11212e-05,-8.21779e-05,-2.17578e-05,-0.0162242,-0.0164356,-0.00435156,0,0,0,0,0.085806,0.47435,-0.84943,34.8125,3,54307,5486684
182,-0.531878,0.0935412,10.2165,-0.645238,-0.903683,0.821042,-0.00533052,0.000890437,0.102164,1,0.000220387,-5.7476e-05,-5.26928e-06,0.0440774,-0.0114952,-0.00105386,0,0,0,0,0.0944822,0.473302,-0.849494,34.8125,3,54311,5487084
183,-1.36251,-0.0571607,8.95263,-1.19684,-0.858287,-0.0413558,-0.0136194,-0.000590314,0.089527,1,0.000109107,3.24057e-05,-3.04108e-05,0.0218213,0.00648113,-0.00608217,0,0,0,0,0.0989533,0.464008,-0.850226,34.8125,3,54314,5487384
184,-0.753603,0.211225,9.01119,-0.218967,-0.334067,0.568854,-0.00748351,0.00208819,0.0901168,1,0.00013366,0.000291385,-2.45586e-06,0.0267319,0.0582769,-0.000491172,0,0,0,0,0.107086,0.461564,-0.853853,34.8125,3,54317,5487684
185,-1.42817,-0.322334,8.65076,-0.759826,-0.734362,-0.101114,-0.0142848,-0.00324999,0.0865061,1,0.00016502,-1.54751e-05,-6.6454e-05,0.0330041,-0.00309502,-0.0132908,0,0,0,0,0.114058,0.453144,-0.850032,34.8125,3,54321,5488084
186,-1.59686,0.063051,9.89769,-1.72858,-0.0310883,0.439821,-0.015959,0.000666638,0.0989782,1,-0.000167123,4.76081e-05,-9.53939e-05,-0.0334246,0.00952162,-0.0190788,0,0,0,0,0.121004,0.454727,-0.86013,34.8125,3,54324,5488384
187,0.436385,1.21835,11.0636,0.550511,0.6972,2.11457,0.00436305,0.012172,0.110637,1,5.01844e-05,-9.28326e-06,-5.11641e-05,0.0100369,-0.00185665,-0.0102328,0,0,0,0,0.125546,0.450681,-0.85418,34.8125,3,54327,5488684
188,-0.417137,-0.746424,10.3684,-0.10512,-1.83626,1.64323,-0.00419455,-0.00745132,0.103684,1,-5.78714e-05,-0.000103929,-0.000109439,-0.0115743,-0.0207858,-0.0218878,0,0,0,0,0.134494,0.451228,-0.861785,34.8125,3,54331,5489084
189,0.0568362,0.0993229,10.7158,0.615279,-0.803627,1.99722,0.000569158,0.000969719,0.107159,1,0.000109476,3.33534e-06,-4.14391e-05,0.0218953,0.000667069,-0.00828782,0,0,0,0,0.137369,0.452658,-0.861262,34.8125,3,54334,5489384
190,-1.96462,1.97675,8.12642,-2.41971,1.01544,-1.49288,-0.0196604,0.01975,0.081265,1,0.000117068,-9.68367e-05,-3.89586e-05,0.0234135,-0.0193673,-0.00779172,0,0,0,0,0.142604,0.453138,-0.863296,34.8125,3,54337,5489684
191,-1.12985,-2.99491,10.0482,-1.2448,-3.53197,0.809241,-0.0112794,-0.0299839,0.100474,1,0.000176593,0.000104056,-3.0715e-05,0.0353186,0.0208112,-0.00614299,0,0,0,0,0.148248,0.459449,-0.864191,34.8125,3,54341,5490084
192,-0.453506,1.18653,9.97219,0.112555,0.308617,1.37925,-0.00453923,0.011875,0.0997206,1,-4.72672e-05,-2.37479e-05,-2.38876e-05,-0.00945345,-0.00474958,-0.00477752,0,0,0,0,0.149205,0.454627,-0.867839,34.8125,3,54344,5490384
193,-1.09222,-0.771313,8.99835,-0.538684,-1.57162,0.0953467,-0.0109089,-0.00769581,0.0899867,1,-9.45977e-05,7.48384e-05,-1.35124e-05,-0.0189195,0.0149677,-0.00270248,0,0,0,0,0.151495,0.455654,-0.871867,34.8125,3,54347,5490684
194,-0.759628,-0.410608,8.70759,-0.901655,-0.754616,-0.599929,-0.00764325,-0.0041211,0.087071,1,8.43223e-05,-0.000270758,2.19697e-05,0.0168645,-0.0541516,0.00439394,0,0,0,0,0.151535,0.45177,-0.872963,34.8125,3,54351,5491084
195,-1.52289,-1.85725,8.30279,-1.68622,-2.3205,-1.04186,-0.0152134,-0.0185613,0.0830333,1,-6.60956e-05,9.53247e-05,-8.09444e-06,-0.0132191,0.0190649,-0.00161889,0,0,0,0,0.153705,0.449031,-0.884651,34.8125,3,54354,5491384
196,-0.642512,-0.770299,10.5099,-0.304138,-1.60105,1.71504,-0.00641309,-0.00777832,0.105094,1,0.000355506,5.37644e-05,4.73943e-05,0.0711011,0.0107529,0.00947886,0,0,0,0,0.155327,0.441178,-0.882812,34.8125,3,54357,5491684
197,-2.5006,-0.0264209,8.00621,-2.15981,-0.534537,-0.714426,-0.025006,-0.000232596,0.0800622,1,-0.000163573,5.61809e-08,-0.000108399,-0.0327145,1.12362e-05,-0.0216798,0,0,0,0,0.158965,0.435519,-0.895582,34.8125,3,54361,5492084
198,-1.2172,-0.540264,8.56343,-0.767486,-1.24177,-0.0545809,-0.012179,-0.00543237,0.0856315,1,0.000177709,-3.90538e-05,-2.91027e-05,0.0355419,-0.00781077,-0.00582055,0,0,0,0,0.160394,0.43118,-0.89922,34.8125,3,54364,5492384
199,-0.192221,-0.533526,10.0045,-0.152083,-1.1047,0.923599,-0.00194453,-0.00534691,0.100044,1,5.95293e-05,-0.000107933,-6.74063e-05,0.0119059,-0.0215865,-0.0134813,0,0,0,0,0.161297,0.425915,-0.905402,34.8125,3,54367,5492684
200,-1.3661,0.0174274,9.82071,-1.39147,-0.539017,0.79153,-0.0136529,0.000204991,0.0982082,1,-0.000146272,4.06312e-05,-7.2765e-05,-0.0292543,0.00812624,-0.014553,0,0,0,0,0.165079,0.422558,-0.910545,34.8125,3,54371,5493084
201,-0.0237103,-0.22605,10.9057,0.28723,-0.861599,1.99027,-0.00023759,-0.00226355,0.109057,1,1.40832e-05,-1.31246e-06,-4.42886e-05,0.00281663,-0.000262492,-0.00885772,0,0,0,0,0.168536,0.417165,-0.91068,34.8125,3,54374,5493384
202,-0.364,1.02274,9.90933,-0.0766901,0.837058,0.839329,-0.00366198,0.0102598,0.0990891,1,-0.00016063,-0.000118554,-7.39999e-05,-0.0321259,-0.0237108,-0.0148,0,0,0,0,0.168817,0.422607,-0.915106,34.8125,3,54377,5493684
203,-0.485764,-0.406126,10.0423,-0.7894,-0.715632,0.468209,-0.00491265,-0.00407465,0.10042,1,6.97402e-05,-0.000271347,-6.3035e-05,0.013948,-0.0542693,-0.012607,0,0,0,0,0.168948,0.420584,-0.911111,34.8125,3,54381,5494084
204,-0.841394,1.77851,9.41929,-0.747679,0.914772,0.436802,-0.00842166,0.0177887,0.0941916,1,-1.68867e-05,-4.55742e-05,-2.42722e-05,-0.00337733,-0.00911483,-0.00485445,0,0,0,0,0.171059,0.425116,-0.920112,34.8125,3,54384,5494384
205,-0.0710571,-2.80437,10.1962,0.153725,-3.55803,1.48232,-0.000691728,-0.0280251,0.101968,1,-9.12234e-05,0.000100404,-2.91103e-05,-0.0182447,0.0200809,-0.00582205,0,0,0,0,0.170706,0.425509,-0.914545,34.8125,3,54387,5494684
206,-0.353052,0.417949,9.75924,0.0391502,0.0191678,1.06816,-0.00351389,0.00422277,0.0975912,1,-0.000221464,8.48855e-05,-7.34463e-06,-0.0442928,0.0169771,-0.00146893,0,0,0,0,0.171483,0.427082,-0.92108,34.8125,3,54391,5495084
207,-2.22208,-1.8078,8.70703,-2.29469,-2.49377,-0.254408,-0.022192,-0.018136,0.0870656,1,0.000321425,0.000155797,4.56196e-05,0.0642851,0.0311594,0.00912392,0,0,0,0,0.170049,0.429496,-0.918999,34.8125,3,54394,5495384
208,-2.82904,1.0022,7.78406,-2.60204,0.850197,-0.98171,-0.0282669,0.0100432,0.0778464,1,-0.000111404,0.000142267,-6.798e-05,-0.0222808,0.0284535,-0.013596,0,0,0,0,0.170442,0.423774,-0.926704,34.8125,3,54397,5495684
209,-1.96696,-0.642544,7.78231,-1.67192,-1.42537,-0.914673,-0.0196961,-0.00645685,0.0778138,1,0.000206629,-0.000168852,-1.90531e-05,0.0413258,-0.0337703,-0.00381062,0,0,0,0,0.171791,0.424313,-0.930234,34.8125,3,54401,5496084
210,-0.425302,-0.074221,9.28177,0.163722,-0.971346,0.694634,-0.00425422,-0.000795614,0.0928172,1,0.000288895,-6.21693e-06,-2.644e-05,0.0577789,-0.00124339,-0.00528799,0,0,0,0,0.169082,0.413606,-0.930459,34.8125,3,54404,5496384
211,-2.80892,1.18089,8.73658,-2.68102,1.40172,-0.000175714,-0.0280673,0.0118547,0.0873667,1,-0.000237025,0.000114853,-7.68296e-05,-0.0474049,0.0229706,-0.0153659,0,0,0,0,0.172639,0.414269,-0.942078,34.8125,3,54407,5496684
212,-1.46041,-0.470586,8.35219,-1.63974,-1.082,-0.875472,-0.0146094,-0.00470859,0.0835209,1,2.1628e-05,-2.97502e-05,-3.0418e-05,0.0043256,-0.00595003,-0.00608361,0,0,0,0,0.172336,0.404988,-0.941272,34.8125,3,54411,5497084
213,-0.310306,-1.42012,10.4962,-0.151749,-2.48161,1.71566,-0.00310769,-0.0142044,0.104962,1,1.69946e-05,-1.31614e-05,-6.58113e-05,0.00339893,-0.00263228,-0.0131623,0,0,0,0,0.177014,0.40119,-0.949459,34.8125,3,54414,5497384
214,0.0676554,0.949174,11.68,1.08319,-0.0265979,3.39948,0.000720758,0.00945153,0.116803,1,0.00017187,0.000186,-3.97875e-05,0.0343739,0.0372001,-0.00795749,0,0,0,0,0.179578,0.395272,-0.947077,34.8125,3,54417,5497684
215,-0.48326,0.298714,10.5234,0.113049,-0.356426,1.83498,-0.00480907,0.00297905,0.105235,1,3.68173e-05,0.000112784,3.51245e-05,0.00736346,0.0225567,0.00702491,0,0,0,0,0.183781,0.396292,-0.95162,34.8125,3,54421,5498084
216,-1.47897,0.71251,9.08502,-1.22678,0.358318,0.193593,-0.0147824,0.00714087,0.0908502,1,-8.85524e-05,4.07861e-05,1.06457e-05,-0.0177105,0.00815722,0.00212915,0,0,0,0,0.187676,0.398636,-0.94805,34.8125,3,54424,5498384
217,-0.35659,-1.15501,10.1332,-0.356326,-2.59131,1.28489,-0.00354781,-0.0116105,0.101325,1,0.000297766,8.99063e-05,-5.48286e-06,0.0595532,0.0179813,-0.00109657,0,0,0,0,0.191511,0.394277,-0.9517,34.8125,3,54427,5498684
218,-2.71108,1.34888,8.01039,-3.06788,0.58931,-1.35975,-0.0271011,0.013477,0.0801092,1,8.14197e-05,5.7151e-05,-2.27736e-05,0.0162839,0.0114302,-0.00455473,0,0,0,0,0.197179,0.399125,-0.952629,34.8125,3,54431,5499084
219,-1.40833,-0.524284,9.05884,-1.21496,-0.908755,0.190506,-0.0141108,-0.00522735,0.090585,1,-8.43201e-05,-0.000151453,-7.5896e-06,-0.016864,-0.0302905,-0.00151792,0,0,0,0,0.197693,0.39717,-0.952674,34.8125,3,54434,5499384
220,-0.983854,0.991275,10.1064,-0.556257,0.575254,1.19826,-0.00986339,0.00989467,0.101063,1,9.38864e-05,-0.00012742,-4.55735e-05,0.0187773,-0.0254839,-0.00911469,0,0,0,0,0.202332,0.400147,-0.95768,34.8125,3,54437,5499684
221,-0.133333,-0.675222,11.1254,0.326132,-1.30717,2.43199,-0.00134329,-0.00676474,0.111253,1,5.68663e-05,-4.18634e-05,-4.75511e-05,0.0113733,-0.00837267,-0.00951022,0,0,0,0,0.202401,0.396723,-0.957252,34.8125,3,54441,5500084
222,-1.90667,1.07061,9.51198,-1.16572,0.492334,1.21515,-0.019068,0.0107029,0.0951199,1,2.91325e-05,-1.36528e-05,-6.16028e-05,0.0058265,-0.00273056,-0.0123206,0,0,0,0,0.203589,0.397379,-0.967344,34.8125,3,54444,5500384
223,-0.486308,1.00983,10.2528,-0.274435,0.619428,1.06488,-0.00491061,0.0100844,0.102527,1,6.91669e-05,-0.00023509,-3.37993e-05,0.0138334,-0.047018,-0.00675986,0,0,0,0,0.202296,0.390535,-0.965975,34.8125,3,54447,5500684
224,-0.648809,-0.875424,10.2076,-0.189484,-1.09475,1.49021,-0.00649802,-0.00878305,0.102073,1,0.000141782,-4.77333e-05,-1.05685e-05,0.0283565,-0.00954666,-0.0021137,0,0,0,0,0.205498,0.38581,-0.976196,34.8125,3,54451,5501084
225,-0.628037,0.968164,10.8341,-0.485424,0.7979,1.63755,-0.00629715,0.00968912,0.10834,1,-3.45888e-05,-7.72847e-05,1.8046e-06,-0.00691777,-0.0154569,0.00036092,0,0,0,0,0.205406,0.382504,-0.98233,34.8125,3,54454,5501384
226,-2.8158,-0.347238,8.51079,-2.67857,-0.82064,-0.465266,-0.0281824,-0.00347046,0.0850999,1,-4.67589e-07,-0.000141871,-3.26891e-05,-9.35177e-05,-0.0283742,-0.00653781,0,0,0,0,0.206835,0.373829,-0.989095,34.8125,3,54457,5501684
227,-0.99159,0.316891,9.43138,-0.642479,-0.49487,0.655608,-0.00992605,0.00312761,0.0943141,1,0.000214825,-5.25113e-05,3.95552e-05,0.042965,-0.0105023,0.00791104,0,0,0,0,0.210926,0.37204,-1.00026,34.8125,3,54461,5502084
228,-1.93444,-0.00821298,8.67341,-1.5407,-0.361848,0.0608814,-0.0193368,-0.000100546,0.0867358,1,9.58622e-05,4.39785e-05,4.6193e-05,0.0191724,0.00879571,0.0092386,0,0,0,0,0.211572,0.36276,-0.999969,34.8125,3,54464,5502384
229,-1.32657,1.82141,9.50965,-1.02434,1.38883,0.700716,-0.0132518,0.0182243,0.0950965,1,-5.67384e-05,7.74778e-05,2.10894e-05,-0.0113477,0.0154956,0.00421788,0,0,0,0,0.21663,0.362887,-1.00959,34.8125,3,54467,5502684
230,-1.60689,1.05328,9.46455,-1.14835,0.541037,1.06142,-0.0160249,0.0105332,0.0946529,1,-1.08681e-05,0.000238254,5.16794e-05,-0.00217361,0.0476508,0.0103359,0,0,0,0,0.218208,0.356995,-1.00821,34.8125,3,54471,5503084
231,-1.98919,0.423958,8.96418,-1.5465,-0.117069,0.158,-0.0199186,0.00421361,0.0896371,1,0.000146604,-0.000149657,-7.79246e-06,0.0293208,-0.0299314,-0.00155849,0,0,0,0,0.221766,0.361994,-1.0167,34.8125,3,54474,5503384
232,-0.345403,-0.881028,10.6831,0.147858,-1.61187,2.0199,-0.00345658,-0.00883848,0.106829,1,0.000133939,-7.05347e-06,-5.92675e-05,0.0267878,-0.00141069,-0.0118535,0,0,0,0,0.22243,0.356073,-1.0133,34.8125,3,54477,5503684
233,-1.50853,-0.339059,9.34221,-1.1022,-1.34716,0.938287,-0.015085,-0.00343598,0.0934205,1,0.000242088,1.14342e-06,5.16586e-06,0.0484176,0.000228684,0.00103317,0,0,0,0,0.222657,0.358183,-1.02234,34.8125,3,54481,5504084
234,-1.13932,-0.103194,9.56168,-0.813868,-1.09151,1.03834,-0.0113706,-0.00105964,0.0956192,1,0.000145666,0.00011801,-6.9747e-06,0.0291333,0.023602,-0.00139494,0,0,0,0,0.222132,0.361592,-1.02176,34.8125,3,54484,5504384
235,-2.05116,-1.37385,8.66567,-1.79596,-2.66297,0.078831,-0.0205444,-0.0138132,0.086637,1,0.000438303,-0.000184925,-2.9671e-05,0.0876605,-0.036985,-0.00593419,0,0,0,0,0.222045,0.36021,-1.02634,34.8125,3,54487,5504684
236,-1.81296,-0.129983,8.64357,-2.09455,-0.42421,-0.862536,-0.0181524,-0.00125315,0.0864316,1,-0.00025441,-0.00013104,-7.45327e-05,-0.050882,-0.0262081,-0.0149065,0,0,0,0,0.220923,0.363226,-1.03081,34.8125,3,54491,5505084
237,-0.928525,-2.13743,10.0343,-1.10712,-2.80103,1.05739,-0.00928393,-0.0213839,0.100341,1,4.79056e-05,7.02044e-06,-2.24047e-06,0.00958111,0.00140409,-0.000448094,0,0,0,0,0.217624,0.35983,-1.03037,34.8125,3,54494,5505384
238,-1.48925,1.9581,8.93425,-0.98548,1.60819,0.398853,-0.0148956,0.0196081,0.0893361,1,-0.000152767,-1.6087e-05,5.14336e-06,-0.0305533,-0.0032174,0.00102867,0,0,0,0,0.219356,0.361883,-1.03689,34.8125,3,54497,5505684
239,-0.711334,1.02278,10.6889,-0.439992,0.709543,1.8842,-0.00711953,0.0102892,0.106883,1,-0.000284833,-3.22421e-05,-3.40965e-05,-0.0569667,-0.00644841,-0.0068193,0,0,0,0,0.214108,0.357076,-1.03849,34.8125,3,54501,5506084
240,-0.128469,-1.2621,10.8738,-0.151783,-2.24532,1.64288,-0.00130046,-0.0126231,0.108738,1,9.52237e-06,-7.55136e-05,2.60811e-05,0.00190447,-0.0151027,0.00521622,0,0,0,0,0.214252,0.358282,-1.0516,34.8125,3,54504,5506384
241,-2.35609,-0.539694,7.15162,-2.45503,-1.13921,-1.97397,-0.0236001,-0.00540499,0.0715026,1,4.37382e-05,-0.000277289,3.80346e-05,0.00874763,-0.0554578,0.00760692,0,0,0,0,0.215878,0.350908,-1.04924,34.8125,3,54507,5506684
242,-1.86521,-0.0181673,8.64416,-1.88666,-0.593436,-0.127702,-0.0186858,-0.000158126,0.0864343,1,-0.00012611,-0.00019518,-4.67583e-05,-0.025222,-0.0390359,-0.00935165,0,0,0,0,0.214754,0.345252,-1.05997,34.8125,3,54511,5507084
243,-0.777932,-0.245796,9.22493,-0.54136,-1.11618,0.663175,-0.00773629,-0.00247304,0.0922525,1,8.0604e-05,0.000232866,1.34795e-05,0.0161208,0.0465732,0.00269589,0,0,0,0,0.214243,0.344796,-1.06149,34.8125,3,54514,5507384
244,-1.04657,0.559703,9.78788,-0.759062,-0.30843,1.0587,-0.0104484,0.00559774,0.0978806,1,-2.21536e-06,8.72968e-05,-1.31765e-05,-0.000443071,0.0174594,-0.0026353,0,0,0,0,0.214221,0.338066,-1.0672,34.8125,3,54517,5507684
245,-0.766292,0.00249537,9.95073,-0.499674,-0.431215,1.03423,-0.00769151,-4.04287e-06,0.0995051,1,0.000145043,-0.00014366,8.53646e-06,0.0290087,-0.028732,0.00170729,0,0,0,0,0.214941,0.341608,-1.0747,34.8125,3,54521,5508084
246,-1.7208,-0.048337,9.3202,-1.34335,-0.561762,0.736955,-0.0172075,-0.000486715,0.0932021,1,2.26925e-05,2.84993e-06,-2.57062e-05,0.0045385,0.000569985,-0.00514123,0,0,0,0,0.215022,0.335285,-1.07585,34.8125,3,54524,5508384
247,-1.23002,0.0937431,9.21148,-1.24235,-0.759908,0.0842881,-0.0123147,0.000902442,0.0921132,1,0.000191263,-7.89929e-05,-1.00646e-05,0.0382527,-0.0157986,-0.00201292,0,0,0,0,0.216745,0.337825,-1.08237,34.8125,3,54527,5508684
248,-0.949037,0.791513,9.80615,-0.49785,0.17926,1.20809,-0.00948313,0.00788426,0.0980647,1,0.000161834,3.31904e-05,-4.59782e-05,0.0323668,0.00663809,-0.00919563,0,0,0,0,0.217793,0.333418,-1.08196,34.8125,3,54531,5509084
249,-1.77192,-0.816362,10.1338,-1.56672,-1.55647,1.29988,-0.0177408,-0.00819983,0.101331,1,0.000185907,-0.000103477,-4.15508e-05,0.0371814,-0.0206954,-0.00831015,0,0,0,0,0.216589,0.336975,-1.08946,34.8125,3,54534,5509384
250,-1.3237,-0.935394,10.746,-1.00755,-1.60653,1.83659,-0.0132093,-0.00937418,0.107461,1,8.9852e-05,0.000125588,3.50396e-05,0.0179704,0.0251175,0.00700792,0,0,0,0,0.216136,0.335995,-1.08897,34.8125,3,54537,5509684
251,-2.0161,0.351999,9.83027,-2.10288,-0.453951,1.06829,-0.0201487,0.00351946,0.0983052,1,1.3287e-05,6.08437e-05,-5.16958e-05,0.00265739,0.0121687,-0.0103392,0,0,0,0,0.216034,0.337034,-1.09248,34.8125,3,54541,5510084
252,-3.22469,-0.215637,8.45251,-3.02899,-0.686865,-0.147427,-0.0322543,-0.00217207,0.0845219,1,0.000110909,-4.24935e-05,-4.72677e-05,0.0221818,-0.0084987,-0.00945355,0,0,0,0,0.216911,0.339979,-1.09394,34.8125,3,54544,5510384
253,-3.24582,-0.0220619,8.77992,-3.22808,-1.00552,0.061331,-0.0324453,-0.000268233,0.0878039,1,0.000264727,7.36319e-05,1.73681e-05,0.0529453,0.0147264,0.00347362,0,0,0,0,0.213395,0.340115,-1.09998,34.8125,3,54547,5510684
254,-2.17259,0.833824,9.00881,-2.22829,0.105091,0.394483,-0.0217345,0.00831845,0.0900878,1,0.000112857,-4.89461e-05,-1.26145e-05,0.0225713,-0.00978922,-0.0025229,0,0,0,0,0.212302,0.345037,-1.10188,34.8125,3,54551,5511084
255,-3.01104,-0.673552,9.34062,-2.79707,-1.31461,0.792207,-0.0300994,-0.00673763,0.0934096,1,4.02342e-06,5.71031e-05,2.25619e-05,0.000804684,0.0114206,0.00451238,0,0,0,0,0.208941,0.338796,-1.10605,34.8125,3,54554,5511384
256,-1.20573,-0.303279,9.79449,-1.6349,-0.976165,1.44396,-0.01203,-0.00307011,0.0979471,1,0.000188372,0.000138443,1.74995e-05,0.0376745,0.0276886,0.0034999,0,0,0,0,0.208901,0.341235,-1.10599,34.8125,3,54557,5511684
257,-3.66641,0.0518223,9.53693,-2.38335,-0.422397,1.15321,-0.036661,0.000521754,0.0953705,1,-2.25005e-05,1.65889e-05,1.03805e-05,-0.00450011,0.00331777,0.00207611,0,0,0,0,0.20371,0.33735,-1.10454,34.8125,3,54561,5512084
258,-2.76763,-0.452931,9.37954,-1.32492,-1.04593,1.12979,-0.0276934,-0.00453701,0.09379,1,2.96736e-05,-9.28989e-05,3.83889e-05,0.00593472,-0.0185798,0.00767779,0,0,0,0,0.200972,0.340504,-1.11607,34.8125,3,54564,5512384
259,-1.82199,0.0451126,9.62538,-1.33848,-0.917527,1.15913,-0.0182031,0.000443443,0.0962571,1,3.32113e-05,8.78976e-05,3.54093e-05,0.00664225,0.0175795,0.00708185,0,0,0,0,0.200123,0.335128,-1.11518,34.8125,3,54567,5512684
260,-1.76103,-0.602826,9.60561,-1.33464,-1.32586,1.11064,-0.0175641,-0.00601926,0.0960651,1,-5.42888e-05,0.000237842,4.05743e-05,-0.0108578,0.0475685,0.00811487,0,0,0,0,0.195315,0.331311,-1.11777,34.8125,3,54571,5513084
261,-0.509754,0.314417,10.1382,-0.410918,-0.607721,1.55567,-0.00510575,0.00311021,0.101382,1,0.000166709,-3.99803e-05,1.63497e-05,0.0333419,-0.00799606,0.00326994,0,0,0,0,0.194724,0.334287,-1.12022,34.8125,3,54574,5513384
262,-1.75497,-0.275722,9.40255,-0.963931,-0.854105,0.902642,-0.0175657,-0.00278895,0.0940215,1,0.000167491,-8.52126e-05,6.72736e-06,0.0334982,-0.0170425,0.00134547,0,0,0,0,0.192818,0.328025,-1.12389,34.8125,3,54577,5513684
263,-1.1247,0.385461,9.76296,-0.710504,-0.253167,1.02358,-0.0112607,0.00385663,0.0976279,1,-7.91797e-06,-7.09966e-05,-2.12271e-05,-0.00158359,-0.0141993,-0.00424543,0,0,0,0,0.189351,0.32668,-1.12895,34.8125,3,54581,5514084
264,-1.5028,-0.0797849,9.52604,-0.873862,-0.878471,0.974357,-0.01503,-0.0008064,0.0952601,1,4.84641e-05,-1.02827e-05,-2.27041e-05,0.00969281,-0.00205653,-0.00454081,0,0,0,0,0.187524,0.323733,-1.12699,34.8125,3,54584,5514384
265,-0.810218,-0.638895,9.9159,-0.507077,-1.45115,1.00213,-0.00812711,-0.00637423,0.0991579,1,-7.29194e-05,-0.000124634,-1.62942e-05,-0.0145839,-0.0249268,-0.00325885,0,0,0,0,0.184959,0.325316,-1.1325,34.8125,3,54587,5514684
266,-0.51806,-1.00844,10.8186,-0.00233332,-1.91177,2.05568,-0.00519014,-0.010119,0.108182,1,0.000160376,-4.28524e-05,-1.36081e-05,0.0320751,-0.00857049,-0.00272161,0,0,0,0,0.181716,0.318506,-1.13213,34.8125,3,54591,5515084
267,-1.09427,-0.386786,9.55169,-0.700214,-1.37634,0.873567,-0.0109577,-0.00388905,0.0955143,1,0.000111744,-7.84077e-05,-6.71171e-06,0.0223488,-0.0156815,-0.00134234,0,0,0,0,0.179084,0.318209,-1.14172,34.8125,3,54594,5515384
268,-1.57513,-0.0804025,9.21174,-1.10802,-0.779843,0.579653,-0.0157538,-0.000808016,0.092117,1,2.54545e-05,-1.29122e-05,-2.21922e-05,0.0050909,-0.00258243,-0.00443843,0,0,0,0,0.178265,0.31474,-1.13826,34.8125,3,54597,5515684
266,-1.57376,-0.266825,9.37788,-1.24863,-0.690845,0.531302,-0.0157524,-0.00265929,0.0937766,1,-4.90399e-05,-7.91043e-05,7.49252e-06,-0.00980797,-0.0158209,0.0014985,0,0,0,0,0.176694,0.314363,-1.14382,34.8125,3,54600,5515984
270,-0.802591,-0.117581,9.70361,-0.413714,-0.84526,0.97242,-0.0080572,-0.00118292,0.0970334,1,3.4953e-05,-0.000161441,1.97898e-05,0.0069906,-0.0322882,0.00395796,0,0,0,0,0.173387,0.312901,-1.14232,34.8125,3,54604,5516384
271,-0.4033,-0.538504,10.6304,0.106204,-1.42855,1.95173,-0.00404576,-0.00539286,0.106303,1,3.7783e-05,-5.86885e-05,-2.67062e-05,0.0075566,-0.0117377,-0.00534124,0,0,0,0,0.172449,0.31,-1.14339,34.8125,3,54607,5516684
272,-1.03191,-0.128816,10.0879,-0.52896,-0.940417,1.39349,-0.0103197,-0.00130613,0.100879,1,9.46704e-05,-2.12627e-06,-5.48928e-05,0.0189341,-0.000425253,-0.0109786,0,0,0,0,0.169394,0.312075,-1.14888,34.8125,3,54611,5517084
273,-0.989234,-0.550695,9.718,-0.615779,-1.23316,0.946776,-0.00990037,-0.00550981,0.0971791,1,1.30686e-05,-4.22448e-05,1.61617e-05,0.00261372,-0.00844897,0.00323235,0,0,0,0,0.163756,0.309133,-1.14539,34.8125,3,54614,5517384
274,-1.11524,-0.114327,9.87656,-0.565778,-0.899212,1.16382,-0.0111522,-0.0011588,0.0987654,1,7.52899e-05,4.52521e-07,2.95062e-05,0.015058,9.05043e-05,0.00590124,0,0,0,0,0.163616,0.311644,-1.14937,34.8125,3,54617,5517684
275,-1.23331,-0.0608196,9.80591,-0.730834,-0.810301,1.18405,-0.0123346,-0.000611657,0.0980589,1,1.66636e-05,-7.7469e-06,7.80641e-06,0.00333273,-0.00154938,0.00156128,0,0,0,0,0.159388,0.309196,-1.14688,34.8125,3,54620,5517984
276,-1.03795,-0.371599,9.69991,-0.627007,-1.17712,0.999487,-0.0103913,-0.00372907,0.0969973,1,6.55132e-05,-6.14723e-05,1.77209e-05,0.0131026,-0.0122945,0.00354418,0,0,0,0,0.156354,0.310773,-1.15188,34.8125,3,54624,5518384
277,-1.4422,0.495826,9.26089,-0.906056,-0.203668,0.672983,-0.0144241,0.00495324,0.0926088,1,2.4004e-05,-1.05707e-05,1.98985e-05,0.0048008,-0.00211413,0.0039797,0,0,0,0,0.154203,0.30868,-1.14283,34.8125,3,54627,5518684
278,-1.37343,-0.245549,9.54746,-0.83581,-0.969469,1.03044,-0.0137344,-0.00245389,0.0954746,1,-8.99839e-06,-6.38882e-07,4.48149e-06,-0.00179968,-0.000127776,0.000896299,0,0,0,0,0.15167,0.308311,-1.14838,34.8125,3,54631,5519084
279,-1.40024,-0.254615,9.61346,-0.954597,-0.953016,0.951569,-0.0140098,-0.00255679,0.0961332,1,5.29066e-05,-3.85595e-05,1.69527e-05,0.0105813,-0.00771191,0.00339055,0,0,0,0,0.149722,0.312681,-1.14625,34.8125,3,54634,5519384
280,-1.31548,0.0760224,9.54919,-0.668126,-0.680851,0.940547,-0.0131619,0.000745209,0.095491,1,7.63888e-05,-3.70371e-05,1.61899e-05,0.0152778,-0.00740742,0.00323798,0,0,0,0,0.146414,0.308328,-1.14684,34.8125,3,54637,5519684
281,-0.947845,0.0978319,10.1228,-0.375962,-0.782358,1.52097,-0.00947191,0.000963646,0.101229,1,7.23063e-05,3.23237e-05,1.83129e-06,0.0144613,0.00646473,0.000366258,0,0,0,0,0.144874,0.312748,-1.14775,34.8125,3,54641,5520084
282,-0.64875,-0.12952,10.2352,-0.109876,-0.975802,1.51654,-0.00648757,-0.00131161,0.102352,1,7.91099e-05,-5.53275e-07,1.67641e-05,0.015822,-0.000110655,0.00335281,0,0,0,0,0.141657,0.310256,-1.14324,34.8125,3,54644,5520384
283,-1.06946,-0.113777,9.89186,-0.472231,-0.900637,1.10451,-0.0106976,-0.00114409,0.0989182,1,2.85019e-05,-1.58026e-05,3.16335e-05,0.00570039,-0.00316051,0.00632671,0,0,0,0,0.14056,0.313254,-1.1467,34.8125,3,54647,5520684
284,-1.0362,0.244463,9.83572,-0.492529,-0.520703,1.13902,-0.0103662,0.00244702,0.0983567,1,-9.14382e-06,-2.17775e-05,-2.8225e-05,-0.00182876,-0.0043555,-0.005645,0,0,0,0,0.135432,0.310769,-1.14169,34.8125,3,54650,5520984
285,-1.22993,-0.120227,9.84438,-0.674444,-0.82774,1.31505,-0.0123023,-0.00120675,0.0984434,1,2.1573e-05,-1.49699e-05,9.47528e-06,0.0043146,-0.00299397,0.00189506,0,0,0,0,0.133789,0.316228,-1.1461,34.8125,3,54654,5521384
286,-0.997222,0.0783738,9.82591,-0.391496,-0.778466,1.11687,-0.00998246,0.000775565,0.0982581,1,3.86706e-05,-5.18336e-05,2.87352e-05,0.00773412,-0.0103667,0.00574704,0,0,0,0,0.13063,0.314657,-1.13855,34.8125,3,54657,5521684
287,-1.05169,-0.426419,9.64523,-0.513502,-1.17773,0.948786,-0.0105216,-0.00428429,0.0964509,1,9.98644e-05,-2.60284e-05,3.98263e-05,0.0199729,-0.00520568,0.00796527,0,0,0,0,0.125214,0.314791,-1.14357,34.8125,3,54661,5522084
288,-1.08287,0.193963,9.56895,-0.496969,-0.626308,0.955983,-0.01083,0.00192881,0.0956896,1,5.40675e-05,-6.25821e-06,2.19016e-05,0.0108135,-0.00125164,0.00438032,0,0,0,0,0.124796,0.317641,-1.13896,34.8125,3,54664,5522384
289,-1.07198,0.0355203,9.87139,-0.408229,-0.752791,1.24275,-0.0107135,0.000340649,0.0987146,1,7.53757e-05,3.16727e-05,-1.52653e-05,0.0150751,0.00633455,-0.00305305,0,0,0,0,0.120465,0.316232,-1.13998,34.8125,3,54667,5522684
290,-0.948,0.38995,9.86479,-0.208229,-0.528717,1.1786,-0.00947667,0.00388428,0.0986488,1,7.70372e-05,1.69226e-05,1.07481e-06,0.0154074,0.00338452,0.000214962,0,0,0,0,0.119471,0.319636,-1.13889,34.8125,3,54671,5523084
291,-1.24576,-0.238777,9.47985,-0.555185,-1.01564,0.75143,-0.0124587,-0.00239563,0.0947982,1,4.35522e-05,-5.37742e-06,-1.59767e-05,0.00871044,-0.00107548,-0.00319534,0,0,0,0,0.114807,0.316677,-1.13489,34.8125,3,54674,5523384
292,-1.30056,0.0137109,9.41519,-0.734602,-0.815377,0.722836,-0.0129994,0.000112827,0.0941528,1,0.000126507,3.32429e-05,1.77196e-05,0.0253015,0.00664857,0.00354391,0,0,0,0,0.114738,0.318655,-1.13636,34.8125,3,54677,5523684
293,-0.854866,-0.376883,9.97229,-0.244065,-1.17596,1.175,-0.00855264,-0.00377587,0.0997223,1,3.54313e-05,-1.98799e-05,-1.31269e-06,0.00708627,-0.00397599,-0.000262537,0,0,0,0,0.109133,0.319544,-1.12874,34.8125,3,54681,5524084
294,-1.14705,-0.065861,9.56622,-0.576197,-0.882906,0.853904,-0.0114827,-0.000666855,0.0956606,1,4.20886e-05,-6.40356e-05,8.38712e-06,0.00841772,-0.0128071,0.00167742,0,0,0,0,0.106054,0.320191,-1.13629,34.8125,3,54684,5524384
295,-1.25095,0.0136242,9.69406,-0.641143,-0.747425,1.01057,-0.0125132,0.000127341,0.0969401,1,4.49178e-05,-1.88403e-05,7.71514e-06,0.00898356,-0.00376806,0.00154303,0,0,0,0,0.104856,0.317132,-1.12827,34.8125,3,54687,5524684
296,-0.955866,-0.119696,9.82796,-0.247564,-0.967716,1.16684,-0.00956458,-0.00120919,0.0982788,1,6.25998e-05,-3.00931e-05,-3.86422e-06,0.01252,-0.00601863,-0.000772843,0,0,0,0,0.100913,0.31916,-1.13073,34.8125,3,54691,5525084
297,-0.873873,0.0923026,9.77493,-0.252187,-0.693432,1.08319,-0.00873833,0.000912544,0.0977494,1,5.34058e-05,2.09394e-06,2.34736e-06,0.0106812,0.000418788,0.000469472,0,0,0,0,0.101008,0.320054,-1.12617,34.8125,3,54694,5525384
298,-1.07463,-0.137041,9.68515,-0.521784,-0.939131,1.06161,-0.0107533,-0.00137637,0.0968506,1,3.16853e-05,-3.59683e-05,-8.41864e-06,0.00633707,-0.00719367,-0.00168373,0,0,0,0,0.0961628,0.316264,-1.13027,34.8125,3,54697,5525684
299,-0.982367,-0.0857247,9.85795,-0.319262,-0.920997,1.14983,-0.00982892,-0.000865618,0.0985789,1,4.31107e-05,-2.65653e-05,-6.56035e-06,0.00862215,-0.00531306,-0.00131207,0,0,0,0,0.0952014,0.319163,-1.12818,34.8125,3,54701,5526084
300,-0.944119,0.0632511,9.81524,-0.431049,-0.858015,1.18706,-0.00945103,0.000619643,0.0981516,1,6.52914e-05,-5.00863e-05,2.71403e-06,0.0130583,-0.0100173,0.000542806,0,0,0,0,0.0900809,0.31619,-1.12317,34.8125,3,54704,5526384
301,-1.33644,0.0755992,9.54835,-0.736022,-0.750202,0.905719,-0.0133765,0.000748653,0.0954818,1,4.01513e-05,-6.34862e-05,-1.22943e-05,0.00803025,-0.0126972,-0.00245885,0,0,0,0,0.0903366,0.31876,-1.13069,34.8125,3,54707,5526684
302,-1.04882,-0.0298777,9.79823,-0.483021,-0.879133,1.18266,-0.0105019,-0.000306211,0.0979808,1,3.69158e-05,-7.02718e-05,9.51128e-06,0.00738317,-0.0140544,0.00190226,0,0,0,0,0.0862154,0.315752,-1.12417,34.8125,3,54710,5526984
303,-0.857527,-0.188732,9.63369,-0.25853,-1.06261,0.976379,-0.00857818,-0.00188861,0.0963367,1,7.11358e-06,-1.49995e-05,-4.75447e-06,0.00142272,-0.00299989,-0.000950893,0,0,0,0,0.0842093,0.317755,-1.12614,34.8125,3,54714,5527384
304,-1.27825,0.0115858,9.85203,-0.480713,-0.753935,1.15616,-0.0127862,0.000110341,0.0985198,1,2.38627e-05,-1.85315e-05,3.1907e-05,0.00477255,-0.00370631,0.00638141,0,0,0,0,0.0819313,0.318164,-1.12057,34.8125,3,54717,5527684
305,-0.625342,0.0877855,9.73763,-0.0506082,-0.817357,1.12018,-0.0062422,0.000861084,0.0973772,1,8.73153e-05,5.74686e-05,-1.87068e-05,0.0174631,0.0114937,-0.00374135,0,0,0,0,0.0827745,0.318725,-1.1251,34.8125,3,54720,5527984
306,-0.588219,0.0186794,9.95422,-0.0725306,-0.872559,1.24413,-0.00588129,0.000170938,0.0995423,1,7.9956e-05,4.47641e-06,-5.24388e-06,0.0159912,0.000895281,-0.00104878,0,0,0,0,0.0780378,0.320156,-1.12101,34.8125,3,54724,5528384
307,-1.06861,-0.112723,9.59918,-0.602236,-0.955439,0.95422,-0.0106888,-0.00113297,0.0959915,1,2.80666e-05,-1.43397e-05,1.68495e-05,0.00561332,-0.00286793,0.00336991,0,0,0,0,0.0795656,0.3143,-1.12165,34.8125,3,54727,5528684
308,-0.986007,-0.124191,9.99771,-0.145868,-1.02303,1.31821,-0.00984928,-0.00125489,0.099978,1,6.18175e-05,5.3579e-05,3.15221e-05,0.0123635,0.0107158,0.00630441,0,0,0,0,0.0757091,0.316265,-1.12058,34.8125,3,54730,5528984
309,-1.00653,-0.0955911,9.75436,-0.362054,-0.868322,1.06415,-0.0100835,-0.000978034,0.0975415,1,0.000113534,-9.34956e-05,-1.24906e-06,0.0227068,-0.0186991,-0.000249813,0,0,0,0,0.0738454,0.313345,-1.12013,34.8125,3,54734,5529384
310,-0.968115,-0.0121672,9.76726,-0.210599,-0.929037,1.07697,-0.00969116,-0.00015256,0.0976715,1,0.000156423,-5.13123e-05,1.71201e-05,0.0312846,-0.0102625,0.00342402,0,0,0,0,0.0747711,0.31481,-1.12061,34.8125,3,54737,5529684
311,-1.23238,0.0162241,9.904,-0.22982,-0.778866,1.20728,-0.0123328,0.000157902,0.0990388,1,2.24768e-05,-4.59291e-05,-4.59695e-06,0.00449537,-0.00918583,-0.00091939,0,0,0,0,0.0701649,0.312772,-1.11356,34.8125,3,54740,5529984
312,-0.864678,-0.135325,9.9525,-0.175615,-0.930706,1.22433,-0.00866614,-0.0013727,0.0995231,1,9.51252e-05,-9.76499e-05,2.98361e-05,0.019025,-0.01953,0.00596721,0,0,0,0,0.0709876,0.31383,-1.11859,34.8125,3,54744,5530384
313,-1.51944,-0.0295831,9.78341,-0.450499,-0.707078,1.15172,-0.015195,-0.000300796,0.097834,1,2.06033e-05,-2.81404e-06,3.06949e-05,0.00412065,-0.000562808,0.00613898,0,0,0,0,0.0677346,0.31281,-1.11456,34.8125,3,54747,5530684
314,-0.885759,0.202426,9.76052,-0.454266,-0.851492,1.0448,-0.00885637,0.00202729,0.0976052,1,-1.56982e-05,6.30169e-06,2.24e-06,-0.00313964,0.00126034,0.000447999,0,0,0,0,0.06861,0.31142,-1.11914,34.8125,3,54750,5530984
315,-0.859601,-0.00172212,9.68628,-0.225209,-0.82446,1.0152,-0.00860642,-3.54041e-05,0.0968618,1,9.34362e-05,-5.37536e-05,4.7641e-06,0.0186872,-0.0107507,0.000952819,0,0,0,0,0.0658922,0.312284,-1.11153,34.8125,3,54754,5531384
316,-1.15857,-0.0641829,9.85565,-0.401132,-1.02156,1.11355,-0.0115917,-0.000633272,0.0985558,1,-4.73816e-05,-3.05789e-05,3.37766e-05,-0.00947632,-0.00611577,0.00675532,0,0,0,0,0.0658747,0.308924,-1.11464,34.8125,3,54757,5531684
317,-0.986388,-0.266415,9.74487,-0.373755,-0.99988,1.00866,-0.00986916,-0.00267836,0.0974478,1,6.98588e-05,-2.79395e-05,3.01096e-05,0.0139718,-0.0055879,0.00602191,0,0,0,0,0.0658102,0.312826,-1.11455,34.8125,3,54760,5531984
318,-1.66869,0.0380506,9.78973,-0.921536,-0.851108,1.14987,-0.0166576,0.000367801,0.0979023,1,6.47192e-05,0.000149295,9.86947e-07,0.0129438,0.029859,0.000197389,0,0,0,0,0.0610806,0.310879,-1.11255,34.8125,3,54764,5532384
319,-1.31535,-0.112806,9.67379,-0.808971,-1.07066,0.94004,-0.0131597,-0.00113307,0.096737,1,2.39306e-05,-3.23085e-05,1.45583e-05,0.00478612,-0.00646171,0.00291165,0,0,0,0,0.0643668,0.312838,-1.11454,34.8125,3,54767,5532684
320,-1.92116,-0.065225,9.5195,-1.21265,-0.750831,0.864311,-0.0192114,-0.000667276,0.0951949,1,8.07588e-05,1.05015e-06,-9.11888e-06,0.0161518,0.00021003,-0.00182378,0,0,0,0,0.0631569,0.309789,-1.10703,34.8125,3,54770,5532984
321,-2.02459,0.0187037,9.46425,-1.33908,-0.898565,0.784751,-0.02024,0.000177998,0.0946438,1,4.48899e-05,3.12331e-05,1.33871e-05,0.00897797,0.00624661,0.00267743,0,0,0,0,0.0630307,0.313736,-1.10947,34.8125,3,54774,5533384
322,-1.35114,-0.0733832,9.89628,-0.759984,-0.932586,1.23893,-0.0135274,-0.000743702,0.0989605,1,4.7365e-05,-8.0964e-05,1.82993e-05,0.00947301,-0.0161928,0.00365985,0,0,0,0,0.0612903,0.310726,-1.10397,34.8125,3,54777,5533684
323,-2.32301,0.131233,9.2622,-1.54185,-0.300081,0.627663,-0.0232312,0.00128696,0.0926221,1,0.000139944,-6.43249e-06,-1.18612e-05,0.0279889,-0.0012865,-0.00237223,0,0,0,0,0.0625942,0.31178,-1.109,34.8125,3,54780,5533984
324,-1.72565,-0.0795839,9.70093,-0.892112,-1.01697,1.01603,-0.0172651,-0.000801143,0.0970078,1,2.12362e-05,-4.43648e-05,3.42688e-05,0.00424724,-0.00887296,0.00685376,0,0,0,0,0.0626801,0.310271,-1.10651,34.8125,3,54784,5534384
325,-1.82694,0.0357421,9.69884,-1.10453,-0.76783,1.06594,-0.0182763,0.00033829,0.0969872,1,9.57025e-05,-3.55737e-05,1.55336e-05,0.0191405,-0.00711474,0.00310671,0,0,0,0,0.0603229,0.307365,-1.10656,34.8125,3,54787,5534684
326,-1.51595,-0.0417761,9.71748,-0.777027,-0.974069,1.03917,-0.0151696,-0.00042923,0.0971731,1,5.45848e-05,-5.1928e-05,2.83787e-05,0.010917,-0.0103856,0.00567574,0,0,0,0,0.0602175,0.31226,-1.10747,34.8125,3,54790,5534984
327,-0.782296,-0.0467968,10.0872,0.0294987,-0.94399,1.5223,-0.00781206,-0.000480093,0.100873,1,5.9953e-05,5.40129e-05,1.87811e-06,0.0119906,0.0108026,0.000375621,0,0,0,0,0.0588791,0.305931,-1.1076,34.8125,3,54794,5535384
328,-1.47023,-0.0203068,9.71017,-0.638064,-0.89571,1.02921,-0.014706,-0.000210399,0.0971012,1,3.60756e-05,-1.85648e-05,1.10495e-05,0.00721513,-0.00371296,0.00220991,0,0,0,0,0.061603,0.311327,-1.11052,34.8125,3,54797,5535684
329,-0.295662,-0.0941241,9.89768,0.44637,-0.996758,1.13793,-0.00296638,-0.00094906,0.0989764,1,3.88269e-05,-4.9509e-05,2.25902e-05,0.00776537,-0.00990181,0.00451805,0,0,0,0,0.0602332,0.30984,-1.10853,34.8125,3,54800,5535984
330,-0.580146,-0.0545758,9.74963,0.160579,-0.917209,1.04048,-0.00579763,-0.00055195,0.0974965,1,3.14247e-05,1.96192e-05,5.60999e-06,0.00628495,0.00392385,0.001122,0,0,0,0,0.0591846,0.309911,-1.11206,34.8125,3,54804,5536384
331,-0.528183,-0.118654,9.8142,0.236342,-0.992428,1.06033,-0.00527798,-0.00119529,0.0981421,1,4.34928e-05,1.9379e-05,1.96415e-05,0.00869856,0.0038758,0.0039283,0,0,0,0,0.0611797,0.312252,-1.10747,34.8125,3,54807,5536684
332,-0.629469,-0.0945603,9.79883,0.171518,-0.947437,1.07334,-0.00629815,-0.000958841,0.097988,1,6.54795e-05,-1.79657e-05,3.21991e-05,0.0130959,-0.00359314,0.00643983,0,0,0,0,0.0610198,0.313815,-1.11299,34.8125,3,54810,5536984
333,-0.710751,-0.072159,9.79825,0.074584,-0.927349,1.06128,-0.00712003,-0.000730172,0.0979815,1,4.14623e-05,-6.41479e-05,3.21227e-05,0.00829247,-0.0128296,0.00642455,0,0,0,0,0.0601359,0.314247,-1.10944,34.8125,3,54814,5537384
334,-0.889106,-0.0449551,9.78201,-0.0890536,-0.904222,1.06345,-0.00889722,-0.000457023,0.0978195,1,3.6649e-05,-3.15294e-05,1.6967e-05,0.00732981,-0.00630588,0.00339341,0,0,0,0,0.0616476,0.309367,-1.11006,34.8125,3,54817,5537684
335,-0.939269,0.16495,9.8096,-0.29162,-0.714103,1.13384,-0.00939826,0.0016426,0.0980956,1,3.16106e-05,-2.77699e-05,3.72471e-05,0.00632213,-0.00555397,0.00744943,0,0,0,0,0.0635521,0.311293,-1.10952,34.8125,3,54820,5537984
336,-0.687856,-0.096651,9.73711,0.105779,-0.984289,1.00274,-0.00687127,-0.000970456,0.0973715,1,1.88239e-05,3.72213e-05,2.03139e-05,0.00376478,0.00744426,0.00406278,0,0,0,0,0.0616353,0.309376,-1.11057,34.8125,3,54824,5538384
337,-0.305192,-0.0314572,9.84195,0.47734,-0.91588,1.05388,-0.00305085,-0.000330986,0.0984195,1,8.33646e-05,5.44118e-06,8.327e-07,0.0166729,0.00108824,0.00016654,0,0,0,0,0.0639146,0.313303,-1.11302,34.8125,3,54827,5538684
338,-0.749019,-0.201245,9.78009,0.0474127,-1.13647,1.04249,-0.0074948,-0.00201808,0.0978004,1,2.60885e-05,-2.42881e-05,3.54519e-05,0.0052177,-0.00485763,0.00709037,0,0,0,0,0.0625933,0.308889,-1.11109,34.8125,3,54830,5538984
339,-0.639082,0.0383106,9.78172,0.112237,-0.865796,1.06138,-0.0063964,0.0003713,0.0978168,1,5.92805e-05,-2.84519e-05,1.63933e-05,0.0118561,-0.00569038,0.00327866,0,0,0,0,0.063898,0.312833,-1.11404,34.8125,3,54834,5539384
340,-0.595802,-0.0977039,9.78262,0.186386,-0.955679,1.04812,-0.00595869,-0.000985752,0.097826,1,4.41837e-05,-3.5114e-06,5.76331e-06,0.00883675,-0.000702279,0.00115266,0,0,0,0,0.0626511,0.309811,-1.10804,34.8125,3,54837,5539684
341,-0.851556,0.00654293,9.77981,-0.0560217,-0.902965,1.06308,-0.00851576,5.69585e-05,0.0977981,1,4.11405e-05,-1.00379e-06,2.48883e-05,0.0082281,-0.000200758,0.00497766,0,0,0,0,0.0643787,0.311384,-1.11508,34.8125,3,54840,5539984
342,-0.839109,-0.0217574,9.77985,-0.0579532,-0.913868,1.06566,-0.00839918,-0.000226886,0.0977978,1,4.59719e-05,-4.13993e-05,1.90305e-05,0.00919438,-0.00827986,0.0038061,0,0,0,0,0.0601388,0.31039,-1.11205,34.8125,3,54844,5540384
343,-0.737459,-0.0370873,9.80414,0.0367778,-0.933602,1.08226,-0.00738461,-0.000381499,0.0980406,1,5.3094e-05,-5.11544e-05,1.4568e-05,0.0106188,-0.0102309,0.0029136,0,0,0,0,0.0596942,0.308922,-1.11158,34.8125,3,54847,5540684
344,-0.503793,-0.00367276,9.81128,0.29081,-0.918395,1.07506,-0.00503174,-4.59088e-05,0.0981131,1,4.63854e-05,3.15515e-05,7.87317e-06,0.00927707,0.00631031,0.00157463,0,0,0,0,0.0610441,0.312352,-1.11302,34.8125,3,54850,5540984
345,0.795049,0.102865,9.95129,1.49441,-1.77634,1.25451,0.00798943,0.0010043,0.09951,1,0.000119718,0.000195308,-3.31843e-05,0.0239435,0.0390616,-0.00663685,0,0,0,0,0.0606977,0.309366,-1.10955,34.8125,3,54854,5541384
346,-1.40435,-0.000739005,9.71084,-0.605511,-1.4833,1.00306,-0.014033,-1.25724e-05,0.0971099,1,2.04009e-05,5.40335e-05,4.34568e-05,0.00408017,0.0108067,0.00869137,0,0,0,0,0.0649547,0.312274,-1.11052,34.8125,3,54857,5541684
347,-0.900554,-0.00671115,9.73031,-0.10225,-0.828338,1.04545,-0.00901311,-6.70824e-05,0.0973024,1,-3.10341e-06,-3.88664e-05,3.18962e-05,-0.000620682,-0.00777329,0.00637923,0,0,0,0,0.0616153,0.311318,-1.11002,34.8125,3,54860,5541984
348,-0.842402,-0.118422,9.77905,-0.0134983,-1.03041,1.0401,-0.00843283,-0.00119505,0.0977896,1,5.26866e-05,-4.5452e-05,3.0792e-05,0.0105373,-0.0090904,0.00615839,0,0,0,0,0.0634535,0.311365,-1.11356,34.8125,3,54864,5542384
349,-1.6571,-0.100416,9.72094,-0.829115,-1.01907,1.02698,-0.0165765,-0.00101495,0.0972083,1,4.92745e-05,-2.84558e-05,3.67032e-05,0.0098549,-0.00569116,0.00734064,0,0,0,0,0.0630629,0.311785,-1.10951,34.8125,3,54867,5542684
350,-1.64688,-0.155925,9.68855,-0.867103,-1.00587,1.01209,-0.0164764,-0.00157466,0.0968839,1,7.32319e-05,-3.96298e-05,3.6912e-05,0.0146464,-0.00792597,0.0073824,0,0,0,0,0.0615371,0.310893,-1.11356,34.8125,3,54870,5542984
351,0.24087,1.03025,9.93699,0.657207,0.184868,1.38268,0.0023721,0.0103064,0.0993704,1,-2.02061e-05,-0.000187244,-2.96758e-05,-0.00404121,-0.0374488,-0.00593517,0,0,0,0,0.0615869,0.312302,-1.1105,34.8125,3,54874,5543384
352,-0.0247896,-0.460353,9.82385,0.848516,-0.983779,1.10634,-0.000234171,-0.0046151,0.098238,1,5.86945e-05,6.65564e-05,7.03513e-05,0.0117389,0.0133113,0.0140703,0,0,0,0,0.0606896,0.309854,-1.10954,34.8125,3,54877,5543684
353,-1.00479,0.172079,9.92842,-0.155938,-0.539224,1.23529,-0.0100307,0.00169173,0.0992865,1,0.000146087,8.62602e-05,2.19821e-06,0.0292174,0.017252,0.000439642,0,0,0,0,0.0631085,0.312715,-1.10696,34.8125,3,54880,5543984
354,-0.624839,-0.0819293,9.66437,0.223152,-1.11893,0.89223,-0.00624327,-0.000833705,0.0966439,1,7.52606e-05,2.66135e-05,-1.07569e-05,0.0150521,0.0053227,-0.00215139,0,0,0,0,0.0612078,0.309823,-1.10803,34.8125,3,54884,5544384
355,-0.69779,-0.0800154,9.84972,0.14362,-1.1932,1.13275,-0.00698583,-0.00080082,0.0984966,1,3.5211e-07,-4.06449e-05,4.26922e-05,7.0422e-05,-0.00812898,0.00853844,0,0,0,0,0.0639474,0.312797,-1.11202,34.8125,3,54887,5544684
356,-0.920858,0.0293606,9.6828,-0.106554,-0.763654,0.967849,-0.0092072,0.000287744,0.0968282,1,2.66901e-05,7.28464e-06,3.76141e-05,0.00533802,0.00145693,0.00752282,0,0,0,0,0.0625942,0.31178,-1.109,34.8125,3,54890,5544984
357,-0.81371,-0.0247741,9.81626,0.00618827,-0.980183,1.09521,-0.00813821,-0.000258237,0.0981624,1,5.13363e-05,-5.71768e-06,2.56357e-05,0.0102673,-0.00114354,0.00512714,0,0,0,0,0.0630055,0.312308,-1.11152,34.8125,3,54894,5545384
358,-0.990263,-0.0338214,9.74004,-0.178128,-0.937327,1.0314,-0.0099032,-0.000344175,0.0974003,1,2.77424e-05,-3.01022e-06,2.80848e-05,0.00554848,-0.000602043,0.00561696,0,0,0,0,0.0636053,0.31029,-1.10803,34.8125,3,54897,5545684
359,-1.21581,-0.119563,9.63129,-0.415782,-1.18048,0.96014,-0.0121572,-0.00119523,0.0963131,1,-6.12431e-06,4.5884e-06,3.22043e-05,-0.00122486,0.000917681,0.00644086,0,0,0,0,0.0634292,0.312828,-1.11353,34.8125,3,54900,5545984
360,-0.84041,0.0118867,9.76554,-0.0437459,-0.935058,1.02956,-0.00840773,0.000110617,0.0976551,1,4.06503e-05,-1.85409e-05,1.84572e-05,0.00813005,-0.00370817,0.00369144,0,0,0,0,0.0620684,0.313744,-1.10946,34.8125,3,54904,5546384
361,-0.582217,-0.0691625,9.78007,0.226924,-0.957738,1.03374,-0.00582511,-0.000701828,0.0978004,1,5.10049e-05,-1.51384e-05,1.94457e-05,0.010201,-0.00302768,0.00388915,0,0,0,0,0.0625776,0.31131,-1.11002,34.8125,3,54907,5546684
362,-0.602793,-0.0907424,9.8024,0.23832,-1.00995,1.05703,-0.00602906,-0.000914709,0.0980238,1,3.62675e-05,-5.91043e-06,1.44878e-05,0.0072535,-0.00118209,0.00289755,0,0,0,0,0.0635113,0.312286,-1.11051,34.8125,3,54910,5546984
363,-0.724213,-0.0341679,9.81661,0.0933806,-0.962197,1.10129,-0.00725026,-0.000349246,0.0981655,1,3.70835e-05,-4.15033e-05,1.97423e-05,0.0074167,-0.00830066,0.00394846,0,0,0,0,0.0626435,0.311744,-1.10698,34.8125,3,54914,5547384
364,-1.16068,-0.0807813,9.80416,-0.163401,-0.994542,1.11899,-0.011595,-0.000818785,0.0980429,1,5.42163e-05,6.03067e-05,1.47017e-05,0.0108433,0.0120613,0.00294035,0,0,0,0,0.064457,0.311809,-1.11154,34.8125,3,54917,5547684
365,-1.10777,-0.0122939,9.78673,-0.272449,-0.942741,1.12548,-0.0110666,-0.000132016,0.0978686,1,4.26043e-05,5.68248e-05,3.33239e-05,0.00852087,0.011365,0.00666478,0,0,0,0,0.0607219,0.307902,-1.10959,34.8125,3,54920,5547984
366,-1.58788,-0.0843944,9.72851,-0.726553,-1.02161,1.06418,-0.0158573,-0.000852282,0.0972885,1,4.16053e-05,0.000110548,7.64777e-06,0.00832105,0.0221096,0.00152955,0,0,0,0,0.063593,0.310299,-1.10853,34.8125,3,54924,5548384
367,-1.76309,-0.0175082,9.65437,-0.926533,-0.9802,1.02769,-0.0176198,-0.000187714,0.0965457,1,6.25719e-05,5.73845e-05,1.56085e-05,0.0125144,0.0114769,0.00312171,0,0,0,0,0.0636589,0.310733,-1.1055,34.8125,3,54927,5548684
368,-1.47246,-0.190127,10.3401,-0.240222,-1.10796,1.80099,-0.0146908,-0.00191735,0.103406,1,7.68542e-05,0.000163408,6.21539e-06,0.0153708,0.0326815,0.00124308,0,0,0,0,0.0629643,0.311857,-1.11355,34.8125,3,54930,5548984
369,-1.21718,0.0473286,9.81427,-0.290547,-0.977106,1.13202,-0.0121891,0.000464232,0.0981406,1,4.0931e-05,-8.76489e-05,4.19009e-05,0.00818621,-0.0175298,0.00838019,0,0,0,0,0.0653836,0.316164,-1.10993,34.8125,3,54934,5549384
370,-3.4694,0.132575,8.67056,-2.76601,-1.1532,0.19426,-0.0346697,0.00132076,0.0867154,1,1.18772e-05,0.000140926,4.21577e-05,0.00237544,0.0281852,0.00843154,0,0,0,0,0.0673836,0.307901,-1.11265,34.8125,3,54937,5549684
371,-1.25848,-0.136903,10.2793,-0.0589985,-1.0526,1.59722,-0.0125752,-0.00138916,0.102794,1,9.37695e-05,4.65451e-05,3.37345e-05,0.0187539,0.00930902,0.00674691,0,0,0,0,0.0664227,0.312244,-1.10951,34.8125,3,54940,5549984
372,-2.4826,-0.0869123,9.63012,-1.49374,-1.15707,1.19536,-0.0248026,-0.00089164,0.0963071,1,0.000103295,0.000121408,5.28196e-05,0.0206589,0.0242816,0.0105639,0,0,0,0,0.0642302,0.309699,-1.10249,34.8125,3,54944,5550384
373,-3.40026,0.0423685,9.183,-2.40741,-0.843898,0.768909,-0.0339796,0.00040467,0.0918385,1,9.12203e-05,0.000125238,3.32549e-05,0.0182441,0.0250475,0.00665097,0,0,0,0,0.0665138,0.314105,-1.10442,34.8125,3,54947,5550684
374,-1.98479,0.107298,9.58696,-1.60307,-0.958815,0.83531,-0.0198613,0.00105727,0.0958669,1,7.54547e-05,-6.95302e-05,3.13602e-05,0.0150909,-0.013906,0.00627203,0,0,0,0,0.0693706,0.31073,-1.10805,34.8125,3,54950,5550984
375,-2.53181,0.229835,9.39149,-1.85786,-0.771393,0.759838,-0.0253417,0.00228435,0.0939089,1,6.4281e-05,-0.000124667,3.81096e-05,0.0128562,-0.0249335,0.00762192,0,0,0,0,0.0696548,0.312316,-1.11508,34.8125,3,54954,5551384
376,-1.31201,-0.354184,10.0779,-0.0822483,-1.4296,1.36829,-0.0130965,-0.00355059,0.100782,1,3.63257e-05,0.000115511,5.45507e-05,0.00726514,0.0231023,0.0109101,0,0,0,0,0.0703134,0.314109,-1.10646,34.8125,3,54957,5551684
377,-1.76147,0.563138,9.45218,-1.23235,-0.503815,0.96885,-0.0176105,0.00562465,0.094523,1,3.09086e-05,2.37708e-05,2.52731e-05,0.00618171,0.00475417,0.00505463,0,0,0,0,0.0735289,0.313711,-1.11305,34.8125,3,54960,5551984
378,-2.63551,-0.114317,9.48892,-1.91329,-1.14927,0.87203,-0.026333,-0.00115081,0.0948952,1,3.17229e-05,0.000116139,3.07337e-05,0.00634458,0.0232277,0.00614674,0,0,0,0,0.0777982,0.31661,-1.11351,34.8125,3,54964,5552384
379,-2.34717,-0.163825,8.72268,-1.37821,-1.17868,0.480119,-0.0234811,-0.00165131,0.087224,1,5.84154e-05,-5.50706e-05,6.11975e-05,0.0116831,-0.0110141,0.0122395,0,0,0,0,0.0764939,0.314112,-1.10952,34.8125,3,54967,5552684
380,-1.77483,-0.295073,9.69627,-0.759803,-1.2734,1.46446,-0.0177404,-0.00294275,0.0969643,1,-4.92015e-05,3.9139e-05,4.41465e-05,-0.00984031,0.0078278,0.00882931,0,0,0,0,0.0839374,0.316161,-1.1186,34.8125,3,54970,5552984
381,-1.94969,0.187884,10.108,-1.32729,-0.666968,1.20888,-0.0195204,0.00188597,0.101075,1,-4.79707e-05,-0.000114845,6.59116e-05,-0.00959414,-0.0229689,0.0131823,0,0,0,0,0.0811252,0.317576,-1.11451,34.8125,3,54974,5553384
382,-1.01331,0.248415,9.86316,-0.00483989,-0.802889,1.17528,-0.0101515,0.00245489,0.0986304,1,0.000143949,-9.181e-05,4.24931e-05,0.0287899,-0.018362,0.00849861,0,0,0,0,0.0885645,0.319147,-1.12411,34.8125,3,54977,5553684
383,-1.28163,0.39591,10.11,-0.200333,-0.47877,1.52765,-0.0128187,0.0039622,0.101099,1,-2.33737e-05,-9.39574e-06,6.34694e-05,-0.00467473,-0.00187915,0.0126939,0,0,0,0,0.0905924,0.320983,-1.11852,34.8125,3,54981,5554084
384,-1.34933,-0.0595509,9.88814,-0.435543,-0.906904,1.30275,-0.0134949,-0.000605629,0.0988811,1,4.37498e-05,-8.69889e-06,5.43847e-05,0.00874996,-0.00173978,0.0108769,0,0,0,0,0.095646,0.320631,-1.12866,34.8125,3,54984,5554384
385,-0.922692,0.545759,10.0767,-0.0985842,-0.298518,1.50463,-0.00923991,0.00545332,0.100767,1,1.23519e-05,-5.92449e-05,9.61336e-05,0.00247038,-0.011849,0.0192267,0,0,0,0,0.0986845,0.319532,-1.12314,34.8125,3,54987,5554684
386,-1.19605,-0.0882862,9.97053,-0.282931,-0.682115,1.3096,-0.0119783,-0.000864829,0.0997033,1,-9.78852e-05,-9.00192e-05,6.20989e-05,-0.019577,-0.0180038,0.0124198,0,0,0,0,0.103767,0.318196,-1.13279,34.8125,3,54991,5555084
387,-1.38197,0.356768,9.64407,-0.435239,-0.428882,0.950347,-0.0138371,0.00354758,0.0964389,1,9.56768e-05,-8.81504e-05,5.93857e-05,0.0191354,-0.0176301,0.0118771,0,0,0,0,0.107649,0.320549,-1.12972,34.8125,3,54994,5555384
388,-0.777281,0.0328784,10.2139,0.538177,-0.905646,1.5841,-0.00778855,0.000314457,0.102138,1,6.58659e-05,-7.68567e-05,5.6019e-05,0.0131732,-0.0153713,0.0112038,0,0,0,0,0.111892,0.317686,-1.13536,34.8125,3,54997,5555684
389,-0.197453,0.446036,10.3755,0.653388,-0.588764,1.66946,-0.00200286,0.00446267,0.103755,1,-1.34387e-05,-0.000131269,0.000121622,-0.00268775,-0.0262539,0.0243243,0,0,0,0,0.118101,0.315258,-1.13898,34.8125,3,55001,5556084
390,-0.470942,0.371508,10.1316,0.115396,-0.719773,1.36592,-0.00471592,0.00372841,0.101316,1,-7.08983e-05,-2.80206e-05,0.000109572,-0.0141797,-0.00560411,0.0219144,0,0,0,0,0.117168,0.317172,-1.13641,34.8125,3,55004,5556384
391,-0.764271,0.156457,9.92789,-0.116309,-0.627577,1.15934,-0.00764908,0.00158598,0.0992781,1,-0.000114736,-3.06489e-05,8.96776e-05,-0.0229473,-0.00612978,0.0179355,0,0,0,0,0.126621,0.316252,-1.14405,34.8125,3,55007,5556684
392,-1.7133,0.0607621,9.09807,-0.666126,-0.822816,0.572433,-0.0171243,0.000595141,0.0909825,1,4.93899e-05,4.87095e-05,0.000101941,0.00987798,0.0097419,0.0203881,0,0,0,0,0.129635,0.315171,-1.13954,34.8125,3,55011,5557084
393,-1.01922,-0.675435,9.69789,-0.208784,-1.71932,1.04618,-0.0101881,-0.00676905,0.0969783,1,6.53759e-05,1.42353e-05,9.93511e-05,0.0130752,0.00284706,0.0198702,0,0,0,0,0.131896,0.314293,-1.14614,34.8125,3,55014,5557384
394,-1.49233,0.406075,9.00937,-0.945144,-0.638397,0.36651,-0.0149408,0.00404335,0.0900916,1,7.45413e-05,-9.09001e-05,0.000133068,0.0149083,-0.01818,0.0266136,0,0,0,0,0.139216,0.313194,-1.14266,34.8125,3,55017,5557684
395,-1.43819,-0.0940421,9.00971,-0.659272,-1.10293,0.361163,-0.0143998,-0.000960265,0.090094,1,8.97513e-05,-0.000100415,0.000127562,0.0179503,-0.0200831,0.0255125,0,0,0,0,0.139162,0.312751,-1.14519,34.8125,3,55021,5558084
396,-1.44331,0.0695663,9.19825,-0.803957,-1.13352,0.416707,-0.0144258,0.000682617,0.0919838,1,5.27099e-05,4.03398e-05,0.000116078,0.010542,0.00806796,0.0232156,0,0,0,0,0.144401,0.312265,-1.14775,34.8125,3,55024,5558384
397,-0.922593,-0.480217,9.56503,-0.0685433,-1.33677,0.936421,-0.00921226,-0.00480674,0.0956514,1,1.65135e-05,6.76414e-05,7.6569e-05,0.00330271,0.0135283,0.0153138,0,0,0,0,0.14878,0.310747,-1.1468,34.8125,3,55027,5558684
398,-0.156713,0.229775,10.4198,0.449686,-0.770185,1.56686,-0.00156061,0.0022885,0.104199,1,4.27014e-05,3.37304e-05,0.000111228,0.00854027,0.00674608,0.0222456,0,0,0,0,0.15165,0.310254,-1.14783,34.8125,3,55031,5559084
399,-0.175961,0.00318936,10.6803,0.710666,-0.964526,1.87452,-0.00177405,4.27488e-05,0.106803,1,-5.27461e-05,-6.75391e-05,0.000116506,-0.0105492,-0.0135078,0.0233013,0,0,0,0,0.155507,0.309734,-1.14786,34.8125,3,55034,5559384
400,-0.497891,-0.510653,10.176,0.185568,-1.40357,1.48757,-0.00498608,-0.00511274,0.10176,1,2.47094e-05,-4.11786e-05,0.000118757,0.00494189,-0.00823571,0.0237514,0,0,0,0,0.159784,0.312146,-1.14833,34.8125,3,55037,5559684
401,-1.05478,0.0382579,9.82486,-0.124341,-1.19202,1.29453,-0.0105297,0.000374342,0.0982506,1,2.68434e-05,9.28661e-05,0.000140537,0.00536867,0.0185732,0.0281074,0,0,0,0,0.16033,0.309685,-1.14738,34.8125,3,55041,5560084
402,-0.755204,-0.798517,9.52542,-0.282253,-1.52643,0.869791,-0.00755463,-0.00799944,0.0952528,1,6.48485e-05,-2.42185e-05,0.000126218,0.0129697,-0.0048437,0.0252436,0,0,0,0,0.166063,0.31063,-1.1484,34.8125,3,55044,5560384
403,-1.23446,0.409094,9.32898,-0.321512,-0.573448,0.779609,-0.0123462,0.00406705,0.0932907,1,0.000114512,-3.95532e-06,0.000102271,0.0229023,-0.000791063,0.0204542,0,0,0,0,0.167149,0.311977,-1.14231,34.8125,3,55047,5560684
404,-0.875588,-0.180612,9.98461,-0.0905482,-0.940691,1.32984,-0.00873218,-0.00179073,0.0998484,1,-8.26519e-05,0.000117573,6.34571e-05,-0.0165304,0.0235147,0.0126914,0,0,0,0,0.170529,0.310495,-1.14286,34.8125,3,55051,5561084
405,-0.496611,0.411015,9.78133,0.417074,-0.495224,1.09362,-0.00497371,0.00409279,0.0978136,1,8.61627e-05,-3.67611e-05,5.06553e-05,0.0172325,-0.00735223,0.0101311,0,0,0,0,0.174256,0.316334,-1.14376,34.8125,3,55054,5561384
406,-0.669705,-0.0636698,10.1448,-0.102543,-1.30568,1.3021,-0.00669543,-0.000631661,0.101448,1,-3.30423e-05,7.19591e-06,0.000124425,-0.00660847,0.00143918,0.024885,0,0,0,0,0.174913,0.312347,-1.13931,34.8125,3,55057,5561684
407,-0.447088,0.137247,10.4524,0.825401,-0.556153,1.89024,-0.00447806,0.00136163,0.104524,1,4.83125e-05,-3.32593e-05,8.36815e-05,0.0096625,-0.00665186,0.0167363,0,0,0,0,0.179142,0.319131,-1.13867,34.8125,3,55060,5561984
408,0.394082,-0.719023,11.1692,1.21957,-2.12376,2.40481,0.00395845,-0.00718628,0.111692,1,-1.48722e-05,7.3775e-05,7.94721e-05,-0.00297444,0.014755,0.0158944,0,0,0,0,0.179735,0.320491,-1.13309,34.8125,3,55064,5562384
409,-1.11928,-0.429605,9.72565,0.226645,-0.876468,1.29572,-0.0111935,-0.00430885,0.0972559,1,5.33716e-05,-8.11963e-06,0.000108152,0.0106743,-0.00162393,0.0216305,0,0,0,0,0.182034,0.322476,-1.13608,34.8125,3,55067,5562684
410,-0.0654719,-0.394306,10.0429,0.195415,-1.9114,1.07295,-0.000652884,-0.00394303,0.100429,1,-8.0609e-07,5.01577e-06,0.000104868,-0.000161218,0.00100315,0.0209736,0,0,0,0,0.184128,0.324746,-1.12746,34.8125,3,55071,5563084
411,-1.76128,0.60352,9.40451,-0.722439,0.0547597,0.77254,-0.0176196,0.00602928,0.0940442,1,1.48677e-05,-3.07637e-05,8.8657e-05,0.00297354,-0.00615274,0.0177314,0,0,0,0,0.187863,0.328652,-1.12941,34.8125,3,55074,5563384
412,-0.253304,0.254299,10.0641,-0.0370374,-1.23193,1.06911,-0.00253775,0.00256277,0.10064,1,-0.000100472,-2.1115e-05,8.8398e-05,-0.0200945,-0.00422301,0.0176796,0,0,0,0,0.188986,0.329972,-1.12181,34.8125,3,55077,5563684
413,-0.764673,-0.841962,10.1517,0.626291,-1.45117,1.52193,-0.00767086,-0.00844381,0.101513,1,0.000112311,-0.000126378,9.07484e-05,0.0224622,-0.0252756,0.0181497,0,0,0,0,0.195196,0.333325,-1.12126,34.8125,3,55081,5564084
414,-0.39723,0.117154,9.92267,-0.073301,-1.22058,1.0847,-0.00398632,0.00117074,0.0992262,1,-3.31043e-07,-6.93407e-05,0.000109329,-6.62086e-05,-0.0138681,0.0218658,0,0,0,0,0.193795,0.335234,-1.11818,34.8125,3,55084,5564384
415,-0.982884,-0.0870503,9.64094,-0.208919,-0.753191,1.05599,-0.00984163,-0.000858616,0.0964082,1,-7.67529e-05,-6.76417e-05,0.000148043,-0.0153506,-0.0135283,0.0296085,0,0,0,0,0.196299,0.335142,-1.11415,34.8125,3,55087,5564684
416,-0.27173,0.0378997,10.423,0.655576,-1.13395,1.61059,-0.00272178,0.000360423,0.10423,1,8.65653e-05,-2.11163e-05,9.7374e-05,0.0173131,-0.00422325,0.0194748,0,0,0,0,0.198196,0.340447,-1.11152,34.8125,3,55090,5564984
417,-1.11676,-0.394435,9.21017,-0.225407,-1.2178,0.725511,-0.0111611,-0.00394466,0.0921025,1,-1.258e-05,3.00317e-05,0.000117778,-0.002516,0.00600634,0.0235555,0,0,0,0,0.201243,0.33886,-1.10601,34.8125,3,55094,5565384
418,-0.997425,0.406423,9.16546,-0.258071,-0.63409,0.437252,-0.0099795,0.00404395,0.091655,1,9.80799e-05,-2.35123e-05,0.000115456,0.019616,-0.00470246,0.0230911,0,0,0,0,0.204941,0.341348,-1.11052,34.8125,3,55097,5565684
419,-0.912209,-0.162121,9.46931,-0.429444,-1.23227,0.627482,-0.00912193,-0.00161639,0.0946932,1,-3.6754e-05,-1.18957e-06,0.00011778,-0.00735081,-0.000237913,0.0235559,0,0,0,0,0.203718,0.338307,-1.10351,34.8125,3,55100,5565984
420,-0.35987,-0.557751,10.6592,0.818663,-1.7549,1.88506,-0.00362135,-0.00560063,0.10659,1,0.00010508,-0.000111454,9.94402e-05,0.0210159,-0.0222909,0.019888,0,0,0,0,0.206092,0.340238,-1.10348,34.8125,3,55104,5566384
421,-0.560949,0.0774799,9.87188,-0.0245877,-1.02828,1.12202,-0.00561941,0.000786799,0.0987182,1,-6.85719e-05,-4.91924e-05,0.000136984,-0.0137144,-0.00983848,0.0273967,0,0,0,0,0.20913,0.337694,-1.099,34.8125,3,55107,5566684
422,-0.824904,-0.0118281,10.1432,0.281908,-0.778225,1.54707,-0.00823856,-0.000110359,0.101433,1,-4.79899e-05,5.15359e-05,0.000109983,-0.00959799,0.0103072,0.0219966,0,0,0,0,0.210484,0.341603,-1.09993,34.8125,3,55110,5566984
423,-0.993281,-0.764645,9.62336,-0.252386,-2.14398,0.934801,-0.00991391,-0.0076512,0.0962351,1,1.75905e-05,9.27285e-05,6.86644e-05,0.0035181,0.0185457,0.0137329,0,0,0,0,0.213473,0.339095,-1.09748,34.8125,3,55114,5567384
424,-1.44698,-0.276387,9.09551,-0.474482,-1.15938,0.472994,-0.0144671,-0.00276904,0.0909553,1,1.58782e-05,1.25434e-05,7.89574e-05,0.00317564,0.00250869,0.0157915,0,0,0,0,0.215462,0.336622,-1.09653,34.8125,3,55117,5567684
425,-1.05673,-0.09232,9.31646,-0.491315,-1.12406,0.57862,-0.0105795,-0.000938533,0.093163,1,7.05266e-05,-6.60505e-05,0.000103641,0.0141053,-0.0132101,0.0207282,0,0,0,0,0.214566,0.337064,-1.09349,34.8125,3,55120,5567984
426,-0.851463,-0.42546,9.27893,-0.247815,-1.44509,0.430694,-0.00853275,-0.00425623,0.0927875,1,4.93078e-07,-0.000101799,9.04557e-05,9.86156e-05,-0.0203599,0.0180911,0,0,0,0,0.214145,0.334132,-1.09304,34.8125,3,55124,5568384
427,-0.233078,0.180148,10.6825,0.412794,-0.715786,1.67668,-0.00233821,0.0018073,0.106825,1,-2.97697e-05,-3.27975e-05,0.000116714,-0.00595394,-0.00655949,0.0233429,0,0,0,0,0.217481,0.3375,-1.09197,34.8125,3,55127,5568684
428,-0.687947,-0.780507,10.3499,0.131107,-1.65475,1.58239,-0.00688145,-0.0077855,0.103501,1,-9.80146e-05,-1.34733e-05,5.20432e-05,-0.0196029,-0.00269466,0.0104086,0,0,0,0,0.216173,0.334523,-1.0885,34.8125,3,55131,5569084
429,-0.88227,0.433845,9.65074,-0.1394,-0.363333,1.01229,-0.00881192,0.00433814,0.0965084,1,-5.31556e-06,5.92415e-05,7.53346e-05,-0.00106311,0.0118483,0.0150669,0,0,0,0,0.217583,0.332126,-1.09159,34.8125,3,55134,5569384
430,-0.636097,0.509199,9.91764,0.341933,-0.608811,1.458,-0.00634572,0.00508408,0.0991778,1,3.55736e-05,8.03502e-05,6.70474e-05,0.00711471,0.01607,0.0134095,0,0,0,0,0.218681,0.334909,-1.08396,34.8125,3,55137,5569684
431,-0.471251,0.00219574,10.0241,0.321509,-1.12557,1.33704,-0.0046891,8.25938e-06,0.100242,1,6.60977e-05,0.000116803,4.74984e-05,0.0132195,0.0233607,0.00949968,0,0,0,0,0.216711,0.333995,-1.08649,34.8125,3,55140,5569984
432,-1.01046,0.261303,9.57795,-0.410669,-0.770635,0.825704,-0.0101167,0.00260725,0.0957784,1,2.40978e-05,-6.13868e-05,5.78156e-05,0.00481957,-0.0122774,0.0115631,0,0,0,0,0.221128,0.335341,-1.08194,34.8125,3,55144,5570384
433,-0.849508,-0.135137,9.47267,-0.199043,-1.08948,0.651134,-0.00850138,-0.00136549,0.094726,1,7.29452e-05,-3.3463e-05,1.73625e-05,0.014589,-0.0066926,0.00347249,0,0,0,0,0.219277,0.333858,-1.07994,34.8125,3,55147,5570684
434,-0.416409,-1.0183,9.7425,0.268264,-2.16137,0.901177,-0.00417513,-0.0101966,0.0974231,1,6.62553e-05,-6.55752e-05,8.50213e-05,0.0132511,-0.013115,0.0170043,0,0,0,0,0.220183,0.335819,-1.08091,34.8125,3,55150,5570984
435,-0.627828,0.107611,10.1899,0.136827,-0.986923,1.54601,-0.00625732,0.00106805,0.1019,1,3.34107e-05,0.000103902,9.94802e-05,0.00668214,0.0207804,0.019896,0,0,0,0,0.219397,0.334734,-1.07437,34.8125,3,55154,5571384
436,-0.86471,-0.214619,9.76956,-0.134949,-1.33739,1.06038,-0.00865076,-0.00213585,0.0976955,1,-6.08954e-05,-2.07217e-05,9.03641e-05,-0.0121791,-0.00414434,0.0180728,0,0,0,0,0.219328,0.339603,-1.07375,34.8125,3,55157,5571684
437,-0.662634,-0.321497,9.85212,0.0305584,-1.33926,1.23454,-0.00661541,-0.00323645,0.0985212,1,0.000104832,5.34458e-05,6.19448e-05,0.0209665,0.0106892,0.012389,0,0,0,0,0.219867,0.34052,-1.07071,34.8125,3,55160,5571984
438,-0.973549,0.130009,9.40966,-0.31385,-0.918467,0.757201,-0.00974103,0.00129827,0.094096,1,1.05876e-06,-2.83196e-05,8.30308e-05,0.000211751,-0.00566392,0.0166062,0,0,0,0,0.219318,0.345393,-1.07009,34.8125,3,55164,5572384
439,-0.818816,-0.363799,9.81352,-0.0814415,-1.46055,1.04267,-0.00819162,-0.00365125,0.0981344,1,6.0459e-05,-2.07916e-05,8.52766e-05,0.0120918,-0.00415831,0.0170553,0,0,0,0,0.219038,0.342841,-1.06358,34.8125,3,55167,5572684
440,-1.04148,0.0236277,9.38238,-0.241239,-0.84532,0.725277,-0.0104247,0.000204648,0.0938227,1,0.000161034,-5.23107e-05,6.77446e-05,0.0322068,-0.0104621,0.0135489,0,0,0,0,0.21989,0.345804,-1.06604,34.8125,3,55170,5572984
441,-0.363831,-0.245779,9.97843,0.253722,-1.45109,1.07079,-0.00366444,-0.00246845,0.0997831,1,5.05628e-05,-0.000132857,7.77349e-05,0.0101126,-0.0265714,0.015547,0,0,0,0,0.217584,0.350088,-1.05887,34.8125,3,55174,5573384
442,-0.89525,-0.368955,9.74476,-0.126622,-1.15558,0.952016,-0.0089518,-0.00372982,0.0974461,1,0.000201815,1.62126e-06,5.22336e-05,0.040363,0.000324252,0.0104467,0,0,0,0,0.216231,0.347625,-1.05689,34.8125,3,55177,5573684
443,-0.557496,0.983035,10.2898,0.204204,-0.516398,1.56498,-0.00555489,0.0097924,0.102903,1,0.000180545,0.000104282,7.10442e-05,0.0361089,0.0208564,0.0142088,0,0,0,0,0.219131,0.351928,-1.05328,34.8125,3,55180,5573984
444,-1.11178,-0.234677,9.34645,-0.534483,-0.693618,0.609965,-0.0111428,-0.00233822,0.0934617,1,-5.34445e-05,-0.000135618,6.44104e-05,-0.0106889,-0.0271236,0.0128821,0,0,0,0,0.218293,0.354736,-1.04614,34.8125,3,55184,5574384
445,-0.562025,-0.00897401,9.70844,0.169559,-1.14813,0.878015,-0.0056383,-0.00011057,0.0970833,1,0.00010421,-9.29836e-05,5.2929e-05,0.0208421,-0.0185967,0.0105858,0,0,0,0,0.219079,0.357266,-1.05164,34.8125,3,55187,5574684
446,-0.917647,0.190097,9.39611,-0.438402,-0.876913,0.634913,-0.00919281,0.00188151,0.0939599,1,9.84963e-05,-8.58733e-05,5.17645e-05,0.0196993,-0.0171747,0.0103529,0,0,0,0,0.219761,0.356152,-1.04409,34.8125,3,55190,5574984
447,-1.12579,-0.109712,9.82524,-0.0495532,-1.00353,1.13272,-0.0112347,-0.00112161,0.0982548,1,0.000112028,0.000117031,0.000110141,0.0224056,0.0234063,0.0220282,0,0,0,0,0.219269,0.35761,-1.04355,34.8125,3,55194,5575384
448,-1.06502,0.0762889,9.35014,-0.954832,-1.32028,0.302183,-0.0106497,0.000753859,0.0935015,1,3.81168e-05,3.49831e-06,8.93092e-05,0.00762335,0.000699661,0.0178618,0,0,0,0,0.22084,0.359432,-1.03696,34.8125,3,55197,5575684
449,-1.12863,-0.335766,9.45982,0.0727078,-1.16142,0.858525,-0.0112903,-0.00339369,0.0945965,1,0.000179778,-2.39452e-05,8.93755e-05,0.0359555,-0.00478904,0.0178751,0,0,0,0,0.223172,0.360911,-1.03895,34.8125,3,55200,5575984
450,-0.00676627,0.039678,10.7675,0.336545,-1.34045,1.8014,-6.51362e-05,0.000415839,0.107675,1,-8.85609e-05,1.21025e-05,9.81513e-05,-0.0177122,0.00242051,0.0196303,0,0,0,0,0.224221,0.36084,-1.03542,34.8125,3,55204,5576384
451,-1.17537,0.211461,9.65886,-0.0880746,-0.429526,1.11606,-0.0117455,0.00207923,0.0965904,1,0.000172314,4.43646e-05,8.92011e-05,0.0344629,0.00887292,0.0178402,0,0,0,0,0.221897,0.358873,-1.03344,34.8125,3,55207,5576684
452,-0.487715,0.149522,10.0863,0.0680015,-1.47115,1.23735,-0.00487168,0.001447,0.100864,1,0.000235681,2.81199e-05,6.901e-05,0.0471363,0.00562399,0.013802,0,0,0,0,0.224332,0.360759,-1.03088,34.8125,3,55210,5576984
453,-0.903099,0.187071,9.50266,0.165297,-0.2469,1.07512,-0.0090277,0.00186232,0.0950271,1,3.42627e-05,1.93453e-05,0.00010398,0.00685253,0.00386907,0.0207961,0,0,0,0,0.224902,0.35828,-1.02892,34.8125,3,55214,5577384
454,-0.807445,-0.0933981,9.75781,-0.228708,-1.56127,0.733176,-0.00809179,-0.000936865,0.0975766,1,9.3036e-06,-8.94881e-05,6.60879e-05,0.00186072,-0.0178976,0.0132176,0,0,0,0,0.22721,0.361223,-1.03088,34.8125,3,55217,5577684
455,-1.60739,-0.700476,8.77566,-1.11237,-1.81698,0.131837,-0.0160398,-0.00699838,0.0877633,1,-5.00481e-05,0.00018868,7.49851e-05,-0.0100096,0.037736,0.014997,0,0,0,0,0.227378,0.359172,-1.02537,34.8125,3,55220,5577984
456,-0.394508,0.412374,9.69302,0.0938329,-1.06005,0.706506,-0.00392096,0.00410268,0.0969321,1,0.000105229,0.000128064,8.46801e-05,0.0210458,0.0256128,0.016936,0,0,0,0,0.228785,0.359187,-1.0269,34.8125,3,55224,5578384
457,-0.469722,0.0696753,10.1857,0.115882,-0.871258,1.42447,-0.0046999,0.000698289,0.101857,1,-1.21352e-05,-1.24999e-05,9.95242e-05,-0.00242705,-0.00249997,0.0199048,0,0,0,0,0.229422,0.358588,-1.02085,34.8125,3,55227,5578684
458,-0.799737,0.170846,10.08,0.145152,-0.854591,1.15637,-0.00801758,0.00168649,0.100799,1,0.000102418,-9.88308e-05,8.3061e-05,0.0204837,-0.0197662,0.0166122,0,0,0,0,0.227011,0.355238,-1.02344,34.8125,3,55230,5578984
459,-0.851471,-0.126103,9.61639,-0.353579,-1.27593,0.884646,-0.00850136,-0.0012352,0.0961655,1,-0.000143491,6.80593e-05,0.000104029,-0.0286981,0.0136119,0.0208058,0,0,0,0,0.227946,0.359105,-1.02184,34.8125,3,55234,5579384
460,-0.776765,-0.499544,9.70559,0.381772,-1.33109,1.14007,-0.0077613,-0.00500761,0.0970558,1,5.64254e-05,2.86504e-05,7.87646e-05,0.0112851,0.00573008,0.0157529,0,0,0,0,0.228114,0.3585,-1.01529,34.8125,3,55237,5579684
461,-0.61624,0.279517,9.49049,-0.402534,-1.0663,0.509926,-0.00615379,0.00281577,0.0949048,1,-0.000116348,4.89586e-05,0.000121121,-0.0232697,0.00979172,0.0242241,0,0,0,0,0.22806,0.356612,-1.01887,34.8125,3,55240,5579984
462,-0.969712,-0.048669,10.0672,0.388115,-1.49025,1.30492,-0.0097031,-0.000534854,0.100671,1,0.000228268,-3.02517e-05,0.00011356,0.0456536,-0.00605035,0.022712,0,0,0,0,0.228685,0.356021,-1.01333,34.8125,3,55244,5580384
463,-0.684295,-0.65974,9.56136,-0.482083,-2.22071,0.555275,-0.00684682,-0.0065918,0.0956137,1,-3.66349e-05,-2.72699e-05,0.000102387,-0.00732698,-0.00545397,0.0204774,0,0,0,0,0.227621,0.358513,-1.01579,34.8125,3,55247,5580684
464,-0.919706,-0.272885,9.83217,-0.188415,-0.921126,1.05124,-0.00921406,-0.00274541,0.0983197,1,7.38841e-05,-8.95042e-05,0.000110006,0.0147768,-0.0179008,0.0220013,0,0,0,0,0.225803,0.357969,-1.01176,34.8125,3,55250,5580984
465,-0.482141,-0.162116,9.94133,-0.259014,-1.546,1.09196,-0.00483178,-0.00162771,0.0994127,1,2.87639e-05,-5.35415e-05,8.58205e-05,0.00575279,-0.0107083,0.0171641,0,0,0,0,0.224286,0.360926,-1.01269,34.8125,3,55254,5581384
466,-1.31906,0.0311012,9.17515,-0.598633,-0.755698,0.553915,-0.0131978,0.000309022,0.0917504,1,-6.78868e-06,-3.90415e-05,0.000122588,-0.00135774,-0.0078083,0.0245176,0,0,0,0,0.223974,0.360325,-1.00614,34.8125,3,55257,5581684
467,-0.435888,0.788776,10.1184,0.152314,-0.339777,1.28496,-0.00436609,0.00788467,0.101184,1,9.81571e-06,-2.57359e-05,0.000127362,0.00196314,-0.00514718,0.0254724,0,0,0,0,0.223428,0.364231,-1.00605,34.8125,3,55260,5581984
468,-0.667465,-0.146179,9.39916,-0.358178,-1.06492,0.529959,-0.00667669,-0.00145129,0.0939916,1,-6.12863e-05,-1.20308e-05,7.62762e-05,-0.0122573,-0.00240616,0.0152552,0,0,0,0,0.223935,0.3671,-1.00296,34.8125,3,55264,5582384
469,-1.21965,-0.692411,9.37845,-0.327178,-1.69563,0.562585,-0.0121898,-0.00693428,0.0937846,1,4.23424e-05,2.89715e-05,9.12975e-05,0.00846848,0.00579431,0.0182595,0,0,0,0,0.222125,0.364623,-0.999976,34.8125,3,55267,5582684
470,-0.602529,-0.0441784,9.94364,-0.232103,-1.04815,1.02431,-0.00602464,-0.000429092,0.0994365,1,-7.17255e-05,2.72393e-06,0.000130458,-0.0143451,0.000544786,0.0260915,0,0,0,0,0.221568,0.371429,-0.998307,34.8125,3,55270,5582984
471,-0.46268,-0.475193,9.90957,0.139384,-1.80955,1.1017,-0.00465139,-0.00477603,0.0990934,1,0.000116781,-0.000129007,0.000102489,0.0233563,-0.0258015,0.0204977,0,0,0,0,0.219816,0.371318,-0.991231,34.8125,3,55274,5583384
472,-0.493917,0.26957,9.95746,-0.00557839,-1.12481,1.00085,-0.00493653,0.00267917,0.0995752,1,7.67255e-05,1.66642e-05,0.000126216,0.0153451,0.00333283,0.0252432,0,0,0,0,0.217769,0.374315,-0.994185,34.8125,3,55277,5583684
473,-0.477413,-0.692152,9.82259,-0.0279017,-1.85672,0.88575,-0.00478128,-0.00693493,0.0982246,1,6.46321e-05,-4.16656e-05,7.46357e-05,0.0129264,-0.00833312,0.0149271,0,0,0,0,0.215529,0.377587,-0.985011,34.8125,3,55280,5583984
474,-1.18811,0.593282,10.0896,-0.56919,-0.445902,1.2624,-0.0118661,0.00591256,0.100899,1,9.27716e-05,7.80802e-05,6.47926e-05,0.0185543,0.015616,0.0129585,0,0,0,0,0.21453,0.379068,-0.985478,34.8125,3,55284,5584384
475,-1.13234,0.0750204,9.79893,-0.467382,-1.09727,1.10011,-0.0113225,0.000758715,0.0979893,1,-4.72836e-05,5.11047e-06,3.33719e-05,-0.00945671,0.00102209,0.00667438,0,0,0,0,0.216979,0.38528,-0.979291,34.8125,3,55287,5584684
476,-0.829596,-0.378163,9.64004,-0.15276,-1.26725,0.881718,-0.00830001,-0.00376962,0.0964005,1,-6.85033e-05,-2.38435e-05,7.19064e-05,-0.0137007,-0.00476869,0.0143813,0,0,0,0,0.214598,0.385282,-0.97827,34.8125,3,55290,5584984
477,-0.721792,-0.386756,10.0369,0.2028,-1.70854,1.26706,-0.00720503,-0.00387457,0.100369,1,2.92783e-05,6.11374e-05,7.89306e-05,0.00585565,0.0122275,0.0157861,0,0,0,0,0.215097,0.391529,-0.973083,34.8125,3,55294,5585384
478,-0.623003,-0.511066,9.52971,-0.27163,-1.65827,0.541523,-0.00623479,-0.0051228,0.0952961,1,6.03636e-05,-2.76916e-05,5.05316e-05,0.0120727,-0.00553832,0.0101063,0,0,0,0,0.215191,0.389533,-0.970602,34.8125,3,55297,5585684
479,-1.00217,-0.425761,10.1387,-0.19286,-1.39186,1.22444,-0.0100068,-0.00427488,0.101388,1,8.33461e-05,7.26794e-05,1.83961e-05,0.0166692,0.0145359,0.00367922,0,0,0,0,0.214206,0.393895,-0.96848,34.8125,3,55300,5585984
480,-0.388807,0.29773,9.92073,0.168516,-1.02474,1.03826,-0.00388688,0.00297495,0.0992074,1,9.36781e-06,7.90704e-06,6.31274e-05,0.00187356,0.00158141,0.0126255,0,0,0,0,0.213375,0.393325,-0.963439,34.8125,3,55304,5586384
481,-0.884017,0.283058,9.56559,-0.177726,-0.666132,0.671332,-0.008823,0.00280626,0.0956581,1,0.000120729,9.17868e-05,6.93683e-05,0.0241458,0.0183574,0.0138737,0,0,0,0,0.216193,0.396724,-0.963881,34.8125,3,55307,5586684
482,-0.621314,0.678529,10.364,-0.00495873,-0.771836,1.4639,-0.00617977,0.00677512,0.103643,1,4.77819e-05,0.000162375,2.12949e-05,0.00955638,0.0324751,0.00425898,0,0,0,0,0.212968,0.39472,-0.959365,34.8125,3,55310,5586984
483,-0.444313,-0.439113,10.2061,0.27196,-1.45731,1.35173,-0.0044346,-0.00442324,0.10206,1,0.000156937,4.14329e-05,7.95255e-06,0.0313873,0.00828659,0.00159051,0,0,0,0,0.212475,0.396178,-0.958825,34.8125,3,55314,5587384
484,-1.0697,0.288269,9.21883,-0.581295,-1.11961,0.201728,-0.0107139,0.00287237,0.0921867,1,5.2263e-05,-9.10545e-05,3.21115e-05,0.0104526,-0.0182109,0.0064223,0,0,0,0,0.214902,0.398552,-0.956259,34.8125,3,55317,5587684
485,-0.329016,-0.599924,9.91461,0.23278,-1.54294,1.05303,-0.00328964,-0.00598292,0.0991471,1,-8.46172e-05,-1.61007e-06,6.968e-05,-0.0169234,-0.000322013,0.013936,0,0,0,0,0.21153,0.396656,-0.9578,34.8125,3,55320,5587984
486,-0.476474,-0.698223,10.3777,0.0199715,-2.14181,1.33443,-0.00476213,-0.00699066,0.103776,1,3.9092e-05,1.03425e-05,3.27041e-05,0.0078184,0.00206849,0.00654081,0,0,0,0,0.21255,0.39757,-0.954754,34.8125,3,55324,5588384
487,-0.742876,0.198039,9.8983,-0.242097,-0.861405,1.00709,-0.00742445,0.00198011,0.0989834,1,-2.61411e-06,2.28444e-05,5.3295e-05,-0.000522823,0.00456887,0.010659,0,0,0,0,0.210667,0.398037,-0.952715,34.8125,3,55327,5588684
488,-0.717368,-0.15703,9.63139,-0.0458333,-1.43149,0.808751,-0.00717198,-0.00162341,0.0963131,1,0.00027405,8.45924e-06,2.24168e-05,0.05481,0.00169185,0.00448337,0,0,0,0,0.209166,0.398573,-0.954716,34.8125,3,55330,5588984
489,-0.586147,0.431145,9.80284,-0.019203,-0.658328,1.02999,-0.0058552,0.00431952,0.0980285,1,-4.48127e-05,3.47101e-05,6.13067e-05,-0.00896254,0.00694202,0.0122613,0,0,0,0,0.206957,0.395558,-0.948713,34.8125,3,55334,5589384
490,-0.825009,-0.131469,9.96526,0.0244606,-1.06293,1.10705,-0.00828104,-0.00134403,0.0996497,1,0.000145541,-0.000155542,2.02167e-05,0.0291082,-0.0311085,0.00404335,0,0,0,0,0.206846,0.397085,-0.952214,34.8125,3,55337,5589684
491,-1.12088,0.551872,9.45783,-0.678755,-0.727266,0.482359,-0.0112257,0.00552983,0.0945756,1,-6.53388e-05,-8.61178e-05,5.5891e-05,-0.0130678,-0.0172236,0.0111782,0,0,0,0,0.203572,0.395117,-0.949717,34.8125,3,55340,5589984
492,-0.885881,-0.294391,9.63481,-0.334465,-1.0905,0.722853,-0.00886898,-0.00295742,0.0963468,1,6.50865e-05,-5.44732e-05,5.4849e-05,0.0130173,-0.0108946,0.0109698,0,0,0,0,0.203935,0.397127,-0.953209,34.8125,3,55344,5590384
493,-0.55762,-0.620105,10.0452,0.0580627,-2.21495,1.16013,-0.00558799,-0.0062229,0.10045,1,0.000107406,-6.02057e-05,2.46806e-05,0.0214811,-0.0120411,0.00493613,0,0,0,0,0.201216,0.395101,-0.947686,34.8125,3,55347,5590684
494,-1.00988,-0.289294,9.15872,-0.653625,-1.39627,0.326505,-0.0100934,-0.00290205,0.0915875,1,4.17019e-05,2.73246e-05,7.28386e-05,0.00834037,0.00546492,0.0145677,0,0,0,0,0.198252,0.396145,-0.950175,34.8125,3,55350,5590984
495,-0.491141,0.449704,9.88978,0.108196,-1.03711,0.986968,-0.00493092,0.00445576,0.0988987,1,0.000206582,-9.67012e-05,4.23391e-05,0.0413165,-0.0193402,0.00846783,0,0,0,0,0.196838,0.398063,-0.9476,34.8125,3,55354,5591384
496,-0.584503,-0.104045,9.89169,-0.386861,-1.3363,0.79236,-0.00587196,-0.00103998,0.0989153,1,-8.09165e-06,-0.000137143,9.66436e-05,-0.00161833,-0.0274287,0.0193287,0,0,0,0,0.194521,0.394163,-0.946666,34.8125,3,55357,5591684
497,-0.879988,0.0834409,9.85353,-0.0717227,-0.618295,0.902846,-0.00881549,0.000825806,0.098534,1,3.64974e-05,-7.85152e-05,8.01093e-05,0.00729947,-0.015703,0.0160219,0,0,0,0,0.194844,0.400057,-0.949062,34.8125,3,55360,5591984
498,-0.548427,0.108051,9.81961,-0.277716,-1.34596,0.757644,-0.00547516,0.00107703,0.0981967,1,1.25917e-05,4.74352e-05,9.23275e-05,0.00251833,0.00948703,0.0184655,0,0,0,0,0.191562,0.398577,-0.946554,34.8125,3,55364,5592384
499,-0.738874,-0.519881,9.69416,-0.150054,-1.36936,0.890466,-0.00737772,-0.00520531,0.0969421,1,2.81911e-05,5.31129e-05,7.02976e-05,0.00563822,0.0106226,0.0140595,0,0,0,0,0.192002,0.399566,-0.947544,34.8125,3,55367,5592684
500,-0.250916,-0.34043,10.4196,0.28886,-1.80736,1.36084,-0.00250403,-0.00340279,0.104196,1,-8.22173e-06,2.32998e-05,4.05667e-05,-0.00164435,0.00465997,0.00811335,0,0,0,0,0.190185,0.400468,-0.942465,34.8125,3,55370,5592984
501,-1.32323,-0.188539,9.66831,-0.53373,-0.974743,0.92252,-0.01324,-0.00191779,0.0966814,1,0.000157901,-4.11067e-05,7.04056e-05,0.0315803,-0.00822133,0.0140811,0,0,0,0,0.186691,0.402998,-0.945928,34.8125,3,55374,5593384
502,-0.478315,0.70545,10.0653,-0.0197923,-0.756962,1.05394,-0.00479742,0.00703501,0.100653,1,9.31702e-05,-6.55146e-05,7.66509e-05,0.0186341,-0.0131029,0.0153302,0,0,0,0,0.187275,0.404846,-0.940334,34.8125,3,55377,5593684
503,-0.531901,-0.409039,10.1257,-0.0834652,-1.52377,1.43754,-0.00530185,-0.00410793,0.101258,1,8.41077e-05,8.2792e-05,4.75234e-05,0.0168216,0.0165584,0.00950469,0,0,0,0,0.186199,0.408792,-0.942262,34.8125,3,55380,5593984
504,-0.807536,0.244979,9.68723,-0.250087,-1.0561,0.814219,-0.00808087,0.00242968,0.0968724,1,0.000100711,-2.74549e-05,3.72628e-05,0.0201423,-0.00549099,0.00745256,0,0,0,0,0.186775,0.409682,-0.937699,34.8125,3,55384,5594384
505,-0.58082,0.348669,10.0904,-0.271113,-0.640716,1.05099,-0.00581783,0.00349442,0.100903,1,-4.21972e-05,-4.53353e-05,6.75891e-05,-0.00843944,-0.00906706,0.0135178,0,0,0,0,0.182939,0.411151,-0.936134,34.8125,3,55387,5594684
506,-0.966371,0.310992,9.82962,-0.192651,-0.692537,1.05621,-0.00966761,0.0030819,0.0982967,1,0.000137681,-1.82577e-05,4.89527e-05,0.0275362,-0.00365155,0.00979053,0,0,0,0,0.183339,0.416024,-0.936027,34.8125,3,55390,5594984
507,-0.523639,-0.447356,10.0441,-0.295248,-1.59045,1.06976,-0.00521004,-0.00444528,0.100443,1,-0.000142773,0.000129464,3.84698e-05,-0.0285545,0.0258928,0.00769396,0,0,0,0,0.184918,0.414468,-0.931524,34.8125,3,55394,5595384
508,-1.53738,-0.717088,8.94463,-0.700389,-1.90068,0.143498,-0.015366,-0.0072162,0.089444,1,0.000255348,4.45369e-05,-1.18341e-05,0.0510697,0.00890737,-0.00236682,0,0,0,0,0.183834,0.420347,-0.932398,34.8125,3,55397,5595684
509,-0.2998,0.0911799,9.93005,-0.288294,-1.28478,0.969859,-0.00299898,0.000920518,0.0993004,1,-4.4908e-05,-4.62113e-06,3.33654e-05,-0.00898159,-0.000924226,0.00667307,0,0,0,0,0.181531,0.420774,-0.927832,34.8125,3,55400,5595984
510,0.0517751,0.329098,10.5666,1.01099,-1.16522,1.82233,0.000515708,0.00325579,0.105667,1,0.000166872,-7.46738e-06,7.09931e-05,0.0333744,-0.00149348,0.0141986,0,0,0,0,0.183929,0.421242,-0.927833,34.8125,3,55404,5596384
511,-0.300871,0.211144,10.2231,-0.00337058,-1.31683,1.28129,-0.00297886,0.00213749,0.102232,1,-0.000128586,0.000146793,3.91658e-05,-0.0257173,0.0293586,0.00783316,0,0,0,0,0.18446,0.424092,-0.923732,34.8125,3,55407,5596684
512,-0.667675,-0.577183,9.74728,0.0680145,-1.356,0.932647,-0.00667771,-0.0057811,0.0974721,1,4.74319e-05,-5.04459e-06,1.63163e-06,0.00948638,-0.00100892,0.000326325,0,0,0,0,0.183485,0.422664,-0.925274,34.8125,3,55410,5596984
513,-0.472353,0.378375,10.4685,-0.142304,-1.04671,1.4602,-0.00470936,0.00379649,0.104686,1,-6.07591e-05,6.76216e-05,-1.10089e-06,-0.0121518,0.0135243,-0.000220178,0,0,0,0,0.182981,0.427022,-0.923155,34.8125,3,55414,5597384
514,-0.629467,-0.531161,10.2505,-0.162331,-1.35823,1.31436,-0.00630984,-0.00529621,0.102505,1,-7.28376e-05,-7.20769e-05,-3.71186e-05,-0.0145675,-0.0144154,-0.00742371,0,0,0,0,0.18548,0.425005,-0.920686,34.8125,3,55417,5597684
515,-0.347315,-0.53562,10.2051,0.435124,-2.34613,1.42469,-0.00345919,-0.00540124,0.102049,1,0.000222926,7.19089e-05,-6.65235e-05,0.0445853,0.0143818,-0.0133047,0,0,0,0,0.184465,0.427461,-0.921131,34.8125,3,55420,5597984
516,-0.865541,0.321405,9.16924,-0.595612,-0.673249,0.258584,-0.00867464,0.00319293,0.0916913,1,0.000118805,-0.000106245,-3.8609e-05,0.0237611,-0.0212491,-0.00772179,0,0,0,0,0.185546,0.425439,-0.917646,34.8125,3,55424,5598384
517,-1.14296,0.324845,9.60793,-0.471706,-0.780744,0.713116,-0.0114492,0.00322345,0.0960779,1,0.000136373,-0.00010375,-5.30236e-05,0.0272747,-0.02075,-0.0106047,0,0,0,0,0.184518,0.425013,-0.920681,34.8125,3,55427,5598684
518,-0.394006,-0.28013,10.5147,-0.0671615,-1.95603,1.54771,-0.00394533,-0.00280633,0.105147,1,2.61207e-05,-2.34759e-05,-5.9677e-05,0.00522415,-0.00469518,-0.0119354,0,0,0,0,0.184168,0.42444,-0.915641,34.8125,3,55430,5598984
519,-0.368656,0.0454215,9.87788,0.0477617,-0.775583,0.982385,-0.00369644,0.000452557,0.0987785,1,9.46071e-06,-5.01521e-05,-2.86074e-05,0.00189214,-0.0100304,-0.00572149,0,0,0,0,0.185582,0.422522,-0.918216,34.8125,3,55434,5599384
520,-1.07055,0.271205,9.71816,-0.496128,-1.03377,0.893363,-0.0107072,0.0026847,0.0971822,1,0.000144501,-9.697e-06,-3.47237e-05,0.0289002,-0.0019394,-0.00694475,0,0,0,0,0.18279,0.420549,-0.915722,34.8125,3,55437,5599684
521,-0.51764,0.515374,10.291,0.136216,-0.602961,1.38261,-0.00518571,0.00516473,0.102909,1,-5.37988e-05,-4.48394e-05,7.82546e-06,-0.0107598,-0.00896788,0.00156509,0,0,0,0,0.183238,0.421051,-0.916723,34.8125,3,55440,5599984
522,-0.66345,-0.248497,9.68497,-0.170925,-1.33368,0.822099,-0.00665288,-0.00251497,0.0968476,1,0.000154907,-9.48474e-05,-8.63809e-07,0.0309815,-0.0189695,-0.000172762,0,0,0,0,0.183259,0.422,-0.915187,34.8125,3,55444,5600384
523,-0.804769,-0.100141,9.7251,-0.214972,-1.64244,0.782367,-0.00804175,-0.00100275,0.0972515,1,4.91459e-06,3.02928e-05,2.37771e-05,0.000982917,0.00605855,0.00475542,0,0,0,0,0.181444,0.416153,-0.914803,34.8125,3,55447,5600684
524,-0.69698,-0.911309,9.68377,-0.388264,-1.77745,0.771487,-0.00696472,-0.00912502,0.0968369,1,6.12479e-05,2.5804e-05,4.91831e-06,0.0122496,0.00516079,0.000983661,0,0,0,0,0.184694,0.422475,-0.915183,34.8125,3,55450,5600984
522,-1.11585,0.907316,9.38907,-0.810131,-0.206479,0.52999,-0.01116,0.00906633,0.0938912,1,3.82147e-05,-9.42123e-06,-1.53297e-05,0.00764293,-0.00188425,-0.00306594,0,0,0,0,0.180564,0.417065,-0.910738,34.8125,3,55454,5601384
526,-0.872368,0.357394,9.73962,-0.327956,-0.830518,0.921168,-0.00872018,0.00355441,0.0973972,1,0.000102732,1.69554e-05,-2.75375e-05,0.0205463,0.00339108,-0.0055075,0,0,0,0,0.182382,0.419054,-0.913733,34.8125,3,55457,5601684
527,-0.410224,0.0216543,9.84827,-0.218032,-1.20529,0.792143,-0.00411073,0.000179576,0.0984824,1,0.000188455,-4.31495e-05,-1.84625e-05,0.0376911,-0.00862989,-0.0036925,0,0,0,0,0.179615,0.419954,-0.908144,34.8125,3,55460,5601984
528,-1.1519,-0.348385,9.41887,-0.534456,-1.27969,0.517525,-0.0115155,-0.00349024,0.0941889,1,3.84052e-05,1.99778e-05,-3.63655e-05,0.00768104,0.00399556,-0.00727309,0,0,0,0,0.17621,0.418564,-0.910685,34.8125,3,55464,5602384
529,-0.958171,0.4404,9.32612,-0.772515,-0.678325,0.338268,-0.00957662,0.00439391,0.0932622,1,5.6826e-05,2.60056e-05,-2.69721e-05,0.0113652,0.00520111,-0.00539442,0,0,0,0,0.178645,0.42045,-0.908129,34.8125,3,55467,5602684
530,-0.677972,-0.386167,9.92256,-0.266183,-1.5398,1.04806,-0.00678047,-0.00387325,0.0992251,1,6.04672e-05,-2.55193e-06,-3.05074e-05,0.0120934,-0.000510386,-0.00610149,0,0,0,0,0.176251,0.420461,-0.907612,34.8125,3,55470,5602984
531,-1.01638,0.529223,9.5657,-0.745475,-0.930213,0.493292,-0.0101536,0.00526389,0.0956596,1,0.000155238,4.92697e-05,-6.70896e-05,0.0310477,0.00985394,-0.0134179,0,0,0,0,0.176309,0.421383,-0.904562,34.8125,3,55474,5603384
532,-0.82812,-0.925966,9.63853,-0.651421,-2.11548,0.600907,-0.00826207,-0.00927476,0.0963855,1,8.38119e-05,0.000105367,-6.39174e-05,0.0167624,0.0210734,-0.0127835,0,0,0,0,0.174846,0.424782,-0.902964,34.8125,3,55477,5603684
533,-0.80822,0.0346313,10.116,-0.369522,-0.986044,0.998241,-0.00808781,0.000310036,0.101159,1,0.000185387,-2.79375e-05,-7.61036e-05,0.0370774,-0.00558749,-0.0152207,0,0,0,0,0.171043,0.425744,-0.9004,34.8125,3,55480,5603984
534,-0.670721,-0.229367,9.70924,-0.469315,-1.24688,0.864703,-0.00670574,-0.00228621,0.0970927,1,-3.51462e-05,8.71613e-06,-4.78872e-05,-0.00702925,0.00174323,-0.00957743,0,0,0,0,0.172508,0.428126,-0.897829,34.8125,3,55484,5604384
535,-1.06725,0.31545,9.77703,-0.00484768,-0.819519,0.992304,-0.0106774,0.00312069,0.0977708,1,0.000181507,-2.75352e-05,-7.8686e-05,0.0363014,-0.00550705,-0.0157372,0,0,0,0,0.172444,0.433474,-0.896699,34.8125,3,55487,5604684
536,-0.429211,-0.00694059,9.74237,-0.525857,-1.56705,0.797662,-0.00428107,-7.13551e-05,0.0974242,1,1.19872e-05,5.6689e-05,-4.50818e-05,0.00239744,0.0113378,-0.00901636,0,0,0,0,0.167833,0.430958,-0.890168,34.8125,3,55490,5604984
537,-0.936633,-0.421102,9.42593,-0.26131,-1.26522,0.52801,-0.00937049,-0.00423766,0.0942577,1,0.000152288,-1.7074e-05,-0.000110609,0.0304575,-0.0034148,-0.0221219,0,0,0,0,0.168641,0.437327,-0.892051,34.8125,3,55494,5605384
538,-1.02191,0.356697,9.53259,-1.02506,-0.957142,0.364503,-0.0102075,0.00359309,0.0953262,1,-0.000123488,5.64512e-05,-0.000126288,-0.0246976,0.0112902,-0.0252577,0,0,0,0,0.169218,0.439662,-0.886446,34.8125,3,55497,5605684
539,-0.966188,-0.37313,9.68667,-0.262623,-1.09694,0.913324,-0.00966614,-0.00372013,0.0968667,1,-3.50576e-05,-1.32557e-05,-0.000226753,-0.00701152,-0.00265114,-0.0453505,0,0,0,0,0.166258,0.442631,-0.887376,34.8125,3,55500,5605984
540,-0.278928,0.349202,10.4985,-0.11923,-1.21671,1.43066,-0.00279563,0.00347759,0.104986,1,7.49975e-05,-3.80683e-05,-0.000235779,0.0149995,-0.00761365,-0.0471558,0,0,0,0,0.166708,0.447469,-0.885251,34.8125,3,55504,5606384
541,-0.680745,-0.476491,10.1651,-0.388735,-1.55046,1.26894,-0.00682544,-0.00480223,0.101648,1,0.00020213,-7.54699e-05,-0.000276596,0.0404259,-0.015094,-0.0553192,0,0,0,0,0.164923,0.449309,-0.87813,34.8125,3,55507,5606684
542,-0.794344,0.433485,9.5218,-0.730008,-0.941822,0.530049,-0.00795502,0.00433924,0.0952169,1,1.52539e-06,-7.41968e-05,-0.000294692,0.000305079,-0.0148393,-0.0589383,0,0,0,0,0.161519,0.45081,-0.878586,34.8125,3,55511,5607084
543,-1.52211,-0.226726,9.31954,-0.726345,-0.985902,0.375105,-0.0152297,-0.00226259,0.0931941,1,3.28745e-05,-3.77099e-05,-0.000354393,0.00657491,-0.00754199,-0.0708786,0,0,0,0,0.161125,0.453641,-0.872966,34.8125,3,55514,5607384
544,-0.729595,0.192004,9.43824,-0.86905,-1.03775,0.381958,-0.00729723,0.00191604,0.0943824,1,5.39474e-05,-1.54054e-05,-0.00042349,0.0107895,-0.00308107,-0.084698,0,0,0,0,0.157749,0.454157,-0.872939,34.8125,3,55517,5607684
545,-0.955056,0.0208875,9.40922,-0.35329,-0.906482,0.792761,-0.00953761,0.000196161,0.0940935,1,0.000113633,6.77998e-05,-0.000454188,0.0227266,0.01356,-0.0908377,0,0,0,0,0.158786,0.454095,-0.869915,34.8125,3,55520,5607984
546,-0.641881,-0.339764,9.78767,-0.871243,-1.72924,0.539827,-0.00643574,-0.00339567,0.0978756,1,2.43915e-05,-6.82895e-05,-0.000524573,0.00487829,-0.0136579,-0.104915,0,0,0,0,0.153017,0.457512,-0.867287,34.8125,3,55524,5608384
547,-0.832986,-0.0331177,10.3691,-0.237977,-0.853981,1.31006,-0.00834957,-0.000359317,0.103689,1,0.000183331,-9.30255e-05,-0.000592302,0.0366663,-0.0186051,-0.11846,0,0,0,0,0.152528,0.458004,-0.867274,34.8125,3,55527,5608684
548,-0.0864389,0.152249,10.2411,0.171827,-1.18557,1.41704,-0.000857026,0.00152834,0.102411,1,-2.33355e-05,2.66298e-05,-0.00062553,-0.00466711,0.00532596,-0.125106,0,0,0,0,0.150616,0.456566,-0.867802,34.8125,3,55531,5609084
549,-1.09944,-0.0459719,9.54376,-0.679824,-1.11785,0.573575,-0.0110041,-0.000451029,0.0954366,1,3.52095e-05,-4.74511e-05,-0.000700527,0.0070419,-0.00949023,-0.140105,0,0,0,0,0.146328,0.459944,-0.863667,34.8125,3,55534,5609384
550,-1.15536,-0.337132,9.47942,-0.617867,-1.16417,0.631747,-0.0115476,-0.00335419,0.0947955,1,7.69187e-06,5.99557e-05,-0.000804685,0.00153837,0.0119911,-0.160937,0,0,0,0,0.143004,0.456567,-0.864231,34.8125,3,55537,5609684
551,-1.03846,0.231028,9.56311,-1.19051,-0.764131,0.331856,-0.0103872,0.00229512,0.0956312,0.999999,0.00017281,-3.43707e-05,-0.000861089,0.0345619,-0.00687414,-0.172218,0,0,0,0,0.139608,0.459024,-0.863656,34.8125,3,55541,5610084
