frame_id,imu_idx,quat_w,quat_x,quat_y,quat_z,accel_x,accel_y,accel_z,free_accel_x,free_accel_y,free_accel_z,delta_v_x,delta_v_y,delta_v_z,delta_q_w,delta_q_x,delta_q_y,delta_q_z,rate_x,rate_y,rate_z,quat_w,quat_x,quat_y,quat_z,mag_x,mag_y,mag_z,temperature,status_byte,packet_counter,time_fine
1,1,0.998813,0.033158,0.0253634,0.0250846,-0.642017,-0.0854051,9.79317,-0.028816,-1.40426,0.880204,-0.00642128,-0.000861712,0.0979316,1,3.79532e-05,-5.83756e-06,1.7697e-05,0.00759065,-0.00116751,0.0035394,0.998813,0.033158,0.0253634,0.0250846,0.0657538,0.524275,-0.98712,28.9375,3,20951,2143727
1,2,0.998813,0.033158,0.0253634,0.0250846,-0.478257,-0.0656385,7.35174,-0.028816,-1.40426,0.880204,-0.00478287,-0.000660964,0.0735173,1,2.99441e-05,-2.23882e-06,1.84083e-05,0.00598881,-0.000447764,0.00368165,0.998813,0.033158,0.0253634,0.0250846,0.0663094,0.525662,-0.983051,29.625,1,26416,2691739
1,3,0.998813,0.033158,0.0253634,0.0250846,-0.478257,-0.0656385,7.35174,-0.028816,-1.40426,0.880204,-0.00478287,-0.000660964,0.0735173,1,2.99441e-05,-2.23882e-06,1.84083e-05,0.00598881,-0.000447764,0.00368165,0.998813,0.033158,0.0253634,0.0250846,0.0663094,0.525662,-0.983051,29.625,1,26416,2691739
1,4,0.998813,0.033158,0.0253634,0.0250846,-0.478257,-0.0656385,7.35174,-0.028816,-1.40426,0.880204,-0.00478287,-0.000660964,0.0735173,1,2.99441e-05,-2.23882e-06,1.84083e-05,0.00598881,-0.000447764,0.00368165,0.998813,0.033158,0.0253634,0.0250846,0.0663094,0.525662,-0.983051,29.625,1,26416,2691739
1,5,0.999463,-0.0044403,0.0324619,-0.000123768,-0.637847,-0.0797531,9.79209,0.0607559,-0.500788,0.993058,-0.00638142,-0.000806107,0.0979207,1,4.22784e-05,-1.52422e-05,2.32325e-05,0.00845568,-0.00304845,0.00464649,0.999463,-0.0044403,0.0324619,-0.000123768,0.0652162,0.527693,-0.987041,29.625,1,26417,2691839
1,6,0.999463,-0.0044403,0.0324619,-0.000123768,-0.637847,-0.0797531,9.79209,0.0607559,-0.500788,0.993058,-0.00638142,-0.000806107,0.0979207,1,4.22784e-05,-1.52422e-05,2.32325e-05,0.00845568,-0.00304845,0.00464649,0.999463,-0.0044403,0.0324619,-0.000123768,0.0652162,0.527693,-0.987041,29.625,1,26417,2691839
2,1,0.999463,-0.0044403,0.0324619,-0.000123768,-0.637847,-0.0797531,9.79209,0.0607559,-0.500788,0.993058,-0.00638142,-0.000806107,0.0979207,1,4.22784e-05,-1.52422e-05,2.32325e-05,0.00845568,-0.00304845,0.00464649,0.999463,-0.0044403,0.0324619,-0.000123768,0.0652162,0.527693,-0.987041,29.625,1,26417,2691839
2,2,0.999464,-0.00439676,0.0324353,-0.000127621,-0.637124,-0.0786365,9.79312,0.0578125,-0.505344,0.992989,-0.00637517,-0.000795087,0.0979309,1,4.38001e-05,-2.01707e-05,1.12596e-05,0.00876001,-0.00403413,0.00225192,0.999464,-0.00439676,0.0324353,-0.000127621,0.0651911,0.526266,-0.989093,29.625,1,26418,2691939
2,3,0.999464,-0.00439676,0.0324353,-0.000127621,-0.637124,-0.0786365,9.79312,0.0578125,-0.505344,0.992989,-0.00637517,-0.000795087,0.0979309,1,4.38001e-05,-2.01707e-05,1.12596e-05,0.00876001,-0.00403413,0.00225192,0.999464,-0.00439676,0.0324353,-0.000127621,0.0651911,0.526266,-0.989093,29.625,1,26418,2691939
2,4,0.999464,-0.00439676,0.0324353,-0.000127621,-0.637124,-0.0786365,9.79312,0.0578125,-0.505344,0.992989,-0.00637517,-0.000795087,0.0979309,1,4.38001e-05,-2.01707e-05,1.12596e-05,0.00876001,-0.00403413,0.00225192,0.999464,-0.00439676,0.0324353,-0.000127621,0.0651911,0.526266,-0.989093,29.625,1,26418,2691939
2,5,0.999465,-0.0043498,0.0324268,-0.000114795,-0.634876,-0.0813737,9.7985,0.0655997,-0.504072,1.00499,-0.00635042,-0.000823106,0.0979848,1,4.68622e-05,-8.55884e-06,1.46015e-05,0.00937245,-0.00171177,0.00292029,0.999465,-0.0043498,0.0324268,-0.000114795,0.0642611,0.524323,-0.989132,29.625,1,26419,2692039
2,6,0.999465,-0.0043498,0.0324268,-0.000114795,-0.634876,-0.0813737,9.7985,0.0655997,-0.504072,1.00499,-0.00635042,-0.000823106,0.0979848,1,4.68622e-05,-8.55884e-06,1.46015e-05,0.00937245,-0.00171177,0.00292029,0.999465,-0.0043498,0.0324268,-0.000114795,0.0642611,0.524323,-0.989132,29.625,1,26419,2692039
3,1,0.999465,-0.0043498,0.0324268,-0.000114795,-0.634876,-0.0813737,9.7985,0.0655997,-0.504072,1.00499,-0.00635042,-0.000823106,0.0979848,1,4.68622e-05,-8.55884e-06,1.46015e-05,0.00937245,-0.00171177,0.00292029,0.999465,-0.0043498,0.0324268,-0.000114795,0.0642611,0.524323,-0.989132,29.625,1,26419,2692039
3,2,0.999465,-0.00430579,0.0324145,-0.00010104,-0.649539,-0.0730004,9.79833,0.0523131,-0.497091,1.0035,-0.00649775,-0.000738701,0.0979831,1,4.33958e-05,-1.21334e-05,1.4838e-05,0.00867917,-0.00242669,0.0029676,0.999465,-0.00430579,0.0324145,-0.00010104,0.064783,0.523325,-0.988146,29.625,1,26420,2692139
3,3,0.999465,-0.00430579,0.0324145,-0.00010104,-0.649539,-0.0730004,9.79833,0.0523131,-0.497091,1.0035,-0.00649775,-0.000738701,0.0979831,1,4.33958e-05,-1.21334e-05,1.4838e-05,0.00867917,-0.00242669,0.0029676,0.999465,-0.00430579,0.0324145,-0.00010104,0.064783,0.523325,-0.988146,29.625,1,26420,2692139
3,4,0.999465,-0.00430579,0.0324145,-0.00010104,-0.649539,-0.0730004,9.79833,0.0523131,-0.497091,1.0035,-0.00649775,-0.000738701,0.0979831,1,4.33958e-05,-1.21334e-05,1.4838e-05,0.00867917,-0.00242669,0.0029676,0.999465,-0.00430579,0.0324145,-0.00010104,0.064783,0.523325,-0.988146,29.625,1,26420,2692139
3,5,0.999466,-0.00426538,0.0324016,-9.2594e-05,-0.648918,-0.0794183,9.78809,0.0493486,-0.506895,0.993956,-0.00649171,-0.000802288,0.0978806,1,4.07639e-05,-1.30069e-05,9.61535e-06,0.00815277,-0.00260137,0.00192307,0.999466,-0.00426538,0.0324016,-9.2594e-05,0.0634298,0.522308,-0.985133,29.625,1,26421,2692239
3,6,0.999466,-0.00426538,0.0324016,-9.2594e-05,-0.648918,-0.0794183,9.78809,0.0493486,-0.506895,0.993956,-0.00649171,-0.000802288,0.0978806,1,4.07639e-05,-1.30069e-05,9.61535e-06,0.00815277,-0.00260137,0.00192307,0.999466,-0.00426538,0.0324016,-9.2594e-05,0.0634298,0.522308,-0.985133,29.625,1,26421,2692239
4,1,0.999466,-0.00426538,0.0324016,-9.2594e-05,-0.648918,-0.0794183,9.78809,0.0493486,-0.506895,0.993956,-0.00649171,-0.000802288,0.0978806,1,4.07639e-05,-1.30069e-05,9.61535e-06,0.00815277,-0.00260137,0.00192307,0.999466,-0.00426538,0.0324016,-9.2594e-05,0.0634298,0.522308,-0.985133,29.625,1,26421,2692239
4,2,0.999466,-0.00422356,0.032388,-7.65141e-05,-0.626699,-0.0782247,9.78931,0.0710208,-0.499679,0.990457,-0.00626963,-0.000790587,0.0978929,1,4.14848e-05,-1.36124e-05,1.73635e-05,0.00829696,-0.00272248,0.0034727,0.999466,-0.00422356,0.032388,-7.65141e-05,0.0644291,0.522273,-0.983623,29.625,1,26422,2692339
4,3,0.999466,-0.00422356,0.032388,-7.65141e-05,-0.626699,-0.0782247,9.78931,0.0710208,-0.499679,0.990457,-0.00626963,-0.000790587,0.0978929,1,4.14848e-05,-1.36124e-05,1.73635e-05,0.00829696,-0.00272248,0.0034727,0.999466,-0.00422356,0.032388,-7.65141e-05,0.0644291,0.522273,-0.983623,29.625,1,26422,2692339
4,4,0.999466,-0.00422356,0.032388,-7.65141e-05,-0.626699,-0.0782247,9.78931,0.0710208,-0.499679,0.990457,-0.00626963,-0.000790587,0.0978929,1,4.14848e-05,-1.36124e-05,1.73635e-05,0.00829696,-0.00272248,0.0034727,0.999466,-0.00422356,0.032388,-7.65141e-05,0.0644291,0.522273,-0.983623,29.625,1,26422,2692339
4,5,0.999467,-0.00417765,0.0323669,-6.26203e-05,-0.635695,-0.0888351,9.79031,0.0621341,-0.51395,0.993977,-0.00636108,-0.000897313,0.0979027,1,4.47891e-05,-2.12232e-05,1.51004e-05,0.00895782,-0.00424463,0.00302007,0.999467,-0.00417765,0.0323669,-6.26203e-05,0.0652523,0.524776,-0.987611,29.625,1,26423,2692439
4,6,0.999467,-0.00417765,0.0323669,-6.26203e-05,-0.635695,-0.0888351,9.79031,0.0621341,-0.51395,0.993977,-0.00636108,-0.000897313,0.0979027,1,4.47891e-05,-2.12232e-05,1.51004e-05,0.00895782,-0.00424463,0.00302007,0.999467,-0.00417765,0.0323669,-6.26203e-05,0.0652523,0.524776,-0.987611,29.625,1,26423,2692439
5,1,0.999467,-0.00417765,0.0323669,-6.26203e-05,-0.635695,-0.0888351,9.79031,0.0621341,-0.51395,0.993977,-0.00636108,-0.000897313,0.0979027,1,4.47891e-05,-2.12232e-05,1.51004e-05,0.00895782,-0.00424463,0.00302007,0.999467,-0.00417765,0.0323669,-6.26203e-05,0.0652523,0.524776,-0.987611,29.625,1,26423,2692439
5,2,0.999468,-0.00414286,0.032355,-4.99129e-05,-0.638518,-0.0872768,9.79372,0.0620013,-0.511558,0.996032,-0.0063875,-0.000879535,0.097937,1,3.36506e-05,-1.19469e-05,1.37277e-05,0.00673011,-0.00238939,0.00274554,0.999468,-0.00414286,0.032355,-4.99129e-05,0.0647014,0.525312,-0.990122,29.625,1,26424,2692539
5,3,0.999468,-0.00414286,0.032355,-4.99129e-05,-0.638518,-0.0872768,9.79372,0.0620013,-0.511558,0.996032,-0.0063875,-0.000879535,0.097937,1,3.36506e-05,-1.19469e-05,1.37277e-05,0.00673011,-0.00238939,0.00274554,0.999468,-0.00414286,0.032355,-4.99129e-05,0.0647014,0.525312,-0.990122,29.625,1,26424,2692539
5,4,0.999468,-0.00414286,0.032355,-4.99129e-05,-0.638518,-0.0872768,9.79372,0.0620013,-0.511558,0.996032,-0.0063875,-0.000879535,0.097937,1,3.36506e-05,-1.19469e-05,1.37277e-05,0.00673011,-0.00238939,0.00274554,0.999468,-0.00414286,0.032355,-4.99129e-05,0.0647014,0.525312,-0.990122,29.625,1,26424,2692539
5,5,0.999468,-0.00409256,0.0323484,-3.90073e-05,-0.645319,-0.0876542,9.80293,0.0570488,-0.514187,1.00974,-0.00645447,-0.000886492,0.0980291,1,4.99301e-05,-6.67913e-06,1.24146e-05,0.00998602,-0.00133583,0.00248293,0.999468,-0.00409256,0.0323484,-3.90073e-05,0.0637634,0.523857,-0.99015,29.625,1,26425,2692639
5,6,0.999468,-0.00409256,0.0323484,-3.90073e-05,-0.645319,-0.0876542,9.80293,0.0570488,-0.514187,1.00974,-0.00645447,-0.000886492,0.0980291,1,4.99301e-05,-6.67913e-06,1.24146e-05,0.00998602,-0.00133583,0.00248293,0.999468,-0.00409256,0.0323484,-3.90073e-05,0.0637634,0.523857,-0.99015,29.625,1,26425,2692639
6,1,0.999468,-0.00409256,0.0323484,-3.90073e-05,-0.645319,-0.0876542,9.80293,0.0570488,-0.514187,1.00974,-0.00645447,-0.000886492,0.0980291,1,4.99301e-05,-6.67913e-06,1.24146e-05,0.00998602,-0.00133583,0.00248293,0.999468,-0.00409256,0.0323484,-3.90073e-05,0.0637634,0.523857,-0.99015,29.625,1,26425,2692639
6,2,0.999469,-0.00404647,0.0323464,-3.21638e-05,-0.64045,-0.0742943,9.7935,0.0583286,-0.502438,1.00156,-0.00640489,-0.000752007,0.0979349,1,4.57317e-05,-2.01719e-06,8.3652e-06,0.00914633,-0.000403437,0.00167304,0.999469,-0.00404647,0.0323464,-3.21638e-05,0.0638616,0.52234,-0.987154,29.625,1,26426,2692739
6,3,0.999469,-0.00404647,0.0323464,-3.21638e-05,-0.64045,-0.0742943,9.7935,0.0583286,-0.502438,1.00156,-0.00640489,-0.000752007,0.0979349,1,4.57317e-05,-2.01719e-06,8.3652e-06,0.00914633,-0.000403437,0.00167304,0.999469,-0.00404647,0.0323464,-3.21638e-05,0.0638616,0.52234,-0.987154,29.625,1,26426,2692739
6,4,0.999469,-0.00404647,0.0323464,-3.21638e-05,-0.64045,-0.0742943,9.7935,0.0583286,-0.502438,1.00156,-0.00640489,-0.000752007,0.0979349,1,4.57317e-05,-2.01719e-06,8.3652e-06,0.00914633,-0.000403437,0.00167304,0.999469,-0.00404647,0.0323464,-3.21638e-05,0.0638616,0.52234,-0.987154,29.625,1,26426,2692739
6,5,0.999469,-0.00400227,0.0323239,-3.36129e-05,-0.627908,-0.0833081,9.78691,0.0701274,-0.513694,0.994109,-0.00628351,-0.000841611,0.0978688,1,4.35913e-05,-2.26165e-05,-1.84579e-07,0.00871826,-0.00452331,-3.69158e-05,0.999469,-0.00400227,0.0323239,-3.36129e-05,0.0639148,0.521337,-0.985661,29.625,1,26427,2692839
6,6,0.999469,-0.00400227,0.0323239,-3.36129e-05,-0.627908,-0.0833081,9.78691,0.0701274,-0.513694,0.994109,-0.00628351,-0.000841611,0.0978688,1,4.35913e-05,-2.26165e-05,-1.84579e-07,0.00871826,-0.00452331,-3.69158e-05,0.999469,-0.00400227,0.0323239,-3.36129e-05,0.0639148,0.521337,-0.985661,29.625,1,26427,2692839
7,1,0.999469,-0.00400227,0.0323239,-3.36129e-05,-0.627908,-0.0833081,9.78691,0.0701274,-0.513694,0.994109,-0.00628351,-0.000841611,0.0978688,1,4.35913e-05,-2.26165e-05,-1.84579e-07,0.00871826,-0.00452331,-3.69158e-05,0.999469,-0.00400227,0.0323239,-3.36129e-05,0.0639148,0.521337,-0.985661,29.625,1,26427,2692839
7,2,0.99947,-0.00395596,0.0323186,-9.9064e-06,-0.63937,-0.0793757,9.79414,0.058099,-0.512276,0.996373,-0.00639473,-0.000803081,0.0979412,1,4.5957e-05,-5.4782e-06,2.517e-05,0.00919139,-0.00109564,0.005034,0.99947,-0.00395596,0.0323186,-9.9064e-06,0.0633933,0.52378,-0.985605,29.625,1,26428,2692939
7,3,0.99947,-0.00395596,0.0323186,-9.9064e-06,-0.63937,-0.0793757,9.79414,0.058099,-0.512276,0.996373,-0.00639473,-0.000803081,0.0979412,1,4.5957e-05,-5.4782e-06,2.517e-05,0.00919139,-0.00109564,0.005034,0.99947,-0.00395596,0.0323186,-9.9064e-06,0.0633933,0.52378,-0.985605,29.625,1,26428,2692939
7,4,0.99947,-0.00395596,0.0323186,-9.9064e-06,-0.63937,-0.0793757,9.79414,0.058099,-0.512276,0.996373,-0.00639473,-0.000803081,0.0979412,1,4.5957e-05,-5.4782e-06,2.517e-05,0.00919139,-0.00109564,0.005034,0.99947,-0.00395596,0.0323186,-9.9064e-06,0.0633933,0.52378,-0.985605,29.625,1,26428,2692939
7,5,0.99947,-0.00391388,0.0323052,1.70311e-05,-0.626605,-0.087842,9.78855,0.0695589,-0.517956,0.989886,-0.00626866,-0.000886738,0.0978853,1,4.06952e-05,-1.35788e-05,2.80606e-05,0.00813904,-0.00271576,0.00561211,0.99947,-0.00391388,0.0323052,1.70311e-05,0.063769,0.528672,-0.986508,29.625,1,26429,2693039
7,6,0.99947,-0.00391388,0.0323052,1.70311e-05,-0.626605,-0.087842,9.78855,0.0695589,-0.517956,0.989886,-0.00626866,-0.000886738,0.0978853,1,4.06952e-05,-1.35788e-05,2.80606e-05,0.00813904,-0.00271576,0.00561211,0.99947,-0.00391388,0.0323052,1.70311e-05,0.063769,0.528672,-0.986508,29.625,1,26429,2693039
29,1,0.99947,-0.00391388,0.0323052,1.70311e-05,-0.626605,-0.087842,9.78855,0.0695589,-0.517956,0.989886,-0.00626866,-0.000886738,0.0978853,1,4.06952e-05,-1.35788e-05,2.80606e-05,0.00813904,-0.00271576,0.00561211,0.99947,-0.00391388,0.0323052,1.70311e-05,0.063769,0.528672,-0.986508,29.625,1,26429,2693039
29,2,0.999471,-0.00386977,0.0322989,2.90241e-05,-0.645568,-0.071132,9.79017,0.0550064,-0.504488,0.991046,-0.00645679,-0.000719942,0.0979016,1,4.30363e-05,-5.77438e-06,1.51174e-05,0.00860727,-0.00115488,0.00302347,0.999471,-0.00386977,0.0322989,2.90241e-05,0.064225,0.52724,-0.988562,29.625,1,26430,2693139
29,3,0.999471,-0.00386977,0.0322989,2.90241e-05,-0.645568,-0.071132,9.79017,0.0550064,-0.504488,0.991046,-0.00645679,-0.000719942,0.0979016,1,4.30363e-05,-5.77438e-06,1.51174e-05,0.00860727,-0.00115488,0.00302347,0.999471,-0.00386977,0.0322989,2.90241e-05,0.064225,0.52724,-0.988562,29.625,1,26430,2693139
29,4,0.999472,-0.00381901,0.0322769,4.44454e-05,-0.650431,-0.070817,9.79667,0.048641,-0.508614,1.00073,-0.00650851,-0.000718261,0.0979663,1,5.03455e-05,-2.16065e-05,1.73617e-05,0.0100691,-0.00432129,0.00347234,0.999472,-0.00381901,0.0322769,4.44454e-05,0.0628178,0.524335,-0.989125,29.625,1,26431,2693239
29,5,0.999472,-0.00381901,0.0322769,4.44454e-05,-0.650431,-0.070817,9.79667,0.048641,-0.508614,1.00073,-0.00650851,-0.000718261,0.0979663,1,5.03455e-05,-2.16065e-05,1.73617e-05,0.0100691,-0.00432129,0.00347234,0.999472,-0.00381901,0.0322769,4.44454e-05,0.0628178,0.524335,-0.989125,29.625,1,26431,2693239
29,6,0.999472,-0.00381901,0.0322769,4.44454e-05,-0.650431,-0.070817,9.79667,0.048641,-0.508614,1.00073,-0.00650851,-0.000718261,0.0979663,1,5.03455e-05,-2.16065e-05,1.73617e-05,0.0100691,-0.00432129,0.00347234,0.999472,-0.00381901,0.0322769,4.44454e-05,0.0628178,0.524335,-0.989125,29.625,1,26431,2693239
30,1,0.999472,-0.00377036,0.0322688,5.13758e-05,-0.641986,-0.0810822,9.79617,0.0571897,-0.523155,1.00461,-0.00642141,-0.000820299,0.0979615,1,4.77936e-05,-7.96839e-06,8.82514e-06,0.00955873,-0.00159368,0.00176503,0.999472,-0.00377036,0.0322688,5.13758e-05,0.0648239,0.522332,-0.987159,29.625,1,26432,2693339
30,2,0.999472,-0.00377036,0.0322688,5.13758e-05,-0.641986,-0.0810822,9.79617,0.0571897,-0.523155,1.00461,-0.00642141,-0.000820299,0.0979615,1,4.77936e-05,-7.96839e-06,8.82514e-06,0.00955873,-0.00159368,0.00176503,0.999472,-0.00377036,0.0322688,5.13758e-05,0.0648239,0.522332,-0.987159,29.625,1,26432,2693339
30,3,0.999472,-0.00377036,0.0322688,5.13758e-05,-0.641986,-0.0810822,9.79617,0.0571897,-0.523155,1.00461,-0.00642141,-0.000820299,0.0979615,1,4.77936e-05,-7.96839e-06,8.82514e-06,0.00955873,-0.00159368,0.00176503,0.999472,-0.00377036,0.0322688,5.13758e-05,0.0648239,0.522332,-0.987159,29.625,1,26432,2693339
30,4,0.999472,-0.00373719,0.032258,7.05226e-05,-0.647085,-0.080597,9.79554,0.0500691,-0.515138,1.00063,-0.00647298,-0.000812765,0.0979552,1,3.33451e-05,-1.10176e-05,2.02619e-05,0.00666901,-0.00220351,0.00405237,0.999472,-0.00373719,0.032258,7.05226e-05,0.0634175,0.522317,-0.985637,29.625,1,26433,2693439
30,5,0.999472,-0.00373719,0.032258,7.05226e-05,-0.647085,-0.080597,9.79554,0.0500691,-0.515138,1.00063,-0.00647298,-0.000812765,0.0979552,1,3.33451e-05,-1.10176e-05,2.02619e-05,0.00666901,-0.00220351,0.00405237,0.999472,-0.00373719,0.032258,7.05226e-05,0.0634175,0.522317,-0.985637,29.625,1,26433,2693439
30,6,0.999472,-0.00373719,0.032258,7.05226e-05,-0.647085,-0.080597,9.79554,0.0500691,-0.515138,1.00063,-0.00647298,-0.000812765,0.0979552,1,3.33451e-05,-1.10176e-05,2.02619e-05,0.00666901,-0.00220351,0.00405237,0.999472,-0.00373719,0.032258,7.05226e-05,0.0634175,0.522317,-0.985637,29.625,1,26433,2693439
31,1,0.999473,-0.003696,0.0322419,9.40808e-05,-0.643233,-0.0917393,9.79541,0.0544752,-0.525192,0.999073,-0.00643548,-0.000925619,0.0979539,1,4.03559e-05,-1.6313e-05,2.48665e-05,0.00807119,-0.00326261,0.0049733,0.999473,-0.003696,0.0322419,9.40808e-05,0.0624187,0.523797,-0.986105,29.625,1,26434,2693539
31,2,0.999473,-0.003696,0.0322419,9.40808e-05,-0.643233,-0.0917393,9.79541,0.0544752,-0.525192,0.999073,-0.00643548,-0.000925619,0.0979539,1,4.03559e-05,-1.6313e-05,2.48665e-05,0.00807119,-0.00326261,0.0049733,0.999473,-0.003696,0.0322419,9.40808e-05,0.0624187,0.523797,-0.986105,29.625,1,26434,2693539
31,3,0.999473,-0.003696,0.0322419,9.40808e-05,-0.643233,-0.0917393,9.79541,0.0544752,-0.525192,0.999073,-0.00643548,-0.000925619,0.0979539,1,4.03559e-05,-1.6313e-05,2.48665e-05,0.00807119,-0.00326261,0.0049733,0.999473,-0.003696,0.0322419,9.40808e-05,0.0624187,0.523797,-0.986105,29.625,1,26434,2693539
31,4,0.999474,-0.00364967,0.0322298,0.00011003,-0.640274,-0.0827176,9.7853,0.0528003,-0.517617,0.988659,-0.0064051,-0.000836332,0.0978527,1,4.56181e-05,-1.22042e-05,1.78495e-05,0.00912361,-0.00244084,0.00356991,0.999474,-0.00364967,0.0322298,0.00011003,0.0632993,0.525776,-0.988085,29.625,1,26435,2693639
31,5,0.999474,-0.00364967,0.0322298,0.00011003,-0.640274,-0.0827176,9.7853,0.0528003,-0.517617,0.988659,-0.0064051,-0.000836332,0.0978527,1,4.56181e-05,-1.22042e-05,1.78495e-05,0.00912361,-0.00244084,0.00356991,0.999474,-0.00364967,0.0322298,0.00011003,0.0632993,0.525776,-0.988085,29.625,1,26435,2693639
31,6,0.999474,-0.00364967,0.0322298,0.00011003,-0.640274,-0.0827176,9.7853,0.0528003,-0.517617,0.988659,-0.0064051,-0.000836332,0.0978527,1,4.56181e-05,-1.22042e-05,1.78495e-05,0.00912361,-0.00244084,0.00356991,0.999474,-0.00364967,0.0322298,0.00011003,0.0632993,0.525776,-0.988085,29.625,1,26435,2693639
32,1,0.999474,-0.00359955,0.032226,0.00011529,-0.648248,-0.0783433,9.79216,0.0487225,-0.517936,0.997171,-0.00648318,-0.00079328,0.0979215,1,4.97792e-05,-3.67695e-06,7.54573e-06,0.00995583,-0.000735389,0.00150915,0.999474,-0.00359955,0.032226,0.00011529,0.0627812,0.525807,-0.989597,29.625,1,26436,2693739
32,2,0.999474,-0.00359955,0.032226,0.00011529,-0.648248,-0.0783433,9.79216,0.0487225,-0.517936,0.997171,-0.00648318,-0.00079328,0.0979215,1,4.97792e-05,-3.67695e-06,7.54573e-06,0.00995583,-0.000735389,0.00150915,0.999474,-0.00359955,0.032226,0.00011529,0.0627812,0.525807,-0.989597,29.625,1,26436,2693739
32,3,0.999474,-0.00359955,0.032226,0.00011529,-0.648248,-0.0783433,9.79216,0.0487225,-0.517936,0.997171,-0.00648318,-0.00079328,0.0979215,1,4.97792e-05,-3.67695e-06,7.54573e-06,0.00995583,-0.000735389,0.00150915,0.999474,-0.00359955,0.032226,0.00011529,0.0627812,0.525807,-0.989597,29.625,1,26436,2693739
32,4,0.999475,-0.00356003,0.0322061,0.000126536,-0.649058,-0.0778283,9.79151,0.0501976,-0.519233,0.998358,-0.00649459,-0.000785945,0.0979148,1,3.83537e-05,-2.06028e-05,1.16133e-05,0.00767075,-0.00412056,0.00232267,0.999475,-0.00356003,0.0322061,0.000126536,0.0618104,0.524858,-0.990624,29.625,1,26437,2693839
32,5,0.999475,-0.00356003,0.0322061,0.000126536,-0.649058,-0.0778283,9.79151,0.0501976,-0.519233,0.998358,-0.00649459,-0.000785945,0.0979148,1,3.83537e-05,-2.06028e-05,1.16133e-05,0.00767075,-0.00412056,0.00232267,0.999475,-0.00356003,0.0322061,0.000126536,0.0618104,0.524858,-0.990624,29.625,1,26437,2693839
32,6,0.999475,-0.00356003,0.0322061,0.000126536,-0.649058,-0.0778283,9.79151,0.0501976,-0.519233,0.998358,-0.00649459,-0.000785945,0.0979148,1,3.83537e-05,-2.06028e-05,1.16133e-05,0.00767075,-0.00412056,0.00232267,0.999475,-0.00356003,0.0322061,0.000126536,0.0618104,0.524858,-0.990624,29.625,1,26437,2693839
33,1,0.999475,-0.00351047,0.0322006,0.000151136,-0.637334,-0.0774689,9.78668,0.0609908,-0.520924,0.994585,-0.00637444,-0.00078448,0.0978666,1,4.8319e-05,-5.86895e-06,2.62111e-05,0.00966379,-0.00117379,0.00524222,0.999475,-0.00351047,0.0322006,0.000151136,0.063352,0.523328,-0.987635,29.625,1,26438,2693939
33,2,0.999475,-0.00351047,0.0322006,0.000151136,-0.637334,-0.0774689,9.78668,0.0609908,-0.520924,0.994585,-0.00637444,-0.00078448,0.0978666,1,4.8319e-05,-5.86895e-06,2.62111e-05,0.00966379,-0.00117379,0.00524222,0.999475,-0.00351047,0.0322006,0.000151136,0.063352,0.523328,-0.987635,29.625,1,26438,2693939
33,3,0.999475,-0.00351047,0.0322006,0.000151136,-0.637334,-0.0774689,9.78668,0.0609908,-0.520924,0.994585,-0.00637444,-0.00078448,0.0978666,1,4.8319e-05,-5.86895e-06,2.62111e-05,0.00966379,-0.00117379,0.00524222,0.999475,-0.00351047,0.0322006,0.000151136,0.063352,0.523328,-0.987635,29.625,1,26438,2693939
33,4,0.999475,-0.00347584,0.0321964,0.00017001,-0.640801,-0.0765577,9.78466,0.0580668,-0.521444,0.991101,-0.00640885,-0.000772517,0.0978465,1,3.41311e-05,-4.48496e-06,2.03159e-05,0.00682622,-0.000896992,0.00406318,0.999475,-0.00347584,0.0321964,0.00017001,0.0639072,0.52327,-0.984608,29.625,1,26439,2694039
33,5,0.999475,-0.00347584,0.0321964,0.00017001,-0.640801,-0.0765577,9.78466,0.0580668,-0.521444,0.991101,-0.00640885,-0.000772517,0.0978465,1,3.41311e-05,-4.48496e-06,2.03159e-05,0.00682622,-0.000896992,0.00406318,0.999475,-0.00347584,0.0321964,0.00017001,0.0639072,0.52327,-0.984608,29.625,1,26439,2694039
33,6,0.999475,-0.00347584,0.0321964,0.00017001,-0.640801,-0.0765577,9.78466,0.0580668,-0.521444,0.991101,-0.00640885,-0.000772517,0.0978465,1,3.41311e-05,-4.48496e-06,2.03159e-05,0.00682622,-0.000896992,0.00406318,0.999475,-0.00347584,0.0321964,0.00017001,0.0639072,0.52327,-0.984608,29.625,1,26439,2694039
34,1,0.999476,-0.00342595,0.0321924,0.000187805,-0.649181,-0.078465,9.79727,0.0493328,-0.522892,0.995904,-0.00649262,-0.000794449,0.0979725,1,4.87026e-05,-4.31043e-06,1.96881e-05,0.00974051,-0.000862087,0.00393763,0.999476,-0.00342595,0.0321924,0.000187805,0.0648656,0.524229,-0.984086,29.625,1,26440,2694139
34,2,0.999476,-0.00342595,0.0321924,0.000187805,-0.649181,-0.078465,9.79727,0.0493328,-0.522892,0.995904,-0.00649262,-0.000794449,0.0979725,1,4.87026e-05,-4.31043e-06,1.96881e-05,0.00974051,-0.000862087,0.00393763,0.999476,-0.00342595,0.0321924,0.000187805,0.0648656,0.524229,-0.984086,29.625,1,26440,2694139
34,3,0.999476,-0.00342595,0.0321924,0.000187805,-0.649181,-0.078465,9.79727,0.0493328,-0.522892,0.995904,-0.00649262,-0.000794449,0.0979725,1,4.87026e-05,-4.31043e-06,1.96881e-05,0.00974051,-0.000862087,0.00393763,0.999476,-0.00342595,0.0321924,0.000187805,0.0648656,0.524229,-0.984086,29.625,1,26440,2694139
34,4,0.999476,-0.00338821,0.0321838,0.000196095,-0.640616,-0.0821395,9.787,0.0533386,-0.528281,0.990617,-0.00640793,-0.000828848,0.0978699,1,3.74653e-05,-9.08218e-06,9.33161e-06,0.00749307,-0.00181644,0.00186632,0.999476,-0.00338821,0.0321838,0.000196095,0.0642862,0.52575,-0.98708,29.625,1,26441,2694239
34,5,0.999476,-0.00338821,0.0321838,0.000196095,-0.640616,-0.0821395,9.787,0.0533386,-0.528281,0.990617,-0.00640793,-0.000828848,0.0978699,1,3.74653e-05,-9.08218e-06,9.33161e-06,0.00749307,-0.00181644,0.00186632,0.999476,-0.00338821,0.0321838,0.000196095,0.0642862,0.52575,-0.98708,29.625,1,26441,2694239
34,6,0.999476,-0.00338821,0.0321838,0.000196095,-0.640616,-0.0821395,9.787,0.0533386,-0.528281,0.990617,-0.00640793,-0.000828848,0.0978699,1,3.74653e-05,-9.08218e-06,9.33161e-06,0.00749307,-0.00181644,0.00186632,0.999476,-0.00338821,0.0321838,0.000196095,0.0642862,0.52575,-0.98708,29.625,1,26441,2694239
35,1,0.999477,-0.00332685,0.0321733,0.00022389,-0.635915,-0.0763787,9.79278,0.0596817,-0.518975,0.990216,-0.00636127,-0.000776101,0.0979276,1,6.09327e-05,-1.10416e-05,2.98881e-05,0.0121865,-0.00220831,0.00597762,0.999477,-0.00332685,0.0321733,0.00022389,0.0632581,0.525324,-0.990115,29.625,1,26442,2694339
35,2,0.999477,-0.00332685,0.0321733,0.00022389,-0.635915,-0.0763787,9.79278,0.0596817,-0.518975,0.990216,-0.00636127,-0.000776101,0.0979276,1,6.09327e-05,-1.10416e-05,2.98881e-05,0.0121865,-0.00220831,0.00597762,0.999477,-0.00332685,0.0321733,0.00022389,0.0632581,0.525324,-0.990115,29.625,1,26442,2694339
35,3,0.999477,-0.00332685,0.0321733,0.00022389,-0.635915,-0.0763787,9.79278,0.0596817,-0.518975,0.990216,-0.00636127,-0.000776101,0.0979276,1,6.09327e-05,-1.10416e-05,2.98881e-05,0.0121865,-0.00220831,0.00597762,0.999477,-0.00332685,0.0321733,0.00022389,0.0632581,0.525324,-0.990115,29.625,1,26442,2694339
35,4,0.999477,-0.00328551,0.0321582,0.00023013,-0.642713,-0.0701514,9.79424,0.0497256,-0.516069,0.996196,-0.00643019,-0.000709737,0.0979421,1,4.14644e-05,-1.5661e-05,7.87718e-06,0.00829288,-0.0031322,0.00157544,0.999477,-0.00328551,0.0321582,0.00023013,0.0632699,0.52387,-0.990653,29.625,1,26443,2694439
35,5,0.999477,-0.00328551,0.0321582,0.00023013,-0.642713,-0.0701514,9.79424,0.0497256,-0.516069,0.996196,-0.00643019,-0.000709737,0.0979421,1,4.14644e-05,-1.5661e-05,7.87718e-06,0.00829288,-0.0031322,0.00157544,0.999477,-0.00328551,0.0321582,0.00023013,0.0632699,0.52387,-0.990653,29.625,1,26443,2694439
35,6,0.999477,-0.00328551,0.0321582,0.00023013,-0.642713,-0.0701514,9.79424,0.0497256,-0.516069,0.996196,-0.00643019,-0.000709737,0.0979421,1,4.14644e-05,-1.5661e-05,7.87718e-06,0.00829288,-0.0031322,0.00157544,0.999477,-0.00328551,0.0321582,0.00023013,0.0632699,0.52387,-0.990653,29.625,1,26443,2694439
36,1,0.999478,-0.00322906,0.032148,0.000243355,-0.636308,-0.0729711,9.7901,0.0586034,-0.524844,0.996397,-0.00636504,-0.000740857,0.0979008,1,5.58402e-05,-1.01253e-05,1.66875e-05,0.011168,-0.00202507,0.00333751,0.999478,-0.00322906,0.032148,0.000243355,0.063352,0.523328,-0.987635,29.625,1,26444,2694539
36,2,0.999478,-0.00322906,0.032148,0.000243355,-0.636308,-0.0729711,9.7901,0.0586034,-0.524844,0.996397,-0.00636504,-0.000740857,0.0979008,1,5.58402e-05,-1.01253e-05,1.66875e-05,0.011168,-0.00202507,0.00333751,0.999478,-0.00322906,0.032148,0.000243355,0.063352,0.523328,-0.987635,29.625,1,26444,2694539
36,3,0.999478,-0.00322906,0.032148,0.000243355,-0.636308,-0.0729711,9.7901,0.0586034,-0.524844,0.996397,-0.00636504,-0.000740857,0.0979008,1,5.58402e-05,-1.01253e-05,1.66875e-05,0.011168,-0.00202507,0.00333751,0.999478,-0.00322906,0.032148,0.000243355,0.063352,0.523328,-0.987635,29.625,1,26444,2694539
36,4,0.999478,-0.00318133,0.0321465,0.000262029,-0.642431,-0.0830402,9.78293,0.0552943,-0.535573,0.989932,-0.00642472,-0.000839794,0.0978291,1,4.67208e-05,-2.21469e-06,1.95483e-05,0.00934416,-0.000442939,0.00390966,0.999478,-0.00318133,0.0321465,0.000262029,0.063381,0.523789,-0.986109,29.625,1,26445,2694639
36,5,0.999478,-0.00318133,0.0321465,0.000262029,-0.642431,-0.0830402,9.78293,0.0552943,-0.535573,0.989932,-0.00642472,-0.000839794,0.0978291,1,4.67208e-05,-2.21469e-06,1.95483e-05,0.00934416,-0.000442939,0.00390966,0.999478,-0.00318133,0.0321465,0.000262029,0.063381,0.523789,-0.986109,29.625,1,26445,2694639
36,6,0.999478,-0.00318133,0.0321465,0.000262029,-0.642431,-0.0830402,9.78293,0.0552943,-0.535573,0.989932,-0.00642472,-0.000839794,0.0978291,1,4.67208e-05,-2.21469e-06,1.95483e-05,0.00934416,-0.000442939,0.00390966,0.999478,-0.00318133,0.0321465,0.000262029,0.063381,0.523789,-0.986109,29.625,1,26445,2694639
37,1,0.999478,-0.00313335,0.0321465,0.000285029,-0.645839,-0.0837381,9.7843,0.0491918,-0.532246,0.986937,-0.00645857,-0.000847031,0.0978429,1,4.77732e-05,-1.1006e-06,2.33947e-05,0.00955464,-0.00022012,0.00467894,0.999478,-0.00313335,0.0321465,0.000285029,0.0653424,0.523746,-0.984604,29.625,1,26446,2694739
37,2,0.999478,-0.00313335,0.0321465,0.000285029,-0.645839,-0.0837381,9.7843,0.0491918,-0.532246,0.986937,-0.00645857,-0.000847031,0.0978429,1,4.77732e-05,-1.1006e-06,2.33947e-05,0.00955464,-0.00022012,0.00467894,0.999478,-0.00313335,0.0321465,0.000285029,0.0653424,0.523746,-0.984604,29.625,1,26446,2694739
37,3,0.999478,-0.00313335,0.0321465,0.000285029,-0.645839,-0.0837381,9.7843,0.0491918,-0.532246,0.986937,-0.00645857,-0.000847031,0.0978429,1,4.77732e-05,-1.1006e-06,2.33947e-05,0.00955464,-0.00022012,0.00467894,0.999478,-0.00313335,0.0321465,0.000285029,0.0653424,0.523746,-0.984604,29.625,1,26446,2694739
37,4,0.999479,-0.00307275,0.0321327,0.000311064,-0.641495,-0.0914956,9.79609,0.0487668,-0.542728,0.996146,-0.00641775,-0.000926985,0.0979606,1,5.96028e-05,-1.4577e-05,2.74237e-05,0.0119206,-0.00291539,0.00548475,0.999479,-0.00307275,0.0321327,0.000311064,0.0647878,0.525249,-0.986589,29.625,1,26447,2694839
37,5,0.999479,-0.00307275,0.0321327,0.000311064,-0.641495,-0.0914956,9.79609,0.0487668,-0.542728,0.996146,-0.00641775,-0.000926985,0.0979606,1,5.96028e-05,-1.4577e-05,2.74237e-05,0.0119206,-0.00291539,0.00548475,0.999479,-0.00307275,0.0321327,0.000311064,0.0647878,0.525249,-0.986589,29.625,1,26447,2694839
37,6,0.999479,-0.00307275,0.0321327,0.000311064,-0.641495,-0.0914956,9.79609,0.0487668,-0.542728,0.996146,-0.00641775,-0.000926985,0.0979606,1,5.96028e-05,-1.4577e-05,2.74237e-05,0.0119206,-0.00291539,0.00548475,0.999479,-0.00307275,0.0321327,0.000311064,0.0647878,0.525249,-0.986589,29.625,1,26447,2694839
38,1,0.999479,-0.00302665,0.0321206,0.000330418,-0.63721,-0.0796952,9.79446,0.0571009,-0.530673,0.992778,-0.00637456,-0.000806348,0.0979443,1,4.65978e-05,-1.27815e-05,2.10255e-05,0.00931956,-0.0025563,0.0042051,0.999479,-0.00302665,0.0321206,0.000330418,0.0637923,0.524318,-0.988625,29.625,1,26448,2694939
38,2,0.999479,-0.00302665,0.0321206,0.000330418,-0.63721,-0.0796952,9.79446,0.0571009,-0.530673,0.992778,-0.00637456,-0.000806348,0.0979443,1,4.65978e-05,-1.27815e-05,2.10255e-05,0.00931956,-0.0025563,0.0042051,0.999479,-0.00302665,0.0321206,0.000330418,0.0637923,0.524318,-0.988625,29.625,1,26448,2694939
38,3,0.999479,-0.00302665,0.0321206,0.000330418,-0.63721,-0.0796952,9.79446,0.0571009,-0.530673,0.992778,-0.00637456,-0.000806348,0.0979443,1,4.65978e-05,-1.27815e-05,2.10255e-05,0.00931956,-0.0025563,0.0042051,0.999479,-0.00302665,0.0321206,0.000330418,0.0637923,0.524318,-0.988625,29.625,1,26448,2694939
38,4,0.99948,-0.00297052,0.0321061,0.00034282,-0.636554,-0.0774272,9.78396,0.0572722,-0.531938,0.984835,-0.00636849,-0.000785551,0.0978394,1,5.67177e-05,-1.51801e-05,1.42042e-05,0.0113435,-0.00303602,0.00284085,0.99948,-0.00297052,0.0321061,0.00034282,0.0632908,0.524819,-0.989116,29.625,1,26449,2695039
38,5,0.99948,-0.00297052,0.0321061,0.00034282,-0.636554,-0.0774272,9.78396,0.0572722,-0.531938,0.984835,-0.00636849,-0.000785551,0.0978394,1,5.67177e-05,-1.51801e-05,1.42042e-05,0.0113435,-0.00303602,0.00284085,0.99948,-0.00297052,0.0321061,0.00034282,0.0632908,0.524819,-0.989116,29.625,1,26449,2695039
38,6,0.99948,-0.00297052,0.0321061,0.00034282,-0.636554,-0.0774272,9.78396,0.0572722,-0.531938,0.984835,-0.00636849,-0.000785551,0.0978394,1,5.67177e-05,-1.51801e-05,1.42042e-05,0.0113435,-0.00303602,0.00284085,0.99948,-0.00297052,0.0321061,0.00034282,0.0632908,0.524819,-0.989116,29.625,1,26449,2695039
38,7,0.99948,-0.00290102,0.0321072,0.000364947,-0.651505,-0.0924933,9.788,0.0422097,-0.549131,0.997193,-0.00651497,-0.000938728,0.0978799,1,6.88622e-05,1.71686e-07,2.40836e-05,0.0137724,3.43373e-05,0.00481671,0.99948,-0.00290102,0.0321072,0.000364947,0.0638255,0.525257,-0.986584,29.625,1,26450,2695139
38,8,0.99948,-0.00290102,0.0321072,0.000364947,-0.651505,-0.0924933,9.788,0.0422097,-0.549131,0.997193,-0.00651497,-0.000938728,0.0978799,1,6.88622e-05,1.71686e-07,2.40836e-05,0.0137724,3.43373e-05,0.00481671,0.99948,-0.00290102,0.0321072,0.000364947,0.0638255,0.525257,-0.986584,29.625,1,26450,2695139
38,9,0.99948,-0.00290102,0.0321072,0.000364947,-0.651505,-0.0924933,9.788,0.0422097,-0.549131,0.997193,-0.00651497,-0.000938728,0.0978799,1,6.88622e-05,1.71686e-07,2.40836e-05,0.0137724,3.43373e-05,0.00481671,0.99948,-0.00290102,0.0321072,0.000364947,0.0638255,0.525257,-0.986584,29.625,1,26450,2695139
38,10,0.999481,-0.00285535,0.0320952,0.000364088,-0.638294,-0.0758966,9.79314,0.0578807,-0.533133,0.997006,-0.00638536,-0.00076805,0.0979312,1,4.62682e-05,-1.23752e-05,1.69131e-06,0.00925363,-0.00247505,0.000338262,0.999481,-0.00285535,0.0320952,0.000364088,0.0638787,0.524255,-0.985091,29.625,1,26451,2695239
38,11,0.999481,-0.00285535,0.0320952,0.000364088,-0.638294,-0.0758966,9.79314,0.0578807,-0.533133,0.997006,-0.00638536,-0.00076805,0.0979312,1,4.62682e-05,-1.23752e-05,1.69131e-06,0.00925363,-0.00247505,0.000338262,0.999481,-0.00285535,0.0320952,0.000364088,0.0638787,0.524255,-0.985091,29.625,1,26451,2695239
38,12,0.999481,-0.00285535,0.0320952,0.000364088,-0.638294,-0.0758966,9.79314,0.0578807,-0.533133,0.997006,-0.00638536,-0.00076805,0.0979312,1,4.62682e-05,-1.23752e-05,1.69131e-06,0.00925363,-0.00247505,0.000338262,0.999481,-0.00285535,0.0320952,0.000364088,0.0638787,0.524255,-0.985091,29.625,1,26451,2695239
39,1,0.999481,-0.00281433,0.0320754,0.000377131,-0.627023,-0.0712814,9.78667,0.0695068,-0.531584,0.984697,-0.00627425,-0.000721167,0.0978663,1,4.17438e-05,-2.06716e-05,1.45304e-05,0.00834875,-0.00413433,0.00290609,0.999481,-0.00281433,0.0320754,0.000377131,0.0667939,0.523246,-0.984622,29.625,1,26452,2695339
39,2,0.999481,-0.00281433,0.0320754,0.000377131,-0.627023,-0.0712814,9.78667,0.0695068,-0.531584,0.984697,-0.00627425,-0.000721167,0.0978663,1,4.17438e-05,-2.06716e-05,1.45304e-05,0.00834875,-0.00413433,0.00290609,0.999481,-0.00281433,0.0320754,0.000377131,0.0667939,0.523246,-0.984622,29.625,1,26452,2695339
39,3,0.999481,-0.00281433,0.0320754,0.000377131,-0.627023,-0.0712814,9.78667,0.0695068,-0.531584,0.984697,-0.00627425,-0.000721167,0.0978663,1,4.17438e-05,-2.06716e-05,1.45304e-05,0.00834875,-0.00413433,0.00290609,0.999481,-0.00281433,0.0320754,0.000377131,0.0667939,0.523246,-0.984622,29.625,1,26452,2695339
39,4,0.999482,-0.00275924,0.0320545,0.000404131,-0.635101,-0.0771764,9.79515,0.0579826,-0.531833,0.994802,-0.00635523,-0.000782999,0.0979512,1,5.54697e-05,-2.17741e-05,2.90256e-05,0.0110939,-0.00435482,0.00580511,0.999482,-0.00275924,0.0320545,0.000404131,0.0662596,0.524253,-0.986112,29.625,1,26453,2695439
39,5,0.999482,-0.00275924,0.0320545,0.000404131,-0.635101,-0.0771764,9.79515,0.0579826,-0.531833,0.994802,-0.00635523,-0.000782999,0.0979512,1,5.54697e-05,-2.17741e-05,2.90256e-05,0.0110939,-0.00435482,0.00580511,0.999482,-0.00275924,0.0320545,0.000404131,0.0662596,0.524253,-0.986112,29.625,1,26453,2695439
39,6,0.999482,-0.00275924,0.0320545,0.000404131,-0.635101,-0.0771764,9.79515,0.0579826,-0.531833,0.994802,-0.00635523,-0.000782999,0.0979512,1,5.54697e-05,-2.17741e-05,2.90256e-05,0.0110939,-0.00435482,0.00580511,0.999482,-0.00275924,0.0320545,0.000404131,0.0662596,0.524253,-0.986112,29.625,1,26453,2695439
40,1,0.999483,-0.0027063,0.0320373,0.000420972,-0.628092,-0.0807364,9.78116,0.0590835,-0.540888,0.985446,-0.00628439,-0.000817873,0.0978113,1,5.25098e-05,-1.78945e-05,1.88502e-05,0.010502,-0.00357889,0.00377003,0.999483,-0.0027063,0.0320373,0.000420972,0.0642573,0.525289,-0.988605,29.625,1,26454,2695539
40,2,0.999483,-0.0027063,0.0320373,0.000420972,-0.628092,-0.0807364,9.78116,0.0590835,-0.540888,0.985446,-0.00628439,-0.000817873,0.0978113,1,5.25098e-05,-1.78945e-05,1.88502e-05,0.010502,-0.00357889,0.00377003,0.999483,-0.0027063,0.0320373,0.000420972,0.0642573,0.525289,-0.988605,29.625,1,26454,2695539
40,3,0.999483,-0.0027063,0.0320373,0.000420972,-0.628092,-0.0807364,9.78116,0.0590835,-0.540888,0.985446,-0.00628439,-0.000817873,0.0978113,1,5.25098e-05,-1.78945e-05,1.88502e-05,0.010502,-0.00357889,0.00377003,0.999483,-0.0027063,0.0320373,0.000420972,0.0642573,0.525289,-0.988605,29.625,1,26454,2695539
40,4,0.999483,-0.00265804,0.0320435,0.000442729,-0.637406,-0.083454,9.79001,0.0578001,-0.542167,0.989331,-0.00637299,-0.000844243,0.0979001,1,4.80451e-05,5.26526e-06,2.32627e-05,0.00960901,0.00105305,0.00465254,0.999483,-0.00265804,0.0320435,0.000442729,0.0637392,0.52532,-0.990117,29.625,1,26455,2695639
40,5,0.999483,-0.00265804,0.0320435,0.000442729,-0.637406,-0.083454,9.79001,0.0578001,-0.542167,0.989331,-0.00637299,-0.000844243,0.0979001,1,4.80451e-05,5.26526e-06,2.32627e-05,0.00960901,0.00105305,0.00465254,0.999483,-0.00265804,0.0320435,0.000442729,0.0637392,0.52532,-0.990117,29.625,1,26455,2695639
40,6,0.999483,-0.00265804,0.0320435,0.000442729,-0.637406,-0.083454,9.79001,0.0578001,-0.542167,0.989331,-0.00637299,-0.000844243,0.0979001,1,4.80451e-05,5.26526e-06,2.32627e-05,0.00960901,0.00105305,0.00465254,0.999483,-0.00265804,0.0320435,0.000442729,0.0637392,0.52532,-0.990117,29.625,1,26455,2695639
41,1,0.999483,-0.00261787,0.0320506,0.000452616,-0.638577,-0.0802667,9.77681,0.0522598,-0.545798,0.979306,-0.00638453,-0.000810817,0.0977681,1,4.09483e-05,6.23818e-06,1.12095e-05,0.00818967,0.00124764,0.00224191,0.999483,-0.00261787,0.0320506,0.000452616,0.0638123,0.522376,-0.989173,29.625,1,26456,2695739
41,2,0.999483,-0.00261787,0.0320506,0.000452616,-0.638577,-0.0802667,9.77681,0.0522598,-0.545798,0.979306,-0.00638453,-0.000810817,0.0977681,1,4.09483e-05,6.23818e-06,1.12095e-05,0.00818967,0.00124764,0.00224191,0.999483,-0.00261787,0.0320506,0.000452616,0.0638123,0.522376,-0.989173,29.625,1,26456,2695739
41,3,0.999483,-0.00261787,0.0320506,0.000452616,-0.638577,-0.0802667,9.77681,0.0522598,-0.545798,0.979306,-0.00638453,-0.000810817,0.0977681,1,4.09483e-05,6.23818e-06,1.12095e-05,0.00818967,0.00124764,0.00224191,0.999483,-0.00261787,0.0320506,0.000452616,0.0638123,0.522376,-0.989173,29.625,1,26456,2695739
41,4,0.999483,-0.00259432,0.0320421,0.000463182,-0.634931,-0.0889359,9.78248,0.0582737,-0.554577,0.984161,-0.00635112,-0.000894189,0.0978247,1,2.38827e-05,-9.34308e-06,1.23905e-05,0.00477654,-0.00186862,0.0024781,0.999483,-0.00259432,0.0320421,0.000463182,0.0634256,0.521829,-0.985648,29.625,1,26457,2695839
41,5,0.999483,-0.00259432,0.0320421,0.000463182,-0.634931,-0.0889359,9.78248,0.0582737,-0.554577,0.984161,-0.00635112,-0.000894189,0.0978247,1,2.38827e-05,-9.34308e-06,1.23905e-05,0.00477654,-0.00186862,0.0024781,0.999483,-0.00259432,0.0320421,0.000463182,0.0634256,0.521829,-0.985648,29.625,1,26457,2695839
41,6,0.999483,-0.00259432,0.0320421,0.000463182,-0.634931,-0.0889359,9.78248,0.0582737,-0.554577,0.984161,-0.00635112,-0.000894189,0.0978247,1,2.38827e-05,-9.34308e-06,1.23905e-05,0.00477654,-0.00186862,0.0024781,0.999483,-0.00259432,0.0320421,0.000463182,0.0634256,0.521829,-0.985648,29.625,1,26457,2695839
42,1,0.999484,-0.00255202,0.0320303,0.00047745,-0.644345,-0.0896126,9.78899,0.0497964,-0.553182,0.988057,-0.00644595,-0.000904793,0.0978897,1,4.32413e-05,-1.2867e-05,1.55812e-05,0.00864826,-0.00257341,0.00311623,0.999484,-0.00255202,0.0320303,0.00047745,0.0644253,0.523239,-0.983096,29.625,1,26458,2695939
42,2,0.999484,-0.00255202,0.0320303,0.00047745,-0.644345,-0.0896126,9.78899,0.0497964,-0.553182,0.988057,-0.00644595,-0.000904793,0.0978897,1,4.32413e-05,-1.2867e-05,1.55812e-05,0.00864826,-0.00257341,0.00311623,0.999484,-0.00255202,0.0320303,0.00047745,0.0644253,0.523239,-0.983096,29.625,1,26458,2695939
42,3,0.999484,-0.00255202,0.0320303,0.00047745,-0.644345,-0.0896126,9.78899,0.0497964,-0.553182,0.988057,-0.00644595,-0.000904793,0.0978897,1,4.32413e-05,-1.2867e-05,1.55812e-05,0.00864826,-0.00257341,0.00311623,0.999484,-0.00255202,0.0320303,0.00047745,0.0644253,0.523239,-0.983096,29.625,1,26458,2695939
42,4,0.999484,-0.00250675,0.0320323,0.000498537,-0.635955,-0.0918357,9.78247,0.0573897,-0.558444,0.983549,-0.00635932,-0.000927501,0.0978246,1,4.52623e-05,9.78104e-07,2.26851e-05,0.00905246,0.000195621,0.00453702,0.999484,-0.00250675,0.0320323,0.000498537,0.0652812,0.525236,-0.986086,29.625,1,26459,2696039
42,5,0.999484,-0.00250675,0.0320323,0.000498537,-0.635955,-0.0918357,9.78247,0.0573897,-0.558444,0.983549,-0.00635932,-0.000927501,0.0978246,1,4.52623e-05,9.78104e-07,2.26851e-05,0.00905246,0.000195621,0.00453702,0.999484,-0.00250675,0.0320323,0.000498537,0.0652812,0.525236,-0.986086,29.625,1,26459,2696039
42,6,0.999484,-0.00250675,0.0320323,0.000498537,-0.635955,-0.0918357,9.78247,0.0573897,-0.558444,0.983549,-0.00635932,-0.000927501,0.0978246,1,4.52623e-05,9.78104e-07,2.26851e-05,0.00905246,0.000195621,0.00453702,0.999484,-0.00250675,0.0320323,0.000498537,0.0652812,0.525236,-0.986086,29.625,1,26459,2696039
43,1,0.999484,-0.00246044,0.0320205,0.000507007,-0.638879,-0.0847898,9.79205,0.0590963,-0.548781,0.989388,-0.00639128,-0.00085734,0.0979202,1,4.75458e-05,-1.28059e-05,1.02501e-05,0.00950917,-0.00256118,0.00205001,0.999484,-0.00246044,0.0320205,0.000507007,0.066178,0.52624,-0.988088,29.625,1,26460,2696139
43,2,0.999484,-0.00246044,0.0320205,0.000507007,-0.638879,-0.0847898,9.79205,0.0590963,-0.548781,0.989388,-0.00639128,-0.00085734,0.0979202,1,4.75458e-05,-1.28059e-05,1.02501e-05,0.00950917,-0.00256118,0.00205001,0.999484,-0.00246044,0.0320205,0.000507007,0.066178,0.52624,-0.988088,29.625,1,26460,2696139
43,3,0.999484,-0.00246044,0.0320205,0.000507007,-0.638879,-0.0847898,9.79205,0.0590963,-0.548781,0.989388,-0.00639128,-0.00085734,0.0979202,1,4.75458e-05,-1.28059e-05,1.02501e-05,0.00950917,-0.00256118,0.00205001,0.999484,-0.00246044,0.0320205,0.000507007,0.066178,0.52624,-0.988088,29.625,1,26460,2696139
43,4,0.999484,-0.00241358,0.0320163,0.000517743,-0.641353,-0.082111,9.79548,0.0449957,-0.555221,0.997654,-0.0064146,-0.000830831,0.0979546,1,4.87715e-05,-5.56039e-06,1.29211e-05,0.00975429,-0.00111208,0.00258422,0.999484,-0.00241358,0.0320163,0.000517743,0.0656926,0.525765,-0.988602,29.625,1,26461,2696239
43,5,0.999484,-0.00241358,0.0320163,0.000517743,-0.641353,-0.082111,9.79548,0.0449957,-0.555221,0.997654,-0.0064146,-0.000830831,0.0979546,1,4.87715e-05,-5.56039e-06,1.29211e-05,0.00975429,-0.00111208,0.00258422,0.999484,-0.00241358,0.0320163,0.000517743,0.0656926,0.525765,-0.988602,29.625,1,26461,2696239
43,6,0.999484,-0.00241358,0.0320163,0.000517743,-0.641353,-0.082111,9.79548,0.0449957,-0.555221,0.997654,-0.0064146,-0.000830831,0.0979546,1,4.87715e-05,-5.56039e-06,1.29211e-05,0.00975429,-0.00111208,0.00258422,0.999484,-0.00241358,0.0320163,0.000517743,0.0656926,0.525765,-0.988602,29.625,1,26461,2696239
44,1,0.999485,-0.00236879,0.0320124,0.000530684,-0.637667,-0.0812555,9.78325,0.04995,-0.553456,0.989028,-0.00637759,-0.000821732,0.0978324,1,4.58416e-05,-4.86341e-06,1.62831e-05,0.00916832,-0.000972682,0.00325661,0.999485,-0.00236879,0.0320124,0.000530684,0.0647669,0.524301,-0.988125,29.625,1,26462,2696339
44,2,0.999485,-0.00236879,0.0320124,0.000530684,-0.637667,-0.0812555,9.78325,0.04995,-0.553456,0.989028,-0.00637759,-0.000821732,0.0978324,1,4.58416e-05,-4.86341e-06,1.62831e-05,0.00916832,-0.000972682,0.00325661,0.999485,-0.00236879,0.0320124,0.000530684,0.0647669,0.524301,-0.988125,29.625,1,26462,2696339
44,3,0.999485,-0.00236879,0.0320124,0.000530684,-0.637667,-0.0812555,9.78325,0.04995,-0.553456,0.989028,-0.00637759,-0.000821732,0.0978324,1,4.58416e-05,-4.86341e-06,1.62831e-05,0.00916832,-0.000972682,0.00325661,0.999485,-0.00236879,0.0320124,0.000530684,0.0647669,0.524301,-0.988125,29.625,1,26462,2696339
44,4,0.999485,-0.00231262,0.03201,0.000542984,-0.646133,-0.0898667,9.78594,0.0423756,-0.558416,0.986946,-0.00646202,-0.00091012,0.0978593,1,5.7565e-05,-3.65101e-06,1.44542e-05,0.011513,-0.000730202,0.00289084,0.999485,-0.00231262,0.03201,0.000542984,0.0638621,0.523785,-0.986112,29.625,1,26463,2696439
44,5,0.999485,-0.00231262,0.03201,0.000542984,-0.646133,-0.0898667,9.78594,0.0423756,-0.558416,0.986946,-0.00646202,-0.00091012,0.0978593,1,5.7565e-05,-3.65101e-06,1.44542e-05,0.011513,-0.000730202,0.00289084,0.999485,-0.00231262,0.03201,0.000542984,0.0638621,0.523785,-0.986112,29.625,1,26463,2696439
44,6,0.999485,-0.00231262,0.03201,0.000542984,-0.646133,-0.0898667,9.78594,0.0423756,-0.558416,0.986946,-0.00646202,-0.00091012,0.0978593,1,5.7565e-05,-3.65101e-06,1.44542e-05,0.011513,-0.000730202,0.00289084,0.999485,-0.00231262,0.03201,0.000542984,0.0638621,0.523785,-0.986112,29.625,1,26463,2696439
45,1,0.999485,-0.00227812,0.0320024,0.000563172,-0.647122,-0.083913,9.78872,0.042061,-0.553533,0.990472,-0.0064729,-0.000846506,0.0978871,1,3.62285e-05,-8.74729e-06,2.19084e-05,0.00724569,-0.00174946,0.00438168,0.999485,-0.00227812,0.0320024,0.000563172,0.0643883,0.523266,-0.984611,29.625,1,26464,2696539
45,2,0.999485,-0.00227812,0.0320024,0.000563172,-0.647122,-0.083913,9.78872,0.042061,-0.553533,0.990472,-0.0064729,-0.000846506,0.0978871,1,3.62285e-05,-8.74729e-06,2.19084e-05,0.00724569,-0.00174946,0.00438168,0.999485,-0.00227812,0.0320024,0.000563172,0.0643883,0.523266,-0.984611,29.625,1,26464,2696539
45,3,0.999485,-0.00227812,0.0320024,0.000563172,-0.647122,-0.083913,9.78872,0.042061,-0.553533,0.990472,-0.0064729,-0.000846506,0.0978871,1,3.62285e-05,-8.74729e-06,2.19084e-05,0.00724569,-0.00174946,0.00438168,0.999485,-0.00227812,0.0320024,0.000563172,0.0643883,0.523266,-0.984611,29.625,1,26464,2696539
45,4,0.999485,-0.00224092,0.0319963,0.000584489,-0.639206,-0.0905856,9.78624,0.0518568,-0.563358,0.987619,-0.00639346,-0.000913877,0.0978622,1,3.94976e-05,-7.35909e-06,2.27129e-05,0.00789951,-0.00147182,0.00454258,0.999485,-0.00224092,0.0319963,0.000584489,0.0648044,0.525719,-0.985568,29.625,1,26465,2696639
45,5,0.999485,-0.00224092,0.0319963,0.000584489,-0.639206,-0.0905856,9.78624,0.0518568,-0.563358,0.987619,-0.00639346,-0.000913877,0.0978622,1,3.94976e-05,-7.35909e-06,2.27129e-05,0.00789951,-0.00147182,0.00454258,0.999485,-0.00224092,0.0319963,0.000584489,0.0648044,0.525719,-0.985568,29.625,1,26465,2696639
45,6,0.999485,-0.00224092,0.0319963,0.000584489,-0.639206,-0.0905856,9.78624,0.0518568,-0.563358,0.987619,-0.00639346,-0.000913877,0.0978622,1,3.94976e-05,-7.35909e-06,2.27129e-05,0.00789951,-0.00147182,0.00454258,0.999485,-0.00224092,0.0319963,0.000584489,0.0648044,0.525719,-0.985568,29.625,1,26465,2696639
46,1,0.999486,-0.00220148,0.0319921,0.000597129,-0.644342,-0.0862861,9.79445,0.0488014,-0.557897,0.990265,-0.00644453,-0.000871314,0.0979444,1,4.21741e-05,-5.77982e-06,1.48153e-05,0.00843482,-0.00115596,0.00296306,0.999486,-0.00220148,0.0319921,0.000597129,0.065713,0.525268,-0.988108,29.625,1,26466,2696739
46,2,0.999486,-0.00220148,0.0319921,0.000597129,-0.644342,-0.0862861,9.79445,0.0488014,-0.557897,0.990265,-0.00644453,-0.000871314,0.0979444,1,4.21741e-05,-5.77982e-06,1.48153e-05,0.00843482,-0.00115596,0.00296306,0.999486,-0.00220148,0.0319921,0.000597129,0.065713,0.525268,-0.988108,29.625,1,26466,2696739
46,3,0.999486,-0.00220148,0.0319921,0.000597129,-0.644342,-0.0862861,9.79445,0.0488014,-0.557897,0.990265,-0.00644453,-0.000871314,0.0979444,1,4.21741e-05,-5.77982e-06,1.48153e-05,0.00843482,-0.00115596,0.00296306,0.999486,-0.00220148,0.0319921,0.000597129,0.065713,0.525268,-0.988108,29.625,1,26466,2696739
46,4,0.999486,-0.00215414,0.0319864,0.000613432,-0.639319,-0.0826776,9.78664,0.0507185,-0.560069,0.987201,-0.00639458,-0.000836833,0.0978662,1,5.01723e-05,-7.26429e-06,1.84457e-05,0.0100345,-0.00145286,0.00368913,0.999486,-0.00215414,0.0319864,0.000613432,0.0647218,0.524816,-0.989628,29.625,1,26467,2696839
46,5,0.999486,-0.00215414,0.0319864,0.000613432,-0.639319,-0.0826776,9.78664,0.0507185,-0.560069,0.987201,-0.00639458,-0.000836833,0.0978662,1,5.01723e-05,-7.26429e-06,1.84457e-05,0.0100345,-0.00145286,0.00368913,0.999486,-0.00215414,0.0319864,0.000613432,0.0647218,0.524816,-0.989628,29.625,1,26467,2696839
46,6,0.999486,-0.00215414,0.0319864,0.000613432,-0.639319,-0.0826776,9.78664,0.0507185,-0.560069,0.987201,-0.00639458,-0.000836833,0.0978662,1,5.01723e-05,-7.26429e-06,1.84457e-05,0.0100345,-0.00145286,0.00368913,0.999486,-0.00215414,0.0319864,0.000613432,0.0647218,0.524816,-0.989628,29.625,1,26467,2696839
47,1,0.999486,-0.00211824,0.0319863,0.000638558,-0.630953,-0.0735601,9.79616,0.0572456,-0.55009,0.994121,-0.00630986,-0.000743556,0.0979615,1,3.88826e-05,-1.90743e-06,2.6759e-05,0.00777651,-0.000381487,0.00535179,0.999486,-0.00211824,0.0319863,0.000638558,0.0643266,0.523311,-0.987135,29.625,1,26468,2696939
47,2,0.999486,-0.00211824,0.0319863,0.000638558,-0.630953,-0.0735601,9.79616,0.0572456,-0.55009,0.994121,-0.00630986,-0.000743556,0.0979615,1,3.88826e-05,-1.90743e-06,2.6759e-05,0.00777651,-0.000381487,0.00535179,0.999486,-0.00211824,0.0319863,0.000638558,0.0643266,0.523311,-0.987135,29.625,1,26468,2696939
47,3,0.999486,-0.00211824,0.0319863,0.000638558,-0.630953,-0.0735601,9.79616,0.0572456,-0.55009,0.994121,-0.00630986,-0.000743556,0.0979615,1,3.88826e-05,-1.90743e-06,2.6759e-05,0.00777651,-0.000381487,0.00535179,0.999486,-0.00211824,0.0319863,0.000638558,0.0643266,0.523311,-0.987135,29.625,1,26468,2696939
47,4,0.999486,-0.00207569,0.0319778,0.000661158,-0.633188,-0.0860956,9.78522,0.0570288,-0.564467,0.988375,-0.00633371,-0.000870055,0.097852,1,4.49009e-05,-9.58716e-06,2.45628e-05,0.00898017,-0.00191743,0.00491256,0.999486,-0.00207569,0.0319778,0.000661158,0.0638986,0.522313,-0.98564,29.625,1,26469,2697039
47,5,0.999486,-0.00207569,0.0319778,0.000661158,-0.633188,-0.0860956,9.78522,0.0570288,-0.564467,0.988375,-0.00633371,-0.000870055,0.097852,1,4.49009e-05,-9.58716e-06,2.45628e-05,0.00898017,-0.00191743,0.00491256,0.999486,-0.00207569,0.0319778,0.000661158,0.0638986,0.522313,-0.98564,29.625,1,26469,2697039
47,6,0.999486,-0.00207569,0.0319778,0.000661158,-0.633188,-0.0860956,9.78522,0.0570288,-0.564467,0.988375,-0.00633371,-0.000870055,0.097852,1,4.49009e-05,-9.58716e-06,2.45628e-05,0.00898017,-0.00191743,0.00491256,0.999486,-0.00207569,0.0319778,0.000661158,0.0638986,0.522313,-0.98564,29.625,1,26469,2697039
48,1,0.999486,-0.00204094,0.0319742,0.000677528,-0.644157,-0.0774406,9.78909,0.0474627,-0.553647,0.99136,-0.00644246,-0.000781897,0.0978908,1,3.70741e-05,-4.69212e-06,1.80192e-05,0.00741482,-0.000938424,0.00360385,0.999486,-0.00204094,0.0319742,0.000677528,0.0653339,0.522788,-0.985636,29.625,1,26470,2697139
48,2,0.999486,-0.00204094,0.0319742,0.000677528,-0.644157,-0.0774406,9.78909,0.0474627,-0.553647,0.99136,-0.00644246,-0.000781897,0.0978908,1,3.70741e-05,-4.69212e-06,1.80192e-05,0.00741482,-0.000938424,0.00360385,0.999486,-0.00204094,0.0319742,0.000677528,0.0653339,0.522788,-0.985636,29.625,1,26470,2697139
48,3,0.999486,-0.00204094,0.0319742,0.000677528,-0.644157,-0.0774406,9.78909,0.0474627,-0.553647,0.99136,-0.00644246,-0.000781897,0.0978908,1,3.70741e-05,-4.69212e-06,1.80192e-05,0.00741482,-0.000938424,0.00360385,0.999486,-0.00204094,0.0319742,0.000677528,0.0653339,0.522788,-0.985636,29.625,1,26470,2697139
48,4,0.999487,-0.00198978,0.031962,0.000695298,-0.646071,-0.0782991,9.7942,0.0469457,-0.5585,0.992533,-0.00646342,-0.000793861,0.0979417,1,5.40186e-05,-1.40292e-05,2.23053e-05,0.0108037,-0.00280584,0.00446105,0.999487,-0.00198978,0.031962,0.000695298,0.0652727,0.524279,-0.987117,29.625,1,26471,2697239
48,5,0.999487,-0.00198978,0.031962,0.000695298,-0.646071,-0.0782991,9.7942,0.0469457,-0.5585,0.992533,-0.00646342,-0.000793861,0.0979417,1,5.40186e-05,-1.40292e-05,2.23053e-05,0.0108037,-0.00280584,0.00446105,0.999487,-0.00198978,0.031962,0.000695298,0.0652727,0.524279,-0.987117,29.625,1,26471,2697239
48,6,0.999487,-0.00198978,0.031962,0.000695298,-0.646071,-0.0782991,9.7942,0.0469457,-0.5585,0.992533,-0.00646342,-0.000793861,0.0979417,1,5.40186e-05,-1.40292e-05,2.23053e-05,0.0108037,-0.00280584,0.00446105,0.999487,-0.00198978,0.031962,0.000695298,0.0652727,0.524279,-0.987117,29.625,1,26471,2697239
49,1,0.999487,-0.0019458,0.0319539,0.000694332,-0.63719,-0.0844294,9.79544,0.0527977,-0.563251,0.995831,-0.0063737,-0.000853831,0.0979542,1,4.85759e-05,-9.21841e-06,1.60557e-06,0.00971518,-0.00184368,0.000321114,0.999487,-0.0019458,0.0319539,0.000694332,0.0657045,0.524311,-0.989139,29.625,1,26472,2697339
49,2,0.999487,-0.0019458,0.0319539,0.000694332,-0.63719,-0.0844294,9.79544,0.0527977,-0.563251,0.995831,-0.0063737,-0.000853831,0.0979542,1,4.85759e-05,-9.21841e-06,1.60557e-06,0.00971518,-0.00184368,0.000321114,0.999487,-0.0019458,0.0319539,0.000694332,0.0657045,0.524311,-0.989139,29.625,1,26472,2697339
49,3,0.999487,-0.0019458,0.0319539,0.000694332,-0.63719,-0.0844294,9.79544,0.0527977,-0.563251,0.995831,-0.0063737,-0.000853831,0.0979542,1,4.85759e-05,-9.21841e-06,1.60557e-06,0.00971518,-0.00184368,0.000321114,0.999487,-0.0019458,0.0319539,0.000694332,0.0657045,0.524311,-0.989139,29.625,1,26472,2697339
49,4,0.999488,-0.00191684,0.0319389,0.000716828,-0.633225,-0.0762279,9.7792,0.0535203,-0.556328,0.979272,-0.00633545,-0.000769226,0.0977917,1,3.39709e-05,-1.65851e-05,2.38995e-05,0.00679419,-0.00331702,0.0047799,0.999488,-0.00191684,0.0319389,0.000716828,0.0647337,0.523361,-0.990166,29.625,1,26473,2697439
49,5,0.999488,-0.00191684,0.0319389,0.000716828,-0.633225,-0.0762279,9.7792,0.0535203,-0.556328,0.979272,-0.00633545,-0.000769226,0.0977917,1,3.39709e-05,-1.65851e-05,2.38995e-05,0.00679419,-0.00331702,0.0047799,0.999488,-0.00191684,0.0319389,0.000716828,0.0647337,0.523361,-0.990166,29.625,1,26473,2697439
49,6,0.999488,-0.00191684,0.0319389,0.000716828,-0.633225,-0.0762279,9.7792,0.0535203,-0.556328,0.979272,-0.00633545,-0.000769226,0.0977917,1,3.39709e-05,-1.65851e-05,2.38995e-05,0.00679419,-0.00331702,0.0047799,0.999488,-0.00191684,0.0319389,0.000716828,0.0647337,0.523361,-0.990166,29.625,1,26473,2697439
50,1,0.999488,-0.00188614,0.0319335,0.000730226,-0.638029,-0.0773559,9.78668,0.0527531,-0.558135,0.98876,-0.0063818,-0.000780835,0.0978666,1,3.62005e-05,-7.82506e-06,1.48974e-05,0.0072401,-0.00156501,0.00297948,0.999488,-0.00188614,0.0319335,0.000730226,0.0638493,0.522349,-0.987659,29.625,1,26474,2697539
50,2,0.999488,-0.00188614,0.0319335,0.000730226,-0.638029,-0.0773559,9.78668,0.0527531,-0.558135,0.98876,-0.0063818,-0.000780835,0.0978666,1,3.62005e-05,-7.82506e-06,1.48974e-05,0.0072401,-0.00156501,0.00297948,0.999488,-0.00188614,0.0319335,0.000730226,0.0638493,0.522349,-0.987659,29.625,1,26474,2697539
50,3,0.999488,-0.00188614,0.0319335,0.000730226,-0.638029,-0.0773559,9.78668,0.0527531,-0.558135,0.98876,-0.0063818,-0.000780835,0.0978666,1,3.62005e-05,-7.82506e-06,1.48974e-05,0.0072401,-0.00156501,0.00297948,0.999488,-0.00188614,0.0319335,0.000730226,0.0638493,0.522349,-0.987659,29.625,1,26474,2697539
50,4,0.999489,-0.00183603,0.0319194,0.00074193,-0.643657,-0.0857327,9.78767,0.0485315,-0.570064,0.988861,-0.00643966,-0.000868037,0.0978764,1,5.38957e-05,-1.59048e-05,1.23438e-05,0.0107791,-0.00318096,0.00246877,0.999489,-0.00183603,0.0319194,0.00074193,0.0633729,0.524277,-0.986099,29.625,1,26475,2697639
50,5,0.999489,-0.00183603,0.0319194,0.00074193,-0.643657,-0.0857327,9.78767,0.0485315,-0.570064,0.988861,-0.00643966,-0.000868037,0.0978764,1,5.38957e-05,-1.59048e-05,1.23438e-05,0.0107791,-0.00318096,0.00246877,0.999489,-0.00183603,0.0319194,0.00074193,0.0633729,0.524277,-0.986099,29.625,1,26475,2697639
50,6,0.999489,-0.00183603,0.0319194,0.00074193,-0.643657,-0.0857327,9.78767,0.0485315,-0.570064,0.988861,-0.00643966,-0.000868037,0.0978764,1,5.38957e-05,-1.59048e-05,1.23438e-05,0.0107791,-0.00318096,0.00246877,0.999489,-0.00183603,0.0319194,0.00074193,0.0633729,0.524277,-0.986099,29.625,1,26475,2697639
51,1,0.999489,-0.00178088,0.0318988,0.0007611,-0.652189,-0.0762131,9.79052,0.037047,-0.561043,0.992246,-0.00652615,-0.000773817,0.0979048,1,5.85149e-05,-2.18676e-05,1.75091e-05,0.011703,-0.00437353,0.00350183,0.999489,-0.00178088,0.0318988,0.0007611,0.0648044,0.525719,-0.985568,29.625,1,26476,2697739
51,2,0.999489,-0.00178088,0.0318988,0.0007611,-0.652189,-0.0762131,9.79052,0.037047,-0.561043,0.992246,-0.00652615,-0.000773817,0.0979048,1,5.85149e-05,-2.18676e-05,1.75091e-05,0.011703,-0.00437353,0.00350183,0.999489,-0.00178088,0.0318988,0.0007611,0.0648044,0.525719,-0.985568,29.625,1,26476,2697739
51,3,0.999489,-0.00178088,0.0318988,0.0007611,-0.652189,-0.0762131,9.79052,0.037047,-0.561043,0.992246,-0.00652615,-0.000773817,0.0979048,1,5.85149e-05,-2.18676e-05,1.75091e-05,0.011703,-0.00437353,0.00350183,0.999489,-0.00178088,0.0318988,0.0007611,0.0648044,0.525719,-0.985568,29.625,1,26476,2697739
51,4,0.99949,-0.0017382,0.031886,0.000779247,-0.643755,-0.0789976,9.78602,0.0484668,-0.563813,0.985247,-0.00644037,-0.000799127,0.09786,1,4.54224e-05,-1.45602e-05,2.02955e-05,0.00908449,-0.00291205,0.00405909,0.99949,-0.0017382,0.031886,0.000779247,0.0652808,0.523791,-0.987128,29.625,1,26477,2697839
51,5,0.99949,-0.0017382,0.031886,0.000779247,-0.643755,-0.0789976,9.78602,0.0484668,-0.563813,0.985247,-0.00644037,-0.000799127,0.09786,1,4.54224e-05,-1.45602e-05,2.02955e-05,0.00908449,-0.00291205,0.00405909,0.99949,-0.0017382,0.031886,0.000779247,0.0652808,0.523791,-0.987128,29.625,1,26477,2697839
51,6,0.99949,-0.0017382,0.031886,0.000779247,-0.643755,-0.0789976,9.78602,0.0484668,-0.563813,0.985247,-0.00644037,-0.000799127,0.09786,1,4.54224e-05,-1.45602e-05,2.02955e-05,0.00908449,-0.00291205,0.00405909,0.99949,-0.0017382,0.031886,0.000779247,0.0652808,0.523791,-0.987128,29.625,1,26477,2697839
52,1,0.99949,-0.00169751,0.0318764,0.000775834,-0.640009,-0.0759254,9.79315,0.0461196,-0.557386,0.992078,-0.00640262,-0.000768323,0.0979313,1,4.62048e-05,-1.29302e-05,1.51258e-06,0.00924097,-0.00258604,0.000302516,0.99949,-0.00169751,0.0318764,0.000775834,0.0657287,0.522847,-0.989172,29.625,1,26478,2697939
52,2,0.99949,-0.00169751,0.0318764,0.000775834,-0.640009,-0.0759254,9.79315,0.0461196,-0.557386,0.992078,-0.00640262,-0.000768323,0.0979313,1,4.62048e-05,-1.29302e-05,1.51258e-06,0.00924097,-0.00258604,0.000302516,0.99949,-0.00169751,0.0318764,0.000775834,0.0657287,0.522847,-0.989172,29.625,1,26478,2697939
52,3,0.99949,-0.00169751,0.0318764,0.000775834,-0.640009,-0.0759254,9.79315,0.0461196,-0.557386,0.992078,-0.00640262,-0.000768323,0.0979313,1,4.62048e-05,-1.29302e-05,1.51258e-06,0.00924097,-0.00258604,0.000302516,0.99949,-0.00169751,0.0318764,0.000775834,0.0657287,0.522847,-0.989172,29.625,1,26478,2697939
52,4,0.999491,-0.0016517,0.0318621,0.000770173,-0.634381,-0.0839594,9.79,0.0574339,-0.565378,0.985671,-0.00634709,-0.000850009,0.0978997,1,5.32698e-05,-1.67451e-05,-1.23151e-06,0.010654,-0.00334901,-0.000246303,0.999491,-0.0016517,0.0318621,0.000770173,0.0642407,0.52482,-0.989626,29.625,1,26479,2698039
52,5,0.999491,-0.0016517,0.0318621,0.000770173,-0.634381,-0.0839594,9.79,0.0574339,-0.565378,0.985671,-0.00634709,-0.000850009,0.0978997,1,5.32698e-05,-1.67451e-05,-1.23151e-06,0.010654,-0.00334901,-0.000246303,0.999491,-0.0016517,0.0318621,0.000770173,0.0642407,0.52482,-0.989626,29.625,1,26479,2698039
52,6,0.999491,-0.0016517,0.0318621,0.000770173,-0.634381,-0.0839594,9.79,0.0574339,-0.565378,0.985671,-0.00634709,-0.000850009,0.0978997,1,5.32698e-05,-1.67451e-05,-1.23151e-06,0.010654,-0.00334901,-0.000246303,0.999491,-0.0016517,0.0318621,0.000770173,0.0642407,0.52482,-0.989626,29.625,1,26479,2698039
53,1,0.999491,-0.00161091,0.0318534,0.000782443,-0.642455,-0.0743957,9.78504,0.0490684,-0.557395,0.983443,-0.00642668,-0.000753829,0.0978502,1,4.96432e-05,-1.09466e-05,1.22247e-05,0.00992865,-0.00218931,0.00244494,0.999491,-0.00161091,0.0318534,0.000782443,0.0628301,0.524326,-0.98862,29.625,1,26480,2698139
53,2,0.999491,-0.00161091,0.0318534,0.000782443,-0.642455,-0.0743957,9.78504,0.0490684,-0.557395,0.983443,-0.00642668,-0.000753829,0.0978502,1,4.96432e-05,-1.09466e-05,1.22247e-05,0.00992865,-0.00218931,0.00244494,0.999491,-0.00161091,0.0318534,0.000782443,0.0628301,0.524326,-0.98862,29.625,1,26480,2698139
53,3,0.999492,-0.00156706,0.0318355,0.000813674,-0.641546,-0.0758311,9.79318,0.0460778,-0.564355,0.992548,-0.00641919,-0.000768452,0.0979314,1,5.01221e-05,-1.92129e-05,2.52163e-05,0.0100244,-0.00384259,0.00504326,0.999492,-0.00156706,0.0318355,0.000813674,0.0633482,0.524295,-0.987108,29.625,1,26481,2698239
53,4,0.999492,-0.00156706,0.0318355,0.000813674,-0.641546,-0.0758311,9.79318,0.0460778,-0.564355,0.992548,-0.00641919,-0.000768452,0.0979314,1,5.01221e-05,-1.92129e-05,2.52163e-05,0.0100244,-0.00384259,0.00504326,0.999492,-0.00156706,0.0318355,0.000813674,0.0633482,0.524295,-0.987108,29.625,1,26481,2698239
53,5,0.999492,-0.00156706,0.0318355,0.000813674,-0.641546,-0.0758311,9.79318,0.0460778,-0.564355,0.992548,-0.00641919,-0.000768452,0.0979314,1,5.01221e-05,-1.92129e-05,2.52163e-05,0.0100244,-0.00384259,0.00504326,0.999492,-0.00156706,0.0318355,0.000813674,0.0633482,0.524295,-0.987108,29.625,1,26481,2698239
53,6,0.999491,-0.00153475,0.0318481,0.000828567,-0.638735,-0.0805106,9.79649,0.0456003,-0.566077,0.994102,-0.00638512,-0.000812504,0.097965,1,3.7225e-05,1.12914e-05,8.16011e-06,0.007445,0.00225828,0.00163202,0.999491,-0.00153475,0.0318481,0.000828567,0.0653306,0.5252,-0.984067,29.625,1,26482,2698339
53,7,0.999491,-0.00153475,0.0318481,0.000828567,-0.638735,-0.0805106,9.79649,0.0456003,-0.566077,0.994102,-0.00638512,-0.000812504,0.097965,1,3.7225e-05,1.12914e-05,8.16011e-06,0.007445,0.00225828,0.00163202,0.999491,-0.00153475,0.0318481,0.000828567,0.0653306,0.5252,-0.984067,29.625,1,26482,2698339
53,8,0.999491,-0.00153475,0.0318481,0.000828567,-0.638735,-0.0805106,9.79649,0.0456003,-0.566077,0.994102,-0.00638512,-0.000812504,0.097965,1,3.7225e-05,1.12914e-05,8.16011e-06,0.007445,0.00225828,0.00163202,0.999491,-0.00153475,0.0318481,0.000828567,0.0653306,0.5252,-0.984067,29.625,1,26482,2698339
53,9,0.999491,-0.00149,0.0318431,0.000830531,-0.647136,-0.0806814,9.79044,0.0404424,-0.570811,0.990349,-0.0064728,-0.000816213,0.0979043,1,4.75496e-05,-7.39446e-06,6.77629e-06,0.00950993,-0.00147889,0.00135526,0.999491,-0.00149,0.0318431,0.000830531,0.0662392,0.524749,-0.986606,29.625,1,26483,2698439
53,10,0.999491,-0.00149,0.0318431,0.000830531,-0.647136,-0.0806814,9.79044,0.0404424,-0.570811,0.990349,-0.0064728,-0.000816213,0.0979043,1,4.75496e-05,-7.39446e-06,6.77629e-06,0.00950993,-0.00147889,0.00135526,0.999491,-0.00149,0.0318431,0.000830531,0.0662392,0.524749,-0.986606,29.625,1,26483,2698439
53,11,0.999491,-0.00149,0.0318431,0.000830531,-0.647136,-0.0806814,9.79044,0.0404424,-0.570811,0.990349,-0.0064728,-0.000816213,0.0979043,1,4.75496e-05,-7.39446e-06,6.77629e-06,0.00950993,-0.00147889,0.00135526,0.999491,-0.00149,0.0318431,0.000830531,0.0662392,0.524749,-0.986606,29.625,1,26483,2698439
53,12,0.999492,-0.0014601,0.0318431,0.000826719,-0.639335,-0.0927569,9.78824,0.0474688,-0.581182,0.98595,-0.00639376,-0.000934624,0.0978823,1,3.57162e-05,-2.15123e-06,4.88957e-06,0.00714324,-0.000430246,0.000977914,0.999492,-0.0014601,0.0318431,0.000826719,0.0661974,0.522852,-0.989679,29.625,1,26484,2698539
54,1,0.999492,-0.0014601,0.0318431,0.000826719,-0.639335,-0.0927569,9.78824,0.0474688,-0.581182,0.98595,-0.00639376,-0.000934624,0.0978823,1,3.57162e-05,-2.15123e-06,4.88957e-06,0.00714324,-0.000430246,0.000977914,0.999492,-0.0014601,0.0318431,0.000826719,0.0661974,0.522852,-0.989679,29.625,1,26484,2698539
54,2,0.999492,-0.0014601,0.0318431,0.000826719,-0.639335,-0.0927569,9.78824,0.0474688,-0.581182,0.98595,-0.00639376,-0.000934624,0.0978823,1,3.57162e-05,-2.15123e-06,4.88957e-06,0.00714324,-0.000430246,0.000977914,0.999492,-0.0014601,0.0318431,0.000826719,0.0661974,0.522852,-0.989679,29.625,1,26484,2698539
54,3,0.999492,-0.00141688,0.0318324,0.000855382,-0.635937,-0.0827881,9.78153,0.0544156,-0.572351,0.976934,-0.00636228,-0.00083879,0.097815,1,5.32751e-05,-1.52252e-05,3.83094e-05,0.010655,-0.00304503,0.00766188,0.999492,-0.00141688,0.0318324,0.000855382,0.0651944,0.523854,-0.990662,29.625,1,26485,2698639
54,4,0.999492,-0.00141688,0.0318324,0.000855382,-0.635937,-0.0827881,9.78153,0.0544156,-0.572351,0.976934,-0.00636228,-0.00083879,0.097815,1,5.32751e-05,-1.52252e-05,3.83094e-05,0.010655,-0.00304503,0.00766188,0.999492,-0.00141688,0.0318324,0.000855382,0.0651944,0.523854,-0.990662,29.625,1,26485,2698639
54,5,0.999492,-0.00141688,0.0318324,0.000855382,-0.635937,-0.0827881,9.78153,0.0544156,-0.572351,0.976934,-0.00636228,-0.00083879,0.097815,1,5.32751e-05,-1.52252e-05,3.83094e-05,0.010655,-0.00304503,0.00766188,0.999492,-0.00141688,0.0318324,0.000855382,0.0651944,0.523854,-0.990662,29.625,1,26485,2698639
54,6,0.999492,-0.00138093,0.0318289,0.000864975,-0.64447,-0.076826,9.78673,0.0433869,-0.566033,0.988318,-0.00644627,-0.000778335,0.0978671,1,5.05839e-05,-8.12266e-06,1.34595e-05,0.0101168,-0.00162453,0.0026919,0.999492,-0.00138093,0.0318289,0.000864975,0.0642611,0.524323,-0.989132,29.625,1,26486,2698739
55,1,0.999492,-0.00138093,0.0318289,0.000864975,-0.64447,-0.076826,9.78673,0.0433869,-0.566033,0.988318,-0.00644627,-0.000778335,0.0978671,1,5.05839e-05,-8.12266e-06,1.34595e-05,0.0101168,-0.00162453,0.0026919,0.999492,-0.00138093,0.0318289,0.000864975,0.0642611,0.524323,-0.989132,29.625,1,26486,2698739
55,2,0.999492,-0.00138093,0.0318289,0.000864975,-0.64447,-0.076826,9.78673,0.0433869,-0.566033,0.988318,-0.00644627,-0.000778335,0.0978671,1,5.05839e-05,-8.12266e-06,1.34595e-05,0.0101168,-0.00162453,0.0026919,0.999492,-0.00138093,0.0318289,0.000864975,0.0642611,0.524323,-0.989132,29.625,1,26486,2698739
55,3,0.999492,-0.00134375,0.0318198,0.000893109,-0.635437,-0.0823876,9.79545,0.0539169,-0.574745,0.994951,-0.00635685,-0.000833714,0.0979542,1,4.84587e-05,-1.28784e-05,2.71553e-05,0.00969174,-0.00257567,0.00543105,0.999492,-0.00134375,0.0318198,0.000893109,0.0623817,0.523824,-0.987619,29.625,1,26487,2698839
55,4,0.999492,-0.00134375,0.0318198,0.000893109,-0.635437,-0.0823876,9.79545,0.0539169,-0.574745,0.994951,-0.00635685,-0.000833714,0.0979542,1,4.84587e-05,-1.28784e-05,2.71553e-05,0.00969174,-0.00257567,0.00543105,0.999492,-0.00134375,0.0318198,0.000893109,0.0623817,0.523824,-0.987619,29.625,1,26487,2698839
55,5,0.999492,-0.00134375,0.0318198,0.000893109,-0.635437,-0.0823876,9.79545,0.0539169,-0.574745,0.994951,-0.00635685,-0.000833714,0.0979542,1,4.84587e-05,-1.28784e-05,2.71553e-05,0.00969174,-0.00257567,0.00543105,0.999492,-0.00134375,0.0318198,0.000893109,0.0623817,0.523824,-0.987619,29.625,1,26487,2698839
55,6,0.999493,-0.00130623,0.0318138,0.000935262,-0.638572,-0.0927271,9.79096,0.0499618,-0.585011,0.993034,-0.00638692,-0.000935856,0.0979094,1,4.23453e-05,-6.37246e-06,2.29813e-05,0.00846907,-0.00127449,0.00459625,0.999493,-0.00130623,0.0318138,0.000935262,0.062916,0.522817,-0.986129,29.625,1,26488,2698939
56,1,0.999493,-0.00130623,0.0318138,0.000935262,-0.638572,-0.0927271,9.79096,0.0499618,-0.585011,0.993034,-0.00638692,-0.000935856,0.0979094,1,4.23453e-05,-6.37246e-06,2.29813e-05,0.00846907,-0.00127449,0.00459625,0.999493,-0.00130623,0.0318138,0.000935262,0.062916,0.522817,-0.986129,29.625,1,26488,2698939
56,2,0.999493,-0.00126467,0.0317924,0.000965233,-0.642918,-0.0864813,9.78461,0.0445775,-0.584541,0.98352,-0.00643316,-0.000873313,0.0978457,1,4.19263e-05,-2.05543e-05,2.29515e-05,0.00838526,-0.00411085,0.00459031,0.999493,-0.00126467,0.0317924,0.000965233,0.0648162,0.524265,-0.986106,29.625,1,26489,2699039
56,3,0.999493,-0.00126467,0.0317924,0.000965233,-0.642918,-0.0864813,9.78461,0.0445775,-0.584541,0.98352,-0.00643316,-0.000873313,0.0978457,1,4.19263e-05,-2.05543e-05,2.29515e-05,0.00838526,-0.00411085,0.00459031,0.999493,-0.00126467,0.0317924,0.000965233,0.0648162,0.524265,-0.986106,29.625,1,26489,2699039
56,4,0.999493,-0.00126467,0.0317924,0.000965233,-0.642918,-0.0864813,9.78461,0.0445775,-0.584541,0.98352,-0.00643316,-0.000873313,0.0978457,1,4.19263e-05,-2.05543e-05,2.29515e-05,0.00838526,-0.00411085,0.00459031,0.999493,-0.00126467,0.0317924,0.000965233,0.0648162,0.524265,-0.986106,29.625,1,26489,2699039
56,5,0.999494,-0.00120721,0.031785,0.000981116,-0.635909,-0.076479,9.79719,0.0521382,-0.57214,0.996903,-0.00636069,-0.000776945,0.0979717,1,6.09048e-05,-8.31834e-06,1.73413e-05,0.012181,-0.00166367,0.00346826,0.999494,-0.00120721,0.031785,0.000981116,0.0657253,0.525259,-0.987603,29.625,1,26490,2699139
56,6,0.999494,-0.00120721,0.031785,0.000981116,-0.635909,-0.076479,9.79719,0.0521382,-0.57214,0.996903,-0.00636069,-0.000776945,0.0979717,1,6.09048e-05,-8.31834e-06,1.73413e-05,0.012181,-0.00166367,0.00346826,0.999494,-0.00120721,0.031785,0.000981116,0.0657253,0.525259,-0.987603,29.625,1,26490,2699139
56,7,0.999494,-0.00120721,0.031785,0.000981116,-0.635909,-0.076479,9.79719,0.0521382,-0.57214,0.996903,-0.00636069,-0.000776945,0.0979717,1,6.09048e-05,-8.31834e-06,1.73413e-05,0.012181,-0.00166367,0.00346826,0.999494,-0.00120721,0.031785,0.000981116,0.0657253,0.525259,-0.987603,29.625,1,26490,2699139
56,8,0.999493,-0.00116074,0.0317895,0.00100196,-0.648819,-0.0846854,9.78975,0.0378023,-0.580178,0.987368,-0.00648851,-0.000858442,0.0978973,1,5.77812e-05,-1.82163e-06,2.11686e-05,0.0115562,-0.000364325,0.00423372,0.999493,-0.00116074,0.0317895,0.00100196,0.0647014,0.525312,-0.990122,29.625,1,26491,2699239
57,1,0.999493,-0.00116074,0.0317895,0.00100196,-0.648819,-0.0846854,9.78975,0.0378023,-0.580178,0.987368,-0.00648851,-0.000858442,0.0978973,1,5.77812e-05,-1.82163e-06,2.11686e-05,0.0115562,-0.000364325,0.00423372,0.999493,-0.00116074,0.0317895,0.00100196,0.0647014,0.525312,-0.990122,29.625,1,26491,2699239
57,2,0.999493,-0.00116074,0.0317895,0.00100196,-0.648819,-0.0846854,9.78975,0.0378023,-0.580178,0.987368,-0.00648851,-0.000858442,0.0978973,1,5.77812e-05,-1.82163e-06,2.11686e-05,0.0115562,-0.000364325,0.00423372,0.999493,-0.00116074,0.0317895,0.00100196,0.0647014,0.525312,-0.990122,29.625,1,26491,2699239
57,3,0.999493,-0.00113376,0.0317926,0.00103017,-0.64172,-0.0821488,9.79209,0.0463127,-0.581481,0.991411,-0.0064181,-0.000830788,0.0979208,1,4.62607e-05,-4.7314e-06,1.87177e-05,0.00925213,-0.00094628,0.00374354,0.999493,-0.00113376,0.0317926,0.00103017,0.0638369,0.522358,-0.988164,29.625,1,26492,2699339
57,4,0.999493,-0.00113376,0.0317926,0.00103017,-0.64172,-0.0821488,9.79209,0.0463127,-0.581481,0.991411,-0.0064181,-0.000830788,0.0979208,1,4.62607e-05,-4.7314e-06,1.87177e-05,0.00925213,-0.00094628,0.00374354,0.999493,-0.00113376,0.0317926,0.00103017,0.0638369,0.522358,-0.988164,29.625,1,26492,2699339
57,5,0.999493,-0.00113376,0.0317926,0.00103017,-0.64172,-0.0821488,9.79209,0.0463127,-0.581481,0.991411,-0.0064181,-0.000830788,0.0979208,1,4.62607e-05,-4.7314e-06,1.87177e-05,0.00925213,-0.00094628,0.00374354,0.999493,-0.00113376,0.0317926,0.00103017,0.0638369,0.522358,-0.988164,29.625,1,26492,2699339
57,6,0.999494,-0.00110052,0.0317845,0.0010393,-0.640016,-0.0793133,9.79041,0.0490813,-0.57359,0.98784,-0.00640212,-0.00080117,0.0979039,1,4.04939e-05,-1.0032e-05,8.4119e-06,0.00809879,-0.00200639,0.00168238,0.999494,-0.00110052,0.0317845,0.0010393,0.0644082,0.521324,-0.985159,29.625,1,26493,2699439
58,1,0.999494,-0.00110052,0.0317845,0.0010393,-0.640016,-0.0793133,9.79041,0.0490813,-0.57359,0.98784,-0.00640212,-0.00080117,0.0979039,1,4.04939e-05,-1.0032e-05,8.4119e-06,0.00809879,-0.00200639,0.00168238,0.999494,-0.00110052,0.0317845,0.0010393,0.0644082,0.521324,-0.985159,29.625,1,26493,2699439
58,2,0.999494,-0.00110052,0.0317845,0.0010393,-0.640016,-0.0793133,9.79041,0.0490813,-0.57359,0.98784,-0.00640212,-0.00080117,0.0979039,1,4.04939e-05,-1.0032e-05,8.4119e-06,0.00809879,-0.00200639,0.00168238,0.999494,-0.00110052,0.0317845,0.0010393,0.0644082,0.521324,-0.985159,29.625,1,26493,2699439
58,3,0.999494,-0.0010391,0.0317651,0.00102927,-0.642605,-0.0803503,9.7945,0.0459787,-0.57786,0.995062,-0.00642927,-0.000814373,0.0979447,1,5.51288e-05,-1.65158e-05,5.54127e-06,0.0110258,-0.00330316,0.00110825,0.999494,-0.0010391,0.0317651,0.00102927,0.0658397,0.522766,-0.984628,29.625,1,26494,2699539
58,4,0.999494,-0.0010391,0.0317651,0.00102927,-0.642605,-0.0803503,9.7945,0.0459787,-0.57786,0.995062,-0.00642927,-0.000814373,0.0979447,1,5.51288e-05,-1.65158e-05,5.54127e-06,0.0110258,-0.00330316,0.00110825,0.999494,-0.0010391,0.0317651,0.00102927,0.0658397,0.522766,-0.984628,29.625,1,26494,2699539
58,5,0.999494,-0.0010391,0.0317651,0.00102927,-0.642605,-0.0803503,9.7945,0.0459787,-0.57786,0.995062,-0.00642927,-0.000814373,0.0979447,1,5.51288e-05,-1.65158e-05,5.54127e-06,0.0110258,-0.00330316,0.00110825,0.999494,-0.0010391,0.0317651,0.00102927,0.0658397,0.522766,-0.984628,29.625,1,26494,2699539
58,6,0.999495,-0.000987338,0.0317559,0.00102159,-0.645024,-0.089944,9.78289,0.0403719,-0.586173,0.980376,-0.0064523,-0.000908985,0.0978287,1,4.79501e-05,-1.06417e-05,1.26378e-05,0.00959002,-0.00212835,0.00252757,0.999495,-0.000987338,0.0317559,0.00102159,0.066223,0.525725,-0.986585,29.625,1,26495,2699639
59,1,0.999495,-0.000987338,0.0317559,0.00102159,-0.645024,-0.089944,9.78289,0.0403719,-0.586173,0.980376,-0.0064523,-0.000908985,0.0978287,1,4.79501e-05,-1.06417e-05,1.26378e-05,0.00959002,-0.00212835,0.00252757,0.999495,-0.000987338,0.0317559,0.00102159,0.066223,0.525725,-0.986585,29.625,1,26495,2699639
59,2,0.999495,-0.000987338,0.0317559,0.00102159,-0.645024,-0.089944,9.78289,0.0403719,-0.586173,0.980376,-0.0064523,-0.000908985,0.0978287,1,4.79501e-05,-1.06417e-05,1.26378e-05,0.00959002,-0.00212835,0.00252757,0.999495,-0.000987338,0.0317559,0.00102159,0.066223,0.525725,-0.986585,29.625,1,26495,2699639
59,3,0.999495,-0.000963419,0.0317449,0.00102225,-0.631808,-0.0809552,9.78423,0.0557308,-0.585891,0.982855,-0.00632113,-0.000816988,0.0978421,1,3.68487e-05,-1.57245e-05,1.78554e-05,0.00736974,-0.00314489,0.00357107,0.999495,-0.000963419,0.0317449,0.00102225,0.0666548,0.525757,-0.988606,29.625,1,26496,2699739
59,4,0.999495,-0.000963419,0.0317449,0.00102225,-0.631808,-0.0809552,9.78423,0.0557308,-0.585891,0.982855,-0.00632113,-0.000816988,0.0978421,1,3.68487e-05,-1.57245e-05,1.78554e-05,0.00736974,-0.00314489,0.00357107,0.999495,-0.000963419,0.0317449,0.00102225,0.0666548,0.525757,-0.988606,29.625,1,26496,2699739
59,5,0.999495,-0.000963419,0.0317449,0.00102225,-0.631808,-0.0809552,9.78423,0.0557308,-0.585891,0.982855,-0.00632113,-0.000816988,0.0978421,1,3.68487e-05,-1.57245e-05,1.78554e-05,0.00736974,-0.00314489,0.00357107,0.999495,-0.000963419,0.0317449,0.00102225,0.0666548,0.525757,-0.988606,29.625,1,26496,2699739
59,6,0.999495,-0.000936852,0.0317493,0.00101056,-0.638768,-0.0836665,9.78696,0.0462344,-0.586754,0.98516,-0.00638771,-0.000845975,0.0978695,1,4.65083e-05,-2.6825e-07,1.62257e-05,0.00930166,-5.36499e-05,0.00324515,0.999495,-0.000936852,0.0317493,0.00101056,0.0652229,0.522869,-0.990179,29.625,1,26497,2699839
60,1,0.999495,-0.000936852,0.0317493,0.00101056,-0.638768,-0.0836665,9.78696,0.0462344,-0.586754,0.98516,-0.00638771,-0.000845975,0.0978695,1,4.65083e-05,-2.6825e-07,1.62257e-05,0.00930166,-5.36499e-05,0.00324515,0.999495,-0.000936852,0.0317493,0.00101056,0.0652229,0.522869,-0.990179,29.625,1,26497,2699839
60,2,0.999495,-0.000936852,0.0317493,0.00101056,-0.638768,-0.0836665,9.78696,0.0462344,-0.586754,0.98516,-0.00638771,-0.000845975,0.0978695,1,4.65083e-05,-2.6825e-07,1.62257e-05,0.00930166,-5.36499e-05,0.00324515,0.999495,-0.000936852,0.0317493,0.00101056,0.0652229,0.522869,-0.990179,29.625,1,26497,2699839
60,3,0.999495,-0.000908536,0.0317544,0.00103516,-0.646617,-0.0751578,9.78438,0.0395538,-0.579616,0.985381,-0.00646626,-0.000761726,0.0978437,1,4.98761e-05,-7.19024e-07,3.00035e-05,0.00997521,-0.000143805,0.00600069,0.999495,-0.000908536,0.0317544,0.00103516,0.0643261,0.521866,-0.988177,29.625,1,26498,2699939
60,4,0.999495,-0.000908536,0.0317544,0.00103516,-0.646617,-0.0751578,9.78438,0.0395538,-0.579616,0.985381,-0.00646626,-0.000761726,0.0978437,1,4.98761e-05,-7.19024e-07,3.00035e-05,0.00997521,-0.000143805,0.00600069,0.999495,-0.000908536,0.0317544,0.00103516,0.0643261,0.521866,-0.988177,29.625,1,26498,2699939
60,5,0.999495,-0.000908536,0.0317544,0.00103516,-0.646617,-0.0751578,9.78438,0.0395538,-0.579616,0.985381,-0.00646626,-0.000761726,0.0978437,1,4.98761e-05,-7.19024e-07,3.00035e-05,0.00997521,-0.000143805,0.00600069,0.999495,-0.000908536,0.0317544,0.00103516,0.0643261,0.521866,-0.988177,29.625,1,26498,2699939
60,6,0.999495,-0.00087335,0.0317488,0.00105646,-0.641332,-0.0837724,9.78902,0.0395858,-0.58603,0.987252,-0.00641527,-0.000846311,0.09789,1,4.28371e-05,-1.01273e-05,1.55978e-05,0.00856742,-0.00202546,0.00311956,0.999495,-0.00087335,0.0317488,0.00105646,0.0628918,0.524281,-0.986096,29.625,1,26499,2700039
61,1,0.999495,-0.00087335,0.0317488,0.00105646,-0.641332,-0.0837724,9.78902,0.0395858,-0.58603,0.987252,-0.00641527,-0.000846311,0.09789,1,4.28371e-05,-1.01273e-05,1.55978e-05,0.00856742,-0.00202546,0.00311956,0.999495,-0.00087335,0.0317488,0.00105646,0.0628918,0.524281,-0.986096,29.625,1,26499,2700039
61,2,0.999495,-0.00087335,0.0317488,0.00105646,-0.641332,-0.0837724,9.78902,0.0395858,-0.58603,0.987252,-0.00641527,-0.000846311,0.09789,1,4.28371e-05,-1.01273e-05,1.55978e-05,0.00856742,-0.00202546,0.00311956,0.999495,-0.00087335,0.0317488,0.00105646,0.0628918,0.524281,-0.986096,29.625,1,26499,2700039
61,3,0.999495,-0.000827302,0.0317371,0.00109499,-0.635651,-0.076807,9.78565,0.0512072,-0.577149,0.984552,-0.00635856,-0.000777359,0.0978563,1,4.58993e-05,-1.06225e-05,2.40786e-05,0.00917985,-0.0021245,0.00481571,0.999495,-0.000827302,0.0317371,0.00109499,0.0633857,0.525713,-0.984552,29.625,1,26500,2700139
61,4,0.999495,-0.000827302,0.0317371,0.00109499,-0.635651,-0.076807,9.78565,0.0512072,-0.577149,0.984552,-0.00635856,-0.000777359,0.0978563,1,4.58993e-05,-1.06225e-05,2.40786e-05,0.00917985,-0.0021245,0.00481571,0.999495,-0.000827302,0.0317371,0.00109499,0.0633857,0.525713,-0.984552,29.625,1,26500,2700139
61,5,0.999495,-0.000827302,0.0317371,0.00109499,-0.635651,-0.076807,9.78565,0.0512072,-0.577149,0.984552,-0.00635856,-0.000777359,0.0978563,1,4.58993e-05,-1.06225e-05,2.40786e-05,0.00917985,-0.0021245,0.00481571,0.999495,-0.000827302,0.0317371,0.00109499,0.0633857,0.525713,-0.984552,29.625,1,26500,2700139
61,6,0.999496,-0.000774247,0.0317234,0.00112678,-0.639274,-0.0762243,9.79925,0.0482116,-0.581728,0.99987,-0.0063948,-0.000772211,0.0979923,1,4.9524e-05,-1.06635e-05,2.04631e-05,0.0099048,-0.0021327,0.00409262,0.999496,-0.000774247,0.0317234,0.00112678,0.0643109,0.525732,-0.986071,29.625,1,26501,2700239
62,1,0.999496,-0.000774247,0.0317234,0.00112678,-0.639274,-0.0762243,9.79925,0.0482116,-0.581728,0.99987,-0.0063948,-0.000772211,0.0979923,1,4.9524e-05,-1.06635e-05,2.04631e-05,0.0099048,-0.0021327,0.00409262,0.999496,-0.000774247,0.0317234,0.00112678,0.0643109,0.525732,-0.986071,29.625,1,26501,2700239
62,2,0.999496,-0.000774247,0.0317234,0.00112678,-0.639274,-0.0762243,9.79925,0.0482116,-0.581728,0.99987,-0.0063948,-0.000772211,0.0979923,1,4.9524e-05,-1.06635e-05,2.04631e-05,0.0099048,-0.0021327,0.00409262,0.999496,-0.000774247,0.0317234,0.00112678,0.0643109,0.525732,-0.986071,29.625,1,26501,2700239
62,3,0.999496,-0.000738579,0.0317246,0.00115345,-0.643799,-0.079313,9.79179,0.0412761,-0.586706,0.988409,-0.00643784,-0.000802339,0.0979178,1,4.59589e-05,6.11144e-07,1.62254e-05,0.00919179,0.000122229,0.00324508,0.999496,-0.000738579,0.0317246,0.00115345,0.0647384,0.525285,-0.988608,29.625,1,26502,2700339
62,4,0.999496,-0.000738579,0.0317246,0.00115345,-0.643799,-0.079313,9.79179,0.0412761,-0.586706,0.988409,-0.00643784,-0.000802339,0.0979178,1,4.59589e-05,6.11144e-07,1.62254e-05,0.00919179,0.000122229,0.00324508,0.999496,-0.000738579,0.0317246,0.00115345,0.0647384,0.525285,-0.988608,29.625,1,26502,2700339
62,5,0.999496,-0.000738579,0.0317246,0.00115345,-0.643799,-0.079313,9.79179,0.0412761,-0.586706,0.988409,-0.00643784,-0.000802339,0.0979178,1,4.59589e-05,6.11144e-07,1.62254e-05,0.00919179,0.000122229,0.00324508,0.999496,-0.000738579,0.0317246,0.00115345,0.0647384,0.525285,-0.988608,29.625,1,26502,2700339
62,6,0.999496,-0.000709505,0.0317215,0.00118269,-0.643759,-0.0841234,9.78971,0.043628,-0.589878,0.984883,-0.00643913,-0.000851018,0.0978969,1,4.84492e-05,-8.02998e-06,2.31864e-05,0.00968983,-0.001606,0.00463728,0.999496,-0.000709505,0.0317215,0.00118269,0.0647052,0.524346,-0.990649,29.625,1,26503,2700439
63,1,0.999496,-0.000709505,0.0317215,0.00118269,-0.643759,-0.0841234,9.78971,0.043628,-0.589878,0.984883,-0.00643913,-0.000851018,0.0978969,1,4.84492e-05,-8.02998e-06,2.31864e-05,0.00968983,-0.001606,0.00463728,0.999496,-0.000709505,0.0317215,0.00118269,0.0647052,0.524346,-0.990649,29.625,1,26503,2700439
63,2,0.999496,-0.000709505,0.0317215,0.00118269,-0.643759,-0.0841234,9.78971,0.043628,-0.589878,0.984883,-0.00643913,-0.000851018,0.0978969,1,4.84492e-05,-8.02998e-06,2.31864e-05,0.00968983,-0.001606,0.00463728,0.999496,-0.000709505,0.0317215,0.00118269,0.0647052,0.524346,-0.990649,29.625,1,26503,2700439
63,3,0.999496,-0.000697741,0.0317261,0.00120386,-0.639538,-0.0706214,9.77758,0.0453162,-0.576956,0.974024,-0.00639617,-0.000714975,0.0977757,1,4.38653e-05,-4.14629e-06,1.43256e-05,0.00877306,-0.000829258,0.00286513,0.999496,-0.000697741,0.0317261,0.00120386,0.0637999,0.522385,-0.989678,29.625,1,26504,2700539
63,4,0.999496,-0.000697741,0.0317261,0.00120386,-0.639538,-0.0706214,9.77758,0.0453162,-0.576956,0.974024,-0.00639617,-0.000714975,0.0977757,1,4.38653e-05,-4.14629e-06,1.43256e-05,0.00877306,-0.000829258,0.00286513,0.999496,-0.000697741,0.0317261,0.00120386,0.0637999,0.522385,-0.989678,29.625,1,26504,2700539
63,5,0.999496,-0.000697741,0.0317261,0.00120386,-0.639538,-0.0706214,9.77758,0.0453162,-0.576956,0.974024,-0.00639617,-0.000714975,0.0977757,1,4.38653e-05,-4.14629e-06,1.43256e-05,0.00877306,-0.000829258,0.00286513,0.999496,-0.000697741,0.0317261,0.00120386,0.0637999,0.522385,-0.989678,29.625,1,26504,2700539
63,6,0.999496,-0.000661806,0.0317048,0.00123608,-0.637819,-0.072364,9.79657,0.0446,-0.578499,0.996582,-0.00638329,-0.000735018,0.0979653,1,5.69895e-05,-2.61364e-05,1.65703e-05,0.0113979,-0.00522728,0.00331406,0.999496,-0.000661806,0.0317048,0.00123608,0.062916,0.522817,-0.986129,29.625,1,26505,2700639
64,1,0.999496,-0.000661806,0.0317048,0.00123608,-0.637819,-0.072364,9.79657,0.0446,-0.578499,0.996582,-0.00638329,-0.000735018,0.0979653,1,5.69895e-05,-2.61364e-05,1.65703e-05,0.0113979,-0.00522728,0.00331406,0.999496,-0.000661806,0.0317048,0.00123608,0.062916,0.522817,-0.986129,29.625,1,26505,2700639
64,2,0.999496,-0.000661806,0.0317048,0.00123608,-0.637819,-0.072364,9.79657,0.0446,-0.578499,0.996582,-0.00638329,-0.000735018,0.0979653,1,5.69895e-05,-2.61364e-05,1.65703e-05,0.0113979,-0.00522728,0.00331406,0.999496,-0.000661806,0.0317048,0.00123608,0.062916,0.522817,-0.986129,29.625,1,26505,2700639
64,3,0.999497,-0.000633045,0.0316893,0.00128117,-0.641276,-0.0819977,9.79345,0.0440404,-0.58947,0.990339,-0.00641506,-0.000825549,0.0979343,1,2.68538e-05,-1.19566e-05,2.43688e-05,0.00537076,-0.00239131,0.00487376,0.999497,-0.000633045,0.0316893,0.00128117,0.0658321,0.524699,-0.983575,29.625,1,26506,2700739
64,4,0.999497,-0.000633045,0.0316893,0.00128117,-0.641276,-0.0819977,9.79345,0.0440404,-0.58947,0.990339,-0.00641506,-0.000825549,0.0979343,1,2.68538e-05,-1.19566e-05,2.43688e-05,0.00537076,-0.00239131,0.00487376,0.999497,-0.000633045,0.0316893,0.00128117,0.0658321,0.524699,-0.983575,29.625,1,26506,2700739
64,5,0.999497,-0.000633045,0.0316893,0.00128117,-0.641276,-0.0819977,9.79345,0.0440404,-0.58947,0.990339,-0.00641506,-0.000825549,0.0979343,1,2.68538e-05,-1.19566e-05,2.43688e-05,0.00537076,-0.00239131,0.00487376,0.999497,-0.000633045,0.0316893,0.00128117,0.0658321,0.524699,-0.983575,29.625,1,26506,2700739
64,6,0.999498,-0.000565715,0.0316634,0.00127608,-0.639507,-0.0761637,9.78807,0.0423718,-0.590686,0.98579,-0.00639967,-0.000772702,0.0978803,1,5.61942e-05,-2.35119e-05,4.99894e-06,0.0112388,-0.00470239,0.000999788,0.999498,-0.000565715,0.0316634,0.00127608,0.065257,0.526699,-0.986053,29.625,1,26507,2700839
65,1,0.999498,-0.000565715,0.0316634,0.00127608,-0.639507,-0.0761637,9.78807,0.0423718,-0.590686,0.98579,-0.00639967,-0.000772702,0.0978803,1,5.61942e-05,-2.35119e-05,4.99894e-06,0.0112388,-0.00470239,0.000999788,0.999498,-0.000565715,0.0316634,0.00127608,0.065257,0.526699,-0.986053,29.625,1,26507,2700839
65,2,0.999498,-0.000565715,0.0316634,0.00127608,-0.639507,-0.0761637,9.78807,0.0423718,-0.590686,0.98579,-0.00639967,-0.000772702,0.0978803,1,5.61942e-05,-2.35119e-05,4.99894e-06,0.0112388,-0.00470239,0.000999788,0.999498,-0.000565715,0.0316634,0.00127608,0.065257,0.526699,-0.986053,29.625,1,26507,2700839
65,3,0.999498,-0.000534099,0.0316604,0.0013127,-0.640656,-0.0742085,9.79318,0.0419998,-0.583596,0.99437,-0.00640823,-0.000751359,0.0979316,1,4.62812e-05,-8.65202e-06,1.63258e-05,0.00925625,-0.0017304,0.00326516,0.999498,-0.000534099,0.0316604,0.0013127,0.064216,0.524838,-0.990636,29.625,1,26508,2700939
65,4,0.999498,-0.000534099,0.0316604,0.0013127,-0.640656,-0.0742085,9.79318,0.0419998,-0.583596,0.99437,-0.00640823,-0.000751359,0.0979316,1,4.62812e-05,-8.65202e-06,1.63258e-05,0.00925625,-0.0017304,0.00326516,0.999498,-0.000534099,0.0316604,0.0013127,0.064216,0.524838,-0.990636,29.625,1,26508,2700939
65,5,0.999498,-0.000534099,0.0316604,0.0013127,-0.640656,-0.0742085,9.79318,0.0419998,-0.583596,0.99437,-0.00640823,-0.000751359,0.0979316,1,4.62812e-05,-8.65202e-06,1.63258e-05,0.00925625,-0.0017304,0.00326516,0.999498,-0.000534099,0.0316604,0.0013127,0.064216,0.524838,-0.990636,29.625,1,26508,2700939
65,6,0.999498,-0.000534654,0.0316561,0.00135241,-0.639475,-0.0845924,9.79478,0.0455832,-0.600311,0.988238,-0.00639809,-0.000853023,0.0979475,1,3.57125e-05,-1.71569e-05,8.04833e-06,0.00714251,-0.00343138,0.00160967,0.999498,-0.000534654,0.0316561,0.00135241,0.0642198,0.523871,-0.991162,29.625,1,26509,2701039
66,1,0.999498,-0.000534654,0.0316561,0.00135241,-0.639475,-0.0845924,9.79478,0.0455832,-0.600311,0.988238,-0.00639809,-0.000853023,0.0979475,1,3.57125e-05,-1.71569e-05,8.04833e-06,0.00714251,-0.00343138,0.00160967,0.999498,-0.000534654,0.0316561,0.00135241,0.0642198,0.523871,-0.991162,29.625,1,26509,2701039
66,2,0.999498,-0.000534654,0.0316561,0.00135241,-0.639475,-0.0845924,9.79478,0.0455832,-0.600311,0.988238,-0.00639809,-0.000853023,0.0979475,1,3.57125e-05,-1.71569e-05,8.04833e-06,0.00714251,-0.00343138,0.00160967,0.999498,-0.000534654,0.0316561,0.00135241,0.0642198,0.523871,-0.991162,29.625,1,26509,2701039
66,3,0.999497,-0.000535784,0.0316668,0.00139819,-0.632911,-0.0816859,9.78932,0.0507571,-0.59104,0.987104,-0.00632978,-0.000824564,0.0978931,1,3.81712e-05,-3.5573e-06,1.82558e-05,0.00763424,-0.00071146,0.00365117,0.999497,-0.000535784,0.0316668,0.00139819,0.0638289,0.522845,-0.988153,29.625,1,26510,2701139
66,4,0.999497,-0.000535784,0.0316668,0.00139819,-0.632911,-0.0816859,9.78932,0.0507571,-0.59104,0.987104,-0.00632978,-0.000824564,0.0978931,1,3.81712e-05,-3.5573e-06,1.82558e-05,0.00763424,-0.00071146,0.00365117,0.999497,-0.000535784,0.0316668,0.00139819,0.0638289,0.522845,-0.988153,29.625,1,26510,2701139
66,5,0.999497,-0.000535784,0.0316668,0.00139819,-0.632911,-0.0816859,9.78932,0.0507571,-0.59104,0.987104,-0.00632978,-0.000824564,0.0978931,1,3.81712e-05,-3.5573e-06,1.82558e-05,0.00763424,-0.00071146,0.00365117,0.999497,-0.000535784,0.0316668,0.00139819,0.0638289,0.522845,-0.988153,29.625,1,26510,2701139
66,6,0.999497,-0.000511347,0.0316635,0.00142273,-0.642822,-0.0790107,9.78568,0.0436912,-0.592231,0.981694,-0.00642932,-0.000797668,0.0978566,1,3.79328e-05,-5.70341e-06,1.06545e-05,0.00758655,-0.00114068,0.0021309,0.999497,-0.000511347,0.0316635,0.00142273,0.0629117,0.522339,-0.986645,29.625,1,26511,2701239
67,1,0.999497,-0.000511347,0.0316635,0.00142273,-0.642822,-0.0790107,9.78568,0.0436912,-0.592231,0.981694,-0.00642932,-0.000797668,0.0978566,1,3.79328e-05,-5.70341e-06,1.06545e-05,0.00758655,-0.00114068,0.0021309,0.999497,-0.000511347,0.0316635,0.00142273,0.0629117,0.522339,-0.986645,29.625,1,26511,2701239
67,2,0.999497,-0.000511347,0.0316635,0.00142273,-0.642822,-0.0790107,9.78568,0.0436912,-0.592231,0.981694,-0.00642932,-0.000797668,0.0978566,1,3.79328e-05,-5.70341e-06,1.06545e-05,0.00758655,-0.00114068,0.0021309,0.999497,-0.000511347,0.0316635,0.00142273,0.0629117,0.522339,-0.986645,29.625,1,26511,2701239
67,3,0.999498,-0.000474804,0.0316419,0.0014565,-0.650516,-0.0734349,9.79291,0.0343654,-0.586228,0.990894,-0.00650795,-0.000741683,0.0979288,1,3.65507e-05,-1.43481e-05,1.34593e-05,0.00731014,-0.00286961,0.00269186,0.999498,-0.000474804,0.0316419,0.0014565,0.0638787,0.524255,-0.985091,29.625,1,26512,2701339
67,4,0.999498,-0.000474804,0.0316419,0.0014565,-0.650516,-0.0734349,9.79291,0.0343654,-0.586228,0.990894,-0.00650795,-0.000741683,0.0979288,1,3.65507e-05,-1.43481e-05,1.34593e-05,0.00731014,-0.00286961,0.00269186,0.999498,-0.000474804,0.0316419,0.0014565,0.0638787,0.524255,-0.985091,29.625,1,26512,2701339
67,5,0.999498,-0.000474804,0.0316419,0.0014565,-0.650516,-0.0734349,9.79291,0.0343654,-0.586228,0.990894,-0.00650795,-0.000741683,0.0979288,1,3.65507e-05,-1.43481e-05,1.34593e-05,0.00731014,-0.00286961,0.00269186,0.999498,-0.000474804,0.0316419,0.0014565,0.0638787,0.524255,-0.985091,29.625,1,26512,2701339
67,6,0.999498,-0.000426004,0.0316357,0.00151187,-0.645087,-0.0844026,9.7904,0.0411269,-0.597659,0.989886,-0.00645175,-0.000853529,0.0979038,1,4.68195e-05,-4.74193e-06,2.5995e-05,0.00936391,-0.000948386,0.005199,0.999498,-0.000426004,0.0316357,0.00151187,0.0657585,0.526199,-0.985562,29.625,1,26513,2701439
67,7,0.999498,-0.000426004,0.0316357,0.00151187,-0.645087,-0.0844026,9.7904,0.0411269,-0.597659,0.989886,-0.00645175,-0.000853529,0.0979038,1,4.68195e-05,-4.74193e-06,2.5995e-05,0.00936391,-0.000948386,0.005199,0.999498,-0.000426004,0.0316357,0.00151187,0.0657585,0.526199,-0.985562,29.625,1,26513,2701439
67,8,0.999498,-0.000426004,0.0316357,0.00151187,-0.645087,-0.0844026,9.7904,0.0411269,-0.597659,0.989886,-0.00645175,-0.000853529,0.0979038,1,4.68195e-05,-4.74193e-06,2.5995e-05,0.00936391,-0.000948386,0.005199,0.999498,-0.000426004,0.0316357,0.00151187,0.0657585,0.526199,-0.985562,29.625,1,26513,2701439
67,9,0.999498,-0.000378392,0.0316411,0.00157126,-0.636989,-0.0808943,9.79003,0.0475915,-0.592227,0.986749,-0.00637091,-0.000819276,0.0979001,1,5.16958e-05,-5.32746e-06,1.65646e-05,0.0103392,-0.00106549,0.00331292,0.999498,-0.000378392,0.0316411,0.00157126,0.0666876,0.525251,-0.987607,29.625,1,26514,2701539
67,10,0.999498,-0.000378392,0.0316411,0.00157126,-0.636989,-0.0808943,9.79003,0.0475915,-0.592227,0.986749,-0.00637091,-0.000819276,0.0979001,1,5.16958e-05,-5.32746e-06,1.65646e-05,0.0103392,-0.00106549,0.00331292,0.999498,-0.000378392,0.0316411,0.00157126,0.0666876,0.525251,-0.987607,29.625,1,26514,2701539
67,11,0.999498,-0.000378392,0.0316411,0.00157126,-0.636989,-0.0808943,9.79003,0.0475915,-0.592227,0.986749,-0.00637091,-0.000819276,0.0979001,1,5.16958e-05,-5.32746e-06,1.65646e-05,0.0103392,-0.00106549,0.00331292,0.999498,-0.000378392,0.0316411,0.00157126,0.0666876,0.525251,-0.987607,29.625,1,26514,2701539
67,12,0.999498,-0.000353893,0.0316555,0.00160608,-0.631486,-0.0838341,9.79472,0.0555788,-0.599044,0.988888,-0.00631542,-0.000846023,0.0979471,1,3.85307e-05,-2.95787e-06,1.06766e-05,0.00770614,-0.000591574,0.00213533,0.999498,-0.000353893,0.0316555,0.00160608,0.0647422,0.524319,-0.989134,29.625,1,26515,2701639
68,1,0.999498,-0.000353893,0.0316555,0.00160608,-0.631486,-0.0838341,9.79472,0.0555788,-0.599044,0.988888,-0.00631542,-0.000846023,0.0979471,1,3.85307e-05,-2.95787e-06,1.06766e-05,0.00770614,-0.000591574,0.00213533,0.999498,-0.000353893,0.0316555,0.00160608,0.0647422,0.524319,-0.989134,29.625,1,26515,2701639
68,2,0.999498,-0.000353893,0.0316555,0.00160608,-0.631486,-0.0838341,9.79472,0.0555788,-0.599044,0.988888,-0.00631542,-0.000846023,0.0979471,1,3.85307e-05,-2.95787e-06,1.06766e-05,0.00770614,-0.000591574,0.00213533,0.999498,-0.000353893,0.0316555,0.00160608,0.0647422,0.524319,-0.989134,29.625,1,26515,2701639
68,3,0.999498,-0.000333003,0.0316516,0.00166364,-0.65595,-0.0780952,9.79052,0.0291229,-0.598679,0.987565,-0.00656332,-0.000790646,0.0979049,1,4.85087e-05,-1.96603e-05,1.48547e-05,0.00970175,-0.00393207,0.00297095,0.999498,-0.000333003,0.0316516,0.00166364,0.0628666,0.522853,-0.988148,29.625,1,26516,2701739
68,4,0.999498,-0.000333003,0.0316516,0.00166364,-0.65595,-0.0780952,9.79052,0.0291229,-0.598679,0.987565,-0.00656332,-0.000790646,0.0979049,1,4.85087e-05,-1.96603e-05,1.48547e-05,0.00970175,-0.00393207,0.00297095,0.999498,-0.000333003,0.0316516,0.00166364,0.0628666,0.522853,-0.988148,29.625,1,26516,2701739
68,5,0.999498,-0.000333003,0.0316516,0.00166364,-0.65595,-0.0780952,9.79052,0.0291229,-0.598679,0.987565,-0.00656332,-0.000790646,0.0979049,1,4.85087e-05,-1.96603e-05,1.48547e-05,0.00970175,-0.00393207,0.00297095,0.999498,-0.000333003,0.0316516,0.00166364,0.0628666,0.522853,-0.988148,29.625,1,26516,2701739
68,6,0.999498,-0.000308955,0.0316417,0.00171324,-0.642781,-0.0720544,9.78608,0.0434699,-0.588454,0.982195,-0.00642991,-0.000729598,0.0978606,1,4.53257e-05,-1.08329e-05,1.42697e-05,0.00906514,-0.00216657,0.00285394,0.999498,-0.000308955,0.0316417,0.00171324,0.0624225,0.52283,-0.986631,29.625,1,26517,2701839
69,1,0.999498,-0.000308955,0.0316417,0.00171324,-0.642781,-0.0720544,9.78608,0.0434699,-0.588454,0.982195,-0.00642991,-0.000729598,0.0978606,1,4.53257e-05,-1.08329e-05,1.42697e-05,0.00906514,-0.00216657,0.00285394,0.999498,-0.000308955,0.0316417,0.00171324,0.0624225,0.52283,-0.986631,29.625,1,26517,2701839
69,2,0.999498,-0.000308955,0.0316417,0.00171324,-0.642781,-0.0720544,9.78608,0.0434699,-0.588454,0.982195,-0.00642991,-0.000729598,0.0978606,1,4.53257e-05,-1.08329e-05,1.42697e-05,0.00906514,-0.00216657,0.00285394,0.999498,-0.000308955,0.0316417,0.00171324,0.0624225,0.52283,-0.986631,29.625,1,26517,2701839
69,3,0.999498,-0.000270131,0.0316338,0.00176354,-0.655295,-0.0897172,9.79788,0.0287466,-0.60895,0.997533,-0.00655292,-0.000907232,0.0979787,1,5.05019e-05,9.25805e-09,1.24687e-05,0.0101004,1.85161e-06,0.00249374,0.999498,-0.000270131,0.0316338,0.00176354,0.0658278,0.524221,-0.984091,29.625,1,26518,2701939
69,4,0.999498,-0.000270131,0.0316338,0.00176354,-0.655295,-0.0897172,9.79788,0.0287466,-0.60895,0.997533,-0.00655292,-0.000907232,0.0979787,1,5.05019e-05,9.25805e-09,1.24687e-05,0.0101004,1.85161e-06,0.00249374,0.999498,-0.000270131,0.0316338,0.00176354,0.0658278,0.524221,-0.984091,29.625,1,26518,2701939
69,5,0.999498,-0.000270131,0.0316338,0.00176354,-0.655295,-0.0897172,9.79788,0.0287466,-0.60895,0.997533,-0.00655292,-0.000907232,0.0979787,1,5.05019e-05,9.25805e-09,1.24687e-05,0.0101004,1.85161e-06,0.00249374,0.999498,-0.000270131,0.0316338,0.00176354,0.0658278,0.524221,-0.984091,29.625,1,26518,2701939
69,6,0.999498,-0.000203241,0.0316274,0.00179421,-0.634161,-0.0806215,9.7941,0.0544946,-0.600281,0.988529,-0.00634264,-0.000816643,0.0979408,1,5.23572e-05,-5.38115e-06,1.35523e-05,0.0104714,-0.00107623,0.00271046,0.999498,-0.000203241,0.0316274,0.00179421,0.0662596,0.524253,-0.986112,29.625,1,26519,2702039
70,1,0.999498,-0.000203241,0.0316274,0.00179421,-0.634161,-0.0806215,9.7941,0.0544946,-0.600281,0.988529,-0.00634264,-0.000816643,0.0979408,1,5.23572e-05,-5.38115e-06,1.35523e-05,0.0104714,-0.00107623,0.00271046,0.999498,-0.000203241,0.0316274,0.00179421,0.0662596,0.524253,-0.986112,29.625,1,26519,2702039
70,2,0.999498,-0.000203241,0.0316274,0.00179421,-0.634161,-0.0806215,9.7941,0.0544946,-0.600281,0.988529,-0.00634264,-0.000816643,0.0979408,1,5.23572e-05,-5.38115e-06,1.35523e-05,0.0104714,-0.00107623,0.00271046,0.999498,-0.000203241,0.0316274,0.00179421,0.0662596,0.524253,-0.986112,29.625,1,26519,2702039
70,3,0.999498,-0.000150245,0.0316324,0.00183663,-0.637329,-0.0835993,9.78526,0.0480407,-0.604989,0.977892,-0.00637409,-0.000847201,0.0978525,1,5.61271e-05,-4.24328e-06,1.75554e-05,0.0112254,-0.000848656,0.00351107,0.999498,-0.000150245,0.0316324,0.00183663,0.065721,0.524781,-0.988118,29.625,1,26520,2702139
70,4,0.999498,-0.000150245,0.0316324,0.00183663,-0.637329,-0.0835993,9.78526,0.0480407,-0.604989,0.977892,-0.00637409,-0.000847201,0.0978525,1,5.61271e-05,-4.24328e-06,1.75554e-05,0.0112254,-0.000848656,0.00351107,0.999498,-0.000150245,0.0316324,0.00183663,0.065721,0.524781,-0.988118,29.625,1,26520,2702139
70,5,0.999498,-0.000150245,0.0316324,0.00183663,-0.637329,-0.0835993,9.78526,0.0480407,-0.604989,0.977892,-0.00637409,-0.000847201,0.0978525,1,5.61271e-05,-4.24328e-06,1.75554e-05,0.0112254,-0.000848656,0.00351107,0.999498,-0.000150245,0.0316324,0.00183663,0.065721,0.524781,-0.988118,29.625,1,26520,2702139
70,6,0.999498,-0.000128572,0.0316384,0.00189614,-0.631426,-0.0772299,9.79206,0.0526616,-0.597828,0.99009,-0.00631689,-0.000780673,0.0979204,1,4.26191e-05,-1.34578e-05,2.17724e-06,0.00852382,-0.00269157,0.000435448,0.999498,-0.000128572,0.0316384,0.00189614,0.0638047,0.524309,-0.98812,29.625,1,26521,2702239
71,1,0.999498,-0.000128572,0.0316384,0.00189614,-0.631426,-0.0772299,9.79206,0.0526616,-0.597828,0.99009,-0.00631689,-0.000780673,0.0979204,1,4.26191e-05,-1.34578e-05,2.17724e-06,0.00852382,-0.00269157,0.000435448,0.999498,-0.000128572,0.0316384,0.00189614,0.0638047,0.524309,-0.98812,29.625,1,26521,2702239
71,2,0.999498,-0.000128572,0.0316384,0.00189614,-0.631426,-0.0772299,9.79206,0.0526616,-0.597828,0.99009,-0.00631689,-0.000780673,0.0979204,1,4.26191e-05,-1.34578e-05,2.17724e-06,0.00852382,-0.00269157,0.000435448,0.999498,-0.000128572,0.0316384,0.00189614,0.0638047,0.524309,-0.98812,29.625,1,26521,2702239
71,3,0.999497,-0.000105217,0.0316449,0.00198444,-0.643794,-0.0792622,9.7867,0.0399542,-0.604333,0.983462,-0.00643935,-0.000802953,0.0978668,1,5.18989e-05,-7.30908e-06,1.3385e-05,0.0103798,-0.00146182,0.00267699,0.999497,-0.000105217,0.0316449,0.00198444,0.0614394,0.52189,-0.988163,29.625,1,26522,2702339
71,4,0.999497,-0.000105217,0.0316449,0.00198444,-0.643794,-0.0792622,9.7867,0.0399542,-0.604333,0.983462,-0.00643935,-0.000802953,0.0978668,1,5.18989e-05,-7.30908e-06,1.3385e-05,0.0103798,-0.00146182,0.00267699,0.999497,-0.000105217,0.0316449,0.00198444,0.0614394,0.52189,-0.988163,29.625,1,26522,2702339
71,5,0.999497,-0.000105217,0.0316449,0.00198444,-0.643794,-0.0792622,9.7867,0.0399542,-0.604333,0.983462,-0.00643935,-0.000802953,0.0978668,1,5.18989e-05,-7.30908e-06,1.3385e-05,0.0103798,-0.00146182,0.00267699,0.999497,-0.000105217,0.0316449,0.00198444,0.0614394,0.52189,-0.988163,29.625,1,26522,2702339
71,6,0.999498,-8.85459e-05,0.0316252,0.00201658,-0.645996,-0.0782827,9.79148,0.0394287,-0.600182,0.990515,-0.0064628,-0.000792784,0.0979145,1,4.97328e-05,-1.46757e-05,1.6851e-05,0.00994656,-0.00293514,0.00337019,0.999498,-8.85459e-05,0.0316252,0.00201658,0.0638208,0.523333,-0.988142,29.625,1,26523,2702439
72,1,0.999498,-8.85459e-05,0.0316252,0.00201658,-0.645996,-0.0782827,9.79148,0.0394287,-0.600182,0.990515,-0.0064628,-0.000792784,0.0979145,1,4.97328e-05,-1.46757e-05,1.6851e-05,0.00994656,-0.00293514,0.00337019,0.999498,-8.85459e-05,0.0316252,0.00201658,0.0638208,0.523333,-0.988142,29.625,1,26523,2702439
72,2,0.999498,-8.85459e-05,0.0316252,0.00201658,-0.645996,-0.0782827,9.79148,0.0394287,-0.600182,0.990515,-0.0064628,-0.000792784,0.0979145,1,4.97328e-05,-1.46757e-05,1.6851e-05,0.00994656,-0.00293514,0.00337019,0.999498,-8.85459e-05,0.0316252,0.00201658,0.0638208,0.523333,-0.988142,29.625,1,26523,2702439
72,3,0.999498,-7.26565e-05,0.0316271,0.00206702,-0.643081,-0.0820431,9.78939,0.0428373,-0.606571,0.985292,-0.00643234,-0.000828395,0.0978937,1,4.01642e-05,-7.85656e-06,7.85676e-06,0.00803284,-0.00157131,0.00157135,0.999498,-7.26565e-05,0.0316271,0.00206702,0.0657419,0.525729,-0.986582,29.625,1,26524,2702539
72,4,0.999498,-7.26565e-05,0.0316271,0.00206702,-0.643081,-0.0820431,9.78939,0.0428373,-0.606571,0.985292,-0.00643234,-0.000828395,0.0978937,1,4.01642e-05,-7.85656e-06,7.85676e-06,0.00803284,-0.00157131,0.00157135,0.999498,-7.26565e-05,0.0316271,0.00206702,0.0657419,0.525729,-0.986582,29.625,1,26524,2702539
72,5,0.999498,-7.26565e-05,0.0316271,0.00206702,-0.643081,-0.0820431,9.78939,0.0428373,-0.606571,0.985292,-0.00643234,-0.000828395,0.0978937,1,4.01642e-05,-7.85656e-06,7.85676e-06,0.00803284,-0.00157131,0.00157135,0.999498,-7.26565e-05,0.0316271,0.00206702,0.0657419,0.525729,-0.986582,29.625,1,26524,2702539
72,6,0.999497,-4.48205e-05,0.0316382,0.00219932,-0.641626,-0.0900323,9.79405,0.0423488,-0.612294,0.989151,-0.00641829,-0.000908034,0.0979403,1,3.76216e-05,-1.06059e-05,2.66267e-05,0.00752431,-0.00212119,0.00532534,0.999497,-4.48205e-05,0.0316382,0.00219932,0.0662273,0.526204,-0.986069,29.625,1,26525,2702639
73,1,0.999497,-4.48205e-05,0.0316382,0.00219932,-0.641626,-0.0900323,9.79405,0.0423488,-0.612294,0.989151,-0.00641829,-0.000908034,0.0979403,1,3.76216e-05,-1.06059e-05,2.66267e-05,0.00752431,-0.00212119,0.00532534,0.999497,-4.48205e-05,0.0316382,0.00219932,0.0662273,0.526204,-0.986069,29.625,1,26525,2702639
73,2,0.999497,-4.48205e-05,0.0316382,0.00219932,-0.641626,-0.0900323,9.79405,0.0423488,-0.612294,0.989151,-0.00641829,-0.000908034,0.0979403,1,3.76216e-05,-1.06059e-05,2.66267e-05,0.00752431,-0.00212119,0.00532534,0.999497,-4.48205e-05,0.0316382,0.00219932,0.0662273,0.526204,-0.986069,29.625,1,26525,2702639
73,3,0.999496,-1.20632e-05,0.0316563,0.00236017,-0.641762,-0.0838137,9.78766,0.0516309,-0.609163,0.982718,-0.0064187,-0.000845965,0.0978765,1,3.92496e-05,-5.62515e-06,1.123e-05,0.00784993,-0.00112503,0.00224601,0.999496,-1.20632e-05,0.0316563,0.00236017,0.0671767,0.52476,-0.987621,29.625,1,26526,2702739
73,4,0.999496,-1.20632e-05,0.0316563,0.00236017,-0.641762,-0.0838137,9.78766,0.0516309,-0.609163,0.982718,-0.0064187,-0.000845965,0.0978765,1,3.92496e-05,-5.62515e-06,1.123e-05,0.00784993,-0.00112503,0.00224601,0.999496,-1.20632e-05,0.0316563,0.00236017,0.0671767,0.52476,-0.987621,29.625,1,26526,2702739
73,5,0.999496,-1.20632e-05,0.0316563,0.00236017,-0.641762,-0.0838137,9.78766,0.0516309,-0.609163,0.982718,-0.0064187,-0.000845965,0.0978765,1,3.92496e-05,-5.62515e-06,1.123e-05,0.00784993,-0.00112503,0.00224601,0.999496,-1.20632e-05,0.0316563,0.00236017,0.0671767,0.52476,-0.987621,29.625,1,26526,2702739
73,6,0.999495,2.52366e-05,0.0316791,0.00246862,-0.64004,-0.0825269,9.78902,0.0463394,-0.603983,0.984701,-0.00640114,-0.00083331,0.0978901,1,3.94155e-05,-3.98971e-06,2.52779e-05,0.0078831,-0.000797943,0.00505558,0.999495,2.52366e-05,0.0316791,0.00246862,0.0657007,0.525277,-0.988612,29.625,1,26527,2702839
74,1,0.999495,2.52366e-05,0.0316791,0.00246862,-0.64004,-0.0825269,9.78902,0.0463394,-0.603983,0.984701,-0.00640114,-0.00083331,0.0978901,1,3.94155e-05,-3.98971e-06,2.52779e-05,0.0078831,-0.000797943,0.00505558,0.999495,2.52366e-05,0.0316791,0.00246862,0.0657007,0.525277,-0.988612,29.625,1,26527,2702839
74,2,0.999495,2.52366e-05,0.0316791,0.00246862,-0.64004,-0.0825269,9.78902,0.0463394,-0.603983,0.984701,-0.00640114,-0.00083331,0.0978901,1,3.94155e-05,-3.98971e-06,2.52779e-05,0.0078831,-0.000797943,0.00505558,0.999495,2.52366e-05,0.0316791,0.00246862,0.0657007,0.525277,-0.988612,29.625,1,26527,2702839
74,3,0.999494,4.9054e-05,0.0316952,0.00262546,-0.632864,-0.0700045,9.78671,0.0529084,-0.596316,0.981997,-0.0063327,-0.000709349,0.0978668,1,4.72887e-05,-2.07613e-05,3.81652e-06,0.00945774,-0.00415227,0.000763305,0.999494,4.9054e-05,0.0316952,0.00262546,0.0648447,0.52328,-0.985622,29.625,1,26528,2702939
74,4,0.999494,4.9054e-05,0.0316952,0.00262546,-0.632864,-0.0700045,9.78671,0.0529084,-0.596316,0.981997,-0.0063327,-0.000709349,0.0978668,1,4.72887e-05,-2.07613e-05,3.81652e-06,0.00945774,-0.00415227,0.000763305,0.999494,4.9054e-05,0.0316952,0.00262546,0.0648447,0.52328,-0.985622,29.625,1,26528,2702939
74,5,0.999494,4.9054e-05,0.0316952,0.00262546,-0.632864,-0.0700045,9.78671,0.0529084,-0.596316,0.981997,-0.0063327,-0.000709349,0.0978668,1,4.72887e-05,-2.07613e-05,3.81652e-06,0.00945774,-0.00415227,0.000763305,0.999494,4.9054e-05,0.0316952,0.00262546,0.0648447,0.52328,-0.985622,29.625,1,26528,2702939
74,6,0.999495,9.59729e-05,0.0316731,0.00264386,-0.64061,-0.0916502,9.79438,0.0486563,-0.620966,0.993566,-0.00640685,-0.000927148,0.0979436,1,5.29811e-05,-4.03824e-06,2.09156e-05,0.0105962,-0.000807648,0.00418313,0.999495,9.59729e-05,0.0316731,0.00264386,0.0639556,0.520343,-0.984674,29.625,1,26529,2703039
75,1,0.999495,9.59729e-05,0.0316731,0.00264386,-0.64061,-0.0916502,9.79438,0.0486563,-0.620966,0.993566,-0.00640685,-0.000927148,0.0979436,1,5.29811e-05,-4.03824e-06,2.09156e-05,0.0105962,-0.000807648,0.00418313,0.999495,9.59729e-05,0.0316731,0.00264386,0.0639556,0.520343,-0.984674,29.625,1,26529,2703039
75,2,0.999495,9.59729e-05,0.0316731,0.00264386,-0.64061,-0.0916502,9.79438,0.0486563,-0.620966,0.993566,-0.00640685,-0.000927148,0.0979436,1,5.29811e-05,-4.03824e-06,2.09156e-05,0.0105962,-0.000807648,0.00418313,0.999495,9.59729e-05,0.0316731,0.00264386,0.0639556,0.520343,-0.984674,29.625,1,26529,2703039
75,3,0.999497,0.000149455,0.0316057,0.00245578,-0.636568,-0.0781752,9.79345,0.0510151,-0.606475,0.987114,-0.00636864,-0.000792993,0.0979342,1,5.67455e-05,-1.51563e-05,9.95789e-06,0.0113491,-0.00303125,0.00199158,0.999497,0.000149455,0.0316057,0.00245578,0.063919,0.521816,-0.985146,29.625,1,26530,2703139
75,4,0.999497,0.000149455,0.0316057,0.00245578,-0.636568,-0.0781752,9.79345,0.0510151,-0.606475,0.987114,-0.00636864,-0.000792993,0.0979342,1,5.67455e-05,-1.51563e-05,9.95789e-06,0.0113491,-0.00303125,0.00199158,0.999497,0.000149455,0.0316057,0.00245578,0.063919,0.521816,-0.985146,29.625,1,26530,2703139
75,5,0.999497,0.000149455,0.0316057,0.00245578,-0.636568,-0.0781752,9.79345,0.0510151,-0.606475,0.987114,-0.00636864,-0.000792993,0.0979342,1,5.67455e-05,-1.51563e-05,9.95789e-06,0.0113491,-0.00303125,0.00199158,0.999497,0.000149455,0.0316057,0.00245578,0.063919,0.521816,-0.985146,29.625,1,26530,2703139
75,6,0.999498,0.000175787,0.0315794,0.00243777,-0.640229,-0.0832009,9.7897,0.0455741,-0.609272,0.986812,-0.00640494,-0.000839381,0.0978968,1,3.67818e-05,-1.36122e-05,1.32954e-05,0.00735635,-0.00272243,0.00265908,0.999498,0.000175787,0.0315794,0.00243777,0.0657457,0.524762,-0.987109,29.625,1,26531,2703239
76,1,0.999498,0.000175787,0.0315794,0.00243777,-0.640229,-0.0832009,9.7897,0.0455741,-0.609272,0.986812,-0.00640494,-0.000839381,0.0978968,1,3.67818e-05,-1.36122e-05,1.32954e-05,0.00735635,-0.00272243,0.00265908,0.999498,0.000175787,0.0315794,0.00243777,0.0657457,0.524762,-0.987109,29.625,1,26531,2703239
76,2,0.999498,0.000175787,0.0315794,0.00243777,-0.640229,-0.0832009,9.7897,0.0455741,-0.609272,0.986812,-0.00640494,-0.000839381,0.0978968,1,3.67818e-05,-1.36122e-05,1.32954e-05,0.00735635,-0.00272243,0.00265908,0.999498,0.000175787,0.0315794,0.00243777,0.0657457,0.524762,-0.987109,29.625,1,26531,2703239
76,3,0.999498,0.000188808,0.0315893,0.00250986,-0.641651,-0.088046,9.79068,0.0405013,-0.618181,0.986432,-0.00641819,-0.000887333,0.0979066,1,3.42335e-05,-8.72116e-06,1.31856e-05,0.0068467,-0.00174423,0.00263712,0.999498,0.000188808,0.0315893,0.00250986,0.0666748,0.523815,-0.989154,29.625,1,26532,2703339
76,4,0.999498,0.000188808,0.0315893,0.00250986,-0.641651,-0.088046,9.79068,0.0405013,-0.618181,0.986432,-0.00641819,-0.000887333,0.0979066,1,3.42335e-05,-8.72116e-06,1.31856e-05,0.0068467,-0.00174423,0.00263712,0.999498,0.000188808,0.0315893,0.00250986,0.0666748,0.523815,-0.989154,29.625,1,26532,2703339
76,5,0.999498,0.000188808,0.0315893,0.00250986,-0.641651,-0.088046,9.79068,0.0405013,-0.618181,0.986432,-0.00641819,-0.000887333,0.0979066,1,3.42335e-05,-8.72116e-06,1.31856e-05,0.0068467,-0.00174423,0.00263712,0.999498,0.000188808,0.0315893,0.00250986,0.0666748,0.523815,-0.989154,29.625,1,26532,2703339
76,6,0.999497,0.000196195,0.031602,0.00254861,-0.645629,-0.0836754,9.79652,0.0370695,-0.613086,0.991288,-0.00645822,-0.000843251,0.0979651,1,3.19761e-05,-1.00416e-05,1.79892e-05,0.00639523,-0.00200832,0.00359784,0.999497,0.000196195,0.031602,0.00254861,0.0642772,0.523347,-0.989154,29.625,1,26533,2703439
77,1,0.999497,0.000196195,0.031602,0.00254861,-0.645629,-0.0836754,9.79652,0.0370695,-0.613086,0.991288,-0.00645822,-0.000843251,0.0979651,1,3.19761e-05,-1.00416e-05,1.79892e-05,0.00639523,-0.00200832,0.00359784,0.999497,0.000196195,0.031602,0.00254861,0.0642772,0.523347,-0.989154,29.625,1,26533,2703439
77,2,0.999497,0.000196195,0.031602,0.00254861,-0.645629,-0.0836754,9.79652,0.0370695,-0.613086,0.991288,-0.00645822,-0.000843251,0.0979651,1,3.19761e-05,-1.00416e-05,1.79892e-05,0.00639523,-0.00200832,0.00359784,0.999497,0.000196195,0.031602,0.00254861,0.0642772,0.523347,-0.989154,29.625,1,26533,2703439
77,3,0.999497,0.000198539,0.0316048,0.00258422,-0.632837,-0.0778986,9.78427,0.0518303,-0.607848,0.979942,-0.00633104,-0.000786386,0.0978425,1,3.78452e-05,-1.36327e-05,-5.1792e-07,0.00756904,-0.00272654,-0.000103584,0.999497,0.000198539,0.0316048,0.00258422,0.0619822,0.521841,-0.985641,29.625,1,26534,2703539
77,4,0.999497,0.000198539,0.0316048,0.00258422,-0.632837,-0.0778986,9.78427,0.0518303,-0.607848,0.979942,-0.00633104,-0.000786386,0.0978425,1,3.78452e-05,-1.36327e-05,-5.1792e-07,0.00756904,-0.00272654,-0.000103584,0.999497,0.000198539,0.0316048,0.00258422,0.0619822,0.521841,-0.985641,29.625,1,26534,2703539
77,5,0.999497,0.000198539,0.0316048,0.00258422,-0.632837,-0.0778986,9.78427,0.0518303,-0.607848,0.979942,-0.00633104,-0.000786386,0.0978425,1,3.78452e-05,-1.36327e-05,-5.1792e-07,0.00756904,-0.00272654,-0.000103584,0.999497,0.000198539,0.0316048,0.00258422,0.0619822,0.521841,-0.985641,29.625,1,26534,2703539
77,6,0.999498,0.000238582,0.03158,0.00260242,-0.644748,-0.0789036,9.78909,0.0410063,-0.609587,0.982593,-0.00644951,-0.000800856,0.0978907,1,5.94166e-05,-1.04904e-05,1.45545e-05,0.0118833,-0.00209808,0.00291091,0.999498,0.000238582,0.03158,0.00260242,0.0629649,0.521336,-0.985152,29.625,1,26535,2703639
78,1,0.999498,0.000238582,0.03158,0.00260242,-0.644748,-0.0789036,9.78909,0.0410063,-0.609587,0.982593,-0.00644951,-0.000800856,0.0978907,1,5.94166e-05,-1.04904e-05,1.45545e-05,0.0118833,-0.00209808,0.00291091,0.999498,0.000238582,0.03158,0.00260242,0.0629649,0.521336,-0.985152,29.625,1,26535,2703639
78,2,0.999498,0.000238582,0.03158,0.00260242,-0.644748,-0.0789036,9.78909,0.0410063,-0.609587,0.982593,-0.00644951,-0.000800856,0.0978907,1,5.94166e-05,-1.04904e-05,1.45545e-05,0.0118833,-0.00209808,0.00291091,0.999498,0.000238582,0.03158,0.00260242,0.0629649,0.521336,-0.985152,29.625,1,26535,2703639
78,3,0.999498,0.000276977,0.0315633,0.00258761,-0.638408,-0.0798953,9.78598,0.0448009,-0.608269,0.983691,-0.00638482,-0.000808684,0.0978596,1,4.90322e-05,-3.84812e-06,1.04775e-05,0.00980645,-0.000769625,0.0020955,0.999498,0.000276977,0.0315633,0.00258761,0.0662923,0.523747,-0.985114,29.625,1,26536,2703739
78,4,0.999498,0.000276977,0.0315633,0.00258761,-0.638408,-0.0798953,9.78598,0.0448009,-0.608269,0.983691,-0.00638482,-0.000808684,0.0978596,1,4.90322e-05,-3.84812e-06,1.04775e-05,0.00980645,-0.000769625,0.0020955,0.999498,0.000276977,0.0315633,0.00258761,0.0662923,0.523747,-0.985114,29.625,1,26536,2703739
78,5,0.999498,0.000276977,0.0315633,0.00258761,-0.638408,-0.0798953,9.78598,0.0448009,-0.608269,0.983691,-0.00638482,-0.000808684,0.0978596,1,4.90322e-05,-3.84812e-06,1.04775e-05,0.00980645,-0.000769625,0.0020955,0.999498,0.000276977,0.0315633,0.00258761,0.0662923,0.523747,-0.985114,29.625,1,26536,2703739
78,6,0.999498,0.000321965,0.0315576,0.00260368,-0.649476,-0.080671,9.78368,0.0351598,-0.611149,0.978006,-0.00649749,-0.000817103,0.0978365,1,5.2251e-05,-1.40742e-05,1.29992e-05,0.0104502,-0.00281483,0.00259984,0.999498,0.000321965,0.0315576,0.00260368,0.0661984,0.525743,-0.987594,29.625,1,26537,2703839
79,1,0.999498,0.000321965,0.0315576,0.00260368,-0.649476,-0.080671,9.78368,0.0351598,-0.611149,0.978006,-0.00649749,-0.000817103,0.0978365,1,5.2251e-05,-1.40742e-05,1.29992e-05,0.0104502,-0.00281483,0.00259984,0.999498,0.000321965,0.0315576,0.00260368,0.0661984,0.525743,-0.987594,29.625,1,26537,2703839
79,2,0.999498,0.000321965,0.0315576,0.00260368,-0.649476,-0.080671,9.78368,0.0351598,-0.611149,0.978006,-0.00649749,-0.000817103,0.0978365,1,5.2251e-05,-1.40742e-05,1.29992e-05,0.0104502,-0.00281483,0.00259984,0.999498,0.000321965,0.0315576,0.00260368,0.0661984,0.525743,-0.987594,29.625,1,26537,2703839
79,3,0.999498,0.000337999,0.0315802,0.00267178,-0.639416,-0.0806588,9.79344,0.0509662,-0.610786,0.987712,-0.00639427,-0.000815545,0.0979343,1,4.54336e-05,-6.29794e-07,4.54325e-06,0.00908672,-0.000125959,0.000908651,0.999498,0.000337999,0.0315802,0.00267178,0.0657002,0.523832,-0.989655,29.625,1,26538,2703939
79,4,0.999498,0.000337999,0.0315802,0.00267178,-0.639416,-0.0806588,9.79344,0.0509662,-0.610786,0.987712,-0.00639427,-0.000815545,0.0979343,1,4.54336e-05,-6.29794e-07,4.54325e-06,0.00908672,-0.000125959,0.000908651,0.999498,0.000337999,0.0315802,0.00267178,0.0657002,0.523832,-0.989655,29.625,1,26538,2703939
79,5,0.999498,0.000337999,0.0315802,0.00267178,-0.639416,-0.0806588,9.79344,0.0509662,-0.610786,0.987712,-0.00639427,-0.000815545,0.0979343,1,4.54336e-05,-6.29794e-07,4.54325e-06,0.00908672,-0.000125959,0.000908651,0.999498,0.000337999,0.0315802,0.00267178,0.0657002,0.523832,-0.989655,29.625,1,26538,2703939
79,6,0.999497,0.000333627,0.0315858,0.00272467,-0.651717,-0.0871294,9.79246,0.0324781,-0.624021,0.989436,-0.0065204,-0.000877792,0.0979244,1,3.16278e-05,-1.668e-05,2.3348e-05,0.00632557,-0.00333599,0.0046696,0.999497,0.000333627,0.0315858,0.00272467,0.0657249,0.523814,-0.988645,29.625,1,26539,2704039
80,1,0.999497,0.000333627,0.0315858,0.00272467,-0.651717,-0.0871294,9.79246,0.0324781,-0.624021,0.989436,-0.0065204,-0.000877792,0.0979244,1,3.16278e-05,-1.668e-05,2.3348e-05,0.00632557,-0.00333599,0.0046696,0.999497,0.000333627,0.0315858,0.00272467,0.0657249,0.523814,-0.988645,29.625,1,26539,2704039
80,2,0.999497,0.000333627,0.0315858,0.00272467,-0.651717,-0.0871294,9.79246,0.0324781,-0.624021,0.989436,-0.0065204,-0.000877792,0.0979244,1,3.16278e-05,-1.668e-05,2.3348e-05,0.00632557,-0.00333599,0.0046696,0.999497,0.000333627,0.0315858,0.00272467,0.0657249,0.523814,-0.988645,29.625,1,26539,2704039
80,3,0.999497,0.000343888,0.0316074,0.00278107,-0.635668,-0.0718315,9.79824,0.0495293,-0.609881,0.993827,-0.00635582,-0.000726523,0.0979824,1,3.98961e-05,4.20416e-06,3.06366e-05,0.00797923,0.000840833,0.00612732,0.999497,0.000343888,0.0316074,0.00278107,0.0647792,0.524292,-0.98762,29.625,1,26540,2704139
80,4,0.999497,0.000343888,0.0316074,0.00278107,-0.635668,-0.0718315,9.79824,0.0495293,-0.609881,0.993827,-0.00635582,-0.000726523,0.0979824,1,3.98961e-05,4.20416e-06,3.06366e-05,0.00797923,0.000840833,0.00612732,0.999497,0.000343888,0.0316074,0.00278107,0.0647792,0.524292,-0.98762,29.625,1,26540,2704139
80,5,0.999497,0.000343888,0.0316074,0.00278107,-0.635668,-0.0718315,9.79824,0.0495293,-0.609881,0.993827,-0.00635582,-0.000726523,0.0979824,1,3.98961e-05,4.20416e-06,3.06366e-05,0.00797923,0.000840833,0.00612732,0.999497,0.000343888,0.0316074,0.00278107,0.0647792,0.524292,-0.98762,29.625,1,26540,2704139
80,6,0.999496,0.000370644,0.0316147,0.00284907,-0.647867,-0.0867976,9.78497,0.0352226,-0.617193,0.984724,-0.0064796,-0.000878905,0.0978495,1,5.49909e-05,-4.87263e-06,1.29063e-05,0.0109982,-0.000974526,0.00258127,0.999496,0.000370644,0.0316147,0.00284907,0.0643513,0.523293,-0.986125,29.625,1,26541,2704239
81,1,0.999496,0.000370644,0.0316147,0.00284907,-0.647867,-0.0867976,9.78497,0.0352226,-0.617193,0.984724,-0.0064796,-0.000878905,0.0978495,1,5.49909e-05,-4.87263e-06,1.29063e-05,0.0109982,-0.000974526,0.00258127,0.999496,0.000370644,0.0316147,0.00284907,0.0643513,0.523293,-0.986125,29.625,1,26541,2704239
81,2,0.999496,0.000370644,0.0316147,0.00284907,-0.647867,-0.0867976,9.78497,0.0352226,-0.617193,0.984724,-0.0064796,-0.000878905,0.0978495,1,5.49909e-05,-4.87263e-06,1.29063e-05,0.0109982,-0.000974526,0.00258127,0.999496,0.000370644,0.0316147,0.00284907,0.0643513,0.523293,-0.986125,29.625,1,26541,2704239
81,3,0.999496,0.000396838,0.0316131,0.00289238,-0.637664,-0.0901887,9.78826,0.0456587,-0.625506,0.983713,-0.0063768,-0.000910564,0.0978825,1,4.29115e-05,-9.68403e-07,2.16292e-05,0.00858231,-0.000193681,0.00432583,0.999496,0.000396838,0.0316131,0.00289238,0.0657789,0.525702,-0.985068,29.625,1,26542,2704339
81,4,0.999496,0.000396838,0.0316131,0.00289238,-0.637664,-0.0901887,9.78826,0.0456587,-0.625506,0.983713,-0.0063768,-0.000910564,0.0978825,1,4.29115e-05,-9.68403e-07,2.16292e-05,0.00858231,-0.000193681,0.00432583,0.999496,0.000396838,0.0316131,0.00289238,0.0657789,0.525702,-0.985068,29.625,1,26542,2704339
81,5,0.999496,0.000396838,0.0316131,0.00289238,-0.637664,-0.0901887,9.78826,0.0456587,-0.625506,0.983713,-0.0063768,-0.000910564,0.0978825,1,4.29115e-05,-9.68403e-07,2.16292e-05,0.00858231,-0.000193681,0.00432583,0.999496,0.000396838,0.0316131,0.00289238,0.0657789,0.525702,-0.985068,29.625,1,26542,2704339
81,6,0.999495,0.000434324,0.0316216,0.00298586,-0.647834,-0.0881956,9.78631,0.0374481,-0.622602,0.978487,-0.00647856,-0.000892254,0.097863,1,5.15767e-05,-1.27605e-06,1.57057e-05,0.0103153,-0.00025521,0.00314114,0.999495,0.000434324,0.0316216,0.00298586,0.0662069,0.5267,-0.986563,29.625,1,26543,2704439
82,1,0.999495,0.000434324,0.0316216,0.00298586,-0.647834,-0.0881956,9.78631,0.0374481,-0.622602,0.978487,-0.00647856,-0.000892254,0.097863,1,5.15767e-05,-1.27605e-06,1.57057e-05,0.0103153,-0.00025521,0.00314114,0.999495,0.000434324,0.0316216,0.00298586,0.0662069,0.5267,-0.986563,29.625,1,26543,2704439
82,2,0.999495,0.000434324,0.0316216,0.00298586,-0.647834,-0.0881956,9.78631,0.0374481,-0.622602,0.978487,-0.00647856,-0.000892254,0.097863,1,5.15767e-05,-1.27605e-06,1.57057e-05,0.0103153,-0.00025521,0.00314114,0.999495,0.000434324,0.0316216,0.00298586,0.0662069,0.5267,-0.986563,29.625,1,26543,2704439
82,3,0.999495,0.000445171,0.0316374,0.00311538,-0.640694,-0.0842632,9.78596,0.0490262,-0.621064,0.979071,-0.00640829,-0.000850069,0.0978594,1,3.73833e-05,-6.99435e-06,9.33366e-06,0.00747666,-0.00139887,0.00186673,0.999495,0.000445171,0.0316374,0.00311538,0.0657045,0.524311,-0.989139,29.625,1,26544,2704539
82,4,0.999495,0.000445171,0.0316374,0.00311538,-0.640694,-0.0842632,9.78596,0.0490262,-0.621064,0.979071,-0.00640829,-0.000850069,0.0978594,1,3.73833e-05,-6.99435e-06,9.33366e-06,0.00747666,-0.00139887,0.00186673,0.999495,0.000445171,0.0316374,0.00311538,0.0657045,0.524311,-0.989139,29.625,1,26544,2704539
82,5,0.999495,0.000445171,0.0316374,0.00311538,-0.640694,-0.0842632,9.78596,0.0490262,-0.621064,0.979071,-0.00640829,-0.000850069,0.0978594,1,3.73833e-05,-6.99435e-06,9.33366e-06,0.00747666,-0.00139887,0.00186673,0.999495,0.000445171,0.0316374,0.00311538,0.0657045,0.524311,-0.989139,29.625,1,26544,2704539
82,6,0.999494,0.00045996,0.031651,0.00317332,-0.642394,-0.0834391,9.78632,0.0414757,-0.622505,0.982406,-0.00642562,-0.000844259,0.097863,1,4.9308e-05,-8.71703e-06,1.68886e-05,0.00986159,-0.00174341,0.00337773,0.999494,0.00045996,0.031651,0.00317332,0.0628135,0.523856,-0.989641,29.625,1,26545,2704639
83,1,0.999494,0.00045996,0.031651,0.00317332,-0.642394,-0.0834391,9.78632,0.0414757,-0.622505,0.982406,-0.00642562,-0.000844259,0.097863,1,4.9308e-05,-8.71703e-06,1.68886e-05,0.00986159,-0.00174341,0.00337773,0.999494,0.00045996,0.031651,0.00317332,0.0628135,0.523856,-0.989641,29.625,1,26545,2704639
83,2,0.999494,0.00045996,0.031651,0.00317332,-0.642394,-0.0834391,9.78632,0.0414757,-0.622505,0.982406,-0.00642562,-0.000844259,0.097863,1,4.9308e-05,-8.71703e-06,1.68886e-05,0.00986159,-0.00174341,0.00337773,0.999494,0.00045996,0.031651,0.00317332,0.0628135,0.523856,-0.989641,29.625,1,26545,2704639
83,3,0.999493,0.000463149,0.0316582,0.00326003,-0.631572,-0.0750069,9.78157,0.0574934,-0.613244,0.976059,-0.00631718,-0.000760317,0.0978156,1,5.10552e-05,-7.59748e-06,2.05522e-05,0.010211,-0.0015195,0.00411045,0.999493,0.000463149,0.0316582,0.00326003,0.0624183,0.522352,-0.987147,29.625,1,26546,2704739
83,4,0.999493,0.000463149,0.0316582,0.00326003,-0.631572,-0.0750069,9.78157,0.0574934,-0.613244,0.976059,-0.00631718,-0.000760317,0.0978156,1,5.10552e-05,-7.59748e-06,2.05522e-05,0.010211,-0.0015195,0.00411045,0.999493,0.000463149,0.0316582,0.00326003,0.0624183,0.522352,-0.987147,29.625,1,26546,2704739
83,5,0.999493,0.000463149,0.0316582,0.00326003,-0.631572,-0.0750069,9.78157,0.0574934,-0.613244,0.976059,-0.00631718,-0.000760317,0.0978156,1,5.10552e-05,-7.59748e-06,2.05522e-05,0.010211,-0.0015195,0.00411045,0.999493,0.000463149,0.0316582,0.00326003,0.0624183,0.522352,-0.987147,29.625,1,26546,2704739
