frame_id,imu_idx,accel_x,accel_y,accel_z,free_accel_x,free_accel_y,free_accel_z,delta_v_x,delta_v_y,delta_v_z,delta_q_w,delta_q_x,delta_q_y,delta_q_z,rate_x,rate_y,rate_z,quat_w,quat_x,quat_y,quat_z,mag_x,mag_y,mag_z,temperature,status_byte,packet_counter,time_fine
22866,1,-0.701478,-0.0411645,9.78443,-0.266358,-1.70266,0.96645,-0.00701721,-0.000420281,0.0978441,1,4.26005e-05,-1.25339e-05,2.13349e-05,0.00852009,-0.00250677,0.00426698,0,0,0,0,0.0426909,0.310493,-1.13722,33.125,3,10024,20856748
22866,2,-0.530364,-0.0810669,7.33398,-0.266358,-1.70266,0.96645,-0.0053027,-0.000816509,0.0733398,1,3.91585e-05,6.28808e-06,9.14905e-06,0.0078317,0.00125762,0.00182981,0,0,0,0,0.0801864,0.521264,-0.989273,33.5625,1,18072,28216637
22866,3,-0.530364,-0.0810669,7.33398,-0.266358,-1.70266,0.96645,-0.0053027,-0.000816509,0.0733398,1,3.91585e-05,6.28808e-06,9.14905e-06,0.0078317,0.00125762,0.00182981,0,0,0,0,0.0801864,0.521264,-0.989273,33.5625,1,18072,28216637
22866,4,-0.674632,-0.0938044,9.78771,0.0961554,-0.485217,1.00043,-0.0067478,-0.00094736,0.097877,1,4.62403e-05,-7.77465e-06,1.95762e-05,0.00924806,-0.00155493,0.00391523,0,0,0,0,0.0786368,0.523281,-0.992252,33.5625,1,18073,28216737
1,1,-0.674632,-0.0938044,9.78771,0.0961554,-0.485217,1.00043,-0.0067478,-0.00094736,0.097877,1,4.62403e-05,-7.77465e-06,1.95762e-05,0.00924806,-0.00155493,0.00391523,0,0,0,0,0.0786368,0.523281,-0.992252,33.5625,1,18073,28216737
1,2,-0.679299,-0.0820108,9.79191,0.0933587,-0.475362,1.00493,-0.00679288,-0.000830119,0.097919,1,4.94923e-05,3.92993e-07,2.34097e-05,0.00989847,7.85986e-05,0.00468195,0,0,0,0,0.0775716,0.522883,-0.996801,33.5625,1,18074,28216837
1,3,-0.679299,-0.0820108,9.79191,0.0933587,-0.475362,1.00493,-0.00679288,-0.000830119,0.097919,1,4.94923e-05,3.92993e-07,2.34097e-05,0.00989847,7.85986e-05,0.00468195,0,0,0,0,0.0775716,0.522883,-0.996801,33.5625,1,18074,28216837
1,4,-0.694504,-0.0804233,9.78932,0.0762343,-0.476185,1.0129,-0.00694658,-0.000812176,0.097893,1,3.87487e-05,-8.09321e-06,2.56634e-05,0.00774973,-0.00161864,0.00513269,0,0,0,0,0.0761643,0.519977,-0.997365,33.5625,1,18075,28216937
2,1,-0.694504,-0.0804233,9.78932,0.0762343,-0.476185,1.0129,-0.00694658,-0.000812176,0.097893,1,3.87487e-05,-8.09321e-06,2.56634e-05,0.00774973,-0.00161864,0.00513269,0,0,0,0,0.0761643,0.519977,-0.997365,33.5625,1,18075,28216937
2,2,-0.685578,-0.08876,9.78715,0.0880035,-0.485505,1.00731,-0.00685849,-0.000899739,0.0978712,1,6.14523e-05,-1.39272e-05,8.03546e-06,0.0122905,-0.00278544,0.00160709,0,0,0,0,0.0753411,0.517474,-0.993376,33.5625,1,18076,28217037
2,3,-0.685578,-0.08876,9.78715,0.0880035,-0.485505,1.00731,-0.00685849,-0.000899739,0.0978712,1,6.14523e-05,-1.39272e-05,8.03546e-06,0.0122905,-0.00278544,0.00160709,0,0,0,0,0.0753411,0.517474,-0.993376,33.5625,1,18076,28217037
2,4,-0.687586,-0.0888869,9.7831,0.0858294,-0.485801,1.00255,-0.00688045,-0.00089711,0.0978306,1,4.05424e-05,-2.36609e-05,2.24394e-05,0.00810849,-0.00473218,0.00448789,0,0,0,0,0.075399,0.518396,-0.990325,33.5625,1,18077,28217137
3,1,-0.687586,-0.0888869,9.7831,0.0858294,-0.485801,1.00255,-0.00688045,-0.00089711,0.0978306,1,4.05424e-05,-2.36609e-05,2.24394e-05,0.00810849,-0.00473218,0.00448789,0,0,0,0,0.075399,0.518396,-0.990325,33.5625,1,18077,28217137
3,2,-0.672993,-0.0829818,9.79458,0.101543,-0.478433,1.00705,-0.00673223,-0.000840003,0.0979455,1,5.04535e-05,-1.19638e-05,2.23964e-05,0.0100907,-0.00239275,0.00447927,0,0,0,0,0.0782781,0.520305,-0.989286,33.5625,1,18078,28217237
3,3,-0.672993,-0.0829818,9.79458,0.101543,-0.478433,1.00705,-0.00673223,-0.000840003,0.0979455,1,5.04535e-05,-1.19638e-05,2.23964e-05,0.0100907,-0.00239275,0.00447927,0,0,0,0,0.0782781,0.520305,-0.989286,33.5625,1,18078,28217237
3,4,-0.68089,-0.0800458,9.79296,0.0914762,-0.479567,1.00247,-0.00681116,-0.000808299,0.0979294,1,3.89628e-05,-1.16823e-05,1.53968e-05,0.00779256,-0.00233647,0.00307936,0,0,0,0,0.0795824,0.522804,-0.993277,33.5625,1,18079,28217337
7,1,-0.68089,-0.0800458,9.79296,0.0914762,-0.479567,1.00247,-0.00681116,-0.000808299,0.0979294,1,3.89628e-05,-1.16823e-05,1.53968e-05,0.00779256,-0.00233647,0.00307936,0,0,0,0,0.0795824,0.522804,-0.993277,33.5625,1,18079,28217337
7,2,-0.685787,-0.0884052,9.78547,0.0805896,-0.484914,0.997345,-0.00686198,-0.000891634,0.0978543,1,3.72289e-05,-2.1184e-05,2.15632e-05,0.00744579,-0.00423681,0.00431265,0,0,0,0,0.078501,0.52338,-0.997805,33.5625,1,18080,28217437
7,3,-0.685787,-0.0884052,9.78547,0.0805896,-0.484914,0.997345,-0.00686198,-0.000891634,0.0978543,1,3.72289e-05,-2.1184e-05,2.15632e-05,0.00744579,-0.00423681,0.00431265,0,0,0,0,0.078501,0.52338,-0.997805,33.5625,1,18080,28217437
7,4,-0.683124,-0.088638,9.79087,0.0880514,-0.491308,1.01313,-0.00683503,-0.00089388,0.0979084,1,3.68283e-05,-1.95614e-05,2.1087e-05,0.00736566,-0.00391228,0.0042174,0,0,0,0,0.0761112,0.52098,-0.998857,33.5625,1,18081,28217537
8,1,-0.683124,-0.088638,9.79087,0.0880514,-0.491308,1.01313,-0.00683503,-0.00089388,0.0979084,1,3.68283e-05,-1.95614e-05,2.1087e-05,0.00736566,-0.00391228,0.0042174,0,0,0,0,0.0761112,0.52098,-0.998857,33.5625,1,18081,28217537
8,2,-0.688052,-0.085457,9.78786,0.0787447,-0.483097,1.00837,-0.0068833,-0.000863074,0.0978784,1,4.247e-05,-1.43162e-05,1.38213e-05,0.00849401,-0.00286324,0.00276425,0,0,0,0,0.0767598,0.51748,-0.994392,33.5625,1,18082,28217637
8,3,-0.688052,-0.085457,9.78786,0.0787447,-0.483097,1.00837,-0.0068833,-0.000863074,0.0978784,1,4.247e-05,-1.43162e-05,1.38213e-05,0.00849401,-0.00286324,0.00276425,0,0,0,0,0.0767598,0.51748,-0.994392,33.5625,1,18082,28217637
8,4,-0.686223,-0.0865525,9.79023,0.0876626,-0.49216,1.01175,-0.00686573,-0.000875036,0.0979019,1,4.73093e-05,-1.80323e-05,1.80397e-05,0.00946186,-0.00360646,0.00360794,0,0,0,0,0.0758554,0.51841,-0.991337,33.5625,1,18083,28217737
9,1,-0.686223,-0.0865525,9.79023,0.0876626,-0.49216,1.01175,-0.00686573,-0.000875036,0.0979019,1,4.73093e-05,-1.80323e-05,1.80397e-05,0.00946186,-0.00360646,0.00360794,0,0,0,0,0.0758554,0.51841,-0.991337,33.5625,1,18083,28217737
9,2,-0.677354,-0.0844057,9.79392,0.0946142,-0.485892,1.01197,-0.00677615,-0.000853462,0.0979389,1,4.55494e-05,-1.36791e-05,3.56582e-05,0.00910987,-0.00273583,0.00713164,0,0,0,0,0.0772746,0.519861,-0.991312,33.5625,1,18084,28217837
10,1,-0.677354,-0.0844057,9.79392,0.0946142,-0.485892,1.01197,-0.00677615,-0.000853462,0.0979389,1,4.55494e-05,-1.36791e-05,3.56582e-05,0.00910987,-0.00273583,0.00713164,0,0,0,0,0.0772746,0.519861,-0.991312,33.5625,1,18084,28217837
10,2,-0.684426,-0.0910488,9.79662,0.0849904,-0.492038,1.01098,-0.00684777,-0.000918315,0.0979659,1,3.8391e-05,-1.81087e-05,2.22418e-05,0.00767819,-0.00362173,0.00444837,0,0,0,0,0.0800502,0.519918,-0.995869,33.5625,1,18085,28217937
10,3,-0.684426,-0.0910488,9.79662,0.0849904,-0.492038,1.01098,-0.00684777,-0.000918315,0.0979659,1,3.8391e-05,-1.81087e-05,2.22418e-05,0.00767819,-0.00362173,0.00444837,0,0,0,0,0.0800502,0.519918,-0.995869,33.5625,1,18085,28217937
10,4,-0.672945,-0.0864647,9.79217,0.0988049,-0.492938,1.00483,-0.00673386,-0.000873021,0.0979214,1,4.14437e-05,-2.26758e-05,1.91594e-05,0.00828875,-0.00453517,0.00383187,0,0,0,0,0.0799639,0.519981,-0.999402,33.5625,1,18086,28218037
11,1,-0.672945,-0.0864647,9.79217,0.0988049,-0.492938,1.00483,-0.00673386,-0.000873021,0.0979214,1,4.14437e-05,-2.26758e-05,1.91594e-05,0.00828875,-0.00453517,0.00383187,0,0,0,0,0.0799639,0.519981,-0.999402,33.5625,1,18086,28218037
11,2,-0.667218,-0.0822996,9.79522,0.101431,-0.487951,1.01345,-0.00667561,-0.000830916,0.0979519,1,4.0112e-05,-1.7535e-05,4.55996e-06,0.00802241,-0.00350699,0.000911993,0,0,0,0,0.0775991,0.519008,-0.998403,33.5625,1,18087,28218137
11,3,-0.667218,-0.0822996,9.79522,0.101431,-0.487951,1.01345,-0.00667561,-0.000830916,0.0979519,1,4.0112e-05,-1.7535e-05,4.55996e-06,0.00802241,-0.00350699,0.000911993,0,0,0,0,0.0775991,0.519008,-0.998403,33.5625,1,18087,28218137
11,4,-0.685747,-0.09346,9.79153,0.0791362,-0.501275,1.01379,-0.00686221,-0.000942362,0.0979149,1,3.87802e-05,-2.43579e-05,1.2217e-05,0.00775605,-0.00487158,0.0024434,0,0,0,0,0.0758218,0.516025,-0.99442,33.5625,1,18088,28218237
12,1,-0.685747,-0.09346,9.79153,0.0791362,-0.501275,1.01379,-0.00686221,-0.000942362,0.0979149,1,3.87802e-05,-2.43579e-05,1.2217e-05,0.00775605,-0.00487158,0.0024434,0,0,0,0,0.0758218,0.516025,-0.99442,33.5625,1,18088,28218237
12,2,-0.686028,-0.08498,9.79125,0.0864172,-0.49014,1.00974,-0.00686133,-0.000862144,0.0979123,1,6.10108e-05,-5.61214e-06,2.88824e-05,0.0122022,-0.00112243,0.00577647,0,0,0,0,0.0749378,0.516457,-0.990871,33.5625,1,18089,28218337
12,3,-0.686028,-0.08498,9.79125,0.0864172,-0.49014,1.00974,-0.00686133,-0.000862144,0.0979123,1,6.10108e-05,-5.61214e-06,2.88824e-05,0.0122022,-0.00112243,0.00577647,0,0,0,0,0.0749378,0.516457,-0.990871,33.5625,1,18089,28218337
12,4,-0.67409,-0.0905518,9.7901,0.097478,-0.494642,1.00653,-0.00674221,-0.000914307,0.0979009,1,4.41056e-05,-6.79303e-06,1.13418e-05,0.00882111,-0.00135861,0.00226836,0,0,0,0,0.077332,0.519337,-0.989303,33.5625,1,18090,28218437
10,1,-0.67409,-0.0905518,9.7901,0.097478,-0.494642,1.00653,-0.00674221,-0.000914307,0.0979009,1,4.41056e-05,-6.79303e-06,1.13418e-05,0.00882111,-0.00135861,0.00226836,0,0,0,0,0.077332,0.519337,-0.989303,33.5625,1,18090,28218437
10,2,-0.685,-0.0820251,9.78992,0.0829869,-0.483687,1.00307,-0.00685074,-0.00083055,0.097899,1,5.15487e-05,-3.9266e-06,1.50072e-05,0.0103097,-0.000785319,0.00300144,0,0,0,0,0.0786287,0.523769,-0.992241,33.5625,1,18091,28218537
10,3,-0.685,-0.0820251,9.78992,0.0829869,-0.483687,1.00307,-0.00685074,-0.00083055,0.097899,1,5.15487e-05,-3.9266e-06,1.50072e-05,0.0103097,-0.000785319,0.00300144,0,0,0,0,0.0786287,0.523769,-0.992241,33.5625,1,18091,28218537
10,4,-0.680817,-0.0852189,9.77596,0.0854727,-0.498256,0.987121,-0.00681194,-0.000863235,0.0977593,1,5.4937e-05,-1.94515e-05,2.23478e-05,0.0109874,-0.0038903,0.00446956,0,0,0,0,0.077592,0.522386,-0.996307,33.5625,1,18092,28218637
14,1,-0.680817,-0.0852189,9.77596,0.0854727,-0.498256,0.987121,-0.00681194,-0.000863235,0.0977593,1,5.4937e-05,-1.94515e-05,2.23478e-05,0.0109874,-0.0038903,0.00446956,0,0,0,0,0.077592,0.522386,-0.996307,33.5625,1,18092,28218637
14,2,-0.678782,-0.0834349,9.78512,0.0843709,-0.500866,1.00328,-0.00679062,-0.000840895,0.0978509,1,3.22276e-05,-1.44857e-05,1.76038e-05,0.00644552,-0.00289714,0.00352076,0,0,0,0,0.0771261,0.518524,-0.998411,33.5625,1,18093,28218737
14,3,-0.678782,-0.0834349,9.78512,0.0843709,-0.500866,1.00328,-0.00679062,-0.000840895,0.0978509,1,3.22276e-05,-1.44857e-05,1.76038e-05,0.00644552,-0.00289714,0.00352076,0,0,0,0,0.0771261,0.518524,-0.998411,33.5625,1,18093,28218737
14,4,-0.683976,-0.092266,9.78371,0.0864526,-0.507909,1.00274,-0.00684028,-0.000931522,0.097837,1,4.40106e-05,-2.85895e-06,1.82297e-05,0.00880212,-0.00057179,0.00364594,0,0,0,0,0.0762905,0.51603,-0.994928,33.5625,1,18094,28218837
15,1,-0.683976,-0.092266,9.78371,0.0864526,-0.507909,1.00274,-0.00684028,-0.000931522,0.097837,1,4.40106e-05,-2.85895e-06,1.82297e-05,0.00880212,-0.00057179,0.00364594,0,0,0,0,0.0762905,0.51603,-0.994928,33.5625,1,18094,28218837
15,2,-0.6808,-0.0783692,9.79705,0.0881606,-0.490185,1.01696,-0.00681127,-0.000791718,0.0979702,1,3.94639e-05,-1.68941e-05,2.15825e-05,0.00789278,-0.00337883,0.00431649,0,0,0,0,0.0759162,0.515474,-0.990898,33.5625,1,18095,28218937
15,3,-0.6808,-0.0783692,9.79705,0.0881606,-0.490185,1.01696,-0.00681127,-0.000791718,0.0979702,1,3.94639e-05,-1.68941e-05,2.15825e-05,0.00789278,-0.00337883,0.00431649,0,0,0,0,0.0759162,0.515474,-0.990898,33.5625,1,18095,28218937
15,4,-0.689016,-0.0810477,9.78622,0.0813069,-0.490956,1.00041,-0.00689274,-0.000818566,0.097862,1,3.98923e-05,-1.33236e-05,2.03829e-05,0.00797845,-0.00266472,0.00407657,0,0,0,0,0.0773401,0.518849,-0.989314,33.5625,1,18096,28219037
16,1,-0.689016,-0.0810477,9.78622,0.0813069,-0.490956,1.00041,-0.00689274,-0.000818566,0.097862,1,3.98923e-05,-1.33236e-05,2.03829e-05,0.00797845,-0.00266472,0.00407657,0,0,0,0,0.0773401,0.518849,-0.989314,33.5625,1,18096,28219037
16,2,-0.673377,-0.0842174,9.79355,0.0934181,-0.494031,1.0026,-0.00673531,-0.000848347,0.0979353,1,3.03034e-05,-8.04114e-06,1.75777e-05,0.00606068,-0.00160823,0.00351554,0,0,0,0,0.0791302,0.523268,-0.991749,33.5625,1,18097,28219137
16,3,-0.673377,-0.0842174,9.79355,0.0934181,-0.494031,1.0026,-0.00673531,-0.000848347,0.0979353,1,3.03034e-05,-8.04114e-06,1.75777e-05,0.00606068,-0.00160823,0.00351554,0,0,0,0,0.0791302,0.523268,-0.991749,33.5625,1,18097,28219137
16,4,-0.694178,-0.0772685,9.7907,0.0749556,-0.495577,1.00275,-0.00694497,-0.000783535,0.0979066,1,5.44916e-05,-1.64249e-05,1.29606e-05,0.0108983,-0.00328498,0.00259212,0,0,0,0,0.0795041,0.522379,-0.996821,33.5625,1,18098,28219237
17,1,-0.694178,-0.0772685,9.7907,0.0749556,-0.495577,1.00275,-0.00694497,-0.000783535,0.0979066,1,5.44916e-05,-1.64249e-05,1.29606e-05,0.0108983,-0.00328498,0.00259212,0,0,0,0,0.0795041,0.522379,-0.996821,33.5625,1,18098,28219237
17,2,-0.677485,-0.0803863,9.79124,0.091148,-0.502553,1.0072,-0.00677642,-0.000811,0.0979122,1,3.5029e-05,-8.17882e-06,2.04257e-05,0.00700579,-0.00163576,0.00408514,0,0,0,0,0.0766245,0.519025,-0.998903,33.5625,1,18099,28219337
17,3,-0.677485,-0.0803863,9.79124,0.091148,-0.502553,1.0072,-0.00677642,-0.000811,0.0979122,1,3.5029e-05,-8.17882e-06,2.04257e-05,0.00700579,-0.00163576,0.00408514,0,0,0,0,0.0766245,0.519025,-0.998903,33.5625,1,18099,28219337
17,4,-0.672729,-0.0826111,9.78678,0.0932757,-0.502898,1.00464,-0.00672939,-0.000834527,0.0978676,1,4.20455e-05,-1.08555e-05,1.38562e-05,0.0084091,-0.0021711,0.00277124,0,0,0,0,0.0753202,0.516526,-0.994912,33.5625,1,18100,28219437
18,1,-0.672729,-0.0826111,9.78678,0.0932757,-0.502898,1.00464,-0.00672939,-0.000834527,0.0978676,1,4.20455e-05,-1.08555e-05,1.38562e-05,0.0084091,-0.0021711,0.00277124,0,0,0,0,0.0753202,0.516526,-0.994912,33.5625,1,18100,28219437
18,2,-0.682188,-0.0925658,9.782,0.081072,-0.508824,1.00093,-0.00682381,-0.000934064,0.0978198,1,4.17084e-05,-1.00542e-05,1.80285e-05,0.00834169,-0.00201084,0.00360569,0,0,0,0,0.0754398,0.517402,-0.989337,33.5625,1,18101,28219537
18,3,-0.682188,-0.0925658,9.782,0.081072,-0.508824,1.00093,-0.00682381,-0.000934064,0.0978198,1,4.17084e-05,-1.00542e-05,1.80285e-05,0.00834169,-0.00201084,0.00360569,0,0,0,0,0.0754398,0.517402,-0.989337,33.5625,1,18101,28219537
18,4,-0.680753,-0.0923762,9.79794,0.0859357,-0.512486,1.0132,-0.00680888,-0.000933288,0.0979792,1,4.73839e-05,-7.02779e-06,1.77025e-05,0.00947677,-0.00140556,0.0035405,0,0,0,0,0.077834,0.520282,-0.987769,33.5625,1,18102,28219637
19,1,-0.680753,-0.0923762,9.79794,0.0859357,-0.512486,1.0132,-0.00680888,-0.000933288,0.0979792,1,4.73839e-05,-7.02779e-06,1.77025e-05,0.00947677,-0.00140556,0.0035405,0,0,0,0,0.077834,0.520282,-0.987769,33.5625,1,18102,28219637
19,2,-0.673983,-0.0925069,9.79043,0.0969218,-0.511308,1.00075,-0.00674232,-0.000933368,0.097904,1,4.25615e-05,-1.27143e-05,-2.60201e-06,0.00851229,-0.00254286,-0.000520402,0,0,0,0,0.0786491,0.523272,-0.991747,33.5625,1,18103,28219737
20,1,-0.673983,-0.0925069,9.79043,0.0969218,-0.511308,1.00075,-0.00674232,-0.000933368,0.097904,1,4.25615e-05,-1.27143e-05,-2.60201e-06,0.00851229,-0.00254286,-0.000520402,0,0,0,0,0.0786491,0.523272,-0.991747,33.5625,1,18103,28219737
20,2,-0.678353,-0.0762648,9.78719,0.0885417,-0.501452,0.995684,-0.00678531,-0.000770488,0.0978718,1,3.85565e-05,-9.28928e-06,2.15605e-05,0.00771131,-0.00185785,0.00431211,0,0,0,0,0.077127,0.521414,-0.996327,33.5625,1,18104,28219837
20,3,-0.678353,-0.0762648,9.78719,0.0885417,-0.501452,0.995684,-0.00678531,-0.000770488,0.0978718,1,3.85565e-05,-9.28928e-06,2.15605e-05,0.00771131,-0.00185785,0.00431211,0,0,0,0,0.077127,0.521414,-0.996327,33.5625,1,18104,28219837
20,4,-0.676847,-0.0807829,9.78722,0.0862898,-0.506623,1.00172,-0.00677027,-0.000817126,0.097872,1,4.55043e-05,-9.43814e-06,2.88227e-05,0.00910087,-0.00188763,0.00576454,0,0,0,0,0.074219,0.519045,-0.998892,33.5,1,18105,28219937
21,1,-0.676847,-0.0807829,9.78722,0.0862898,-0.506623,1.00172,-0.00677027,-0.000817126,0.097872,1,4.55043e-05,-9.43814e-06,2.88227e-05,0.00910087,-0.00188763,0.00576454,0,0,0,0,0.074219,0.519045,-0.998892,33.5,1,18105,28219937
21,2,-0.673916,-0.0865735,9.78344,0.0911713,-0.509554,0.996742,-0.00674305,-0.000872928,0.0978341,1,3.63943e-05,-1.99209e-05,5.28992e-06,0.00727885,-0.00398418,0.00105798,0,0,0,0,0.075251,0.518504,-0.996383,33.5,1,18106,28220037
21,3,-0.673916,-0.0865735,9.78344,0.0911713,-0.509554,0.996742,-0.00674305,-0.000872928,0.0978341,1,3.63943e-05,-1.99209e-05,5.28992e-06,0.00727885,-0.00398418,0.00105798,0,0,0,0,0.075251,0.518504,-0.996383,33.5,1,18106,28220037
21,4,-0.68031,-0.0957228,9.79256,0.0903484,-0.515813,1.01031,-0.00680547,-0.000969376,0.0979253,1,6.06963e-05,-1.22821e-05,1.91067e-05,0.0121393,-0.00245642,0.00382133,0,0,0,0,0.0772907,0.518885,-0.991333,33.5,1,18107,28220137
22,1,-0.68031,-0.0957228,9.79256,0.0903484,-0.515813,1.01031,-0.00680547,-0.000969376,0.0979253,1,6.06963e-05,-1.22821e-05,1.91067e-05,0.0121393,-0.00245642,0.00382133,0,0,0,0,0.0772907,0.518885,-0.991333,33.5,1,18107,28220137
22,2,-0.687976,-0.0858036,9.79303,0.0803582,-0.512724,1.00865,-0.00688314,-0.000867455,0.09793,1,4.66442e-05,-1.74811e-05,2.05751e-05,0.00932883,-0.00349621,0.00411501,0,0,0,0,0.0787345,0.520319,-0.990298,33.5,1,18108,28220237
22,3,-0.687976,-0.0858036,9.79303,0.0803582,-0.512724,1.00865,-0.00688314,-0.000867455,0.09793,1,4.66442e-05,-1.74811e-05,2.05751e-05,0.00932883,-0.00349621,0.00411501,0,0,0,0,0.0787345,0.520319,-0.990298,33.5,1,18108,28220237
22,4,-0.682939,-0.080083,9.78253,0.0808941,-0.502884,0.992077,-0.00683245,-0.000810992,0.097825,1,5.07905e-05,-1.58102e-05,1.64901e-05,0.0101581,-0.00316204,0.00329802,0,0,0,0,0.0795777,0.52088,-0.994835,33.5,1,18109,28220337
23,1,-0.682939,-0.080083,9.78253,0.0808941,-0.502884,0.992077,-0.00683245,-0.000810992,0.097825,1,5.07905e-05,-1.58102e-05,1.64901e-05,0.0101581,-0.00316204,0.00329802,0,0,0,0,0.0795777,0.52088,-0.994835,33.5,1,18109,28220337
23,2,-0.677444,-0.0829747,9.79298,0.0850422,-0.512898,1.00189,-0.00677606,-0.000837479,0.0979296,1,3.86555e-05,-8.36118e-06,1.19172e-05,0.00773111,-0.00167224,0.00238344,0,0,0,0,0.0785495,0.520454,-0.99787,33.5,1,18110,28220437
23,3,-0.677444,-0.0829747,9.79298,0.0850422,-0.512898,1.00189,-0.00677606,-0.000837479,0.0979296,1,3.86555e-05,-8.36118e-06,1.19172e-05,0.00773111,-0.00167224,0.00238344,0,0,0,0,0.0785495,0.520454,-0.99787,33.5,1,18110,28220437
23,4,-0.679112,-0.0805093,9.80149,0.0869011,-0.508398,1.01849,-0.00679274,-0.000816391,0.0980147,1,5.59744e-05,-8.47277e-06,2.39648e-05,0.0111949,-0.00169455,0.00479296,0,0,0,0,0.075724,0.518988,-0.996374,33.5,1,18111,28220537
24,1,-0.679112,-0.0805093,9.80149,0.0869011,-0.508398,1.01849,-0.00679274,-0.000816391,0.0980147,1,5.59744e-05,-8.47277e-06,2.39648e-05,0.0111949,-0.00169455,0.00479296,0,0,0,0,0.075724,0.518988,-0.996374,33.5,1,18111,28220537
24,2,-0.678934,-0.0828439,9.78654,0.0807523,-0.514601,1.00328,-0.00679028,-0.000837787,0.0978652,1,4.69684e-05,-4.9006e-06,1.1422e-05,0.00939368,-0.00098012,0.0022844,0,0,0,0,0.0743703,0.516525,-0.994403,33.5,1,18112,28220637
24,3,-0.678934,-0.0828439,9.78654,0.0807523,-0.514601,1.00328,-0.00679028,-0.000837787,0.0978652,1,4.69684e-05,-4.9006e-06,1.1422e-05,0.00939368,-0.00098012,0.0022844,0,0,0,0,0.0743703,0.516525,-0.994403,33.5,1,18112,28220637
24,4,-0.681472,-0.0859927,9.794,0.0843122,-0.517181,1.00842,-0.00681719,-0.000869328,0.0979398,1,4.66628e-05,-1.27799e-05,1.91388e-05,0.00933256,-0.00255597,0.00382776,0,0,0,0,0.0754028,0.517429,-0.990852,33.5,1,18113,28220737
24,5,-0.681472,-0.0859927,9.794,0.0843122,-0.517181,1.00842,-0.00681719,-0.000869328,0.0979398,1,4.66628e-05,-1.27799e-05,1.91388e-05,0.00933256,-0.00255597,0.00382776,0,0,0,0,0.0754028,0.517429,-0.990852,33.5,1,18113,28220737
24,6,-0.681784,-0.0870979,9.78857,0.0826321,-0.519919,0.999525,-0.0068202,-0.000878268,0.0978855,1,3.59622e-05,-1.21963e-05,1.81923e-05,0.00719245,-0.00243927,0.00363846,0,0,0,0,0.0787877,0.519316,-0.988805,33.5,1,18114,28220837
24,7,-0.681784,-0.0870979,9.78857,0.0826321,-0.519919,0.999525,-0.0068202,-0.000878268,0.0978855,1,3.59622e-05,-1.21963e-05,1.81923e-05,0.00719245,-0.00243927,0.00363846,0,0,0,0,0.0787877,0.519316,-0.988805,33.5,1,18114,28220837
24,8,-0.677628,-0.0855965,9.79128,0.085405,-0.519352,1.00326,-0.00678199,-0.000865,0.0979123,1,4.5551e-05,-2.92415e-05,8.46798e-06,0.0091102,-0.0058483,0.0016936,0,0,0,0,0.0790932,0.523295,-0.993264,33.5,1,18115,28220937
25,1,-0.677628,-0.0855965,9.79128,0.085405,-0.519352,1.00326,-0.00678199,-0.000865,0.0979123,1,4.5551e-05,-2.92415e-05,8.46798e-06,0.0091102,-0.0058483,0.0016936,0,0,0,0,0.0790932,0.523295,-0.993264,33.5,1,18115,28220937
25,2,-0.690936,-0.0983767,9.78684,0.0701788,-0.535704,0.997564,-0.00691035,-0.000992422,0.0978682,1,4.36567e-05,-5.15784e-06,7.91789e-06,0.00873134,-0.00103157,0.00158358,0,0,0,0,0.0780608,0.522391,-0.996815,33.5,1,18116,28221037
25,3,-0.690936,-0.0983767,9.78684,0.0701788,-0.535704,0.997564,-0.00691035,-0.000992422,0.0978682,1,4.36567e-05,-5.15784e-06,7.91789e-06,0.00873134,-0.00103157,0.00158358,0,0,0,0,0.0780608,0.522391,-0.996815,33.5,1,18116,28221037
25,4,-0.678738,-0.0787506,9.78693,0.0809491,-0.518495,1.00054,-0.00679133,-0.000796993,0.0978689,1,4.63873e-05,-2.04278e-05,2.99586e-05,0.00927747,-0.00408557,0.00599172,0,0,0,0,0.0752139,0.518531,-0.997897,33.5,1,18117,28221137
26,1,-0.678738,-0.0787506,9.78693,0.0809491,-0.518495,1.00054,-0.00679133,-0.000796993,0.0978689,1,4.63873e-05,-2.04278e-05,2.99586e-05,0.00927747,-0.00408557,0.00599172,0,0,0,0,0.0752139,0.518531,-0.997897,33.5,1,18117,28221137
26,2,-0.683787,-0.0850731,9.78962,0.0790472,-0.520667,1.00645,-0.00684123,-0.000857803,0.0978959,1,3.44889e-05,-1.74101e-05,2.33276e-05,0.00689777,-0.00348202,0.00466552,0,0,0,0,0.0767797,0.515538,-0.994941,33.5,1,18118,28221237
26,3,-0.683787,-0.0850731,9.78962,0.0790472,-0.520667,1.00645,-0.00684123,-0.000857803,0.0978959,1,3.44889e-05,-1.74101e-05,2.33276e-05,0.00689777,-0.00348202,0.00466552,0,0,0,0,0.0767797,0.515538,-0.994941,33.5,1,18118,28221237
26,4,-0.688907,-0.0890036,9.79233,0.0726144,-0.525139,1.00606,-0.0068919,-0.00090101,0.097923,1,5.5043e-05,-1.45606e-05,1.4117e-05,0.0110086,-0.00291211,0.0028234,0,0,0,0,0.0778373,0.51787,-0.989338,33.5,1,18119,28221337
27,1,-0.688907,-0.0890036,9.79233,0.0726144,-0.525139,1.00606,-0.0068919,-0.00090101,0.097923,1,5.5043e-05,-1.45606e-05,1.4117e-05,0.0110086,-0.00291211,0.0028234,0,0,0,0,0.0778373,0.51787,-0.989338,33.5,1,18119,28221337
27,2,-0.683844,-0.0895403,9.78788,0.0751506,-0.526743,1.00051,-0.00684175,-0.000903284,0.0978785,1,3.84301e-05,-1.71586e-05,2.61627e-05,0.00768603,-0.00343171,0.00523255,0,0,0,0,0.0777846,0.520318,-0.989789,33.5,1,18120,28221437
27,3,-0.683844,-0.0895403,9.78788,0.0751506,-0.526743,1.00051,-0.00684175,-0.000903284,0.0978785,1,3.84301e-05,-1.71586e-05,2.61627e-05,0.00768603,-0.00343171,0.00523255,0,0,0,0,0.0777846,0.520318,-0.989789,33.5,1,18120,28221437
27,4,-0.678199,-0.0934747,9.7861,0.0817362,-0.532157,0.994512,-0.00678276,-0.000942901,0.0978609,1,4.02125e-05,-4.10523e-06,2.0942e-05,0.0080425,-0.000821045,0.0041884,0,0,0,0,0.0790927,0.52185,-0.994306,33.5,1,18121,28221537
27,5,-0.678199,-0.0934747,9.7861,0.0817362,-0.532157,0.994512,-0.00678276,-0.000942901,0.0978609,1,4.02125e-05,-4.10523e-06,2.0942e-05,0.0080425,-0.000821045,0.0041884,0,0,0,0,0.0790927,0.52185,-0.994306,33.5,1,18121,28221537
27,6,-0.678212,-0.0794744,9.79097,0.0792641,-0.52152,1.00069,-0.00678416,-0.000803243,0.0979095,1,4.16542e-05,-1.06579e-05,2.52205e-05,0.00833084,-0.00213159,0.00504411,0,0,0,0,0.0799971,0.520921,-0.997361,33.5,1,18122,28221637
28,1,-0.678212,-0.0794744,9.79097,0.0792641,-0.52152,1.00069,-0.00678416,-0.000803243,0.0979095,1,4.16542e-05,-1.06579e-05,2.52205e-05,0.00833084,-0.00213159,0.00504411,0,0,0,0,0.0799971,0.520921,-0.997361,33.5,1,18122,28221637
28,2,-0.677928,-0.0915629,9.79529,0.0781079,-0.536787,1.00955,-0.00678202,-0.0009237,0.0979527,1,3.941e-05,-1.42439e-05,2.58532e-05,0.007882,-0.00284878,0.00517064,0,0,0,0,0.0785694,0.518512,-0.998418,33.5,1,18123,28221737
29,1,-0.677928,-0.0915629,9.79529,0.0781079,-0.536787,1.00955,-0.00678202,-0.0009237,0.0979527,1,3.941e-05,-1.42439e-05,2.58532e-05,0.007882,-0.00284878,0.00517064,0,0,0,0,0.0785694,0.518512,-0.998418,33.5,1,18123,28221737
29,2,-0.675021,-0.0875628,9.79835,0.0833197,-0.535014,1.01266,-0.00675127,-0.000886722,0.0979833,1,5.46146e-05,-5.66399e-06,2.89754e-05,0.0109229,-0.0011328,0.00579508,0,0,0,0,0.0772651,0.516013,-0.994427,33.5,1,18124,28221837
29,3,-0.675021,-0.0875628,9.79835,0.0833197,-0.535014,1.01266,-0.00675127,-0.000886722,0.0979833,1,5.46146e-05,-5.66399e-06,2.89754e-05,0.0109229,-0.0011328,0.00579508,0,0,0,0,0.0772651,0.516013,-0.994427,33.5,1,18124,28221837
29,4,-0.67129,-0.0887264,9.79051,0.0872045,-0.529635,1.00565,-0.00671397,-0.00089472,0.097905,1,3.54611e-05,-5.83364e-06,3.81916e-05,0.00709223,-0.00116673,0.00763832,0,0,0,0,0.0763854,0.516924,-0.990363,33.5,1,18125,28221937
30,1,-0.67129,-0.0887264,9.79051,0.0872045,-0.529635,1.00565,-0.00671397,-0.00089472,0.097905,1,3.54611e-05,-5.83364e-06,3.81916e-05,0.00709223,-0.00116673,0.00763832,0,0,0,0,0.0763854,0.516924,-0.990363,33.5,1,18125,28221937
30,2,-0.681222,-0.087799,9.78923,0.0785847,-0.527976,1.0037,-0.00681354,-0.000883947,0.0978922,1,2.89268e-05,-6.92899e-06,2.15323e-05,0.00578537,-0.0013858,0.00430645,0,0,0,0,0.0782776,0.518859,-0.990328,33.5,1,18126,28222037
30,3,-0.681222,-0.087799,9.78923,0.0785847,-0.527976,1.0037,-0.00681354,-0.000883947,0.0978922,1,2.89268e-05,-6.92899e-06,2.15323e-05,0.00578537,-0.0013858,0.00430645,0,0,0,0,0.0782776,0.518859,-0.990328,33.5,1,18126,28222037
30,4,-0.679507,-0.0843708,9.7957,0.0754121,-0.534783,1.00862,-0.00679682,-0.000852306,0.0979568,1,4.29097e-05,-9.06716e-06,1.41042e-05,0.00858194,-0.00181343,0.00282085,0,0,0,0,0.0796066,0.52134,-0.99331,33.5,1,18127,28222137
31,1,-0.679507,-0.0843708,9.7957,0.0754121,-0.534783,1.00862,-0.00679682,-0.000852306,0.0979568,1,4.29097e-05,-9.06716e-06,1.41042e-05,0.00858194,-0.00181343,0.00282085,0,0,0,0,0.0796066,0.52134,-0.99331,33.5,1,18127,28222137
31,2,-0.665885,-0.0824628,9.78646,0.0923506,-0.530057,0.995703,-0.00666166,-0.000833034,0.0978644,1,4.174e-05,-1.45101e-05,1.77473e-05,0.008348,-0.00290202,0.00354946,0,0,0,0,0.079981,0.521896,-0.99734,33.5,1,18128,28222237
31,3,-0.665885,-0.0824628,9.78646,0.0923506,-0.530057,0.995703,-0.00666166,-0.000833034,0.0978644,1,4.174e-05,-1.45101e-05,1.77473e-05,0.008348,-0.00290202,0.00354946,0,0,0,0,0.079981,0.521896,-0.99734,33.5,1,18128,28222237
31,4,-0.676836,-0.0781622,9.78997,0.0833938,-0.526662,1.00027,-0.00676963,-0.000788295,0.0978995,1,3.34513e-05,-6.6047e-06,9.0729e-06,0.00669025,-0.00132094,0.00181458,0,0,0,0,0.0775996,0.520453,-0.997361,33.5,1,18129,28222337
32,1,-0.676836,-0.0781622,9.78997,0.0833938,-0.526662,1.00027,-0.00676963,-0.000788295,0.0978995,1,3.34513e-05,-6.6047e-06,9.0729e-06,0.00669025,-0.00132094,0.00181458,0,0,0,0,0.0775996,0.520453,-0.997361,33.5,1,18129,28222337
32,2,-0.698157,-0.0898323,9.79374,0.0549088,-0.543366,1.01135,-0.00698339,-0.000909339,0.0979371,1,5.49665e-05,-9.48323e-06,1.7835e-05,0.0109933,-0.00189665,0.003567,0,0,0,0,0.075826,0.516504,-0.993905,33.5,1,18130,28222437
33,1,-0.698157,-0.0898323,9.79374,0.0549088,-0.543366,1.01135,-0.00698339,-0.000909339,0.0979371,1,5.49665e-05,-9.48323e-06,1.7835e-05,0.0109933,-0.00189665,0.003567,0,0,0,0,0.075826,0.516504,-0.993905,33.5,1,18130,28222437
33,2,-0.688892,-0.0868502,9.7954,0.0684589,-0.537813,1.01056,-0.00689202,-0.000876175,0.0979537,1,3.68058e-05,-1.61455e-05,3.35425e-05,0.00736117,-0.00322911,0.0067085,0,0,0,0,0.0778122,0.516442,-0.99139,33.5,1,18131,28222537
33,3,-0.688892,-0.0868502,9.7954,0.0684589,-0.537813,1.01056,-0.00689202,-0.000876175,0.0979537,1,3.68058e-05,-1.61455e-05,3.35425e-05,0.00736117,-0.00322911,0.0067085,0,0,0,0,0.0778122,0.516442,-0.99139,33.5,1,18131,28222537
33,4,-0.672686,-0.0790981,9.79536,0.0794327,-0.532782,1.00829,-0.00672811,-0.000800677,0.0979534,1,4.86412e-05,-6.51908e-06,1.23845e-05,0.00972824,-0.00130382,0.00247691,0,0,0,0,0.0797048,0.519823,-0.990313,33.5,1,18132,28222637
34,1,-0.672686,-0.0790981,9.79536,0.0794327,-0.532782,1.00829,-0.00672811,-0.000800677,0.0979534,1,4.86412e-05,-6.51908e-06,1.23845e-05,0.00972824,-0.00130382,0.00247691,0,0,0,0,0.0797048,0.519823,-0.990313,33.5,1,18132,28222637
34,2,-0.678564,-0.081551,9.79673,0.0745586,-0.535779,1.00559,-0.0067852,-0.00082465,0.0979672,1,4.50462e-05,2.06029e-06,2.31677e-05,0.00900924,0.000412057,0.00463353,0,0,0,0,0.0805446,0.522796,-0.993282,33.5,1,18133,28222737
34,3,-0.678564,-0.081551,9.79673,0.0745586,-0.535779,1.00559,-0.0067852,-0.00082465,0.0979672,1,4.50462e-05,2.06029e-06,2.31677e-05,0.00900924,0.000412057,0.00463353,0,0,0,0,0.0805446,0.522796,-0.993282,33.5,1,18133,28222737
34,4,-0.679948,-0.0973265,9.7966,0.0713244,-0.548012,1.00731,-0.00680263,-0.000982686,0.0979657,1,4.76893e-05,-1.61211e-05,5.70156e-06,0.00953787,-0.00322422,0.00114031,0,0,0,0,0.0794713,0.522885,-0.99782,33.5,1,18134,28222837
35,1,-0.679948,-0.0973265,9.7966,0.0713244,-0.548012,1.00731,-0.00680263,-0.000982686,0.0979657,1,4.76893e-05,-1.61211e-05,5.70156e-06,0.00953787,-0.00322422,0.00114031,0,0,0,0,0.0794713,0.522885,-0.99782,33.5,1,18134,28222837
35,2,-0.682831,-0.0922857,9.78921,0.0743646,-0.549519,1.00257,-0.00683058,-0.000930466,0.0978919,1,3.82512e-05,-1.16679e-05,8.78426e-06,0.00765024,-0.00233358,0.00175685,0,0,0,0,0.0756377,0.519051,-0.999908,33.5,1,18135,28222937
35,3,-0.682831,-0.0922857,9.78921,0.0743646,-0.549519,1.00257,-0.00683058,-0.000930466,0.0978919,1,3.82512e-05,-1.16679e-05,8.78426e-06,0.00765024,-0.00233358,0.00175685,0,0,0,0,0.0756377,0.519051,-0.999908,33.5,1,18135,28222937
35,4,-0.673675,-0.0872991,9.7858,0.0772489,-0.544521,0.996685,-0.00673896,-0.00088106,0.0978578,1,4.0263e-05,-1.14255e-05,1.40182e-05,0.00805259,-0.00228509,0.00280364,0,0,0,0,0.0763029,0.516021,-0.994423,33.5,1,18136,28223037
36,1,-0.673675,-0.0872991,9.7858,0.0772489,-0.544521,0.996685,-0.00673896,-0.00088106,0.0978578,1,4.0263e-05,-1.14255e-05,1.40182e-05,0.00805259,-0.00228509,0.00280364,0,0,0,0,0.0763029,0.516021,-0.994423,33.5,1,18136,28223037
36,2,-0.682042,-0.0904713,9.79635,0.0761294,-0.545723,1.00669,-0.00682382,-0.000913828,0.0979631,1,4.581e-05,-1.74323e-05,1.02782e-05,0.00916199,-0.00348646,0.00205563,0,0,0,0,0.0764139,0.51594,-0.98988,33.5,1,18137,28223137
36,3,-0.682042,-0.0904713,9.79635,0.0761294,-0.545723,1.00669,-0.00682382,-0.000913828,0.0979631,1,4.581e-05,-1.74323e-05,1.02782e-05,0.00916199,-0.00348646,0.00205563,0,0,0,0,0.0764139,0.51594,-0.98988,33.5,1,18137,28223137
36,4,-0.672999,-0.0845755,9.78853,0.0842738,-0.53845,1.00006,-0.00673267,-0.000855634,0.097885,1,4.87007e-05,-1.39346e-05,2.55871e-05,0.00974015,-0.00278691,0.00511741,0,0,0,0,0.0773358,0.518371,-0.98983,33.5,1,18138,28223237
37,1,-0.672999,-0.0845755,9.78853,0.0842738,-0.53845,1.00006,-0.00673267,-0.000855634,0.097885,1,4.87007e-05,-1.39346e-05,2.55871e-05,0.00974015,-0.00278691,0.00511741,0,0,0,0,0.0773358,0.518371,-0.98983,33.5,1,18138,28223237
37,2,-0.674374,-0.0839194,9.79363,0.080786,-0.544362,1.00329,-0.00674545,-0.000847744,0.0979361,1,4.25298e-05,-8.8477e-06,1.63112e-05,0.00850595,-0.00176954,0.00326224,0,0,0,0,0.0800758,0.522791,-0.992774,33.5,1,18139,28223337
37,3,-0.674374,-0.0839194,9.79363,0.080786,-0.544362,1.00329,-0.00674545,-0.000847744,0.0979361,1,4.25298e-05,-8.8477e-06,1.63112e-05,0.00850595,-0.00176954,0.00326224,0,0,0,0,0.0800758,0.522791,-0.992774,33.5,1,18139,28223337
37,4,-0.673905,-0.0862488,9.7926,0.077386,-0.546846,1.00313,-0.00674269,-0.000872272,0.0979256,1,4.84511e-05,-1.87701e-05,2.18674e-05,0.00969022,-0.00375401,0.00437348,0,0,0,0,0.0794998,0.5219,-0.997337,33.5,1,18140,28223437
38,1,-0.673905,-0.0862488,9.7926,0.077386,-0.546846,1.00313,-0.00674269,-0.000872272,0.0979256,1,4.84511e-05,-1.87701e-05,2.18674e-05,0.00969022,-0.00375401,0.00437348,0,0,0,0,0.0794998,0.5219,-0.997337,33.5,1,18140,28223437
38,2,-0.675361,-0.0814021,9.79027,0.0781575,-0.540001,0.998026,-0.00675556,-0.000825071,0.0979025,1,5.55479e-05,-1.00266e-05,1.28259e-05,0.0111096,-0.00200532,0.00256518,0,0,0,0,0.0776153,0.518032,-0.998425,33.5,1,18141,28223537
39,1,-0.675361,-0.0814021,9.79027,0.0781575,-0.540001,0.998026,-0.00675556,-0.000825071,0.0979025,1,5.55479e-05,-1.00266e-05,1.28259e-05,0.0111096,-0.00200532,0.00256518,0,0,0,0,0.0776153,0.518032,-0.998425,33.5,1,18141,28223537
39,2,-0.682824,-0.0841376,9.79471,0.0700094,-0.546036,1.00755,-0.00683085,-0.000849606,0.0979468,1,4.07305e-05,-1.34557e-05,1.84215e-05,0.0081461,-0.00269115,0.00368429,0,0,0,0,0.0782069,0.516502,-0.994926,33.5,1,18142,28223637
39,3,-0.682824,-0.0841376,9.79471,0.0700094,-0.546036,1.00755,-0.00683085,-0.000849606,0.0979468,1,4.07305e-05,-1.34557e-05,1.84215e-05,0.0081461,-0.00269115,0.00368429,0,0,0,0,0.0782069,0.516502,-0.994926,33.5,1,18142,28223637
39,4,-0.674992,-0.0896099,9.78138,0.0796604,-0.552322,0.994551,-0.0067523,-0.000905056,0.0978136,1,4.44055e-05,-1.23179e-05,2.00511e-05,0.00888111,-0.00246359,0.00401022,0,0,0,0,0.077796,0.517418,-0.991368,33.5,1,18143,28223737
40,1,-0.674992,-0.0896099,9.78138,0.0796604,-0.552322,0.994551,-0.0067523,-0.000905056,0.0978136,1,4.44055e-05,-1.23179e-05,2.00511e-05,0.00888111,-0.00246359,0.00401022,0,0,0,0,0.077796,0.517418,-0.991368,33.5,1,18143,28223737
40,2,-0.686155,-0.0883788,9.79131,0.0661408,-0.552353,1.00099,-0.00686372,-0.000894073,0.0979128,1,5.16364e-05,-1.11869e-05,1.25967e-05,0.0103273,-0.00223738,0.00251935,0,0,0,0,0.0787507,0.519343,-0.99032,33.5,1,18144,28223837
40,3,-0.686155,-0.0883788,9.79131,0.0661408,-0.552353,1.00099,-0.00686372,-0.000894073,0.0979128,1,5.16364e-05,-1.11869e-05,1.25967e-05,0.0103273,-0.00223738,0.00251935,0,0,0,0,0.0787507,0.519343,-0.99032,33.5,1,18144,28223837
40,4,-0.68053,-0.0812322,9.79268,0.071728,-0.548759,1.0039,-0.00680794,-0.000821314,0.0979265,1,4.50238e-05,-1.35693e-05,1.27556e-05,0.00900477,-0.00271386,0.00255112,0,0,0,0,0.0800265,0.522827,-0.994794,33.5,1,18145,28223937
41,1,-0.68053,-0.0812322,9.79268,0.071728,-0.548759,1.0039,-0.00680794,-0.000821314,0.0979265,1,4.50238e-05,-1.35693e-05,1.27556e-05,0.00900477,-0.00271386,0.00255112,0,0,0,0,0.0800265,0.522827,-0.994794,33.5,1,18145,28223937
41,2,-0.679846,-0.0958262,9.80104,0.0732837,-0.563687,1.0161,-0.00680189,-0.000963521,0.0980101,1,2.56748e-05,-1.7682e-05,1.6637e-05,0.00513497,-0.00353641,0.0033274,0,0,0,0,0.0790145,0.521425,-0.997851,33.5,1,18146,28224037
41,3,-0.679846,-0.0958262,9.80104,0.0732837,-0.563687,1.0161,-0.00680189,-0.000963521,0.0980101,1,2.56748e-05,-1.7682e-05,1.6637e-05,0.00513497,-0.00353641,0.0033274,0,0,0,0,0.0790145,0.521425,-0.997851,33.5,1,18146,28224037
41,4,-0.673707,-0.0789044,9.78282,0.0720041,-0.543742,0.993672,-0.00674186,-0.000800534,0.0978278,1,5.86211e-05,-2.44995e-05,1.51644e-06,0.0117242,-0.0048999,0.000303288,0,0,0,0,0.0766127,0.520479,-0.998366,33.5,1,18147,28224137
42,1,-0.673707,-0.0789044,9.78282,0.0720041,-0.543742,0.993672,-0.00674186,-0.000800534,0.0978278,1,5.86211e-05,-2.44995e-05,1.51644e-06,0.0117242,-0.0048999,0.000303288,0,0,0,0,0.0766127,0.520479,-0.998366,33.5,1,18147,28224137
42,2,-0.677446,-0.0849172,9.79126,0.069823,-0.552449,1.00164,-0.00677567,-0.000858767,0.0979125,1,4.73727e-05,-6.41478e-06,2.35139e-05,0.00947454,-0.00128296,0.00470279,0,0,0,0,0.0767152,0.51944,-0.994854,33.5,1,18148,28224237
42,3,-0.677446,-0.0849172,9.79126,0.069823,-0.552449,1.00164,-0.00677567,-0.000858767,0.0979125,1,4.73727e-05,-6.41478e-06,2.35139e-05,0.00947454,-0.00128296,0.00470279,0,0,0,0,0.0767152,0.51944,-0.994854,33.5,1,18148,28224237
42,4,-0.676432,-0.0900862,9.78952,0.071398,-0.560089,0.998854,-0.00676554,-0.000909751,0.097895,1,4.42509e-05,-6.40363e-06,1.66577e-05,0.00885017,-0.00128073,0.00333154,0,0,0,0,0.0773149,0.517422,-0.991366,33.5,1,18149,28224337
42,5,-0.676432,-0.0900862,9.78952,0.071398,-0.560089,0.998854,-0.00676554,-0.000909751,0.097895,1,4.42509e-05,-6.40363e-06,1.66577e-05,0.00885017,-0.00128073,0.00333154,0,0,0,0,0.0773149,0.517422,-0.991366,33.5,1,18149,28224337
42,6,-0.682089,-0.091563,9.78006,0.0654143,-0.559639,0.991351,-0.00682436,-0.000921147,0.0978003,1,2.67476e-05,-1.79375e-05,2.08894e-05,0.00534951,-0.0035875,0.00417788,0,0,0,0,0.0792237,0.519827,-0.990311,33.5,1,18150,28224437
43,1,-0.682089,-0.091563,9.78006,0.0654143,-0.559639,0.991351,-0.00682436,-0.000921147,0.0978003,1,2.67476e-05,-1.79375e-05,2.08894e-05,0.00534951,-0.0035875,0.00417788,0,0,0,0,0.0792237,0.519827,-0.990311,33.5,1,18150,28224437
43,2,-0.683358,-0.0890507,9.79061,0.0644114,-0.559674,1.00148,-0.00683813,-0.000899878,0.0979057,1,4.67058e-05,-2.33578e-05,1.64526e-05,0.00934115,-0.00467157,0.00329052,0,0,0,0,0.0786201,0.522812,-0.993272,33.5,1,18151,28224537
43,3,-0.683358,-0.0890507,9.79061,0.0644114,-0.559674,1.00148,-0.00683813,-0.000899878,0.0979057,1,4.67058e-05,-2.33578e-05,1.64526e-05,0.00934115,-0.00467157,0.00329052,0,0,0,0,0.0786201,0.522812,-0.993272,33.5,1,18151,28224537
43,4,-0.677684,-0.0813186,9.8008,0.0736115,-0.552248,1.01356,-0.00677845,-0.000821216,0.0980078,1,3.87525e-05,-8.45076e-06,3.20298e-05,0.00775051,-0.00169015,0.00640597,0,0,0,0,0.0756428,0.52242,-0.997308,33.5,1,18152,28224637
44,1,-0.677684,-0.0813186,9.8008,0.0736115,-0.552248,1.01356,-0.00677845,-0.000821216,0.0980078,1,3.87525e-05,-8.45076e-06,3.20298e-05,0.00775051,-0.00169015,0.00640597,0,0,0,0,0.0756428,0.52242,-0.997308,33.5,1,18152,28224637
44,2,-0.675037,-0.0834673,9.79432,0.0757684,-0.55163,1.00386,-0.00675283,-0.000847219,0.0979429,1,6.22011e-05,-1.27927e-05,2.67849e-05,0.0124402,-0.00255854,0.00535698,0,0,0,0,0.0751774,0.520003,-0.99837,33.5,1,18153,28224737
44,3,-0.675037,-0.0834673,9.79432,0.0757684,-0.55163,1.00386,-0.00675283,-0.000847219,0.0979429,1,6.22011e-05,-1.27927e-05,2.67849e-05,0.0124402,-0.00255854,0.00535698,0,0,0,0,0.0751774,0.520003,-0.99837,33.5,1,18153,28224737
44,4,-0.685278,-0.0770416,9.78088,0.058467,-0.552293,0.990086,-0.00685692,-0.000781095,0.0978084,1,5.16866e-05,-2.14986e-05,4.13898e-05,0.0103373,-0.00429972,0.00827795,0,0,0,0,0.075818,0.516991,-0.993894,33.5,1,18154,28224837
45,1,-0.685278,-0.0770416,9.78088,0.058467,-0.552293,0.990086,-0.00685692,-0.000781095,0.0978084,1,5.16866e-05,-2.14986e-05,4.13898e-05,0.0103373,-0.00429972,0.00827795,0,0,0,0,0.075818,0.516991,-0.993894,33.5,1,18154,28224837
45,2,-0.682953,-0.0789359,9.79237,0.0660803,-0.550823,1.00619,-0.00683214,-0.000796322,0.0979235,1,3.40545e-05,-1.35229e-05,2.15436e-05,0.0068109,-0.00270459,0.00430872,0,0,0,0,0.0763531,0.518875,-0.990319,33.5,1,18155,28224937
45,3,-0.682953,-0.0789359,9.79237,0.0660803,-0.550823,1.00619,-0.00683214,-0.000796322,0.0979235,1,3.40545e-05,-1.35229e-05,2.15436e-05,0.0068109,-0.00270459,0.00430872,0,0,0,0,0.0763531,0.518875,-0.990319,33.5,1,18155,28224937
45,4,-0.678055,-0.0833994,9.78044,0.0699415,-0.563741,0.990288,-0.00678437,-0.000846244,0.097804,1,6.11099e-05,-1.97346e-05,2.19025e-05,0.012222,-0.00394692,0.0043805,0,0,0,0,0.0782985,0.519808,-0.988792,33.5,1,18156,28225037
46,1,-0.678055,-0.0833994,9.78044,0.0699415,-0.563741,0.990288,-0.00678437,-0.000846244,0.097804,1,6.11099e-05,-1.97346e-05,2.19025e-05,0.012222,-0.00394692,0.0043805,0,0,0,0,0.0782985,0.519808,-0.988792,33.5,1,18156,28225037
46,2,-0.6772,-0.0830159,9.78823,0.0684982,-0.554366,0.995572,-0.00677408,-0.000835526,0.0978821,1,2.62464e-05,-1.07345e-05,1.69168e-05,0.00524927,-0.0021469,0.00338335,0,0,0,0,0.0791748,0.521308,-0.991288,33.5,1,18157,28225137
46,3,-0.6772,-0.0830159,9.78823,0.0684982,-0.554366,0.995572,-0.00677408,-0.000835526,0.0978821,1,2.62464e-05,-1.07345e-05,1.69168e-05,0.00524927,-0.0021469,0.00338335,0,0,0,0,0.0791748,0.521308,-0.991288,33.5,1,18157,28225137
46,4,-0.684533,-0.0912306,9.78957,0.0619891,-0.567689,1.00021,-0.00684628,-0.000919109,0.0978956,1,3.32185e-05,-5.04415e-06,2.18487e-05,0.0066437,-0.00100883,0.00436974,0,0,0,0,0.0795164,0.52237,-0.996317,33.5,1,18158,28225237
46,5,-0.684533,-0.0912306,9.78957,0.0619891,-0.567689,1.00021,-0.00684628,-0.000919109,0.0978956,1,3.32185e-05,-5.04415e-06,2.18487e-05,0.0066437,-0.00100883,0.00436974,0,0,0,0,0.0795164,0.52237,-0.996317,33.5,1,18158,28225237
46,6,-0.672501,-0.0852228,9.78648,0.0750434,-0.564532,0.995901,-0.00672384,-0.000861451,0.0978648,1,4.56852e-05,5.7946e-06,2.08299e-05,0.00913703,0.00115892,0.00416597,0,0,0,0,0.0766051,0.522412,-0.997312,33.5,1,18159,28225337
47,1,-0.672501,-0.0852228,9.78648,0.0750434,-0.564532,0.995901,-0.00672384,-0.000861451,0.0978648,1,4.56852e-05,5.7946e-06,2.08299e-05,0.00913703,0.00115892,0.00416597,0,0,0,0,0.0766051,0.522412,-0.997312,33.5,1,18159,28225337
47,2,-0.681243,-0.0929404,9.80175,0.0681855,-0.567533,1.01142,-0.00681664,-0.000938142,0.0980171,1,4.32861e-05,-2.16233e-05,1.85166e-05,0.00865722,-0.00432465,0.00370331,0,0,0,0,0.0762545,0.518947,-0.994357,33.5,1,18160,28225437
47,3,-0.681243,-0.0929404,9.80175,0.0681855,-0.567533,1.01142,-0.00681664,-0.000938142,0.0980171,1,4.32861e-05,-2.16233e-05,1.85166e-05,0.00865722,-0.00432465,0.00370331,0,0,0,0,0.0762545,0.518947,-0.994357,33.5,1,18160,28225437
47,4,-0.675318,-0.0819002,9.79807,0.074934,-0.562223,1.00754,-0.00675537,-0.000827828,0.0979805,1,4.3761e-05,-1.13398e-05,1.85853e-05,0.00875221,-0.00226796,0.00371706,0,0,0,0,0.0778492,0.516415,-0.989876,33.5,1,18161,28225537
48,1,-0.675318,-0.0819002,9.79807,0.074934,-0.562223,1.00754,-0.00675537,-0.000827828,0.0979805,1,4.3761e-05,-1.13398e-05,1.85853e-05,0.00875221,-0.00226796,0.00371706,0,0,0,0,0.0778492,0.516415,-0.989876,33.5,1,18161,28225537
48,2,-0.674462,-0.0878685,9.79528,0.0705676,-0.57262,1.00756,-0.00674423,-0.000890146,0.0979527,1,5.63747e-05,1.69734e-06,3.09034e-05,0.0112749,0.000339468,0.00618068,0,0,0,0,0.0783312,0.519302,-0.987793,33.5,1,18162,28225637
48,3,-0.674462,-0.0878685,9.79528,0.0705676,-0.57262,1.00756,-0.00674423,-0.000890146,0.0979527,1,5.63747e-05,1.69734e-06,3.09034e-05,0.0112749,0.000339468,0.00618068,0,0,0,0,0.0783312,0.519302,-0.987793,33.5,1,18162,28225637
48,4,-0.683632,-0.0859213,9.78485,0.0639615,-0.564157,0.992121,-0.0068369,-0.000869104,0.0978484,1,4.90975e-05,-3.14979e-06,2.06845e-05,0.0098195,-0.000629958,0.00413691,0,0,0,0,0.0791502,0.521326,-0.992298,33.5,1,18163,28225737
48,5,-0.683632,-0.0859213,9.78485,0.0639615,-0.564157,0.992121,-0.0068369,-0.000869104,0.0978484,1,4.90975e-05,-3.14979e-06,2.06845e-05,0.0098195,-0.000629958,0.00413691,0,0,0,0,0.0791502,0.521326,-0.992298,33.5,1,18163,28225737
48,6,-0.68764,-0.0896372,9.78689,0.0620927,-0.57536,0.99775,-0.00687803,-0.000907991,0.0978687,1,5.78258e-05,-8.51608e-06,2.18414e-05,0.0115652,-0.00170322,0.00436828,0,0,0,0,0.0785414,0.520942,-0.997859,33.5,1,18164,28225837
49,1,-0.68764,-0.0896372,9.78689,0.0620927,-0.57536,0.99775,-0.00687803,-0.000907991,0.0978687,1,5.78258e-05,-8.51608e-06,2.18414e-05,0.0115652,-0.00170322,0.00436828,0,0,0,0,0.0785414,0.520942,-0.997859,33.5,1,18164,28225837
49,2,-0.672874,-0.089889,9.79527,0.0766215,-0.576264,1.00256,-0.00673102,-0.000906106,0.0979525,1,3.4975e-05,-1.18467e-05,2.70249e-05,0.006995,-0.00236934,0.00540497,0,0,0,0,0.0766127,0.520479,-0.998366,33.5,1,18165,28225937
49,3,-0.672874,-0.089889,9.79527,0.0766215,-0.576264,1.00256,-0.00673102,-0.000906106,0.0979525,1,3.4975e-05,-1.18467e-05,2.70249e-05,0.006995,-0.00236934,0.00540497,0,0,0,0,0.0766127,0.520479,-0.998366,33.5,1,18165,28225937
49,4,-0.678555,-0.0987274,9.78642,0.0690977,-0.584493,0.99747,-0.00678998,-0.000993999,0.0978638,1,3.28086e-05,-2.28306e-05,2.23851e-05,0.00656172,-0.00456613,0.00447702,0,0,0,0,0.0763199,0.517936,-0.99236,33.5,1,18166,28226037
50,1,-0.678555,-0.0987274,9.78642,0.0690977,-0.584493,0.99747,-0.00678998,-0.000993999,0.0978638,1,3.28086e-05,-2.28306e-05,2.23851e-05,0.00656172,-0.00456613,0.00447702,0,0,0,0,0.0763199,0.517936,-0.99236,33.5,1,18166,28226037
50,2,-0.676192,-0.084181,9.78617,0.0699993,-0.569609,0.994725,-0.00676252,-0.000851424,0.0978616,1,4.70951e-05,-3.28966e-06,2.93535e-05,0.00941901,-0.000657931,0.00587069,0,0,0,0,0.0768665,0.51692,-0.990365,33.5,1,18167,28226137
50,3,-0.676192,-0.084181,9.78617,0.0699993,-0.569609,0.994725,-0.00676252,-0.000851424,0.0978616,1,4.70951e-05,-3.28966e-06,2.93535e-05,0.00941901,-0.000657931,0.00587069,0,0,0,0,0.0768665,0.51692,-0.990365,33.5,1,18167,28226137
50,4,-0.679509,-0.0791704,9.78828,0.0648367,-0.5663,0.999945,-0.00679681,-0.000799765,0.0978826,1,3.9978e-05,-8.941e-06,1.72946e-05,0.00799559,-0.0017882,0.00345891,0,0,0,0,0.0796925,0.519832,-0.990818,33.5,1,18168,28226237
50,5,-0.679509,-0.0791704,9.78828,0.0648367,-0.5663,0.999945,-0.00679681,-0.000799765,0.0978826,1,3.9978e-05,-8.941e-06,1.72946e-05,0.00799559,-0.0017882,0.00345891,0,0,0,0,0.0796925,0.519832,-0.990818,33.5,1,18168,28226237
50,6,-0.679736,-0.081308,9.79675,0.0648267,-0.569102,1.00177,-0.00680077,-0.00082256,0.0979671,1,4.68866e-05,-1.75572e-05,2.15544e-05,0.00937732,-0.00351145,0.00431088,0,0,0,0,0.0795943,0.521349,-0.993814,33.5,1,18169,28226337
51,1,-0.679736,-0.081308,9.79675,0.0648267,-0.569102,1.00177,-0.00680077,-0.00082256,0.0979671,1,4.68866e-05,-1.75572e-05,2.15544e-05,0.00937732,-0.00351145,0.00431088,0,0,0,0,0.0795943,0.521349,-0.993814,33.5,1,18169,28226337
51,2,-0.677739,-0.088192,9.79497,0.0658929,-0.573603,1.00671,-0.00677897,-0.000888778,0.0979496,1,3.40603e-05,-8.16207e-06,1.37258e-05,0.00681207,-0.00163241,0.00274516,0,0,0,0,0.0795649,0.519443,-0.996382,33.5,1,18170,28226437
51,3,-0.677739,-0.088192,9.79497,0.0658929,-0.573603,1.00671,-0.00677897,-0.000888778,0.0979496,1,3.40603e-05,-8.16207e-06,1.37258e-05,0.00681207,-0.00163241,0.00274516,0,0,0,0,0.0795649,0.519443,-0.996382,33.5,1,18170,28226437
51,4,-0.688447,-0.0929313,9.79502,0.0555652,-0.581932,1.00619,-0.00688903,-0.000938614,0.0979498,1,4.52584e-05,-2.35925e-05,3.15775e-05,0.00905167,-0.0047185,0.0063155,0,0,0,0,0.0790671,0.518978,-0.9974,33.5,1,18171,28226537
51,5,-0.688447,-0.0929313,9.79502,0.0555652,-0.581932,1.00619,-0.00688903,-0.000938614,0.0979498,1,4.52584e-05,-2.35925e-05,3.15775e-05,0.00905167,-0.0047185,0.0063155,0,0,0,0,0.0790671,0.518978,-0.9974,33.5,1,18171,28226537
51,6,-0.673673,-0.0780778,9.78555,0.0728064,-0.568708,0.995476,-0.00673984,-0.000789392,0.0978552,1,4.25075e-05,-1.606e-05,2.19044e-05,0.0085015,-0.00321201,0.00438087,0,0,0,0,0.0777344,0.517463,-0.993892,33.5,1,18172,28226637
52,1,-0.673673,-0.0780778,9.78555,0.0728064,-0.568708,0.995476,-0.00673984,-0.000789392,0.0978552,1,4.25075e-05,-1.606e-05,2.19044e-05,0.0085015,-0.00321201,0.00438087,0,0,0,0,0.0777344,0.517463,-0.993892,33.5,1,18172,28226637
52,2,-0.688057,-0.0799591,9.79036,0.0561391,-0.570759,0.999919,-0.00688226,-0.000807681,0.0979034,1,3.97265e-05,-8.80077e-06,2.26331e-05,0.0079453,-0.00176015,0.00452661,0,0,0,0,0.0768343,0.518871,-0.990321,33.5,1,18173,28226737
53,1,-0.688057,-0.0799591,9.79036,0.0561391,-0.570759,0.999919,-0.00688226,-0.000807681,0.0979034,1,3.97265e-05,-8.80077e-06,2.26331e-05,0.0079453,-0.00176015,0.00452661,0,0,0,0,0.0768343,0.518871,-0.990321,33.5,1,18173,28226737
53,2,-0.680253,-0.0800237,9.78522,0.0629316,-0.570121,0.994848,-0.00680319,-0.000810622,0.0978521,1,5.09472e-05,-3.59086e-06,3.04802e-05,0.0101894,-0.000718173,0.00609603,0,0,0,0,0.0777395,0.520832,-0.991292,33.5,1,18174,28226837
54,1,-0.680253,-0.0800237,9.78522,0.0629316,-0.570121,0.994848,-0.00680319,-0.000810622,0.0978521,1,5.09472e-05,-3.59086e-06,3.04802e-05,0.0101894,-0.000718173,0.00609603,0,0,0,0,0.0777395,0.520832,-0.991292,33.5,1,18174,28226837
54,2,-0.673044,-0.0824591,9.78956,0.0686654,-0.572853,0.99804,-0.00673219,-0.000834427,0.0978954,1,4.85051e-05,-9.16241e-06,2.52091e-05,0.00970103,-0.00183248,0.00504181,0,0,0,0,0.078159,0.520873,-0.993818,33.5,1,18175,28226937
54,3,-0.673044,-0.0824591,9.78956,0.0686654,-0.572853,0.99804,-0.00673219,-0.000834427,0.0978954,1,4.85051e-05,-9.16241e-06,2.52091e-05,0.00970103,-0.00183248,0.00504181,0,0,0,0,0.078159,0.520873,-0.993818,33.5,1,18175,28226937
54,4,-0.676015,-0.0876491,9.79395,0.0678121,-0.579603,1.00399,-0.00676247,-0.000885417,0.0979393,1,4.4372e-05,-1.19859e-05,1.73524e-05,0.00887439,-0.00239718,0.00347048,0,0,0,0,0.0790676,0.520423,-0.996358,33.5,1,18176,28227037
55,1,-0.676015,-0.0876491,9.79395,0.0678121,-0.579603,1.00399,-0.00676247,-0.000885417,0.0979393,1,4.4372e-05,-1.19859e-05,1.73524e-05,0.00887439,-0.00239718,0.00347048,0,0,0,0,0.0790676,0.520423,-0.996358,33.5,1,18176,28227037
55,2,-0.689059,-0.0817078,9.79069,0.0524906,-0.575061,1.00033,-0.00689089,-0.000825551,0.0979069,1,4.25559e-05,-1.60555e-06,1.01549e-05,0.00851118,-0.000321109,0.00203098,0,0,0,0,0.079051,0.519953,-0.997378,33.5,1,18177,28227137
55,3,-0.689059,-0.0817078,9.79069,0.0524906,-0.575061,1.00033,-0.00689089,-0.000825551,0.0979069,1,4.25559e-05,-1.60555e-06,1.01549e-05,0.00851118,-0.000321109,0.00203098,0,0,0,0,0.079051,0.519953,-0.997378,33.5,1,18177,28227137
55,4,-0.670335,-0.0876585,9.78475,0.0704719,-0.579535,0.989351,-0.00670352,-0.000882486,0.0978475,1,2.90611e-05,-1.0056e-06,1.59907e-05,0.00581222,-0.00020112,0.00319814,0,0,0,0,0.0762545,0.518947,-0.994357,33.5,1,18178,28227237
56,1,-0.670335,-0.0876585,9.78475,0.0704719,-0.579535,0.989351,-0.00670352,-0.000882486,0.0978475,1,2.90611e-05,-1.0056e-06,1.59907e-05,0.00581222,-0.00020112,0.00319814,0,0,0,0,0.0762545,0.518947,-0.994357,33.5,1,18178,28227237
56,2,-0.682847,-0.0919399,9.79565,0.0591821,-0.582889,1.00204,-0.00682899,-0.000926484,0.0979564,1,3.48836e-05,-2.83481e-06,1.84197e-05,0.00697672,-0.000566961,0.00368394,0,0,0,0,0.0758554,0.51841,-0.991337,33.5,1,18179,28227337
56,3,-0.682847,-0.0919399,9.79565,0.0591821,-0.582889,1.00204,-0.00682899,-0.000926484,0.0979564,1,3.48836e-05,-2.83481e-06,1.84197e-05,0.00697672,-0.000566961,0.00368394,0,0,0,0,0.0758554,0.51841,-0.991337,33.5,1,18179,28227337
56,4,-0.682207,-0.083662,9.78453,0.0581699,-0.581442,0.993361,-0.00682358,-0.000843914,0.0978451,1,3.5938e-05,-7.92554e-06,1.91217e-05,0.00718761,-0.00158511,0.00382433,0,0,0,0,0.07829,0.51885,-0.989824,33.5,1,18180,28227437
57,1,-0.682207,-0.083662,9.78453,0.0581699,-0.581442,0.993361,-0.00682358,-0.000843914,0.0978451,1,3.5938e-05,-7.92554e-06,1.91217e-05,0.00718761,-0.00158511,0.00382433,0,0,0,0,0.07829,0.51885,-0.989824,33.5,1,18180,28227437
57,2,-0.678966,-0.078466,9.78658,0.0591258,-0.574661,0.994377,-0.00678958,-0.000792004,0.0978658,1,3.63886e-05,2.55338e-07,1.63149e-05,0.00727773,5.10675e-05,0.00326298,0,0,0,0,0.0786567,0.521339,-0.9928,33.5,1,18181,28227537
57,3,-0.678966,-0.078466,9.78658,0.0591258,-0.574661,0.994377,-0.00678958,-0.000792004,0.0978658,1,3.63886e-05,2.55338e-07,1.63149e-05,0.00727773,5.10675e-05,0.00326298,0,0,0,0,0.0786567,0.521339,-0.9928,33.5,1,18181,28227537
57,4,-0.679779,-0.0884317,9.78719,0.0622276,-0.583495,0.995149,-0.0067996,-0.000890254,0.0978717,1,2.89288e-05,-9.43238e-06,2.0191e-05,0.00578576,-0.00188648,0.0040382,0,0,0,0,0.0785618,0.520445,-0.997365,33.5,1,18182,28227637
58,1,-0.679779,-0.0884317,9.78719,0.0622276,-0.583495,0.995149,-0.0067996,-0.000890254,0.0978717,1,2.89288e-05,-9.43238e-06,2.0191e-05,0.00578576,-0.00188648,0.0040382,0,0,0,0,0.0785618,0.520445,-0.997365,33.5,1,18182,28227637
58,2,-0.673469,-0.0861569,9.79428,0.0657625,-0.581023,1.00353,-0.00673311,-0.000868267,0.0979428,1,3.27267e-05,7.8845e-06,2.12788e-05,0.00654534,0.0015769,0.00425577,0,0,0,0,0.076645,0.518528,-0.998409,33.5,1,18183,28227737
58,3,-0.673469,-0.0861569,9.79428,0.0657625,-0.581023,1.00353,-0.00673311,-0.000868267,0.0979428,1,3.27267e-05,7.8845e-06,2.12788e-05,0.00654534,0.0015769,0.00425577,0,0,0,0,0.076645,0.518528,-0.998409,33.5,1,18183,28227737
58,4,-0.687022,-0.0791673,9.78697,0.0582834,-0.577601,0.997005,-0.0068712,-0.000800599,0.0978696,1,4.33383e-05,-5.26402e-06,3.22832e-05,0.00866766,-0.0010528,0.00645664,0,0,0,0,0.0753411,0.517474,-0.993376,33.5,1,18184,28227837
59,1,-0.687022,-0.0791673,9.78697,0.0582834,-0.577601,0.997005,-0.0068712,-0.000800599,0.0978696,1,4.33383e-05,-5.26402e-06,3.22832e-05,0.00866766,-0.0010528,0.00645664,0,0,0,0,0.0753411,0.517474,-0.993376,33.5,1,18184,28227837
59,2,-0.679812,-0.0837794,9.77468,0.0604386,-0.582234,0.986599,-0.00680206,-0.000847248,0.0977465,1,4.72907e-05,-2.02824e-05,1.54077e-05,0.00945815,-0.00405648,0.00308154,0,0,0,0,0.0753952,0.519362,-0.989799,33.5,1,18185,28227937
59,3,-0.679812,-0.0837794,9.77468,0.0604386,-0.582234,0.986599,-0.00680206,-0.000847248,0.0977465,1,4.72907e-05,-2.02824e-05,1.54077e-05,0.00945815,-0.00405648,0.00308154,0,0,0,0,0.0753952,0.519362,-0.989799,33.5,1,18185,28227937
59,4,-0.681902,-0.0829071,9.78894,0.0578783,-0.579102,0.994045,-0.00682217,-0.000838395,0.0978891,1,4.67634e-05,-1.62239e-05,1.23292e-05,0.00935267,-0.00324479,0.00246583,0,0,0,0,0.0782496,0.521289,-0.989769,33.5,1,18186,28228037
60,1,-0.681902,-0.0829071,9.78894,0.0578783,-0.579102,0.994045,-0.00682217,-0.000838395,0.0978891,1,4.67634e-05,-1.62239e-05,1.23292e-05,0.00935267,-0.00324479,0.00246583,0,0,0,0,0.0782496,0.521289,-0.989769,33.5,1,18186,28228037
60,2,-0.682683,-0.0983855,9.79527,0.0583903,-0.597107,1.00463,-0.00682897,-0.000992633,0.0979524,1,4.33884e-05,-1.11166e-05,2.03027e-05,0.00867768,-0.00222331,0.00406054,0,0,0,0,0.079627,0.520843,-0.992816,33.5,1,18187,28228137
60,3,-0.682683,-0.0983855,9.79527,0.0583903,-0.597107,1.00463,-0.00682897,-0.000992633,0.0979524,1,4.33884e-05,-1.11166e-05,2.03027e-05,0.00867768,-0.00222331,0.00406054,0,0,0,0,0.079627,0.520843,-0.992816,33.5,1,18187,28228137
60,4,-0.679369,-0.0861407,9.79297,0.060976,-0.587868,1.00024,-0.00679854,-0.000868846,0.0979293,1,3.75379e-05,-2.48346e-05,6.40572e-06,0.00750758,-0.00496692,0.00128114,0,0,0,0,0.0800422,0.520406,-0.995858,33.5,1,18188,28228237
61,1,-0.679369,-0.0861407,9.79297,0.060976,-0.587868,1.00024,-0.00679854,-0.000868846,0.0979293,1,3.75379e-05,-2.48346e-05,6.40572e-06,0.00750758,-0.00496692,0.00128114,0,0,0,0,0.0800422,0.520406,-0.995858,33.5,1,18188,28228237
61,2,-0.689547,-0.0827427,9.79203,0.0480122,-0.580187,1.00347,-0.00689449,-0.000834374,0.0979203,1,3.42595e-05,4.84843e-06,1.72595e-05,0.00685191,0.000969686,0.00345189,0,0,0,0,0.0776404,0.519459,-0.996373,33.5,1,18189,28228337
61,3,-0.689547,-0.0827427,9.79203,0.0480122,-0.580187,1.00347,-0.00689449,-0.000834374,0.0979203,1,3.42595e-05,4.84843e-06,1.72595e-05,0.00685191,0.000969686,0.00345189,0,0,0,0,0.0776404,0.519459,-0.996373,33.5,1,18189,28228337
61,4,-0.687144,-0.0945727,9.79329,0.0498929,-0.597326,0.999938,-0.00687501,-0.000956733,0.0979326,1,5.52163e-05,-1.83523e-05,1.39326e-05,0.0110433,-0.00367046,0.00278652,0,0,0,0,0.0758545,0.515519,-0.993422,33.5,1,18190,28228437
62,1,-0.687144,-0.0945727,9.79329,0.0498929,-0.597326,0.999938,-0.00687501,-0.000956733,0.0979326,1,5.52163e-05,-1.83523e-05,1.39326e-05,0.0110433,-0.00367046,0.00278652,0,0,0,0,0.0758545,0.515519,-0.993422,33.5,1,18190,28228437
62,2,-0.683374,-0.0941605,9.78649,0.0544123,-0.591811,0.991743,-0.00683734,-0.000949622,0.0978646,1,4.0073e-05,-1.85333e-05,1.27404e-05,0.00801459,-0.00370666,0.00254808,0,0,0,0,0.0763978,0.516915,-0.989858,33.5,1,18191,28228537
62,3,-0.683374,-0.0941605,9.78649,0.0544123,-0.591811,0.991743,-0.00683734,-0.000949622,0.0978646,1,4.0073e-05,-1.85333e-05,1.27404e-05,0.00801459,-0.00370666,0.00254808,0,0,0,0,0.0763978,0.516915,-0.989858,33.5,1,18191,28228537
62,4,-0.678158,-0.0890616,9.78377,0.0579373,-0.587737,0.991441,-0.0067843,-0.000898727,0.0978374,1,3.97189e-05,-1.41485e-05,2.50398e-05,0.00794379,-0.0028297,0.00500796,0,0,0,0,0.0792322,0.520784,-0.98928,33.5,1,18192,28228637
63,1,-0.678158,-0.0890616,9.78377,0.0579373,-0.587737,0.991441,-0.0067843,-0.000898727,0.0978374,1,3.97189e-05,-1.41485e-05,2.50398e-05,0.00794379,-0.0028297,0.00500796,0,0,0,0,0.0792322,0.520784,-0.98928,33.5,1,18192,28228637
63,2,-0.683411,-0.0962478,9.7902,0.0587238,-0.597933,0.998262,-0.00683715,-0.00097247,0.0979017,1,4.99245e-05,-1.56574e-05,1.58417e-05,0.0099849,-0.00313148,0.00316835,0,0,0,0,0.0795781,0.522325,-0.993793,33.5,1,18193,28228737
63,3,-0.683411,-0.0962478,9.7902,0.0587238,-0.597933,0.998262,-0.00683715,-0.00097247,0.0979017,1,4.99245e-05,-1.56574e-05,1.58417e-05,0.0099849,-0.00313148,0.00316835,0,0,0,0,0.0795781,0.522325,-0.993793,33.5,1,18193,28228737
63,4,-0.685095,-0.0888755,9.79706,0.0501998,-0.593608,1.00385,-0.00685377,-0.000897359,0.0979703,1,4.34742e-05,-1.44335e-05,6.30295e-06,0.00869485,-0.0028867,0.00126059,0,0,0,0,0.0795079,0.521412,-0.997348,33.5,1,18194,28228837
64,1,-0.685095,-0.0888755,9.79706,0.0501998,-0.593608,1.00385,-0.00685377,-0.000897359,0.0979703,1,4.34742e-05,-1.44335e-05,6.30295e-06,0.00869485,-0.0028867,0.00126059,0,0,0,0,0.0795079,0.521412,-0.997348,33.5,1,18194,28228837
64,2,-0.670852,-0.0785348,9.79367,0.0669962,-0.580041,0.999118,-0.00671326,-0.000794215,0.0979363,1,4.41504e-05,-2.43484e-05,1.62792e-05,0.00883009,-0.00486969,0.00325583,0,0,0,0,0.0776072,0.51852,-0.998414,33.5,1,18195,28228937
64,3,-0.670852,-0.0785348,9.79367,0.0669962,-0.580041,0.999118,-0.00671326,-0.000794215,0.0979363,1,4.41504e-05,-2.43484e-05,1.62792e-05,0.00883009,-0.00486969,0.00325583,0,0,0,0,0.0776072,0.51852,-0.998414,33.5,1,18195,28228937
64,4,-0.681083,-0.083757,9.80216,0.0552282,-0.590934,1.00711,-0.0068124,-0.00084668,0.0980214,1,4.49457e-05,-8.19758e-06,2.19622e-05,0.00898914,-0.00163952,0.00439244,0,0,0,0,0.0772243,0.517006,-0.995415,33.5,1,18196,28229037
64,5,-0.681083,-0.083757,9.80216,0.0552282,-0.590934,1.00711,-0.0068124,-0.00084668,0.0980214,1,4.49457e-05,-8.19758e-06,2.19622e-05,0.00898914,-0.00163952,0.00439244,0,0,0,0,0.0772243,0.517006,-0.995415,33.5,1,18196,28229037
64,6,-0.677696,-0.081581,9.79673,0.0582038,-0.587811,1.00588,-0.00678167,-0.00082532,0.0979669,1,4.80154e-05,-2.41228e-05,7.52352e-06,0.00960307,-0.00482457,0.0015047,0,0,0,0,0.076365,0.517421,-0.990856,33.5,1,18197,28229137
65,1,-0.677696,-0.081581,9.79673,0.0582038,-0.587811,1.00588,-0.00678167,-0.00082532,0.0979669,1,4.80154e-05,-2.41228e-05,7.52352e-06,0.00960307,-0.00482457,0.0015047,0,0,0,0,0.076365,0.517421,-0.990856,33.5,1,18197,28229137
65,2,-0.681243,-0.0813689,9.78861,0.0510533,-0.586133,0.995995,-0.00681484,-0.000824959,0.0978859,1,5.72334e-05,-1.23253e-05,4.79299e-06,0.0114467,-0.00246507,0.000958598,0,0,0,0,0.0768713,0.518844,-0.988807,33.5,1,18198,28229237
65,3,-0.681243,-0.0813689,9.78861,0.0510533,-0.586133,0.995995,-0.00681484,-0.000824959,0.0978859,1,5.72334e-05,-1.23253e-05,4.79299e-06,0.0114467,-0.00246507,0.000958598,0,0,0,0,0.0768713,0.518844,-0.988807,33.5,1,18198,28229237
65,4,-0.677253,-0.0824818,9.78484,0.0588602,-0.592425,0.990417,-0.00677228,-0.000833304,0.0978483,1,4.26155e-05,1.21257e-06,1.07549e-05,0.00852309,0.000242515,0.00215097,0,0,0,0,0.0796313,0.521322,-0.9923,33.5,1,18199,28229337
65,5,-0.677253,-0.0824818,9.78484,0.0588602,-0.592425,0.990417,-0.00677228,-0.000833304,0.0978483,1,4.26155e-05,1.21257e-06,1.07549e-05,0.00852309,0.000242515,0.00215097,0,0,0,0,0.0796313,0.521322,-0.9923,33.5,1,18199,28229337
65,6,-0.678488,-0.0791408,9.78794,0.057093,-0.585689,0.991459,-0.00678799,-0.000799594,0.0978791,1,4.01828e-05,-1.60895e-05,2.35514e-05,0.00803656,-0.0032179,0.00471028,0,0,0,0,0.0785955,0.52283,-0.994282,33.5,1,18200,28229437
66,1,-0.678488,-0.0791408,9.78794,0.057093,-0.585689,0.991459,-0.00678799,-0.000799594,0.0978791,1,4.01828e-05,-1.60895e-05,2.35514e-05,0.00803656,-0.0032179,0.00471028,0,0,0,0,0.0785955,0.52283,-0.994282,33.5,1,18200,28229437
66,2,-0.683357,-0.0849606,9.79845,0.0545676,-0.594524,0.999574,-0.00683671,-0.000859005,0.0979842,1,4.72144e-05,-1.61361e-05,1.06858e-05,0.00944288,-0.00322722,0.00213716,0,0,0,0,0.0757245,0.520433,-0.995332,33.5,1,18201,28229537
66,3,-0.683357,-0.0849606,9.79845,0.0545676,-0.594524,0.999574,-0.00683671,-0.000859005,0.0979842,1,4.72144e-05,-1.61361e-05,1.06858e-05,0.00944288,-0.00322722,0.00213716,0,0,0,0,0.0757245,0.520433,-0.995332,33.5,1,18201,28229537
66,4,-0.685431,-0.0918907,9.79331,0.0516376,-0.605445,1.00246,-0.00685719,-0.00092762,0.0979328,1,4.31613e-05,-1.49216e-05,1.88908e-05,0.00863226,-0.00298432,0.00377816,0,0,0,0,0.074823,0.517505,-0.994888,33.5,1,18202,28229637
67,1,-0.685431,-0.0918907,9.79331,0.0516376,-0.605445,1.00246,-0.00685719,-0.00092762,0.0979328,1,4.31613e-05,-1.49216e-05,1.88908e-05,0.00863226,-0.00298432,0.00377816,0,0,0,0,0.074823,0.517505,-0.994888,33.5,1,18202,28229637
67,2,-0.673271,-0.0909212,9.78373,0.0598838,-0.602156,0.99198,-0.00673605,-0.000918924,0.097837,1,4.85908e-05,-1.72071e-05,1.5175e-05,0.00971816,-0.00344142,0.003035,0,0,0,0,0.075362,0.518423,-0.99184,33.5,1,18203,28229737
67,3,-0.673271,-0.0909212,9.78373,0.0598838,-0.602156,0.99198,-0.00673605,-0.000918924,0.097837,1,4.85908e-05,-1.72071e-05,1.5175e-05,0.00971816,-0.00344142,0.003035,0,0,0,0,0.075362,0.518423,-0.99184,33.5,1,18203,28229737
67,4,-0.677561,-0.0876331,9.78208,0.0559125,-0.60153,0.988739,-0.0067764,-0.000885152,0.0978207,1,4.31202e-05,-4.27659e-06,2.83664e-05,0.00862403,-0.000855319,0.00567327,0,0,0,0,0.0782453,0.52081,-0.990285,33.5,1,18204,28229837
68,1,-0.677561,-0.0876331,9.78208,0.0559125,-0.60153,0.988739,-0.0067764,-0.000885152,0.0978207,1,4.31202e-05,-4.27659e-06,2.83664e-05,0.00862403,-0.000855319,0.00567327,0,0,0,0,0.0782453,0.52081,-0.990285,33.5,1,18204,28229837
68,2,-0.68014,-0.0853372,9.78417,0.0586762,-0.597564,0.989088,-0.00680319,-0.000860588,0.0978415,1,3.54984e-05,-9.34503e-06,1.98295e-05,0.00709967,-0.00186901,0.00396591,0,0,0,0,0.0795658,0.522334,-0.994297,33.5,1,18205,28229937
68,3,-0.68014,-0.0853372,9.78417,0.0586762,-0.597564,0.989088,-0.00680319,-0.000860588,0.0978415,1,3.54984e-05,-9.34503e-06,1.98295e-05,0.00709967,-0.00186901,0.00396591,0,0,0,0,0.0795658,0.522334,-0.994297,33.5,1,18205,28229937
68,4,-0.683948,-0.0849674,9.78792,0.0531886,-0.599512,0.99327,-0.00684077,-0.000859514,0.097879,1,4.89503e-05,-6.75251e-06,1.88388e-05,0.00979005,-0.0013505,0.00376775,0,0,0,0,0.0799682,0.52046,-0.998887,33.5,1,18206,28230037
69,1,-0.683948,-0.0849674,9.78792,0.0531886,-0.599512,0.99327,-0.00684077,-0.000859514,0.097879,1,4.89503e-05,-6.75251e-06,1.88388e-05,0.00979005,-0.0013505,0.00376775,0,0,0,0,0.0799682,0.52046,-0.998887,33.5,1,18206,28230037
69,2,-0.673682,-0.091207,9.79765,0.0603985,-0.603841,1.00643,-0.00674204,-0.000918819,0.0979761,1,3.31123e-05,-2.68296e-05,1.93844e-05,0.00662247,-0.00536592,0.00387688,0,0,0,0,0.0781291,0.517522,-0.997428,33.5,1,18207,28230137
69,3,-0.673682,-0.091207,9.79765,0.0603985,-0.603841,1.00643,-0.00674204,-0.000918819,0.0979761,1,3.31123e-05,-2.68296e-05,1.93844e-05,0.00662247,-0.00536592,0.00387688,0,0,0,0,0.0781291,0.517522,-0.997428,33.5,1,18207,28230137
69,4,-0.682182,-0.0877017,9.7889,0.0518707,-0.60125,1.00047,-0.00682398,-0.000885888,0.0978888,1,4.42564e-05,-1.1124e-05,1.51377e-05,0.00885128,-0.00222481,0.00302755,0,0,0,0,0.0763029,0.516021,-0.994423,33.5,1,18208,28230237
70,1,-0.682182,-0.0877017,9.7889,0.0518707,-0.60125,1.00047,-0.00682398,-0.000885888,0.0978888,1,4.42564e-05,-1.1124e-05,1.51377e-05,0.00885128,-0.00222481,0.00302755,0,0,0,0,0.0763029,0.516021,-0.994423,33.5,1,18208,28230237
70,2,-0.688775,-0.082621,9.78458,0.0444722,-0.599368,0.993512,-0.00688963,-0.000834334,0.0978456,1,4.03541e-05,-9.77534e-06,1.64679e-05,0.00807081,-0.00195507,0.00329357,0,0,0,0,0.0772903,0.51744,-0.992376,33.5,1,18209,28230337
70,3,-0.688775,-0.082621,9.78458,0.0444722,-0.599368,0.993512,-0.00688963,-0.000834334,0.0978456,1,4.03541e-05,-9.77534e-06,1.64679e-05,0.00807081,-0.00195507,0.00329357,0,0,0,0,0.0772903,0.51744,-0.992376,33.5,1,18209,28230337
70,4,-0.688565,-0.0877879,9.79573,0.0469045,-0.602246,1.00516,-0.00688841,-0.00088797,0.097957,1,5.05001e-05,-1.42379e-05,1.42828e-05,0.0101,-0.00284757,0.00285656,0,0,0,0,0.0797048,0.519823,-0.990313,33.5,1,18210,28230437
71,1,-0.688565,-0.0877879,9.79573,0.0469045,-0.602246,1.00516,-0.00688841,-0.00088797,0.097957,1,5.05001e-05,-1.42379e-05,1.42828e-05,0.0101,-0.00284757,0.00285656,0,0,0,0,0.0797048,0.519823,-0.990313,33.5,1,18210,28230437
71,2,-0.679529,-0.0843591,9.7923,0.0528441,-0.597354,0.999749,-0.00679683,-0.000851694,0.0979228,1,3.97971e-05,-8.0489e-06,2.26947e-05,0.00795942,-0.00160978,0.00453893,0,0,0,0,0.0786078,0.522821,-0.993777,33.5,1,18211,28230537
71,3,-0.679529,-0.0843591,9.7923,0.0528441,-0.597354,0.999749,-0.00679683,-0.000851694,0.0979228,1,3.97971e-05,-8.0489e-06,2.26947e-05,0.00795942,-0.00160978,0.00453893,0,0,0,0,0.0786078,0.522821,-0.993777,33.5,1,18211,28230537
71,4,-0.674391,-0.0893059,9.79019,0.0578397,-0.60456,0.996732,-0.00674571,-0.000901453,0.0979017,1,4.17549e-05,-9.36888e-06,1.61345e-05,0.00835097,-0.00187378,0.00322691,0,0,0,0,0.0775958,0.521419,-0.996834,33.5,1,18212,28230637
72,1,-0.674391,-0.0893059,9.79019,0.0578397,-0.60456,0.996732,-0.00674571,-0.000901453,0.0979017,1,4.17549e-05,-9.36888e-06,1.61345e-05,0.00835097,-0.00187378,0.00322691,0,0,0,0,0.0775958,0.521419,-0.996834,33.5,1,18212,28230637
72,2,-0.674391,-0.0948484,9.78844,0.0538854,-0.611096,0.996011,-0.00674514,-0.000958892,0.0978842,1,5.15691e-05,-6.51037e-06,2.31622e-05,0.0103138,-0.00130207,0.00463244,0,0,0,0,0.077591,0.519495,-0.998392,33.5,1,18213,28230737
72,3,-0.674391,-0.0948484,9.78844,0.0538854,-0.611096,0.996011,-0.00674514,-0.000958892,0.0978842,1,5.15691e-05,-6.51037e-06,2.31622e-05,0.0103138,-0.00130207,0.00463244,0,0,0,0,0.077591,0.519495,-0.998392,33.5,1,18213,28230737
72,4,-0.674595,-0.0862193,9.78853,0.0611378,-0.605341,0.995959,-0.00674963,-0.000871549,0.097885,1,4.6868e-05,-1.8943e-05,1.33495e-05,0.00937359,-0.00378859,0.0026699,0,0,0,0,0.0772447,0.51651,-0.994921,33.5,1,18214,28230837
73,1,-0.674595,-0.0862193,9.78853,0.0611378,-0.605341,0.995959,-0.00674963,-0.000871549,0.097885,1,4.6868e-05,-1.8943e-05,1.33495e-05,0.00937359,-0.00378859,0.0026699,0,0,0,0,0.0772447,0.51651,-0.994921,33.5,1,18214,28230837
73,2,-0.677222,-0.0859095,9.7821,0.0556445,-0.604028,0.991015,-0.00677118,-0.000867145,0.097821,1,4.01382e-05,5.16931e-06,1.45246e-05,0.00802764,0.00103386,0.00290492,0,0,0,0,0.0764343,0.515443,-0.989386,33.5,1,18215,28230937
73,3,-0.677222,-0.0859095,9.7821,0.0556445,-0.604028,0.991015,-0.00677118,-0.000867145,0.097821,1,4.01382e-05,5.16931e-06,1.45246e-05,0.00802764,0.00103386,0.00290492,0,0,0,0,0.0764343,0.515443,-0.989386,33.5,1,18215,28230937
73,4,-0.673561,-0.0934512,9.79083,0.0580862,-0.615384,1.00123,-0.00673958,-0.000942911,0.097908,1,4.13637e-05,-2.04815e-05,2.21974e-05,0.00827274,-0.0040963,0.00443948,0,0,0,0,0.0773481,0.518362,-0.989325,33.5,1,18216,28231037
74,1,-0.673561,-0.0934512,9.79083,0.0580862,-0.615384,1.00123,-0.00673958,-0.000942911,0.097908,1,4.13637e-05,-2.04815e-05,2.21974e-05,0.00827274,-0.0040963,0.00443948,0,0,0,0,0.0773481,0.518362,-0.989325,33.5,1,18216,28231037
74,2,-0.68323,-0.089606,9.78855,0.0449163,-0.607921,0.994549,-0.00683361,-0.000901495,0.0978854,1,2.75262e-05,-6.73134e-06,3.4329e-06,0.00550524,-0.00134627,0.00068658,0,0,0,0,0.0800635,0.5228,-0.993279,33.5,1,18217,28231137
74,3,-0.68323,-0.089606,9.78855,0.0449163,-0.607921,0.994549,-0.00683361,-0.000901495,0.0978854,1,2.75262e-05,-6.73134e-06,3.4329e-06,0.00550524,-0.00134627,0.00068658,0,0,0,0,0.0800635,0.5228,-0.993279,33.5,1,18217,28231137
74,4,-0.677426,-0.0920926,9.79832,0.0576903,-0.609734,1.0027,-0.00677419,-0.000930642,0.0979832,1,4.7544e-05,5.94518e-08,2.94373e-05,0.0095088,1.18904e-05,0.00588745,0,0,0,0,0.0795079,0.521412,-0.997348,33.5,1,18218,28231237
75,1,-0.677426,-0.0920926,9.79832,0.0576903,-0.609734,1.0027,-0.00677419,-0.000930642,0.0979832,1,4.7544e-05,5.94518e-08,2.94373e-05,0.0095088,1.18904e-05,0.00588745,0,0,0,0,0.0795079,0.521412,-0.997348,33.5,1,18218,28231237
75,2,-0.674655,-0.0795476,9.79266,0.0609434,-0.597724,0.996364,-0.0067499,-0.000803385,0.0979263,1,3.92404e-05,-1.72313e-05,1.65811e-05,0.00784808,-0.00344626,0.00331623,0,0,0,0,0.0771218,0.518045,-0.998927,33.5,1,18219,28231337
75,3,-0.674655,-0.0795476,9.79266,0.0609434,-0.597724,0.996364,-0.0067499,-0.000803385,0.0979263,1,3.92404e-05,-1.72313e-05,1.65811e-05,0.00784808,-0.00344626,0.00331623,0,0,0,0,0.0771218,0.518045,-0.998927,33.5,1,18219,28231337
75,4,-0.682247,-0.0830212,9.79166,0.043435,-0.603164,0.99965,-0.0068233,-0.000838345,0.0979164,1,3.92031e-05,-4.5395e-06,3.34344e-05,0.00784062,-0.000907899,0.00668689,0,0,0,0,0.0767759,0.516505,-0.994414,33.5,1,18220,28231437
76,1,-0.682247,-0.0830212,9.79166,0.043435,-0.603164,0.99965,-0.0068233,-0.000838345,0.0979164,1,3.92031e-05,-4.5395e-06,3.34344e-05,0.00784062,-0.000907899,0.00668689,0,0,0,0,0.0767759,0.516505,-0.994414,33.5,1,18220,28231437
76,2,-0.688244,-0.0923448,9.78856,0.0427254,-0.610977,0.993566,-0.00688514,-0.000930818,0.0978853,1,3.60832e-05,-1.40443e-05,2.22623e-05,0.00721664,-0.00280887,0.00445245,0,0,0,0,0.0754151,0.51742,-0.990347,33.5,1,18221,28231537
76,3,-0.688244,-0.0923448,9.78856,0.0427254,-0.610977,0.993566,-0.00688514,-0.000930818,0.0978853,1,3.60832e-05,-1.40443e-05,2.22623e-05,0.00721664,-0.00280887,0.00445245,0,0,0,0,0.0754151,0.51742,-0.990347,33.5,1,18221,28231537
76,4,-0.671494,-0.0882758,9.79119,0.0591226,-0.609356,0.999202,-0.0067154,-0.000891408,0.0979117,1,4.23673e-05,-2.54419e-06,2.63347e-05,0.00847347,-0.000508838,0.00526693,0,0,0,0,0.0772831,0.520818,-0.99028,33.5,1,18222,28231637
77,1,-0.671494,-0.0882758,9.79119,0.0591226,-0.609356,0.999202,-0.0067154,-0.000891408,0.0979117,1,4.23673e-05,-2.54419e-06,2.63347e-05,0.00847347,-0.000508838,0.00526693,0,0,0,0,0.0772831,0.520818,-0.99028,33.5,1,18222,28231637
77,2,-0.670618,-0.0847733,9.78919,0.0610828,-0.606792,0.995965,-0.00670852,-0.000857638,0.0978917,1,4.96264e-05,-1.20702e-05,1.40444e-05,0.00992528,-0.00241405,0.00280888,0,0,0,0,0.078604,0.523787,-0.993251,33.5,1,18223,28231737
77,3,-0.670618,-0.0847733,9.78919,0.0610828,-0.606792,0.995965,-0.00670852,-0.000857638,0.0978917,1,4.96264e-05,-1.20702e-05,1.40444e-05,0.00992528,-0.00241405,0.00280888,0,0,0,0,0.078604,0.523787,-0.993251,33.5,1,18223,28231737
77,4,-0.671685,-0.086646,9.79494,0.060835,-0.607706,0.999365,-0.00671751,-0.000874967,0.0979493,1,4.2269e-05,-3.55352e-06,1.69128e-05,0.00845381,-0.000710703,0.00338257,0,0,0,0,0.0776166,0.522368,-0.995298,33.5,1,18224,28231837
78,1,-0.671685,-0.086646,9.79494,0.060835,-0.607706,0.999365,-0.00671751,-0.000874967,0.0979493,1,4.2269e-05,-3.55352e-06,1.69128e-05,0.00845381,-0.000710703,0.00338257,0,0,0,0,0.0776166,0.522368,-0.995298,33.5,1,18224,28231837
78,2,-0.678475,-0.0955226,9.78101,0.0495528,-0.618669,0.985254,-0.0067862,-0.000964205,0.0978099,1,4.39249e-05,-7.72067e-06,2.84799e-05,0.00878498,-0.00154413,0.00569598,0,0,0,0,0.0757444,0.518491,-0.99588,33.5,1,18225,28231937
78,3,-0.678475,-0.0955226,9.78101,0.0495528,-0.618669,0.985254,-0.0067862,-0.000964205,0.0978099,1,4.39249e-05,-7.72067e-06,2.84799e-05,0.00878498,-0.00154413,0.00569598,0,0,0,0,0.0757444,0.518491,-0.99588,33.5,1,18225,28231937
78,4,-0.669915,-0.0831964,9.79225,0.0645902,-0.606197,0.994876,-0.00670146,-0.00084046,0.0979223,1,4.19188e-05,-1.19843e-05,2.13477e-05,0.00838377,-0.00239687,0.00426954,0,0,0,0,0.0758669,0.51551,-0.992917,33.5,1,18226,28232037
79,1,-0.669915,-0.0831964,9.79225,0.0645902,-0.606197,0.994876,-0.00670146,-0.00084046,0.0979223,1,4.19188e-05,-1.19843e-05,2.13477e-05,0.00838377,-0.00239687,0.00426954,0,0,0,0,0.0758669,0.51551,-0.992917,33.5,1,18226,28232037
79,2,-0.682094,-0.0741686,9.7941,0.0498048,-0.597728,1.00222,-0.00681945,-0.000749364,0.097941,1,3.78527e-05,7.48758e-06,1.9366e-05,0.00757054,0.00149752,0.00387321,0,0,0,0,0.0759205,0.515953,-0.990382,33.5,1,18227,28232137
79,3,-0.682094,-0.0741686,9.7941,0.0498048,-0.597728,1.00222,-0.00681945,-0.000749364,0.097941,1,3.78527e-05,7.48758e-06,1.9366e-05,0.00757054,0.00149752,0.00387321,0,0,0,0,0.0759205,0.515953,-0.990382,33.5,1,18227,28232137
79,4,-0.683453,-0.0812665,9.78829,0.0480458,-0.603507,0.992596,-0.00683865,-0.000821116,0.0978826,1,4.20734e-05,-2.11729e-05,1.5646e-05,0.00841468,-0.00423458,0.0031292,0,0,0,0,0.0787426,0.519831,-0.990309,33.5,1,18228,28232237
79,5,-0.683453,-0.0812665,9.78829,0.0480458,-0.603507,0.992596,-0.00683865,-0.000821116,0.0978826,1,4.20734e-05,-2.11729e-05,1.5646e-05,0.00841468,-0.00423458,0.0031292,0,0,0,0,0.0787426,0.519831,-0.990309,33.5,1,18228,28232237
79,6,-0.674607,-0.0846966,9.79363,0.0566005,-0.605514,1.00041,-0.00674924,-0.000855332,0.097936,1,4.08497e-05,-1.64567e-05,2.70454e-05,0.00816995,-0.00329134,0.00540908,0,0,0,0,0.0795539,0.523788,-0.99376,33.5,1,18229,28232337
80,1,-0.674607,-0.0846966,9.79363,0.0566005,-0.605514,1.00041,-0.00674924,-0.000855332,0.097936,1,4.08497e-05,-1.64567e-05,2.70454e-05,0.00816995,-0.00329134,0.00540908,0,0,0,0,0.0795539,0.523788,-0.99376,33.5,1,18229,28232337
80,2,-0.678367,-0.0916121,9.79359,0.0521771,-0.618227,0.99744,-0.00678581,-0.000924776,0.0979357,1,4.28985e-05,-1.10776e-05,1.8576e-05,0.0085797,-0.00221551,0.00371521,0,0,0,0,0.0799729,0.522384,-0.997329,33.5,1,18230,28232437
80,3,-0.678367,-0.0916121,9.79359,0.0521771,-0.618227,0.99744,-0.00678581,-0.000924776,0.0979357,1,4.28985e-05,-1.10776e-05,1.8576e-05,0.0085797,-0.00221551,0.00371521,0,0,0,0,0.0799729,0.522384,-0.997329,33.5,1,18230,28232437
80,4,-0.676758,-0.0848655,9.78991,0.0551777,-0.612321,0.992087,-0.00676965,-0.000857383,0.0978989,1,4.3543e-05,-1.07327e-05,1.4972e-05,0.0087086,-0.00214655,0.00299441,0,0,0,0,0.0786026,0.519451,-0.996377,33.5,1,18231,28232537
81,1,-0.676758,-0.0848655,9.78991,0.0551777,-0.612321,0.992087,-0.00676965,-0.000857383,0.0978989,1,4.3543e-05,-1.07327e-05,1.4972e-05,0.0087086,-0.00214655,0.00299441,0,0,0,0,0.0786026,0.519451,-0.996377,33.5,1,18231,28232537
81,2,-0.680486,-0.0840085,9.78859,0.0457059,-0.608926,0.991255,-0.00680817,-0.000847629,0.0978856,1,3.83017e-05,-1.69387e-05,3.41063e-06,0.00766033,-0.00338775,0.000682126,0,0,0,0,0.0772903,0.51744,-0.992376,33.5,1,18232,28232637
81,3,-0.680486,-0.0840085,9.78859,0.0457059,-0.608926,0.991255,-0.00680817,-0.000847629,0.0978856,1,3.83017e-05,-1.69387e-05,3.41063e-06,0.00766033,-0.00338775,0.000682126,0,0,0,0,0.0772903,0.51744,-0.992376,33.5,1,18232,28232637
81,4,-0.6764,-0.0856466,9.7882,0.0540315,-0.606967,0.994488,-0.00676686,-0.000864788,0.0978817,1,4.06671e-05,-1.48489e-05,2.66546e-05,0.00813341,-0.00296979,0.00533092,0,0,0,0,0.0778084,0.517409,-0.990863,33.5,1,18233,28232737
82,1,-0.6764,-0.0856466,9.7882,0.0540315,-0.606967,0.994488,-0.00676686,-0.000864788,0.0978817,1,4.06671e-05,-1.48489e-05,2.66546e-05,0.00813341,-0.00296979,0.00533092,0,0,0,0,0.0778084,0.517409,-0.990863,33.5,1,18233,28232737
82,2,-0.685533,-0.0768275,9.79208,0.0453753,-0.601656,0.993299,-0.0068595,-0.000776613,0.0979204,1,4.15203e-05,-2.14128e-05,1.50651e-05,0.00830405,-0.00428257,0.00301303,0,0,0,0,0.0777922,0.518385,-0.990842,33.5,1,18234,28232837
82,3,-0.685533,-0.0768275,9.79208,0.0453753,-0.601656,0.993299,-0.0068595,-0.000776613,0.0979204,1,4.15203e-05,-2.14128e-05,1.50651e-05,0.00830405,-0.00428257,0.00301303,0,0,0,0,0.0777922,0.518385,-0.990842,33.5,1,18234,28232837
82,4,-0.676856,-0.0829875,9.78992,0.0495594,-0.609128,0.993407,-0.00676979,-0.000836233,0.097899,1,3.1555e-05,-6.35712e-06,1.32436e-05,0.00631101,-0.00127142,0.00264871,0,0,0,0,0.0781182,0.521867,-0.994806,33.5,1,18235,28232937
82,5,-0.676856,-0.0829875,9.78992,0.0495594,-0.609128,0.993407,-0.00676979,-0.000836233,0.097899,1,3.1555e-05,-6.35712e-06,1.32436e-05,0.00631101,-0.00127142,0.00264871,0,0,0,0,0.0781182,0.521867,-0.994806,33.5,1,18235,28232937
82,6,-0.684136,-0.0893459,9.78483,0.0424655,-0.618976,0.988086,-0.00684466,-0.000902851,0.097848,1,4.74714e-05,-1.6896e-05,7.48215e-06,0.00949429,-0.00337919,0.00149643,0,0,0,0,0.0790021,0.521434,-0.998355,33.5,1,18236,28233037
83,1,-0.684136,-0.0893459,9.78483,0.0424655,-0.618976,0.988086,-0.00684466,-0.000902851,0.097848,1,4.74714e-05,-1.6896e-05,7.48215e-06,0.00949429,-0.00337919,0.00149643,0,0,0,0,0.0790021,0.521434,-0.998355,33.5,1,18236,28233037
83,2,-0.678698,-0.0927439,9.79427,0.0476834,-0.621392,1.00358,-0.00678946,-0.00093173,0.0979424,1,2.03791e-05,-1.28616e-05,2.19848e-05,0.00407583,-0.00257232,0.00439697,0,0,0,0,0.077591,0.519495,-0.998392,33.5,1,18237,28233137
83,3,-0.678698,-0.0927439,9.79427,0.0476834,-0.621392,1.00358,-0.00678946,-0.00093173,0.0979424,1,2.03791e-05,-1.28616e-05,2.19848e-05,0.00407583,-0.00257232,0.00439697,0,0,0,0,0.077591,0.519495,-0.998392,33.5,1,18237,28233137
83,4,-0.68199,-0.0764574,9.78798,0.043725,-0.605171,0.994043,-0.00682104,-0.000774116,0.0978796,1,4.77862e-05,-5.92882e-06,1.37705e-05,0.00955723,-0.00118576,0.00275411,0,0,0,0,0.0762625,0.51846,-0.994368,33.5,1,18238,28233237
84,1,-0.68199,-0.0764574,9.78798,0.043725,-0.605171,0.994043,-0.00682104,-0.000774116,0.0978796,1,4.77862e-05,-5.92882e-06,1.37705e-05,0.00955723,-0.00118576,0.00275411,0,0,0,0,0.0762625,0.51846,-0.994368,33.5,1,18238,28233237
84,2,-0.679127,-0.0807778,9.79234,0.0476034,-0.609706,0.998872,-0.00679442,-0.000817283,0.0979231,1,4.66984e-05,-1.6337e-05,2.64554e-05,0.00933967,-0.0032674,0.00529107,0,0,0,0,0.0777723,0.520327,-0.990293,33.5,1,18239,28233337
84,3,-0.679127,-0.0807778,9.79234,0.0476034,-0.609706,0.998872,-0.00679442,-0.000817283,0.0979231,1,4.66984e-05,-1.6337e-05,2.64554e-05,0.00933967,-0.0032674,0.00529107,0,0,0,0,0.0777723,0.520327,-0.990293,33.5,1,18239,28233337
84,4,-0.679461,-0.0827798,9.78113,0.0481675,-0.609297,0.986316,-0.00679911,-0.000838205,0.0978109,1,5.20068e-05,-2.31287e-05,1.71532e-05,0.0104014,-0.00462574,0.00343065,0,0,0,0,0.0801622,0.522727,-0.989241,33.5,1,18240,28233437
84,5,-0.679461,-0.0827798,9.78113,0.0481675,-0.609297,0.986316,-0.00679911,-0.000838205,0.0978109,1,5.20068e-05,-2.31287e-05,1.71532e-05,0.0104014,-0.00462574,0.00343065,0,0,0,0,0.0801622,0.522727,-0.989241,33.5,1,18240,28233437
84,6,-0.677087,-0.0832008,9.78654,0.0482371,-0.614976,0.99476,-0.00677316,-0.000840786,0.0978651,1,4.2597e-05,-1.19489e-05,3.25533e-05,0.00851939,-0.00238978,0.00651065,0,0,0,0,0.0790809,0.523304,-0.993769,33.5,1,18241,28233537
85,1,-0.677087,-0.0832008,9.78654,0.0482371,-0.614976,0.99476,-0.00677316,-0.000840786,0.0978651,1,4.2597e-05,-1.19489e-05,3.25533e-05,0.00851939,-0.00238978,0.00651065,0,0,0,0,0.0790809,0.523304,-0.993769,33.5,1,18241,28233537
85,2,-0.680372,-0.0784866,9.79373,0.045,-0.61162,0.995906,-0.00680848,-0.000794809,0.0979369,1,4.82146e-05,-2.46169e-05,3.67032e-05,0.00964293,-0.00492338,0.00734065,0,0,0,0,0.0785618,0.520445,-0.997365,33.5,1,18242,28233637
85,3,-0.680372,-0.0784866,9.79373,0.045,-0.61162,0.995906,-0.00680848,-0.000794809,0.0979369,1,4.82146e-05,-2.46169e-05,3.67032e-05,0.00964293,-0.00492338,0.00734065,0,0,0,0,0.0785618,0.520445,-0.997365,33.5,1,18242,28233637
85,4,-0.676073,-0.0866632,9.78921,0.0480273,-0.618955,0.996269,-0.00676425,-0.000874017,0.0978918,1,3.64631e-05,-1.81569e-05,1.82096e-05,0.00729261,-0.00363138,0.00364193,0,0,0,0,0.0775868,0.519017,-0.998908,33.5,1,18243,28233737
86,1,-0.676073,-0.0866632,9.78921,0.0480273,-0.618955,0.996269,-0.00676425,-0.000874017,0.0978918,1,3.64631e-05,-1.81569e-05,1.82096e-05,0.00729261,-0.00363138,0.00364193,0,0,0,0,0.0775868,0.519017,-0.998908,33.5,1,18243,28233737
86,2,-0.683437,-0.0835996,9.792,0.0403432,-0.615218,0.998798,-0.00683786,-0.000845159,0.0979197,1,4.49829e-05,-1.80473e-05,2.58869e-05,0.00899658,-0.00360946,0.00517737,0,0,0,0,0.0772162,0.517494,-0.995404,33.5,1,18244,28233837
86,3,-0.683437,-0.0835996,9.792,0.0403432,-0.615218,0.998798,-0.00683786,-0.000845159,0.0979197,1,4.49829e-05,-1.80473e-05,2.58869e-05,0.00899658,-0.00360946,0.00517737,0,0,0,0,0.0772162,0.517494,-0.995404,33.5,1,18244,28233837
86,4,-0.679499,-0.0847726,9.78585,0.047078,-0.617174,0.99542,-0.0067978,-0.000854487,0.0978583,1,3.26522e-05,-1.45826e-05,2.72486e-05,0.00653044,-0.00291653,0.00544972,0,0,0,0,0.0768585,0.517408,-0.990354,33.5,1,18245,28233937
87,1,-0.679499,-0.0847726,9.78585,0.047078,-0.617174,0.99542,-0.0067978,-0.000854487,0.0978583,1,3.26522e-05,-1.45826e-05,2.72486e-05,0.00653044,-0.00291653,0.00544972,0,0,0,0,0.0768585,0.517408,-0.990354,33.5,1,18245,28233937
87,2,-0.686585,-0.0881309,9.79469,0.0404186,-0.618579,1.00333,-0.00686675,-0.000889686,0.0979468,1,4.13731e-05,-4.78331e-06,1.98539e-05,0.00827462,-0.000956661,0.00397077,0,0,0,0,0.0787834,0.518837,-0.989321,33.5,1,18246,28234037
87,3,-0.686585,-0.0881309,9.79469,0.0404186,-0.618579,1.00333,-0.00686675,-0.000889686,0.0979468,1,4.13731e-05,-4.78331e-06,1.98539e-05,0.00827462,-0.000956661,0.00397077,0,0,0,0,0.0787834,0.518837,-0.989321,33.5,1,18246,28234037
87,4,-0.682418,-0.0915623,9.7865,0.0400408,-0.623437,0.989783,-0.0068267,-0.000922868,0.0978648,1,3.44741e-05,-1.32377e-05,3.64965e-05,0.00689482,-0.00264755,0.0072993,0,0,0,0,0.0800635,0.5228,-0.993279,33.5,1,18247,28234137
88,1,-0.682418,-0.0915623,9.7865,0.0400408,-0.623437,0.989783,-0.0068267,-0.000922868,0.0978648,1,3.44741e-05,-1.32377e-05,3.64965e-05,0.00689482,-0.00264755,0.0072993,0,0,0,0,0.0800635,0.5228,-0.993279,33.5,1,18247,28234137
88,2,-0.689111,-0.0902397,9.78419,0.0334756,-0.626313,0.988096,-0.00689588,-0.000909252,0.0978415,1,3.35744e-05,-2.45608e-05,2.0716e-05,0.00671488,-0.00491216,0.00414321,0,0,0,0,0.0790149,0.522871,-0.996808,33.5,1,18248,28234237
88,3,-0.689111,-0.0902397,9.78419,0.0334756,-0.626313,0.988096,-0.00689588,-0.000909252,0.0978415,1,3.35744e-05,-2.45608e-05,2.0716e-05,0.00671488,-0.00491216,0.00414321,0,0,0,0,0.0790149,0.522871,-0.996808,33.5,1,18248,28234237
88,4,-0.680242,-0.0793404,9.79066,0.0435407,-0.61527,0.995162,-0.00680299,-0.000804178,0.0979064,1,5.42701e-05,-3.03594e-06,1.0833e-05,0.010854,-0.000607187,0.0021666,0,0,0,0,0.0757278,0.518021,-0.996901,33.5,1,18249,28234337
89,1,-0.680242,-0.0793404,9.79066,0.0435407,-0.61527,0.995162,-0.00680299,-0.000804178,0.0979064,1,5.42701e-05,-3.03594e-06,1.0833e-05,0.010854,-0.000607187,0.0021666,0,0,0,0,0.0757278,0.518021,-0.996901,33.5,1,18249,28234337
89,2,-0.678742,-0.0775429,9.79813,0.0426447,-0.612458,1.00439,-0.00678964,-0.000783751,0.0979811,1,4.15015e-05,-1.13904e-05,1.39155e-05,0.00830031,-0.00227808,0.00278311,0,0,0,0,0.0758626,0.515031,-0.993433,33.5,1,18250,28234437
89,3,-0.678742,-0.0775429,9.79813,0.0426447,-0.612458,1.00439,-0.00678964,-0.000783751,0.0979811,1,4.15015e-05,-1.13904e-05,1.39155e-05,0.00830031,-0.00227808,0.00278311,0,0,0,0,0.0758626,0.515031,-0.993433,33.5,1,18250,28234437
89,4,-0.69326,-0.08754,9.79103,0.0323344,-0.624523,0.996511,-0.00693559,-0.000883315,0.09791,1,3.96949e-05,-1.53352e-05,1.02871e-05,0.00793897,-0.00306705,0.00205742,0,0,0,0,0.0759048,0.518373,-0.989318,33.5,1,18251,28234537
89,5,-0.69326,-0.08754,9.79103,0.0323344,-0.624523,0.996511,-0.00693559,-0.000883315,0.09791,1,3.96949e-05,-1.53352e-05,1.02871e-05,0.00793897,-0.00306705,0.00205742,0,0,0,0,0.0759048,0.518373,-0.989318,33.5,1,18251,28234537
89,6,-0.684611,-0.0884759,9.79501,0.0450605,-0.623853,1.00128,-0.00684674,-0.000893188,0.09795,1,4.17306e-05,-3.39913e-06,1.85539e-05,0.00834613,-0.000679827,0.00371078,0,0,0,0,0.0768062,0.521301,-0.989762,33.5,1,18252,28234637
90,1,-0.684611,-0.0884759,9.79501,0.0450605,-0.623853,1.00128,-0.00684674,-0.000893188,0.09795,1,4.17306e-05,-3.39913e-06,1.85539e-05,0.00834613,-0.000679827,0.00371078,0,0,0,0,0.0768062,0.521301,-0.989762,33.5,1,18252,28234637
90,2,-0.681068,-0.0925659,9.79801,0.0464182,-0.626506,1.00154,-0.00681221,-0.000935065,0.0979799,1,4.62979e-05,-8.00943e-06,2.44751e-05,0.00925958,-0.00160189,0.00489502,0,0,0,0,0.0776494,0.521862,-0.994299,33.5,1,18253,28234737
90,3,-0.681068,-0.0925659,9.79801,0.0464182,-0.626506,1.00154,-0.00681221,-0.000935065,0.0979799,1,4.62979e-05,-8.00943e-06,2.44751e-05,0.00925958,-0.00160189,0.00489502,0,0,0,0,0.0776494,0.521862,-0.994299,33.5,1,18253,28234737
90,4,-0.681902,-0.0847793,9.78892,0.0401851,-0.615856,0.989958,-0.00682013,-0.000853781,0.0978891,1,2.90143e-05,-5.85086e-06,2.25752e-05,0.00580287,-0.00117017,0.00451505,0,0,0,0,0.0770696,0.521938,-0.998335,33.5,1,18254,28234837
91,1,-0.681902,-0.0847793,9.78892,0.0401851,-0.615856,0.989958,-0.00682013,-0.000853781,0.0978891,1,2.90143e-05,-5.85086e-06,2.25752e-05,0.00580287,-0.00117017,0.00451505,0,0,0,0,0.0770696,0.521938,-0.998335,33.5,1,18254,28234837
91,2,-0.68469,-0.0830493,9.79099,0.0436327,-0.622863,0.996268,-0.00684707,-0.00083867,0.0979098,1,3.98773e-05,-1.10663e-06,2.6919e-05,0.00797547,-0.000221327,0.0053838,0,0,0,0,0.0761354,0.519516,-0.99889,33.5,1,18255,28234937
92,1,-0.68469,-0.0830493,9.79099,0.0436327,-0.622863,0.996268,-0.00684707,-0.00083867,0.0979098,1,3.98773e-05,-1.10663e-06,2.6919e-05,0.00797547,-0.000221327,0.0053838,0,0,0,0,0.0761354,0.519516,-0.99889,33.5,1,18255,28234937
92,2,-0.684698,-0.0686302,9.7901,0.0355538,-0.603976,1.00096,-0.00684973,-0.000694785,0.0979007,1,4.19169e-05,-1.41636e-05,2.01093e-05,0.00838337,-0.00283273,0.00402185,0,0,0,0,0.0777462,0.516009,-0.99443,33.5,1,18256,28235037
92,3,-0.684698,-0.0686302,9.7901,0.0355538,-0.603976,1.00096,-0.00684973,-0.000694785,0.0979007,1,4.19169e-05,-1.41636e-05,2.01093e-05,0.00838337,-0.00283273,0.00402185,0,0,0,0,0.0777462,0.516009,-0.99443,33.5,1,18256,28235037
92,4,-0.678704,-0.0883172,9.79023,0.0420213,-0.624121,0.997151,-0.00679095,-0.000892888,0.097902,1,4.87361e-05,-2.00606e-05,1.27649e-05,0.00974722,-0.00401212,0.00255298,0,0,0,0,0.0778535,0.516894,-0.98936,33.5,1,18257,28235137
93,1,-0.678704,-0.0883172,9.79023,0.0420213,-0.624121,0.997151,-0.00679095,-0.000892888,0.097902,1,4.87361e-05,-2.00606e-05,1.27649e-05,0.00974722,-0.00401212,0.00255298,0,0,0,0,0.0778535,0.516894,-0.98936,33.5,1,18257,28235137
93,2,-0.68098,-0.0853969,9.78925,0.0423714,-0.62049,0.995065,-0.00680913,-0.000861849,0.0978924,1,3.90969e-05,3.22634e-06,1.6559e-05,0.00781938,0.000645269,0.00331179,0,0,0,0,0.07827,0.520792,-0.989275,33.5,1,18258,28235237
93,3,-0.68098,-0.0853969,9.78925,0.0423714,-0.62049,0.995065,-0.00680913,-0.000861849,0.0978924,1,3.90969e-05,3.22634e-06,1.6559e-05,0.00781938,0.000645269,0.00331179,0,0,0,0,0.07827,0.520792,-0.989275,33.5,1,18258,28235237
93,4,-0.679027,-0.0848819,9.78281,0.0415676,-0.619052,0.988377,-0.00679466,-0.000856788,0.0978277,1,3.93856e-05,-2.2581e-05,1.94069e-05,0.00787711,-0.00451619,0.00388138,0,0,0,0,0.0791093,0.52232,-0.993286,33.5,1,18259,28235337
93,5,-0.679027,-0.0848819,9.78281,0.0415676,-0.619052,0.988377,-0.00679466,-0.000856788,0.0978277,1,3.93856e-05,-2.2581e-05,1.94069e-05,0.00787711,-0.00451619,0.00388138,0,0,0,0,0.0791093,0.52232,-0.993286,33.5,1,18259,28235337
93,6,-0.681552,-0.0830707,9.78691,0.0402394,-0.617326,0.991802,-0.00681686,-0.000837251,0.0978689,1,3.22871e-05,-7.0131e-06,1.64247e-05,0.00645742,-0.00140262,0.00328494,0,0,0,0,0.0800137,0.52139,-0.996341,33.5,1,18260,28235437
94,1,-0.681552,-0.0830707,9.78691,0.0402394,-0.617326,0.991802,-0.00681686,-0.000837251,0.0978689,1,3.22871e-05,-7.0131e-06,1.64247e-05,0.00645742,-0.00140262,0.00328494,0,0,0,0,0.0800137,0.52139,-0.996341,33.5,1,18260,28235437
94,2,-0.678059,-0.0883794,9.78921,0.0456619,-0.629726,0.993671,-0.00678309,-0.0008912,0.0978919,1,3.74205e-05,-1.28338e-05,5.83007e-06,0.0074841,-0.00256675,0.00116601,0,0,0,0,0.0771427,0.518994,-0.997391,33.5,1,18261,28235537
94,3,-0.678059,-0.0883794,9.78921,0.0456619,-0.629726,0.993671,-0.00678309,-0.0008912,0.0978919,1,3.74205e-05,-1.28338e-05,5.83007e-06,0.0074841,-0.00256675,0.00116601,0,0,0,0,0.0771427,0.518994,-0.997391,33.5,1,18261,28235537
94,4,-0.68424,-0.0773802,9.79308,0.0370249,-0.619785,0.99855,-0.00684496,-0.000783309,0.0979305,1,4.72032e-05,-1.32246e-05,1.91164e-05,0.00944063,-0.00264492,0.00382329,0,0,0,0,0.0758222,0.51747,-0.993378,33.5,1,18262,28235637
95,1,-0.68424,-0.0773802,9.79308,0.0370249,-0.619785,0.99855,-0.00684496,-0.000783309,0.0979305,1,4.72032e-05,-1.32246e-05,1.91164e-05,0.00944063,-0.00264492,0.00382329,0,0,0,0,0.0758222,0.51747,-0.993378,33.5,1,18262,28235637
95,2,-0.680085,-0.0943159,9.79358,0.0419178,-0.637651,0.998836,-0.00680338,-0.000950649,0.0979355,1,3.61149e-05,-1.31983e-05,3.06016e-05,0.00722297,-0.00263966,0.00612033,0,0,0,0,0.077295,0.519364,-0.990818,33.5,1,18263,28235737
95,3,-0.680085,-0.0943159,9.79358,0.0419178,-0.637651,0.998836,-0.00680338,-0.000950649,0.0979355,1,3.61149e-05,-1.31983e-05,3.06016e-05,0.00722297,-0.00263966,0.00612033,0,0,0,0,0.077295,0.519364,-0.990818,33.5,1,18263,28235737
95,4,-0.683999,-0.0894802,9.79671,0.0365283,-0.629155,1.00285,-0.00684328,-0.000905711,0.0979668,1,5.34172e-05,-1.70472e-05,3.23163e-05,0.0106834,-0.00340945,0.00646326,0,0,0,0,0.0787018,0.520824,-0.991297,33.5,1,18264,28235837
96,1,-0.683999,-0.0894802,9.79671,0.0365283,-0.629155,1.00285,-0.00684328,-0.000905711,0.0979668,1,5.34172e-05,-1.70472e-05,3.23163e-05,0.0106834,-0.00340945,0.00646326,0,0,0,0,0.0787018,0.520824,-0.991297,33.5,1,18264,28235837
96,2,-0.681549,-0.0854135,9.79366,0.0431738,-0.625775,0.994268,-0.006817,-0.000862304,0.0979364,1,4.07062e-05,-7.83063e-06,1.43444e-05,0.00814123,-0.00156613,0.00286888,0,0,0,0,0.0790481,0.52381,-0.994767,33.5,1,18265,28235937
96,3,-0.681549,-0.0854135,9.79366,0.0431738,-0.625775,0.994268,-0.006817,-0.000862304,0.0979364,1,4.07062e-05,-7.83063e-06,1.43444e-05,0.00814123,-0.00156613,0.00286888,0,0,0,0,0.0790481,0.52381,-0.994767,33.5,1,18265,28235937
96,4,-0.685184,-0.0795012,9.79409,0.0343254,-0.626264,0.994292,-0.00685565,-0.000805829,0.0979405,1,5.36238e-05,-1.96748e-05,2.28156e-05,0.0107248,-0.00393496,0.00456312,0,0,0,0,0.0790515,0.521398,-0.996336,33.5,1,18266,28236037
97,1,-0.685184,-0.0795012,9.79409,0.0343254,-0.626264,0.994292,-0.00685565,-0.000805829,0.0979405,1,5.36238e-05,-1.96748e-05,2.28156e-05,0.0107248,-0.00393496,0.00456312,0,0,0,0,0.0790515,0.521398,-0.996336,33.5,1,18266,28236037
97,2,-0.686971,-0.0881495,9.78215,0.0287007,-0.630187,0.983812,-0.00687273,-0.000888279,0.0978212,1,3.30601e-05,-1.56033e-05,2.29963e-05,0.00661201,-0.00312066,0.00459926,0,0,0,0,0.0767104,0.517516,-0.996412,33.5,1,18267,28236137
97,3,-0.686971,-0.0881495,9.78215,0.0287007,-0.630187,0.983812,-0.00687273,-0.000888279,0.0978212,1,3.30601e-05,-1.56033e-05,2.29963e-05,0.00661201,-0.00312066,0.00459926,0,0,0,0,0.0767104,0.517516,-0.996412,33.5,1,18267,28236137
97,4,-0.689052,-0.0785387,9.7931,0.0319225,-0.621641,0.998295,-0.00689155,-0.0007959,0.0979308,1,5.22361e-05,-5.44271e-06,2.04628e-05,0.0104472,-0.00108854,0.00409256,0,0,0,0,0.0758469,0.517452,-0.992369,33.5,1,18268,28236237
98,1,-0.689052,-0.0785387,9.7931,0.0319225,-0.621641,0.998295,-0.00689155,-0.0007959,0.0979308,1,5.22361e-05,-5.44271e-06,2.04628e-05,0.0104472,-0.00108854,0.00409256,0,0,0,0,0.0758469,0.517452,-0.992369,33.5,1,18268,28236237
98,2,-0.676426,-0.0780058,9.78624,0.043293,-0.619118,0.990458,-0.00676661,-0.000788051,0.0978622,1,3.93502e-05,-1.21632e-05,2.15154e-05,0.00787005,-0.00243263,0.00430308,0,0,0,0,0.0778292,0.518358,-0.989327,33.5,1,18269,28236337
98,3,-0.676426,-0.0780058,9.78624,0.043293,-0.619118,0.990458,-0.00676661,-0.000788051,0.0978622,1,3.93502e-05,-1.21632e-05,2.15154e-05,0.00787005,-0.00243263,0.00430308,0,0,0,0,0.0778292,0.518358,-0.989327,33.5,1,18269,28236337
98,4,-0.685003,-0.091714,9.79907,0.0355092,-0.631638,1.00607,-0.00685473,-0.000923013,0.0979903,1,2.94315e-05,-2.40507e-05,7.6443e-06,0.00588631,-0.00481014,0.00152886,0,0,0,0,0.0792565,0.519321,-0.989312,33.5,1,18270,28236437
98,5,-0.685003,-0.091714,9.79907,0.0355092,-0.631638,1.00607,-0.00685473,-0.000923013,0.0979903,1,2.94315e-05,-2.40507e-05,7.6443e-06,0.00588631,-0.00481014,0.00152886,0,0,0,0,0.0792565,0.519321,-0.989312,33.5,1,18270,28236437
98,6,-0.674559,-0.0766738,9.77097,0.0433091,-0.618003,0.968715,-0.00674687,-0.000777581,0.0977095,1,5.40261e-05,-6.72742e-06,2.11036e-05,0.0108052,-0.00134548,0.00422072,0,0,0,0,0.0786363,0.521836,-0.993294,33.5,1,18271,28236537
99,1,-0.674559,-0.0766738,9.77097,0.0433091,-0.618003,0.968715,-0.00674687,-0.000777581,0.0977095,1,5.40261e-05,-6.72742e-06,2.11036e-05,0.0108052,-0.00134548,0.00422072,0,0,0,0,0.0786363,0.521836,-0.993294,33.5,1,18271,28236537
99,2,-0.679092,-0.097023,9.79829,0.0398836,-0.644245,1.00375,-0.00679153,-0.000978386,0.0979828,1,4.04621e-05,-3.32277e-06,1.6764e-05,0.00809243,-0.000664555,0.00335279,0,0,0,0,0.0775915,0.520941,-0.99735,33.5,3,18272,28236637
99,3,-0.679092,-0.097023,9.79829,0.0398836,-0.644245,1.00375,-0.00679153,-0.000978386,0.0979828,1,4.04621e-05,-3.32277e-06,1.6764e-05,0.00809243,-0.000664555,0.00335279,0,0,0,0,0.0775915,0.520941,-0.99735,33.5,3,18272,28236637
99,4,-0.688321,-0.0827245,9.78967,0.030775,-0.628319,0.994233,-0.00688731,-0.000835218,0.0978963,1,3.92438e-05,-2.11319e-05,2.09737e-05,0.00784876,-0.00422638,0.00419473,0,0,0,0,0.0752424,0.517546,-0.997414,33.5,3,18273,28236737
100,1,-0.688321,-0.0827245,9.78967,0.030775,-0.628319,0.994233,-0.00688731,-0.000835218,0.0978963,1,3.92438e-05,-2.11319e-05,2.09737e-05,0.00784876,-0.00422638,0.00419473,0,0,0,0,0.0752424,0.517546,-0.997414,33.5,3,18273,28236737
100,2,-0.68321,-0.0875794,9.79026,0.0342452,-0.638107,0.996153,-0.0068338,-0.000887997,0.0979024,1,6.19739e-05,-8.70796e-06,4.95467e-06,0.0123948,-0.00174159,0.000990935,0,0,0,0,0.0743988,0.51554,-0.99392,33.5,3,18274,28236837
100,3,-0.68321,-0.0875794,9.79026,0.0342452,-0.638107,0.996153,-0.0068338,-0.000887997,0.0979024,1,6.19739e-05,-8.70796e-06,4.95467e-06,0.0123948,-0.00174159,0.000990935,0,0,0,0,0.0743988,0.51554,-0.99392,33.5,3,18274,28236837
100,4,-0.682862,-0.0869803,9.79434,0.03578,-0.631762,1.00013,-0.00683026,-0.000880932,0.0979432,1,5.58365e-05,-8.46226e-06,1.40593e-05,0.0111673,-0.00169245,0.00281187,0,0,0,0,0.0749544,0.516927,-0.989851,33.5,3,18275,28236937
101,1,-0.682862,-0.0869803,9.79434,0.03578,-0.631762,1.00013,-0.00683026,-0.000880932,0.0979432,1,5.58365e-05,-8.46226e-06,1.40593e-05,0.0111673,-0.00169245,0.00281187,0,0,0,0,0.0749544,0.516927,-0.989851,33.5,3,18275,28236937
101,2,-0.674331,-0.0901238,9.79426,0.0441685,-0.634577,0.996964,-0.00674467,-0.000909323,0.0979424,1,3.96482e-05,-7.16014e-06,2.36779e-05,0.00792965,-0.00143203,0.00473559,0,0,0,0,0.0782942,0.519329,-0.989308,33.5,3,18276,28237037
101,3,-0.674331,-0.0901238,9.79426,0.0441685,-0.634577,0.996964,-0.00674467,-0.000909323,0.0979424,1,3.96482e-05,-7.16014e-06,2.36779e-05,0.00792965,-0.00143203,0.00473559,0,0,0,0,0.0782942,0.519329,-0.989308,33.5,3,18276,28237037
101,4,-0.668432,-0.0815295,9.80075,0.0527661,-0.626213,1.00363,-0.0066887,-0.000823777,0.0980071,1,4.16376e-05,-2.2508e-05,2.39724e-05,0.00832752,-0.0045016,0.00479448,0,0,0,0,0.0800635,0.5228,-0.993279,33.5,3,18277,28237137
102,1,-0.668432,-0.0815295,9.80075,0.0527661,-0.626213,1.00363,-0.0066887,-0.000823777,0.0980071,1,4.16376e-05,-2.2508e-05,2.39724e-05,0.00832752,-0.0045016,0.00479448,0,0,0,0,0.0800635,0.5228,-0.993279,33.5,3,18277,28237137
102,2,-0.681217,-0.0835175,9.78316,0.0354782,-0.627045,0.984629,-0.00681412,-0.000844372,0.0978314,1,4.56869e-05,-1.00938e-05,1.89002e-05,0.00913739,-0.00201877,0.00378004,0,0,0,0,0.0785623,0.52189,-0.996323,33.5,3,18278,28237237
102,3,-0.681217,-0.0835175,9.78316,0.0354782,-0.627045,0.984629,-0.00681412,-0.000844372,0.0978314,1,4.56869e-05,-1.00938e-05,1.89002e-05,0.00913739,-0.00201877,0.00378004,0,0,0,0,0.0785623,0.52189,-0.996323,33.5,3,18278,28237237
102,4,-0.677339,-0.0867273,9.79736,0.043255,-0.636203,1.00223,-0.00677685,-0.000875132,0.0979733,1,3.81524e-05,-1.79427e-05,2.82641e-05,0.00763048,-0.00358853,0.00565281,0,0,0,0,0.0771389,0.51996,-0.996864,33.5,3,18279,28237337
103,1,-0.677339,-0.0867273,9.79736,0.043255,-0.636203,1.00223,-0.00677685,-0.000875132,0.0979733,1,3.81524e-05,-1.79427e-05,2.82641e-05,0.00763048,-0.00358853,0.00565281,0,0,0,0,0.0771389,0.51996,-0.996864,33.5,3,18279,28237337
103,2,-0.675287,-0.0773618,9.79133,0.0405401,-0.628055,0.99594,-0.00675716,-0.000783316,0.0979129,1,4.82686e-05,-2.20296e-05,1.82296e-05,0.00965372,-0.00440592,0.00364592,0,0,0,0,0.0767474,0.517489,-0.994897,33.5,3,18280,28237437
103,3,-0.675287,-0.0773618,9.79133,0.0405401,-0.628055,0.99594,-0.00675716,-0.000783316,0.0979129,1,4.82686e-05,-2.20296e-05,1.82296e-05,0.00965372,-0.00440592,0.00364592,0,0,0,0,0.0767474,0.517489,-0.994897,33.5,3,18280,28237437
103,4,-0.675373,-0.0856863,9.79057,0.0449932,-0.633507,0.994056,-0.0067568,-0.000863774,0.0979054,1,3.43471e-05,-1.57971e-05,1.37427e-05,0.00686943,-0.00315941,0.00274855,0,0,0,0,0.0768338,0.517426,-0.991364,33.5,3,18281,28237537
104,1,-0.675373,-0.0856863,9.79057,0.0449932,-0.633507,0.994056,-0.0067568,-0.000863774,0.0979054,1,3.43471e-05,-1.57971e-05,1.37427e-05,0.00686943,-0.00315941,0.00274855,0,0,0,0,0.0768338,0.517426,-0.991364,33.5,3,18281,28237537
104,2,-0.679418,-0.0910402,9.78784,0.0380031,-0.635904,0.990655,-0.00679729,-0.00092013,0.0978781,1,4.86522e-05,-1.60319e-05,1.50131e-05,0.00973044,-0.00320638,0.00300262,0,0,0,0,0.0787507,0.519343,-0.99032,33.5,3,18282,28237637
104,3,-0.679418,-0.0910402,9.78784,0.0380031,-0.635904,0.990655,-0.00679729,-0.00092013,0.0978781,1,4.86522e-05,-1.60319e-05,1.50131e-05,0.00973044,-0.00320638,0.00300262,0,0,0,0,0.0787507,0.519343,-0.99032,33.5,3,18282,28237637
104,4,-0.676173,-0.0900144,9.78341,0.0411117,-0.639994,0.989058,-0.0067624,-0.000907903,0.097834,1,3.75918e-05,-3.72149e-06,2.98416e-05,0.00751836,-0.000744298,0.00596832,0,0,0,0,0.0786363,0.521836,-0.993294,33.5,3,18283,28237737
104,5,-0.676173,-0.0900144,9.78341,0.0411117,-0.639994,0.989058,-0.0067624,-0.000907903,0.097834,1,3.75918e-05,-3.72149e-06,2.98416e-05,0.00751836,-0.000744298,0.00596832,0,0,0,0,0.0786363,0.521836,-0.993294,33.5,3,18283,28237737
104,6,-0.673183,-0.0821475,9.78685,0.042571,-0.628647,0.986015,-0.00673284,-0.000830423,0.0978683,1,4.44798e-05,-5.31421e-06,1.79488e-05,0.00889596,-0.00106284,0.00358976,0,0,0,0,0.0786074,0.521375,-0.994819,33.5,3,18284,28237837
105,1,-0.673183,-0.0821475,9.78685,0.042571,-0.628647,0.986015,-0.00673284,-0.000830423,0.0978683,1,4.44798e-05,-5.31421e-06,1.79488e-05,0.00889596,-0.00106284,0.00358976,0,0,0,0,0.0786074,0.521375,-0.994819,33.5,3,18284,28237837
105,2,-0.685406,-0.0874672,9.79572,0.0355605,-0.638288,1.00254,-0.00685808,-0.000882795,0.0979568,1,4.12056e-05,-2.05559e-05,3.70844e-06,0.00824112,-0.00411118,0.000741689,0,0,0,0,0.0781296,0.518968,-0.996386,33.5,3,18285,28237937
105,3,-0.685406,-0.0874672,9.79572,0.0355605,-0.638288,1.00254,-0.00685808,-0.000882795,0.0979568,1,4.12056e-05,-2.05559e-05,3.70844e-06,0.00824112,-0.00411118,0.000741689,0,0,0,0,0.0781296,0.518968,-0.996386,33.5,3,18285,28237937
105,4,-0.682146,-0.0837168,9.79335,0.0361346,-0.632823,0.996564,-0.00682441,-0.000845378,0.0979332,1,4.14383e-05,-1.51545e-05,6.85641e-06,0.00828765,-0.0030309,0.00137128,0,0,0,0,0.0768253,0.516469,-0.992395,33.5,3,18286,28238037
106,1,-0.682146,-0.0837168,9.79335,0.0361346,-0.632823,0.996564,-0.00682441,-0.000845378,0.0979332,1,4.14383e-05,-1.51545e-05,6.85641e-06,0.00828765,-0.0030309,0.00137128,0,0,0,0,0.0768253,0.516469,-0.992395,33.5,3,18286,28238037
106,2,-0.690549,-0.0843327,9.78764,0.0242462,-0.634233,0.988282,-0.00691097,-0.000852858,0.0978759,1,4.81084e-05,-2.80478e-05,8.2198e-06,0.00962167,-0.00560956,0.00164396,0,0,0,0,0.0759048,0.518373,-0.989318,33.5,3,18287,28238137
106,3,-0.690549,-0.0843327,9.78764,0.0242462,-0.634233,0.988282,-0.00691097,-0.000852858,0.0978759,1,4.81084e-05,-2.80478e-05,8.2198e-06,0.00962167,-0.00560956,0.00164396,0,0,0,0,0.0759048,0.518373,-0.989318,33.5,3,18287,28238137
106,4,-0.683693,-0.0832039,9.78283,0.0347427,-0.638245,0.9894,-0.00683761,-0.000840958,0.0978282,1,4.29879e-05,-3.79971e-06,3.71934e-05,0.00859759,-0.000759942,0.00743867,0,0,0,0,0.0787592,0.520301,-0.989288,33.5,3,18288,28238237
107,1,-0.683693,-0.0832039,9.78283,0.0347427,-0.638245,0.9894,-0.00683761,-0.000840958,0.0978282,1,4.29879e-05,-3.79971e-06,3.71934e-05,0.00859759,-0.000759942,0.00743867,0,0,0,0,0.0787592,0.520301,-0.989288,33.5,3,18288,28238237
107,2,-0.683103,-0.0899956,9.79296,0.0323226,-0.641853,0.991999,-0.00683414,-0.00090687,0.0979294,1,3.46826e-05,-1.59441e-05,8.83253e-06,0.00693651,-0.00318881,0.00176651,0,0,0,0,0.0800796,0.521824,-0.993301,33.5,3,18289,28238337
107,3,-0.683103,-0.0899956,9.79296,0.0323226,-0.641853,0.991999,-0.00683414,-0.00090687,0.0979294,1,3.46826e-05,-1.59441e-05,8.83253e-06,0.00693651,-0.00318881,0.00176651,0,0,0,0,0.0800796,0.521824,-0.993301,33.5,3,18289,28238337
107,4,-0.676036,-0.0876677,9.78242,0.03772,-0.644769,0.982496,-0.00676276,-0.000884252,0.097824,1,3.77707e-05,-1.23755e-05,1.36735e-05,0.00755415,-0.00247511,0.00273469,0,0,0,0,0.0795734,0.520401,-0.995351,33.5,3,18290,28238437
108,1,-0.676036,-0.0876677,9.78242,0.03772,-0.644769,0.982496,-0.00676276,-0.000884252,0.097824,1,3.77707e-05,-1.23755e-05,1.36735e-05,0.00755415,-0.00247511,0.00273469,0,0,0,0,0.0795734,0.520401,-0.995351,33.5,3,18290,28238437
108,2,-0.677427,-0.0896946,9.78512,0.0415803,-0.638853,0.983227,-0.00677575,-0.000907456,0.097851,1,5.28489e-05,-7.66698e-06,1.23454e-05,0.0105698,-0.0015334,0.00246908,0,0,0,0,0.0776893,0.517978,-0.995396,33.5,3,18291,28238537
108,3,-0.677427,-0.0896946,9.78512,0.0415803,-0.638853,0.983227,-0.00677575,-0.000907456,0.097851,1,5.28489e-05,-7.66698e-06,1.23454e-05,0.0105698,-0.0015334,0.00246908,0,0,0,0,0.0776893,0.517978,-0.995396,33.5,3,18291,28238537
108,4,-0.674759,-0.0834742,9.78482,0.0411302,-0.637562,0.985348,-0.00674956,-0.000844406,0.097848,1,4.83076e-05,-1.02187e-05,1.56071e-05,0.00966153,-0.00204374,0.00312143,0,0,0,0,0.0758298,0.515537,-0.994431,33.5,3,18292,28238637
109,1,-0.674759,-0.0834742,9.78482,0.0411302,-0.637562,0.985348,-0.00674956,-0.000844406,0.097848,1,4.83076e-05,-1.02187e-05,1.56071e-05,0.00966153,-0.00204374,0.00312143,0,0,0,0,0.0758298,0.515537,-0.994431,33.5,3,18292,28238637
109,2,-0.684856,-0.0890202,9.79162,0.0315868,-0.639047,0.993982,-0.00685063,-0.000900268,0.097916,1,5.01964e-05,-1.07028e-05,1.72499e-05,0.0100393,-0.00214056,0.00344999,0,0,0,0,0.0749378,0.516457,-0.990871,33.5,3,18293,28238737
109,3,-0.684856,-0.0890202,9.79162,0.0315868,-0.639047,0.993982,-0.00685063,-0.000900268,0.097916,1,5.01964e-05,-1.07028e-05,1.72499e-05,0.0100393,-0.00214056,0.00344999,0,0,0,0,0.0749378,0.516457,-0.990871,33.5,3,18293,28238737
109,4,-0.680585,-0.0883968,9.78684,0.0334561,-0.64106,0.989623,-0.00680705,-0.000892674,0.0978683,1,4.31611e-05,-6.30498e-06,1.89452e-05,0.00863222,-0.001261,0.00378904,0,0,0,0,0.0777974,0.521754,-0.988241,33.5,3,18294,28238837
110,1,-0.680585,-0.0883968,9.78684,0.0334561,-0.64106,0.989623,-0.00680705,-0.000892674,0.0978683,1,4.31611e-05,-6.30498e-06,1.89452e-05,0.00863222,-0.001261,0.00378904,0,0,0,0,0.0777974,0.521754,-0.988241,33.5,3,18294,28238837
110,2,-0.676531,-0.0759142,9.7815,0.0389985,-0.625385,0.984064,-0.00676563,-0.000768965,0.0978149,1,4.83788e-05,-1.85507e-06,2.64751e-05,0.00967576,-0.000371015,0.00529503,0,0,0,0,0.078604,0.523787,-0.993251,33.5,3,18295,28238937
110,3,-0.676531,-0.0759142,9.7815,0.0389985,-0.625385,0.984064,-0.00676563,-0.000768965,0.0978149,1,4.83788e-05,-1.85507e-06,2.64751e-05,0.00967576,-0.000371015,0.00529503,0,0,0,0,0.078604,0.523787,-0.993251,33.5,3,18295,28238937
110,4,-0.680759,-0.0910188,9.78955,0.0349728,-0.647197,0.988689,-0.00681052,-0.000920234,0.0978952,1,4.98146e-05,-1.51655e-05,2.14783e-05,0.00996292,-0.00303309,0.00429566,0,0,0,0,0.0770819,0.521929,-0.99783,33.5,3,18296,28239037
111,1,-0.680759,-0.0910188,9.78955,0.0349728,-0.647197,0.988689,-0.00681052,-0.000920234,0.0978952,1,4.98146e-05,-1.51655e-05,2.14783e-05,0.00996292,-0.00303309,0.00429566,0,0,0,0,0.0770819,0.521929,-0.99783,33.5,3,18296,28239037
111,2,-0.684953,-0.0856985,9.79097,0.031578,-0.643639,0.990952,-0.00685143,-0.000865637,0.0979095,1,4.22167e-05,-9.90566e-06,2.80777e-05,0.00844334,-0.00198113,0.00561555,0,0,0,0,0.0747494,0.519005,-0.996875,33.5,3,18297,28239137
112,1,-0.684953,-0.0856985,9.79097,0.031578,-0.643639,0.990952,-0.00685143,-0.000865637,0.0979095,1,4.22167e-05,-9.90566e-06,2.80777e-05,0.00844334,-0.00198113,0.00561555,0,0,0,0,0.0747494,0.519005,-0.996875,33.5,3,18297,28239137
112,2,-0.681107,-0.0889469,9.79567,0.0370236,-0.647395,1.00104,-0.0068114,-0.000902384,0.0979566,1,6.45985e-05,-1.87921e-06,1.90637e-05,0.0129197,-0.000375842,0.00381275,0,0,0,0,0.0749212,0.515988,-0.991892,33.5,3,18298,28239237
112,3,-0.681107,-0.0889469,9.79567,0.0370236,-0.647395,1.00104,-0.0068114,-0.000902384,0.0979566,1,6.45985e-05,-1.87921e-06,1.90637e-05,0.0129197,-0.000375842,0.00381275,0,0,0,0,0.0749212,0.515988,-0.991892,33.5,3,18298,28239237
112,4,-0.678441,-0.0798168,9.7903,0.038433,-0.640149,0.995977,-0.00678719,-0.000807826,0.0979028,1,4.83952e-05,-1.43296e-05,1.34631e-05,0.00967904,-0.00286592,0.00269261,0,0,0,0,0.0769116,0.516405,-0.988861,33.5,3,18299,28239337
113,1,-0.678441,-0.0798168,9.7903,0.038433,-0.640149,0.995977,-0.00678719,-0.000807826,0.0979028,1,4.83952e-05,-1.43296e-05,1.34631e-05,0.00967904,-0.00286592,0.00269261,0,0,0,0,0.0769116,0.516405,-0.988861,33.5,3,18299,28239337
113,2,-0.672904,-0.0800999,9.79163,0.0451235,-0.639615,0.996625,-0.00673338,-0.000811559,0.0979159,1,5.27799e-05,-2.23147e-05,1.66648e-05,0.010556,-0.00446295,0.00333296,0,0,0,0,0.0783066,0.51932,-0.988803,33.5,3,18300,28239437
113,3,-0.672904,-0.0800999,9.79163,0.0451235,-0.639615,0.996625,-0.00673338,-0.000811559,0.0979159,1,5.27799e-05,-2.23147e-05,1.66648e-05,0.010556,-0.00446295,0.00333296,0,0,0,0,0.0783066,0.51932,-0.988803,33.5,3,18300,28239437
113,4,-0.6792,-0.0758644,9.78932,0.0371217,-0.631942,0.988545,-0.00679431,-0.000770306,0.0978929,1,5.82709e-05,-1.19326e-05,1.8606e-05,0.0116542,-0.00238653,0.00372121,0,0,0,0,0.0791174,0.521832,-0.993296,33.5,3,18301,28239537
114,1,-0.6792,-0.0758644,9.78932,0.0371217,-0.631942,0.988545,-0.00679431,-0.000770306,0.0978929,1,5.82709e-05,-1.19326e-05,1.8606e-05,0.0116542,-0.00238653,0.00372121,0,0,0,0,0.0791174,0.521832,-0.993296,33.5,3,18301,28239537
114,2,-0.687188,-0.0918721,9.79873,0.026284,-0.651341,1.00062,-0.00687359,-0.000927704,0.0979871,1,4.49046e-05,-8.85312e-06,1.33552e-05,0.00898093,-0.00177063,0.00267104,0,0,0,0,0.0785742,0.520436,-0.99686,33.5,3,18302,28239637
114,3,-0.687188,-0.0918721,9.79873,0.026284,-0.651341,1.00062,-0.00687359,-0.000927704,0.0979871,1,4.49046e-05,-8.85312e-06,1.33552e-05,0.00898093,-0.00177063,0.00267104,0,0,0,0,0.0785742,0.520436,-0.99686,33.5,3,18302,28239637
114,4,-0.67002,-0.0731947,9.78996,0.0416426,-0.631591,0.99527,-0.00670302,-0.000741932,0.0978994,1,4.96432e-05,-1.45155e-05,1.9746e-05,0.00992864,-0.0029031,0.00394919,0,0,0,0,0.0766782,0.519467,-0.996368,33.5,3,18303,28239737
115,1,-0.67002,-0.0731947,9.78996,0.0416426,-0.631591,0.99527,-0.00670302,-0.000741932,0.0978994,1,4.96432e-05,-1.45155e-05,1.9746e-05,0.00992864,-0.0029031,0.00394919,0,0,0,0,0.0766782,0.519467,-0.996368,33.5,3,18303,28239737
115,2,-0.679893,-0.0840499,9.79231,0.0349123,-0.645258,0.997128,-0.00679927,-0.000847229,0.097923,1,3.27341e-05,-1.9501e-06,2.34935e-05,0.00654683,-0.000390021,0.00469871,0,0,0,0,0.0758184,0.518437,-0.992852,33.5,3,18304,28239837
115,3,-0.679893,-0.0840499,9.79231,0.0349123,-0.645258,0.997128,-0.00679927,-0.000847229,0.097923,1,3.27341e-05,-1.9501e-06,2.34935e-05,0.00654683,-0.000390021,0.00469871,0,0,0,0,0.0758184,0.518437,-0.992852,33.5,3,18304,28239837
115,4,-0.689323,-0.0875291,9.79167,0.023819,-0.649795,0.997104,-0.00689428,-0.000881718,0.0979165,1,3.14955e-05,-5.53369e-06,1.88109e-05,0.00629911,-0.00110674,0.00376217,0,0,0,0,0.0753867,0.518405,-0.99083,33.5,3,18305,28239937
116,1,-0.689323,-0.0875291,9.79167,0.023819,-0.649795,0.997104,-0.00689428,-0.000881718,0.0979165,1,3.14955e-05,-5.53369e-06,1.88109e-05,0.00629911,-0.00110674,0.00376217,0,0,0,0,0.0753867,0.518405,-0.99083,33.5,3,18305,28239937
116,2,-0.671386,-0.0756801,9.78113,0.0455541,-0.631943,0.980076,-0.00671746,-0.000764477,0.097811,1,3.76254e-05,-1.86042e-05,2.35271e-05,0.00752509,-0.00372083,0.00470541,0,0,0,0,0.0782325,0.519374,-0.991832,33.5,3,18306,28240037
116,3,-0.671386,-0.0756801,9.78113,0.0455541,-0.631943,0.980076,-0.00671746,-0.000764477,0.097811,1,3.76254e-05,-1.86042e-05,2.35271e-05,0.00752509,-0.00372083,0.00470541,0,0,0,0,0.0782325,0.519374,-0.991832,33.5,3,18306,28240037
116,4,-0.675157,-0.0766497,9.78352,0.03672,-0.638832,0.983155,-0.00675431,-0.000776222,0.0978349,1,4.80487e-05,-1.4173e-05,2.39387e-05,0.00960975,-0.0028346,0.00478775,0,0,0,0,0.0799895,0.522854,-0.996308,33.5,3,18307,28240137
116,5,-0.675157,-0.0766497,9.78352,0.03672,-0.638832,0.983155,-0.00675431,-0.000776222,0.0978349,1,4.80487e-05,-1.4173e-05,2.39387e-05,0.00960975,-0.0028346,0.00478775,0,0,0,0,0.0799895,0.522854,-0.996308,33.5,3,18307,28240137
116,6,-0.678511,-0.0849714,9.78483,0.0339755,-0.647916,0.983016,-0.00678725,-0.000857571,0.097848,1,3.9352e-05,-1.10234e-05,1.14758e-05,0.0078704,-0.00220468,0.00229517,0,0,0,0,0.0808981,0.522403,-0.998848,33.5,3,18308,28240237
117,1,-0.678511,-0.0849714,9.78483,0.0339755,-0.647916,0.983016,-0.00678725,-0.000857571,0.097848,1,3.9352e-05,-1.10234e-05,1.14758e-05,0.0078704,-0.00220468,0.00229517,0,0,0,0,0.0808981,0.522403,-0.998848,33.5,3,18308,28240237
117,2,-0.67849,-0.0790358,9.78014,0.0319726,-0.643164,0.98384,-0.00678808,-0.000799527,0.0978011,1,4.57205e-05,-1.64156e-05,1.66445e-05,0.0091441,-0.00328311,0.0033289,0,0,0,0,0.0785898,0.518015,-0.997924,33.5,3,18309,28240337
117,3,-0.67849,-0.0790358,9.78014,0.0319726,-0.643164,0.98384,-0.00678808,-0.000799527,0.0978011,1,4.57205e-05,-1.64156e-05,1.66445e-05,0.0091441,-0.00328311,0.0033289,0,0,0,0,0.0785898,0.518015,-0.997924,33.5,3,18309,28240337
117,4,-0.680427,-0.087423,9.78856,0.0346509,-0.652796,0.992656,-0.00680738,-0.000882554,0.0978853,1,4.11533e-05,-1.60523e-05,1.96937e-05,0.00823066,-0.00321046,0.00393874,0,0,0,0,0.0768001,0.515041,-0.994447,33.5,3,18310,28240437
118,1,-0.680427,-0.087423,9.78856,0.0346509,-0.652796,0.992656,-0.00680738,-0.000882554,0.0978853,1,4.11533e-05,-1.60523e-05,1.96937e-05,0.00823066,-0.00321046,0.00393874,0,0,0,0,0.0768001,0.515041,-0.994447,33.5,3,18310,28240437
118,2,-0.674774,-0.0824705,9.77839,0.038056,-0.648283,0.98667,-0.00675021,-0.000833784,0.0977836,1,4.51039e-05,-1.27966e-05,1.91274e-05,0.00902079,-0.00255932,0.00382549,0,0,0,0,0.0773311,0.516446,-0.991388,33.5,3,18311,28240537
118,3,-0.674774,-0.0824705,9.77839,0.038056,-0.648283,0.98667,-0.00675021,-0.000833784,0.0977836,1,4.51039e-05,-1.27966e-05,1.91274e-05,0.00902079,-0.00255932,0.00382549,0,0,0,0,0.0773311,0.516446,-0.991388,33.5,3,18311,28240537
118,4,-0.677415,-0.0853143,9.80042,0.0355092,-0.648883,1.00474,-0.00677557,-0.000862979,0.0980041,1,4.83411e-05,-7.4693e-06,2.6608e-05,0.00966823,-0.00149386,0.0053216,0,0,0,0,0.0796925,0.519832,-0.990818,33.5,3,18312,28240637
119,1,-0.677415,-0.0853143,9.80042,0.0355092,-0.648883,1.00474,-0.00677557,-0.000862979,0.0980041,1,4.83411e-05,-7.4693e-06,2.6608e-05,0.00966823,-0.00149386,0.0053216,0,0,0,0,0.0796925,0.519832,-0.990818,33.5,3,18312,28240637
119,2,-0.675014,-0.0852368,9.79125,0.0407002,-0.647953,0.996437,-0.00675335,-0.000861361,0.0979122,1,4.39919e-05,-1.66443e-05,2.80144e-05,0.00879838,-0.00332887,0.00560289,0,0,0,0,0.0790723,0.522347,-0.9948,33.5,3,18313,28240737
119,3,-0.675014,-0.0852368,9.79125,0.0407002,-0.647953,0.996437,-0.00675335,-0.000861361,0.0979122,1,4.39919e-05,-1.66443e-05,2.80144e-05,0.00879838,-0.00332887,0.00560289,0,0,0,0,0.0790723,0.522347,-0.9948,33.5,3,18313,28240737
119,4,-0.671068,-0.0888912,9.78983,0.0413247,-0.653816,0.992783,-0.0067111,-0.000899092,0.0978981,1,5.04981e-05,-2.34155e-06,2.18081e-05,0.0100996,-0.00046831,0.00436162,0,0,0,0,0.0766373,0.520461,-0.997356,33.5,3,18314,28240837
120,1,-0.671068,-0.0888912,9.78983,0.0413247,-0.653816,0.992783,-0.0067111,-0.000899092,0.0978981,1,5.04981e-05,-2.34155e-06,2.18081e-05,0.0100996,-0.00046831,0.00436162,0,0,0,0,0.0766373,0.520461,-0.997356,33.5,3,18314,28240837
120,2,-0.681515,-0.0871534,9.79094,0.0316231,-0.65205,0.993506,-0.00681693,-0.000877183,0.0979092,1,2.80346e-05,-9.24625e-06,1.16863e-05,0.00560692,-0.00184925,0.00233726,0,0,0,0,0.0757605,0.517515,-0.995902,33.5,3,18315,28240937
120,3,-0.681515,-0.0871534,9.79094,0.0316231,-0.65205,0.993506,-0.00681693,-0.000877183,0.0979092,1,2.80346e-05,-9.24625e-06,1.16863e-05,0.00560692,-0.00184925,0.00233726,0,0,0,0,0.0757605,0.517515,-0.995902,33.5,3,18315,28240937
120,4,-0.684923,-0.097591,9.79222,0.0289525,-0.664287,0.997269,-0.0068482,-0.00098657,0.0979222,1,5.29439e-05,5.04215e-06,2.1288e-05,0.0105888,0.00100843,0.0042576,0,0,0,0,0.0758341,0.516016,-0.993916,33.5,3,18316,28241037
121,1,-0.684923,-0.097591,9.79222,0.0289525,-0.664287,0.997269,-0.0068482,-0.00098657,0.0979222,1,5.29439e-05,5.04215e-06,2.1288e-05,0.0105888,0.00100843,0.0042576,0,0,0,0,0.0758341,0.516016,-0.993916,33.5,3,18316,28241037
121,2,-0.678693,-0.0784468,9.79236,0.0360041,-0.643074,0.995269,-0.0067904,-0.000794818,0.0979233,1,5.17928e-05,-1.78257e-05,1.52304e-05,0.0103586,-0.00356514,0.00304609,0,0,0,0,0.075863,0.516477,-0.99239,33.5,3,18317,28241137
121,3,-0.678693,-0.0784468,9.79236,0.0360041,-0.643074,0.995269,-0.0067904,-0.000794818,0.0979233,1,5.17928e-05,-1.78257e-05,1.52304e-05,0.0103586,-0.00356514,0.00304609,0,0,0,0,0.075863,0.516477,-0.99239,33.5,3,18317,28241137
121,4,-0.674328,-0.0913993,9.79764,0.0429388,-0.654878,0.998452,-0.00674361,-0.000924202,0.0979763,1,5.10496e-05,-1.82341e-06,1.52643e-05,0.0102099,-0.000364681,0.00305286,0,0,0,0,0.0778046,0.518376,-0.990337,33.5,3,18318,28241237
122,1,-0.674328,-0.0913993,9.79764,0.0429388,-0.654878,0.998452,-0.00674361,-0.000924202,0.0979763,1,5.10496e-05,-1.82341e-06,1.52643e-05,0.0102099,-0.000364681,0.00305286,0,0,0,0,0.0778046,0.518376,-0.990337,33.5,3,18318,28241237
122,2,-0.676744,-0.0868283,9.78548,0.0378617,-0.652903,0.988806,-0.00676927,-0.000880119,0.0978546,1,5.89192e-05,-9.55956e-06,2.25508e-05,0.0117838,-0.00191191,0.00451016,0,0,0,0,0.079154,0.52036,-0.992824,33.5,3,18319,28241337
122,3,-0.676744,-0.0868283,9.78548,0.0378617,-0.652903,0.988806,-0.00676927,-0.000880119,0.0978546,1,5.89192e-05,-9.55956e-06,2.25508e-05,0.0117838,-0.00191191,0.00451016,0,0,0,0,0.079154,0.52036,-0.992824,33.5,3,18319,28241337
122,4,-0.67647,-0.079888,9.78791,0.0350254,-0.644522,0.988886,-0.00676742,-0.00080558,0.0978788,1,3.28588e-05,-1.40984e-05,1.97293e-05,0.00657176,-0.00281969,0.00394585,0,0,0,0,0.0804825,0.521395,-0.996848,33.5,3,18320,28241437
123,1,-0.67647,-0.079888,9.78791,0.0350254,-0.644522,0.988886,-0.00676742,-0.00080558,0.0978788,1,3.28588e-05,-1.40984e-05,1.97293e-05,0.00657176,-0.00281969,0.00394585,0,0,0,0,0.0804825,0.521395,-0.996848,33.5,3,18320,28241437
123,2,-0.681195,-0.0949055,9.77425,0.0312213,-0.662496,0.979974,-0.00681445,-0.000955348,0.0977422,1,3.15458e-05,-1.29193e-05,9.27785e-06,0.00630915,-0.00258386,0.00185557,0,0,0,0,0.0795279,0.51947,-0.997896,33.5,3,18321,28241537
123,3,-0.681195,-0.0949055,9.77425,0.0312213,-0.662496,0.979974,-0.00681445,-0.000955348,0.0977422,1,3.15458e-05,-1.29193e-05,9.27785e-06,0.00630915,-0.00258386,0.00185557,0,0,0,0,0.0795279,0.51947,-0.997896,33.5,3,18321,28241537
123,4,-0.679724,-0.0785873,9.79098,0.0326294,-0.646073,0.992253,-0.00679471,-0.000793096,0.09791,1,3.46155e-05,1.26993e-05,3.26819e-05,0.0069231,0.00253986,0.00653639,0,0,0,0,0.078244,0.516475,-0.993411,33.5,3,18322,28241637
124,1,-0.679724,-0.0785873,9.79098,0.0326294,-0.646073,0.992253,-0.00679471,-0.000793096,0.09791,1,3.46155e-05,1.26993e-05,3.26819e-05,0.0069231,0.00253986,0.00653639,0,0,0,0,0.078244,0.516475,-0.993411,33.5,3,18322,28241637
124,2,-0.680866,-0.0847161,9.79095,0.0348771,-0.65438,0.991328,-0.00681004,-0.000854331,0.0979094,1,3.45669e-05,-7.33525e-06,2.9428e-05,0.00691338,-0.00146705,0.00588559,0,0,0,0,0.0773519,0.517395,-0.989852,33.5,3,18323,28241737
124,3,-0.680866,-0.0847161,9.79095,0.0348771,-0.65438,0.991328,-0.00681004,-0.000854331,0.0979094,1,3.45669e-05,-7.33525e-06,2.9428e-05,0.00691338,-0.00146705,0.00588559,0,0,0,0,0.0773519,0.517395,-0.989852,33.5,3,18323,28241737
124,4,-0.676001,-0.0827798,9.78416,0.0358853,-0.651096,0.986982,-0.00676482,-0.000838323,0.0978412,1,5.18543e-05,-2.48306e-05,2.79397e-05,0.0103709,-0.00496612,0.00558794,0,0,0,0,0.0773158,0.520313,-0.989281,33.5,3,18324,28241837
125,1,-0.676001,-0.0827798,9.78416,0.0358853,-0.651096,0.986982,-0.00676482,-0.000838323,0.0978412,1,5.18543e-05,-2.48306e-05,2.79397e-05,0.0103709,-0.00496612,0.00558794,0,0,0,0,0.0773158,0.520313,-0.989281,33.5,3,18324,28241837
125,2,-0.682938,-0.082796,9.78556,0.0263696,-0.650256,0.985826,-0.0068313,-0.000837735,0.0978554,1,4.89801e-05,-9.913e-06,1.38265e-05,0.00979601,-0.0019826,0.0027653,0,0,0,0,0.0781025,0.524288,-0.993742,33.5,3,18325,28241937
125,3,-0.682938,-0.082796,9.78556,0.0263696,-0.650256,0.985826,-0.0068313,-0.000837735,0.0978554,1,4.89801e-05,-9.913e-06,1.38265e-05,0.00979601,-0.0019826,0.0027653,0,0,0,0,0.0781025,0.524288,-0.993742,33.5,3,18325,28241937
125,4,-0.676094,-0.0845826,9.7855,0.0367773,-0.653892,0.986481,-0.00676309,-0.000853666,0.0978548,1,3.90224e-05,-1.11199e-05,1.49981e-05,0.00780448,-0.00222399,0.00299961,0,0,0,0,0.0785049,0.522414,-0.998331,33.5,3,18326,28242037
126,1,-0.676094,-0.0845826,9.7855,0.0367773,-0.653892,0.986481,-0.00676309,-0.000853666,0.0978548,1,3.90224e-05,-1.11199e-05,1.49981e-05,0.00780448,-0.00222399,0.00299961,0,0,0,0,0.0785049,0.522414,-0.998331,33.5,3,18326,28242037
126,2,-0.675595,-0.0911533,9.79596,0.0358024,-0.663251,0.996493,-0.0067587,-0.000920017,0.0979593,1,4.24478e-05,-1.41598e-05,1.24201e-05,0.00848957,-0.00283196,0.00248402,0,0,0,0,0.0771384,0.518515,-0.997907,33.5,3,18327,28242137
126,3,-0.675595,-0.0911533,9.79596,0.0358024,-0.663251,0.996493,-0.0067587,-0.000920017,0.0979593,1,4.24478e-05,-1.41598e-05,1.24201e-05,0.00848957,-0.00283196,0.00248402,0,0,0,0,0.0771384,0.518515,-0.997907,33.5,3,18327,28242137
126,4,-0.679842,-0.0914876,9.78512,0.0286701,-0.666781,0.9878,-0.00680023,-0.000923036,0.097851,1,4.0315e-05,-9.43425e-06,1.98336e-05,0.00806301,-0.00188685,0.00396672,0,0,0,0,0.0773107,0.516943,-0.991882,33.5,3,18328,28242237
127,1,-0.679842,-0.0914876,9.78512,0.0286701,-0.666781,0.9878,-0.00680023,-0.000923036,0.097851,1,4.0315e-05,-9.43425e-06,1.98336e-05,0.00806301,-0.00188685,0.00396672,0,0,0,0,0.0773107,0.516943,-0.991882,33.5,3,18328,28242237
127,2,-0.683334,-0.085979,9.78451,0.0305277,-0.654785,0.985813,-0.00683332,-0.000867745,0.097845,1,3.93037e-05,-4.99881e-08,1.92485e-05,0.00786074,-9.99762e-06,0.00384969,0,0,0,0,0.0768509,0.519341,-0.989301,33.5,3,18329,28242337
127,3,-0.683334,-0.085979,9.78451,0.0305277,-0.654785,0.985813,-0.00683332,-0.000867745,0.097845,1,3.93037e-05,-4.99881e-08,1.92485e-05,0.00786074,-9.99762e-06,0.00384969,0,0,0,0,0.0768509,0.519341,-0.989301,33.5,3,18329,28242337
127,4,-0.677726,-0.0899354,9.7858,0.0335282,-0.659458,0.983963,-0.00677952,-0.000905165,0.0978578,1,2.80497e-05,-1.17962e-05,2.36946e-05,0.00560994,-0.00235924,0.00473891,0,0,0,0,0.0777561,0.521302,-0.990272,33.5,3,18330,28242437
128,1,-0.677726,-0.0899354,9.7858,0.0335282,-0.659458,0.983963,-0.00677952,-0.000905165,0.0978578,1,2.80497e-05,-1.17962e-05,2.36946e-05,0.00560994,-0.00235924,0.00473891,0,0,0,0,0.0777561,0.521302,-0.990272,33.5,3,18330,28242437
128,2,-0.678284,-0.0918166,9.79224,0.0310389,-0.664647,0.991067,-0.00678623,-0.000926929,0.0979221,1,4.35375e-05,-1.7483e-05,1.73894e-05,0.0087075,-0.0034966,0.00347788,0,0,0,0,0.0781305,0.521858,-0.994301,33.5,3,18331,28242537
128,3,-0.678284,-0.0918166,9.79224,0.0310389,-0.664647,0.991067,-0.00678623,-0.000926929,0.0979221,1,4.35375e-05,-1.7483e-05,1.73894e-05,0.0087075,-0.0034966,0.00347788,0,0,0,0,0.0781305,0.521858,-0.994301,33.5,3,18331,28242537
128,4,-0.681598,-0.0833092,9.78555,0.0301916,-0.655566,0.982388,-0.00681686,-0.000840559,0.0978553,1,3.6575e-05,-4.70127e-06,2.26516e-05,0.00731499,-0.000940254,0.00453031,0,0,0,0,0.0771104,0.520945,-0.997347,33.5,3,18332,28242637
129,1,-0.681598,-0.0833092,9.78555,0.0301916,-0.655566,0.982388,-0.00681686,-0.000840559,0.0978553,1,3.6575e-05,-4.70127e-06,2.26516e-05,0.00731499,-0.000940254,0.00453031,0,0,0,0,0.0771104,0.520945,-0.997347,33.5,3,18332,28242637
129,2,-0.674721,-0.0824209,9.79229,0.0406544,-0.659577,0.994865,-0.00674855,-0.000834292,0.0979227,1,5.07795e-05,-6.90297e-06,1.02444e-05,0.0101559,-0.00138059,0.00204888,0,0,0,0,0.0762051,0.518984,-0.996377,33.5,3,18333,28242737
129,3,-0.674721,-0.0824209,9.79229,0.0406544,-0.659577,0.994865,-0.00674855,-0.000834292,0.0979227,1,5.07795e-05,-6.90297e-06,1.02444e-05,0.0101559,-0.00138059,0.00204888,0,0,0,0,0.0762051,0.518984,-0.996377,33.5,3,18333,28242737
