frame_id,imu_idx,accel_x,accel_y,accel_z,free_accel_x,free_accel_y,free_accel_z,delta_v_x,delta_v_y,delta_v_z,delta_q_w,delta_q_x,delta_q_y,delta_q_z,rate_x,rate_y,rate_z,quat_w,quat_x,quat_y,quat_z,mag_x,mag_y,mag_z,temperature,status_byte,packet_counter,time_fine
1,1,-0.695514,-0.0280841,9.78471,0.138892,-1.20635,1.07534,-0.0069581,-0.00028881,0.0978468,1,3.88399e-05,-1.52047e-05,2.6526e-05,0.00776798,-0.00304093,0.0053052,0,0,0,0,0.0727105,0.314175,-1.16657,36.6875,3,18139,14971247
1,2,-0.517752,-0.0590251,7.34499,0.138892,-1.20635,1.07534,-0.00517985,-0.000596813,0.0734496,1,4.3964e-05,-1.59143e-05,9.98767e-06,0.0087928,-0.00318287,0.00199753,0,0,0,0,0.0769642,0.526486,-0.979546,36.5625,1,36620,16820848
1,3,-0.517752,-0.0590251,7.34499,0.138892,-1.20635,1.07534,-0.00517985,-0.000596813,0.0734496,1,4.3964e-05,-1.59143e-05,9.98767e-06,0.0087928,-0.00318287,0.00199753,0,0,0,0,0.0769642,0.526486,-0.979546,36.5625,1,36620,16820848
1,4,-0.673288,-0.0619721,9.79392,0.078304,-0.494086,0.993526,-0.0067376,-0.000628487,0.0979388,1,4.39452e-05,-2.41868e-05,1.17419e-05,0.00878905,-0.00483736,0.00234838,0,0,0,0,0.0779748,0.523552,-0.979616,36.5625,1,36621,16820948
1,5,-0.673288,-0.0619721,9.79392,0.078304,-0.494086,0.993526,-0.0067376,-0.000628487,0.0979388,1,4.39452e-05,-2.41868e-05,1.17419e-05,0.00878905,-0.00483736,0.00234838,0,0,0,0,0.0779748,0.523552,-0.979616,36.5625,1,36621,16820948
1,6,-0.679294,-0.065163,9.79527,0.0716109,-0.493715,0.991193,-0.00679349,-0.00065788,0.0979526,1,3.0918e-05,-2.88697e-06,1.42214e-05,0.0061836,-0.000577394,0.00284428,0,0,0,0,0.0751608,0.519186,-0.9797,36.5625,1,36622,16821048
8,1,-0.679294,-0.065163,9.79527,0.0716109,-0.493715,0.991193,-0.00679349,-0.00065788,0.0979526,1,3.0918e-05,-2.88697e-06,1.42214e-05,0.0061836,-0.000577394,0.00284428,0,0,0,0,0.0751608,0.519186,-0.9797,36.5625,1,36622,16821048
8,2,-0.677196,-0.0621025,9.79021,0.0760043,-0.491501,0.989136,-0.00677382,-0.000632277,0.0979019,1,5.67213e-05,-9.58313e-06,1.07325e-05,0.0113443,-0.00191663,0.0021465,0,0,0,0,0.0733673,0.517179,-0.975696,36.5625,1,36623,16821148
9,1,-0.677196,-0.0621025,9.79021,0.0760043,-0.491501,0.989136,-0.00677382,-0.000632277,0.0979019,1,5.67213e-05,-9.58313e-06,1.07325e-05,0.0113443,-0.00191663,0.0021465,0,0,0,0,0.0733673,0.517179,-0.975696,36.5625,1,36623,16821148
9,2,-0.68018,-0.0706254,9.78744,0.0714682,-0.500337,0.986836,-0.00680495,-0.000716794,0.0978741,1,5.27743e-05,-1.62047e-05,1.54584e-05,0.0105549,-0.00324094,0.00309168,0,0,0,0,0.0743674,0.520034,-0.972102,36.5625,1,36624,16821248
10,1,-0.68018,-0.0706254,9.78744,0.0714682,-0.500337,0.986836,-0.00680495,-0.000716794,0.0978741,1,5.27743e-05,-1.62047e-05,1.54584e-05,0.0105549,-0.00324094,0.00309168,0,0,0,0,0.0743674,0.520034,-0.972102,36.5625,1,36624,16821248
10,2,-0.675189,-0.059061,9.79326,0.0797671,-0.49008,0.989324,-0.00675293,-0.000602818,0.0979325,1,6.12942e-05,-5.37192e-06,1.50182e-05,0.0122588,-0.00107438,0.00300365,0,0,0,0,0.0767365,0.521486,-0.972586,36.5625,1,36625,16821348
10,3,-0.675189,-0.059061,9.79326,0.0797671,-0.49008,0.989324,-0.00675293,-0.000602818,0.0979325,1,6.12942e-05,-5.37192e-06,1.50182e-05,0.0122588,-0.00107438,0.00300365,0,0,0,0,0.0767365,0.521486,-0.972586,36.5625,1,36625,16821348
10,4,-0.676951,-0.0625177,9.78714,0.0739323,-0.492381,0.982275,-0.00677098,-0.000633753,0.0978712,1,4.35597e-05,-7.53263e-06,3.67149e-06,0.00871195,-0.00150653,0.000734298,0,0,0,0,0.0776209,0.522499,-0.975093,36.5625,1,36626,16821448
10,5,-0.676951,-0.0625177,9.78714,0.0739323,-0.492381,0.982275,-0.00677098,-0.000633753,0.0978712,1,4.35597e-05,-7.53263e-06,3.67149e-06,0.00871195,-0.00150653,0.000734298,0,0,0,0,0.0776209,0.522499,-0.975093,36.5625,1,36626,16821448
10,6,-0.674632,-0.0607642,9.78747,0.0770099,-0.497975,0.979039,-0.00674713,-0.000618039,0.0978746,1,5.33182e-05,-4.11847e-06,-2.96687e-06,0.0106636,-0.000823694,-0.000593374,0,0,0,0,0.0756181,0.52209,-0.978628,36.5625,1,36627,16821548
12,1,-0.674632,-0.0607642,9.78747,0.0770099,-0.497975,0.979039,-0.00674713,-0.000618039,0.0978746,1,5.33182e-05,-4.11847e-06,-2.96687e-06,0.0106636,-0.000823694,-0.000593374,0,0,0,0,0.0756181,0.52209,-0.978628,36.5625,1,36627,16821548
12,2,-0.676739,-0.0639564,9.79257,0.0754197,-0.500792,0.989266,-0.0067702,-0.000648469,0.0979254,1,4.40646e-05,-1.44897e-05,2.0243e-05,0.00881292,-0.00289795,0.00404861,0,0,0,0,0.0727552,0.519206,-0.979689,36.5625,1,36628,16821648
10,1,-0.676739,-0.0639564,9.79257,0.0754197,-0.500792,0.989266,-0.0067702,-0.000648469,0.0979254,1,4.40646e-05,-1.44897e-05,2.0243e-05,0.00881292,-0.00289795,0.00404861,0,0,0,0,0.0727552,0.519206,-0.979689,36.5625,1,36628,16821648
10,2,-0.683491,-0.0704936,9.78883,0.0658782,-0.508273,0.991333,-0.0068395,-0.000713414,0.0978879,1,4.14045e-05,-2.3626e-05,2.72302e-05,0.0082809,-0.00472519,0.00544603,0,0,0,0,0.0724544,0.517151,-0.973672,36.5625,1,36629,16821748
10,3,-0.683491,-0.0704936,9.78883,0.0658782,-0.508273,0.991333,-0.0068395,-0.000713414,0.0978879,1,4.14045e-05,-2.3626e-05,2.72302e-05,0.0082809,-0.00472519,0.00544603,0,0,0,0,0.0724544,0.517151,-0.973672,36.5625,1,36629,16821748
10,4,-0.69613,-0.0651167,9.79743,0.0574046,-0.496035,0.99517,-0.00696353,-0.000661849,0.0979741,1,5.32941e-05,-1.15073e-05,1.71381e-05,0.0106588,-0.00230146,0.00342762,0,0,0,0,0.0734788,0.518543,-0.970111,36.5625,1,36630,16821848
14,1,-0.69613,-0.0651167,9.79743,0.0574046,-0.496035,0.99517,-0.00696353,-0.000661849,0.0979741,1,5.32941e-05,-1.15073e-05,1.71381e-05,0.0106588,-0.00230146,0.00342762,0,0,0,0,0.0734788,0.518543,-0.970111,36.5625,1,36630,16821848
14,2,-0.675931,-0.0724232,9.78911,0.0802069,-0.507592,0.977994,-0.00676351,-0.000733716,0.0978907,1,4.78066e-05,-2.1549e-05,9.20689e-06,0.00956133,-0.00430981,0.00184138,0,0,0,0,0.0753093,0.520523,-0.9726,36.5625,1,36631,16821948
14,3,-0.675931,-0.0724232,9.78911,0.0802069,-0.507592,0.977994,-0.00676351,-0.000733716,0.0978907,1,4.78066e-05,-2.1549e-05,9.20689e-06,0.00956133,-0.00430981,0.00184138,0,0,0,0,0.0753093,0.520523,-0.9726,36.5625,1,36631,16821948
14,4,-0.683636,-0.0711425,9.78915,0.0660105,-0.507462,0.977683,-0.00683799,-0.000721378,0.0978913,1,4.96096e-05,-8.45111e-06,1.75686e-05,0.00992192,-0.00169022,0.00351372,0,0,0,0,0.0761325,0.523026,-0.976589,36.5625,1,36632,16822048
14,5,-0.683636,-0.0711425,9.78915,0.0660105,-0.507462,0.977683,-0.00683799,-0.000721378,0.0978913,1,4.96096e-05,-8.45111e-06,1.75686e-05,0.00992192,-0.00169022,0.00351372,0,0,0,0,0.0761325,0.523026,-0.976589,36.5625,1,36632,16822048
14,6,-0.679421,-0.0512299,9.78285,0.070349,-0.492994,0.976266,-0.00679604,-0.000521848,0.0978283,1,4.87156e-05,-9.3542e-06,1.34492e-06,0.00974312,-0.00187084,0.000268984,0,0,0,0,0.0760869,0.522095,-0.979135,36.5625,1,36633,16822148
14,7,-0.679421,-0.0512299,9.78285,0.070349,-0.492994,0.976266,-0.00679604,-0.000521848,0.0978283,1,4.87156e-05,-9.3542e-06,1.34492e-06,0.00974312,-0.00187084,0.000268984,0,0,0,0,0.0760869,0.522095,-0.979135,36.5625,1,36633,16822148
14,8,-0.673348,-0.060821,9.79223,0.0776132,-0.505988,0.984012,-0.00673711,-0.000618014,0.097922,1,4.98202e-05,-1.85275e-05,3.4923e-06,0.00996405,-0.00370551,0.00069846,0,0,0,0,0.0742275,0.519655,-0.97817,36.5625,1,36634,16822248
16,1,-0.673348,-0.060821,9.79223,0.0776132,-0.505988,0.984012,-0.00673711,-0.000618014,0.097922,1,4.98202e-05,-1.85275e-05,3.4923e-06,0.00996405,-0.00370551,0.00069846,0,0,0,0,0.0742275,0.519655,-0.97817,36.5625,1,36634,16822248
16,2,-0.679798,-0.0636397,9.7909,0.0687964,-0.509442,0.990628,-0.00680005,-0.000646375,0.0979088,1,4.99749e-05,-1.06937e-05,1.41108e-05,0.00999498,-0.00213873,0.00282216,0,0,0,0,0.0733877,0.516682,-0.975202,36.5625,1,36635,16822348
16,3,-0.679798,-0.0636397,9.7909,0.0687964,-0.509442,0.990628,-0.00680005,-0.000646375,0.0979088,1,4.99749e-05,-1.06937e-05,1.41108e-05,0.00999498,-0.00213873,0.00282216,0,0,0,0,0.0733877,0.516682,-0.975202,36.5625,1,36635,16822348
16,4,-0.670077,-0.063489,9.78879,0.0819499,-0.503517,0.986693,-0.00670263,-0.000645182,0.0978877,1,5.06825e-05,-9.70298e-06,2.76268e-05,0.0101365,-0.0019406,0.00552536,0,0,0,0,0.0743874,0.518092,-0.97265,36.5625,1,36636,16822448
17,1,-0.670077,-0.063489,9.78879,0.0819499,-0.503517,0.986693,-0.00670263,-0.000645182,0.0978877,1,5.06825e-05,-9.70298e-06,2.76268e-05,0.0101365,-0.0019406,0.00552536,0,0,0,0,0.0743874,0.518092,-0.97265,36.5625,1,36636,16822448
17,2,-0.679372,-0.054723,9.78519,0.0712199,-0.494138,0.975761,-0.00679547,-0.000556229,0.0978518,1,4.56963e-05,-8.97621e-06,4.14076e-06,0.00913925,-0.00179524,0.000828152,0,0,0,0,0.0758193,0.52098,-0.971078,36.5625,1,36637,16822548
17,3,-0.679372,-0.054723,9.78519,0.0712199,-0.494138,0.975761,-0.00679547,-0.000556229,0.0978518,1,4.56963e-05,-8.97621e-06,4.14076e-06,0.00913925,-0.00179524,0.000828152,0,0,0,0,0.0758193,0.52098,-0.971078,36.5625,1,36637,16822548
17,4,-0.686405,-0.0615254,9.79163,0.0614916,-0.507156,0.984277,-0.00686642,-0.000626204,0.0979161,1,5.41247e-05,-1.22632e-05,2.5552e-05,0.0108249,-0.00245263,0.0051104,0,0,0,0,0.0756922,0.522036,-0.975599,36.5625,1,36638,16822648
17,5,-0.686405,-0.0615254,9.79163,0.0614916,-0.507156,0.984277,-0.00686642,-0.000626204,0.0979161,1,5.41247e-05,-1.22632e-05,2.5552e-05,0.0108249,-0.00245263,0.0051104,0,0,0,0,0.0756922,0.522036,-0.975599,36.5625,1,36638,16822648
17,6,-0.670626,-0.0644067,9.7976,0.0770062,-0.511166,0.992027,-0.00670904,-0.000651251,0.0979758,1,3.63495e-05,-1.42437e-05,4.54481e-06,0.0072699,-0.00284875,0.000908962,0,0,0,0,0.0750877,0.52213,-0.980645,36.5625,1,36639,16822748
18,1,-0.670626,-0.0644067,9.7976,0.0770062,-0.511166,0.992027,-0.00670904,-0.000651251,0.0979758,1,3.63495e-05,-1.42437e-05,4.54481e-06,0.0072699,-0.00284875,0.000908962,0,0,0,0,0.0750877,0.52213,-0.980645,36.5625,1,36639,16822748
18,2,-0.681965,-0.0560874,9.79605,0.065377,-0.508888,0.995649,-0.00682255,-0.000572198,0.0979602,1,5.67418e-05,-1.48805e-05,1.52105e-05,0.0113484,-0.0029761,0.0030421,0,0,0,0,0.0731466,0.521677,-0.981656,36.5625,1,36640,16822848
18,3,-0.681965,-0.0560874,9.79605,0.065377,-0.508888,0.995649,-0.00682255,-0.000572198,0.0979602,1,5.67418e-05,-1.48805e-05,1.52105e-05,0.0113484,-0.0029761,0.0030421,0,0,0,0,0.0731466,0.521677,-0.981656,36.5625,1,36640,16822848
18,4,-0.678204,-0.0599368,9.79023,0.0691988,-0.509542,0.98894,-0.00678425,-0.00060858,0.0979021,1,4.65419e-05,-1.13382e-05,7.31259e-06,0.00930838,-0.00226765,0.00146252,0,0,0,0,0.0728169,0.519161,-0.977165,36.5625,1,36641,16822948
19,1,-0.678204,-0.0599368,9.79023,0.0691988,-0.509542,0.98894,-0.00678425,-0.00060858,0.0979021,1,4.65419e-05,-1.13382e-05,7.31259e-06,0.00930838,-0.00226765,0.00146252,0,0,0,0,0.0728169,0.519161,-0.977165,36.5625,1,36641,16822948
19,2,-0.673574,-0.0574922,9.79292,0.0762723,-0.508806,0.992229,-0.00673718,-0.000582865,0.0979291,1,3.95625e-05,-7.4506e-06,1.44078e-05,0.0079125,-0.00149012,0.00288156,0,0,0,0,0.0728994,0.520064,-0.973105,36.5625,1,36642,16823048
20,1,-0.673574,-0.0574922,9.79292,0.0762723,-0.508806,0.992229,-0.00673718,-0.000582865,0.0979291,1,3.95625e-05,-7.4506e-06,1.44078e-05,0.0079125,-0.00149012,0.00288156,0,0,0,0,0.0728994,0.520064,-0.973105,36.5625,1,36642,16823048
20,2,-0.685666,-0.0633716,9.78924,0.0661489,-0.515022,0.983113,-0.00685957,-0.000640912,0.0978921,1,3.51071e-05,-1.49756e-05,2.35495e-05,0.00702142,-0.00299512,0.00470991,0,0,0,0,0.0752813,0.522953,-0.972041,36.5625,1,36643,16823148
21,1,-0.685666,-0.0633716,9.78924,0.0661489,-0.515022,0.983113,-0.00685957,-0.000640912,0.0978921,1,3.51071e-05,-1.49756e-05,2.35495e-05,0.00702142,-0.00299512,0.00470991,0,0,0,0,0.0752813,0.522953,-0.972041,36.5625,1,36643,16823148
21,2,-0.682331,-0.0589233,9.79841,0.0657875,-0.5125,0.989241,-0.00682414,-0.000599119,0.0979839,1,4.88702e-05,-4.34919e-06,2.26684e-05,0.00977404,-0.000869838,0.00453369,0,0,0,0,0.0761367,0.523505,-0.976073,36.5625,1,36644,16823248
22,1,-0.682331,-0.0589233,9.79841,0.0657875,-0.5125,0.989241,-0.00682414,-0.000599119,0.0979839,1,4.88702e-05,-4.34919e-06,2.26684e-05,0.00977404,-0.000869838,0.00453369,0,0,0,0,0.0761367,0.523505,-0.976073,36.5625,1,36644,16823248
22,2,-0.683596,-0.0621769,9.7933,0.0649907,-0.520248,0.981809,-0.00683908,-0.000628549,0.0979327,1,3.42615e-05,-1.59518e-05,5.1091e-06,0.00685229,-0.00319037,0.00102182,0,0,0,0,0.0756219,0.521124,-0.979154,36.5625,1,36645,16823348
22,3,-0.683596,-0.0621769,9.7933,0.0649907,-0.520248,0.981809,-0.00683908,-0.000628549,0.0979327,1,3.42615e-05,-1.59518e-05,5.1091e-06,0.00685229,-0.00319037,0.00102182,0,0,0,0,0.0756219,0.521124,-0.979154,36.5625,1,36645,16823348
22,4,-0.676587,-0.0605547,9.79462,0.0740016,-0.517777,0.98894,-0.00676697,-0.000614346,0.0979461,1,4.3923e-05,-5.71833e-06,1.44152e-05,0.00878459,-0.00114367,0.00288304,0,0,0,0,0.073726,0.520155,-0.978662,36.5625,1,36646,16823448
24,1,-0.676587,-0.0605547,9.79462,0.0740016,-0.517777,0.98894,-0.00676697,-0.000614346,0.0979461,1,4.3923e-05,-5.71833e-06,1.44152e-05,0.00878459,-0.00114367,0.00288304,0,0,0,0,0.073726,0.520155,-0.978662,36.5625,1,36646,16823448
24,2,-0.678635,-0.0547078,9.78892,0.0723611,-0.512453,0.986571,-0.00678844,-0.000557093,0.097889,1,5.06694e-05,-1.07441e-05,6.9756e-06,0.0101339,-0.00214882,0.00139512,0,0,0,0,0.0738607,0.517166,-0.975194,36.5625,1,36647,16823548
24,3,-0.678635,-0.0547078,9.78892,0.0723611,-0.512453,0.986571,-0.00678844,-0.000557093,0.097889,1,5.06694e-05,-1.07441e-05,6.9756e-06,0.0101339,-0.00214882,0.00139512,0,0,0,0,0.0738607,0.517166,-0.975194,36.5625,1,36647,16823548
24,4,-0.676518,-0.0634548,9.78646,0.0654177,-0.516322,0.979581,-0.00676875,-0.000646421,0.0978642,1,5.87905e-05,-1.83954e-05,2.70515e-05,0.0117581,-0.00367908,0.00541031,0,0,0,0,0.0748932,0.51807,-0.971643,36.5625,1,36648,16823648
24,5,-0.676518,-0.0634548,9.78646,0.0654177,-0.516322,0.979581,-0.00676875,-0.000646421,0.0978642,1,5.87905e-05,-1.83954e-05,2.70515e-05,0.0117581,-0.00367908,0.00541031,0,0,0,0,0.0748932,0.51807,-0.971643,36.5625,1,36648,16823648
24,6,-0.676907,-0.0597547,9.78344,0.0682418,-0.51347,0.977714,-0.00677086,-0.000606909,0.0978342,1,4.67058e-05,-9.27833e-06,1.64955e-05,0.00934116,-0.00185567,0.0032991,0,0,0,0,0.0748367,0.521484,-0.971567,36.5625,1,36649,16823748
27,1,-0.676907,-0.0597547,9.78344,0.0682418,-0.51347,0.977714,-0.00677086,-0.000606909,0.0978342,1,4.67058e-05,-9.27833e-06,1.64955e-05,0.00934116,-0.00185567,0.0032991,0,0,0,0,0.0748367,0.521484,-0.971567,36.5625,1,36649,16823748
27,2,-0.67174,-0.0605607,9.79289,0.0738043,-0.516546,0.983044,-0.00671986,-0.000613643,0.0979287,1,4.05852e-05,-1.2599e-05,6.49692e-06,0.00811703,-0.0025198,0.00129938,0,0,0,0,0.0751664,0.524,-0.976058,36.5625,1,36650,16823848
27,3,-0.67174,-0.0605607,9.79289,0.0738043,-0.516546,0.983044,-0.00671986,-0.000613643,0.0979287,1,4.05852e-05,-1.2599e-05,6.49692e-06,0.00811703,-0.0025198,0.00129938,0,0,0,0,0.0751664,0.524,-0.976058,36.5625,1,36650,16823848
27,4,-0.676892,-0.0594423,9.7909,0.062551,-0.522556,0.983387,-0.0067704,-0.000603111,0.0979089,1,4.34499e-05,-7.65931e-06,1.32583e-05,0.00868998,-0.00153186,0.00265165,0,0,0,0,0.0765068,0.523582,-0.980619,36.5625,1,36651,16823948
27,5,-0.676892,-0.0594423,9.7909,0.062551,-0.522556,0.983387,-0.0067704,-0.000603111,0.0979089,1,4.34499e-05,-7.65931e-06,1.32583e-05,0.00868998,-0.00153186,0.00265165,0,0,0,0,0.0765068,0.523582,-0.980619,36.5625,1,36651,16823948
27,6,-0.677188,-0.0653296,9.78204,0.0656455,-0.527389,0.974835,-0.00677462,-0.000660781,0.0978202,1,3.79179e-05,-1.40648e-05,4.9453e-06,0.00758358,-0.00281296,0.00098906,0,0,0,0,0.072694,0.520696,-0.981171,36.5625,1,36652,16824048
28,1,-0.677188,-0.0653296,9.78204,0.0656455,-0.527389,0.974835,-0.00677462,-0.000660781,0.0978202,1,3.79179e-05,-1.40648e-05,4.9453e-06,0.00758358,-0.00281296,0.00098906,0,0,0,0,0.072694,0.520696,-0.981171,36.5625,1,36652,16824048
28,2,-0.683451,-0.0599172,9.78823,0.0622197,-0.525815,0.983138,-0.00683593,-0.00060846,0.0978821,1,4.66387e-05,-7.31069e-06,1.15319e-05,0.00932774,-0.00146214,0.00230639,0,0,0,0,0.0718874,0.518663,-0.976161,36.5625,1,36653,16824148
28,3,-0.683451,-0.0599172,9.78823,0.0622197,-0.525815,0.983138,-0.00683593,-0.00060846,0.0978821,1,4.66387e-05,-7.31069e-06,1.15319e-05,0.00932774,-0.00146214,0.00230639,0,0,0,0,0.0718874,0.518663,-0.976161,36.5625,1,36653,16824148
28,4,-0.670597,-0.0622191,9.7939,0.0766388,-0.528269,0.991481,-0.00670975,-0.000632227,0.0979387,1,5.08764e-05,-1.93135e-05,5.20204e-06,0.0101753,-0.00386271,0.00104041,0,0,0,0,0.0743798,0.520025,-0.971597,36.5625,1,36654,16824248
28,5,-0.670597,-0.0622191,9.7939,0.0766388,-0.528269,0.991481,-0.00670975,-0.000632227,0.0979387,1,5.08764e-05,-1.93135e-05,5.20204e-06,0.0101753,-0.00386271,0.00104041,0,0,0,0,0.0743798,0.520025,-0.971597,36.5625,1,36654,16824248
28,6,-0.684276,-0.0687972,9.79155,0.0619934,-0.532885,0.98251,-0.00684511,-0.000698652,0.0979153,1,5.35175e-05,-1.21387e-05,1.45827e-05,0.0107035,-0.00242775,0.00291654,0,0,0,0,0.0757828,0.522452,-0.97155,36.5625,1,36655,16824348
30,1,-0.684276,-0.0687972,9.79155,0.0619934,-0.532885,0.98251,-0.00684511,-0.000698652,0.0979153,1,5.35175e-05,-1.21387e-05,1.45827e-05,0.0107035,-0.00242775,0.00291654,0,0,0,0,0.0757828,0.522452,-0.97155,36.5625,1,36655,16824348
30,2,-0.689942,-0.0568624,9.78965,0.0559811,-0.524626,0.976063,-0.0069006,-0.000577293,0.0978963,1,4.26358e-05,-6.16885e-06,2.32592e-05,0.00852717,-0.00123377,0.00465183,0,0,0,0,0.0760878,0.524986,-0.97705,36.5625,1,36656,16824448
31,1,-0.689942,-0.0568624,9.78965,0.0559811,-0.524626,0.976063,-0.0069006,-0.000577293,0.0978963,1,4.26358e-05,-6.16885e-06,2.32592e-05,0.00852717,-0.00123377,0.00465183,0,0,0,0,0.0760878,0.524986,-0.97705,36.5625,1,36656,16824448
31,2,-0.683532,-0.0608663,9.78959,0.0582911,-0.530842,0.979558,-0.00683905,-0.000619688,0.0978955,1,5.56205e-05,-1.91426e-05,9.8623e-06,0.0111241,-0.00382851,0.00197246,0,0,0,0,0.0760091,0.523116,-0.981637,36.5625,1,36657,16824548
32,1,-0.683532,-0.0608663,9.78959,0.0582911,-0.530842,0.979558,-0.00683905,-0.000619688,0.0978955,1,5.56205e-05,-1.91426e-05,9.8623e-06,0.0111241,-0.00382851,0.00197246,0,0,0,0,0.0760091,0.523116,-0.981637,36.5625,1,36657,16824548
32,2,-0.684548,-0.060673,9.79468,0.0532879,-0.532041,0.992201,-0.0068488,-0.000614238,0.0979466,1,3.78155e-05,-1.69909e-05,7.3107e-06,0.0075631,-0.00339819,0.00146214,0,0,0,0,0.0736766,0.520191,-0.980681,36.5625,1,36658,16824648
33,1,-0.684548,-0.060673,9.79468,0.0532879,-0.532041,0.992201,-0.0068488,-0.000614238,0.0979466,1,3.78155e-05,-1.69909e-05,7.3107e-06,0.0075631,-0.00339819,0.00146214,0,0,0,0,0.0736766,0.520191,-0.980681,36.5625,1,36658,16824648
33,2,-0.675471,-0.0638836,9.78848,0.0630425,-0.537683,0.984065,-0.00675686,-0.000649085,0.0978846,1,5.10496e-05,-1.11181e-05,1.88555e-05,0.0102099,-0.00222362,0.00377109,0,0,0,0,0.0729108,0.517165,-0.974684,36.5625,1,36659,16824748
33,3,-0.675471,-0.0638836,9.78848,0.0630425,-0.537683,0.984065,-0.00675686,-0.000649085,0.0978846,1,5.10496e-05,-1.11181e-05,1.88555e-05,0.0102099,-0.00222362,0.00377109,0,0,0,0,0.0729108,0.517165,-0.974684,36.5625,1,36659,16824748
33,4,-0.679592,-0.0627257,9.78513,0.0660612,-0.534887,0.978778,-0.00679887,-0.000640046,0.097851,1,6.44568e-05,-1.51377e-05,1.28953e-05,0.0128914,-0.00302754,0.00257906,0,0,0,0,0.0739352,0.518557,-0.971123,36.5625,1,36660,16824848
34,1,-0.679592,-0.0627257,9.78513,0.0660612,-0.534887,0.978778,-0.00679887,-0.000640046,0.097851,1,6.44568e-05,-1.51377e-05,1.28953e-05,0.0128914,-0.00302754,0.00257906,0,0,0,0,0.0739352,0.518557,-0.971123,36.5625,1,36660,16824848
34,2,-0.677199,-0.054736,9.79265,0.0691457,-0.527734,0.981004,-0.0067751,-0.000556977,0.0979262,1,4.89951e-05,-1.58398e-05,1.53677e-06,0.00979901,-0.00316796,0.000307353,0,0,0,0,0.0757538,0.521991,-0.973075,36.5625,1,36661,16824948
34,3,-0.677199,-0.054736,9.79265,0.0691457,-0.527734,0.981004,-0.0067751,-0.000556977,0.0979262,1,4.89951e-05,-1.58398e-05,1.53677e-06,0.00979901,-0.00316796,0.000307353,0,0,0,0,0.0757538,0.521991,-0.973075,36.5625,1,36661,16824948
34,4,-0.68184,-0.0627698,9.79634,0.0606827,-0.534156,0.987467,-0.00682138,-0.000640495,0.0979631,1,6.38514e-05,-1.53429e-05,2.10832e-05,0.0127703,-0.00306857,0.00421664,0,0,0,0,0.0756063,0.523545,-0.97809,36.5625,1,36662,16825048
35,1,-0.68184,-0.0627698,9.79634,0.0606827,-0.534156,0.987467,-0.00682138,-0.000640495,0.0979631,1,6.38514e-05,-1.53429e-05,2.10832e-05,0.0127703,-0.00306857,0.00421664,0,0,0,0,0.0756063,0.523545,-0.97809,36.5625,1,36662,16825048
35,2,-0.677575,-0.0622836,9.79122,0.0637439,-0.534111,0.982554,-0.006777,-0.000632221,0.097912,1,4.66387e-05,-6.5383e-06,1.86525e-05,0.00932774,-0.00130766,0.0037305,0,0,0,0,0.0751285,0.521137,-0.979657,36.5625,1,36663,16825148
36,1,-0.677575,-0.0622836,9.79122,0.0637439,-0.534111,0.982554,-0.006777,-0.000632221,0.097912,1,4.66387e-05,-6.5383e-06,1.86525e-05,0.00932774,-0.00130766,0.0037305,0,0,0,0,0.0751285,0.521137,-0.979657,36.5625,1,36663,16825148
36,2,-0.666733,-0.0684303,9.78804,0.0740827,-0.54991,0.97915,-0.0066686,-0.000697574,0.0978802,1,6.66975e-05,-6.62197e-06,1.60565e-05,0.0133395,-0.00132439,0.00321129,0,0,0,0,0.0732937,0.518678,-0.977683,36.5625,1,36664,16825248
36,3,-0.666733,-0.0684303,9.78804,0.0740827,-0.54991,0.97915,-0.0066686,-0.000697574,0.0978802,1,6.66975e-05,-6.62197e-06,1.60565e-05,0.0133395,-0.00132439,0.00321129,0,0,0,0,0.0732937,0.518678,-0.977683,36.5625,1,36664,16825248
36,4,-0.683608,-0.0527174,9.78354,0.0631476,-0.5283,0.974985,-0.00683584,-0.000535996,0.0978353,1,4.4113e-05,1.17498e-06,1.39663e-05,0.00882259,0.000234996,0.00279326,0,0,0,0,0.0724421,0.51716,-0.974177,36.5625,1,36665,16825348
36,5,-0.683608,-0.0527174,9.78354,0.0631476,-0.5283,0.974985,-0.00683584,-0.000535996,0.0978353,1,4.4113e-05,1.17498e-06,1.39663e-05,0.00882259,0.000234996,0.00279326,0,0,0,0,0.0724421,0.51716,-0.974177,36.5625,1,36665,16825348
36,6,-0.684395,-0.0632485,9.79126,0.0574341,-0.539361,0.983584,-0.00684553,-0.000641746,0.0979124,1,4.70206e-05,-8.08002e-06,3.82989e-06,0.00940412,-0.001616,0.000765978,0,0,0,0,0.072451,0.519562,-0.972104,36.5625,1,36666,16825448
36,7,-0.684395,-0.0632485,9.79126,0.0574341,-0.539361,0.983584,-0.00684553,-0.000641746,0.0979124,1,4.70206e-05,-8.08002e-06,3.82989e-06,0.00940412,-0.001616,0.000765978,0,0,0,0,0.072451,0.519562,-0.972104,36.5625,1,36666,16825448
36,8,-0.675331,-0.0714633,9.79961,0.0673346,-0.55134,0.989089,-0.0067554,-0.000724858,0.0979959,1,5.12824e-05,-1.07735e-05,1.28838e-05,0.0102565,-0.00215469,0.00257677,0,0,0,0,0.0742863,0.523466,-0.973035,36.5625,1,36667,16825548
37,1,-0.675331,-0.0714633,9.79961,0.0673346,-0.55134,0.989089,-0.0067554,-0.000724858,0.0979959,1,5.12824e-05,-1.07735e-05,1.28838e-05,0.0102565,-0.00215469,0.00257677,0,0,0,0,0.0742863,0.523466,-0.973035,36.5625,1,36667,16825548
37,2,-0.68781,-0.0632788,9.78653,0.0532206,-0.546723,0.97563,-0.00687944,-0.00064259,0.0978651,1,4.78904e-05,-7.05936e-06,3.11044e-05,0.00957808,-0.00141187,0.00622089,0,0,0,0,0.0770501,0.524978,-0.977055,36.5625,1,36668,16825648
38,1,-0.68781,-0.0632788,9.78653,0.0532206,-0.546723,0.97563,-0.00687944,-0.00064259,0.0978651,1,4.78904e-05,-7.05936e-06,3.11044e-05,0.00957808,-0.00141187,0.00622089,0,0,0,0,0.0770501,0.524978,-0.977055,36.5625,1,36668,16825648
38,2,-0.68414,-0.0712151,9.79154,0.0548102,-0.562687,0.983132,-0.00684567,-0.000721522,0.097915,1,4.65905e-05,-2.19194e-05,1.80564e-05,0.00931809,-0.00438388,0.00361129,0,0,0,0,0.0765804,0.522082,-0.978632,36.5625,1,36669,16825748
39,1,-0.68414,-0.0712151,9.79154,0.0548102,-0.562687,0.983132,-0.00684567,-0.000721522,0.097915,1,4.65905e-05,-2.19194e-05,1.80564e-05,0.00931809,-0.00438388,0.00361129,0,0,0,0,0.0765804,0.522082,-0.978632,36.5625,1,36669,16825748
39,2,-0.684628,-0.0645832,9.79532,0.0524194,-0.555379,0.987258,-0.00684942,-0.000656255,0.0979529,1,5.25376e-05,-1.60992e-05,9.48318e-06,0.0105075,-0.00321984,0.00189664,0,0,0,0,0.0718338,0.51822,-0.978696,36.5625,1,36670,16825848
39,3,-0.684628,-0.0645832,9.79532,0.0524194,-0.555379,0.987258,-0.00684942,-0.000656255,0.0979529,1,5.25376e-05,-1.60992e-05,9.48318e-06,0.0105075,-0.00321984,0.00189664,0,0,0,0,0.0718338,0.51822,-0.978696,36.5625,1,36670,16825848
39,4,-0.681448,-0.0531504,9.79098,0.0560707,-0.540054,0.984289,-0.00681423,-0.000538932,0.0979098,1,3.68543e-05,1.20341e-06,1.54655e-05,0.00737086,0.000240681,0.0030931,0,0,0,0,0.0719239,0.517191,-0.975689,36.5625,1,36671,16825948
39,5,-0.681448,-0.0531504,9.79098,0.0560707,-0.540054,0.984289,-0.00681423,-0.000538932,0.0979098,1,3.68543e-05,1.20341e-06,1.54655e-05,0.00737086,0.000240681,0.0030931,0,0,0,0,0.0719239,0.517191,-0.975689,36.5625,1,36671,16825948
39,6,-0.676236,-0.0546861,9.78586,0.0656543,-0.540499,0.979774,-0.0067653,-0.000555828,0.0978583,1,4.48413e-05,-1.51135e-05,1.41021e-05,0.00896827,-0.00302269,0.00282041,0,0,0,0,0.0733725,0.520548,-0.973096,36.5625,1,36672,16826048
39,7,-0.676236,-0.0546861,9.78586,0.0656543,-0.540499,0.979774,-0.0067653,-0.000555828,0.0978583,1,4.48413e-05,-1.51135e-05,1.41021e-05,0.00896827,-0.00302269,0.00282041,0,0,0,0,0.0733725,0.520548,-0.973096,36.5625,1,36672,16826048
39,8,-0.675162,-0.0689831,9.78979,0.0661797,-0.549692,0.980594,-0.0067528,-0.000700706,0.0978977,1,5.46909e-05,-6.11899e-06,1.23382e-05,0.0109382,-0.0012238,0.00246765,0,0,0,0,0.0767161,0.521983,-0.97308,36.5625,1,36673,16826148
40,1,-0.675162,-0.0689831,9.78979,0.0661797,-0.549692,0.980594,-0.0067528,-0.000700706,0.0978977,1,5.46909e-05,-6.11899e-06,1.23382e-05,0.0109382,-0.0012238,0.00246765,0,0,0,0,0.0767161,0.521983,-0.97308,36.5625,1,36673,16826148
40,2,-0.680301,-0.0690356,9.79117,0.0602397,-0.557145,0.980451,-0.00680377,-0.000701161,0.0979116,1,5.42197e-05,-4.01576e-06,1.3823e-05,0.0108439,-0.000803153,0.00276459,0,0,0,0,0.0785295,0.522048,-0.977632,36.5625,1,36674,16826248
40,3,-0.680301,-0.0690356,9.79117,0.0602397,-0.557145,0.980451,-0.00680377,-0.000701161,0.0979116,1,5.42197e-05,-4.01576e-06,1.3823e-05,0.0108439,-0.000803153,0.00276459,0,0,0,0,0.0785295,0.522048,-0.977632,36.5625,1,36674,16826248
40,4,-0.68238,-0.0594096,9.78449,0.0549907,-0.545826,0.975724,-0.00682618,-0.000604492,0.0978447,1,5.22975e-05,-1.22095e-05,1.18914e-05,0.0104595,-0.00244191,0.00237828,0,0,0,0,0.0750549,0.522636,-0.981643,36.5625,1,36675,16826348
41,1,-0.68238,-0.0594096,9.78449,0.0549907,-0.545826,0.975724,-0.00682618,-0.000604492,0.0978447,1,5.22975e-05,-1.22095e-05,1.18914e-05,0.0104595,-0.00244191,0.00237828,0,0,0,0,0.0750549,0.522636,-0.981643,36.5625,1,36675,16826348
41,2,-0.676301,-0.0631787,9.78577,0.060459,-0.552214,0.973048,-0.0067639,-0.000642804,0.0978576,1,5.49907e-05,-4.68866e-06,1.88018e-05,0.0109981,-0.000937732,0.00376036,0,0,0,0,0.0717853,0.521147,-0.978631,36.5625,1,36676,16826448
42,1,-0.676301,-0.0631787,9.78577,0.060459,-0.552214,0.973048,-0.0067639,-0.000642804,0.0978576,1,5.49907e-05,-4.68866e-06,1.88018e-05,0.0109981,-0.000937732,0.00376036,0,0,0,0,0.0717853,0.521147,-0.978631,36.5625,1,36676,16826448
42,2,-0.68024,-0.0660999,9.79053,0.05845,-0.560476,0.983394,-0.00680432,-0.000675102,0.0979051,1,7.14753e-05,-9.87208e-06,7.90525e-06,0.0142951,-0.00197442,0.00158105,0,0,0,0,0.072899,0.518619,-0.974147,36.5625,1,36677,16826548
42,3,-0.68024,-0.0660999,9.79053,0.05845,-0.560476,0.983394,-0.00680432,-0.000675102,0.0979051,1,7.14753e-05,-9.87208e-06,7.90525e-06,0.0142951,-0.00197442,0.00158105,0,0,0,0,0.072899,0.518619,-0.974147,36.5625,1,36677,16826548
42,4,-0.670746,-0.0569786,9.79292,0.0687087,-0.549629,0.984707,-0.00670879,-0.000581123,0.0979291,1,5.82896e-05,-6.74251e-06,-5.86767e-06,0.0116579,-0.0013485,-0.00117353,0,0,0,0,0.0739191,0.519532,-0.971101,36.5625,1,36678,16826648
44,1,-0.670746,-0.0569786,9.79292,0.0687087,-0.549629,0.984707,-0.00670879,-0.000581123,0.0979291,1,5.82896e-05,-6.74251e-06,-5.86767e-06,0.0116579,-0.0013485,-0.00117353,0,0,0,0,0.0739191,0.519532,-0.971101,36.5625,1,36678,16826648
44,2,-0.682349,-0.0561575,9.78114,0.055583,-0.547937,0.971622,-0.00682803,-0.000568271,0.097811,1,3.30599e-05,-2.33018e-05,1.67789e-05,0.00661199,-0.00466036,0.00335578,0,0,0,0,0.0757866,0.521485,-0.972076,36.5625,1,36679,16826748
44,3,-0.682349,-0.0561575,9.78114,0.055583,-0.547937,0.971622,-0.00682803,-0.000568271,0.097811,1,3.30599e-05,-2.33018e-05,1.67789e-05,0.00661199,-0.00466036,0.00335578,0,0,0,0,0.0757866,0.521485,-0.972076,36.5625,1,36679,16826748
44,4,-0.670519,-0.0584133,9.78815,0.0684011,-0.554189,0.977182,-0.00670676,-0.00059363,0.0978814,1,4.8399e-05,-8.05952e-06,1.68587e-06,0.0096798,-0.0016119,0.000337173,0,0,0,0,0.0766174,0.522055,-0.977118,36.5625,1,36680,16826848
45,1,-0.670519,-0.0584133,9.78815,0.0684011,-0.554189,0.977182,-0.00670676,-0.00059363,0.0978814,1,4.8399e-05,-8.05952e-06,1.68587e-06,0.0096798,-0.0016119,0.000337173,0,0,0,0,0.0766174,0.522055,-0.977118,36.5625,1,36680,16826848
45,2,-0.677851,-0.0622065,9.78547,0.0567164,-0.559783,0.972386,-0.00678145,-0.000631431,0.0978544,1,4.70654e-05,-1.50946e-05,1.13955e-05,0.00941309,-0.00301892,0.00227911,0,0,0,0,0.077489,0.521632,-0.981172,36.5625,1,36681,16826948
46,1,-0.677851,-0.0622065,9.78547,0.0567164,-0.559783,0.972386,-0.00678145,-0.000631431,0.0978544,1,4.70654e-05,-1.50946e-05,1.13955e-05,0.00941309,-0.00301892,0.00227911,0,0,0,0,0.077489,0.521632,-0.981172,36.5625,1,36681,16826948
46,2,-0.676629,-0.0667029,9.79797,0.0631431,-0.566825,0.98543,-0.00677039,-0.000677474,0.0979793,1,5.1925e-05,-2.10797e-05,1.99301e-05,0.010385,-0.00421594,0.00398602,0,0,0,0,0.0755968,0.519697,-0.981206,36.5625,1,36682,16827048
46,3,-0.676629,-0.0667029,9.79797,0.0631431,-0.566825,0.98543,-0.00677039,-0.000677474,0.0979793,1,5.1925e-05,-2.10797e-05,1.99301e-05,0.010385,-0.00421594,0.00398602,0,0,0,0,0.0755968,0.519697,-0.981206,36.5625,1,36682,16827048
46,4,-0.681885,-0.0765455,9.79655,0.0551267,-0.571679,0.984206,-0.00681927,-0.00077164,0.0979654,1,3.04673e-05,-2.24629e-06,1.57785e-05,0.00609346,-0.000449258,0.0031557,0,0,0,0,0.072434,0.517647,-0.974166,36.5625,1,36683,16827148
46,5,-0.681885,-0.0765455,9.79655,0.0551267,-0.571679,0.984206,-0.00681927,-0.00077164,0.0979654,1,3.04673e-05,-2.24629e-06,1.57785e-05,0.00609346,-0.000449258,0.0031557,0,0,0,0,0.072434,0.517647,-0.974166,36.5625,1,36683,16827148
46,6,-0.679944,-0.0649189,9.78918,0.0506092,-0.562334,0.98222,-0.00680184,-0.000658333,0.0978915,1,4.48262e-05,-1.24255e-05,2.70608e-05,0.00896525,-0.00248511,0.00541216,0,0,0,0,0.072015,0.519051,-0.970598,36.5625,1,36684,16827248
46,7,-0.679944,-0.0649189,9.78918,0.0506092,-0.562334,0.98222,-0.00680184,-0.000658333,0.0978915,1,4.48262e-05,-1.24255e-05,2.70608e-05,0.00896525,-0.00248511,0.00541216,0,0,0,0,0.072015,0.519051,-0.970598,36.5625,1,36684,16827248
46,8,-0.675428,-0.0672083,9.7854,0.0634658,-0.564777,0.971326,-0.00675649,-0.000682975,0.0978538,1,5.43986e-05,-1.14144e-05,1.81829e-05,0.0108797,-0.00228287,0.00363657,0,0,0,0,0.0763247,0.519512,-0.971112,36.5625,1,36685,16827348
46,9,-0.675428,-0.0672083,9.7854,0.0634658,-0.564777,0.971326,-0.00675649,-0.000682975,0.0978538,1,5.43986e-05,-1.14144e-05,1.81829e-05,0.0108797,-0.00228287,0.00363657,0,0,0,0,0.0763247,0.519512,-0.971112,36.5625,1,36685,16827348
46,10,-0.677387,-0.0735147,9.79113,0.0574921,-0.570821,0.980719,-0.00677694,-0.000745046,0.097911,1,5.00773e-05,-1.57689e-05,6.87683e-06,0.0100155,-0.00315378,0.00137537,0,0,0,0,0.0766705,0.521053,-0.975625,36.5625,1,36686,16827448
47,1,-0.677387,-0.0735147,9.79113,0.0574921,-0.570821,0.980719,-0.00677694,-0.000745046,0.097911,1,5.00773e-05,-1.57689e-05,6.87683e-06,0.0100155,-0.00315378,0.00137537,0,0,0,0,0.0766705,0.521053,-0.975625,36.5625,1,36686,16827448
47,2,-0.682736,-0.0523109,9.78863,0.0531835,-0.55544,0.974445,-0.00683044,-0.000531861,0.097886,1,4.29618e-05,-1.58994e-05,2.49914e-05,0.00859235,-0.00317987,0.00499829,0,0,0,0,0.0746555,0.520653,-0.979665,36.5625,1,36687,16827548
47,3,-0.682736,-0.0523109,9.78863,0.0531835,-0.55544,0.974445,-0.00683044,-0.000531861,0.097886,1,4.29618e-05,-1.58994e-05,2.49914e-05,0.00859235,-0.00317987,0.00499829,0,0,0,0,0.0746555,0.520653,-0.979665,36.5625,1,36687,16827548
47,4,-0.672751,-0.0577506,9.79293,0.0647002,-0.555929,0.983395,-0.00673022,-0.000588232,0.0979291,1,5.32326e-05,-1.39623e-05,2.22641e-05,0.0106465,-0.00279246,0.00445282,0,0,0,0,0.0727917,0.517733,-0.979217,36.5625,1,36688,16827648
47,5,-0.672751,-0.0577506,9.79293,0.0647002,-0.555929,0.983395,-0.00673022,-0.000588232,0.0979291,1,5.32326e-05,-1.39623e-05,2.22641e-05,0.0106465,-0.00279246,0.00445282,0,0,0,0,0.0727917,0.517733,-0.979217,36.5625,1,36688,16827648
47,6,-0.671656,-0.061446,9.78679,0.0654141,-0.565077,0.975984,-0.00672092,-0.000623452,0.0978675,1,4.45212e-05,-2.24369e-05,2.06754e-05,0.00890424,-0.00448738,0.00413508,0,0,0,0,0.0729066,0.516686,-0.9752,36.5625,1,36689,16827748
48,1,-0.671656,-0.061446,9.78679,0.0654141,-0.565077,0.975984,-0.00672092,-0.000623452,0.0978675,1,4.45212e-05,-2.24369e-05,2.06754e-05,0.00890424,-0.00448738,0.00413508,0,0,0,0,0.0729066,0.516686,-0.9752,36.5625,1,36689,16827748
48,2,-0.678231,-0.0666034,9.78305,0.0550504,-0.566803,0.972444,-0.00678357,-0.000675173,0.0978304,1,4.61154e-05,-6.48218e-06,8.50837e-06,0.00922308,-0.00129644,0.00170167,0,0,0,0,0.0734128,0.518109,-0.97315,36.5625,1,36690,16827848
48,3,-0.678231,-0.0666034,9.78305,0.0550504,-0.566803,0.972444,-0.00678357,-0.000675173,0.0978304,1,4.61154e-05,-6.48218e-06,8.50837e-06,0.00922308,-0.00129644,0.00170167,0,0,0,0,0.0734128,0.518109,-0.97315,36.5625,1,36690,16827848
48,4,-0.676093,-0.0597105,9.7865,0.0575198,-0.561093,0.977725,-0.00676476,-0.000608409,0.0978646,1,5.55777e-05,-1.97403e-05,3.14766e-05,0.0111155,-0.00394806,0.00629532,0,0,0,0,0.0748116,0.520057,-0.973619,36.5625,1,36691,16827948
48,5,-0.676093,-0.0597105,9.7865,0.0575198,-0.561093,0.977725,-0.00676476,-0.000608409,0.0978646,1,5.55777e-05,-1.97403e-05,3.14766e-05,0.0111155,-0.00394806,0.00629532,0,0,0,0,0.0748116,0.520057,-0.973619,36.5625,1,36691,16827948
48,6,-0.686739,-0.0585573,9.79268,0.0509736,-0.566647,0.981749,-0.00686889,-0.000595468,0.0979266,1,4.93564e-05,-7.79696e-06,1.66687e-05,0.00987129,-0.00155939,0.00333374,0,0,0,0,0.074664,0.521611,-0.978634,36.5625,1,36692,16828048
48,7,-0.686739,-0.0585573,9.79268,0.0509736,-0.566647,0.981749,-0.00686889,-0.000595468,0.0979266,1,4.93564e-05,-7.79696e-06,1.66687e-05,0.00987129,-0.00155939,0.00333374,0,0,0,0,0.074664,0.521611,-0.978634,36.5625,1,36692,16828048
48,8,-0.673084,-0.0591428,9.79122,0.0567136,-0.567604,0.97902,-0.00673415,-0.000600591,0.097912,1,4.57372e-05,-1.698e-05,1.53091e-05,0.00914745,-0.00339599,0.00306182,0,0,0,0,0.0741824,0.520169,-0.979674,36.5625,1,36693,16828148
50,1,-0.673084,-0.0591428,9.79122,0.0567136,-0.567604,0.97902,-0.00673415,-0.000600591,0.097912,1,4.57372e-05,-1.698e-05,1.53091e-05,0.00914745,-0.00339599,0.00306182,0,0,0,0,0.0741824,0.520169,-0.979674,36.5625,1,36693,16828148
50,2,-0.675691,-0.0623824,9.79495,0.0601059,-0.570967,0.984983,-0.00675947,-0.000636595,0.0979492,1,6.38963e-05,-1.32174e-05,1.87881e-05,0.0127793,-0.00264349,0.00375761,0,0,0,0,0.0732648,0.518217,-0.979208,36.5625,1,36694,16828248
50,3,-0.675691,-0.0623824,9.79495,0.0601059,-0.570967,0.984983,-0.00675947,-0.000636595,0.0979492,1,6.38963e-05,-1.32174e-05,1.87881e-05,0.0127793,-0.00264349,0.00375761,0,0,0,0,0.0732648,0.518217,-0.979208,36.5625,1,36694,16828248
50,4,-0.677672,-0.0642902,9.7912,0.0560285,-0.57531,0.98177,-0.00677596,-0.000651208,0.097912,1,4.16879e-05,3.76057e-06,1.05538e-05,0.00833758,0.000752114,0.00211076,0,0,0,0,0.0733754,0.516691,-0.975707,36.5625,1,36695,16828348
51,1,-0.677672,-0.0642902,9.7912,0.0560285,-0.57531,0.98177,-0.00677596,-0.000651208,0.097912,1,4.16879e-05,3.76057e-06,1.05538e-05,0.00833758,0.000752114,0.00211076,0,0,0,0,0.0733754,0.516691,-0.975707,36.5625,1,36695,16828348
51,2,-0.678926,-0.0658821,9.77289,0.0532345,-0.573571,0.963615,-0.00679196,-0.000667864,0.0977287,1,4.57727e-05,-1.38561e-05,7.14127e-06,0.00915454,-0.00277122,0.00142825,0,0,0,0,0.074869,0.519533,-0.97161,36.5625,1,36696,16828448
52,1,-0.678926,-0.0658821,9.77289,0.0532345,-0.573571,0.963615,-0.00679196,-0.000667864,0.0977287,1,4.57727e-05,-1.38561e-05,7.14127e-06,0.00915454,-0.00277122,0.00142825,0,0,0,0,0.074869,0.519533,-0.97161,36.5625,1,36696,16828448
52,2,-0.68853,-0.0609543,9.78656,0.0470086,-0.574535,0.977273,-0.00688597,-0.000618437,0.0978654,1,4.4778e-05,-3.50344e-06,9.34862e-06,0.0089556,-0.000700688,0.00186972,0,0,0,0,0.0767488,0.521477,-0.972081,36.5625,1,36697,16828548
53,1,-0.68853,-0.0609543,9.78656,0.0470086,-0.574535,0.977273,-0.00688597,-0.000618437,0.0978654,1,4.4778e-05,-3.50344e-06,9.34862e-06,0.0089556,-0.000700688,0.00186972,0,0,0,0,0.0767488,0.521477,-0.972081,36.5625,1,36697,16828548
53,2,-0.665825,-0.0572117,9.78067,0.0683582,-0.5702,0.967664,-0.00665877,-0.000582342,0.0978066,1,5.10514e-05,-2.77002e-06,1.79298e-05,0.0102103,-0.000554004,0.00358597,0,0,0,0,0.0756556,0.523509,-0.976071,36.5625,1,36698,16828648
53,3,-0.665825,-0.0572117,9.78067,0.0683582,-0.5702,0.967664,-0.00665877,-0.000582342,0.0978066,1,5.10514e-05,-2.77002e-06,1.79298e-05,0.0102103,-0.000554004,0.00358597,0,0,0,0,0.0756556,0.523509,-0.976071,36.5625,1,36698,16828648
53,4,-0.684032,-0.0640244,9.7926,0.0474691,-0.575498,0.981855,-0.00684035,-0.000648545,0.097926,1,4.09857e-05,-2.53435e-07,2.00214e-05,0.00819714,-5.0687e-05,0.00400429,0,0,0,0,0.0746355,0.522595,-0.979117,36.5625,1,36699,16828748
54,1,-0.684032,-0.0640244,9.7926,0.0474691,-0.575498,0.981855,-0.00684035,-0.000648545,0.097926,1,4.09857e-05,-2.53435e-07,2.00214e-05,0.00819714,-5.0687e-05,0.00400429,0,0,0,0,0.0746355,0.522595,-0.979117,36.5625,1,36699,16828748
54,2,-0.66798,-0.0579908,9.79324,0.0692258,-0.572057,0.982965,-0.00668414,-0.000590442,0.097932,1,5.19379e-05,-2.23347e-05,2.70404e-05,0.0103876,-0.00446694,0.00540808,0,0,0,0,0.0732282,0.51969,-0.97968,36.5625,1,36700,16828848
56,1,-0.66798,-0.0579908,9.79324,0.0692258,-0.572057,0.982965,-0.00668414,-0.000590442,0.097932,1,5.19379e-05,-2.23347e-05,2.70404e-05,0.0103876,-0.00446694,0.00540808,0,0,0,0,0.0732282,0.51969,-0.97968,36.5625,1,36700,16828848
56,2,-0.669352,-0.0652021,9.78877,0.0608714,-0.579967,0.976225,-0.00669573,-0.000660718,0.0978875,1,4.38802e-05,-1.13714e-05,7.89582e-06,0.00877604,-0.00227429,0.00157916,0,0,0,0,0.0714509,0.516707,-0.975698,36.5625,1,36701,16828948
56,3,-0.669352,-0.0652021,9.78877,0.0608714,-0.579967,0.976225,-0.00669573,-0.000660718,0.0978875,1,4.38802e-05,-1.13714e-05,7.89582e-06,0.00877604,-0.00227429,0.00157916,0,0,0,0,0.0714509,0.516707,-0.975698,36.5625,1,36701,16828948
56,4,-0.678639,-0.0587652,9.78617,0.0538497,-0.574692,0.975739,-0.00678817,-0.00059763,0.0978616,1,5.02859e-05,-9.14351e-06,1.00285e-05,0.0100572,-0.0018287,0.0020057,0,0,0,0,0.0729364,0.520037,-0.97159,36.5625,1,36702,16829048
58,1,-0.678639,-0.0587652,9.78617,0.0538497,-0.574692,0.975739,-0.00678817,-0.00059763,0.0978616,1,5.02859e-05,-9.14351e-06,1.00285e-05,0.0100572,-0.0018287,0.0020057,0,0,0,0,0.0729364,0.520037,-0.97159,36.5625,1,36702,16829048
58,2,-0.676598,-0.0620175,9.79969,0.0595324,-0.578212,0.986342,-0.00676482,-0.000629537,0.0979969,1,4.59478e-05,5.74601e-06,2.63527e-05,0.00918956,0.0011492,0.00527054,0,0,0,0,0.0757586,0.523915,-0.971517,36.5625,1,36703,16829148
58,3,-0.676598,-0.0620175,9.79969,0.0595324,-0.578212,0.986342,-0.00676482,-0.000629537,0.0979969,1,4.59478e-05,5.74601e-06,2.63527e-05,0.00918956,0.0011492,0.00527054,0,0,0,0,0.0757586,0.523915,-0.971517,36.5625,1,36703,16829148
58,4,-0.676657,-0.0564745,9.78889,0.0583577,-0.574881,0.97753,-0.00676734,-0.000572789,0.0978888,1,3.94247e-05,-4.09419e-06,2.40971e-05,0.00788494,-0.000818837,0.00481941,0,0,0,0,0.0751375,0.52354,-0.977583,36.5625,1,36704,16829248
58,5,-0.676657,-0.0564745,9.78889,0.0583577,-0.574881,0.97753,-0.00676734,-0.000572789,0.0978888,1,3.94247e-05,-4.09419e-06,2.40971e-05,0.00788494,-0.000818837,0.00481941,0,0,0,0,0.0751375,0.52354,-0.977583,36.5625,1,36704,16829248
58,6,-0.678852,-0.0612659,9.78989,0.0546665,-0.579222,0.975973,-0.00679094,-0.000620548,0.0978987,1,3.92125e-05,-1.24722e-05,1.56107e-05,0.0078425,-0.00249444,0.00312213,0,0,0,0,0.0745696,0.522161,-0.982157,36.5625,1,36705,16829348
62,1,-0.678852,-0.0612659,9.78989,0.0546665,-0.579222,0.975973,-0.00679094,-0.000620548,0.0978987,1,3.92125e-05,-1.24722e-05,1.56107e-05,0.0078425,-0.00249444,0.00312213,0,0,0,0,0.0745696,0.522161,-0.982157,36.5625,1,36705,16829348
62,2,-0.67689,-0.0616314,9.78986,0.0526177,-0.581364,0.976839,-0.00676993,-0.000624592,0.0978985,1,4.08013e-05,-5.36443e-06,2.13794e-05,0.00816026,-0.00107289,0.00427587,0,0,0,0,0.073261,0.519184,-0.978682,36.5625,1,36706,16829448
62,3,-0.67689,-0.0616314,9.78986,0.0526177,-0.581364,0.976839,-0.00676993,-0.000624592,0.0978985,1,4.08013e-05,-5.36443e-06,2.13794e-05,0.00816026,-0.00107289,0.00427587,0,0,0,0,0.073261,0.519184,-0.978682,36.5625,1,36706,16829448
62,4,-0.675169,-0.0522303,9.79367,0.0556299,-0.571698,0.986147,-0.00675402,-0.000533717,0.0979365,1,5.73267e-05,-1.20214e-05,1.37536e-05,0.0114653,-0.00240427,0.00275071,0,0,0,0,0.0724587,0.517629,-0.973157,36.5625,1,36707,16829548
62,5,-0.675169,-0.0522303,9.79367,0.0556299,-0.571698,0.986147,-0.00675402,-0.000533717,0.0979365,1,5.73267e-05,-1.20214e-05,1.37536e-05,0.0114653,-0.00240427,0.00275071,0,0,0,0,0.0724587,0.517629,-0.973157,36.5625,1,36707,16829548
62,6,-0.681543,-0.063132,9.7943,0.0506687,-0.58585,0.984385,-0.00681781,-0.000643578,0.0979427,1,6.29536e-05,-1.2072e-05,-5.34402e-06,0.0125907,-0.0024144,-0.0010688,0,0,0,0,0.0738944,0.51955,-0.972111,36.5625,1,36708,16829648
62,7,-0.681543,-0.063132,9.7943,0.0506687,-0.58585,0.984385,-0.00681781,-0.000643578,0.0979427,1,6.29536e-05,-1.2072e-05,-5.34402e-06,0.0125907,-0.0024144,-0.0010688,0,0,0,0,0.0738944,0.51955,-0.972111,36.5625,1,36708,16829648
62,8,-0.679361,-0.0533141,9.78453,0.0486598,-0.576399,0.974447,-0.00679594,-0.000543028,0.097845,1,4.96451e-05,-1.19973e-05,1.26381e-05,0.00992901,-0.00239946,0.00252763,0,0,0,0,0.0752889,0.52102,-0.973094,36.5625,1,36709,16829748
62,9,-0.679361,-0.0533141,9.78453,0.0486598,-0.576399,0.974447,-0.00679594,-0.000543028,0.097845,1,4.96451e-05,-1.19973e-05,1.26381e-05,0.00992901,-0.00239946,0.00252763,0,0,0,0,0.0752889,0.52102,-0.973094,36.5625,1,36709,16829748
62,10,-0.683774,-0.0641709,9.78684,0.0465144,-0.582814,0.971979,-0.00683795,-0.000652795,0.0978683,1,5.55515e-05,-1.19425e-06,1.55569e-05,0.0111103,-0.000238851,0.00311138,0,0,0,0,0.0756143,0.523057,-0.978101,36.5625,1,36710,16829848
63,1,-0.683774,-0.0641709,9.78684,0.0465144,-0.582814,0.971979,-0.00683795,-0.000652795,0.0978683,1,5.55515e-05,-1.19425e-06,1.55569e-05,0.0111103,-0.000238851,0.00311138,0,0,0,0,0.0756143,0.523057,-0.978101,36.5625,1,36710,16829848
63,2,-0.687974,-0.062856,9.78824,0.0437466,-0.587881,0.975173,-0.00688472,-0.000640567,0.097882,1,5.99361e-05,-2.55647e-05,1.98803e-05,0.0119872,-0.00511294,0.00397606,0,0,0,0,0.0760371,0.520686,-0.982196,36.5625,1,36711,16829948
63,3,-0.687974,-0.062856,9.78824,0.0437466,-0.587881,0.975173,-0.00688472,-0.000640567,0.097882,1,5.99361e-05,-2.55647e-05,1.98803e-05,0.0119872,-0.00511294,0.00397606,0,0,0,0,0.0760371,0.520686,-0.982196,36.5625,1,36711,16829948
63,4,-0.682584,-0.0677464,9.79087,0.0479265,-0.595723,0.978263,-0.00682801,-0.000688177,0.0979085,1,5.38007e-05,-1.11479e-05,1.30328e-05,0.0107601,-0.00222958,0.00260657,0,0,0,0,0.0747001,0.518693,-0.979204,36.5625,1,36712,16830048
64,1,-0.682584,-0.0677464,9.79087,0.0479265,-0.595723,0.978263,-0.00682801,-0.000688177,0.0979085,1,5.38007e-05,-1.11479e-05,1.30328e-05,0.0107601,-0.00222958,0.00260657,0,0,0,0,0.0747001,0.518693,-0.979204,36.5625,1,36712,16830048
64,2,-0.682314,-0.054648,9.78689,0.0476866,-0.582035,0.969207,-0.00682018,-0.000555525,0.0978691,1,4.51821e-05,1.50336e-05,1.47931e-05,0.00903643,0.00300672,0.00295863,0,0,0,0,0.0729194,0.518122,-0.973653,36.5625,1,36713,16830148
66,1,-0.682314,-0.054648,9.78689,0.0476866,-0.582035,0.969207,-0.00682018,-0.000555525,0.0978691,1,4.51821e-05,1.50336e-05,1.47931e-05,0.00903643,0.00300672,0.00295863,0,0,0,0,0.0729194,0.518122,-0.973653,36.5625,1,36713,16830148
66,2,-0.68666,-0.060178,9.78927,0.0433817,-0.591666,0.978161,-0.00687057,-0.000612678,0.0978924,1,5.41321e-05,-2.04353e-05,2.18172e-05,0.0108264,-0.00408707,0.00436345,0,0,0,0,0.0719453,0.519584,-0.973111,36.5625,1,36714,16830248
66,3,-0.68666,-0.060178,9.78927,0.0433817,-0.591666,0.978161,-0.00687057,-0.000612678,0.0978924,1,5.41321e-05,-2.04353e-05,2.18172e-05,0.0108264,-0.00408707,0.00436345,0,0,0,0,0.0719453,0.519584,-0.973111,36.5625,1,36714,16830248
66,4,-0.675247,-0.0621266,9.79018,0.0553679,-0.587986,0.976548,-0.00675263,-0.000631986,0.0979018,1,5.37392e-05,-8.77316e-07,1.46553e-05,0.0107478,-0.000175463,0.00293107,0,0,0,0,0.0762022,0.522493,-0.974076,36.5625,1,36715,16830348
66,5,-0.675247,-0.0621266,9.79018,0.0553679,-0.587986,0.976548,-0.00675263,-0.000631986,0.0979018,1,5.37392e-05,-8.77316e-07,1.46553e-05,0.0107478,-0.000175463,0.00293107,0,0,0,0,0.0762022,0.522493,-0.974076,36.5625,1,36715,16830348
66,6,-0.683362,-0.0667131,9.79122,0.0461249,-0.597619,0.981626,-0.00683431,-0.000677267,0.0979121,1,5.03063e-05,-3.67687e-06,2.08003e-05,0.0100613,-0.000735373,0.00416005,0,0,0,0,0.077042,0.525466,-0.977044,36.5625,1,36716,16830448
67,1,-0.683362,-0.0667131,9.79122,0.0461249,-0.597619,0.981626,-0.00683431,-0.000677267,0.0979121,1,5.03063e-05,-3.67687e-06,2.08003e-05,0.0100613,-0.000735373,0.00416005,0,0,0,0,0.077042,0.525466,-0.977044,36.5625,1,36716,16830448
67,2,-0.676245,-0.0626328,9.78918,0.056637,-0.59498,0.976643,-0.00676391,-0.000634786,0.0978916,1,4.10842e-05,-7.67814e-06,3.06182e-05,0.00821684,-0.00153563,0.00612365,0,0,0,0,0.0760461,0.523089,-0.980123,36.5625,1,36717,16830548
67,3,-0.676245,-0.0626328,9.78918,0.056637,-0.59498,0.976643,-0.00676391,-0.000634786,0.0978916,1,4.10842e-05,-7.67814e-06,3.06182e-05,0.00821684,-0.00153563,0.00612365,0,0,0,0,0.0760461,0.523089,-0.980123,36.5625,1,36717,16830548
67,4,-0.687876,-0.0687916,9.79464,0.0412422,-0.604105,0.983092,-0.0068817,-0.000698284,0.0979461,1,5.15581e-05,-1.5164e-05,1.94848e-05,0.0103116,-0.00303281,0.00389696,0,0,0,0,0.0741867,0.520648,-0.979158,36.5625,1,36718,16830648
67,5,-0.687876,-0.0687916,9.79464,0.0412422,-0.604105,0.983092,-0.0068817,-0.000698284,0.0979461,1,5.15581e-05,-1.5164e-05,1.94848e-05,0.0103116,-0.00303281,0.00389696,0,0,0,0,0.0741867,0.520648,-0.979158,36.5625,1,36718,16830648
67,6,-0.669693,-0.0657459,9.79013,0.0594186,-0.595706,0.9776,-0.00669837,-0.000669903,0.0979011,1,6.24154e-05,-7.46731e-06,1.66333e-05,0.0124831,-0.00149346,0.00332667,0,0,0,0,0.0733843,0.519094,-0.973633,36.5625,1,36719,16830748
68,1,-0.669693,-0.0657459,9.79013,0.0594186,-0.595706,0.9776,-0.00669837,-0.000669903,0.0979011,1,6.24154e-05,-7.46731e-06,1.66333e-05,0.0124831,-0.00149346,0.00332667,0,0,0,0,0.0733843,0.519094,-0.973633,36.5625,1,36719,16830748
68,2,-0.682252,-0.0731212,9.78302,0.0469624,-0.606725,0.971188,-0.00682412,-0.000742107,0.0978301,1,5.41229e-05,-8.35429e-06,2.23105e-05,0.0108246,-0.00167086,0.0044621,0,0,0,0,0.0748732,0.520012,-0.971095,36.5625,1,36720,16830848
68,3,-0.682252,-0.0731212,9.78302,0.0469624,-0.606725,0.971188,-0.00682412,-0.000742107,0.0978301,1,5.41229e-05,-8.35429e-06,2.23105e-05,0.0108246,-0.00167086,0.0044621,0,0,0,0,0.0748732,0.520012,-0.971095,36.5625,1,36720,16830848
68,4,-0.680798,-0.0637889,9.79497,0.0476956,-0.600535,0.980595,-0.00681059,-0.000643778,0.0979495,1,2.932e-05,-1.34147e-05,1.063e-05,0.00586399,-0.00268294,0.002126,0,0,0,0,0.076708,0.522471,-0.973069,36.5625,1,36721,16830948
68,5,-0.680798,-0.0637889,9.79497,0.0476956,-0.600535,0.980595,-0.00681059,-0.000643778,0.0979495,1,2.932e-05,-1.34147e-05,1.063e-05,0.00586399,-0.00268294,0.002126,0,0,0,0,0.076708,0.522471,-0.973069,36.5625,1,36721,16830948
68,6,-0.666942,-0.0624472,9.79827,0.0634685,-0.600549,0.980652,-0.0066717,-0.0006363,0.0979825,1,5.87105e-05,-1.18262e-05,2.42275e-05,0.0117421,-0.00236524,0.00484551,0,0,0,0,0.0761078,0.523044,-0.977599,36.5625,1,36722,16831048
69,1,-0.666942,-0.0624472,9.79827,0.0634685,-0.600549,0.980652,-0.0066717,-0.0006363,0.0979825,1,5.87105e-05,-1.18262e-05,2.42275e-05,0.0117421,-0.00236524,0.00484551,0,0,0,0,0.0761078,0.523044,-0.977599,36.5625,1,36722,16831048
69,2,-0.685286,-0.0660172,9.79566,0.0443713,-0.604743,0.978083,-0.00685427,-0.000670369,0.0979564,1,5.11781e-05,-7.29218e-06,1.24982e-05,0.0102356,-0.00145844,0.00249963,0,0,0,0,0.0746512,0.520174,-0.980181,36.5625,1,36723,16831148
69,3,-0.685286,-0.0660172,9.79566,0.0443713,-0.604743,0.978083,-0.00685427,-0.000670369,0.0979564,1,5.11781e-05,-7.29218e-06,1.24982e-05,0.0102356,-0.00145844,0.00249963,0,0,0,0,0.0746512,0.520174,-0.980181,36.5625,1,36723,16831148
69,4,-0.676507,-0.0648721,9.78984,0.051424,-0.603053,0.974721,-0.00676768,-0.00065897,0.0978981,1,5.03975e-05,-1.35153e-05,2.81895e-05,0.0100795,-0.00270307,0.0056379,0,0,0,0,0.0732733,0.519175,-0.978177,36.5625,1,36724,16831248
69,5,-0.676507,-0.0648721,9.78984,0.051424,-0.603053,0.974721,-0.00676768,-0.00065897,0.0978981,1,5.03975e-05,-1.35153e-05,2.81895e-05,0.0100795,-0.00270307,0.0056379,0,0,0,0,0.0732733,0.519175,-0.978177,36.5625,1,36724,16831248
69,6,-0.672676,-0.0601721,9.79325,0.0581795,-0.596005,0.976655,-0.00673014,-0.000610389,0.0979322,1,4.35598e-05,-1.7293e-05,1.01513e-05,0.00871195,-0.00345861,0.00203026,0,0,0,0,0.0728866,0.518628,-0.974652,36.5625,1,36725,16831348
72,1,-0.672676,-0.0601721,9.79325,0.0581795,-0.596005,0.976655,-0.00673014,-0.000610389,0.0979322,1,4.35598e-05,-1.7293e-05,1.01513e-05,0.00871195,-0.00345861,0.00203026,0,0,0,0,0.0728866,0.518628,-0.974652,36.5625,1,36725,16831348
72,2,-0.681638,-0.0639278,9.79293,0.0492303,-0.603542,0.980484,-0.00681775,-0.000650143,0.0979291,1,5.42272e-05,-7.11139e-06,1.78852e-05,0.0108454,-0.00142228,0.00357704,0,0,0,0,0.0734256,0.519545,-0.971603,36.5625,1,36726,16831448
73,1,-0.681638,-0.0639278,9.79293,0.0492303,-0.603542,0.980484,-0.00681775,-0.000650143,0.0979291,1,5.42272e-05,-7.11139e-06,1.78852e-05,0.0108454,-0.00142228,0.00357704,0,0,0,0,0.0734256,0.519545,-0.971603,36.5625,1,36726,16831448
73,2,-0.680981,-0.0533507,9.7937,0.0477478,-0.595199,0.979763,-0.00681194,-0.000543692,0.0979368,1,5.12525e-05,-1.09264e-05,1.07586e-05,0.0102505,-0.00218529,0.00215172,0,0,0,0,0.0748205,0.52246,-0.971545,36.5625,1,36727,16831548
74,1,-0.680981,-0.0533507,9.7937,0.0477478,-0.595199,0.979763,-0.00681194,-0.000543692,0.0979368,1,5.12525e-05,-1.09264e-05,1.07586e-05,0.0102505,-0.00218529,0.00215172,0,0,0,0,0.0748205,0.52246,-0.971545,36.5625,1,36727,16831548
74,2,-0.676938,-0.0521933,9.78792,0.0473152,-0.591946,0.976736,-0.00677142,-0.00053292,0.097879,1,5.59278e-05,-1.04456e-05,2.87582e-06,0.0111856,-0.00208911,0.000575165,0,0,0,0,0.0765974,0.523997,-0.97657,36.5625,1,36728,16831648
75,1,-0.676938,-0.0521933,9.78792,0.0473152,-0.591946,0.976736,-0.00677142,-0.00053292,0.097879,1,5.59278e-05,-1.04456e-05,2.87582e-06,0.0111856,-0.00208911,0.000575165,0,0,0,0,0.0765974,0.523997,-0.97657,36.5625,1,36728,16831648
75,2,-0.674059,-0.0651326,9.78779,0.0523567,-0.610539,0.971952,-0.00674204,-0.00066286,0.0978777,1,5.78632e-05,-7.49523e-06,1.53346e-05,0.0115726,-0.00149905,0.00306692,0,0,0,0,0.0770615,0.522078,-0.978635,36.5625,1,36729,16831748
77,1,-0.674059,-0.0651326,9.78779,0.0523567,-0.610539,0.971952,-0.00674204,-0.00066286,0.0978777,1,5.78632e-05,-7.49523e-06,1.53346e-05,0.0115726,-0.00149905,0.00306692,0,0,0,0,0.0770615,0.522078,-0.978635,36.5625,1,36729,16831748
77,2,-0.67833,-0.0546855,9.79807,0.051643,-0.595835,0.986243,-0.00678484,-0.000557885,0.0979805,1,5.51435e-05,-7.92367e-06,1.64923e-05,0.0110287,-0.00158473,0.00329846,0,0,0,0,0.0746759,0.520156,-0.979172,36.5625,1,36730,16831848
78,1,-0.67833,-0.0546855,9.79807,0.051643,-0.595835,0.986243,-0.00678484,-0.000557885,0.0979805,1,5.51435e-05,-7.92367e-06,1.64923e-05,0.0110287,-0.00158473,0.00329846,0,0,0,0,0.0746759,0.520156,-0.979172,36.5625,1,36730,16831848
78,2,-0.684493,-0.0558331,9.78623,0.0426344,-0.598858,0.970665,-0.00684513,-0.000567241,0.0978623,1,4.46458e-05,-1.08584e-06,1.24815e-05,0.00892916,-0.000217167,0.0024963,0,0,0,0,0.0734209,0.517621,-0.973161,36.5625,1,36731,16831948
78,3,-0.684493,-0.0558331,9.78623,0.0426344,-0.598858,0.970665,-0.00684513,-0.000567241,0.0978623,1,4.46458e-05,-1.08584e-06,1.24815e-05,0.00892916,-0.000217167,0.0024963,0,0,0,0,0.0734209,0.517621,-0.973161,36.5625,1,36731,16831948
78,4,-0.669635,-0.0628714,9.79625,0.0583586,-0.604506,0.977994,-0.00669801,-0.000638759,0.0979624,1,5.05373e-05,-8.58315e-06,1.06894e-05,0.0101075,-0.00171663,0.00213787,0,0,0,0,0.0739641,0.519017,-0.969597,36.5625,1,36732,16832048
78,5,-0.669635,-0.0628714,9.79625,0.0583586,-0.604506,0.977994,-0.00669801,-0.000638759,0.0979624,1,5.05373e-05,-8.58315e-06,1.06894e-05,0.0101075,-0.00171663,0.00213787,0,0,0,0,0.0739641,0.519017,-0.969597,36.5625,1,36732,16832048
78,6,-0.672393,-0.0710786,9.78739,0.0530908,-0.61483,0.970984,-0.00672606,-0.000720165,0.0978736,1,4.7192e-05,-1.09485e-05,1.0524e-05,0.0094384,-0.00218969,0.00210479,0,0,0,0,0.076272,0.52196,-0.971563,36.5625,1,36733,16832148
79,1,-0.672393,-0.0710786,9.78739,0.0530908,-0.61483,0.970984,-0.00672606,-0.000720165,0.0978736,1,4.7192e-05,-1.09485e-05,1.0524e-05,0.0094384,-0.00218969,0.00210479,0,0,0,0,0.076272,0.52196,-0.971563,36.5625,1,36733,16832148
79,2,-0.686449,-0.0585549,9.7825,0.0393175,-0.6039,0.965673,-0.00686607,-0.000594041,0.0978248,1,4.31035e-05,-8.11001e-06,4.3267e-06,0.0086207,-0.001622,0.00086534,0,0,0,0,0.0765889,0.52304,-0.977601,36.5625,1,36734,16832248
80,1,-0.686449,-0.0585549,9.7825,0.0393175,-0.6039,0.965673,-0.00686607,-0.000594041,0.0978248,1,4.31035e-05,-8.11001e-06,4.3267e-06,0.0086207,-0.001622,0.00086534,0,0,0,0,0.0765889,0.52304,-0.977601,36.5625,1,36734,16832248
80,2,-0.682307,-0.0590411,9.78925,0.0452672,-0.604223,0.971753,-0.00682624,-0.000600911,0.0978922,1,5.28636e-05,-1.62482e-05,1.10365e-05,0.0105727,-0.00324964,0.00220729,0,0,0,0,0.0755977,0.522587,-0.979122,36.5625,1,36735,16832348
80,3,-0.682307,-0.0590411,9.78925,0.0452672,-0.604223,0.971753,-0.00682624,-0.000600911,0.0978922,1,5.28636e-05,-1.62482e-05,1.10365e-05,0.0105727,-0.00324964,0.00220729,0,0,0,0,0.0755977,0.522587,-0.979122,36.5625,1,36735,16832348
80,4,-0.673973,-0.0700561,9.79656,0.0502199,-0.62093,0.982478,-0.00674255,-0.00071222,0.0979653,1,5.89156e-05,-1.44315e-05,8.56615e-06,0.0117831,-0.00288631,0.00171323,0,0,0,0,0.0737549,0.520616,-0.977137,36.5625,1,36736,16832448
81,1,-0.673973,-0.0700561,9.79656,0.0502199,-0.62093,0.982478,-0.00674255,-0.00071222,0.0979653,1,5.89156e-05,-1.44315e-05,8.56615e-06,0.0117831,-0.00288631,0.00171323,0,0,0,0,0.0737549,0.520616,-0.977137,36.5625,1,36736,16832448
81,2,-0.679014,-0.0570009,9.78653,0.0490285,-0.609123,0.97135,-0.00679159,-0.000579206,0.0978652,1,4.57111e-05,-7.49887e-06,1.84068e-05,0.00914223,-0.00149977,0.00368136,0,0,0,0,0.0743585,0.517631,-0.974176,36.5625,1,36737,16832548
84,1,-0.679014,-0.0570009,9.78653,0.0490285,-0.609123,0.97135,-0.00679159,-0.000579206,0.0978652,1,4.57111e-05,-7.49887e-06,1.84068e-05,0.00914223,-0.00149977,0.00368136,0,0,0,0,0.0743585,0.517631,-0.974176,36.5625,1,36737,16832548
84,2,-0.677656,-0.0611705,9.77834,0.0452457,-0.608956,0.962708,-0.00678011,-0.000618646,0.0977831,1,3.47439e-05,-1.82463e-05,1.08261e-05,0.00694879,-0.00364926,0.00216522,0,0,0,0,0.0748894,0.519036,-0.971116,36.5625,1,36738,16832648
85,1,-0.677656,-0.0611705,9.77834,0.0452457,-0.608956,0.962708,-0.00678011,-0.000618646,0.0977831,1,3.47439e-05,-1.82463e-05,1.08261e-05,0.00694879,-0.00364926,0.00216522,0,0,0,0,0.0748894,0.519036,-0.971116,36.5625,1,36738,16832648
85,2,-0.678557,-0.0590286,9.7977,0.0472614,-0.609757,0.982859,-0.00678696,-0.000602812,0.0979769,1,6.38664e-05,-7.06302e-06,8.25142e-07,0.0127733,-0.0014126,0.000165028,0,0,0,0,0.0762516,0.522457,-0.972057,36.5625,1,36739,16832748
85,3,-0.678557,-0.0590286,9.7977,0.0472614,-0.609757,0.982859,-0.00678696,-0.000602812,0.0979769,1,6.38664e-05,-7.06302e-06,8.25142e-07,0.0127733,-0.0014126,0.000165028,0,0,0,0,0.0762516,0.522457,-0.972057,36.5625,1,36739,16832748
85,4,-0.678019,-0.0663022,9.78406,0.0480639,-0.616284,0.967881,-0.00677971,-0.000673701,0.0978406,1,5.40819e-05,2.40845e-06,7.07621e-06,0.0108164,0.000481691,0.00141524,0,0,0,0,0.0775715,0.522535,-0.977112,36.5625,1,36740,16832848
86,1,-0.678019,-0.0663022,9.78406,0.0480639,-0.616284,0.967881,-0.00677971,-0.000673701,0.0978406,1,5.40819e-05,2.40845e-06,7.07621e-06,0.0108164,0.000481691,0.00141524,0,0,0,0,0.0775715,0.522535,-0.977112,36.5625,1,36740,16832848
86,2,-0.682124,-0.0662238,9.78988,0.0420614,-0.616343,0.97237,-0.00682519,-0.000673538,0.0978984,1,5.65611e-05,-2.03066e-05,1.65737e-05,0.0113122,-0.00406131,0.00331473,0,0,0,0,0.0746512,0.520174,-0.980181,36.5625,1,36741,16832948
86,3,-0.682124,-0.0662238,9.78988,0.0420614,-0.616343,0.97237,-0.00682519,-0.000673538,0.0978984,1,5.65611e-05,-2.03066e-05,1.65737e-05,0.0113122,-0.00406131,0.00331473,0,0,0,0,0.0746512,0.520174,-0.980181,36.5625,1,36741,16832948
86,4,-0.676866,-0.0571586,9.7916,0.0450244,-0.61006,0.973881,-0.00677166,-0.000579129,0.0979158,1,3.70441e-05,-1.5447e-05,2.13144e-05,0.00740883,-0.0030894,0.00426288,0,0,0,0,0.0717887,0.518735,-0.9802,36.5625,1,36742,16833048
86,5,-0.676866,-0.0571586,9.7916,0.0450244,-0.61006,0.973881,-0.00677166,-0.000579129,0.0979158,1,3.70441e-05,-1.5447e-05,2.13144e-05,0.00740883,-0.0030894,0.00426288,0,0,0,0,0.0717887,0.518735,-0.9802,36.5625,1,36742,16833048
86,6,-0.685415,-0.066436,9.79531,0.0382607,-0.622658,0.98085,-0.00685247,-0.000674386,0.0979531,1,4.88947e-05,8.33694e-06,3.26817e-05,0.00977894,0.00166739,0.00653635,0,0,0,0,0.0728947,0.51814,-0.974663,36.5625,1,36743,16833148
87,1,-0.685415,-0.066436,9.79531,0.0382607,-0.622658,0.98085,-0.00685247,-0.000674386,0.0979531,1,4.88947e-05,8.33694e-06,3.26817e-05,0.00977894,0.00166739,0.00653635,0,0,0,0,0.0728947,0.51814,-0.974663,36.5625,1,36743,16833148
87,2,-0.676664,-0.0621614,9.78782,0.0495668,-0.612328,0.972768,-0.00676832,-0.000631766,0.097878,1,5.12264e-05,-8.64473e-06,9.20762e-06,0.0102453,-0.00172895,0.00184152,0,0,0,0,0.0738906,0.520517,-0.971584,36.5625,1,36744,16833248
87,3,-0.676664,-0.0621614,9.78782,0.0495668,-0.612328,0.972768,-0.00676832,-0.000631766,0.097878,1,5.12264e-05,-8.64473e-06,9.20762e-06,0.0102453,-0.00172895,0.00184152,0,0,0,0,0.0738906,0.520517,-0.971584,36.5625,1,36744,16833248
87,4,-0.675463,-0.0655132,9.80341,0.0502693,-0.618608,0.987414,-0.00676014,-0.000667509,0.0980336,1,6.21585e-05,-2.8202e-05,1.40273e-05,0.0124317,-0.0056404,0.00280546,0,0,0,0,0.0762516,0.522457,-0.972057,36.5625,1,36745,16833348
87,5,-0.675463,-0.0655132,9.80341,0.0502693,-0.618608,0.987414,-0.00676014,-0.000667509,0.0980336,1,6.21585e-05,-2.8202e-05,1.40273e-05,0.0124317,-0.0056404,0.00280546,0,0,0,0,0.0762516,0.522457,-0.972057,36.5625,1,36745,16833348
87,6,-0.678592,-0.0668837,9.78542,0.0473264,-0.615723,0.972176,-0.006787,-0.00068013,0.0978541,1,5.6075e-05,-5.67552e-06,2.34656e-05,0.011215,-0.0011351,0.00469311,0,0,0,0,0.0766136,0.523022,-0.976591,36.5625,1,36746,16833448
88,1,-0.678592,-0.0668837,9.78542,0.0473264,-0.615723,0.972176,-0.006787,-0.00068013,0.0978541,1,5.6075e-05,-5.67552e-06,2.34656e-05,0.011215,-0.0011351,0.00469311,0,0,0,0,0.0766136,0.523022,-0.976591,36.5625,1,36746,16833448
88,2,-0.684646,-0.0654191,9.78413,0.0359697,-0.625298,0.967848,-0.00684913,-0.000661609,0.0978411,1,3.73255e-05,-1.36793e-05,8.33155e-06,0.00746511,-0.00273586,0.00166631,0,0,0,0,0.0746184,0.52068,-0.98118,36.5625,1,36747,16833548
88,3,-0.684646,-0.0654191,9.78413,0.0359697,-0.625298,0.967848,-0.00684913,-0.000661609,0.0978411,1,3.73255e-05,-1.36793e-05,8.33155e-06,0.00746511,-0.00273586,0.00166631,0,0,0,0,0.0746184,0.52068,-0.98118,36.5625,1,36747,16833548
88,4,-0.677921,-0.0573422,9.78889,0.0458713,-0.619224,0.97232,-0.00678146,-0.000583681,0.0978887,1,5.08017e-05,-1.16342e-05,2.30261e-05,0.0101603,-0.00232685,0.00460523,0,0,0,0,0.0718257,0.518708,-0.978685,36.5625,1,36748,16833648
88,5,-0.677921,-0.0573422,9.78889,0.0458713,-0.619224,0.97232,-0.00678146,-0.000583681,0.0978887,1,5.08017e-05,-1.16342e-05,2.30261e-05,0.0101603,-0.00232685,0.00460523,0,0,0,0,0.0718257,0.518708,-0.978685,36.5625,1,36748,16833648
88,6,-0.692723,-0.0603424,9.79406,0.0317576,-0.615732,0.980869,-0.00692899,-0.000613958,0.0979404,1,5.29122e-05,-9.05447e-06,1.22294e-05,0.0105824,-0.00181089,0.00244589,0,0,0,0,0.0724463,0.517638,-0.973661,36.5625,1,36749,16833748
89,1,-0.692723,-0.0603424,9.79406,0.0317576,-0.615732,0.980869,-0.00692899,-0.000613958,0.0979404,1,5.29122e-05,-9.05447e-06,1.22294e-05,0.0105824,-0.00181089,0.00244589,0,0,0,0,0.0724463,0.517638,-0.973661,36.5625,1,36749,16833748
89,2,-0.679221,-0.0651152,9.78714,0.0467274,-0.624353,0.973153,-0.00679476,-0.000663663,0.0978711,1,6.17709e-05,-1.32061e-05,3.09349e-05,0.0123542,-0.00264121,0.00618698,0,0,0,0,0.0734536,0.517115,-0.972163,36.5625,1,36750,16833848
89,3,-0.679221,-0.0651152,9.78714,0.0467274,-0.624353,0.973153,-0.00679476,-0.000663663,0.0978711,1,6.17709e-05,-1.32061e-05,3.09349e-05,0.0123542,-0.00264121,0.00618698,0,0,0,0,0.0734536,0.517115,-0.972163,36.5625,1,36750,16833848
89,4,-0.672441,-0.0640325,9.79286,0.0510774,-0.61929,0.977205,-0.00672686,-0.000648375,0.0979284,1,3.98792e-05,-1.2653e-05,1.78164e-05,0.00797583,-0.00253059,0.00356327,0,0,0,0,0.0757985,0.520031,-0.972614,36.5625,1,36751,16833948
91,1,-0.672441,-0.0640325,9.79286,0.0510774,-0.61929,0.977205,-0.00672686,-0.000648375,0.0979284,1,3.98792e-05,-1.2653e-05,1.78164e-05,0.00797583,-0.00253059,0.00356327,0,0,0,0,0.0757985,0.520031,-0.972614,36.5625,1,36751,16833948
91,2,-0.679068,-0.0698101,9.79152,0.0503433,-0.62761,0.97418,-0.00679416,-0.000706878,0.0979149,1,4.43142e-05,-1.78348e-05,7.2884e-06,0.00886284,-0.00356695,0.00145768,0,0,0,0,0.0756105,0.524023,-0.977575,36.5625,1,36752,16834048
91,3,-0.679068,-0.0698101,9.79152,0.0503433,-0.62761,0.97418,-0.00679416,-0.000706878,0.0979149,1,4.43142e-05,-1.78348e-05,7.2884e-06,0.00886284,-0.00356695,0.00145768,0,0,0,0,0.0756105,0.524023,-0.977575,36.5625,1,36752,16834048
91,4,-0.68317,-0.0636811,9.79736,0.0411702,-0.620851,0.978508,-0.00683462,-0.000647235,0.0979733,1,5.18561e-05,-1.5011e-05,1.92446e-05,0.0103712,-0.00300221,0.00384892,0,0,0,0,0.0745985,0.522622,-0.980631,36.5625,1,36753,16834148
93,1,-0.68317,-0.0636811,9.79736,0.0411702,-0.620851,0.978508,-0.00683462,-0.000647235,0.0979733,1,5.18561e-05,-1.5011e-05,1.92446e-05,0.0103712,-0.00300221,0.00384892,0,0,0,0,0.0745985,0.522622,-0.980631,36.5625,1,36753,16834148
93,2,-0.674462,-0.0613612,9.78375,0.046852,-0.623229,0.969788,-0.00674823,-0.000624207,0.0978372,1,5.26364e-05,-1.85837e-05,2.1903e-05,0.0105273,-0.00371674,0.0043806,0,0,0,0,0.0742356,0.519167,-0.978181,36.5625,1,36754,16834248
94,1,-0.674462,-0.0613612,9.78375,0.046852,-0.623229,0.969788,-0.00674823,-0.000624207,0.0978372,1,5.26364e-05,-1.85837e-05,2.1903e-05,0.0105273,-0.00371674,0.0043806,0,0,0,0,0.0742356,0.519167,-0.978181,36.5625,1,36754,16834248
94,2,-0.674578,-0.073428,9.79485,0.0500888,-0.634101,0.980375,-0.00674966,-0.00074426,0.0979481,1,4.97663e-05,-1.99524e-05,1.71661e-05,0.00995326,-0.00399047,0.00343323,0,0,0,0,0.0724217,0.517656,-0.974671,36.5625,1,36755,16834348
94,3,-0.674578,-0.073428,9.79485,0.0500888,-0.634101,0.980375,-0.00674966,-0.00074426,0.0979481,1,4.97663e-05,-1.99524e-05,1.71661e-05,0.00995326,-0.00399047,0.00343323,0,0,0,0,0.0724217,0.517656,-0.974671,36.5625,1,36755,16834348
94,4,-0.682088,-0.0662464,9.7936,0.0449134,-0.624525,0.978146,-0.00682487,-0.000674066,0.0979357,1,5.84594e-05,-2.04308e-05,1.1064e-05,0.0116919,-0.00408615,0.00221279,0,0,0,0,0.0733929,0.520051,-0.972602,36.5625,1,36756,16834448
99,1,-0.682088,-0.0662464,9.7936,0.0449134,-0.624525,0.978146,-0.00682487,-0.000674066,0.0979357,1,5.84594e-05,-2.04308e-05,1.1064e-05,0.0116919,-0.00408615,0.00221279,0,0,0,0,0.0733929,0.520051,-0.972602,36.5625,1,36756,16834448
99,2,-0.672783,-0.0579332,9.78648,0.0531597,-0.620496,0.968171,-0.00673094,-0.000590026,0.0978646,1,5.30293e-05,-1.59931e-05,2.33912e-05,0.0106059,-0.00319861,0.00467825,0,0,0,0,0.0772057,0.522937,-0.972051,36.5625,1,36757,16834548
99,3,-0.672783,-0.0579332,9.78648,0.0531597,-0.620496,0.968171,-0.00673094,-0.000590026,0.0978646,1,5.30293e-05,-1.59931e-05,2.33912e-05,0.0106059,-0.00319861,0.00467825,0,0,0,0,0.0772057,0.522937,-0.972051,36.5625,1,36757,16834548
99,4,-0.674072,-0.0513104,9.7767,0.0488173,-0.611888,0.956594,-0.00674051,-0.00052431,0.097767,1,5.644e-05,1.01944e-06,1.26044e-05,0.011288,0.000203889,0.00252089,0,0,0,0,0.076577,0.524494,-0.977064,36.5625,1,36758,16834648
99,5,-0.674072,-0.0513104,9.7767,0.0488173,-0.611888,0.956594,-0.00674051,-0.00052431,0.097767,1,5.644e-05,1.01944e-06,1.26044e-05,0.011288,0.000203889,0.00252089,0,0,0,0,0.076577,0.524494,-0.977064,36.5625,1,36758,16834648
99,6,-0.67473,-0.0672998,9.79591,0.0455748,-0.629897,0.981886,-0.0067506,-0.000683417,0.0979588,1,5.18074e-05,-1.69541e-05,1.99623e-05,0.0103615,-0.00339081,0.00399247,0,0,0,0,0.0751043,0.5226,-0.979624,36.5625,1,36759,16834748
101,1,-0.67473,-0.0672998,9.79591,0.0455748,-0.629897,0.981886,-0.0067506,-0.000683417,0.0979588,1,5.18074e-05,-1.69541e-05,1.99623e-05,0.0103615,-0.00339081,0.00399247,0,0,0,0,0.0751043,0.5226,-0.979624,36.5625,1,36759,16834748
101,2,-0.679264,-0.0560886,9.78552,0.0397437,-0.622341,0.970277,-0.00679553,-0.000570287,0.097855,1,4.75665e-05,-1.48245e-05,6.71473e-06,0.00951329,-0.00296491,0.00134295,0,0,0,0,0.0737668,0.519162,-0.977674,36.5625,1,36760,16834848
102,1,-0.679264,-0.0560886,9.78552,0.0397437,-0.622341,0.970277,-0.00679553,-0.000570287,0.097855,1,4.75665e-05,-1.48245e-05,6.71473e-06,0.00951329,-0.00296491,0.00134295,0,0,0,0,0.0737668,0.519162,-0.977674,36.5625,1,36760,16834848
102,2,-0.687046,-0.0649528,9.79025,0.0347213,-0.634145,0.975632,-0.00687267,-0.000660473,0.0979023,1,5.51752e-05,-1.13793e-05,1.02465e-05,0.011035,-0.00227586,0.00204929,0,0,0,0,0.0734166,0.517143,-0.973677,36.5625,1,36761,16834948
103,1,-0.687046,-0.0649528,9.79025,0.0347213,-0.634145,0.975632,-0.00687267,-0.000660473,0.0979023,1,5.51752e-05,-1.13793e-05,1.02465e-05,0.011035,-0.00227586,0.00204929,0,0,0,0,0.0734166,0.517143,-0.973677,36.5625,1,36761,16834948
103,2,-0.679432,-0.0694367,9.78847,0.0460664,-0.632363,0.973068,-0.00679829,-0.000704293,0.0978844,1,4.96042e-05,-2.03528e-05,1.58436e-05,0.00992085,-0.00407057,0.00316871,0,0,0,0,0.0748443,0.519551,-0.97262,36.5625,1,36762,16835048
105,1,-0.679432,-0.0694367,9.78847,0.0460664,-0.632363,0.973068,-0.00679829,-0.000704293,0.0978844,1,4.96042e-05,-2.03528e-05,1.58436e-05,0.00992085,-0.00407057,0.00316871,0,0,0,0,0.0748443,0.519551,-0.97262,36.5625,1,36762,16835048
105,2,-0.678894,-0.0608244,9.78616,0.0431992,-0.62399,0.970593,-0.00678978,-0.00061777,0.0978615,1,4.70748e-05,-4.43852e-06,2.3007e-05,0.00941497,-0.000887703,0.00460139,0,0,0,0,0.0776783,0.521975,-0.973084,36.5625,1,36763,16835148
106,1,-0.678894,-0.0608244,9.78616,0.0431992,-0.62399,0.970593,-0.00678978,-0.00061777,0.0978615,1,4.70748e-05,-4.43852e-06,2.3007e-05,0.00941497,-0.000887703,0.00460139,0,0,0,0,0.0776783,0.521975,-0.973084,36.5625,1,36763,16835148
106,2,-0.680184,-0.0578224,9.79298,0.0427094,-0.62274,0.971315,-0.00680537,-0.000586865,0.0979295,1,4.30271e-05,-1.81292e-05,1.57077e-05,0.00860541,-0.00362584,0.00314155,0,0,0,0,0.0780242,0.523516,-0.977597,36.5625,1,36764,16835248
107,1,-0.680184,-0.0578224,9.79298,0.0427094,-0.62274,0.971315,-0.00680537,-0.000586865,0.0979295,1,4.30271e-05,-1.81292e-05,1.57077e-05,0.00860541,-0.00362584,0.00314155,0,0,0,0,0.0780242,0.523516,-0.977597,36.5625,1,36764,16835248
107,2,-0.657976,-0.0447827,9.77259,0.054198,-0.616146,0.954969,-0.00658426,-0.000457727,0.0977255,1,5.04666e-05,-2.30556e-05,2.71212e-06,0.0100933,-0.00461112,0.000542423,0,0,0,0,0.0765595,0.521134,-0.980169,36.5625,1,36765,16835348
108,1,-0.657976,-0.0447827,9.77259,0.054198,-0.616146,0.954969,-0.00658426,-0.000457727,0.0977255,1,5.04666e-05,-2.30556e-05,2.71212e-06,0.0100933,-0.00461112,0.000542423,0,0,0,0,0.0765595,0.521134,-0.980169,36.5625,1,36765,16835348
108,2,-0.690817,-0.0631299,9.80045,0.0248106,-0.634683,0.986538,-0.00690999,-0.000640318,0.0980043,1,4.47722e-05,-9.37292e-06,1.75837e-05,0.00895445,-0.00187459,0.00351675,0,0,0,0,0.0732771,0.518208,-0.978703,36.5625,1,36766,16835448
109,1,-0.690817,-0.0631299,9.80045,0.0248106,-0.634683,0.986538,-0.00690999,-0.000640318,0.0980043,1,4.47722e-05,-9.37292e-06,1.75837e-05,0.00895445,-0.00187459,0.00351675,0,0,0,0,0.0732771,0.518208,-0.978703,36.5625,1,36766,16835448
109,2,-0.675448,-0.0712586,9.79351,0.0452712,-0.640563,0.978107,-0.00675561,-0.000719267,0.0979349,1,3.41963e-05,-5.78712e-06,-1.28711e-06,0.00683926,-0.00115742,-0.000257421,0,0,0,0,0.0734209,0.517621,-0.973161,36.5625,1,36767,16835548
109,3,-0.675448,-0.0712586,9.79351,0.0452712,-0.640563,0.978107,-0.00675561,-0.000719267,0.0979349,1,3.41963e-05,-5.78712e-06,-1.28711e-06,0.00683926,-0.00115742,-0.000257421,0,0,0,0,0.0734209,0.517621,-0.973161,36.5625,1,36767,16835548
109,4,-0.680751,-0.0569383,9.79671,0.0384808,-0.625464,0.981812,-0.00680648,-0.00057721,0.0979671,1,3.83221e-05,5.14652e-06,2.33501e-05,0.00766441,0.0010293,0.00467003,0,0,0,0,0.0734218,0.520512,-0.971077,36.5625,1,36768,16835648
110,1,-0.680751,-0.0569383,9.79671,0.0384808,-0.625464,0.981812,-0.00680648,-0.00057721,0.0979671,1,3.83221e-05,5.14652e-06,2.33501e-05,0.00766441,0.0010293,0.00467003,0,0,0,0,0.0734218,0.520512,-0.971077,36.5625,1,36768,16835648
110,2,-0.670407,-0.059359,9.79731,0.0527167,-0.623258,0.977854,-0.00670623,-0.000603042,0.0979728,1,4.67895e-05,-1.11629e-05,2.11563e-05,0.00935789,-0.00223257,0.00423126,0,0,0,0,0.0752685,0.521516,-0.973588,36.5625,1,36769,16835748
113,1,-0.670407,-0.059359,9.79731,0.0527167,-0.623258,0.977854,-0.00670623,-0.000603042,0.0979728,1,4.67895e-05,-1.11629e-05,2.11563e-05,0.00935789,-0.00223257,0.00423126,0,0,0,0,0.0752685,0.521516,-0.973588,36.5625,1,36769,16835748
113,2,-0.689858,-0.0664649,9.79126,0.0287206,-0.635238,0.973261,-0.00689689,-0.000673871,0.0979127,1,4.58137e-05,8.46938e-06,1.81922e-05,0.00916275,0.00169388,0.00363844,0,0,0,0,0.077563,0.521578,-0.978143,36.5625,1,36770,16835848
114,1,-0.689858,-0.0664649,9.79126,0.0287206,-0.635238,0.973261,-0.00689689,-0.000673871,0.0979127,1,4.58137e-05,8.46938e-06,1.81922e-05,0.00916275,0.00169388,0.00363844,0,0,0,0,0.077563,0.521578,-0.978143,36.5625,1,36770,16835848
114,2,-0.68697,-0.0634009,9.79501,0.0356436,-0.632941,0.977387,-0.00687285,-0.000642904,0.0979498,1,4.41912e-05,-1.6181e-05,1.72835e-05,0.00883824,-0.00323619,0.00345671,0,0,0,0,0.0760537,0.521156,-0.981176,36.5625,1,36771,16835948
114,3,-0.68697,-0.0634009,9.79501,0.0356436,-0.632941,0.977387,-0.00687285,-0.000642904,0.0979498,1,4.41912e-05,-1.6181e-05,1.72835e-05,0.00883824,-0.00323619,0.00345671,0,0,0,0,0.0760537,0.521156,-0.981176,36.5625,1,36771,16835948
114,4,-0.683893,-0.0580719,9.79572,0.0326086,-0.623664,0.98037,-0.00684248,-0.000587659,0.0979569,1,3.33433e-05,-1.82652e-05,2.97444e-05,0.00666867,-0.00365304,0.00594887,0,0,0,0,0.0737378,0.518701,-0.9792,36.5625,1,36772,16836048
115,1,-0.683893,-0.0580719,9.79572,0.0326086,-0.623664,0.98037,-0.00684248,-0.000587659,0.0979569,1,3.33433e-05,-1.82652e-05,2.97444e-05,0.00666867,-0.00365304,0.00594887,0,0,0,0,0.0737378,0.518701,-0.9792,36.5625,1,36772,16836048
115,2,-0.682599,-0.0581409,9.79164,0.0376483,-0.626676,0.97503,-0.00682822,-0.00059083,0.0979162,1,4.76354e-05,-1.14084e-05,6.74065e-06,0.00952708,-0.00228168,0.00134813,0,0,0,0,0.073392,0.517161,-0.974687,36.5625,1,36773,16836148
115,3,-0.682599,-0.0581409,9.79164,0.0376483,-0.626676,0.97503,-0.00682822,-0.00059083,0.0979162,1,4.76354e-05,-1.14084e-05,6.74065e-06,0.00952708,-0.00228168,0.00134813,0,0,0,0,0.073392,0.517161,-0.974687,36.5625,1,36773,16836148
115,4,-0.676237,-0.0518861,9.78521,0.0419227,-0.620893,0.971544,-0.00676539,-0.00052892,0.0978518,1,5.04069e-05,-1.54823e-05,1.44038e-05,0.0100814,-0.00309646,0.00288075,0,0,0,0,0.0733967,0.519085,-0.973129,36.5625,1,36774,16836248
116,1,-0.676237,-0.0518861,9.78521,0.0419227,-0.620893,0.971544,-0.00676539,-0.00052892,0.0978518,1,5.04069e-05,-1.54823e-05,1.44038e-05,0.0100814,-0.00309646,0.00288075,0,0,0,0,0.0733967,0.519085,-0.973129,36.5625,1,36774,16836248
116,2,-0.674867,-0.0533974,9.78687,0.0451787,-0.623823,0.970743,-0.00675174,-0.000543136,0.0978685,1,4.60614e-05,-1.57336e-05,1.08088e-05,0.00921229,-0.00314672,0.00216175,0,0,0,0,0.076235,0.521987,-0.973077,36.5625,1,36775,16836348
116,3,-0.674867,-0.0533974,9.78687,0.0451787,-0.623823,0.970743,-0.00675174,-0.000543136,0.0978685,1,4.60614e-05,-1.57336e-05,1.08088e-05,0.00921229,-0.00314672,0.00216175,0,0,0,0,0.076235,0.521987,-0.973077,36.5625,1,36775,16836348
116,4,-0.686212,-0.0535732,9.77982,0.0308044,-0.622401,0.96137,-0.00686446,-0.000546777,0.097798,1,5.51286e-05,-1.20756e-05,1.90868e-05,0.0110257,-0.00241511,0.00381736,0,0,0,0,0.0756594,0.522542,-0.976598,36.5625,1,36776,16836448
116,5,-0.686212,-0.0535732,9.77982,0.0308044,-0.622401,0.96137,-0.00686446,-0.000546777,0.097798,1,5.51286e-05,-1.20756e-05,1.90868e-05,0.0110257,-0.00241511,0.00381736,0,0,0,0,0.0756594,0.522542,-0.976598,36.5625,1,36776,16836448
116,6,-0.675431,-0.0568116,9.79024,0.0438459,-0.627492,0.968792,-0.00675856,-0.000576218,0.0979021,1,3.98439e-05,-2.18245e-05,2.22456e-05,0.00796877,-0.0043649,0.00444912,0,0,0,0,0.0755935,0.522108,-0.979637,36.5625,1,36777,16836548
117,1,-0.675431,-0.0568116,9.79024,0.0438459,-0.627492,0.968792,-0.00675856,-0.000576218,0.0979021,1,3.98439e-05,-2.18245e-05,2.22456e-05,0.00796877,-0.0043649,0.00444912,0,0,0,0,0.0755935,0.522108,-0.979637,36.5625,1,36777,16836548
117,2,-0.673966,-0.0562901,9.7909,0.0458715,-0.630633,0.972664,-0.00673908,-0.000574595,0.097909,1,5.89807e-05,2.91511e-06,1.07418e-05,0.0117961,0.000583023,0.00214836,0,0,0,0,0.0736937,0.522106,-0.978619,36.5625,1,36778,16836648
117,3,-0.673966,-0.0562901,9.7909,0.0458715,-0.630633,0.972664,-0.00673908,-0.000574595,0.097909,1,5.89807e-05,2.91511e-06,1.07418e-05,0.0117961,0.000583023,0.00214836,0,0,0,0,0.0736937,0.522106,-0.978619,36.5625,1,36778,16836648
117,4,-0.683356,-0.0558202,9.78725,0.0304422,-0.633,0.971937,-0.00683664,-0.000566772,0.0978722,1,4.33438e-05,-1.58175e-05,6.23432e-06,0.00866875,-0.0031635,0.00124686,0,0,0,0,0.0729113,0.51861,-0.973642,36.5625,1,36779,16836748
119,1,-0.683356,-0.0558202,9.78725,0.0304422,-0.633,0.971937,-0.00683664,-0.000566772,0.0978722,1,4.33438e-05,-1.58175e-05,6.23432e-06,0.00866875,-0.0031635,0.00124686,0,0,0,0,0.0729113,0.51861,-0.973642,36.5625,1,36779,16836748
119,2,-0.68231,-0.0534064,9.79574,0.0333544,-0.626212,0.978535,-0.00682583,-0.00054391,0.0979572,1,4.94923e-05,-1.40072e-05,1.09803e-05,0.00989846,-0.00280144,0.00219606,0,0,0,0,0.0729526,0.519062,-0.971612,36.5625,1,36780,16836848
120,1,-0.68231,-0.0534064,9.79574,0.0333544,-0.626212,0.978535,-0.00682583,-0.00054391,0.0979572,1,4.94923e-05,-1.40072e-05,1.09803e-05,0.00989846,-0.00280144,0.00219606,0,0,0,0,0.0729526,0.519062,-0.971612,36.5625,1,36780,16836848
120,2,-0.668956,-0.0541306,9.7797,0.0521648,-0.627094,0.960247,-0.00668893,-0.000551244,0.097797,1,4.9932e-05,3.15298e-06,1.28038e-05,0.0099864,0.000630596,0.00256075,0,0,0,0,0.0772133,0.521004,-0.973104,36.5625,1,36781,16836948
120,3,-0.668956,-0.0541306,9.7797,0.0521648,-0.627094,0.960247,-0.00668893,-0.000551244,0.097797,1,4.9932e-05,3.15298e-06,1.28038e-05,0.0099864,0.000630596,0.00256075,0,0,0,0,0.0772133,0.521004,-0.973104,36.5625,1,36781,16836948
120,4,-0.665924,-0.0662896,9.7962,0.0529077,-0.635901,0.976408,-0.00666019,-0.000671304,0.0979619,1,4.17605e-05,-4.9416e-06,1.69518e-05,0.00835211,-0.00098832,0.00339036,0,0,0,0,0.0790272,0.522514,-0.976614,36.5625,1,36782,16837048
121,1,-0.665924,-0.0662896,9.7962,0.0529077,-0.635901,0.976408,-0.00666019,-0.000671304,0.0979619,1,4.17605e-05,-4.9416e-06,1.69518e-05,0.00835211,-0.00098832,0.00339036,0,0,0,0,0.0790272,0.522514,-0.976614,36.5625,1,36782,16837048
121,2,-0.683496,-0.0674842,9.79597,0.0366878,-0.642462,0.977971,-0.0068371,-0.000684168,0.0979595,1,4.55586e-05,-1.11222e-05,2.92748e-05,0.00911172,-0.00222444,0.00585496,0,0,0,0,0.0756381,0.520148,-0.979176,36.5625,1,36783,16837148
121,3,-0.683496,-0.0674842,9.79597,0.0366878,-0.642462,0.977971,-0.0068371,-0.000684168,0.0979595,1,4.55586e-05,-1.11222e-05,2.92748e-05,0.00911172,-0.00222444,0.00585496,0,0,0,0,0.0756381,0.520148,-0.979176,36.5625,1,36783,16837148
121,4,-0.68153,-0.0714991,9.79253,0.0347291,-0.649608,0.974973,-0.0068167,-0.000724234,0.0979251,1,4.65214e-05,-7.21786e-06,9.64656e-06,0.00930428,-0.00144357,0.00192931,0,0,0,0,0.0728207,0.518194,-0.977691,36.5625,1,36784,16837248
122,1,-0.68153,-0.0714991,9.79253,0.0347291,-0.649608,0.974973,-0.0068167,-0.000724234,0.0979251,1,4.65214e-05,-7.21786e-06,9.64656e-06,0.00930428,-0.00144357,0.00192931,0,0,0,0,0.0728207,0.518194,-0.977691,36.5625,1,36784,16837248
122,2,-0.677585,-0.0549569,9.78789,0.0359527,-0.635479,0.976977,-0.00677922,-0.000561006,0.0978786,1,5.79765e-05,-1.7258e-05,6.43744e-06,0.0115953,-0.00345159,0.00128749,0,0,0,0,0.072434,0.517647,-0.974166,36.5625,1,36785,16837348
123,1,-0.677585,-0.0549569,9.78789,0.0359527,-0.635479,0.976977,-0.00677922,-0.000561006,0.0978786,1,5.79765e-05,-1.7258e-05,6.43744e-06,0.0115953,-0.00345159,0.00128749,0,0,0,0,0.072434,0.517647,-0.974166,36.5625,1,36785,16837348
123,2,-0.679988,-0.0669936,9.79017,0.0370304,-0.644698,0.975021,-0.00679906,-0.000679868,0.0979017,1,4.95092e-05,4.03415e-06,1.74956e-05,0.00990184,0.000806829,0.00349912,0,0,0,0,0.0738901,0.519072,-0.972626,36.5625,1,36786,16837448
124,1,-0.679988,-0.0669936,9.79017,0.0370304,-0.644698,0.975021,-0.00679906,-0.000679868,0.0979017,1,4.95092e-05,4.03415e-06,1.74956e-05,0.00990184,0.000806829,0.00349912,0,0,0,0,0.0738901,0.519072,-0.972626,36.5625,1,36786,16837448
124,2,-0.661653,-0.0534612,9.79153,0.0591663,-0.629027,0.971737,-0.00661825,-0.000546739,0.0979151,1,6.01243e-05,-8.90887e-06,2.66265e-05,0.0120249,-0.00178177,0.00532531,0,0,0,0,0.0757866,0.521485,-0.972076,36.5625,1,36787,16837548
124,3,-0.661653,-0.0534612,9.79153,0.0591663,-0.629027,0.971737,-0.00661825,-0.000546739,0.0979151,1,6.01243e-05,-8.90887e-06,2.66265e-05,0.0120249,-0.00178177,0.00532531,0,0,0,0,0.0757866,0.521485,-0.972076,36.5625,1,36787,16837548
124,4,-0.679623,-0.0536126,9.78656,0.0421145,-0.629264,0.967137,-0.00679964,-0.000547442,0.0978653,1,5.66299e-05,-1.75576e-05,1.70712e-05,0.011326,-0.00351153,0.00341423,0,0,0,0,0.0771028,0.52253,-0.976605,36.5625,1,36788,16837648
125,1,-0.679623,-0.0536126,9.78656,0.0421145,-0.629264,0.967137,-0.00679964,-0.000547442,0.0978653,1,5.66299e-05,-1.75576e-05,1.70712e-05,0.011326,-0.00351153,0.00341423,0,0,0,0,0.0771028,0.52253,-0.976605,36.5625,1,36788,16837648
125,2,-0.679253,-0.0637455,9.7919,0.0391308,-0.637952,0.971838,-0.00679393,-0.000645419,0.0979188,1,3.9639e-05,-7.21016e-06,1.48229e-05,0.0079278,-0.00144203,0.00296458,0,0,0,0,0.077489,0.521632,-0.981172,36.5625,1,36789,16837748
126,1,-0.679253,-0.0637455,9.7919,0.0391308,-0.637952,0.971838,-0.00679393,-0.000645419,0.0979188,1,3.9639e-05,-7.21016e-06,1.48229e-05,0.0079278,-0.00144203,0.00296458,0,0,0,0,0.077489,0.521632,-0.981172,36.5625,1,36789,16837748
126,2,-0.676243,-0.0668669,9.781,0.0405288,-0.646352,0.96458,-0.00676343,-0.000680148,0.0978098,1,5.76135e-05,-5.23221e-06,1.54357e-05,0.0115227,-0.00104644,0.00308714,0,0,0,0,0.0737051,0.519207,-0.980198,36.5625,1,36790,16837848
127,1,-0.676243,-0.0668669,9.781,0.0405288,-0.646352,0.96458,-0.00676343,-0.000680148,0.0978098,1,5.76135e-05,-5.23221e-06,1.54357e-05,0.0115227,-0.00104644,0.00308714,0,0,0,0,0.0737051,0.519207,-0.980198,36.5625,1,36790,16837848
127,2,-0.672082,-0.0600317,9.78747,0.045855,-0.635378,0.974259,-0.00672257,-0.000610856,0.0978746,1,5.29365e-05,-9.05047e-06,1.31276e-05,0.0105873,-0.00181009,0.00262551,0,0,0,0,0.0738195,0.516714,-0.977224,36.5625,1,36791,16837948
129,1,-0.672082,-0.0600317,9.78747,0.045855,-0.635378,0.974259,-0.00672257,-0.000610856,0.0978746,1,5.29365e-05,-9.05047e-06,1.31276e-05,0.0105873,-0.00181009,0.00262551,0,0,0,0,0.0738195,0.516714,-0.977224,36.5625,1,36791,16837948
129,2,-0.679439,-0.0643518,9.79496,0.0388227,-0.646274,0.980589,-0.00679878,-0.000653015,0.0979492,1,4.86077e-05,-2.23963e-05,-1.85139e-06,0.00972153,-0.00447926,-0.000370278,0,0,0,0,0.0762464,0.519088,-0.974657,36.5625,1,36792,16838048
129,3,-0.679439,-0.0643518,9.79496,0.0388227,-0.646274,0.980589,-0.00679878,-0.000653015,0.0979492,1,4.86077e-05,-2.23963e-05,-1.85139e-06,0.00972153,-0.00447926,-0.000370278,0,0,0,0,0.0762464,0.519088,-0.974657,36.5625,1,36792,16838048
129,4,-0.672559,-0.04808,9.78385,0.0432474,-0.630641,0.962805,-0.00672858,-0.000489827,0.0978383,1,4.46289e-05,-1.54004e-05,2.18751e-05,0.00892578,-0.00308008,0.00437501,0,0,0,0,0.0772133,0.521004,-0.973104,36.5625,1,36793,16838148
129,5,-0.672559,-0.04808,9.78385,0.0432474,-0.630641,0.962805,-0.00672858,-0.000489827,0.0978383,1,4.46289e-05,-1.54004e-05,2.18751e-05,0.00892578,-0.00308008,0.00437501,0,0,0,0,0.0772133,0.521004,-0.973104,36.5625,1,36793,16838148
129,6,-0.682898,-0.0649875,9.78141,0.0342771,-0.642877,0.966743,-0.00683307,-0.000658646,0.0978138,1,4.39435e-05,-2.10143e-05,1.27442e-05,0.00878871,-0.00420287,0.00254883,0,0,0,0,0.0747014,0.523029,-0.976077,36.5625,1,36794,16838248
130,1,-0.682898,-0.0649875,9.78141,0.0342771,-0.642877,0.966743,-0.00683307,-0.000658646,0.0978138,1,4.39435e-05,-2.10143e-05,1.27442e-05,0.00878871,-0.00420287,0.00254883,0,0,0,0,0.0747014,0.523029,-0.976077,36.5625,1,36794,16838248
130,2,-0.692806,-0.0636175,9.79437,0.0244017,-0.649366,0.978295,-0.00693082,-0.000647185,0.0979434,1,5.51752e-05,-1.42266e-05,1.45607e-05,0.011035,-0.00284533,0.00291214,0,0,0,0,0.0736363,0.52263,-0.980627,36.5625,1,36795,16838348
132,1,-0.692806,-0.0636175,9.79437,0.0244017,-0.649366,0.978295,-0.00693082,-0.000647185,0.0979434,1,5.51752e-05,-1.42266e-05,1.45607e-05,0.011035,-0.00284533,0.00291214,0,0,0,0,0.0736363,0.52263,-0.980627,36.5625,1,36795,16838348
132,2,-0.676658,-0.0580768,9.7865,0.037496,-0.639074,0.970729,-0.00676864,-0.000589295,0.0978648,1,4.31463e-05,-1.05517e-05,6.02234e-06,0.00862927,-0.00211035,0.00120447,0,0,0,0,0.0732282,0.51969,-0.97968,36.5625,1,36796,16838448
134,1,-0.676658,-0.0580768,9.7865,0.037496,-0.639074,0.970729,-0.00676864,-0.000589295,0.0978648,1,4.31463e-05,-1.05517e-05,6.02234e-06,0.00862927,-0.00211035,0.00120447,0,0,0,0,0.0732282,0.51969,-0.97968,36.5625,1,36796,16838448
134,2,-0.677424,-0.0619202,9.79496,0.0389644,-0.646596,0.977059,-0.00677916,-0.000628709,0.0979492,1,4.73164e-05,-2.5241e-05,1.75315e-05,0.00946329,-0.0050482,0.0035063,0,0,0,0,0.0729317,0.518113,-0.973148,36.5625,1,36797,16838548
137,1,-0.677424,-0.0619202,9.79496,0.0389644,-0.646596,0.977059,-0.00677916,-0.000628709,0.0979492,1,4.73164e-05,-2.5241e-05,1.75315e-05,0.00946329,-0.0050482,0.0035063,0,0,0,0,0.0729317,0.518113,-0.973148,36.5625,1,36797,16838548
137,2,-0.664553,-0.0652026,9.79552,0.0542591,-0.648709,0.979703,-0.00664706,-0.00066263,0.097955,1,5.27632e-05,-7.95518e-06,2.00996e-05,0.0105526,-0.00159104,0.00401992,0,0,0,0,0.075379,0.51999,-0.970087,36.5625,1,36798,16838648
137,3,-0.664553,-0.0652026,9.79552,0.0542591,-0.648709,0.979703,-0.00664706,-0.00066263,0.097955,1,5.27632e-05,-7.95518e-06,2.00996e-05,0.0105526,-0.00159104,0.00401992,0,0,0,0,0.075379,0.51999,-0.970087,36.5625,1,36798,16838648
137,4,-0.673823,-0.0559125,9.78888,0.0443951,-0.639454,0.970184,-0.00674092,-0.000568847,0.0978886,1,4.75477e-05,-1.39529e-05,3.06406e-05,0.00950954,-0.00279058,0.00612813,0,0,0,0,0.0776949,0.522445,-0.972064,36.5625,1,36799,16838748
137,5,-0.673823,-0.0559125,9.78888,0.0443951,-0.639454,0.970184,-0.00674092,-0.000568847,0.0978886,1,4.75477e-05,-1.39529e-05,3.06406e-05,0.00950954,-0.00279058,0.00612813,0,0,0,0,0.0776949,0.522445,-0.972064,36.5625,1,36799,16838748
137,6,-0.682568,-0.0636252,9.79532,0.0354401,-0.647694,0.972407,-0.00682808,-0.000647915,0.0979529,1,5.81238e-05,-1.23758e-05,2.02153e-05,0.0116248,-0.00247517,0.00404305,0,0,0,0,0.077062,0.523524,-0.977592,36.5625,1,36800,16838848
137,7,-0.682568,-0.0636252,9.79532,0.0354401,-0.647694,0.972407,-0.00682808,-0.000647915,0.0979529,1,5.81238e-05,-1.23758e-05,2.02153e-05,0.0116248,-0.00247517,0.00404305,0,0,0,0,0.077062,0.523524,-0.977592,36.5625,1,36800,16838848
137,8,-0.684078,-0.0557567,9.79403,0.0286328,-0.644833,0.977399,-0.00684213,-0.000568028,0.0979402,1,5.1774e-05,-6.99814e-06,2.33931e-05,0.0103548,-0.00139963,0.00467861,0,0,0,0,0.0751081,0.521634,-0.980151,36.5625,1,36801,16838948
139,1,-0.684078,-0.0557567,9.79403,0.0286328,-0.644833,0.977399,-0.00684213,-0.000568028,0.0979402,1,5.1774e-05,-6.99814e-06,2.33931e-05,0.0103548,-0.00139963,0.00467861,0,0,0,0,0.0751081,0.521634,-0.980151,36.5625,1,36801,16838948
139,2,-0.66871,-0.061802,9.78879,0.0465243,-0.648187,0.970059,-0.00668849,-0.000628511,0.0978878,1,5.23478e-05,-7.22535e-06,1.81345e-05,0.0104696,-0.00144507,0.00362691,0,0,0,0,0.0722783,0.519689,-0.979171,36.5625,1,36802,16839048
139,3,-0.66871,-0.061802,9.78879,0.0465243,-0.648187,0.970059,-0.00668849,-0.000628511,0.0978878,1,5.23478e-05,-7.22535e-06,1.81345e-05,0.0104696,-0.00144507,0.00362691,0,0,0,0,0.0722783,0.519689,-0.979171,36.5625,1,36802,16839048
139,4,-0.681183,-0.0674572,9.78205,0.0306085,-0.655233,0.966238,-0.00681589,-0.000686706,0.0978202,1,6.07352e-05,-2.0858e-05,1.85148e-05,0.012147,-0.0041716,0.00370297,0,0,0,0,0.0714186,0.518658,-0.975654,36.5625,1,36803,16839148
140,1,-0.681183,-0.0674572,9.78205,0.0306085,-0.655233,0.966238,-0.00681589,-0.000686706,0.0978202,1,6.07352e-05,-2.0858e-05,1.85148e-05,0.012147,-0.0041716,0.00370297,0,0,0,0,0.0714186,0.518658,-0.975654,36.5625,1,36803,16839148
140,2,-0.678574,-0.060529,9.79125,0.0384549,-0.651777,0.977945,-0.0067877,-0.000616214,0.0979123,1,5.47506e-05,-1.01032e-05,1.4916e-05,0.0109501,-0.00202064,0.00298321,0,0,0,0,0.0724022,0.521044,-0.973081,36.5625,1,36804,16839248
140,3,-0.678574,-0.060529,9.79125,0.0384549,-0.651777,0.977945,-0.0067877,-0.000616214,0.0979123,1,5.47506e-05,-1.01032e-05,1.4916e-05,0.0109501,-0.00202064,0.00298321,0,0,0,0,0.0724022,0.521044,-0.973081,36.5625,1,36804,16839248
140,4,-0.677631,-0.0599787,9.78853,0.0406973,-0.643503,0.966541,-0.00677706,-0.000611402,0.0978851,1,5.83026e-05,-3.92813e-06,1.48714e-05,0.0116605,-0.000785626,0.00297428,0,0,0,0,0.0747427,0.523481,-0.974047,36.5625,1,36805,16839348
140,5,-0.677631,-0.0599787,9.78853,0.0406973,-0.643503,0.966541,-0.00677706,-0.000611402,0.0978851,1,5.83026e-05,-3.92813e-06,1.48714e-05,0.0116605,-0.000785626,0.00297428,0,0,0,0,0.0747427,0.523481,-0.974047,36.5625,1,36805,16839348
140,6,-0.681137,-0.0681101,9.79358,0.0375467,-0.657838,0.972777,-0.00681408,-0.000690591,0.0979355,1,4.72925e-05,-1.39777e-05,1.66388e-05,0.0094585,-0.00279553,0.00332777,0,0,0,0,0.074171,0.523069,-0.978094,36.5625,1,36806,16839448
140,7,-0.681137,-0.0681101,9.79358,0.0375467,-0.657838,0.972777,-0.00681408,-0.000690591,0.0979355,1,4.72925e-05,-1.39777e-05,1.66388e-05,0.0094585,-0.00279553,0.00332777,0,0,0,0,0.074171,0.523069,-0.978094,36.5625,1,36806,16839448
140,8,-0.674328,-0.0521244,9.78959,0.0386062,-0.643247,0.971648,-0.00674404,-0.000532575,0.0978957,1,5.65554e-05,-4.02719e-06,1.9137e-05,0.0113111,-0.000805438,0.0038274,0,0,0,0,0.0746222,0.519714,-0.981706,36.5625,1,36807,16839548
141,1,-0.674328,-0.0521244,9.78959,0.0386062,-0.643247,0.971648,-0.00674404,-0.000532575,0.0978957,1,5.65554e-05,-4.02719e-06,1.9137e-05,0.0113111,-0.000805438,0.0038274,0,0,0,0,0.0746222,0.519714,-0.981706,36.5625,1,36807,16839548
141,2,-0.68437,-0.0583544,9.78656,0.0321262,-0.648899,0.971173,-0.00684642,-0.000595139,0.0978653,1,5.82225e-05,-1.39642e-05,1.45474e-05,0.0116445,-0.00279285,0.00290948,0,0,0,0,0.0737255,0.51871,-0.979704,36.5625,1,36808,16839648
141,3,-0.68437,-0.0583544,9.78656,0.0321262,-0.648899,0.971173,-0.00684642,-0.000595139,0.0978653,1,5.82225e-05,-1.39642e-05,1.45474e-05,0.0116445,-0.00279285,0.00290948,0,0,0,0,0.0737255,0.51871,-0.979704,36.5625,1,36808,16839648
141,4,-0.680691,-0.0645985,9.78986,0.0356522,-0.658357,0.975702,-0.00680675,-0.000655771,0.0978986,1,4.92837e-05,7.37516e-07,1.00229e-05,0.00985674,0.000147503,0.00200459,0,0,0,0,0.0738246,0.520083,-0.974624,36.5625,1,36809,16839748
141,5,-0.680691,-0.0645985,9.78986,0.0356522,-0.658357,0.975702,-0.00680675,-0.000655771,0.0978986,1,4.92837e-05,7.37516e-07,1.00229e-05,0.00985674,0.000147503,0.00200459,0,0,0,0,0.0738246,0.520083,-0.974624,36.5625,1,36809,16839748
141,6,-0.68556,-0.0561208,9.79372,0.0325546,-0.646367,0.975549,-0.00685963,-0.000571092,0.0979368,1,4.89746e-05,-2.0709e-05,2.12488e-05,0.00979491,-0.00414179,0.00424977,0,0,0,0,0.0748405,0.520518,-0.972093,36.5625,1,36810,16839848
142,1,-0.68556,-0.0561208,9.79372,0.0325546,-0.646367,0.975549,-0.00685963,-0.000571092,0.0979368,1,4.89746e-05,-2.0709e-05,2.12488e-05,0.00979491,-0.00414179,0.00424977,0,0,0,0,0.0748405,0.520518,-0.972093,36.5625,1,36810,16839848
142,2,-0.682391,-0.0615984,9.7882,0.0291426,-0.650056,0.971067,-0.0068263,-0.000625265,0.0978818,1,4.65939e-05,-1.23012e-05,1.16661e-05,0.00931879,-0.00246023,0.00233321,0,0,0,0,0.0776536,0.521993,-0.974094,36.5625,1,36811,16839948
143,1,-0.682391,-0.0615984,9.7882,0.0291426,-0.650056,0.971067,-0.0068263,-0.000625265,0.0978818,1,4.65939e-05,-1.23012e-05,1.16661e-05,0.00931879,-0.00246023,0.00233321,0,0,0,0,0.0776536,0.521993,-0.974094,36.5625,1,36811,16839948
143,2,-0.681871,-0.0666609,9.78444,0.0321314,-0.655388,0.96506,-0.00682095,-0.000677559,0.0978442,1,5.4991e-05,-1.15297e-05,1.3852e-05,0.0109982,-0.00230594,0.00277039,0,0,0,0,0.0770083,0.523081,-0.980127,36.5625,1,36812,16840048
143,3,-0.681871,-0.0666609,9.78444,0.0321314,-0.655388,0.96506,-0.00682095,-0.000677559,0.0978442,1,5.4991e-05,-1.15297e-05,1.3852e-05,0.0109982,-0.00230594,0.00277039,0,0,0,0,0.0770083,0.523081,-0.980127,36.5625,1,36812,16840048
143,4,-0.67538,-0.0706059,9.79961,0.0380524,-0.665405,0.979038,-0.00675526,-0.000719712,0.0979959,1,6.84466e-05,-7.56808e-06,1.76112e-05,0.0136893,-0.00151362,0.00352224,0,0,0,0,0.0755887,0.520184,-0.981195,36.5625,1,36813,16840148
144,1,-0.67538,-0.0706059,9.79961,0.0380524,-0.665405,0.979038,-0.00675526,-0.000719712,0.0979959,1,6.84466e-05,-7.56808e-06,1.76112e-05,0.0136893,-0.00151362,0.00352224,0,0,0,0,0.0755887,0.520184,-0.981195,36.5625,1,36813,16840148
144,2,-0.681084,-0.0621097,9.80109,0.0301115,-0.661784,0.985896,-0.00681582,-0.000628376,0.0980105,1,3.51741e-05,-2.55926e-05,2.82155e-05,0.00703481,-0.00511853,0.00564311,0,0,0,0,0.0742066,0.518706,-0.979707,36.5625,1,36814,16840248
144,3,-0.681084,-0.0621097,9.80109,0.0301115,-0.661784,0.985896,-0.00681582,-0.000628376,0.0980105,1,3.51741e-05,-2.55926e-05,2.82155e-05,0.00703481,-0.00511853,0.00564311,0,0,0,0,0.0742066,0.518706,-0.979707,36.5625,1,36814,16840248
144,4,-0.675277,-0.0508165,9.78791,0.0384986,-0.644957,0.972936,-0.0067552,-0.000519369,0.0978789,1,5.67064e-05,-1.2476e-05,7.6966e-06,0.0113413,-0.00249519,0.00153932,0,0,0,0,0.0729028,0.517652,-0.974673,36.5625,1,36815,16840348
145,1,-0.675277,-0.0508165,9.78791,0.0384986,-0.644957,0.972936,-0.0067552,-0.000519369,0.0978789,1,5.67064e-05,-1.2476e-05,7.6966e-06,0.0113413,-0.00249519,0.00153932,0,0,0,0,0.0729028,0.517652,-0.974673,36.5625,1,36815,16840348
145,2,-0.686535,-0.066183,9.79635,0.0253131,-0.660592,0.979407,-0.00686905,-0.000670189,0.0979631,1,4.15464e-05,-1.90102e-05,1.59721e-05,0.00830927,-0.00380203,0.00319442,0,0,0,0,0.0738702,0.521014,-0.972078,36.5625,1,36816,16840448
147,1,-0.686535,-0.066183,9.79635,0.0253131,-0.660592,0.979407,-0.00686905,-0.000670189,0.0979631,1,4.15464e-05,-1.90102e-05,1.59721e-05,0.00830927,-0.00380203,0.00319442,0,0,0,0,0.0738702,0.521014,-0.972078,36.5625,1,36816,16840448
147,2,-0.676759,-0.073271,9.79485,0.0410074,-0.667335,0.974968,-0.00676909,-0.000740184,0.0979484,1,3.7862e-05,-7.71147e-06,4.18533e-06,0.00757239,-0.00154229,0.000837066,0,0,0,0,0.0771113,0.523488,-0.975573,36.5625,1,36817,16840548
147,3,-0.676759,-0.073271,9.79485,0.0410074,-0.667335,0.974968,-0.00676909,-0.000740184,0.0979484,1,3.7862e-05,-7.71147e-06,4.18533e-06,0.00757239,-0.00154229,0.000837066,0,0,0,0,0.0771113,0.523488,-0.975573,36.5625,1,36817,16840548
147,4,-0.681368,-0.0581425,9.78382,0.0317813,-0.650305,0.963738,-0.00681424,-0.000589942,0.0978381,1,4.26286e-05,-2.94484e-06,1.28818e-05,0.00852571,-0.000588968,0.00257636,0,0,0,0,0.0765396,0.523076,-0.97962,36.5625,1,36818,16840648
147,5,-0.681368,-0.0581425,9.78382,0.0317813,-0.650305,0.963738,-0.00681424,-0.000589942,0.0978381,1,4.26286e-05,-2.94484e-06,1.28818e-05,0.00852571,-0.000588968,0.00257636,0,0,0,0,0.0765396,0.523076,-0.97962,36.5625,1,36818,16840648
147,6,-0.677861,-0.0603592,9.7909,0.0318319,-0.656832,0.96861,-0.00678161,-0.000615357,0.0979087,1,5.78276e-05,-1.54933e-05,3.25648e-05,0.0115655,-0.00309867,0.00651297,0,0,0,0,0.0746593,0.519687,-0.980192,36.5625,1,36819,16840748
148,1,-0.677861,-0.0603592,9.7909,0.0318319,-0.656832,0.96861,-0.00678161,-0.000615357,0.0979087,1,5.78276e-05,-1.54933e-05,3.25648e-05,0.0115655,-0.00309867,0.00651297,0,0,0,0,0.0746593,0.519687,-0.980192,36.5625,1,36819,16840748
148,2,-0.670313,-0.0753394,9.78496,0.042816,-0.676035,0.969129,-0.00670491,-0.000765096,0.0978494,1,5.84126e-05,-9.26127e-06,2.01574e-05,0.0116825,-0.00185225,0.00403149,0,0,0,0,0.0742517,0.518191,-0.978203,36.5625,3,36820,16840848
148,3,-0.670313,-0.0753394,9.78496,0.042816,-0.676035,0.969129,-0.00670491,-0.000765096,0.0978494,1,5.84126e-05,-9.26127e-06,2.01574e-05,0.0116825,-0.00185225,0.00403149,0,0,0,0,0.0742517,0.518191,-0.978203,36.5625,3,36820,16840848
148,4,-0.683313,-0.0693047,9.7912,0.0331869,-0.667699,0.977,-0.0068344,-0.00070398,0.0979118,1,5.50616e-05,-6.56583e-06,1.10251e-05,0.0110123,-0.00131317,0.00220502,0,0,0,0,0.0748647,0.519055,-0.972126,36.5625,3,36821,16840948
149,1,-0.683313,-0.0693047,9.7912,0.0331869,-0.667699,0.977,-0.0068344,-0.00070398,0.0979118,1,5.50616e-05,-6.56583e-06,1.10251e-05,0.0110123,-0.00131317,0.00220502,0,0,0,0,0.0748647,0.519055,-0.972126,36.5625,3,36821,16840948
149,2,-0.671319,-0.0541185,9.7814,0.0373959,-0.650375,0.963943,-0.00671412,-0.000552162,0.0978139,1,5.56148e-05,-4.77968e-06,7.25905e-06,0.011123,-0.000955935,0.00145181,0,0,0,0,0.0744087,0.520486,-0.970072,36.5625,3,36822,16841048
153,1,-0.671319,-0.0541185,9.7814,0.0373959,-0.650375,0.963943,-0.00671412,-0.000552162,0.0978139,1,5.56148e-05,-4.77968e-06,7.25905e-06,0.011123,-0.000955935,0.00145181,0,0,0,0,0.0744087,0.520486,-0.970072,36.5625,3,36822,16841048
153,2,-0.663237,-0.0555287,9.7939,0.0493361,-0.655209,0.975023,-0.00663488,-0.000567078,0.0979388,1,5.89584e-05,-1.291e-05,1.83152e-05,0.0117917,-0.00258199,0.00366305,0,0,0,0,0.0743186,0.521515,-0.973079,36.5625,3,36823,16841148
153,3,-0.663237,-0.0555287,9.7939,0.0493361,-0.655209,0.975023,-0.00663488,-0.000567078,0.0979388,1,5.89584e-05,-1.291e-05,1.83152e-05,0.0117917,-0.00258199,0.00366305,0,0,0,0,0.0743186,0.521515,-0.973079,36.5625,3,36823,16841148
153,4,-0.670048,-0.0722303,9.78973,0.0426168,-0.674393,0.966994,-0.00670106,-0.000734545,0.0978972,1,6.1769e-05,-3.04523e-06,1.11032e-05,0.0123538,-0.000609045,0.00222063,0,0,0,0,0.0741753,0.523548,-0.977579,36.5625,3,36824,16841248
155,1,-0.670048,-0.0722303,9.78973,0.0426168,-0.674393,0.966994,-0.00670106,-0.000734545,0.0978972,1,6.1769e-05,-3.04523e-06,1.11032e-05,0.0123538,-0.000609045,0.00222063,0,0,0,0,0.0741753,0.523548,-0.977579,36.5625,3,36824,16841248
155,2,-0.679797,-0.0734082,9.78606,0.0309968,-0.672778,0.966522,-0.00680077,-0.00074481,0.0978603,1,5.3702e-05,-1.44651e-05,1.59702e-05,0.0107404,-0.00289302,0.00319404,0,0,0,0,0.0750834,0.521652,-0.98116,36.5625,3,36825,16841348
156,1,-0.679797,-0.0734082,9.78606,0.0309968,-0.672778,0.966522,-0.00680077,-0.00074481,0.0978603,1,5.3702e-05,-1.44651e-05,1.59702e-05,0.0107404,-0.00289302,0.00319404,0,0,0,0,0.0750834,0.521652,-0.98116,36.5625,3,36825,16841348
156,2,-0.682266,-0.0640954,9.79327,0.0306577,-0.666092,0.974499,-0.00682417,-0.00065514,0.0979325,1,7.18441e-05,-7.75605e-06,8.34822e-06,0.0143688,-0.00155121,0.00166964,0,0,0,0,0.0722698,0.518731,-0.980202,36.5625,3,36826,16841448
157,1,-0.682266,-0.0640954,9.79327,0.0306577,-0.666092,0.974499,-0.00682417,-0.00065514,0.0979325,1,7.18441e-05,-7.75605e-06,8.34822e-06,0.0143688,-0.00155121,0.00166964,0,0,0,0,0.0722698,0.518731,-0.980202,36.5625,3,36826,16841448
157,2,-0.680523,-0.0549448,9.78996,0.0290161,-0.660562,0.97323,-0.00680945,-0.000561439,0.0978992,1,6.08209e-05,-2.159e-05,6.05713e-06,0.0121642,-0.004318,0.00121143,0,0,0,0,0.0709541,0.519132,-0.974632,36.5625,3,36827,16841548
157,3,-0.680523,-0.0549448,9.78996,0.0290161,-0.660562,0.97323,-0.00680945,-0.000561439,0.0978992,1,6.08209e-05,-2.159e-05,6.05713e-06,0.0121642,-0.004318,0.00121143,0,0,0,0,0.0709541,0.519132,-0.974632,36.5625,3,36827,16841548
157,4,-0.679951,-0.0614905,9.78446,0.037193,-0.665157,0.961661,-0.0068025,-0.000625129,0.0978444,1,5.13288e-05,-1.5367e-05,1.32548e-05,0.0102658,-0.00307341,0.00265095,0,0,0,0,0.0734176,0.520033,-0.971593,36.5625,3,36828,16841648
158,1,-0.679951,-0.0614905,9.78446,0.037193,-0.665157,0.961661,-0.0068025,-0.000625129,0.0978444,1,5.13288e-05,-1.5367e-05,1.32548e-05,0.0102658,-0.00307341,0.00265095,0,0,0,0,0.0734176,0.520033,-0.971593,36.5625,3,36828,16841648
158,2,-0.686955,-0.066124,9.79058,0.0244029,-0.667257,0.972163,-0.00687252,-0.000669681,0.0979056,1,4.20455e-05,-1.52718e-05,1.50985e-05,0.00840911,-0.00305436,0.0030197,0,0,0,0,0.0766625,0.52154,-0.975614,36.5625,3,36829,16841748
159,1,-0.686955,-0.066124,9.79058,0.0244029,-0.667257,0.972163,-0.00687252,-0.000669681,0.0979056,1,4.20455e-05,-1.52718e-05,1.50985e-05,0.00840911,-0.00305436,0.0030197,0,0,0,0,0.0766625,0.52154,-0.975614,36.5625,3,36829,16841748
159,2,-0.674091,-0.06623,9.78845,0.0402143,-0.666681,0.962269,-0.00674296,-0.000667087,0.0978844,1,2.37954e-05,-1.05873e-05,9.52359e-06,0.00475907,-0.00211745,0.00190472,0,0,0,0,0.0774814,0.523565,-0.980119,36.5625,3,36830,16841848
159,3,-0.674091,-0.06623,9.78845,0.0402143,-0.666681,0.962269,-0.00674296,-0.000667087,0.0978844,1,2.37954e-05,-1.05873e-05,9.52359e-06,0.00475907,-0.00211745,0.00190472,0,0,0,0,0.0774814,0.523565,-0.980119,36.5625,3,36830,16841848
159,4,-0.682241,-0.06252,9.78957,0.0322106,-0.669131,0.966393,-0.00682549,-0.00063577,0.0978954,1,5.23944e-05,-1.58864e-05,2.28416e-05,0.0104789,-0.00317728,0.00456832,0,0,0,0,0.0760789,0.522583,-0.979124,36.5625,3,36831,16841948
161,1,-0.682241,-0.06252,9.78957,0.0322106,-0.669131,0.966393,-0.00682549,-0.00063577,0.0978954,1,5.23944e-05,-1.58864e-05,2.28416e-05,0.0104789,-0.00317728,0.00456832,0,0,0,0,0.0760789,0.522583,-0.979124,36.5625,3,36831,16841948
161,2,-0.656843,-0.0495899,9.76778,0.053726,-0.651916,0.949273,-0.00656858,-0.000504111,0.0976778,1,4.10005e-05,-8.58454e-07,1.54284e-05,0.0082001,-0.000171691,0.00308568,0,0,0,0,0.0737549,0.520616,-0.977137,36.5625,3,36832,16842048
161,3,-0.656843,-0.0495899,9.76778,0.053726,-0.651916,0.949273,-0.00656858,-0.000504111,0.0976778,1,4.10005e-05,-8.58454e-07,1.54284e-05,0.0082001,-0.000171691,0.00308568,0,0,0,0,0.0737549,0.520616,-0.977137,36.5625,3,36832,16842048
161,4,-0.685624,-0.0750018,9.80032,0.0233786,-0.683575,0.984528,-0.00685709,-0.000759855,0.0980031,1,4.96767e-05,-4.40718e-06,7.29245e-06,0.00993534,-0.000881435,0.00145849,0,0,0,0,0.0743466,0.519086,-0.973638,36.5625,3,36833,16842148
161,5,-0.685624,-0.0750018,9.80032,0.0233786,-0.683575,0.984528,-0.00685709,-0.000759855,0.0980031,1,4.96767e-05,-4.40718e-06,7.29245e-06,0.00993534,-0.000881435,0.00145849,0,0,0,0,0.0743466,0.519086,-0.973638,36.5625,3,36833,16842148
161,6,-0.677743,-0.0614071,9.79294,0.0341146,-0.665935,0.974015,-0.00678117,-0.000624747,0.0979291,1,5.35511e-05,-1.9172e-05,1.37948e-05,0.0107102,-0.0038344,0.00275896,0,0,0,0,0.0748282,0.520527,-0.972598,36.5625,3,36834,16842248
163,1,-0.677743,-0.0614071,9.79294,0.0341146,-0.665935,0.974015,-0.00678117,-0.000624747,0.0979291,1,5.35511e-05,-1.9172e-05,1.37948e-05,0.0107102,-0.0038344,0.00275896,0,0,0,0,0.0748282,0.520527,-0.972598,36.5625,3,36834,16842248
163,2,-0.67611,-0.0704848,9.79216,0.0375447,-0.674922,0.972617,-0.00676283,-0.000713668,0.0979214,1,4.39529e-05,-8.94787e-06,1.56984e-05,0.00879058,-0.00178957,0.00313967,0,0,0,0,0.0757254,0.522976,-0.973558,36.5625,3,36835,16842348
166,1,-0.67611,-0.0704848,9.79216,0.0375447,-0.674922,0.972617,-0.00676283,-0.000713668,0.0979214,1,4.39529e-05,-8.94787e-06,1.56984e-05,0.00879058,-0.00178957,0.00313967,0,0,0,0,0.0757254,0.522976,-0.973558,36.5625,3,36835,16842348
166,2,-0.687965,-0.0585166,9.79063,0.0244818,-0.662168,0.97028,-0.00687888,-0.000595564,0.0979063,1,5.20627e-05,3.84255e-06,1.47878e-05,0.0104125,0.000768511,0.00295756,0,0,0,0,0.0755982,0.524032,-0.978079,36.5625,3,36836,16842448
166,3,-0.687965,-0.0585166,9.79063,0.0244818,-0.662168,0.97028,-0.00687888,-0.000595564,0.0979063,1,5.20627e-05,3.84255e-06,1.47878e-05,0.0104125,0.000768511,0.00295756,0,0,0,0,0.0755982,0.524032,-0.978079,36.5625,3,36836,16842448
166,4,-0.68815,-0.0519586,9.7846,0.0218089,-0.662004,0.962713,-0.00688512,-0.000530598,0.0978457,1,5.59987e-05,-1.85271e-05,3.88926e-06,0.0111997,-0.00370543,0.000777853,0,0,0,0,0.0755688,0.522126,-0.980647,36.5625,3,36837,16842548
166,5,-0.68815,-0.0519586,9.7846,0.0218089,-0.662004,0.962713,-0.00688512,-0.000530598,0.0978457,1,5.59987e-05,-1.85271e-05,3.88926e-06,0.0111997,-0.00370543,0.000777853,0,0,0,0,0.0755688,0.522126,-0.980647,36.5625,3,36837,16842548
166,6,-0.682703,-0.0574026,9.79197,0.026224,-0.666143,0.971774,-0.00682887,-0.000585093,0.0979195,1,5.45866e-05,-9.57614e-06,2.76269e-05,0.0109173,-0.00191523,0.00552538,0,0,0,0,0.0742194,0.520142,-0.97816,36.5625,3,36838,16842648
166,7,-0.682703,-0.0574026,9.79197,0.026224,-0.666143,0.971774,-0.00682887,-0.000585093,0.0979195,1,5.45866e-05,-9.57614e-06,2.76269e-05,0.0109173,-0.00191523,0.00552538,0,0,0,0,0.0742194,0.520142,-0.97816,36.5625,3,36838,16842648
166,8,-0.686071,-0.0619325,9.79467,0.0253711,-0.670876,0.980621,-0.00686158,-0.000630473,0.0979466,1,5.62686e-05,-4.52835e-06,9.06739e-06,0.0112537,-0.00090567,0.00181348,0,0,0,0,0.0724506,0.518117,-0.973146,36.5625,3,36839,16842748
167,1,-0.686071,-0.0619325,9.79467,0.0253711,-0.670876,0.980621,-0.00686158,-0.000630473,0.0979466,1,5.62686e-05,-4.52835e-06,9.06739e-06,0.0112537,-0.00090567,0.00181348,0,0,0,0,0.0724506,0.518117,-0.973146,36.5625,3,36839,16842748
167,2,-0.686228,-0.0670264,9.78854,0.0259399,-0.676866,0.96811,-0.00686707,-0.000680862,0.097885,1,5.32716e-05,-2.45778e-05,1.22935e-05,0.0106543,-0.00491555,0.00245869,0,0,0,0,0.0738944,0.51955,-0.972111,36.5625,3,36840,16842848
168,1,-0.686228,-0.0670264,9.78854,0.0259399,-0.676866,0.96811,-0.00686707,-0.000680862,0.097885,1,5.32716e-05,-2.45778e-05,1.22935e-05,0.0106543,-0.00491555,0.00245869,0,0,0,0,0.0738944,0.51955,-0.972111,36.5625,3,36840,16842848
168,2,-0.677297,-0.0559813,9.7889,0.0329793,-0.661585,0.966027,-0.00677463,-0.000569954,0.0978888,1,5.02895e-05,-8.60326e-06,2.17484e-05,0.0100579,-0.00172065,0.00434969,0,0,0,0,0.076671,0.522498,-0.974583,36.5625,3,36841,16842948
169,1,-0.677297,-0.0559813,9.7889,0.0329793,-0.661585,0.966027,-0.00677463,-0.000569954,0.0978888,1,5.02895e-05,-8.60326e-06,2.17484e-05,0.0100579,-0.00172065,0.00434969,0,0,0,0,0.076671,0.522498,-0.974583,36.5625,3,36841,16842948
169,2,-0.684969,-0.070165,9.79561,0.0238412,-0.67479,0.972932,-0.00685049,-0.000712902,0.097956,1,5.64828e-05,-4.15216e-06,1.36568e-05,0.0112966,-0.000830431,0.00273137,0,0,0,0,0.0770368,0.522096,-0.979644,36.5625,3,36842,16843048
169,3,-0.684969,-0.070165,9.79561,0.0238412,-0.67479,0.972932,-0.00685049,-0.000712902,0.097956,1,5.64828e-05,-4.15216e-06,1.36568e-05,0.0112966,-0.000830431,0.00273137,0,0,0,0,0.0770368,0.522096,-0.979644,36.5625,3,36842,16843048
169,4,-0.67581,-0.0612238,9.79292,0.0287819,-0.671805,0.973344,-0.0067611,-0.000620385,0.0979289,1,4.03578e-05,-1.54525e-05,1.79542e-05,0.00807157,-0.00309051,0.00359084,0,0,0,0,0.0751238,0.519213,-0.981215,36.5625,3,36843,16843148
169,5,-0.67581,-0.0612238,9.79292,0.0287819,-0.671805,0.973344,-0.0067611,-0.000620385,0.0979289,1,4.03578e-05,-1.54525e-05,1.79542e-05,0.00807157,-0.00309051,0.00359084,0,0,0,0,0.0751238,0.519213,-0.981215,36.5625,3,36843,16843148
169,6,-0.684282,-0.0541091,9.79847,0.026204,-0.663475,0.978712,-0.00684572,-0.000549577,0.0979844,1,4.19524e-05,-1.48897e-05,1.93455e-05,0.00839049,-0.00297794,0.00386909,0,0,0,0,0.0727837,0.518221,-0.979206,36.5625,3,36844,16843248
170,1,-0.684282,-0.0541091,9.79847,0.026204,-0.663475,0.978712,-0.00684572,-0.000549577,0.0979844,1,4.19524e-05,-1.48897e-05,1.93455e-05,0.00839049,-0.00297794,0.00386909,0,0,0,0,0.0727837,0.518221,-0.979206,36.5625,3,36844,16843248
170,2,-0.674911,-0.0539871,9.79263,0.0337501,-0.662745,0.976036,-0.00675027,-0.000548529,0.0979262,1,4.24907e-05,-6.07395e-06,2.48887e-05,0.00849813,-0.00121479,0.00497774,0,0,0,0,0.0739105,0.518575,-0.972132,36.5625,3,36845,16843348
170,3,-0.674911,-0.0539871,9.79263,0.0337501,-0.662745,0.976036,-0.00675027,-0.000548529,0.0979262,1,4.24907e-05,-6.07395e-06,2.48887e-05,0.00849813,-0.00121479,0.00497774,0,0,0,0,0.0739105,0.518575,-0.972132,36.5625,3,36845,16843348
170,4,-0.667853,-0.0579473,9.78712,0.0423909,-0.666845,0.971555,-0.00667913,-0.000590494,0.097871,1,5.49237e-05,-3.21315e-06,2.02063e-05,0.0109847,-0.000642629,0.00404126,0,0,0,0,0.0758644,0.520465,-0.969574,36.5625,3,36846,16843448
171,1,-0.667853,-0.0579473,9.78712,0.0423909,-0.666845,0.971555,-0.00667913,-0.000590494,0.097871,1,5.49237e-05,-3.21315e-06,2.02063e-05,0.0109847,-0.000642629,0.00404126,0,0,0,0,0.0758644,0.520465,-0.969574,36.5625,3,36846,16843448
171,2,-0.683526,-0.0630303,9.7994,0.0287967,-0.671378,0.978427,-0.00683771,-0.000639439,0.0979938,1,4.46812e-05,-1.26438e-05,2.77141e-05,0.00893623,-0.00252877,0.00554283,0,0,0,0,0.0771644,0.522485,-0.974081,36.5625,3,36847,16843548
171,3,-0.683526,-0.0630303,9.7994,0.0287967,-0.671378,0.978427,-0.00683771,-0.000639439,0.0979938,1,4.46812e-05,-1.26438e-05,2.77141e-05,0.00893623,-0.00252877,0.00554283,0,0,0,0,0.0771644,0.522485,-0.974081,36.5625,3,36847,16843548
171,4,-0.681823,-0.0660985,9.78411,0.0254531,-0.676292,0.958863,-0.00682324,-0.000669943,0.0978407,1,4.45788e-05,-2.57137e-05,1.72219e-05,0.00891576,-0.00514275,0.00344438,0,0,0,0,0.0770083,0.523081,-0.980127,36.5625,3,36848,16843648
172,1,-0.681823,-0.0660985,9.78411,0.0254531,-0.676292,0.958863,-0.00682324,-0.000669943,0.0978407,1,4.45788e-05,-2.57137e-05,1.72219e-05,0.00891576,-0.00514275,0.00344438,0,0,0,0,0.0770083,0.523081,-0.980127,36.5625,3,36848,16843648
172,2,-0.677062,-0.0648022,9.78883,0.0338336,-0.678474,0.967359,-0.00677497,-0.00066022,0.097888,1,6.15176e-05,-2.22548e-05,1.1377e-05,0.0123035,-0.00445096,0.0022754,0,0,0,0,0.0765591,0.519689,-0.981211,36.5625,3,36849,16843748
175,1,-0.677062,-0.0648022,9.78883,0.0338336,-0.678474,0.967359,-0.00677497,-0.00066022,0.097888,1,6.15176e-05,-2.22548e-05,1.1377e-05,0.0123035,-0.00445096,0.0022754,0,0,0,0,0.0765591,0.519689,-0.981211,36.5625,3,36849,16843748
175,2,-0.692425,-0.0636868,9.79064,0.0142558,-0.677294,0.973074,-0.00692678,-0.000647433,0.0979062,1,5.34263e-05,-1.29716e-05,7.46151e-06,0.0106853,-0.00259432,0.0014923,0,0,0,0,0.0737829,0.518186,-0.977696,36.5625,3,36850,16843848
175,3,-0.692425,-0.0636868,9.79064,0.0142558,-0.677294,0.973074,-0.00692678,-0.000647433,0.0979062,1,5.34263e-05,-1.29716e-05,7.46151e-06,0.0106853,-0.00259432,0.0014923,0,0,0,0,0.0737829,0.518186,-0.977696,36.5625,3,36850,16843848
175,4,-0.67454,-0.0625421,9.78679,0.0358244,-0.674991,0.966948,-0.00674666,-0.000634097,0.0978677,1,4.31631e-05,-6.52307e-06,1.687e-05,0.00863261,-0.00130461,0.003374,0,0,0,0,0.0733597,0.519112,-0.974643,36.5625,3,36851,16843948
175,5,-0.67454,-0.0625421,9.78679,0.0358244,-0.674991,0.966948,-0.00674666,-0.000634097,0.0978677,1,4.31631e-05,-6.52307e-06,1.687e-05,0.00863261,-0.00130461,0.003374,0,0,0,0,0.0733597,0.519112,-0.974643,36.5625,3,36851,16843948
175,6,-0.686218,-0.0640505,9.78755,0.0267875,-0.674508,0.972778,-0.00686656,-0.00064904,0.0978751,1,4.24368e-05,-2.24856e-05,1.65922e-05,0.00848736,-0.00449712,0.00331844,0,0,0,0,0.0743181,0.52007,-0.974121,36.5625,3,36852,16844048
175,7,-0.686218,-0.0640505,9.78755,0.0267875,-0.674508,0.972778,-0.00686656,-0.00064904,0.0978751,1,4.24368e-05,-2.24856e-05,1.65922e-05,0.00848736,-0.00449712,0.00331844,0,0,0,0,0.0743181,0.52007,-0.974121,36.5625,3,36852,16844048
175,8,-0.683209,-0.0669972,9.79224,0.0295569,-0.679573,0.972774,-0.00683518,-0.000681397,0.0979221,1,5.78332e-05,-1.58514e-05,7.17852e-06,0.0115666,-0.00317027,0.0014357,0,0,0,0,0.0766914,0.522001,-0.974089,36.5625,3,36853,16844148
176,1,-0.683209,-0.0669972,9.79224,0.0295569,-0.679573,0.972774,-0.00683518,-0.000681397,0.0979221,1,5.78332e-05,-1.58514e-05,7.17852e-06,0.0115666,-0.00317027,0.0014357,0,0,0,0,0.0766914,0.522001,-0.974089,36.5625,3,36853,16844148
176,2,-0.67747,-0.0646832,9.7929,0.0279399,-0.681468,0.971185,-0.00677734,-0.000654463,0.0979288,1,3.76367e-05,-1.36157e-05,1.91257e-05,0.00752733,-0.00272315,0.00382514,0,0,0,0,0.076104,0.52401,-0.977072,36.5625,3,36854,16844248
176,3,-0.67747,-0.0646832,9.7929,0.0279399,-0.681468,0.971185,-0.00677734,-0.000654463,0.0979288,1,3.76367e-05,-1.36157e-05,1.91257e-05,0.00752733,-0.00272315,0.00382514,0,0,0,0,0.076104,0.52401,-0.977072,36.5625,3,36854,16844248
176,4,-0.6657,-0.0512618,9.78446,0.0414373,-0.666932,0.95856,-0.00666061,-0.00052535,0.0978443,1,6.31194e-05,-1.85986e-05,2.85936e-05,0.0126239,-0.00371971,0.00571872,0,0,0,0,0.0751,0.522121,-0.98014,36.5625,3,36855,16844348
176,5,-0.6657,-0.0512618,9.78446,0.0414373,-0.666932,0.95856,-0.00666061,-0.00052535,0.0978443,1,6.31194e-05,-1.85986e-05,2.85936e-05,0.0126239,-0.00371971,0.00571872,0,0,0,0,0.0751,0.522121,-0.98014,36.5625,3,36855,16844348
176,6,-0.687769,-0.0567871,9.7927,0.0154581,-0.677669,0.973425,-0.00688,-0.000579287,0.0979268,1,5.63356e-05,-1.19993e-05,2.77591e-05,0.0112671,-0.00239985,0.00555183,0,0,0,0,0.0747043,0.519172,-0.978688,36.5625,3,36856,16844448
178,1,-0.687769,-0.0567871,9.7927,0.0154581,-0.677669,0.973425,-0.00688,-0.000579287,0.0979268,1,5.63356e-05,-1.19993e-05,2.77591e-05,0.0112671,-0.00239985,0.00555183,0,0,0,0,0.0747043,0.519172,-0.978688,36.5625,3,36856,16844448
178,2,-0.682472,-0.0510968,9.78185,0.0228225,-0.669624,0.964496,-0.00682564,-0.000523697,0.0978184,1,6.47437e-05,-4.69412e-06,4.61537e-06,0.0129487,-0.000938824,0.000923074,0,0,0,0,0.0734536,0.517115,-0.972163,36.5625,3,36857,16844548
178,3,-0.682472,-0.0510968,9.78185,0.0228225,-0.669624,0.964496,-0.00682564,-0.000523697,0.0978184,1,6.47437e-05,-4.69412e-06,4.61537e-06,0.0129487,-0.000938824,0.000923074,0,0,0,0,0.0734536,0.517115,-0.972163,36.5625,3,36857,16844548
178,4,-0.682748,-0.0623857,9.78481,0.0283861,-0.676682,0.963964,-0.00682799,-0.000630588,0.097848,1,3.36096e-05,-2.6786e-06,1.12709e-05,0.00672192,-0.000535721,0.00225417,0,0,0,0,0.0748936,0.519515,-0.970601,36.5625,3,36858,16844648
178,5,-0.682748,-0.0623857,9.78481,0.0283861,-0.676682,0.963964,-0.00682799,-0.000630588,0.097848,1,3.36096e-05,-2.6786e-06,1.12709e-05,0.00672192,-0.000535721,0.00225417,0,0,0,0,0.0748936,0.519515,-0.970601,36.5625,3,36858,16844648
178,6,-0.683281,-0.0645683,9.79497,0.0249106,-0.678151,0.973656,-0.00683583,-0.000659501,0.0979494,1,6.9363e-05,-1.5499e-05,1.68106e-05,0.0138726,-0.00309981,0.00336213,0,0,0,0,0.0780574,0.524455,-0.975556,36.5625,3,36859,16844748
179,1,-0.683281,-0.0645683,9.79497,0.0249106,-0.678151,0.973656,-0.00683583,-0.000659501,0.0979494,1,6.9363e-05,-1.5499e-05,1.68106e-05,0.0138726,-0.00309981,0.00336213,0,0,0,0,0.0780574,0.524455,-0.975556,36.5625,3,36859,16844748
179,2,-0.681927,-0.0670708,9.79257,0.0202575,-0.683628,0.967678,-0.00682044,-0.000679763,0.0979256,1,4.505e-05,-6.10239e-06,1.70394e-05,0.00901,-0.00122048,0.00340788,0,0,0,0,0.0774572,0.525028,-0.980086,36.5625,3,36860,16844848
180,1,-0.681927,-0.0670708,9.79257,0.0202575,-0.683628,0.967678,-0.00682044,-0.000679763,0.0979256,1,4.505e-05,-6.10239e-06,1.70394e-05,0.00901,-0.00122048,0.00340788,0,0,0,0,0.0774572,0.525028,-0.980086,36.5625,3,36860,16844848
180,2,-0.677183,-0.0610935,9.78987,0.0289891,-0.683531,0.973397,-0.00677558,-0.00062246,0.0978984,1,5.75929e-05,-1.92393e-05,1.83827e-05,0.0115186,-0.00384786,0.00367654,0,0,0,0,0.0755892,0.52163,-0.980153,36.5625,3,36861,16844948
181,1,-0.677183,-0.0610935,9.78987,0.0289891,-0.683531,0.973397,-0.00677558,-0.00062246,0.0978984,1,5.75929e-05,-1.92393e-05,1.83827e-05,0.0115186,-0.00384786,0.00367654,0,0,0,0,0.0755892,0.52163,-0.980153,36.5625,3,36861,16844948
181,2,-0.670826,-0.0567369,9.77936,0.0313282,-0.674438,0.96039,-0.00671134,-0.00057363,0.0977933,1,3.10204e-05,-1.5827e-05,1.44617e-05,0.00620408,-0.00316539,0.00289233,0,0,0,0,0.0732733,0.519175,-0.978177,36.5625,3,36862,16845048
182,1,-0.670826,-0.0567369,9.77936,0.0313282,-0.674438,0.96039,-0.00671134,-0.00057363,0.0977933,1,3.10204e-05,-1.5827e-05,1.44617e-05,0.00620408,-0.00316539,0.00289233,0,0,0,0,0.0732733,0.519175,-0.978177,36.5625,3,36862,16845048
182,2,-0.676548,-0.0587715,9.78616,0.0281176,-0.678706,0.964713,-0.00676787,-0.000597362,0.0978614,1,4.82779e-05,-1.23029e-05,1.45975e-05,0.00965558,-0.00246058,0.0029195,0,0,0,0,0.0724383,0.518126,-0.973651,36.5625,3,36863,16845148
184,1,-0.676548,-0.0587715,9.78616,0.0281176,-0.678706,0.964713,-0.00676787,-0.000597362,0.0978614,1,4.82779e-05,-1.23029e-05,1.45975e-05,0.00965558,-0.00246058,0.0029195,0,0,0,0,0.0724383,0.518126,-0.973651,36.5625,3,36863,16845148
184,2,-0.681599,-0.0584027,9.78111,0.0257069,-0.673087,0.962797,-0.00682058,-0.00059386,0.0978107,1,4.87547e-05,-2.36035e-05,2.16422e-05,0.00975094,-0.00472069,0.00432844,0,0,0,0,0.0739153,0.520499,-0.970574,36.5625,3,36864,16845248
184,3,-0.681599,-0.0584027,9.78111,0.0257069,-0.673087,0.962797,-0.00682058,-0.00059386,0.0978107,1,4.87547e-05,-2.36035e-05,2.16422e-05,0.00975094,-0.00472069,0.00432844,0,0,0,0,0.0739153,0.520499,-0.970574,36.5625,3,36864,16845248
184,4,-0.680198,-0.0651706,9.78444,0.0236,-0.685494,0.965828,-0.006806,-0.000662245,0.0978441,1,5.26644e-05,-2.06342e-05,1.71515e-05,0.0105329,-0.00412685,0.0034303,0,0,0,0,0.0757747,0.52294,-0.971539,36.5625,3,36865,16845348
185,1,-0.680198,-0.0651706,9.78444,0.0236,-0.685494,0.965828,-0.006806,-0.000662245,0.0978441,1,5.26644e-05,-2.06342e-05,1.71515e-05,0.0105329,-0.00412685,0.0034303,0,0,0,0,0.0757747,0.52294,-0.971539,36.5625,3,36865,16845348
185,2,-0.674416,-0.069075,9.79386,0.0360558,-0.686146,0.967903,-0.00674647,-0.000700655,0.0979383,1,4.96525e-05,-1.18987e-05,1.32939e-05,0.00993049,-0.00237974,0.00265878,0,0,0,0,0.0751209,0.52307,-0.978604,36.5625,3,36866,16845448
185,3,-0.674416,-0.069075,9.79386,0.0360558,-0.686146,0.967903,-0.00674647,-0.000700655,0.0979383,1,4.96525e-05,-1.18987e-05,1.32939e-05,0.00993049,-0.00237974,0.00265878,0,0,0,0,0.0751209,0.52307,-0.978604,36.5625,3,36866,16845448
185,4,-0.672308,-0.0628224,9.78577,0.0356643,-0.685116,0.961669,-0.0067281,-0.000636427,0.0978573,1,3.94859e-05,-2.58442e-05,3.53253e-05,0.00789719,-0.00516885,0.00706506,0,0,0,0,0.0750872,0.520685,-0.981687,36.5625,3,36867,16845548
185,5,-0.672308,-0.0628224,9.78577,0.0356643,-0.685116,0.961669,-0.0067281,-0.000636427,0.0978573,1,3.94859e-05,-2.58442e-05,3.53253e-05,0.00789719,-0.00516885,0.00706506,0,0,0,0,0.0750872,0.520685,-0.981687,36.5625,3,36867,16845548
185,6,-0.682714,-0.063866,9.78954,0.0203462,-0.685674,0.973405,-0.00682779,-0.000651063,0.0978953,1,6.1959e-05,-3.409e-06,1.99546e-05,0.0123918,-0.000681799,0.00399092,0,0,0,0,0.0732937,0.518678,-0.977683,36.5625,3,36868,16845648
185,7,-0.682714,-0.063866,9.78954,0.0203462,-0.685674,0.973405,-0.00682779,-0.000651063,0.0978953,1,6.1959e-05,-3.409e-06,1.99546e-05,0.0123918,-0.000681799,0.00399092,0,0,0,0,0.0732937,0.518678,-0.977683,36.5625,3,36868,16845648
185,8,-0.672677,-0.0627991,9.78303,0.0347825,-0.690146,0.96287,-0.00672553,-0.000637734,0.0978304,1,4.81045e-05,6.20467e-06,2.46356e-05,0.00962091,0.00124093,0.00492711,0,0,0,0,0.0728947,0.51814,-0.974663,36.5625,3,36869,16845748
186,1,-0.672677,-0.0627991,9.78303,0.0347825,-0.690146,0.96287,-0.00672553,-0.000637734,0.0978304,1,4.81045e-05,6.20467e-06,2.46356e-05,0.00962091,0.00124093,0.00492711,0,0,0,0,0.0728947,0.51814,-0.974663,36.5625,3,36869,16845748
186,2,-0.679275,-0.0520335,9.7937,0.0239135,-0.671039,0.972378,-0.00679478,-0.00052986,0.0979368,1,4.70263e-05,-1.05031e-05,2.30538e-05,0.00940527,-0.00210062,0.00461076,0,0,0,0,0.0728833,0.52104,-0.973083,36.5625,3,36870,16845848
187,1,-0.679275,-0.0520335,9.7937,0.0239135,-0.671039,0.972378,-0.00679478,-0.00052986,0.0979368,1,4.70263e-05,-1.05031e-05,2.30538e-05,0.00940527,-0.00210062,0.00461076,0,0,0,0,0.0728833,0.52104,-0.973083,36.5625,3,36870,16845848
187,2,-0.670617,-0.0667756,9.78199,0.034641,-0.691561,0.956943,-0.00670983,-0.000678327,0.0978196,1,5.32233e-05,-1.88255e-05,1.18331e-05,0.0106447,-0.0037651,0.00236663,0,0,0,0,0.0752115,0.523486,-0.974554,36.5625,3,36871,16845948
187,3,-0.670617,-0.0667756,9.78199,0.034641,-0.691561,0.956943,-0.00670983,-0.000678327,0.0978196,1,5.32233e-05,-1.88255e-05,1.18331e-05,0.0106447,-0.0037651,0.00236663,0,0,0,0,0.0752115,0.523486,-0.974554,36.5625,3,36871,16845948
187,4,-0.692117,-0.0671691,9.79297,0.0124349,-0.691251,0.969949,-0.00692291,-0.00068248,0.0979295,1,5.40968e-05,-8.95411e-06,1.40351e-05,0.0108194,-0.00179082,0.00280701,0,0,0,0,0.0755612,0.524059,-0.979594,36.5625,3,36872,16846048
187,5,-0.692117,-0.0671691,9.79297,0.0124349,-0.691251,0.969949,-0.00692291,-0.00068248,0.0979295,1,5.40968e-05,-8.95411e-06,1.40351e-05,0.0108194,-0.00179082,0.00280701,0,0,0,0,0.0755612,0.524059,-0.979594,36.5625,3,36872,16846048
187,6,-0.680842,-0.0721585,9.78709,0.0255069,-0.698916,0.963897,-0.00681125,-0.000730406,0.0978707,1,4.32711e-05,-1.46644e-05,2.58182e-05,0.00865423,-0.00293288,0.00516363,0,0,0,0,0.0746431,0.520662,-0.98017,36.5625,3,36873,16846148
188,1,-0.680842,-0.0721585,9.78709,0.0255069,-0.698916,0.963897,-0.00681125,-0.000730406,0.0978707,1,4.32711e-05,-1.46644e-05,2.58182e-05,0.00865423,-0.00293288,0.00516363,0,0,0,0,0.0746431,0.520662,-0.98017,36.5625,3,36873,16846148
188,2,-0.673433,-0.0707594,9.79485,0.0352123,-0.69855,0.976195,-0.00673459,-0.000717373,0.0979484,1,4.98202e-05,-1.30963e-06,1.47892e-06,0.00996403,-0.000261927,0.000295784,0,0,0,0,0.0742721,0.517694,-0.977709,36.5625,3,36874,16846248
188,3,-0.673433,-0.0707594,9.79485,0.0352123,-0.69855,0.976195,-0.00673459,-0.000717373,0.0979484,1,4.98202e-05,-1.30963e-06,1.47892e-06,0.00996403,-0.000261927,0.000295784,0,0,0,0,0.0742721,0.517694,-0.977709,36.5625,3,36874,16846248
188,4,-0.673829,-0.0679555,9.79114,0.0354776,-0.694239,0.97131,-0.00673889,-0.000690907,0.0979113,1,5.75483e-05,-3.14396e-06,6.1263e-06,0.0115097,-0.000628792,0.00122526,0,0,0,0,0.0734456,0.517603,-0.972152,36.5625,3,36875,16846348
190,1,-0.673829,-0.0679555,9.79114,0.0354776,-0.694239,0.97131,-0.00673889,-0.000690907,0.0979113,1,5.75483e-05,-3.14396e-06,6.1263e-06,0.0115097,-0.000628792,0.00122526,0,0,0,0,0.0734456,0.517603,-0.972152,36.5625,3,36875,16846348
190,2,-0.680506,-0.0642707,9.79123,0.0273694,-0.684511,0.971226,-0.00680787,-0.000653122,0.097912,1,5.18692e-05,-1.44968e-05,1.8915e-05,0.0103738,-0.00289937,0.00378301,0,0,0,0,0.0738872,0.522929,-0.970015,36.5625,3,36876,16846448
191,1,-0.680506,-0.0642707,9.79123,0.0273694,-0.684511,0.971226,-0.00680787,-0.000653122,0.097912,1,5.18692e-05,-1.44968e-05,1.8915e-05,0.0103738,-0.00289937,0.00378301,0,0,0,0,0.0738872,0.522929,-0.970015,36.5625,3,36876,16846448
191,2,-0.679675,-0.0519885,9.78963,0.0250795,-0.675651,0.966955,-0.00679963,-0.000529122,0.097896,1,4.67709e-05,-1.47151e-05,5.91228e-06,0.00935419,-0.00294302,0.00118246,0,0,0,0,0.0756727,0.525424,-0.974008,36.5625,3,36877,16846548
192,1,-0.679675,-0.0519885,9.78963,0.0250795,-0.675651,0.966955,-0.00679963,-0.000529122,0.097896,1,4.67709e-05,-1.47151e-05,5.91228e-06,0.00935419,-0.00294302,0.00118246,0,0,0,0,0.0756727,0.525424,-0.974008,36.5625,3,36877,16846548
192,2,-0.676382,-0.0721462,9.78469,0.0241136,-0.700615,0.961451,-0.00676761,-0.000730951,0.0978466,1,4.74006e-05,-1.94573e-05,1.57038e-05,0.00948012,-0.00389146,0.00314076,0,0,0,0,0.0760831,0.523062,-0.978608,36.5625,3,36878,16846648
