frame_id	accel_x	accel_y	accel_z	free_accel_x	free_accel_y	free_accel_z	delta_v_x	delta_v_y	delta_v_z	delta_q_w	delta_q_x	delta_q_y	delta_q_z	rate_x	rate_y	rate_z	quat_w	quat_x	quat_y	quat_z	mag_x	mag_y	mag_z	temperature	status_byte	packet_counter	time_fine
2003	0	0	0	0	0	0	0	0	0	0	0	0	0	0	0	0	0	0	0	0	0	0	0	0	0	0	0
1	0	0	0	0	0	0	0	0	0	0	0	0	0	0	0	0	0	0	0	0	0	0	0	0	0	0	0
2	0	0	0	0	0	0	0	0	0	0	0	0	0	0	0	0	0	0	0	0	0	0	0	0	0	0	0
3	0	0	0	0	0	0	0	0	0	0	0	0	0	0	0	0	0	0	0	0	0	0	0	0	0	0	0
4	0	0	0	0	0	0	0	0	0	0	0	0	0	0	0	0	0	0	0	0	0	0	0	0	0	0	0
5	0	0	0	0	0	0	0	0	0	0	0	0	0	0	0	0	0	0	0	0	0	0	0	0	0	0	0
6	-0.67988	-0.0784856	9.79207	1.26084	-0.100637	0.855608	-0.00680276	-0.000796018	0.0979204	1	5.56352e-05	-2.03923e-05	1.95656e-05	0.011127	-0.00407846	0.00391312	0	0	0	0	0.0780319	0.509054	-0.987515	33.75	3	38783	3926902
7	-0.67988	-0.0784856	9.79207	1.26084	-0.100637	0.855608	-0.00680276	-0.000796018	0.0979204	1	5.56352e-05	-2.03923e-05	1.95656e-05	0.011127	-0.00407846	0.00391312	0	0	0	0	0.0780319	0.509054	-0.987515	33.75	3	38783	3926902
8	-0.67988	-0.0784856	9.79207	1.26084	-0.100637	0.855608	-0.00680276	-0.000796018	0.0979204	1	5.56352e-05	-2.03923e-05	1.95656e-05	0.011127	-0.00407846	0.00391312	0	0	0	0	0.0780319	0.509054	-0.987515	33.75	3	38783	3926902
9	-0.67988	-0.0784856	9.79207	1.26084	-0.100637	0.855608	-0.00680276	-0.000796018	0.0979204	1	5.56352e-05	-2.03923e-05	1.95656e-05	0.011127	-0.00407846	0.00391312	0	0	0	0	0.0780319	0.509054	-0.987515	33.75	3	38783	3926902
10	-0.67988	-0.0784856	9.79207	1.26084	-0.100637	0.855608	-0.00680276	-0.000796018	0.0979204	1	5.56352e-05	-2.03923e-05	1.95656e-05	0.011127	-0.00407846	0.00391312	0	0	0	0	0.0780319	0.509054	-0.987515	33.75	3	38783	3926902
11	-0.689953	-0.0756088	9.76968	0.104499	-0.430321	0.991332	-0.00689793	-0.000767087	0.0976968	1	5.51155e-05	8.07432e-06	1.66098e-05	0.0110231	0.00161486	0.00332196	0	0	0	0	0.0745028	0.506308	-0.996145	33.8125	1	40895	4139577
12	-0.73248	-0.108292	9.77548	0.0509964	-0.458723	0.993126	-0.00733052	-0.00108861	0.0977543	1	2.76565e-05	-2.94667e-05	1.96571e-05	0.00553131	-0.00589334	0.00393142	0	0	0	0	0.0812897	0.511998	-0.98999	33.8125	1	40898	4139877
10	-0.740027	-0.140488	9.77487	0.0680908	-0.492768	1.00723	-0.00739232	-0.00141115	0.0977492	1	3.00238e-05	4.02929e-05	2.69338e-05	0.00600476	0.00805858	0.00538677	0	0	0	0	0.0765796	0.506663	-0.989581	33.8125	1	40902	4140277
14	-0.78079	-0.380798	9.82308	-0.00610023	-0.737529	1.04945	-0.00782966	-0.00380279	0.0982293	1	-2.82997e-05	-0.000111661	2.37622e-05	-0.00565993	-0.0223321	0.00475244	0	0	0	0	0.080624	0.513582	-0.996517	33.8125	1	40905	4140577
15	-0.954983	-0.289041	9.82913	-0.215785	-0.68245	1.06512	-0.00955334	-0.0029155	0.0982902	1	0.000124813	-1.86928e-05	2.91379e-05	0.0249626	-0.00373856	0.00582757	0	0	0	0	0.0756178	0.508116	-0.988535	33.8125	1	40908	4140877
16	-0.667692	-0.0558198	9.83972	0.0436251	-0.403476	1.02697	-0.00670053	-0.00056009	0.0983956	1	8.75472e-06	-0.00012005	1.26257e-05	0.00175094	-0.0240099	0.00252514	0	0	0	0	0.0776827	0.510273	-1.00112	33.8125	1	40912	4141277
17	-0.95725	-0.11999	9.76245	-0.166452	-0.473878	1.06895	-0.00959465	-0.00119916	0.0976224	1	-6.97679e-06	-0.000113855	3.24182e-05	-0.00139536	-0.0227711	0.00648364	0	0	0	0	0.0789453	0.510527	-0.988496	33.8125	1	40915	4141577
18	-1.06798	-0.718309	9.78668	-0.265086	-1.10057	1.07461	-0.0106705	-0.00712422	0.0978721	1	-0.00030546	4.41844e-05	4.34147e-05	-0.061092	0.00883688	0.00868294	0	0	0	0	0.0792082	0.509719	-0.998112	33.8125	1	40918	4141877
19	-0.705384	0.313924	9.7863	0.0991071	-0.141421	1.0108	-0.00705458	0.00303632	0.0978662	1	0.000525994	-3.85568e-06	-1.99024e-06	0.105199	-0.000771135	-0.000398047	0	0	0	0	0.0812607	0.511537	-0.991515	33.8125	1	40922	4142277
20	-0.65289	-0.0912254	9.80122	0.129901	-0.523647	1.02925	-0.00653262	-0.000947996	0.0980116	1	0.000180421	-1.91999e-05	2.8721e-05	0.0360842	-0.00383997	0.0057442	0	0	0	0	0.0769003	0.506776	-0.996146	33.8125	1	40925	4142577
21	-0.709845	0.00925202	9.76752	0.0847344	-0.400233	0.997986	-0.00710528	6.95687e-05	0.0976748	1	0.000117062	-3.49433e-05	5.87963e-06	0.0234123	-0.00698865	0.00117593	0	0	0	0	0.0812038	0.513506	-0.992481	33.8125	1	40928	4142877
22	-0.566281	-0.0873106	9.91259	0.235241	-0.473969	1.04592	-0.00566415	-0.000878244	0.0991257	1	2.41453e-05	-7.044e-06	3.09459e-05	0.00482905	-0.0014088	0.00618918	0	0	0	0	0.0766204	0.505669	-0.988594	33.8125	1	40932	4143277
23	-0.791993	-0.0633249	9.51713	0.0465335	-0.488835	0.780854	-0.0079302	-0.00062893	0.0951705	1	-2.61097e-05	-5.42284e-05	4.10062e-05	-0.00522195	-0.0108457	0.00820123	0	0	0	0	0.0786174	0.51414	-0.999526	33.8125	1	40935	4143577
24	-0.661705	-0.117284	9.87532	0.0853559	-0.543612	1.08988	-0.00660951	-0.00118016	0.0987536	1	3.60834e-05	3.80076e-05	1.4663e-05	0.00721669	0.00760152	0.00293259	0	0	0	0	0.0766161	0.505191	-0.989109	33.8125	1	40938	4143877
25	-0.675268	-0.15557	9.88593	0.0445779	-0.515688	0.967823	-0.0067482	-0.00155184	0.0988596	1	-2.02842e-05	2.25286e-05	1.08948e-05	-0.00405684	0.00450572	0.00217896	0	0	0	0	0.0781838	0.508327	-1.00167	33.8125	1	40942	4144277
26	-0.80882	-0.0798103	9.69753	0.0158003	-0.498662	0.935607	-0.00808854	-0.000803627	0.0969752	1	2.8234e-05	-1.79908e-06	2.92783e-06	0.00564681	-0.000359816	0.000585566	0	0	0	0	0.0789661	0.511476	-0.98696	33.8125	1	40945	4144577
27	-0.786626	-0.136499	9.78169	-0.000400282	-0.535788	0.99519	-0.00786355	-0.0013811	0.0978169	1	8.09151e-05	1.36055e-05	1.7695e-05	0.016183	0.00272109	0.003539	0	0	0	0	0.0767414	0.511229	-0.999582	33.8125	1	40948	4144877
28	-0.569677	-0.123746	9.78479	0.233468	-0.519457	1.05833	-0.00570909	-0.00124821	0.097847	1	5.3739e-05	-6.32093e-05	1.97709e-05	0.0107478	-0.0126419	0.00395418	0	0	0	0	0.0788471	0.512045	-0.991493	33.8125	1	40952	4145277
29	-0.829353	-0.0213186	9.83292	-0.0396644	-0.463488	1.17887	-0.00830511	-0.000230095	0.0983282	1	8.55494e-05	-5.8895e-05	5.11801e-06	0.0171099	-0.011779	0.0010236	0	0	0	0	0.0759381	0.506784	-0.996142	33.8125	1	40955	4145577
30	-0.669425	-0.149227	9.77666	0.128165	-0.590743	1.00499	-0.00667215	-0.00150377	0.0977679	1	5.77453e-05	0.000112773	1.57251e-05	0.0115491	0.0225545	0.00314502	0	0	0	0	0.0802169	0.513532	-0.993486	33.8125	1	40958	4145877
31	-0.631348	-0.0838354	9.89271	0.119001	-0.521872	1.22724	-0.00630998	-0.000845838	0.0989273	1	3.64152e-05	1.75075e-05	2.21107e-05	0.00728304	0.00350151	0.00442213	0	0	0	0	0.0775129	0.506194	-0.991111	33.8125	1	40962	4146277
32	-0.676601	-0.098663	9.78301	0.0923078	-0.520558	1.14493	-0.00676959	-0.000996622	0.0978297	1	4.90776e-05	-1.86265e-05	2.88014e-05	0.00981552	-0.00372531	0.00576028	0	0	0	0	0.0801092	0.511201	-0.999598	33.8125	1	40965	4146577
33	-0.812359	-0.0821301	9.76742	-0.0621083	-0.620792	1.10467	-0.00812378	-0.000824897	0.0976741	1	1.64718e-05	-1.16157e-06	2.32653e-05	0.00329435	-0.000232314	0.00465306	0	0	0	0	0.0765468	0.507169	-0.99058	33.8125	1	40968	4146877
34	-0.8315	-0.0458787	9.80886	-0.026477	-0.46768	1.05535	-0.00831124	-0.000466768	0.0980889	1	3.84691e-05	1.90217e-05	2.61126e-05	0.00769383	0.00380433	0.00522253	0	0	0	0	0.0782246	0.507333	-1.00069	33.8125	1	40972	4147277
35	-0.728982	-0.107782	9.74967	0.0330905	-0.498428	0.873934	-0.00729474	-0.00108896	0.0974962	1	5.63131e-05	-2.53562e-05	1.134e-05	0.0112626	-0.00507125	0.002268	0	0	0	0	0.0789249	0.511024	-0.98899	33.8125	1	40975	4147577
36	-0.805079	-0.120973	9.82266	-0.0502018	-0.530857	1.09818	-0.00804815	-0.00122019	0.0982267	1	5.22268e-05	1.32613e-05	1.27037e-05	0.0104454	0.00265225	0.00254075	0	0	0	0	0.0772344	0.509771	-1.00012	33.8125	1	40978	4147877
37	-0.716818	-0.0443209	9.73658	0.0634	-0.510589	0.92578	-0.00717517	-0.0004568	0.0973653	1	6.88285e-05	-3.59472e-05	1.31651e-05	0.0137657	-0.00718943	0.00263302	0	0	0	0	0.0782634	0.513087	-0.995002	33.8125	1	40982	4148277
38	-0.83011	-0.0994608	9.75551	-0.0326317	-0.540504	0.987371	-0.00830113	-0.000998493	0.097555	1	1.73469e-05	-4.54237e-07	3.01413e-05	0.00346938	-9.08475e-05	0.00602826	0	0	0	0	0.076452	0.506274	-0.995145	33.8125	1	40985	4148577
39	-0.787476	-0.0645912	9.77487	-0.0106625	-0.514451	0.982744	-0.00788165	-0.000655583	0.0977481	1	4.86691e-05	-3.53232e-05	9.89246e-06	0.00973382	-0.00706463	0.00197849	0	0	0	0	0.0797443	0.514493	-0.992452	33.8125	1	40988	4148877
40	-0.667538	-0.126667	9.77727	0.12603	-0.583195	0.990053	-0.00668206	-0.00127674	0.0977721	1	5.02208e-05	-3.44177e-05	1.83101e-05	0.0100442	-0.00688353	0.00366202	0	0	0	0	0.0746632	0.506191	-0.989583	33.8125	1	40992	4149277
41	-0.671723	-0.091261	9.80031	0.105362	-0.547659	1.00838	-0.00671873	-0.000925613	0.0980029	1	6.40394e-05	-7.96093e-06	3.34888e-05	0.0128079	-0.00159219	0.00669777	0	0	0	0	0.0800276	0.513188	-1.00157	33.8125	1	40995	4149577
42	-0.793782	-0.111804	9.77215	-0.0179849	-0.574688	0.993685	-0.00794342	-0.0011274	0.097721	1	4.59556e-05	-2.89398e-05	2.33829e-05	0.00919112	-0.00578797	0.00467658	0	0	0	0	0.0742029	0.507144	-0.988045	33.8125	1	40998	4149877
43	-0.677053	-0.0665406	9.78936	0.0984615	-0.535809	1.00297	-0.00677329	-0.000673323	0.0978934	1	4.06913e-05	-1.40873e-05	-3.71029e-06	0.00813827	-0.00281746	-0.000742058	0	0	0	0	0.0772628	0.508786	-0.999639	33.8125	1	41002	4150277
44	-0.678492	-0.0966189	9.78064	0.0948439	-0.564741	0.993299	-0.00678887	-0.000978788	0.097806	1	6.30169e-05	-2.04408e-05	2.00833e-05	0.0126034	-0.00408816	0.00401667	0	0	0	0	0.0784476	0.510061	-0.989514	33.8125	1	41005	4150577
45	-0.741691	-0.0519418	9.77196	0.0368733	-0.528137	0.983937	-0.00742215	-0.000533075	0.0977191	1	6.80479e-05	-2.69454e-05	2.41192e-05	0.0136096	-0.00538908	0.00482384	0	0	0	0	0.0762593	0.508343	-1.00166	33.8125	1	41008	4150877
46	-0.720461	-0.0871767	9.78506	0.0583116	-0.556171	0.992587	-0.00720514	-0.000877794	0.0978505	1	2.90667e-05	-2.88167e-06	2.35102e-05	0.00581333	-0.000576334	0.00470204	0	0	0	0	0.0792461	0.512582	-0.994513	33.8125	1	41012	4151277
47	-0.747981	-0.0922149	9.78284	0.0263767	-0.577533	1.00284	-0.0074821	-0.000932966	0.0978281	1	5.49462e-05	-1.17495e-05	4.40171e-06	0.0109892	-0.0023499	0.000880342	0	0	0	0	0.0750167	0.505799	-0.995149	33.8125	1	41015	4151577
48	-0.728674	-0.0814458	9.79297	0.0481787	-0.561652	1.0019	-0.00728722	-0.000820921	0.0979296	1	3.11209e-05	-2.62845e-06	2.52035e-05	0.00622419	-0.000525689	0.00504071	0	0	0	0	0.0796949	0.51453	-0.994472	33.8125	1	41018	4151877
49	-0.700157	-0.119756	9.78567	0.0704767	-0.608419	1.00261	-0.00700163	-0.00120964	0.0978565	1	6.06906e-05	-4.48612e-07	1.43552e-05	0.0121381	-8.97224e-05	0.00287103	0	0	0	0	0.075169	0.506169	-0.988576	33.8125	1	41022	4152277
50	-0.78157	-0.102675	9.78975	-0.0105744	-0.583315	0.995396	-0.00781547	-0.0010329	0.0978975	1	2.99141e-05	9.50154e-07	1.88145e-05	0.00598282	0.000190031	0.0037629	0	0	0	0	0.0780988	0.512726	-1.00208	33.8125	1	41025	4152577
51	-0.736819	-0.117426	9.7951	0.0407512	-0.61133	1.0161	-0.00736896	-0.00118736	0.0979507	1	6.48592e-05	-4.27106e-06	2.66766e-05	0.0129718	-0.000854213	0.00533532	0	0	0	0	0.0746143	0.507673	-0.99056	33.8125	1	41028	4152877
52	-0.747636	-0.0773793	9.75684	0.0262778	-0.57165	0.970748	-0.00747717	-0.000783173	0.0975682	1	4.70653e-05	-4.24486e-06	1.31392e-05	0.00941306	-0.000848971	0.00262784	0	0	0	0	0.0763125	0.50734	-1.00017	33.8125	1	41032	4153277
53	-0.532247	-0.0372366	9.76148	0.269262	-0.534547	0.968683	-0.00532387	-0.00038392	0.0976147	1	5.80302e-05	-7.24389e-06	2.11814e-05	0.011606	-0.00144878	0.00423629	0	0	0	0	0.0789087	0.512	-0.988968	33.8125	1	41035	4153577
54	-0.705479	-0.064746	9.78157	0.0216648	-0.568429	0.988686	-0.00708751	-0.000657373	0.0978132	1	5.00883e-05	-0.000167352	8.03566e-06	0.0100177	-0.0334703	0.00160713	0	0	0	0	0.0772875	0.508768	-0.998629	33.8125	1	41038	4153877
55	-0.75044	-0.0824554	9.76302	-0.00485347	-0.56708	0.958065	-0.00752934	-0.000830601	0.0976283	1	2.81445e-05	-0.000128007	3.67049e-05	0.0056289	-0.0256013	0.00734097	0	0	0	0	0.0811013	0.514545	-0.995993	33.8125	1	41042	4154277
56	-0.918076	-0.108435	9.76152	-0.161269	-0.595926	0.990554	-0.00919094	-0.00108683	0.0976142	1	1.15004e-05	-5.23069e-05	1.30583e-05	0.00230007	-0.0104614	0.00261166	0	0	0	0	0.0750124	0.50532	-0.995665	33.8125	1	41045	4154577
57	-0.754048	-0.0771456	9.788	0.0366265	-0.587775	0.992097	-0.00751673	-0.000800391	0.0978816	1	0.000145512	0.000121096	2.98493e-05	0.0291024	0.0242192	0.00596986	0	0	0	0	0.0792138	0.514534	-0.994469	33.8125	1	41048	4154877
58	-0.705175	-0.0941042	9.79539	0.098856	-0.600268	1.01258	-0.00704388	-0.000944568	0.0979544	1	1.68012e-05	3.99964e-05	1.66393e-05	0.00336023	0.00799929	0.00332786	0	0	0	0	0.075634	0.507141	-0.988556	33.8125	1	41052	4155277
59	-0.714863	-0.0818737	9.80343	0.0391441	-0.584177	1.0061	-0.00715892	-0.000829222	0.0980335	1	5.13623e-05	-5.27232e-05	2.89683e-05	0.0102725	-0.0105446	0.00579367	0	0	0	0	0.0775973	0.513226	-1.00257	33.8125	1	41055	4155577
60	-0.740627	-0.149849	9.77829	0.0111972	-0.654575	0.985417	-0.00741895	-0.00150764	0.0977818	1	4.47764e-05	-6.52743e-05	2.60698e-05	0.00895528	-0.0130549	0.00521395	0	0	0	0	0.074183	0.509086	-0.987496	33.8125	1	41058	4155877
61	-0.835618	-0.0796551	9.81552	-0.0617649	-0.586817	1.02969	-0.00837451	-0.000807881	0.0981535	1	5.49303e-05	-9.36669e-05	3.26376e-05	0.0109861	-0.0187334	0.00652752	0	0	0	0	0.0767774	0.508312	-1.00015	33.8125	1	41062	4156277
62	-0.754493	-0.102891	9.76789	0.0078821	-0.607531	0.989162	-0.00754911	-0.00103484	0.0976785	1	2.87129e-05	-2.16159e-05	2.13419e-05	0.00574258	-0.00432317	0.00426839	0	0	0	0	0.0789002	0.511042	-0.99	33.8125	1	41065	4156577
63	-0.866728	-0.108731	9.71663	-0.0855089	-0.641092	0.960379	-0.00865853	-0.00110448	0.0971669	1	8.63487e-05	4.47724e-05	2.25111e-05	0.0172697	0.00895449	0.00450222	0	0	0	0	0.0748326	0.508824	-1.00064	33.8125	1	41068	4156877
64	-0.629364	-0.094549	9.77689	0.107923	-0.615987	0.956127	-0.0062793	-0.000958583	0.0977697	1	6.60091e-05	7.32114e-05	1.47381e-05	0.0132018	0.0146423	0.00294763	0	0	0	0	0.0801386	0.513107	-0.99703	33.8125	1	41072	4157277
65	-0.454344	-0.124357	9.83311	0.381321	-0.659501	1.0688	-0.00451522	-0.00126061	0.0983321	1	8.68599e-05	0.000143562	-4.3421e-06	0.017372	0.0287124	-0.000868421	0	0	0	0	0.0730884	0.506781	-0.994613	33.8125	1	41075	4157577
66	-0.170524	-0.103134	9.91728	0.635073	-0.618615	1.11609	-0.00173166	-0.00103552	0.0991722	1	2.08748e-05	-0.000133358	1.14387e-05	0.00417496	-0.0266716	0.00228775	0	0	0	0	0.08106	0.514093	-0.998023	33.8125	1	41078	4157877
67	-0.646849	-0.0590377	9.78599	0.10493	-0.584284	1.01126	-0.00650437	-0.000608256	0.0978574	1	9.04663e-05	-0.000183369	1.33347e-05	0.0180933	-0.0366738	0.00266693	0	0	0	0	0.076515	0.510565	-0.989494	33.8125	1	41082	4158277
68	0.276459	-0.106512	9.92709	1.04427	-0.609606	1.04282	0.00274979	-0.00106636	0.0992713	1	6.80423e-06	-7.47613e-05	2.00576e-05	0.00136085	-0.0149523	0.00401152	0	0	0	0	0.077083	0.512291	-1.00461	33.8125	1	41085	4158577
69	0.175275	-0.13625	9.89089	0.959212	-0.650501	1.01839	0.00173686	-0.00136282	0.0989092	1	1.30026e-06	-8.00827e-05	-1.67126e-05	0.000260051	-0.0160165	-0.00334252	0	0	0	0	0.0738362	0.504655	-0.985068	33.8125	1	41088	4158877
70	0.678232	0.0162176	9.83378	1.34415	-0.493329	0.973833	0.00674757	0.000156841	0.0983402	1	2.53358e-05	-0.0001767	-2.60368e-05	0.00506715	-0.03534	-0.00520735	0	0	0	0	0.0707156	0.506295	-0.993603	33.8125	1	41092	4159277
71	0.336304	-0.203798	10.086	1.03388	-0.785236	1.24073	0.00336863	-0.00209324	0.100859	1	0.000271129	2.94295e-05	-8.34744e-05	0.0542259	0.0058859	-0.0166949	0	0	0	0	0.0731818	0.515869	-0.984311	33.8125	3	41095	4159577
72	0.874391	-0.555289	10.0627	1.61123	-0.99579	1.14585	0.00875657	-0.00550987	0.100628	1	-0.000217504	6.52481e-05	-4.2901e-05	-0.0435008	0.0130496	-0.0085802	0	0	0	0	0.0717153	0.507706	-0.991051	33.8125	3	41098	4159877
73	0.19915	-0.138459	9.86701	0.875279	-0.625787	1.02826	0.00202098	-0.00136926	0.0986697	1	-7.97385e-05	0.000150774	-0.000101377	-0.0159477	0.0301549	-0.0202754	0	0	0	0	0.0773135	0.513086	-0.994493	33.8125	3	41102	4160277
74	0.342903	-0.284389	9.83696	0.995807	-0.831925	0.987259	0.00342848	-0.00285929	0.0983691	1	7.41631e-05	6.69788e-07	-0.000118196	0.0148326	0.000133958	-0.0236392	0	0	0	0	0.0698971	0.505717	-0.988056	33.8125	3	41105	4160577
75	0.546668	-0.00817007	10.0031	1.23074	-0.559427	1.14109	0.00544894	-0.000111088	0.100032	1	0.000140175	-8.8564e-05	-0.000123063	0.0280351	-0.0177128	-0.0246126	0	0	0	0	0.0739951	0.513078	-0.992457	33.8125	3	41108	4160877
76	0.315468	0.0596352	9.7983	1.03991	-0.474788	0.887187	0.0031248	0.000576435	0.097984	1	9.72183e-05	-0.000153299	-0.000137935	0.0194437	-0.0306598	-0.027587	0	0	0	0	0.0694956	0.510481	-0.981383	33.8125	3	41112	4161277
77	0.163126	-0.466484	10.0462	0.820651	-0.9693	1.19052	0.00164239	-0.00464731	0.100463	1	-8.96167e-05	6.20503e-05	-0.000143502	-0.0179233	0.0124101	-0.0287004	0	0	0	0	0.0724568	0.512196	-0.997015	33.8125	3	41115	4161577
78	0.000450203	-0.332999	9.92268	0.648687	-0.907629	1.06783	-1.18788e-05	-0.00336333	0.0992256	1	0.000168005	-7.8745e-05	-0.000112599	0.0336009	-0.015749	-0.0225197	0	0	0	0	0.0713869	0.509525	-0.983433	33.8125	3	41118	4161877
79	-0.222941	-0.0756325	9.79443	0.33829	-0.677642	0.991195	-0.00224753	-0.000771976	0.0979438	1	8.36088e-05	-9.12209e-05	-0.000162401	0.0167218	-0.0182442	-0.0324802	0	0	0	0	0.0688741	0.50866	-0.988491	33.8125	3	41122	4162277
80	0.0718697	-0.209766	9.96119	0.640647	-0.723104	1.01849	0.000716292	-0.00209847	0.0996119	1	2.99228e-06	-8.88105e-06	-0.000151352	0.000598455	-0.00177621	-0.0302705	0	0	0	0	0.0741193	0.515879	-0.985325	33.8125	3	41125	4162577
81	-0.357309	-0.30536	9.64602	0.233787	-0.986687	0.862546	-0.00352484	-0.00308403	0.096461	1	0.000164522	0.000256032	-0.000185181	0.0329043	0.0512064	-0.0370363	0	0	0	0	0.0692527	0.509695	-0.992005	33.8125	3	41128	4162877
82	-0.161954	-0.351527	9.98792	0.409698	-0.872607	1.08567	-0.00156236	-0.00350679	0.0998804	1	-3.90647e-05	0.000293682	-0.000211614	-0.00781293	0.0587364	-0.0423227	0	0	0	0	0.0725531	0.517426	-0.989324	33.8125	3	41132	4163277
83	0.169586	0.0235731	10.0908	0.592304	-0.521944	1.09824	0.00164784	0.000206916	0.100909	1	0.000139331	-0.000238385	-0.000207967	0.0278662	-0.047677	-0.0415934	0	0	0	0	0.0661188	0.508106	-0.98344	33.8125	3	41135	4163577
84	-0.407153	-0.108738	9.7818	0.256981	-0.684133	0.839333	-0.00407042	-0.00112526	0.0978176	1	0.000202693	8.12358e-06	-0.000218737	0.0405386	0.00162472	-0.0437473	0	0	0	0	0.0707188	0.516412	-0.986307	33.8125	3	41138	4163877
85	-0.466355	-0.126423	9.72409	0.00409983	-0.678968	0.730057	-0.00466877	-0.00131053	0.09724	1	0.000249495	-2.3713e-05	-0.000237479	0.049899	-0.00474261	-0.0474957	0	0	0	0	0.0700683	0.513783	-0.975251	33.8125	3	41142	4164277
86	-0.0220123	-0.232219	9.36906	0.707026	-0.830036	0.690483	-0.000151379	-0.00233974	0.0936903	1	9.42255e-05	0.000373787	-0.000278054	0.0188451	0.0747574	-0.0556108	0	0	0	0	0.0668409	0.515984	-0.987814	33.8125	3	41145	4164577
87	0.181655	0.0693856	10.0412	0.670305	-0.469	1.02997	0.00182266	0.00065344	0.100412	1	0.000197294	2.8949e-05	-0.00021835	0.0394587	0.00578979	-0.0436699	0	0	0	0	0.0666805	0.515753	-0.974687	33.8125	3	41148	4164877
88	0.25052	-0.0221057	10.3351	0.643665	-0.682667	1.43875	0.0024841	-0.000273762	0.103351	1	0.000249103	-0.000101468	-0.000243435	0.0498206	-0.0202936	-0.0486869	0	0	0	0	0.0631723	0.513956	-0.981782	33.8125	3	41152	4165277
89	-0.177703	-0.534348	10.2164	0.250148	-1.14484	1.43628	-0.00183218	-0.00537363	0.102161	1	0.000152409	-0.000255539	-0.00027407	0.0304818	-0.0511079	-0.0548139	0	0	0	0	0.0689532	0.524504	-0.973998	33.8125	3	41155	4165577
90	-0.19235	0.173689	9.91059	0.328926	-0.474915	0.868715	-0.00193951	0.0016749	0.0991066	1	0.000317859	-8.53186e-05	-0.000264262	0.0635718	-0.0170637	-0.0528524	0	0	0	0	0.0618447	0.515811	-0.975673	33.8125	3	41158	4165877
91	0.0369816	-0.0916542	10.4187	0.700021	-0.604438	1.4819	0.00030774	-0.000872038	0.104187	1	-0.000214563	-0.000295305	-0.000302969	-0.0429126	-0.0590609	-0.0605938	0	0	0	0	0.0636243	0.52602	-0.974445	33.8125	3	41162	4166277
92	-0.0724123	0.0672912	10.6285	0.544782	-0.5144	1.80187	-0.000797147	0.00075351	0.106284	1	-0.000376744	-0.000345794	-0.000337736	-0.0753489	-0.0691589	-0.0675471	0	0	0	0	0.0591197	0.520054	-0.96597	33.8125	3	41165	4166577
93	-0.0580999	-0.217783	10.0953	0.606894	-0.829596	1.33377	-0.000589843	-0.0022505	0.100952	1	0.000361853	-3.64074e-05	-0.000337205	0.0723705	-0.00728148	-0.067441	0	0	0	0	0.0636342	0.531314	-0.970286	33.8125	3	41168	4166877
94	-0.236451	0.0977016	9.59849	0.280865	-0.612315	0.84998	-0.00237179	0.000892305	0.0959856	1	0.000450023	-4.13434e-05	-0.000354656	0.0900046	-0.00826868	-0.0709312	0	0	0	0	0.0562566	0.529698	-0.958167	33.8125	3	41172	4167277
95	0.266741	0.229919	10.3081	0.665508	-0.5352	1.7877	0.0025582	0.00226987	0.103084	1	0.000133274	-0.000537538	-0.000353532	0.0266548	-0.107508	-0.0707064	0	0	0	0	0.0559862	0.532787	-0.967188	33.8125	3	41175	4167577
96	-0.325304	-0.19855	9.55514	0.300782	-0.861707	0.850198	-0.00322316	-0.00200955	0.0955519	1	0.000139212	0.000164629	-0.000394449	0.0278423	0.0329257	-0.0788899	0	0	0	0	0.0534254	0.535946	-0.951449	33.8125	3	41178	4167877
97	0.235487	-0.00847311	9.81206	0.852554	-0.53521	1.05255	0.00238084	7.08143e-06	0.09812	1	-0.000476317	0.000132496	-0.000350603	-0.0952635	0.0264992	-0.0701206	0	0	0	0	0.047438	0.535668	-0.960519	33.8125	3	41182	4168277
98	-0.55059	-0.170425	9.54679	-0.12932	-0.774693	0.610322	-0.00550558	-0.00168025	0.0954684	1	-0.000102719	8.75702e-06	-0.000398561	-0.0205438	0.0017514	-0.0797122	0	0	0	0	0.0517836	0.54574	-0.952739	33.8125	3	41185	4168577
99	-0.346616	-0.920713	10.3589	0.126545	-1.68234	1.5127	-0.00347401	-0.00916087	0.103593	1	-0.00020918	-6.51365e-07	-0.000419708	-0.0418361	-0.000130273	-0.0839416	0	0	0	0	0.0451078	0.53997	-0.954352	33.8125	3	41188	4168877
100	-0.315009	0.91538	9.66396	-0.0509421	0.294702	0.57475	-0.00320033	0.00905963	0.0966468	1	0.000499486	-0.000295264	-0.000374783	0.0998971	-0.0590528	-0.0749567	0	0	0	0	0.0454598	0.54777	-0.95418	33.8125	3	41192	4169277
101	0.0932846	-0.175819	9.37584	0.420536	-0.676761	0.148625	0.000932126	-0.00173227	0.0937589	1	-0.000142624	4.40245e-06	-0.000442846	-0.0285249	0.00088049	-0.0885693	0	0	0	0	0.0391175	0.543202	-0.941121	33.8125	3	41195	4169577
102	-0.18388	-0.826186	9.90552	0.320838	-1.35905	0.971831	-0.00174712	-0.00819683	0.0990623	1	-0.000320911	0.000496376	-0.000404759	-0.0641821	0.0992752	-0.0809519	0	0	0	0	0.0417271	0.551091	-0.947018	33.8125	3	41198	4169877
103	-0.145729	0.318617	9.49052	0.495765	-0.53635	0.754167	-0.00135055	0.00309692	0.0949097	1	0.000475493	0.000550525	-0.000357925	0.0950986	0.110105	-0.0715849	0	0	0	0	0.0339457	0.547013	-0.933436	33.8125	3	41202	4170277
104	-0.83866	-0.615497	9.99786	-0.526744	-1.10203	1.00131	-0.00842359	-0.00610933	0.0999782	1	-0.000193115	-0.000159378	-0.000417534	-0.0386231	-0.0318756	-0.0835069	0	0	0	0	0.0330698	0.547306	-0.949588	33.8125	3	41205	4170577
105	-0.899935	-0.103215	9.80376	-0.453735	-0.684935	1.03266	-0.00897585	-0.000991754	0.0980401	1	-0.00016671	0.000124288	-0.000428877	-0.0333419	0.0248577	-0.0857753	0	0	0	0	0.0344315	0.548933	-0.931881	33.8125	3	41208	4170877
106	-0.706407	-0.241061	9.67059	-0.309711	-0.882444	0.641678	-0.00705364	-0.00242313	0.0967064	1	9.14551e-05	6.30958e-05	-0.000365626	0.018291	0.0126192	-0.0731252	0	0	0	0	0.0291208	0.542726	-0.937045	33.8125	3	41212	4171277
107	0.490348	-0.119869	11.4408	0.772731	-0.767604	2.32873	0.00483515	-0.00117907	0.114411	1	-0.000100991	-0.000294871	-0.000358618	-0.0201982	-0.0589741	-0.0717236	0	0	0	0	0.0301223	0.549918	-0.930324	33.8125	3	41215	4171577
108	0.160959	-0.0943425	10.2947	0.561903	-0.695071	1.43902	0.00151743	-0.000874481	0.102949	1	-0.000340768	-0.000444177	-0.000389892	-0.0681535	-0.0888354	-0.0779785	0	0	0	0	0.0221498	0.539715	-0.928998	33.8125	3	41218	4171877
109	-0.154786	0.133749	9.72856	0.339661	-0.719312	0.727994	-0.00147621	0.00134053	0.0972867	1	-9.32465e-06	0.000362686	-0.000403544	-0.00186493	0.0725371	-0.0807088	0	0	0	0	0.0272632	0.546066	-0.931911	33.8125	3	41222	4172277
110	-0.878375	0.17361	9.18272	-0.3741	-0.481335	0.463522	-0.00869245	0.0017057	0.0918365	1	0.000204746	0.000489403	-0.000412596	0.0409493	0.0978806	-0.0825191	0	0	0	0	0.0229152	0.540949	-0.916348	33.8125	3	41225	4172577
111	-0.269217	-0.925534	9.47078	-0.0342989	-1.6143	0.662637	-0.00268614	-0.0093596	0.0946977	1	0.000560843	6.78131e-05	-0.000365802	0.112169	0.0135626	-0.0731605	0	0	0	0	0.0263384	0.547493	-0.92935	33.8125	3	41228	4172877
112	0.165731	-0.274713	10.3568	0.381807	-1.05578	1.36328	0.00158347	-0.00284808	0.103567	1	0.000481484	-0.000346298	-0.000376682	0.0962967	-0.0692596	-0.0753364	0	0	0	0	0.0245521	0.541759	-0.907751	33.8125	3	41232	4173277
113	-0.113497	-0.207537	10.1426	0.22735	-0.923587	1.41879	-0.00116906	-0.00212992	0.101425	1	0.000273315	-0.00016007	-0.000386356	0.0546631	-0.032014	-0.0772713	0	0	0	0	0.0219406	0.540966	-0.916848	33.8125	3	41235	4173577
114	-0.332166	-0.511657	10.5268	0.0193173	-1.16836	1.69393	-0.00330326	-0.00509801	0.10527	1	-7.45853e-05	0.000108303	-0.000430488	-0.0149171	0.0216605	-0.0860976	0	0	0	0	0.0246687	0.546493	-0.899566	33.8125	3	41238	4173877
115	-0.0789893	-0.0764572	10.1415	0.346299	-0.638507	1.21948	-0.000781217	-0.00068415	0.101416	1	-0.000393148	4.58622e-05	-0.000432507	-0.0786295	0.00917245	-0.0865015	0	0	0	0	0.0199663	0.539225	-0.900211	33.8125	3	41242	4174277
116	0.0229641	-0.326622	10.6689	0.0842758	-0.662982	1.49407	0.000169515	-0.00329539	0.106688	1	0.000135868	-0.000267943	-0.000450022	0.0271737	-0.0535887	-0.0900045	0	0	0	0	0.0266359	0.551264	-0.894418	33.8125	3	41245	4174577
117	-0.857336	-0.975782	9.08191	-0.783249	-1.21924	0.00398874	-0.00849879	-0.00972737	0.0908294	1	-0.000123989	0.000460375	-0.000464708	-0.0247978	0.0920751	-0.0929417	0	0	0	0	0.0198595	0.539438	-0.884549	33.8125	3	41248	4174877
118	0.581499	-0.223523	9.88392	1.07622	-0.905452	0.937576	0.00587726	-0.00224979	0.0988352	1	4.60158e-05	0.0003256	-0.000467765	0.00920316	0.0651199	-0.0935529	0	0	0	0	0.0230289	0.549192	-0.885862	33.8125	3	41252	4175277
119	-0.453887	-0.0450889	9.66279	0.109614	-0.607316	0.971301	-0.00445551	-0.000362019	0.0966321	1	-0.000439259	0.000433184	-0.00044241	-0.0878518	0.0866367	-0.0884819	0	0	0	0	0.0217441	0.542958	-0.863771	33.8125	3	41255	4175577
120	-0.944158	0.550046	8.72662	-0.653078	-0.402557	-0.593163	-0.00946204	0.0055273	0.0872623	1	-9.46068e-05	-0.000151732	-0.000546301	-0.0189214	-0.0303465	-0.10926	0	0	0	0	0.0309821	0.549905	-0.874771	33.8125	3	41258	4175877
121	-0.333947	-0.659295	10.7518	-0.0705796	-1.19155	1.71786	-0.00329566	-0.00656587	0.107521	1	-0.000109949	0.000235389	-0.000517155	-0.0219899	0.0470779	-0.103431	0	0	0	0	0.029412	0.552072	-0.858554	33.8125	3	41262	4176277
122	-0.945795	-0.215324	9.60629	-0.642974	-0.743322	0.785758	-0.00943781	-0.00212693	0.0960654	1	-9.36112e-05	0.000114695	-0.000440694	-0.0187222	0.022939	-0.0881388	0	0	0	0	0.0303159	0.549697	-0.862651	33.8125	3	41265	4176577
123	-1.19906	0.237961	10.0121	-0.981541	-0.428968	1.11637	-0.0118809	0.0023953	0.100134	0.999999	-1.95803e-05	0.000536131	-0.000492976	-0.00391607	0.107226	-0.0985952	0	0	0	0	0.0339152	0.553355	-0.850465	33.8125	3	41268	4176877
124	-0.221286	-0.198143	10.5404	0.0529278	-0.791355	1.55121	-0.00222953	-0.00188119	0.105405	1	-0.000464758	-6.97656e-05	-0.000507727	-0.0929517	-0.0139531	-0.101545	0	0	0	0	0.0302988	0.547434	-0.845024	33.8125	3	41272	4177277
125	-0.483867	-0.272704	10.1013	-0.189285	-0.753732	1.60177	-0.00495277	-0.00261897	0.101011	1	-0.000511972	-0.000552237	-0.000473228	-0.102394	-0.110447	-0.0946457	0	0	0	0	0.0367663	0.557694	-0.848867	33.8125	3	41275	4177577
126	0.176579	-0.967332	9.5604	0.324502	-1.6849	0.624971	0.00167718	-0.00968956	0.095604	1	7.69103e-05	-0.000418485	-0.000443713	0.0153821	-0.083697	-0.0887425	0	0	0	0	0.031857	0.546375	-0.841015	33.8125	3	41278	4177877
127	1.11901	0.124294	11.3661	1.32384	-0.880631	2.0853	0.0111603	0.00130192	0.113663	1	-0.000307745	-0.000136709	-0.000491266	-0.061549	-0.0273419	-0.0982532	0	0	0	0	0.0359536	0.549401	-0.848542	33.8125	3	41282	4178277
128	-0.498099	-0.731023	10.5643	-0.650574	-1.15233	1.24749	-0.00497263	-0.00729177	0.105645	1	-6.364e-05	7.43821e-05	-0.000503833	-0.012728	0.0148764	-0.100767	0	0	0	0	0.0392366	0.540895	-0.83814	33.8125	3	41285	4178577
129	-0.962741	-0.446376	9.93634	-0.775047	-1.06007	1.00672	-0.00963604	-0.00448166	0.0993617	1	0.000137405	-2.14755e-05	-0.000488202	0.027481	-0.0042951	-0.0976404	0	0	0	0	0.0441061	0.54357	-0.85376	33.8125	3	41288	4178877
130	-1.05766	1.24154	10.3553	-0.628347	0.764592	1.45247	-0.0105989	0.0124523	0.103546	1	-0.000129171	-0.000165572	-0.000479172	-0.0258341	-0.0331145	-0.0958343	0	0	0	0	0.0491745	0.537559	-0.847351	33.8125	3	41292	4179277
131	-1.50448	-0.664244	8.94124	-1.38054	-1.19186	-0.0259798	-0.014979	-0.00673686	0.0894164	1	0.000610616	0.000404912	-0.000492142	0.122123	0.0809825	-0.0984284	0	0	0	0	0.0500604	0.530379	-0.855596	33.8125	3	41295	4179577
132	0.0825663	0.178558	10.4074	0.329824	-0.316122	1.07712	0.000744377	0.00173241	0.104076	1	0.000251894	-0.000398493	-0.00047198	0.0503789	-0.0796987	-0.094396	0	0	0	0	0.0541305	0.527294	-0.848612	33.8125	3	41298	4179877
133	-0.20118	0.527963	10.4378	0.103918	0.14965	1.56874	-0.0021178	0.00534058	0.104373	1	-0.000281876	-0.000533813	-0.000510897	-0.0563751	-0.106763	-0.102179	0	0	0	0	0.0532837	0.515171	-0.852413	33.8125	3	41302	4180277
134	0.350368	-1.02591	9.48123	0.665064	-1.89457	0.639816	0.00353382	-0.0102095	0.0948165	1	-0.000281217	0.000216264	-0.000531293	-0.0562435	0.0432527	-0.106258	0	0	0	0	0.057263	0.524547	-0.860304	33.8125	3	41305	4180577
135	1.7677	-0.442543	11.5724	2.04692	-1.35635	2.6666	0.0175613	-0.00430963	0.115746	0.999999	-0.000578609	-0.000480367	-0.00051426	-0.115722	-0.0960734	-0.102852	0	0	0	0	0.0556869	0.507924	-0.857636	33.8125	3	41308	4180877
136	-0.151809	-1.40491	9.56983	-0.13849	-2.02941	0.675196	-0.00159934	-0.0140332	0.0956993	1	-7.47784e-05	-0.000347606	-0.00052403	-0.0149557	-0.0695212	-0.104806	0	0	0	0	0.0581679	0.512534	-0.871182	33.8125	3	41312	4181277
137	-0.565518	0.305821	10.7016	-0.264924	-0.547661	1.91653	-0.00559569	0.00312621	0.107017	1	-0.000285586	0.000260307	-0.000611343	-0.0571173	0.0520614	-0.122269	0	0	0	0	0.0594367	0.506519	-0.862735	33.8125	3	41315	4181577
138	-0.390643	0.354801	9.2807	-0.00359539	-0.335753	0.910373	-0.00395313	0.00349225	0.0928072	1	0.000322951	-0.000271829	-0.000532319	0.0645901	-0.0543658	-0.106464	0	0	0	0	0.059136	0.504812	-0.876408	33.8125	3	41319	4181977
139	0.822512	-0.857991	10.7594	0.693884	-2.0879	1.83465	0.00810264	-0.00871428	0.107593	0.999999	0.000583563	-0.000525913	-0.000538839	0.116713	-0.105183	-0.107768	0	0	0	0	0.0596844	0.509577	-0.870244	33.8125	3	41322	4182277
140	0.0807229	1.02871	9.9829	0.433355	0.127701	1.25443	0.000823835	0.010305	0.0998271	1	-9.41149e-05	2.24309e-05	-0.000588919	-0.018823	0.00448618	-0.117784	0	0	0	0	0.0533944	0.501463	-0.877466	33.8125	3	41325	4182577
141	0.077463	-0.959813	10.6271	0.307533	-1.68612	1.80615	0.000758406	-0.00963679	0.106267	1	0.00017745	-2.06982e-05	-0.000614747	0.03549	-0.00413965	-0.122949	0	0	0	0	0.0550426	0.51225	-0.881275	33.8125	3	41329	4182977
142	-1.06842	-0.461503	9.01086	-0.937834	-1.37101	0.393431	-0.010753	-0.00454454	0.090104	1	-0.000325124	-0.000353409	-0.000554716	-0.0650249	-0.0706819	-0.110943	0	0	0	0	0.0505157	0.500999	-0.877464	33.8125	3	41332	4183277
143	-0.498589	0.510393	8.79568	0.0313914	-0.619796	0.65314	-0.00494633	0.00520975	0.0879528	1	-0.000569707	0.000191788	-0.000564151	-0.113941	0.0383576	-0.11283	0	0	0	0	0.0490628	0.51004	-0.891398	33.8125	3	41335	4183577
144	-0.528962	-0.456164	10.0328	-0.289921	-0.789239	0.991186	-0.00530716	-0.00458726	0.100326	1	0.000155624	-6.33075e-05	-0.000529194	0.0311248	-0.0126615	-0.105839	0	0	0	0	0.0436653	0.502103	-0.881448	33.8125	3	41339	4183977
145	0.0744664	0.507007	9.68258	0.34506	-0.0891475	0.716276	0.000740355	0.00513907	0.0968222	1	-0.000360449	-5.06613e-05	-0.000538825	-0.0720899	-0.0101323	-0.107765	0	0	0	0	0.0400341	0.501842	-0.892548	33.8125	3	41342	4184277
146	-0.721148	-1.55549	9.37075	-1.14343	-2.66486	0.142158	-0.00726776	-0.0154985	0.0937125	1	-0.000256121	-0.000204723	-0.000576823	-0.0512242	-0.0409446	-0.115365	0	0	0	0	0.0340819	0.495408	-0.884583	33.8125	3	41345	4184577
147	-1.22368	-0.916299	8.53405	-1.25333	-1.4532	-0.303043	-0.0122205	-0.00904368	0.0853556	1	-0.000616389	0.000157156	-0.00057629	-0.123278	0.0314311	-0.115258	0	0	0	0	0.0327372	0.495696	-0.900227	33.8125	3	41348	4184877
148	-0.611731	-0.141382	9.34691	-0.533551	-0.338278	0.172311	-0.00602293	-0.00153489	0.0934734	0.999999	0.00068583	0.000514159	-0.000588377	0.137166	0.102832	-0.117675	0	0	0	0	0.0271109	0.492745	-0.896226	33.8125	3	41352	4185277
149	-1.34644	1.27775	8.58673	-0.733409	0.686415	-0.279161	-0.0132945	0.012653	0.0859122	0.999999	0.000820193	0.000898394	-0.000612047	0.164039	0.179679	-0.12241	0	0	0	0	0.0213946	0.478295	-0.904097	33.8125	3	41355	4185577
150	0.272158	-0.538532	10.0436	0.424576	-0.845427	0.927963	0.00266818	-0.00552092	0.100431	1	0.000660112	-0.000235559	-0.000557841	0.132022	-0.0471118	-0.111568	0	0	0	0	0.0197961	0.481794	-0.908052	33.8125	3	41359	4185977
151	-0.622648	0.468585	9.45575	-0.523324	0.0171218	0.217876	-0.00618658	0.00458991	0.0945648	1	0.0005504	0.000178796	-0.00065666	0.11008	0.0357592	-0.131332	0	0	0	0	0.0140304	0.467032	-0.898252	33.8125	3	41362	4186277
152	-0.983546	-0.0388425	10.1087	-1.06972	-0.522863	0.776991	-0.00981463	-0.000413621	0.101089	1	0.000183138	0.000105422	-0.000602009	0.0366276	0.0210844	-0.120402	0	0	0	0	0.013107	0.473142	-0.912254	33.8125	3	41365	4186577
153	-0.134913	0.553271	10.8903	0.275864	-0.257573	2.06294	-0.00137399	0.00543536	0.108908	1	0.000454294	-0.000143606	-0.000585245	0.0908589	-0.0287212	-0.117049	0	0	0	0	0.0111414	0.45983	-0.90345	33.8125	3	41368	4186877
154	-0.323324	-0.375044	11.0905	-0.151089	-1.31031	2.63082	-0.00328882	-0.00373499	0.110904	1	-5.31987e-05	-0.000231707	-0.000559145	-0.0106397	-0.0463414	-0.111829	0	0	0	0	0.00983042	0.462502	-0.916011	33.8125	3	41372	4187277
155	-0.0835246	0.3558	9.93532	0.025407	-0.945387	0.766901	-0.000809116	0.00361101	0.0993515	1	-0.000261352	0.000107903	-0.000654117	-0.0522704	0.0215807	-0.130823	0	0	0	0	0.00205806	0.460827	-0.900355	33.8125	3	41375	4187577
156	-1.86077	0.134044	8.86219	-1.77745	0.622467	-0.504861	-0.0186104	0.00131718	0.0886217	1	0.000257328	-2.46489e-05	-0.000600338	0.0514656	-0.00492978	-0.120068	0	0	0	0	8.85315e-06	0.456598	-0.908521	33.8125	3	41379	4187977
157	0.361725	1.19087	10.588	0.831595	0.0214275	1.86796	0.00359644	0.0117826	0.105894	1	0.00057764	-0.000157455	-0.000529075	0.115528	-0.031491	-0.105815	0	0	0	0	-0.00535043	0.465846	-0.904755	33.8125	3	41382	4188277
158	0.0706675	-0.03152	10.7313	0.235785	-0.794708	1.72598	0.000709141	-0.000391172	0.107313	1	0.000349842	1.35514e-05	-0.00062633	0.0699685	0.00271028	-0.125266	0	0	0	0	-0.00905134	0.46577	-0.898679	33.8125	3	41385	4188577
159	-1.83419	-0.650714	8.03106	-2.01425	-0.670993	-0.958522	-0.0183285	-0.00648056	0.0803158	1	-3.14386e-05	0.000130843	-0.000587192	-0.00628771	0.0261686	-0.117438	0	0	0	0	-0.0127969	0.468002	-0.912754	33.8125	3	41389	4188977
160	-0.0386866	1.27269	10.3035	0.356402	0.430392	1.09296	-0.000444852	0.012686	0.10304	1	0.000200726	-0.000354783	-0.000595214	0.0401451	-0.0709566	-0.119043	0	0	0	0	-0.0168531	0.462189	-0.885591	33.8125	3	41392	4189277
161	-1.48571	0.18803	9.59864	-1.56754	-0.132344	0.216268	-0.0148515	0.0018254	0.0959883	1	0.000385743	1.63918e-05	-0.000644803	0.0771487	0.00327835	-0.128961	0	0	0	0	-0.0179805	0.473267	-0.904532	33.8125	3	41395	4189577
162	0.359686	-0.719847	10.4164	0.902692	-1.8835	2.04197	0.00351454	-0.00709346	0.104174	1	-0.000526141	-0.000350675	-0.000648174	-0.105228	-0.070135	-0.129635	0	0	0	0	-0.0290192	0.467691	-0.887433	33.8125	3	41399	4189977
163	-0.283335	0.845332	10.2639	-0.132141	-0.0234854	1.48841	-0.0029405	0.00845292	0.102636	1	1.8335e-05	-0.000569963	-0.000582876	0.003667	-0.113993	-0.116575	0	0	0	0	-0.0345463	0.466461	-0.898041	33.8125	3	41402	4190277
164	-1.49688	-0.846569	8.74433	-1.57177	-1.40381	-0.284904	-0.0148433	-0.00848452	0.0874629	0.999999	0.000220516	0.000781561	-0.000661958	0.0441032	0.156312	-0.132392	0	0	0	0	-0.0390908	0.464378	-0.88847	33.8125	3	41405	4190577
165	-2.4	0.575835	8.16888	-1.9557	0.406371	-0.91579	-0.0238884	0.00567222	0.0817275	0.999999	0.000730457	0.000634765	-0.000694133	0.146091	0.126953	-0.138827	0	0	0	0	-0.0396159	0.455259	-0.896751	33.8125	3	41409	4190977
166	-1.39077	-0.696247	8.71546	-1.22249	-1.34229	0.259013	-0.0139509	-0.00682256	0.0871588	0.999999	-0.000698905	-0.000196416	-0.000649046	-0.139781	-0.0392832	-0.129809	0	0	0	0	-0.0440543	0.464048	-0.89502	33.8125	3	41412	4191277
167	-1.22309	-0.905558	8.68692	-1.23249	-1.35574	-0.220447	-0.0122982	-0.00900138	0.0868654	1	-0.000230017	-0.000327003	-0.000580561	-0.0460033	-0.0654007	-0.116112	0	0	0	0	-0.0447981	0.452331	-0.894267	33.8125	3	41415	4191577
168	-0.00575031	-0.516784	10.855	0.179473	-1.11423	2.05065	-0.000105289	-0.00510666	0.108553	1	-0.000281299	-0.000189585	-0.000644925	-0.0562598	-0.0379169	-0.128985	0	0	0	0	-0.0507633	0.457338	-0.898674	33.8125	3	41419	4191977
169	-0.442142	-0.515925	10.614	-0.105836	-1.05347	1.8809	-0.00445603	-0.00514752	0.106139	1	-3.29217e-05	-0.000137159	-0.000533185	-0.00658434	-0.0274317	-0.106637	0	0	0	0	-0.0522213	0.449785	-0.884693	33.8125	3	41422	4192277
170	-1.08742	-0.134583	9.7273	-0.890845	-0.551898	0.987137	-0.0108586	-0.00123237	0.0972763	1	-0.000538318	8.57292e-05	-0.000401889	-0.107664	0.0171458	-0.0803779	0	0	0	0	-0.0550559	0.458793	-0.896096	33.8125	3	41425	4192577
171	-0.597589	0.522037	9.71199	-0.43665	0.0310293	0.479995	-0.00592964	0.00529643	0.0971187	1	-0.000369734	0.000218812	-0.000356335	-0.0739467	0.0437624	-0.071267	0	0	0	0	-0.0542673	0.455673	-0.885563	33.8125	3	41429	4192977
172	-1.44687	-0.311175	9.80782	-1.53133	-0.54992	0.389671	-0.0145016	-0.00308064	0.0980744	1	-0.000115276	-0.00015846	-0.000293371	-0.0230551	-0.031692	-0.0586742	0	0	0	0	-0.054468	0.458229	-0.892071	33.8125	3	41432	4193277
173	-2.1691	0.110127	8.75317	-2.39273	-0.139889	-0.791464	-0.0216149	0.000972023	0.087552	0.999999	0.00082747	0.000430599	-0.000361003	0.165494	0.0861199	-0.0722007	0	0	0	0	-0.0570862	0.461911	-0.878341	33.8125	3	41435	4193577
174	-0.588973	-1.12679	10.5531	-0.383407	-1.78753	1.41008	-0.00578471	-0.0112217	0.105542	1	-0.000198323	0.000536632	-0.000366705	-0.0396646	0.107326	-0.073341	0	0	0	0	-0.0623002	0.46238	-0.874771	33.8125	3	41439	4193977
175	-1.27935	0.23745	9.34095	-1.19681	-0.344808	0.646991	-0.0128195	0.00240492	0.0934052	1	-0.000115544	-0.000148028	-0.000345173	-0.0231089	-0.0296056	-0.0690346	0	0	0	0	-0.0638343	0.474505	-0.869949	33.8125	3	41442	4194277
176	0.15245	-0.379912	9.80699	0.237134	-1.20919	0.869607	0.00144427	-0.00369627	0.0980751	1	-0.000529881	-0.00039515	-0.00036298	-0.105976	-0.0790301	-0.072596	0	0	0	0	-0.069248	0.467544	-0.859977	33.8125	3	41445	4194577
177	-1.33499	-0.800987	10.9806	-1.59685	-1.4673	1.69024	-0.0132201	-0.00820217	0.109807	0.999999	0.000915311	0.000615195	-0.000328361	0.183062	0.123039	-0.0656722	0	0	0	0	-0.0718634	0.480246	-0.859683	33.8125	3	41449	4194977
178	-0.493566	-0.370288	11.4781	0.158661	-1.71594	1.99565	-0.00500328	-0.00368896	0.114779	1	-4.52905e-05	-0.000283159	-0.000354344	-0.0090581	-0.0566318	-0.0708688	0	0	0	0	-0.0746499	0.471657	-0.841679	33.8125	3	41452	4195277
179	-1.28593	-0.834887	10.2872	-1.64748	-2.00543	1.35653	-0.0127174	-0.00843686	0.102883	1	0.000475042	0.000720513	-0.000381222	0.0950085	0.144102	-0.0762445	0	0	0	0	-0.0763776	0.48296	-0.84546	33.8125	3	41455	4195577
180	-0.936263	0.582156	9.00225	-0.838304	-0.223786	0.113709	-0.00936229	0.00573041	0.0900284	1	0.000535435	-1.61044e-05	-0.000280504	0.107087	-0.00322088	-0.0561008	0	0	0	0	-0.0807091	0.478313	-0.828876	33.8125	3	41459	4195977
181	-0.270295	-0.305158	8.548	-0.0501709	-0.861083	-0.235745	-0.00274938	-0.00310997	0.0854764	1	0.000352382	-0.00025936	-0.000338977	0.0704763	-0.051872	-0.0677954	0	0	0	0	-0.0792097	0.473441	-0.830002	33.8125	3	41462	4196277
182	0.638651	0.35638	11.4889	1.21704	-0.471649	2.40287	0.0062548	0.00361805	0.114895	1	-0.000252736	-0.000582661	-0.000302335	-0.0505472	-0.116532	-0.060467	0	0	0	0	-0.080226	0.471213	-0.813884	33.8125	3	41465	4196577
183	-0.625259	-0.758131	10.2158	-0.460576	-1.03981	1.29177	-0.00632819	-0.00748998	0.10216	1	-0.000425321	-0.000344028	-0.000352077	-0.0850642	-0.0688056	-0.0704154	0	0	0	0	-0.0751428	0.459892	-0.810624	33.8125	3	41469	4196977
184	-0.559316	-0.328406	9.97627	-0.461447	-1.0228	0.97125	-0.00556325	-0.00329601	0.099764	1	7.49103e-05	0.000158762	-0.000268709	0.0149821	0.0317523	-0.0537418	0	0	0	0	-0.0680258	0.469542	-0.807917	33.8125	3	41472	4197277
185	-1.5085	-0.375527	9.19304	-1.40579	-0.693508	-0.0254419	-0.0150455	-0.00371604	0.0919385	1	-0.000166892	0.000226127	-0.000283649	-0.0333785	0.0452254	-0.0567298	0	0	0	0	-0.0619149	0.457201	-0.802664	33.8125	3	41475	4197577
186	-0.795073	0.133439	10.5643	-0.379384	-0.71581	1.79321	-0.00794283	0.00141543	0.105643	1	-0.000360618	3.34021e-05	-0.000304699	-0.0721235	0.00668041	-0.0609398	0	0	0	0	-0.05776	0.462593	-0.806099	33.8125	3	41479	4197977
187	-0.409623	0.151926	9.89825	-0.198295	-0.469495	1.2887	-0.00417051	0.00150317	0.0989797	1	9.58234e-05	-0.000380552	-0.000348539	0.0191647	-0.0761104	-0.0697079	0	0	0	0	-0.0499615	0.455362	-0.787103	33.8125	3	41482	4198277
188	-0.83748	-0.704089	8.76621	-0.557469	-0.905068	-0.0831685	-0.00828496	-0.00699768	0.0876741	1	-0.00020996	0.000543129	-0.000383917	-0.041992	0.108626	-0.0767833	0	0	0	0	-0.0464713	0.465229	-0.794981	33.8125	3	41485	4198577
189	-0.886521	0.768997	9.52068	-0.655559	0.153036	0.372393	-0.00887158	0.00768111	0.095207	1	8.63617e-05	-6.79662e-05	-0.000427507	0.0172723	-0.0135932	-0.0855013	0	0	0	0	-0.035966	0.461479	-0.780971	33.8125	3	41489	4198977
190	-0.530713	-0.352865	10.1177	-0.659138	-1.06645	0.853611	-0.00528333	-0.00359013	0.101176	1	0.000320084	0.000128569	-0.000311274	0.0640168	0.0257138	-0.0622548	0	0	0	0	-0.0264674	0.460044	-0.787108	33.8125	3	41492	4199277
191	-1.0139	0.518685	9.8059	-0.659	-0.211521	0.884295	-0.0101137	0.00504988	0.0980687	1	0.00073132	0.000112719	-0.000319063	0.146264	0.0225437	-0.0638126	0	0	0	0	-0.0186363	0.465183	-0.777938	33.8125	3	41495	4199577
192	-1.49042	-1.04135	8.66236	-1.75495	-1.57507	-0.055824	-0.0149632	-0.0102571	0.0866321	0.999999	-0.000834627	-0.000293101	-0.00039432	-0.166925	-0.0586203	-0.078864	0	0	0	0	-0.0113711	0.462196	-0.778038	33.8125	3	41499	4199977
193	-0.135616	0.848522	10.1319	0.099213	-0.181608	0.888387	-0.00133741	0.00836637	0.101329	1	0.000590972	6.4634e-05	-0.000335546	0.118194	0.0129268	-0.0671091	0	0	0	0	-0.0087075	0.471973	-0.780359	33.8125	3	41502	4200277
194	-0.257301	0.424342	10.1863	-0.019605	-0.167435	0.823508	-0.00265968	0.00422007	0.101862	1	0.000125287	-0.00044273	-0.000416331	0.0250575	-0.0885461	-0.0832662	0	0	0	0	-0.0012553	0.462103	-0.777582	33.8125	3	41505	4200577
195	-0.72307	0.295395	10.3662	-0.102899	-0.618301	2.02746	-0.00720046	0.00294018	0.103664	1	9.16974e-05	0.000135547	-0.000363409	0.0183395	0.0271094	-0.0726818	0	0	0	0	0.00549499	0.469612	-0.791588	33.8125	3	41509	4200977
196	-0.42804	-0.792564	11.2356	-0.607671	-1.62887	2.27984	-0.0043719	-0.00790707	0.112354	1	-7.02717e-05	-0.000384558	-0.000321373	-0.0140543	-0.0769116	-0.0642746	0	0	0	0	0.0111423	0.460635	-0.783228	33.8125	3	41512	4201277
197	-1.1721	-1.80257	10.4113	-1.1928	-1.40238	1.7637	-0.0117282	-0.0179039	0.104133	1	-0.000551217	1.74099e-05	-0.000299908	-0.110243	0.00348197	-0.0599815	0	0	0	0	0.014976	0.464817	-0.800829	33.8125	3	41515	4201577
198	-0.195654	-0.761689	10.6002	-0.328872	-1.46191	1.66838	-0.00207788	-0.00760957	0.106	1	-3.02836e-05	-0.000556259	-0.000224191	-0.00605672	-0.111252	-0.0448381	0	0	0	0	0.0218778	0.456929	-0.799521	33.8125	3	41519	4201977
199	-0.589373	-0.362939	10.5534	-0.798412	-0.778894	1.06568	-0.00590548	-0.00350638	0.105537	1	-0.000563894	-4.4207e-05	-0.000338153	-0.112779	-0.00884139	-0.0676305	0	0	0	0	0.0265989	0.44539	-0.811416	33.8125	3	41522	4202277
200	0.111145	0.617577	9.86457	0.352875	-0.591347	1.06688	0.00110052	0.00599705	0.0986568	0.999999	0.000902595	-7.31416e-05	-0.000287892	0.180519	-0.0146283	-0.0575785	0	0	0	0	0.0313612	0.446832	-0.812416	33.8125	3	41525	4202577
201	-1.48365	0.338743	9.4982	-1.07438	0.360352	0.720996	-0.0147759	0.00338181	0.0949917	1	8.23773e-05	0.000306729	-0.000338723	0.0164755	0.0613457	-0.0677446	0	0	0	0	0.0389155	0.434826	-0.82686	33.8125	3	41529	4202977
202	-0.322931	-0.064164	9.89932	-0.388948	-0.811967	0.414905	-0.00321185	-0.000750366	0.098993	1	0.000559309	9.03994e-05	-0.000311971	0.111862	0.0180799	-0.0623941	0	0	0	0	0.0433299	0.441822	-0.838341	33.8125	3	41532	4203277
203	-2.36659	0.142595	8.94023	-2.33926	0.276315	-0.199768	-0.0235619	0.00140932	0.0894301	1	0.000182542	0.000576331	-0.00033897	0.0365084	0.115266	-0.0677939	0	0	0	0	0.0506379	0.431094	-0.842148	33.8125	3	41535	4203577
204	-0.962799	-0.407	8.79318	-1.01991	-1.06872	0.159623	-0.00956389	-0.0041238	0.0879363	1	0.000338291	0.000378307	-0.000296681	0.0676583	0.0756614	-0.0593362	0	0	0	0	0.0554339	0.435268	-0.859755	33.8125	3	41539	4203977
205	-1.05573	0.56453	9.63984	-0.579636	-0.13977	1.06685	-0.0106431	0.00565869	0.0963882	1	-3.07824e-05	-0.000465572	-0.000351438	-0.00615649	-0.0931143	-0.0702876	0	0	0	0	0.0576241	0.430239	-0.852301	33.8125	3	41542	4204277
206	-0.835014	-1.24496	9.59533	-1.1559	-2.20791	0.993354	-0.00844841	-0.0123952	0.0959518	1	-0.0002554	-0.000470651	-0.000320092	-0.05108	-0.0941302	-0.0640183	0	0	0	0	0.060051	0.43296	-0.869424	33.8125	3	41545	4204577
207	-2.24057	-0.516873	8.39529	-2.4876	-1.14567	-0.246844	-0.0222954	-0.00523228	0.0839783	0.999999	0.000483522	0.000680947	-0.000394746	0.0967045	0.136189	-0.0789493	0	0	0	0	0.0619683	0.436323	-0.867338	33.8125	3	41549	4204977
208	-0.412535	-1.06696	9.24963	-0.988379	-1.98289	0.0457127	-0.00418704	-0.0106175	0.0924995	1	-0.000266863	-0.000295135	-0.000333063	-0.0533726	-0.0590269	-0.0666127	0	0	0	0	0.0650809	0.435517	-0.878481	33.8125	3	41552	4205277
209	-1.45425	-0.926867	9.72296	-1.27864	-1.23497	1.49121	-0.014513	-0.00927189	0.0972337	1	7.09869e-05	0.000186194	-0.000364286	0.0141974	0.0372389	-0.0728572	0	0	0	0	0.0644816	0.438981	-0.880927	33.8125	3	41555	4205577
210	-0.987105	0.0423256	10.8812	-0.6821	-0.0126925	1.8391	-0.00985056	0.000352687	0.108814	1	0.000346446	9.33247e-05	-0.00024471	0.0692892	0.0186649	-0.0489419	0	0	0	0	0.0619835	0.432804	-0.889133	33.8125	3	41559	4205977
211	-0.759855	0.173505	10.3866	-0.611436	-0.385633	1.27207	-0.00757813	0.00171748	0.103868	1	0.000103434	9.40159e-05	-0.000257685	0.0206868	0.0188032	-0.0515369	0	0	0	0	0.0593335	0.440231	-0.894007	33.8125	3	41562	4206277
212	-0.158235	-1.38981	10.1666	-0.594261	-2.00684	1.3717	-0.00157876	-0.0138534	0.101672	1	-0.000215125	6.12255e-05	-0.000319227	-0.043025	0.0122451	-0.0638453	0	0	0	0	0.0575539	0.430022	-0.895236	33.8125	3	41565	4206577
213	-0.931555	-0.795053	8.28926	-1.25699	-1.28711	-0.553652	-0.00924616	-0.00794475	0.0829009	1	-9.73343e-07	0.000447562	-0.00030286	-0.000194669	0.0895124	-0.060572	0	0	0	0	0.0528049	0.431809	-0.911336	33.8125	3	41569	4206977
214	-0.363946	-0.932278	9.42865	-0.629177	-1.5789	-0.0452754	-0.00364686	-0.00931391	0.0942871	1	-3.6176e-05	-1.15274e-05	-0.000280429	-0.0072352	-0.00230547	-0.0560858	0	0	0	0	0.0535261	0.42392	-0.906969	33.8125	3	41572	4207277
215	-1.01378	1.19141	10.2147	-0.49955	0.85221	0.975075	-0.0100805	0.0118164	0.102164	1	0.00051041	0.000242267	-0.000326492	0.102082	0.0484534	-0.0652983	0	0	0	0	0.0496895	0.424291	-0.926135	33.8125	3	41575	4207577
216	-1.41982	0.0161701	9.00382	-1.32757	-0.468735	0.261974	-0.0142058	0.00010671	0.090037	1	0.000355993	-4.288e-05	-0.00032087	0.0711986	-0.008576	-0.0641741	0	0	0	0	0.0468921	0.420394	-0.925199	33.8125	3	41579	4207977
217	-0.0145382	0.010554	9.60953	0.357489	-0.716217	1.00959	-0.000131685	4.78986e-05	0.0960954	1	0.000300348	7.10283e-05	-0.000299581	0.0600696	0.0142057	-0.0599162	0	0	0	0	0.0463342	0.411781	-0.934479	33.8125	3	41582	4208277
218	-1.38591	-0.32295	8.69387	-1.44322	-0.602526	0.0145836	-0.0137951	-0.00327068	0.0869474	1	0.000288475	0.000380117	-0.000324657	0.057695	0.0760234	-0.0649315	0	0	0	0	0.045834	0.416617	-0.931844	33.8125	3	41585	4208577
219	-0.00301945	0.285842	11.3086	-0.163656	-0.538777	2.25953	-0.000104337	0.00287598	0.113086	1	-7.74505e-05	-0.000335642	-0.000308691	-0.0154901	-0.0671284	-0.0617383	0	0	0	0	0.043532	0.405961	-0.9351	33.8125	3	41589	4208977
220	-0.246156	-0.03033	10.9406	-0.199716	-0.935932	1.72423	-0.00243206	-0.000381357	0.109406	1	0.000362915	0.000135689	-0.000276456	0.072583	0.0271378	-0.0552913	0	0	0	0	0.040258	0.416869	-0.943429	33.8125	3	41592	4209277
221	-1.52071	-1.29448	8.90719	-2.00673	-1.6236	0.237325	-0.0151126	-0.0130805	0.0890681	0.999999	0.000793707	0.000558184	-0.00018797	0.158741	0.111637	-0.0375941	0	0	0	0	0.0429204	0.409433	-0.938051	33.8125	3	41595	4209577
222	-1.16863	-0.742253	8.95563	-1.2418	-0.991728	0.0411632	-0.0116411	-0.00746749	0.0895584	1	0.000283155	0.000272915	-0.000247026	0.056631	0.054583	-0.0494051	0	0	0	0	0.0396621	0.41792	-0.947443	33.8125	3	41599	4209977
223	-1.28369	0.00996839	8.80441	-0.892914	-0.309883	0.315311	-0.0128019	8.93971e-05	0.0880493	1	7.15263e-05	0.000198482	-9.00412e-05	0.0143053	0.0396965	-0.0180082	0	0	0	0	0.0413645	0.417719	-0.936849	33.8125	3	41602	4210277
224	-0.45542	0.66968	10.0533	-0.371354	0.360932	0.831066	-0.00464098	0.00670945	0.100528	1	-6.03691e-05	-0.000435291	-5.53526e-05	-0.0120738	-0.0870582	-0.0110705	0	0	0	0	0.0392312	0.420779	-0.943337	33.8125	3	41605	4210577
225	-1.67897	-0.526317	7.86553	-1.64264	-0.700456	-0.867531	-0.0167193	-0.00537699	0.0786626	1	0.000751868	0.000456274	-0.000133171	0.150374	0.0912548	-0.0266341	0	0	0	0	0.0369029	0.430862	-0.933001	33.8125	3	41609	4210977
226	-0.670632	-0.19462	9.32427	-0.54976	-1.01424	0.778713	-0.00670503	-0.0019817	0.0932421	1	0.000193151	7.75826e-06	-3.86358e-05	0.0386302	0.00155165	-0.00772716	0	0	0	0	0.0359141	0.425107	-0.938175	33.8125	3	41612	4211277
227	-1.80272	0.502385	8.17729	-1.43777	0.372669	-0.624283	-0.0179422	0.00493986	0.0817967	1	0.000527107	0.00051609	-6.17765e-05	0.105421	0.103218	-0.0123553	0	0	0	0	0.0343872	0.433853	-0.935448	33.8125	3	41615	4211577
228	-1.01192	-0.703655	9.65638	-1.04119	-1.25527	0.99005	-0.0100616	-0.00700459	0.0965721	1	-0.000164034	0.00029917	-1.35913e-05	-0.0328069	0.0598341	-0.00271826	0	0	0	0	0.0353651	0.431425	-0.936517	33.8125	3	41619	4211977
229	0.301511	-0.188977	12.6708	0.389017	-1.30708	3.91064	0.00287279	-0.00180878	0.126713	1	-0.000317839	-0.000562683	7.62292e-05	-0.0635679	-0.112537	0.0152458	0	0	0	0	0.0317813	0.437875	-0.940903	33.8125	3	41622	4212277
230	0.340725	-0.195938	10.555	0.28381	-1.22216	1.66579	0.00336146	-0.00200198	0.10555	1	0.000204351	-0.00021841	7.9694e-05	0.0408703	-0.043682	0.0159388	0	0	0	0	0.0349941	0.428457	-0.934056	33.8125	3	41625	4212577
231	-0.0820356	1.23606	10.8039	0.714548	0.346936	1.8261	-0.000796181	0.0122968	0.108046	1	0.000295259	0.000111183	-6.10044e-06	0.0590519	0.0222365	-0.00122009	0	0	0	0	0.0331663	0.435496	-0.945002	33.8125	3	41629	4212977
232	-2.25712	-0.279902	8.62435	-2.30551	-0.190775	-0.457643	-0.0225493	-0.00284896	0.0862476	1	0.00030204	0.000128488	-4.80472e-05	0.0604081	0.0256976	-0.00960944	0	0	0	0	0.0357646	0.433408	-0.938495	33.8125	3	41632	4213277
233	-0.0295596	-0.0404706	9.97563	-0.130931	-1.01082	0.81391	-0.000321226	-0.000443289	0.0997561	1	0.000193257	-0.000128641	4.18262e-05	0.0386513	-0.0257282	0.00836524	0	0	0	0	0.0373773	0.436029	-0.949556	33.8125	3	41635	4213577
234	-0.746099	0.445989	8.99152	-0.517481	-0.31462	0.297234	-0.00748863	0.00438918	0.0899164	1	0.000387671	-0.000150454	6.61663e-05	0.0775343	-0.0300907	0.0132333	0	0	0	0	0.0421742	0.442746	-0.945388	33.8125	3	41639	4213977
235	-0.456557	1.15718	9.89898	0.12913	-0.0878356	1.26704	-0.00453464	0.0115345	0.0989956	1	0.000189112	0.000154574	-1.3913e-05	0.0378224	0.0309149	-0.0027826	0	0	0	0	0.0412671	0.435003	-0.948586	33.8125	3	41642	4214277
236	-1.15839	-1.57272	10.2635	-1.35763	-1.85988	1.42537	-0.0116365	-0.0156278	0.102644	1	-0.000489143	-0.000263039	4.41085e-05	-0.0978287	-0.0526077	0.0088217	0	0	0	0	0.0449147	0.448611	-0.94729	33.8125	3	41645	4214577
237	-0.835282	0.589698	8.75938	-0.657781	0.0576478	-0.292707	-0.00837377	0.00585072	0.0875949	1	0.000256808	-0.000114489	7.58543e-05	0.0513615	-0.0228977	0.0151709	0	0	0	0	0.0469544	0.448993	-0.942241	33.8125	3	41649	4214977
238	0.0412253	-1.20078	10.0483	-0.125339	-1.83871	1.09344	0.000417288	-0.0119675	0.100488	1	-0.00020033	2.46378e-05	3.4971e-06	-0.0400659	0.00492757	0.000699421	0	0	0	0	0.0465553	0.461331	-0.950046	33.8125	3	41652	4215277
239	0.0510093	-0.854678	11.8983	-0.38704	-2.01259	2.99503	0.000424694	-0.00855859	0.118983	1	4.98651e-05	-0.000363031	5.78269e-05	0.00997302	-0.0726062	0.0115654	0	0	0	0	0.0539524	0.459212	-0.944066	33.8125	3	41655	4215577
240	-1.65816	0.642557	9.66799	-1.36686	0.616093	0.774701	-0.0166448	0.00649906	0.0966641	1	-0.000378733	-0.000327632	-7.80984e-06	-0.0757465	-0.0655264	-0.00156197	0	0	0	0	0.0540543	0.469604	-0.952422	33.8125	3	41659	4215977
241	-0.553126	-1.38717	10.2645	-0.904338	-1.97213	1.51989	-0.00554304	-0.0138553	0.102646	1	-7.72582e-05	-5.1643e-05	-4.24346e-05	-0.0154516	-0.0103286	-0.00848692	0	0	0	0	0.0541875	0.474807	-0.943215	33.8125	3	41662	4216277
242	-0.942371	1.54914	9.48397	-0.494606	1.0457	0.437387	-0.00950565	0.0154597	0.0948367	1	0.000164991	-0.000428381	2.19504e-05	0.0329981	-0.0856762	0.00439007	0	0	0	0	0.0553035	0.479853	-0.95321	33.8125	3	41665	4216577
243	-0.837929	0.216138	9.03336	-0.589057	-0.329988	0.248943	-0.0083907	0.00216478	0.0903325	1	-2.19534e-05	-6.23632e-05	3.32206e-05	-0.00439068	-0.0124726	0.00664413	0	0	0	0	0.053831	0.491933	-0.945864	33.8125	3	41669	4216977
244	-0.851068	0.472071	9.83554	-0.436152	-0.148367	1.03962	-0.00848214	0.00476916	0.0983555	1	-0.000244196	0.000143872	-2.47022e-05	-0.0488391	0.0287743	-0.00494044	0	0	0	0	0.0538415	0.486143	-0.949528	33.8125	3	41672	4217277
245	0.396551	0.207968	11.2371	0.300371	-1.30043	2.18197	0.00389237	0.00208103	0.112374	1	-4.50962e-06	-0.000324666	4.25851e-05	-0.000901923	-0.0649332	0.00851703	0	0	0	0	0.0527013	0.495437	-0.950326	33.8125	3	41675	4217577
246	0.243781	0.734009	11.3584	0.621744	-0.0776491	2.73422	0.00245609	0.00726731	0.113588	1	0.000321711	8.44729e-05	6.23521e-05	0.0643421	0.0168946	0.0124704	0	0	0	0	0.0547179	0.487644	-0.952024	33.8125	3	41679	4217977
247	-0.00251024	-0.044852	10.3096	-0.305575	-1.57095	1.43203	-3.94739e-05	-0.000510237	0.103096	1	0.000299299	-7.00231e-05	6.94852e-05	0.0598598	-0.0140046	0.013897	0	0	0	0	0.0528825	0.496616	-0.961917	33.8125	3	41682	4218277
248	-0.936158	-1.05023	9.77086	-0.754864	-1.60118	1.30994	-0.00928481	-0.0103076	0.0977367	0.999999	-0.00099122	0.000398291	-5.1722e-05	-0.198244	0.0796582	-0.0103444	0	0	0	0	0.0559804	0.488246	-0.959087	33.8125	3	41685	4218577
249	-0.962658	0.0931015	9.04799	-0.822962	-0.341192	0.233022	-0.00968497	0.000899149	0.090474	1	0.000164808	-0.000321634	0.000105848	0.0329616	-0.0643268	0.0211695	0	0	0	0	0.0570508	0.492361	-0.971627	33.8125	3	41689	4218977
250	-0.749752	-0.078928	8.81628	-0.778632	-0.702948	-0.200305	-0.00745682	-0.000843463	0.0881657	1	0.000301705	0.000230153	6.57934e-05	0.0603409	0.0460307	0.0131587	0	0	0	0	0.0610891	0.492673	-0.963558	33.8125	3	41692	4219277
251	-0.337484	0.289145	9.4198	-0.363951	-0.604169	0.456011	-0.00341689	0.00283922	0.094198	1	0.000275515	-0.000221771	4.6868e-05	0.055103	-0.0443541	0.00937361	0	0	0	0	0.0622036	0.493383	-0.976679	33.8125	3	41695	4219577
252	-0.871584	-0.995975	9.57891	-1.28326	-1.73773	0.776315	-0.00871841	-0.00996607	0.0957883	1	3.00053e-05	-1.68461e-05	3.30469e-05	0.00600105	-0.00336923	0.00660938	0	0	0	0	0.0659813	0.502077	-0.973472	33.875	3	41699	4219977
253	-1.4859	-0.900561	8.70058	-1.96021	-1.15081	-0.405056	-0.0148226	-0.00900123	0.0870125	1	-3.19298e-05	0.000205069	3.94259e-05	-0.00638595	0.0410138	0.00788518	0	0	0	0	0.071712	0.497241	-0.978657	33.875	3	41702	4220277
254	-0.756803	0.464089	9.19461	-0.522492	0.0180833	-0.0195718	-0.00760221	0.00460056	0.0919453	1	0.000219315	-0.000185868	2.10492e-07	0.0438631	-0.0371737	4.20984e-05	0	0	0	0	0.0734381	0.507008	-0.979963	33.875	3	41705	4220577
255	-0.247947	0.453234	10.2646	0.210356	-0.828452	1.88809	-0.00253797	0.00449912	0.102646	1	0.000159173	-0.00028024	0.000108046	0.0318346	-0.0560481	0.0216091	0	0	0	0	0.0792803	0.503536	-0.979562	33.875	3	41709	4220977
256	0.139504	-0.132909	11.0984	0.658036	-1.09492	3.3119	0.00129296	-0.00119477	0.110987	1	-0.000604731	-0.000460264	3.34155e-05	-0.120946	-0.0920528	0.00668311	0	0	0	0	0.0813105	0.512946	-0.988453	33.875	3	41712	4221277
257	-0.864514	-0.566826	10.8927	-0.933839	-1.00377	2.16605	-0.00862106	-0.00555904	0.108935	1	-0.000500692	0.000110953	-8.29435e-06	-0.100138	0.0221907	-0.00165887	0	0	0	0	0.0810102	0.512336	-0.981395	33.875	3	41715	4221577
258	-0.916885	0.884472	9.37004	-0.543937	0.12863	0.893831	-0.00924219	0.00885773	0.093692	1	-7.50345e-05	-0.000385925	5.72057e-05	-0.0150069	-0.077185	0.0114411	0	0	0	0	0.0829612	0.518431	-0.995915	33.875	3	41719	4221977
259	0.211435	-0.168572	9.9846	0.460769	-1.19182	1.88788	0.0020625	-0.0017321	0.0998462	1	0.000233596	-0.000260752	6.48473e-05	0.0467192	-0.0521503	0.0129695	0	0	0	0	0.084488	0.522213	-0.989777	33.875	3	41722	4222277
260	-0.258324	0.410621	9.72653	0.207711	-0.447837	1.23001	-0.00262837	0.00413759	0.0972628	1	-0.000162579	-0.000230063	4.60195e-05	-0.0325158	-0.0460125	0.0092039	0	0	0	0	0.084163	0.521968	-1.00342	33.875	3	41725	4222577
261	0.699612	-0.254589	12.9263	0.779541	-1.2305	4.4131	0.00691072	-0.00233321	0.129271	1	-0.000821748	-0.000330636	1.6526e-05	-0.16435	-0.0661273	0.00330521	0	0	0	0	0.0824747	0.527942	-1.00934	33.875	3	41729	4222977
262	1.22355	0.485264	11.2059	0.736944	-1.5085	2.33961	0.0122018	0.00485867	0.112063	1	-8.89529e-06	-0.000143066	0.000164878	-0.00177906	-0.0286132	0.0329757	0	0	0	0	0.0857449	0.518348	-1.02017	33.875	3	41732	4223277
263	0.421817	0.280669	10.175	0.25236	-0.88109	0.902905	0.00417598	0.00269616	0.101755	1	0.000545434	-0.000205793	5.57229e-05	0.109087	-0.0411585	0.0111446	0	0	0	0	0.0830451	0.524365	-1.02811	33.875	3	41735	4223577
264	-0.910856	-0.482583	9.36687	-1.65397	-1.11963	0.237514	-0.00911788	-0.00486854	0.0936656	1	0.000225621	-5.09632e-05	2.39727e-05	0.0451241	-0.0101926	0.00479454	0	0	0	0	0.0858346	0.51622	-1.0379	33.875	3	41739	4223977
265	0.52548	0.213078	9.74492	0.500781	-0.780123	0.784775	0.00519787	0.00210627	0.0974528	1	0.000130086	-0.000290362	8.02626e-05	0.0260172	-0.0580723	0.0160525	0	0	0	0	0.0834636	0.521863	-1.05241	33.875	3	41742	4224277
266	-1.08919	-0.566436	9.28483	-1.26721	-0.998259	0.606526	-0.0108911	-0.00558281	0.0928533	1	-0.000441244	3.20223e-06	1.75114e-05	-0.0882488	0.000640445	0.00350228	0	0	0	0	0.0853412	0.516581	-1.05809	33.875	3	41745	4224577
267	-1.08274	0.908606	9.31242	-0.775574	0.190818	0.635769	-0.0107822	0.00904024	0.0931339	1	0.000246861	0.000241852	-7.50011e-06	0.0493721	0.0483704	-0.00150002	0	0	0	0	0.0823895	0.519409	-1.07872	33.875	3	41749	4224977
268	-0.28875	-1.35328	10.3009	-1.12663	-1.91198	1.28925	-0.0029763	-0.0135054	0.10301	1	-0.000134184	-0.00043648	4.15495e-05	-0.0268367	-0.0872961	0.00830991	0	0	0	0	0.0823415	0.523781	-1.07761	33.875	3	41752	4225277
266	-0.755946	1.01559	8.91042	-0.722172	0.49888	-0.452765	-0.00749703	0.010118	0.0891138	1	0.000213541	0.000348959	-1.22045e-05	0.0427081	0.0697917	-0.00244091	0	0	0	0	0.0770782	0.524634	-1.09575	33.875	3	41755	4225577
270	-1.03496	0.151098	9.34704	-0.72168	-0.195371	0.315545	-0.0103154	0.00160195	0.0934726	1	-0.000481332	0.000181975	-4.79713e-05	-0.0962664	0.0363951	-0.00959427	0	0	0	0	0.0756366	0.530427	-1.09158	33.875	3	41758	4225877
271	-0.846932	0.518003	9.83221	-0.765168	-0.33462	1.09443	-0.00842409	0.00518255	0.0983259	1	-1.12679e-05	0.000229078	-1.79753e-05	-0.00225357	0.0458156	-0.00359506	0	0	0	0	0.0690614	0.530713	-1.10467	33.875	3	41762	4226277
272	-0.365386	0.593839	9.30915	-0.134996	0.00335886	0.760601	-0.00370613	0.00598851	0.0930863	1	-0.000270645	-0.000278465	3.62945e-05	-0.054129	-0.055693	0.00725891	0	0	0	0	0.0619854	0.54692	-1.10731	33.875	3	41765	4226577
273	-1.33653	-0.316207	8.61543	-1.4509	-0.738569	-0.468225	-0.0133374	-0.00326469	0.0861548	1	0.000594837	0.000161641	4.39698e-06	0.118967	0.0323283	0.000879395	0	0	0	0	0.051425	0.545544	-1.10729	33.875	3	41769	4226977
274	-2.33107	-0.833351	9.23844	-3.14335	-1.69522	0.144139	-0.0232223	-0.00836567	0.0924037	1	0.00016615	0.000475903	3.14971e-05	0.0332301	0.0951806	0.00629942	0	0	0	0	0.0422789	0.556573	-1.11963	33.875	3	41772	4227277
275	-0.66112	-1.35212	10.1001	-1.37989	-2.19339	0.898171	-0.0066384	-0.0135223	0.100999	1	-2.75948e-06	-0.000150974	0.000121561	-0.000551897	-0.0301947	0.0243121	0	0	0	0	0.0333626	0.552629	-1.11311	33.875	3	41775	4227577
276	-1.63815	-1.06212	8.05634	-2.00078	-1.38188	-1.22249	-0.0163662	-0.0106651	0.0805607	1	0.000258935	8.63857e-05	6.65837e-05	0.051787	0.0172771	0.0133167	0	0	0	0	0.0191028	0.555861	-1.12358	33.875	3	41779	4227977
277	-1.36459	-0.545568	7.44263	-1.80881	-0.951185	-1.43132	-0.013636	-0.00545315	0.0744283	1	-2.14577e-05	6.4752e-05	2.45221e-05	-0.00429153	0.0129504	0.00490441	0	0	0	0	0.00858884	0.558307	-1.11893	33.875	3	41782	4228277
278	-0.664046	-0.0419989	9.99102	-0.0840983	-0.811508	1.07439	-0.00668748	-0.000444422	0.099907	1	0.000118011	-0.000235606	6.39623e-05	0.0236022	-0.0471212	0.0127925	0	0	0	0	0.00258394	0.554669	-1.1311	33.875	3	41785	4228577
279	-1.05954	1.36738	8.7408	-0.566082	0.864059	-0.0330951	-0.0105903	0.0137445	0.0873976	1	-0.000406894	3.29489e-05	2.10643e-05	-0.0813788	0.00658978	0.00421286	0	0	0	0	-0.0113025	0.555219	-1.128	33.875	3	41789	4228977
280	-1.02234	-0.698375	10.0936	-1.26094	-1.28711	0.838666	-0.0102345	-0.00697931	0.100935	1	-2.46805e-05	-5.65813e-05	2.65225e-05	-0.00493609	-0.0113163	0.00530451	0	0	0	0	-0.0188959	0.547497	-1.12915	33.875	3	41792	4229277
281	0.168363	0.358303	10.7593	0.112383	-0.824705	1.80677	0.00158542	0.00359539	0.107594	1	-5.67772e-05	-0.000454964	4.25506e-05	-0.0113554	-0.0909928	0.00851011	0	0	0	0	-0.0286057	0.557278	-1.12585	33.875	3	41795	4229577
282	-0.804595	1.06748	10.5413	-0.394441	0.172728	1.52832	-0.00809599	0.0106234	0.105414	1	0.000245483	-0.000239585	-2.21303e-05	0.0490966	-0.047917	-0.00442605	0	0	0	0	-0.0364373	0.550346	-1.11637	33.875	3	41799	4229977
283	-0.920871	0.407882	10.0612	-1.26295	-0.0631065	0.368214	-0.00926034	0.00408553	0.100607	1	-2.80432e-05	-0.00025891	-5.74146e-05	-0.00560863	-0.051782	-0.0114829	0	0	0	0	-0.0404524	0.558209	-1.1177	33.875	3	41802	4230277
284	0.181314	-0.451109	10.7329	0.126891	-1.5707	1.70405	0.00185972	-0.00444839	0.107331	1	-0.000292056	0.000216902	2.0896e-06	-0.0584113	0.0433804	0.00041792	0	0	0	0	-0.0502232	0.556604	-1.10506	33.875	3	41805	4230577
285	-0.382682	-0.786286	8.73149	-0.823844	-1.41407	-1.07432	-0.00384413	-0.00777734	0.0873218	1	-0.000489105	-9.79222e-05	-1.33403e-05	-0.097821	-0.0195844	-0.00266805	0	0	0	0	-0.0584782	0.563474	-1.10335	33.875	3	41809	4230977
286	-0.728408	-0.41839	12.2805	-0.776661	-1.17542	3.63536	-0.00731881	-0.0040415	0.122808	1	-0.000579724	-0.000141397	-1.03631e-06	-0.115945	-0.0282793	-0.000207261	0	0	0	0	-0.0634721	0.570528	-1.086	33.875	3	41812	4231277
287	-1.26007	0.817428	9.11106	-0.644451	0.775883	0.299209	-0.0125992	0.00815452	0.0911126	1	9.60784e-05	1.63911e-05	8.93398e-05	0.0192157	0.00327822	0.017868	0	0	0	0	-0.0677899	0.570555	-1.08548	33.875	3	41815	4231577
288	-0.306874	-1.6304	11.0442	-0.759051	-3.03169	2.19652	-0.00309954	-0.0162319	0.110452	1	-0.000326895	-0.000142069	1.78232e-05	-0.0653789	-0.0284138	0.00356463	0	0	0	0	-0.0782346	0.583552	-1.07049	33.875	3	41819	4231977
289	-0.157021	0.711635	10.3292	0.580695	-0.0926144	2.17914	-0.00164607	0.00715858	0.103288	1	-0.000205546	-0.000362314	7.07014e-05	-0.0411091	-0.0724627	0.0141403	0	0	0	0	-0.0844991	0.577963	-1.05493	33.875	3	41822	4232277
290	-0.625438	0.155214	8.87241	-0.184738	-0.777235	0.461122	-0.00621016	0.001487	0.0887283	1	0.000363339	0.000250108	5.31039e-05	0.0726677	0.0500217	0.0106208	0	0	0	0	-0.0893934	0.588183	-1.05115	33.875	3	41825	4232577
291	-0.731849	-0.599429	9.23376	-0.45799	-1.35499	0.997186	-0.00726854	-0.00604248	0.0923384	1	0.00026113	0.000270657	-2.47144e-06	0.0522259	0.0541314	-0.000494288	0	0	0	0	-0.097011	0.581576	-1.03257	33.875	3	41829	4232977
292	0.19114	0.0564291	12.0382	0.616974	-1.2224	3.77588	0.0017728	0.000701147	0.120384	1	-0.00056808	-0.000575578	2.18559e-05	-0.113616	-0.115116	0.00437117	0	0	0	0	-0.0990703	0.584582	-1.03603	33.875	3	41832	4233277
293	0.972624	-0.138005	10.7292	1.19483	-1.88596	2.50677	0.00971658	-0.00133918	0.107294	1	-0.000184249	-4.58721e-05	6.85163e-05	-0.0368497	-0.00917442	0.0137033	0	0	0	0	-0.101898	0.576987	-1.01901	33.875	3	41835	4233577
294	-0.68441	2.65484	11.196	0.905426	1.56779	3.1264	-0.00675867	0.0264755	0.111983	1	0.0003267	0.000377738	-1.58491e-05	0.0653401	0.0755475	-0.00316982	0	0	0	0	-0.104556	0.572025	-1.01305	33.875	3	41839	4233977
295	-1.33265	-0.544143	8.93184	-0.818489	-1.14745	0.702164	-0.0133504	-0.005504	0.089311	1	0.000353426	-0.000132788	-2.12053e-05	0.0706851	-0.0265576	-0.00424106	0	0	0	0	-0.106693	0.574258	-1.00036	33.875	3	41842	4234277
296	-0.339708	-0.523792	7.84009	-0.277398	-1.84	-0.650984	-0.00334849	-0.00526222	0.0784013	1	0.000153831	0.000308073	2.72924e-05	0.0307662	0.0616145	0.00545848	0	0	0	0	-0.108414	0.566416	-0.9975	33.875	3	41845	4234577
297	0.0996214	1.64438	11.0894	0.795945	-0.0899034	2.27345	0.00095679	0.016295	0.110917	1	0.000671188	-0.000168042	6.56952e-05	0.134238	-0.0336085	0.013139	0	0	0	0	-0.10241	0.568608	-0.986368	33.875	3	41849	4234977
298	-1.58374	0.0898978	10.1996	-1.38835	-0.881793	1.26123	-0.0157817	0.000952656	0.102004	1	-0.000249684	0.000272555	-8.67293e-05	-0.0499367	0.0545111	-0.0173459	0	0	0	0	-0.100468	0.559076	-0.972447	33.875	3	41852	4235277
299	-1.89256	-0.112991	8.74638	-1.85395	-0.456132	-0.250465	-0.0188569	-0.00121867	0.0874774	1	0.000506844	0.000392508	2.47066e-06	0.101369	0.0785017	0.000494132	0	0	0	0	-0.0957279	0.567762	-0.969246	33.875	3	41855	4235577
300	-0.727624	1.22885	8.68388	0.108992	0.524982	0.217977	-0.00728392	0.0122876	0.0868383	1	7.67027e-07	-3.7031e-05	5.10616e-05	0.000153405	-0.00740619	0.0102123	0	0	0	0	-0.0923041	0.562527	-0.950691	33.875	3	41859	4235977
301	-0.475432	-0.459612	10.733	-0.42797	-1.49152	1.57428	-0.00479047	-0.00471194	0.107324	1	0.00053741	-0.000170528	4.87915e-05	0.107482	-0.0341056	0.0097583	0	0	0	0	-0.0860116	0.565338	-0.947122	33.875	3	41862	4236277
302	-1.01869	0.0545581	9.57201	-1.42939	-0.79331	0.168709	-0.0100839	0.00048226	0.0957314	1	0.000326654	0.000538034	3.86401e-05	0.0653308	0.107607	0.00772802	0	0	0	0	-0.0820977	0.562502	-0.926495	33.875	3	41865	4236577
303	-0.504072	-2.05173	9.94497	-0.571553	-2.79457	1.23898	-0.00497638	-0.0204483	0.0994671	1	-0.000345323	0.000328204	-2.3244e-05	-0.0690647	0.0656408	-0.0046488	0	0	0	0	-0.0762545	0.561921	-0.92401	33.875	3	41869	4236977
304	-1.09178	1.46858	10.6605	-0.254026	0.916513	1.80106	-0.010962	0.0146683	0.106603	1	7.47262e-05	-0.00019738	7.27673e-05	0.0149452	-0.0394761	0.0145535	0	0	0	0	-0.0702662	0.565089	-0.912856	33.875	3	41872	4237277
305	-1.15745	-0.731041	10.1601	-1.17337	-1.02767	1.14201	-0.0116188	-0.00726904	0.101598	1	-0.000213512	-0.000224225	8.69874e-05	-0.0427023	-0.044845	0.0173975	0	0	0	0	-0.0652756	0.560099	-0.908949	33.875	3	41875	4237577
306	-0.855932	-0.420489	8.85821	-0.919419	-1.32871	-0.169391	-0.008538	-0.00423074	0.0885829	1	0.000147059	0.000120882	-1.20508e-05	0.0294118	0.0241764	-0.00241016	0	0	0	0	-0.0608052	0.561888	-0.901859	33.875	3	41879	4237977
307	-0.942938	0.692256	10.4919	-0.830714	0.0184968	0.82307	-0.0094935	0.00684087	0.104918	1	0.000388171	-0.000304781	1.24144e-05	0.0776342	-0.0609562	0.00248288	0	0	0	0	-0.0569927	0.550452	-0.891525	33.875	3	41882	4238277
308	-1.14653	0.426735	9.75434	-1.00231	-0.310848	0.461367	-0.0114408	0.00416913	0.0975506	1	0.000506078	0.000124575	-2.21265e-05	0.101216	0.024915	-0.0044253	0	0	0	0	-0.0484759	0.552412	-0.896066	33.875	3	41885	4238577
309	-1.0716	1.3811	9.2387	-0.574565	0.745838	-0.173563	-0.010605	0.0137519	0.0924086	1	0.000316037	0.000605438	3.25206e-05	0.0632075	0.121088	0.00650412	0	0	0	0	-0.0421604	0.536548	-0.884832	33.875	3	41889	4238977
310	-1.57061	0.100847	9.06123	-1.7857	-0.870671	-0.180703	-0.0156599	0.000954634	0.0906209	1	0.00031181	0.000253941	-8.51636e-05	0.0623621	0.0507881	-0.0170327	0	0	0	0	-0.0327483	0.535176	-0.894502	33.875	3	41892	4239277
311	-1.48293	0.0380374	8.36802	-1.67181	-0.572717	-0.998942	-0.0147889	0.00029181	0.0836877	1	0.000523784	0.000241949	3.0364e-05	0.104757	0.0483899	0.0060728	0	0	0	0	-0.027092	0.528602	-0.884068	33.875	3	41895	4239577
312	-1.48784	-0.498706	7.52937	-1.28645	-1.01693	-1.72719	-0.0148265	-0.00507097	0.0752984	1	0.000539375	0.000338973	9.03855e-05	0.107875	0.0677947	0.0180771	0	0	0	0	-0.0183568	0.518838	-0.88786	33.875	3	41899	4239977
313	-1.10799	0.543258	8.80204	-1.11741	-0.344686	-0.534298	-0.0110773	0.00541112	0.088022	1	0.000111461	1.98448e-05	8.27014e-05	0.0222922	0.00396897	0.0165403	0	0	0	0	-0.0100217	0.518174	-0.881853	33.875	3	41902	4240277
314	0.181893	-0.776888	11.5559	-0.243502	-1.85659	1.63715	0.00176327	-0.0077862	0.115559	1	7.72102e-05	-0.000250697	0.0001466	0.015442	-0.0501394	0.02932	0	0	0	0	-0.00118266	0.511707	-0.879007	33.875	3	41905	4240577
315	-0.678624	-0.230899	9.61205	-0.612997	-1.03023	0.834476	-0.00682097	-0.00231508	0.0961179	1	1.6336e-05	-0.00018589	0.000216804	0.0032672	-0.0371781	0.0433609	0	0	0	0	0.0130055	0.516103	-0.886046	33.875	3	41909	4240977
316	-1.04469	-0.131848	9.40093	-1.28232	-0.575713	-0.0218749	-0.0104763	-0.00128547	0.0940065	1	-0.000206064	-0.000160361	0.00027391	-0.0412127	-0.0320723	0.054782	0	0	0	0	0.0224979	0.50806	-0.877177	33.875	3	41912	4241277
317	-1.25061	-0.033829	8.66609	-0.927469	-0.763829	0.150423	-0.0124749	-0.000397261	0.0866652	1	0.000278721	0.000178115	0.000426789	0.0557442	0.035623	0.0853578	0	0	0	0	0.0289559	0.514471	-0.884135	33.875	3	41915	4241577
318	0.0821965	0.363773	9.99521	0.112475	-0.869049	0.896421	0.000698642	0.0036647	0.099952	1	-0.000131551	-0.000600789	0.000441469	-0.0263101	-0.120158	0.0882938	0	0	0	0	0.0384659	0.509789	-0.872162	33.875	3	41919	4241977
319	-0.745483	0.44186	10.6065	-0.155422	-0.103883	1.57484	-0.00743816	0.00420553	0.106075	0.999999	0.00097161	9.75281e-05	0.000466945	0.194322	0.0195056	0.0933891	0	0	0	0	0.0440699	0.507456	-0.880826	33.875	3	41922	4242277
320	-0.792513	0.688009	10.289	-0.715151	-0.283453	1.33413	-0.00796375	0.00690495	0.102885	1	-0.000165137	-0.00014917	0.00057401	-0.0330274	-0.0298341	0.114802	0	0	0	0	0.0504478	0.507313	-0.875808	33.875	3	41925	4242577
321	-0.603987	0.799026	9.99428	-0.000936404	-0.078859	1.29067	-0.00606457	0.00799842	0.0999407	1	-7.96851e-05	-7.22044e-05	0.00064195	-0.015937	-0.0144409	0.12839	0	0	0	0	0.05908	0.497142	-0.884155	33.875	3	41929	4242977
322	-1.35059	2.09411	9.45289	-0.840581	0.771899	0.587551	-0.0135144	0.0207486	0.0945701	0.999999	0.000916668	0.000111361	0.000709502	0.183334	0.0222722	0.141901	0	0	0	0	0.0642494	0.498634	-0.888186	33.875	3	41932	4243277
323	-1.90551	-0.696596	8.19498	-1.78923	-0.982079	-0.585606	-0.0190144	-0.00696388	0.0819594	1	-0.000194798	0.000181596	0.0007839	-0.0389595	0.0363193	0.15678	0	0	0	0	0.0696206	0.487931	-0.892489	33.875	3	41935	4243577
324	-0.269525	-0.000645596	10.0129	-0.426486	-0.735494	0.532094	-0.00278237	-3.66984e-05	0.100127	0.999999	0.000126309	-0.000435267	0.000903385	0.0252618	-0.0870533	0.180677	0	0	0	0	0.076827	0.481133	-0.897724	33.875	3	41938	4243877
325	-1.41597	-0.492846	9.11504	-1.37316	-0.906012	0.319473	-0.0141859	-0.00493987	0.0911457	1	-5.95145e-05	-0.000186476	0.000785059	-0.0119029	-0.0372952	0.157012	0	0	0	0	0.0852149	0.465492	-0.900131	33.875	3	41942	4244277
326	-0.899353	0.0263109	9.02528	-0.736876	-0.860851	0.0555224	-0.00892751	0.000206735	0.0902595	0.999999	0.000227503	0.000367948	0.000854124	0.0455006	0.0735895	0.170825	0	0	0	0	0.0901001	0.465745	-0.916814	33.875	3	41945	4244577
327	-1.16527	-1.09161	9.49608	-1.14384	-1.56144	0.758913	-0.011681	-0.0108218	0.0949681	0.999999	-0.000618809	-0.000263411	0.000997259	-0.123762	-0.0526822	0.199452	0	0	0	0	0.0999242	0.453471	-0.917133	33.875	3	41949	4244977
328	-1.21553	0.874679	10.0746	-0.680661	-0.185001	1.64246	-0.0121117	0.00870474	0.100755	0.999999	7.58303e-05	0.000311965	0.00110291	0.0151661	0.062393	0.220581	0	0	0	0	0.105938	0.445885	-0.932481	33.875	3	41952	4245277
329	-0.253866	0.959804	10.8933	0.664177	-0.689332	1.86356	-0.00263049	0.00960392	0.10893	0.999999	-5.46103e-05	-0.000318817	0.00116505	-0.0109221	-0.0637633	0.233011	0	0	0	0	0.1124	0.439899	-0.928098	33.875	3	41955	4245577
330	-0.999859	0.45035	11.2229	-0.676536	-0.524984	2.0413	-0.00990648	0.00444668	0.11224	0.999999	0.0001487	0.000457328	0.00117791	0.0297399	0.0914656	0.235582	0	0	0	0	0.116642	0.4327	-0.936864	33.875	3	41959	4245977
331	-0.493069	0.442442	10.4679	-0.520392	-0.337862	1.34667	-0.00505902	0.0044767	0.104671	0.999999	-0.000307584	-0.000561433	0.00121186	-0.0615167	-0.112287	0.242373	0	0	0	0	0.121758	0.435194	-0.942388	33.875	3	41962	4246277
332	-2.15935	0.0445545	7.91724	-1.82798	-0.239319	-0.631776	-0.0214452	0.00036386	0.0792131	0.999999	0.000181054	0.000942374	0.00123167	0.0362107	0.188475	0.246334	0	0	0	0	0.121336	0.427926	-0.945073	33.875	3	41965	4246577
333	-0.219349	2.25546	10.9128	0.234926	1.32567	2.04708	-0.00226291	0.0225474	0.109128	0.999999	6.42668e-06	-5.11305e-05	0.0012918	0.00128534	-0.0102261	0.25836	0	0	0	0	0.125368	0.433409	-0.953555	33.875	3	41969	4246977
334	-0.386326	0.980631	10.6364	0.0646004	0.681864	1.48059	-0.00385662	0.00976927	0.106368	0.999999	0.000125993	0.000153282	0.00132641	0.0251986	0.0306564	0.265283	0	0	0	0	0.122276	0.422634	-0.94974	33.875	3	41972	4247277
335	-1.78722	0.627459	8.99671	-1.62449	0.244784	-0.483885	-0.0178207	0.00612031	0.089988	0.999999	0.000538121	0.000397238	0.00160948	0.107624	0.0794476	0.321896	0	0	0	0	0.121488	0.425754	-0.960273	33.875	3	41975	4247577
336	-0.215863	-0.312055	9.88547	0.409971	-1.45096	1.80223	-0.00215548	-0.00297172	0.0988594	0.999998	-0.000788807	-3.4993e-05	0.00165397	-0.157762	-0.0069986	0.330794	0	0	0	0	0.118852	0.413548	-0.958512	33.875	3	41979	4247977
337	0.435677	0.525411	12.0675	0.986552	-0.878926	3.28741	0.00420708	0.00541029	0.120674	0.999998	-0.000578833	-0.000535231	0.00192357	-0.115767	-0.107046	0.384715	0	0	0	0	0.117654	0.409391	-0.971226	33.875	3	41982	4248277
338	-1.46395	0.459815	9.8091	-1.35158	-0.441174	1.00526	-0.0145794	0.00445446	0.0981066	0.999998	0.000447601	0.000394458	0.001912	0.0895203	0.0788916	0.3824	0	0	0	0	0.115011	0.400563	-0.967369	33.875	3	41985	4248577
339	-0.464352	1.69667	9.68143	-0.00341299	0.65695	0.720797	-0.00474053	0.0168364	0.0968324	0.999997	0.000568702	-0.000126335	0.00214599	0.113741	-0.0252669	0.429198	0	0	0	0	0.111158	0.386142	-0.977773	33.875	3	41989	4248977
340	-0.78774	0.249698	10.036	-0.810045	-0.312016	1.06081	-0.00796937	0.00257117	0.10035	0.999997	-0.000548968	-0.000400806	0.00227188	-0.109794	-0.0801613	0.454377	0	0	0	0	0.115458	0.3842	-0.980361	33.875	3	41992	4249277
341	-0.291732	1.21665	9.87568	0.24822	0.633891	1.07789	-0.00293948	0.0120999	0.0987643	0.999997	0.000264975	0.000188041	0.00244382	0.0529951	0.0376083	0.488765	0	0	0	0	0.111782	0.370132	-0.983182	33.875	3	41995	4249577
342	-0.7169	0.711212	9.9482	-0.437917	0.0540353	1.27536	-0.00727172	0.00701665	0.0994813	0.999996	0.000290098	-0.000330637	0.00261454	0.0580197	-0.0661274	0.522909	0	0	0	0	0.113627	0.366801	-0.988821	33.875	3	41999	4249977
343	-1.30082	0.711911	8.6995	-0.851879	-0.232745	-0.123585	-0.0129419	0.00710268	0.0870062	0.999996	-0.000317124	0.000606937	0.0027596	-0.0634248	0.121387	0.551921	0	0	0	0	0.112933	0.357939	-0.983964	33.875	3	42002	4250277
344	-0.379743	1.78511	10.6095	0.151412	0.806699	1.88887	-0.00397688	0.017851	0.106088	0.999996	-0.000104658	-0.000363267	0.0028671	-0.0209317	-0.0726535	0.573421	0	0	0	0	0.116117	0.360937	-0.989468	33.875	3	42005	4250577
345	-1.82596	1.07642	7.40362	-1.33481	0.123858	-1.04973	-0.0183104	0.0106435	0.0740411	0.999996	8.59791e-05	8.4353e-05	0.00295302	0.0171958	0.0168706	0.590604	0	0	0	0	0.118899	0.354377	-0.978515	33.875	3	42009	4250977
346	0.351386	0.220113	11.1339	0.814341	-1.05005	2.03859	0.00342803	0.00224095	0.11134	0.999995	-7.8907e-05	-0.000321496	0.00320435	-0.0157814	-0.0642993	0.640872	0	0	0	0	0.116838	0.353047	-0.985101	33.875	3	42012	4251277
347	-0.569649	1.23361	10.193	-0.443634	1.05963	1.05398	-0.00575645	0.0123284	0.101928	0.999994	-0.000147972	0.000105339	0.00330141	-0.0295945	0.0210679	0.660283	0	0	0	0	0.122884	0.354246	-0.972981	33.875	3	42015	4251577
348	-0.165832	0.0646256	9.42673	0.116741	-0.830177	0.224547	-0.00161401	0.000765084	0.0942673	0.999993	-0.000691271	0.000261333	0.00351468	-0.138254	0.0522668	0.702937	0	0	0	0	0.118614	0.351346	-0.97252	33.875	3	42019	4251977
349	-1.88394	1.1958	9.07953	-1.14001	0.573093	0.731452	-0.0187798	0.0119153	0.0908132	0.999993	-0.000517061	0.000804852	0.00362864	-0.103412	0.160971	0.725729	0	0	0	0	0.12617	0.35765	-0.97393	33.875	3	42022	4252277
350	-1.74721	1.81324	8.86575	-1.40173	0.770705	0.0654666	-0.0175753	0.0179808	0.088668	0.999993	0.000101889	0.000194318	0.00381004	0.0203778	0.0388637	0.762009	0	0	0	0	0.124396	0.350811	-0.972559	33.875	3	42025	4252577
351	0.250385	-0.478174	10.0223	0.695457	-1.49514	1.01113	0.00255682	-0.00471451	0.100225	0.999992	-0.000238023	8.15596e-05	0.00385694	-0.0476048	0.016312	0.771391	0	0	0	0	0.129974	0.356688	-0.976494	33.875	3	42029	4252977
352	-1.1436	1.35956	9.66866	-0.765866	0.896393	1.28494	-0.0115141	0.0136652	0.0966675	0.999992	-0.000807789	0.000127474	0.00376965	-0.161558	0.0254949	0.753932	0	0	0	0	0.128001	0.3482	-0.964553	33.875	3	42032	4253277
353	-1.38589	1.64791	8.85048	-0.857094	0.299944	0.299321	-0.0140141	0.0163727	0.0885001	0.999992	-1.62047e-05	-0.000149313	0.00391865	-0.00324094	-0.0298627	0.783731	0	0	0	0	0.137394	0.34877	-0.973674	33.875	3	42035	4253577
354	-0.585994	1.51496	8.80299	-0.68673	1.10269	-0.0600574	-0.00587765	0.0152865	0.088005	0.999992	-0.00103108	0.000555443	0.00379439	-0.206216	0.111089	0.75888	0	0	0	0	0.136783	0.342256	-0.963715	33.875	3	42039	4253977
355	-1.36298	1.9265	9.68243	-1.35473	0.94871	0.73202	-0.013783	0.0192508	0.0968054	0.999993	-0.000451827	-5.24211e-05	0.00371273	-0.0903655	-0.0104842	0.742548	0	0	0	0	0.142946	0.338898	-0.969879	33.875	3	42042	4254277
356	0.112893	1.34992	11.1415	0.546629	0.80884	2.66573	0.00100877	0.0135664	0.111408	0.999992	-0.000264538	-6.71295e-05	0.00388685	-0.0529078	-0.0134259	0.777371	0	0	0	0	0.146502	0.336323	-0.963892	33.875	3	42045	4254577
357	-0.306758	0.338302	11.3986	0.195972	-0.927518	2.62101	-0.00317386	0.00346141	0.113981	0.999992	-0.00045287	-0.000346686	0.00398134	-0.0905742	-0.0693375	0.79627	0	0	0	0	0.154191	0.332411	-0.967045	33.875	3	42048	4254877
358	-1.1735	2.21682	9.5161	-1.1919	0.870852	1.0639	-0.01192	0.0221668	0.0951383	0.999992	-0.00048063	-5.73005e-05	0.00392558	-0.0961262	-0.0114601	0.785119	0	0	0	0	0.167263	0.333206	-0.963047	33.875	3	42052	4255277
359	-1.71571	0.677834	8.42818	-1.52181	-0.781771	-0.784075	-0.0170866	0.00665333	0.0843061	0.999992	-4.33514e-05	0.000725916	0.00386396	-0.0086703	0.145184	0.772794	0	0	0	0	0.165156	0.327708	-0.954573	33.875	3	42055	4255577
360	-0.606004	0.900584	10.0532	0.161204	-0.367791	1.30342	-0.00607475	0.00888096	0.100542	0.999992	0.000387951	0.000270401	0.00386215	0.0775905	0.0540803	0.772432	0	0	0	0	0.180969	0.331478	-0.954562	33.875	3	42059	4255977
361	-0.31738	0.926906	10.0488	-0.358513	0.158176	0.624183	-0.0032558	0.00946324	0.100467	0.999992	-0.0010887	-5.13851e-05	0.00382643	-0.21774	-0.010277	0.765289	0	0	0	0	0.183353	0.328717	-0.937463	33.875	3	42062	4256277
362	-1.09293	1.97249	10.1764	-1.18047	0.926017	1.70776	-0.0110887	0.0196643	0.101759	0.999993	-0.000110887	-5.23053e-05	0.00377799	-0.0221774	-0.0104611	0.755601	0	0	0	0	0.193713	0.332648	-0.943989	33.875	3	42065	4256577
363	0.210635	0.477165	11.454	0.147362	-0.113465	2.12049	0.00191753	0.0048896	0.114538	0.999992	-0.000446727	-0.000660692	0.00387755	-0.0893457	-0.132139	0.775511	0	0	0	0	0.198899	0.334261	-0.92731	33.875	3	42069	4256977
364	-1.30269	2.19995	10.4367	-1.46654	0.736025	1.66995	-0.0130853	0.021888	0.104383	0.999992	5.0788e-05	0.000532848	0.00386492	0.0101576	0.10657	0.772987	0	0	0	0	0.203656	0.333779	-0.929868	33.875	3	42072	4257277
365	-0.036681	0.393748	10.0363	0.837943	0.0513103	1.48481	-0.0005125	0.00401648	0.10036	0.999992	-0.00041056	-0.000572186	0.00387713	-0.0821122	-0.114437	0.775427	0	0	0	0	0.210247	0.332517	-0.916795	33.875	3	42075	4257577
366	-0.385214	0.938131	10.438	-0.226915	-0.14894	1.65366	-0.00402677	0.00938074	0.104374	0.999992	-0.000145385	-0.000483806	0.00392462	-0.0290771	-0.0967614	0.784926	0	0	0	0	0.210965	0.325594	-0.911902	33.875	3	42079	4257977
367	-1.98966	0.732956	7.56361	-1.67596	-0.527834	-1.62564	-0.0198628	0.0071923	0.0756581	0.999993	-9.15076e-05	0.000588283	0.00380033	-0.0183016	0.117657	0.760068	0	0	0	0	0.226192	0.326071	-0.918527	33.875	3	42082	4258277
368	-1.28667	1.14249	7.55929	-1.05177	-0.493926	-1.43671	-0.0129561	0.0112396	0.0756055	0.999992	0.000568683	-1.46465e-05	0.00384501	0.113737	-0.00292932	0.769004	0	0	0	0	0.225658	0.314201	-0.909192	33.875	3	42085	4258577
369	-1.96625	1.96158	8.56905	-1.95608	-0.476252	-0.411287	-0.0196917	0.0193568	0.0857427	0.999993	0.000678625	0.000654081	0.00362609	0.135725	0.130817	0.72522	0	0	0	0	0.24616	0.311274	-0.918948	33.875	3	42089	4258977
370	-0.994401	0.0411756	8.44178	-0.532252	-0.796468	-0.810625	-0.010004	0.000410922	0.0844108	0.999993	-0.000423414	-0.000337441	0.00362537	-0.0846829	-0.0674883	0.725076	0	0	0	0	0.252033	0.299723	-0.90307	33.875	3	42092	4259277
371	-0.43363	0.884498	10.4548	-0.528974	0.24623	1.78263	-0.00440692	0.0089353	0.104538	0.999993	-0.000581669	-3.32865e-05	0.00358013	-0.116334	-0.00665731	0.716028	0	0	0	0	0.264752	0.301258	-0.913196	33.875	3	42095	4259577
372	-0.117106	1.61733	9.18106	-0.729049	1.15148	0.537419	-0.00138567	0.0162117	0.0918009	0.999993	-0.000259309	-0.000532615	0.00360701	-0.0518619	-0.106523	0.721403	0	0	0	0	0.278779	0.288212	-0.899409	33.875	3	42099	4259977
373	-0.631308	1.92354	10.2271	-0.990136	0.601165	1.38221	-0.00640962	0.0192874	0.102255	0.999994	-0.000471283	0.000185099	0.00348872	-0.0942568	0.0370199	0.697745	0	0	0	0	0.28701	0.285696	-0.898998	33.875	3	42102	4260277
374	-0.501141	0.657481	9.99926	-0.0598976	-0.192022	1.20089	-0.0051578	0.00659429	0.0999839	0.999993	-0.000281661	-0.0004934	0.00362323	-0.0563322	-0.0986801	0.724648	0	0	0	0	0.302228	0.281977	-0.889049	33.875	3	42105	4260577
375	-0.37439	2.12287	9.27888	-0.913357	0.818189	0.639322	-0.00393585	0.0211356	0.0928021	0.999993	0.000353422	-0.000217552	0.00357786	0.0706846	-0.0435104	0.715575	0	0	0	0	0.309604	0.276019	-0.886691	33.875	3	42109	4260977
376	-1.91118	0.602478	8.11696	-1.22782	-1.44244	-1.11985	-0.0190886	0.00596635	0.0811794	0.999994	-0.00046264	0.000401227	0.0034957	-0.0925282	0.0802455	0.699142	0	0	0	0	0.329276	0.276857	-0.888278	33.875	3	42112	4261277
377	-0.0589279	0.858658	10.4698	-0.730935	0.346637	1.52584	-0.000802777	0.00876006	0.104682	0.999993	-0.000852545	-0.000719996	0.00361709	-0.170509	-0.144	0.723419	0	0	0	0	0.326765	0.268897	-0.878342	33.875	3	42115	4261577
378	-0.303469	1.77603	10.289	-1.06777	0.849905	1.0162	-0.00320574	0.0178472	0.102869	0.999993	-0.000532053	-0.00020588	0.00361428	-0.106411	-0.0411761	0.722858	0	0	0	0	0.344919	0.265466	-0.886078	33.875	3	42119	4261977
379	-1.00147	0.415517	10.5461	-0.261382	-0.758197	1.92819	-0.010075	0.00408636	0.105458	0.999993	-2.23002e-05	-0.000142727	0.00365936	-0.00446005	-0.0285454	0.731874	0	0	0	0	0.346885	0.253025	-0.873232	33.875	3	42122	4262277
380	-0.628366	1.17919	10.3502	-0.416077	0.275682	1.95854	-0.00645056	0.011836	0.103487	0.999993	-0.000434027	-0.000395809	0.0035959	-0.0868056	-0.079162	0.719181	0	0	0	0	0.35957	0.250731	-0.887483	33.875	3	42125	4262577
381	0.0147984	2.19507	10.3117	-0.847902	1.32207	2.39801	-0.000146034	0.0220226	0.103102	0.999993	-0.000348479	-0.000661825	0.0035825	-0.0696959	-0.132365	0.716502	0	0	0	0	0.366277	0.235892	-0.879258	33.875	3	42129	4262977
382	0.140991	-0.903372	11.5199	1.50606	-0.401354	3.34292	0.00131192	-0.00879975	0.115218	0.999993	-0.000972839	-0.000704259	0.00360454	-0.194568	-0.140852	0.720911	0	0	0	0	0.37115	0.226169	-0.883537	33.875	3	42132	4263277
383	0.283351	2.79502	11.7152	-1.06832	1.26967	3.1408	0.0026167	0.0278994	0.11717	0.999993	0.000299763	-7.48552e-05	0.00356793	0.0599528	-0.0149711	0.713588	0	0	0	0	0.379054	0.212944	-0.884373	33.875	3	42135	4263577
384	-1.51315	1.91179	8.89294	-2.25037	-0.49224	-0.576231	-0.0152555	0.0189925	0.0889351	0.999994	0.000110115	4.91238e-05	0.00348156	0.022023	0.00982478	0.696313	0	0	0	0	0.383283	0.205754	-0.893643	33.875	3	42138	4263877
385	-0.303759	1.01826	10.005	-0.721126	0.0369047	0.572887	-0.00307124	0.0102604	0.100041	0.999994	-0.000494685	0.00018744	0.00348038	-0.0989373	0.0374881	0.696077	0	0	0	0	0.401557	0.192116	-0.903627	33.875	3	42142	4264277
386	-0.933162	1.06639	9.57706	-1.14524	-0.50375	0.529087	-0.00942442	0.0106545	0.0957626	0.999994	-0.000286693	-0.000102703	0.00343025	-0.0573387	-0.0205406	0.686051	0	0	0	0	0.401973	0.180247	-0.894801	33.875	3	42145	4264577
387	-1.08083	1.29554	9.67597	-1.63179	0.0356497	0.933242	-0.0108647	0.0131361	0.0967291	0.999993	-0.00131654	0.000169935	0.00341925	-0.263308	0.0339872	0.683851	0	0	0	0	0.418534	0.174045	-0.910673	33.875	3	42148	4264877
388	-0.460793	1.63188	8.61455	-1.44866	0.224194	-0.0608203	-0.00474691	0.016432	0.0861164	0.999994	-0.000840178	-0.000166346	0.00336829	-0.168036	-0.0332692	0.67366	0	0	0	0	0.421425	0.160179	-0.900388	33.875	3	42152	4265277
389	-0.244825	1.30897	8.59669	-0.774364	0.235693	-0.0160069	-0.00256257	0.0130756	0.0859657	0.999995	-1.27034e-05	-0.000172351	0.0032364	-0.00254069	-0.0344703	0.647281	0	0	0	0	0.431191	0.158414	-0.915624	33.875	3	42155	4265577
390	0.15263	1.93382	10.4631	-0.7421	0.304009	1.26212	0.00139272	0.0191854	0.104661	0.999995	0.000772913	-6.77115e-05	0.00309952	0.154583	-0.0135423	0.619905	0	0	0	0	0.43405	0.149389	-0.903211	33.875	3	42158	4265877
391	-0.722751	0.0816642	11.4338	0.0200325	-1.01786	2.252	-0.00726746	0.000929946	0.114334	0.999995	-0.00068073	-0.000152352	0.00292245	-0.136146	-0.0304704	0.58449	0	0	0	0	0.440167	0.14221	-0.914005	33.875	3	42162	4266277
392	0.169038	0.734427	11.2338	-0.80784	0.38377	1.93348	0.00163836	0.00739812	0.112335	0.999996	-0.000197602	-4.51358e-05	0.00284079	-0.0395204	-0.00902717	0.56816	0	0	0	0	0.448952	0.1353	-0.913694	33.875	3	42165	4266577
393	-1.96253	0.916041	8.86883	-1.00627	-1.38142	-0.173336	-0.0195151	0.00902734	0.0887263	0.999995	0.00011858	0.000914312	0.00286224	0.0237161	0.182863	0.57245	0	0	0	0	0.444332	0.12749	-0.911321	33.875	3	42169	4266977
394	-0.765095	0.542963	11.2903	-0.635384	-0.11127	3.05003	-0.00785582	0.00555811	0.112882	0.999995	-0.000760952	-0.000771379	0.00279428	-0.152191	-0.154276	0.558857	0	0	0	0	0.456111	0.120344	-0.926686	33.875	3	42172	4267277
395	-0.722499	0.39127	9.96507	-0.347231	-0.22241	1.40203	-0.00723148	0.00385173	0.0996527	0.999996	0.00010397	7.59196e-05	0.00278414	0.020794	0.0151839	0.55683	0	0	0	0	0.448311	0.111461	-0.917252	33.875	3	42175	4267577
396	-0.630249	1.12739	8.92198	-0.897462	-0.050122	0.500014	-0.00627773	0.0112288	0.0892273	0.999996	5.4095e-05	0.000493707	0.00281495	0.010819	0.0987414	0.562991	0	0	0	0	0.455653	0.103466	-0.937666	33.875	3	42178	4267877
397	-0.844136	1.51227	9.63293	-1.19391	-0.0368365	0.965002	-0.00860318	0.0150968	0.096319	0.999996	-0.000107893	-0.000410342	0.00273887	-0.0215786	-0.0820686	0.547776	0	0	0	0	0.448422	0.0848772	-0.93148	33.875	3	42182	4268277
398	-2.03162	0.37992	9.60275	-0.439863	-1.6706	1.04175	-0.0202119	0.00383693	0.096048	0.999996	-0.000767986	0.000651091	0.00270862	-0.153597	0.130218	0.541725	0	0	0	0	0.456571	0.0818056	-0.954818	33.875	3	42185	4268577
399	-0.0904667	0.919586	9.80234	-0.613002	0.292018	0.786582	-0.00100198	0.00923023	0.0980193	0.999996	-0.000202049	-0.000238074	0.00274809	-0.0404099	-0.0476148	0.549619	0	0	0	0	0.457894	0.0651503	-0.951659	33.875	3	42189	4268977
400	-0.529963	0.519767	9.98173	0.165578	-0.733393	0.631346	-0.00536201	0.00524958	0.0998112	0.999996	-0.000409184	-0.000166351	0.00279201	-0.081837	-0.0332702	0.558403	0	0	0	0	0.454573	0.0579158	-0.954835	33.875	3	42192	4269277
401	0.982879	1.82585	12.2911	-0.824642	1.54803	4.15897	0.00961615	0.018333	0.122916	0.999996	-8.14904e-05	-0.000447907	0.00280201	-0.0162981	-0.0895815	0.560402	0	0	0	0	0.460899	0.0476928	-0.959132	33.875	3	42195	4269577
402	-1.85758	0.961626	8.91422	-1.03273	-1.25509	0.759335	-0.0185552	0.00951414	0.0891574	0.999996	1.67633e-06	0.000409589	0.00274209	0.000335266	0.0819179	0.548419	0	0	0	0	0.460462	0.0442914	-0.959711	33.875	3	42198	4269877
403	-1.3014	1.12018	9.57711	-1.18139	-0.817613	0.965606	-0.0130298	0.0112618	0.0957619	0.999996	-0.000685139	0.0002382	0.00273345	-0.137028	0.04764	0.54669	0	0	0	0	0.468009	0.0356639	-0.972059	33.875	3	42202	4270277
404	-0.864337	-0.181258	8.72804	0.466881	-0.670315	-0.0719192	-0.00860618	-0.00174305	0.0872855	0.999996	-0.000674974	0.000156009	0.00279973	-0.134995	0.0312019	0.559947	0	0	0	0	0.456888	0.0306298	-0.957978	33.875	3	42205	4270577
405	-2.1876	0.789884	8.85174	-0.964443	-1.98966	-0.181185	-0.0218285	0.00778512	0.0885392	0.999996	-1.44709e-05	0.000503875	0.00266064	-0.00289419	0.100775	0.532129	0	0	0	0	0.463486	0.0248919	-0.967732	33.875	3	42209	4270977
406	-0.642237	0.804428	8.54299	-0.684201	-0.88182	-1.11087	-0.00652493	0.00805004	0.0854216	0.999996	-0.000241383	-0.000342054	0.00274109	-0.0482767	-0.0684109	0.548218	0	0	0	0	0.45524	0.0183975	-0.955212	33.875	3	42212	4271277
407	-0.648999	-0.0346213	10.8379	0.298118	-0.625112	1.46159	-0.00652225	-0.000369159	0.108377	0.999996	-6.22061e-05	-0.00015807	0.00279958	-0.0124412	-0.0316141	0.559917	0	0	0	0	0.455918	0.0171515	-0.967869	33.875	3	42215	4271577
408	-0.98225	1.9498	11.144	-1.82417	-0.818634	2.1567	-0.00995358	0.0196077	0.111409	0.999996	-0.000734328	-0.000109956	0.00272516	-0.146866	-0.0219913	0.545033	0	0	0	0	0.456655	0.00684128	-0.964566	33.875	3	42219	4271977
409	-0.707611	1.26009	9.60007	-1.24839	-0.39325	0.86458	-0.00711406	0.012546	0.0960051	0.999996	7.82904e-05	0.000169997	0.00280707	0.0156581	0.0339994	0.561414	0	0	0	0	0.445246	0.00298103	-0.961569	33.875	3	42222	4272277
410	-0.490156	1.62696	9.94564	-1.05031	-0.36944	0.966157	-0.00507155	0.0161675	0.0994645	0.999996	0.000372244	-0.000396312	0.00281011	0.074449	-0.0792625	0.562022	0	0	0	0	0.444815	-0.00813451	-0.96737	33.875	3	42225	4272577
411	-0.552537	0.450085	9.6415	-0.338357	-0.219924	0.82125	-0.00558853	0.00446941	0.0964128	0.999996	3.43584e-06	-0.000198692	0.00276989	0.00068717	-0.0397384	0.553979	0	0	0	0	0.431687	-0.0169466	-0.959424	33.875	3	42229	4272977
412	-0.00470039	1.99138	9.64263	-1.92782	0.274935	0.779167	-0.000106431	0.0198434	0.0964408	0.999996	0.000363161	0.000272199	0.00281522	0.0726323	0.0544399	0.563045	0	0	0	0	0.436284	-0.0298408	-0.977409	33.875	3	42232	4273277
413	-1.45636	-0.96872	9.80664	1.5265	-1.51629	1.00593	-0.0145296	-0.00971816	0.0980684	0.999996	-0.000241934	-9.35277e-05	0.00269516	-0.0483869	-0.0187056	0.539033	0	0	0	0	0.426214	-0.0402484	-0.963452	33.875	3	42235	4273577
414	-1.44402	1.08893	9.39034	-1.04203	-1.81042	0.00706983	-0.0144852	0.0108618	0.0938997	0.999996	-0.000279213	8.05578e-05	0.0027644	-0.0558426	0.0161116	0.552881	0	0	0	0	0.435624	-0.0502921	-0.979376	33.875	3	42238	4273877
415	-1.13657	0.645477	8.71773	-0.24737	-1.09157	-0.529863	-0.0113473	0.0063896	0.0871845	0.999996	1.12837e-05	0.000310967	0.00278255	0.00225674	0.0621935	0.556511	0	0	0	0	0.422724	-0.0626448	-0.964439	33.875	3	42242	4274277
416	-0.936739	1.25323	9.27586	-0.878349	-0.76255	0.647755	-0.00939234	0.0125723	0.0927506	0.999996	-0.000489797	0.000232187	0.00270972	-0.0979595	0.0464375	0.541944	0	0	0	0	0.424515	-0.067864	-0.973654	33.875	3	42245	4274577
417	0.145629	1.34662	10.9771	-0.597001	0.123893	2.52607	0.00133191	0.0133498	0.109787	0.999996	0.00056501	-0.000230022	0.00275503	0.113002	-0.0460045	0.551006	0	0	0	0	0.418653	-0.0767722	-0.963724	33.875	3	42248	4274877
418	-0.986539	1.92986	8.58218	-1.89543	-1.03389	-0.398024	-0.00997768	0.0192635	0.0858168	0.999996	-0.000109644	-4.29099e-05	0.00272106	-0.0219289	-0.00858199	0.544213	0	0	0	0	0.41539	-0.0816399	-0.962807	33.875	3	42252	4275277
419	-0.931588	0.696989	9.95984	-0.0402443	-1.10106	0.50726	-0.00938722	0.00700259	0.0995894	0.999996	-0.000419987	-0.00016704	0.00272417	-0.0839974	-0.0334081	0.544835	0	0	0	0	0.418818	-0.0874941	-0.964468	33.875	3	42255	4275577
420	-0.785385	-0.223601	10.0206	0.678815	-0.715293	1.12114	-0.00786596	-0.00226291	0.100204	0.999996	-8.21749e-05	-0.000122368	0.0027593	-0.016435	-0.0244736	0.551862	0	0	0	0	0.408191	-0.091096	-0.948842	33.875	3	42259	4275977
421	-0.664687	-0.0156988	9.46196	0.0271444	-0.701178	0.272676	-0.00668227	-5.26239e-05	0.0946173	0.999996	-0.000746237	-0.000190125	0.0027648	-0.149248	-0.038025	0.55296	0	0	0	0	0.411405	-0.0958304	-0.958558	33.875	3	42262	4276277
422	0.420368	0.110157	11.5909	-0.196092	0.639816	2.71037	0.00417173	0.00126076	0.115909	0.999996	-0.000586168	-0.000109435	0.00278293	-0.117234	-0.021887	0.556586	0	0	0	0	0.396939	-0.0969975	-0.94084	33.875	3	42265	4276577
423	-1.20202	1.8815	9.20366	-1.77432	-1.38195	0.481534	-0.0120951	0.0187886	0.0920322	0.999996	-0.000215855	0.000153322	0.00274307	-0.0431712	0.0306644	0.548615	0	0	0	0	0.405395	-0.103185	-0.953643	33.875	3	42268	4276877
424	-0.715535	-0.234078	9.75731	0.0954855	-0.521658	1.03174	-0.00707749	-0.00231531	0.0975794	0.999996	-0.000331577	0.000333157	0.00275711	-0.0663155	0.0666314	0.551422	0	0	0	0	0.390518	-0.114519	-0.94019	33.875	3	42272	4277277
425	-1.45403	0.394837	9.61901	0.31682	-1.11064	0.972344	-0.0145284	0.00399946	0.0961898	0.999996	-0.000689066	0.000177663	0.00280274	-0.137813	0.0355327	0.560548	0	0	0	0	0.389399	-0.118251	-0.949359	33.875	3	42275	4277577
426	-0.610595	0.58793	8.85596	-0.397937	-0.427938	0.0951524	-0.0061935	0.00585501	0.0885551	0.999996	-5.34489e-05	-0.000312462	0.00274437	-0.0106898	-0.0624925	0.548874	0	0	0	0	0.383966	-0.132908	-0.945619	33.875	3	42279	4277977
427	-1.27753	0.531688	8.56791	-0.108007	-1.22501	-0.00784135	-0.0128349	0.00541922	0.0856638	0.999996	-0.00101568	-0.000172366	0.00279928	-0.203136	-0.0344733	0.559857	0	0	0	0	0.374115	-0.139273	-0.939654	33.875	3	42282	4278277
428	-0.116601	0.433152	10.7864	-0.209525	0.175716	2.42455	-0.00127964	0.00438445	0.10786	0.999996	-0.000277164	-0.000413307	0.00280695	-0.0554328	-0.0826615	0.56139	0	0	0	0	0.380404	-0.149469	-0.945466	33.875	3	42285	4278577
429	-0.955865	0.664272	8.07361	-0.237893	-0.879786	-0.858755	-0.00956911	0.0065626	0.0807414	0.999996	0.00016842	0.000161467	0.00276704	0.033684	0.0322935	0.553409	0	0	0	0	0.369796	-0.157904	-0.932473	33.875	3	42289	4278977
430	-1.3051	1.91293	11.3662	-2.23203	-0.925757	2.63825	-0.0132037	0.0191565	0.11364	0.999996	-0.000441457	-0.000202716	0.00278486	-0.0882915	-0.0405432	0.556973	0	0	0	0	0.379292	-0.166565	-0.94382	33.875	3	42292	4279277
431	-1.09832	-0.193858	9.92583	0.75602	-0.761863	1.19141	-0.0108975	-0.00193218	0.0992678	0.999996	-0.000341158	0.000376804	0.00280288	-0.0682317	0.0753608	0.560578	0	0	0	0	0.366769	-0.171136	-0.927702	33.875	3	42295	4279577
432	-0.849749	1.62478	9.82569	-1.22699	-1.04629	1.17123	-0.00855002	0.0160556	0.098284	0.999996	0.000735053	0.000192812	0.00279919	0.147011	0.0385625	0.55984	0	0	0	0	0.370078	-0.176421	-0.933896	33.875	3	42299	4279977
433	-0.582223	0.558942	8.8354	-0.308311	-0.345148	-0.0998693	-0.00582638	0.00547351	0.088361	0.999996	0.000472157	0.000151077	0.00278827	0.0944315	0.0302155	0.557654	0	0	0	0	0.365591	-0.180473	-0.923359	33.875	3	42302	4280277
434	-1.4043	0.166698	8.69303	0.236396	-1.20032	-0.213181	-0.0139716	0.00171697	0.0869408	0.999996	-0.000736821	0.000464894	0.00278878	-0.147364	0.0929789	0.557757	0	0	0	0	0.363098	-0.18328	-0.928965	33.875	3	42305	4280577
435	-1.81402	1.36213	7.68566	-0.223084	-2.3176	-1.77166	-0.0181913	0.0134863	0.0768683	0.999996	0.000220264	0.000158681	0.00278263	0.0440529	0.0317363	0.556527	0	0	0	0	0.363774	-0.189209	-0.92506	33.875	3	42309	4280977
436	0.265939	0.414295	10.5634	-0.462026	0.0979243	1.57747	0.00258669	0.00418646	0.105634	0.999996	-0.000135615	-0.000232404	0.00283263	-0.0271231	-0.0464809	0.566527	0	0	0	0	0.350497	-0.18683	-0.915349	33.875	3	42312	4281277
437	-1.22102	1.44779	10.1249	-1.45941	-1.83221	1.18705	-0.0122224	0.0144197	0.101256	0.999996	-3.97956e-05	0.00032671	0.00271055	-0.00795914	0.0653421	0.54211	0	0	0	0	0.355293	-0.195533	-0.922131	33.875	3	42315	4281577
438	-0.986152	0.656317	9.90831	-0.202955	-0.832132	1.13538	-0.00990575	0.00656642	0.0990784	0.999996	-0.000293805	-3.89622e-05	0.0027811	-0.0587611	-0.00779245	0.556221	0	0	0	0	0.337751	-0.194129	-0.910402	33.875	3	42319	4281977
439	0.45457	0.685232	10.5165	-1.17051	0.277893	1.6735	0.00449079	0.00679186	0.105171	0.999996	0.000406671	-8.10175e-05	0.00277489	0.0813343	-0.0162035	0.554979	0	0	0	0	0.338472	-0.203116	-0.926767	33.875	3	42322	4282277
440	-3.04837	1.5979	7.92096	0.436223	-2.93653	-1.00322	-0.0304975	0.0156841	0.0792633	0.999996	0.000841153	0.000442786	0.0026509	0.168231	0.0885574	0.530181	0	0	0	0	0.327764	-0.20473	-0.913117	33.875	3	42325	4282577
441	0.182477	0.355382	10.7504	-0.317866	0.302477	1.85123	0.00162189	0.00360742	0.107506	0.999996	-0.000204001	-0.000849474	0.00282573	-0.0408002	-0.169895	0.565147	0	0	0	0	0.324237	-0.212778	-0.925401	33.875	3	42329	4282977
442	-1.62397	0.28352	9.21926	0.658285	-1.22658	0.244346	-0.016143	0.00267189	0.0922145	0.999996	0.000403112	0.000606265	0.0027478	0.0806226	0.121253	0.549561	0	0	0	0	0.3202	-0.223076	-0.920561	33.875	3	42332	4283277
443	-1.22691	0.999939	8.56424	-0.571382	-1.50684	-0.435561	-0.0123872	0.0099841	0.0856272	0.999996	-0.000309902	-0.000365839	0.00277295	-0.0619805	-0.0731678	0.55459	0	0	0	0	0.315811	-0.225406	-0.924633	33.875	3	42335	4283577
444	-1.69228	0.796269	8.63901	0.438834	-1.69467	-0.636222	-0.0169058	0.0077567	0.0864122	0.999996	0.000651394	0.000349857	0.0027616	0.130279	0.0699715	0.552322	0	0	0	0	0.315462	-0.237064	-0.927416	33.875	3	42339	4283977
445	-0.88991	1.16705	10.0791	-0.710269	-1.25057	1.07146	-0.00893332	0.0116943	0.100786	0.999996	-0.000358583	0.000145612	0.00272089	-0.0717167	0.0291224	0.544178	0	0	0	0	0.307147	-0.238689	-0.914282	33.875	3	42342	4284277
446	-1.05037	1.38289	10.2956	-0.584919	-1.39778	1.08424	-0.010566	0.0137262	0.102963	0.999996	0.000222247	5.93398e-05	0.00270285	0.0444494	0.011868	0.540571	0	0	0	0	0.310497	-0.244968	-0.919487	33.875	3	42345	4284577
447	-0.79914	1.38687	9.60602	-0.755113	-1.44363	0.361089	-0.0080477	0.0137387	0.0960742	0.999996	0.000445297	0.00010533	0.00277259	0.0890594	0.021066	0.554518	0	0	0	0	0.296968	-0.24468	-0.901741	33.875	3	42349	4284977
448	-0.0686047	-0.428978	10.7687	0.0418214	0.354703	2.50198	-0.000665381	-0.00420947	0.10769	0.999996	-0.000389873	-1.0906e-05	0.0027078	-0.0779747	-0.00218121	0.541562	0	0	0	0	0.299693	-0.248923	-0.911444	33.875	3	42352	4285277
449	-1.82369	-0.18665	8.58168	0.989441	-1.17515	-0.197279	-0.0182309	-0.00183849	0.0858187	0.999995	-0.000770057	-2.67477e-05	0.00285615	-0.154012	-0.00534955	0.571232	0	0	0	0	0.287579	-0.246217	-0.893146	33.875	3	42355	4285577
450	-1.33708	0.245892	9.37528	0.123435	-0.79711	0.853307	-0.0133258	0.00247937	0.0937587	0.999996	-0.000526632	0.0003176	0.00293273	-0.105327	0.0635202	0.586546	0	0	0	0	0.283223	-0.250498	-0.897262	33.875	3	42359	4285977
451	-0.372122	1.84612	10.7312	-1.69897	-1.32785	1.50653	-0.00377784	0.0183855	0.107323	0.999996	0.000251049	0.000237113	0.00291805	0.0502098	0.0474227	0.58361	0	0	0	0	0.276774	-0.254507	-0.88823	33.875	3	42362	4286277
452	-1.41833	0.307379	9.99458	0.422079	-1.14237	1.02426	-0.0141829	0.00300735	0.0999479	0.999995	-0.000108062	9.64166e-05	0.00310368	-0.0216125	0.0192833	0.620737	0	0	0	0	0.269501	-0.252478	-0.889161	33.875	3	42365	4286577
453	-1.12778	1.94296	8.50455	-1.20866	-1.98969	-0.222158	-0.0113668	0.0193711	0.085047	0.999995	-7.83993e-05	0.000200225	0.00317216	-0.0156799	0.040045	0.634432	0	0	0	0	0.261989	-0.260742	-0.88729	33.875	3	42369	4286977
454	0.739807	0.986919	11.3039	-1.72482	0.0166525	2.39387	0.0072182	0.00989912	0.113048	0.999995	7.70386e-05	-0.000512384	0.00323881	0.0154077	-0.102477	0.647763	0	0	0	0	0.24684	-0.260794	-0.87712	33.875	3	42372	4287277
455	-0.0986345	1.47407	10.7161	-1.45762	-1.32213	1.58615	-0.0010542	0.0146786	0.107169	0.999995	0.000258413	0.000132027	0.00326848	0.0516826	0.0264055	0.653698	0	0	0	0	0.2478	-0.269474	-0.883378	33.875	3	42375	4287577
456	-0.650746	1.61927	10.4767	-0.893494	-1.52179	1.27891	-0.00665055	0.016209	0.104756	0.999994	-0.000290557	-0.00015848	0.00339126	-0.0581114	-0.0316961	0.678253	0	0	0	0	0.234631	-0.274402	-0.874336	33.875	3	42379	4287977
457	-1.99665	1.05556	8.52454	0.799079	-2.22298	-0.729776	-0.0200309	0.0103778	0.0852522	0.999994	0.000258629	3.26142e-05	0.00334085	0.051726	0.00652285	0.668172	0	0	0	0	0.2378	-0.278621	-0.885556	33.875	3	42382	4288277
458	-0.566215	1.23206	8.32798	-0.576481	-1.08796	-0.414171	-0.00572279	0.0122107	0.0832918	0.999994	0.000421596	0.000148645	0.00348117	0.0843194	0.0297291	0.696235	0	0	0	0	0.224246	-0.281206	-0.870904	33.875	3	42385	4288577
459	-1.42298	1.32416	8.74572	0.316747	-2.0094	-0.800766	-0.0143565	0.0131848	0.0874451	0.999994	-0.00021431	-0.000226331	0.0032987	-0.0428621	-0.0452663	0.659741	0	0	0	0	0.225247	-0.287988	-0.87409	33.875	3	42389	4288977
460	-0.0495254	0.503354	10.4593	-0.855362	-0.298666	1.81033	-0.00051129	0.00512312	0.104588	0.999994	-0.000444792	9.01175e-05	0.00343481	-0.0889586	0.0180235	0.686963	0	0	0	0	0.216294	-0.290459	-0.868042	33.875	3	42392	4289277
461	-0.482148	1.0916	10.6015	-0.760552	-0.820954	2.02218	-0.00494276	0.0109513	0.106006	0.999994	-0.000324041	-0.000218357	0.00342873	-0.0648084	-0.0436716	0.685748	0	0	0	0	0.213306	-0.287951	-0.870498	33.875	3	42395	4289577
462	-0.284743	1.62942	10.8507	-1.48357	-1.48426	2.24386	-0.00308924	0.0163961	0.108485	0.999994	-0.000561174	-0.000609267	0.00335284	-0.112235	-0.121854	0.670569	0	0	0	0	0.20966	-0.294333	-0.866583	33.875	3	42399	4289977
463	-0.415818	0.452147	10.5621	-0.444287	-0.191114	2.09513	-0.00423633	0.0045772	0.105616	0.999994	-0.000402309	-0.00021986	0.00348498	-0.0804621	-0.0439722	0.696998	0	0	0	0	0.200617	-0.283245	-0.854678	33.875	3	42402	4290277
464	-0.941074	-0.132358	9.34317	0.408423	-0.316437	0.382956	-0.00932659	-0.00125967	0.0934411	0.999994	-0.000686884	0.000402764	0.00343936	-0.137377	0.0805529	0.687873	0	0	0	0	0.200163	-0.288562	-0.85732	33.875	3	42405	4290577
465	1.20437	-1.7254	12.3783	-1.02969	2.13763	4.06444	0.0119978	-0.0169704	0.123827	0.999993	-0.000811248	-0.000660776	0.00344086	-0.16225	-0.132155	0.688173	0	0	0	0	0.187426	-0.280929	-0.841434	33.875	3	42409	4290977
466	-0.600764	1.57392	10.9789	-1.29623	-1.94675	1.9742	-0.00608724	0.0157575	0.109782	0.999994	-0.000275726	0.000138843	0.00349486	-0.0551453	0.0277687	0.698974	0	0	0	0	0.186303	-0.283694	-0.850076	33.875	3	42412	4291277
467	-1.56239	1.39006	8.68698	0.413705	-1.73868	-0.622589	-0.0156688	0.0137083	0.0868923	0.999994	0.000482998	0.000292134	0.00346359	0.0965998	0.058427	0.692719	0	0	0	0	0.174107	-0.280446	-0.834796	33.875	3	42415	4291577
468	-0.653873	0.17762	10.4602	0.0262423	-0.506115	1.36504	-0.00663113	0.00178806	0.104596	0.999994	-0.00027204	-0.000383397	0.00342047	-0.0544082	-0.0766796	0.684096	0	0	0	0	0.173881	-0.280763	-0.844398	33.875	3	42418	4291877
469	0.00852463	2.1937	10.5847	-1.47083	-1.97871	1.3702	-0.000155749	0.0218806	0.105859	0.999994	0.000265047	-0.000409568	0.00352109	0.0530095	-0.0819137	0.704219	0	0	0	0	0.159327	-0.284757	-0.832298	33.875	3	42422	4292277
470	-1.13855	1.32167	9.45291	0.513001	-2.15712	0.175189	-0.0114822	0.0131497	0.0945268	0.999994	-5.0234e-05	-4.51689e-05	0.00334458	-0.0100468	-0.00903379	0.668918	0	0	0	0	0.156881	-0.283744	-0.833275	33.875	3	42425	4292577
471	-0.00567125	1.06882	11.1295	-0.945253	-0.697233	1.64082	-7.58258e-05	0.0106525	0.111299	0.999994	0.000158438	0.000253362	0.00353832	0.0316877	0.0506725	0.707665	0	0	0	0	0.146811	-0.292358	-0.837965	33.875	3	42429	4292977
472	-1.20081	2.0342	9.45794	0.193495	-2.21386	0.204683	-0.0121059	0.0202158	0.094594	0.999994	0.000229381	0.000218467	0.00343155	0.0458764	0.0436934	0.68631	0	0	0	0	0.141159	-0.287098	-0.829236	33.875	3	42432	4293277
473	-0.978086	0.438127	9.45336	0.192966	-0.883196	0.452459	-0.00975688	0.00442164	0.0945342	0.999994	-0.000561596	0.00028367	0.00336854	-0.112319	0.0567341	0.673709	0	0	0	0	0.140124	-0.295229	-0.837998	33.875	3	42435	4293577
474	-0.479282	0.075043	9.59695	0.182756	-0.00894287	0.0703735	-0.00483566	0.000741618	0.0959674	0.999994	-0.000132841	-0.00019549	0.00356332	-0.0265683	-0.0390981	0.712666	0	0	0	0	0.133164	-0.291501	-0.824752	33.875	3	42439	4293977
475	-0.733506	1.59666	9.53171	-0.390815	-1.90532	0.620756	-0.00738787	0.0160413	0.0953005	0.999994	-0.000656875	0.000299011	0.00343076	-0.131375	0.0598023	0.686153	0	0	0	0	0.134425	-0.29379	-0.833899	33.875	3	42442	4294277
476	0.24647	1.23444	10.5781	-1.33553	-1.39936	1.65067	0.0023786	0.0123609	0.105781	0.999994	1.08392e-06	-4.61255e-06	0.00344542	0.000216784	-0.000922512	0.689085	0	0	0	0	0.129834	-0.287165	-0.820094	33.875	3	42445	4294577
477	-1.16667	1.6828	9.47216	-0.0676349	-2.11377	0.509343	-0.0117505	0.0168028	0.0947157	0.999994	-0.000282825	0.000154485	0.00336188	-0.0565652	0.030897	0.672378	0	0	0	0	0.130621	-0.283189	-0.824555	33.875	3	42449	4294977
478	-1.23445	1.06365	8.61046	0.716022	-0.918268	-0.292161	-0.0123945	0.0105378	0.0861096	0.999994	7.96738e-05	0.000132097	0.00343317	0.0159348	0.0264195	0.686636	0	0	0	0	0.129341	-0.285706	-0.819555	33.875	3	42452	4295277
479	-1.55095	-0.96724	9.38458	0.899793	0.33563	0.335171	-0.0153049	-0.00967052	0.0938796	0.999994	-0.0005816	0.00073119	0.00348226	-0.11632	0.146238	0.696453	0	0	0	0	0.127745	-0.273536	-0.817257	33.875	3	42455	4295577
480	-0.486128	1.36535	8.76998	-0.583522	-1.32536	0.104991	-0.00494346	0.0136659	0.0876932	0.999994	-0.000260511	5.92751e-05	0.00338852	-0.0521024	0.011855	0.677706	0	0	0	0	0.123533	-0.278405	-0.81583	33.875	3	42459	4295977
481	0.0230648	0.630306	10.3808	-0.947545	-0.948334	1.86186	5.83639e-05	0.0064252	0.1038	0.999994	-0.000583553	-0.000618795	0.0034424	-0.116711	-0.123759	0.688481	0	0	0	0	0.119322	-0.264964	-0.80137	33.875	3	42462	4296277
482	-0.397591	1.23717	11.1843	-0.419772	-1.56054	2.09218	-0.00410346	0.0124074	0.111834	0.999994	-0.000283568	-0.000189864	0.00343373	-0.0567138	-0.0379728	0.686747	0	0	0	0	0.117248	-0.272066	-0.81263	33.875	3	42465	4296577
483	-1.58712	0.665535	7.44479	0.796586	-0.790892	-1.05412	-0.0159002	0.0065547	0.0744506	0.999994	-4.96025e-05	0.000107174	0.00340031	-0.00992051	0.0214349	0.680063	0	0	0	0	0.110527	-0.263347	-0.805839	33.875	3	42469	4296977
484	0.471405	0.239915	12.7645	-1.21609	-0.703396	3.5891	0.00448112	0.00265326	0.127648	0.999993	-0.000870157	-0.000843603	0.00347632	-0.174032	-0.168721	0.695265	0	0	0	0	0.109835	-0.26608	-0.816503	33.875	3	42472	4297277
485	0.480429	1.05117	11.166	-1.2636	-2.38368	1.59596	0.00467578	0.0105673	0.11166	0.999994	-0.000100061	-0.000244234	0.00350929	-0.0200123	-0.0488469	0.70186	0	0	0	0	0.106159	-0.264729	-0.808375	33.875	3	42475	4297577
486	0.544438	2.10479	10.7875	-1.3867	-2.32532	1.44772	0.00532129	0.0211034	0.107871	0.999994	-8.27597e-05	0.000112897	0.003498	-0.016552	0.0225794	0.699601	0	0	0	0	0.103597	-0.267004	-0.816495	33.875	3	42479	4297977
487	-0.281155	0.716751	10.4723	-0.486562	-1.28601	1.21959	-0.00287351	0.00723649	0.104716	0.999994	-0.000421051	-6.35214e-05	0.00337734	-0.0842103	-0.0127043	0.67547	0	0	0	0	0.104145	-0.274767	-0.819195	33.875	3	42482	4298277
488	-1.58812	1.13879	9.32453	0.862292	-1.45532	0.0699728	-0.0158285	0.0113482	0.0932591	0.999994	-0.000352389	0.000688115	0.00332321	-0.070478	0.137623	0.664643	0	0	0	0	0.105858	-0.267882	-0.823091	33.875	3	42485	4298577
489	-0.666357	1.26625	10.1431	-0.137283	-1.61254	1.22802	-0.0068253	0.0126884	0.101417	0.999994	-0.000351229	-0.000376928	0.00336363	-0.0702459	-0.0753858	0.672727	0	0	0	0	0.105724	-0.277421	-0.835423	33.875	3	42489	4298977
490	-1.05869	0.645623	9.16511	0.0480118	-0.927921	0.0298469	-0.0105385	0.00648208	0.0916549	0.999994	-0.000530443	0.000502554	0.00337913	-0.106089	0.100511	0.675827	0	0	0	0	0.105348	-0.269784	-0.825656	33.875	3	42492	4299277
491	-0.0679149	2.12237	9.7813	-0.80431	-2.75885	0.709795	-0.000856131	0.0212354	0.0978091	0.999994	-8.59546e-05	-0.00017826	0.00334696	-0.017191	-0.0356521	0.669394	0	0	0	0	0.104676	-0.27446	-0.836868	33.875	3	42495	4299577
492	-0.236439	1.26184	10.5432	-0.635812	-1.8584	1.93485	-0.00257177	0.0126908	0.105418	0.999994	-0.00042327	-0.000573196	0.00341855	-0.0846543	-0.11464	0.683711	0	0	0	0	0.104156	-0.266236	-0.832642	33.875	3	42499	4299977
493	-1.1855	1.48152	9.74536	0.565893	-1.46731	0.598999	-0.0119106	0.0147327	0.0974593	0.999994	7.49175e-06	0.000231386	0.00341006	0.00149835	0.0462774	0.682014	0	0	0	0	0.105148	-0.262545	-0.848727	33.875	3	42502	4300277
494	-1.69988	1.96767	8.4285	1.57138	-1.68431	-1.17597	-0.0170682	0.0195515	0.0843001	0.999994	5.79875e-05	0.000376504	0.00338535	0.0115975	0.075301	0.677072	0	0	0	0	0.105306	-0.258805	-0.839553	33.875	3	42505	4300577
495	-1.66072	-1.49725	8.99822	0.396051	1.56229	0.308917	-0.0164293	-0.0150011	0.0900101	0.999994	-0.00047615	0.000412433	0.0034616	-0.0952301	0.0824867	0.692321	0	0	0	0	0.101464	-0.249275	-0.852455	33.875	3	42509	4300977
496	-0.336863	1.91493	9.2339	0.0231159	-1.6394	0.561229	-0.00352263	0.0191562	0.0923318	0.999994	-0.000169132	-9.88355e-05	0.00354387	-0.0338266	-0.0197671	0.708776	0	0	0	0	0.0929088	-0.255544	-0.852555	33.875	3	42512	4301277
497	-0.797329	1.40665	10.18	0.663077	-2.02195	0.753461	-0.00806944	0.0140008	0.101801	0.999994	4.77615e-05	8.06465e-06	0.00348418	0.00955232	0.00161293	0.696838	0	0	0	0	0.0954865	-0.244259	-0.857367	33.875	3	42515	4301577
498	-0.895105	0.245766	9.32199	-0.163296	-0.493693	0.609299	-0.00889459	0.00243639	0.0932259	0.999994	-0.0002121	0.000392297	0.0034083	-0.04242	0.0784596	0.681661	0	0	0	0	0.0847392	-0.25128	-0.86909	33.875	3	42519	4301977
499	-0.12626	1.83807	9.75658	-0.591993	-3.03875	0.942625	-0.00140314	0.0184542	0.09755	0.999994	-0.000421617	-9.86253e-05	0.003293	-0.0843235	-0.0197251	0.658601	0	0	0	0	0.0836346	-0.24635	-0.8715	33.875	3	42522	4302277
500	-1.05808	-0.247233	9.79602	0.0382586	-0.199556	1.36303	-0.0106231	-0.00249831	0.097955	0.999995	-0.000196432	-0.000292927	0.0030402	-0.0392865	-0.0585855	0.608042	0	0	0	0	0.0795286	-0.252876	-0.886778	33.875	3	42525	4302577
501	0.375967	1.93603	10.2372	-1.12352	-2.50806	1.43361	0.00367948	0.0194358	0.10236	0.999996	-0.000267227	0.000137636	0.00279332	-0.0534455	0.0275272	0.558665	0	0	0	0	0.0718872	-0.256226	-0.886817	33.875	3	42529	4302977
502	-0.257189	0.901806	10.0886	-0.606347	-1.12112	1.4729	-0.00263896	0.00905435	0.100881	0.999997	-0.00024384	-0.000110424	0.00247833	-0.0487681	-0.0220849	0.495667	0	0	0	0	0.0724305	-0.254482	-0.902943	33.875	3	42532	4303277
503	-0.375048	1.25056	8.79674	-0.30842	-1.27772	-0.0869384	-0.00375903	0.0123667	0.0879867	0.999997	0.000686868	0.000290735	0.00240068	0.137374	0.0581472	0.480136	0	0	0	0	0.0671543	-0.255414	-0.902939	33.875	3	42535	4303577
504	0.14095	1.15117	9.61001	-0.207385	-1.14267	0.130384	0.00129488	0.0114333	0.0961111	0.999997	0.000439151	-0.000331183	0.00222115	0.0878303	-0.0662366	0.444231	0	0	0	0	0.068257	-0.25325	-0.915523	33.875	3	42539	4303977
505	-1.92769	1.03788	8.84784	1.35592	-1.02533	-0.00377607	-0.0192714	0.0102718	0.0884921	0.999998	0.000164162	0.000266959	0.00201995	0.0328325	0.0533918	0.40399	0	0	0	0	0.0643849	-0.261392	-0.922252	33.875	3	42542	4304277
506	-1.52979	0.0894629	8.11568	0.62685	-0.112822	-0.366022	-0.0152988	0.000874857	0.0811569	0.999998	-0.000241553	1.56347e-05	0.00192766	-0.0483106	0.00312695	0.385533	0	0	0	0	0.0635696	-0.251507	-0.929099	33.875	3	42545	4304577
507	-0.438403	-0.16153	10.1786	-0.62864	-0.437516	0.996179	-0.00441256	-0.00162308	0.101784	0.999998	-4.30926e-05	-0.000170083	0.00188139	-0.00861852	-0.0340167	0.376278	0	0	0	0	0.0571747	-0.25328	-0.93618	33.875	3	42549	4304977
508	0.0203283	1.44362	11.3993	-0.659742	-1.97756	2.69751	0.000160094	0.0145577	0.113977	0.999998	-0.00052995	3.83595e-05	0.00179118	-0.10599	0.0076719	0.358236	0	0	0	0	0.0557673	-0.243657	-0.927878	33.875	3	42552	4305277
509	0.407171	0.115871	11.6276	-1.59199	-0.732198	2.94538	0.00397526	0.00125804	0.116279	0.999998	-0.000368454	-0.000397122	0.00169584	-0.0736909	-0.0794244	0.339168	0	0	0	0	0.0497054	-0.245325	-0.941019	33.875	3	42555	4305577
510	-1.5892	0.293307	9.49156	1.07373	-0.461744	0.246846	-0.0158866	0.00278802	0.094921	0.999998	0.000479761	7.99887e-05	0.00169841	0.0959523	0.0159978	0.339682	0	0	0	0	0.0452994	-0.238487	-0.939332	33.875	3	42559	4305977
511	-0.816436	2.09367	10.0765	1.01421	-2.2371	0.673224	-0.00826249	0.0209986	0.100744	0.999998	-0.000441953	-0.000143453	0.00165044	-0.0883907	-0.0286906	0.330089	0	0	0	0	0.0415548	-0.233365	-0.951322	33.875	3	42562	4306277
512	-1.97242	0.895305	8.31365	1.35842	-0.360103	-0.681654	-0.0196115	0.00870443	0.0831896	0.999997	0.00108873	0.000860156	0.00171712	0.217747	0.172031	0.343424	0	0	0	0	0.0338953	-0.228993	-0.946644	33.875	3	42565	4306577
513	-0.642429	1.30629	9.84953	0.421578	-1.36422	0.686239	-0.00647664	0.0129665	0.0985046	0.999998	0.000379802	-4.50613e-05	0.00167044	0.0759604	-0.00901226	0.334089	0	0	0	0	0.0308321	-0.227876	-0.953171	33.875	3	42569	4306977
514	-0.873561	0.314768	9.44235	0.26737	-0.418523	0.410547	-0.00874272	0.00310882	0.0944242	0.999998	5.08338e-05	1.78284e-05	0.00167411	0.0101668	0.00356569	0.334822	0	0	0	0	0.0207221	-0.235497	-0.958849	33.875	3	42572	4307277
515	-1.02226	1.64595	8.39474	0.866045	-1.09537	-1.1161	-0.0102054	0.0162891	0.0839828	0.999998	0.000808439	0.000434048	0.00169777	0.161688	0.0868098	0.339555	0	0	0	0	0.0199182	-0.228511	-0.967276	33.875	3	42575	4307577
516	-1.23511	-0.137069	9.78828	0.137726	0.327016	1.1042	-0.0123195	-0.00137894	0.0978867	0.999998	-0.000161544	0.000138862	0.00161641	-0.0323087	0.0277725	0.323282	0	0	0	0	0.0160742	-0.239084	-0.974564	33.875	3	42579	4307977
517	-1.2745	-0.231083	9.44427	0.149578	0.326924	0.75287	-0.012742	-0.00224096	0.0944448	0.999998	-0.000597639	-2.48879e-05	0.00168767	-0.119528	-0.00497758	0.337534	0	0	0	0	0.0165163	-0.232313	-0.971385	33.875	3	42582	4308277
518	-0.816917	-0.209989	9.28321	-0.522719	-0.0901053	1.07012	-0.00814004	-0.00217431	0.092833	0.999998	0.00024622	0.000116387	0.00175988	0.0492441	0.0232774	0.351977	0	0	0	0	0.0106334	-0.240377	-0.981639	33.875	3	42585	4308577
519	-0.662345	1.12766	7.98928	0.19387	-1.38148	-0.660154	-0.00658623	0.0112356	0.0799017	0.999998	0.000115676	0.000473463	0.00170723	0.0231352	0.0946926	0.341447	0	0	0	0	0.00694526	-0.239017	-0.974016	33.875	3	42589	4308977
520	0.743219	0.0447716	11.9852	-1.7283	-1.31921	3.21248	0.00728583	0.000536634	0.11986	0.999998	-0.000261705	-0.000603239	0.00177898	-0.0523411	-0.120648	0.355796	0	0	0	0	0.00823343	-0.235542	-0.977985	33.875	3	42592	4309277
521	-0.62584	1.58072	9.48979	1.3238	-1.61965	0.216739	-0.00630414	0.0158127	0.0948939	0.999999	-0.000139514	3.82376e-05	0.0016759	-0.0279028	0.00764752	0.33518	0	0	0	0	0.00750938	-0.236672	-0.968915	33.875	3	42595	4309577
522	-0.553715	1.39327	11.6425	0.215219	-1.21025	2.2608	-0.00550566	0.0139192	0.116428	0.999999	-2.19236e-05	0.000336228	0.00168035	-0.00438472	0.0672456	0.33607	0	0	0	0	0.00724455	-0.228769	-0.974294	33.875	3	42599	4309977
523	-0.639016	1.0966	11.1767	0.621303	-1.82297	1.81382	-0.00642005	0.0109468	0.111767	0.999999	-1.292e-05	3.49235e-05	0.00172016	-0.002584	0.0069847	0.344032	0	0	0	0	0.00248896	-0.235033	-0.976432	33.875	3	42602	4310277
524	-1.20403	1.46735	8.21419	0.761795	-1.22129	-0.44071	-0.0120387	0.0146178	0.0821521	0.999999	9.98674e-05	0.000300542	0.00163138	0.0199735	0.0601083	0.326276	0	0	0	0	0.0033149	-0.223859	-0.974167	33.875	3	42605	4310577
522	-0.691806	0.535671	9.52095	0.105043	-0.82181	0.724982	-0.00700015	0.00542325	0.0951997	0.999998	-0.000472617	-0.000335715	0.00168475	-0.0945235	-0.0671431	0.336949	0	0	0	0	-0.00441618	-0.224734	-0.976171	33.875	3	42609	4310977
526	-0.956583	-0.280477	8.58297	-0.0935465	0.200379	-0.398131	-0.00953781	-0.00278331	0.0858335	0.999998	-0.000315023	0.00010767	0.00170737	-0.0630047	0.0215341	0.341474	0	0	0	0	-0.00631749	-0.216543	-0.969414	33.875	3	42612	4311277
527	-1.45606	-0.355901	8.49583	0.18029	0.630624	-0.167554	-0.0145359	-0.00353032	0.0849637	0.999999	-0.00046027	7.42869e-05	0.001702	-0.092054	0.0148574	0.3404	0	0	0	0	-0.0104179	-0.218255	-0.98105	33.875	3	42615	4311577
528	-1.99583	-1.20541	8.48788	0.179728	0.942336	-0.105664	-0.0197521	-0.0120271	0.0849309	0.999998	-0.000551348	0.000976331	0.0016782	-0.11027	0.195266	0.33564	0	0	0	0	-0.016187	-0.217728	-0.980506	33.875	3	42619	4311977
529	-1.19119	0.965454	8.94596	0.592618	-0.620194	0.101519	-0.0119804	0.0095592	0.0894607	0.999998	0.000304621	-0.000199323	0.00170892	0.0609243	-0.0398646	0.341785	0	0	0	0	-0.0121084	-0.219508	-0.992181	33.875	3	42622	4312277
530	-0.284307	1.62617	9.02037	-0.27838	-1.31755	0.60545	-0.00294455	0.0164029	0.0901749	0.999998	-0.00083272	-0.000280049	0.00156019	-0.166544	-0.0560098	0.312038	0	0	0	0	-0.0191448	-0.221507	-0.986132	33.875	3	42625	4312577
531	-0.488476	0.0199739	9.57079	-0.458108	-0.482592	0.893213	-0.00494158	9.63341e-05	0.0957052	0.999999	0.000470376	-0.000294757	0.0013605	0.0940752	-0.0589514	0.2721	0	0	0	0	-0.0170306	-0.219387	-0.996701	33.875	3	42629	4312977
532	-0.610252	-0.0561055	9.53117	-0.860799	0.155072	1.12809	-0.00612294	-0.000435427	0.0953111	0.999999	-0.000734251	-0.000113219	0.00117271	-0.14685	-0.0226438	0.234543	0	0	0	0	-0.0217292	-0.227621	-0.997873	33.875	3	42632	4313277
533	-0.15521	0.64429	10.8684	-0.607276	-1.06642	2.24749	-0.00163099	0.00631513	0.10869	0.999999	0.00057209	-0.000299863	0.00107408	0.114418	-0.0599726	0.214816	0	0	0	0	-0.0166083	-0.223203	-1.00184	33.875	3	42635	4313577
534	-1.14134	1.52219	9.45309	1.15463	-1.23823	0.176736	-0.0114489	0.0151564	0.0945371	1	0.000250257	-5.99463e-05	0.000795335	0.0500514	-0.0119893	0.159067	0	0	0	0	-0.019225	-0.227366	-1.01354	33.875	3	42639	4313977
535	-1.53396	0.340802	8.82221	0.405681	-0.0640131	0.0248992	-0.0152035	0.00329447	0.08825	0.999999	0.000540266	0.00079386	0.000596133	0.108053	0.158772	0.119227	0	0	0	0	-0.0156873	-0.223663	-1.00387	33.875	3	42642	4314277
536	-1.4612	-0.474128	8.31822	0.162343	0.587682	-0.318816	-0.0147223	-0.00472004	0.083164	0.999999	-0.000217921	-0.000691901	0.000511669	-0.0435841	-0.13838	0.102334	0	0	0	0	-0.0216168	-0.223019	-1.00989	33.875	3	42645	4314577
537	-0.409555	-0.269994	8.53834	-0.754282	-0.457464	-0.275222	-0.00405226	-0.00259735	0.0853887	1	-0.000617066	0.000242883	0.000341419	-0.123413	0.0485766	0.0682837	0	0	0	0	-0.0272328	-0.219231	-1.00069	33.875	3	42649	4314977
538	-1.08671	-0.512291	7.92139	-0.184128	0.520047	-0.969627	-0.0108526	-0.00515772	0.0792137	1	0.000186367	7.55015e-05	0.000243039	0.0372735	0.0151003	0.0486077	0	0	0	0	-0.0217578	-0.21376	-1.00918	33.875	3	42652	4315277
539	-0.961143	-0.419827	9.45288	-0.0157037	0.843296	-0.0777794	-0.00962967	-0.00427401	0.0945236	1	0.000384006	-0.000103812	0.000163408	0.0768011	-0.0207625	0.0326816	0	0	0	0	-0.029842	-0.212798	-1.00458	33.875	3	42655	4315577
540	-0.805887	0.0102954	10.9256	0.0997096	-0.227924	2.01469	-0.00808585	0.00015392	0.109254	1	-0.000248955	-0.000123218	0.000212694	-0.049791	-0.0246436	0.0425387	0	0	0	0	-0.0276452	-0.209774	-1.01109	33.875	3	42659	4315977
