frame_id,imu_idx,accel_x,accel_y,accel_z,free_accel_x,free_accel_y,free_accel_z,delta_v_x,delta_v_y,delta_v_z,delta_q_w,delta_q_x,delta_q_y,delta_q_z,rate_x,rate_y,rate_z,quat_w,quat_x,quat_y,quat_z,mag_x,mag_y,mag_z,temperature,status_byte,packet_counter,time_fine
3157,1,-0.699999,-0.025777,9.78939,-0.107575,-1.83239,0.919035,-0.00700299,-0.000267914,0.0978937,1,5.05633e-05,-1.5352e-05,1.74159e-05,0.0101127,-0.0030704,0.00348317,0,0,0,0,0.037485,0.310127,-1.11397,35.9375,3,22848,9585333
3157,2,-0.48691,-0.066736,7.34329,-0.107575,-1.83239,0.919035,-0.00487019,-0.000674762,0.0734328,1,4.90285e-05,-7.56972e-06,2.07184e-05,0.00980569,-0.00151394,0.00414368,0,0,0,0,0.0184565,0.499717,-1.01068,35.875,1,31070,10408995
3,1,-0.48691,-0.066736,7.34329,-0.107575,-1.83239,0.919035,-0.00487019,-0.000674762,0.0734328,1,4.90285e-05,-7.56972e-06,2.07184e-05,0.00980569,-0.00151394,0.00414368,0,0,0,0,0.0184565,0.499717,-1.01068,35.875,1,31070,10408995
3,2,-0.659878,-0.0810801,9.786,0.104517,-0.473727,1.00906,-0.00659986,-0.000821266,0.0978598,1,5.18672e-05,-5.7332e-06,2.37749e-05,0.0103734,-0.00114664,0.00475499,0,0,0,0,0.0189699,0.497762,-1.01073,35.875,1,31071,10409095
10,1,-0.659878,-0.0810801,9.786,0.104517,-0.473727,1.00906,-0.00659986,-0.000821266,0.0978598,1,5.18672e-05,-5.7332e-06,2.37749e-05,0.0103734,-0.00114664,0.00475499,0,0,0,0,0.0189699,0.497762,-1.01073,35.875,1,31071,10409095
10,2,-0.650102,-0.0689035,9.77959,0.116414,-0.464059,1.00326,-0.00650354,-0.000699422,0.0977957,1,5.15971e-05,-1.30216e-05,2.26556e-05,0.0103194,-0.00260432,0.00453111,0,0,0,0,0.0185007,0.496312,-1.01126,35.875,1,31072,10409195
10,1,-0.650102,-0.0689035,9.77959,0.116414,-0.464059,1.00326,-0.00650354,-0.000699422,0.0977957,1,5.15971e-05,-1.30216e-05,2.26556e-05,0.0103194,-0.00260432,0.00453111,0,0,0,0,0.0185007,0.496312,-1.01126,35.875,1,31072,10409195
10,2,-0.664408,-0.0897735,9.78936,0.0982416,-0.485221,1.01355,-0.00664703,-0.000906119,0.0978933,1,4.15595e-05,-1.52586e-05,1.85742e-05,0.00831189,-0.00305173,0.00371483,0,0,0,0,0.0189648,0.494393,-1.01333,35.875,1,31073,10409295
15,1,-0.664408,-0.0897735,9.78936,0.0982416,-0.485221,1.01355,-0.00664703,-0.000906119,0.0978933,1,4.15595e-05,-1.52586e-05,1.85742e-05,0.00831189,-0.00305173,0.00371483,0,0,0,0,0.0189648,0.494393,-1.01333,35.875,1,31073,10409295
15,2,-0.655024,-0.0831441,9.79274,0.109339,-0.47775,1.01675,-0.00655205,-0.000840149,0.0979272,1,4.36324e-05,-9.30954e-06,1.23776e-05,0.00872648,-0.00186191,0.00247552,0,0,0,0,0.0188988,0.493959,-1.01637,35.875,1,31074,10409395
18,1,-0.655024,-0.0831441,9.79274,0.109339,-0.47775,1.01675,-0.00655205,-0.000840149,0.0979272,1,4.36324e-05,-9.30954e-06,1.23776e-05,0.00872648,-0.00186191,0.00247552,0,0,0,0,0.0188988,0.493959,-1.01637,35.875,1,31074,10409395
18,2,-0.650894,-0.0855783,9.78794,0.114822,-0.479604,1.01187,-0.00651276,-0.000868868,0.097879,1,6.55892e-05,-1.97216e-05,1.88748e-05,0.0131178,-0.00394432,0.00377496,0,0,0,0,0.0189358,0.493932,-1.01485,35.875,1,31075,10409495
18,3,-0.650894,-0.0855783,9.78794,0.114822,-0.479604,1.01187,-0.00651276,-0.000868868,0.097879,1,6.55892e-05,-1.97216e-05,1.88748e-05,0.0131178,-0.00394432,0.00377496,0,0,0,0,0.0189358,0.493932,-1.01485,35.875,1,31075,10409495
18,4,-0.668673,-0.0854304,9.78805,0.0938631,-0.478257,1.0166,-0.00668694,-0.000859107,0.0978805,1,2.37096e-05,-1.17924e-06,1.20998e-05,0.00474191,-0.000235848,0.00241995,0,0,0,0,0.0175707,0.494369,-1.0113,35.875,1,31076,10409595
18,5,-0.668673,-0.0854304,9.78805,0.0938631,-0.478257,1.0166,-0.00668694,-0.000859107,0.0978805,1,2.37096e-05,-1.17924e-06,1.20998e-05,0.00474191,-0.000235848,0.00241995,0,0,0,0,0.0175707,0.494369,-1.0113,35.875,1,31076,10409595
18,6,-0.665223,-0.0802946,9.78978,0.097723,-0.476813,1.01561,-0.00665386,-0.000815136,0.0978975,1,6.07854e-05,-8.50161e-06,2.16794e-05,0.0121571,-0.00170032,0.00433587,0,0,0,0,0.0166128,0.494856,-1.01078,35.875,1,31077,10409695
18,7,-0.665223,-0.0802946,9.78978,0.097723,-0.476813,1.01561,-0.00665386,-0.000815136,0.0978975,1,6.07854e-05,-8.50161e-06,2.16794e-05,0.0121571,-0.00170032,0.00433587,0,0,0,0,0.0166128,0.494856,-1.01078,35.875,1,31077,10409695
18,8,-0.648617,-0.0815413,9.78524,0.111663,-0.4773,1.00747,-0.00648823,-0.000825395,0.0978522,1,5.02672e-05,-1.06356e-05,1.11277e-05,0.0100534,-0.00212711,0.00222555,0,0,0,0,0.0179906,0.495855,-1.01278,35.875,1,31078,10409795
24,1,-0.648617,-0.0815413,9.78524,0.111663,-0.4773,1.00747,-0.00648823,-0.000825395,0.0978522,1,5.02672e-05,-1.06356e-05,1.11277e-05,0.0100534,-0.00212711,0.00222555,0,0,0,0,0.0179906,0.495855,-1.01278,35.875,1,31078,10409795
24,2,-0.646585,-0.0770388,9.78903,0.119363,-0.474245,1.01189,-0.0064683,-0.000782779,0.0978901,1,6.28102e-05,-1.2558e-05,7.3056e-06,0.012562,-0.00251161,0.00146112,0,0,0,0,0.0208489,0.496816,-1.01328,35.8125,1,31079,10409895
25,1,-0.646585,-0.0770388,9.78903,0.119363,-0.474245,1.01189,-0.0064683,-0.000782779,0.0978901,1,6.28102e-05,-1.2558e-05,7.3056e-06,0.012562,-0.00251161,0.00146112,0,0,0,0,0.0208489,0.496816,-1.01328,35.8125,1,31079,10409895
25,2,-0.644772,-0.0808348,9.79004,0.117334,-0.478575,1.0133,-0.00645068,-0.000817773,0.0979002,1,4.70206e-05,-1.53071e-05,1.69204e-05,0.00940412,-0.00306143,0.00338408,0,0,0,0,0.0208365,0.496825,-1.01379,35.8125,1,31080,10409995
27,1,-0.644772,-0.0808348,9.79004,0.117334,-0.478575,1.0133,-0.00645068,-0.000817773,0.0979002,1,4.70206e-05,-1.53071e-05,1.69204e-05,0.00940412,-0.00306143,0.00338408,0,0,0,0,0.0208365,0.496825,-1.01379,35.8125,1,31080,10409995
27,2,-0.657953,-0.0838451,9.7891,0.0974651,-0.480106,1.01571,-0.00658289,-0.000843609,0.0978907,1,2.46969e-05,-1.73522e-05,2.44994e-05,0.00493938,-0.00347045,0.00489989,0,0,0,0,0.0199147,0.494394,-1.01384,35.8125,1,31081,10410095
28,1,-0.657953,-0.0838451,9.7891,0.0974651,-0.480106,1.01571,-0.00658289,-0.000843609,0.0978907,1,2.46969e-05,-1.73522e-05,2.44994e-05,0.00493938,-0.00347045,0.00489989,0,0,0,0,0.0199147,0.494394,-1.01384,35.8125,1,31081,10410095
28,2,-0.646238,-0.079046,9.786,0.118328,-0.480078,1.01064,-0.0064629,-0.000800613,0.0978599,1,5.03585e-05,-2.84411e-06,2.29663e-05,0.0100717,-0.000568821,0.00459325,0,0,0,0,0.0184832,0.492952,-1.01437,35.8125,1,31082,10410195
29,1,-0.646238,-0.079046,9.786,0.118328,-0.480078,1.01064,-0.0064629,-0.000800613,0.0978599,1,5.03585e-05,-2.84411e-06,2.29663e-05,0.0100717,-0.000568821,0.00459325,0,0,0,0,0.0184832,0.492952,-1.01437,35.8125,1,31082,10410195
29,2,-0.645407,-0.0782294,9.79618,0.1181,-0.481902,1.02373,-0.00645744,-0.000791273,0.0979615,1,4.4562e-05,-1.73485e-05,1.91909e-05,0.00891239,-0.00346971,0.00383818,0,0,0,0,0.0184998,0.493421,-1.01335,35.8125,1,31083,10410295
29,3,-0.645407,-0.0782294,9.79618,0.1181,-0.481902,1.02373,-0.00645744,-0.000791273,0.0979615,1,4.4562e-05,-1.73485e-05,1.91909e-05,0.00891239,-0.00346971,0.00383818,0,0,0,0,0.0184998,0.493421,-1.01335,35.8125,1,31083,10410295
29,4,-0.66232,-0.0793699,9.79799,0.097372,-0.478916,1.02393,-0.00662773,-0.000802438,0.0979795,1,4.40756e-05,-2.32125e-05,7.70213e-06,0.00881512,-0.00464249,0.00154042,0,0,0,0,0.0189529,0.495847,-1.01279,35.8125,1,31084,10410395
30,1,-0.66232,-0.0793699,9.79799,0.097372,-0.478916,1.02393,-0.00662773,-0.000802438,0.0979795,1,4.40756e-05,-2.32125e-05,7.70213e-06,0.00881512,-0.00464249,0.00154042,0,0,0,0,0.0189529,0.495847,-1.01279,35.8125,1,31084,10410395
30,2,-0.659047,-0.076912,9.7834,0.101685,-0.479669,1.00774,-0.00659364,-0.000777355,0.0978338,1,4.11292e-05,-1.62962e-05,1.42229e-05,0.00822583,-0.00325924,0.00284458,0,0,0,0,0.0199645,0.495803,-1.01077,35.8125,1,31085,10410495
30,3,-0.659047,-0.076912,9.7834,0.101685,-0.479669,1.00774,-0.00659364,-0.000777355,0.0978338,1,4.11292e-05,-1.62962e-05,1.42229e-05,0.00822583,-0.00325924,0.00284458,0,0,0,0,0.0199645,0.495803,-1.01077,35.8125,1,31085,10410495
30,4,-0.653732,-0.0781934,9.79046,0.101851,-0.480294,1.01332,-0.00653824,-0.000790189,0.0979045,1,4.14718e-05,-4.77951e-06,1.02838e-05,0.00829436,-0.000955902,0.00205677,0,0,0,0,0.0184841,0.495842,-1.01228,35.8125,1,31086,10410595
30,5,-0.653732,-0.0781934,9.79046,0.101851,-0.480294,1.01332,-0.00653824,-0.000790189,0.0979045,1,4.14718e-05,-4.77951e-06,1.02838e-05,0.00829436,-0.000955902,0.00205677,0,0,0,0,0.0184841,0.495842,-1.01228,35.8125,1,31086,10410595
30,6,-0.656562,-0.081663,9.79216,0.0991907,-0.48861,1.01409,-0.00656877,-0.000824566,0.0979214,1,3.90988e-05,-1.62647e-05,2.11949e-05,0.00781977,-0.00325294,0.00423897,0,0,0,0,0.0179821,0.494898,-1.01382,35.8125,1,31087,10410695
30,7,-0.656562,-0.081663,9.79216,0.0991907,-0.48861,1.01409,-0.00656877,-0.000824566,0.0979214,1,3.90988e-05,-1.62647e-05,2.11949e-05,0.00781977,-0.00325294,0.00423897,0,0,0,0,0.0179821,0.494898,-1.01382,35.8125,1,31087,10410695
30,8,-0.653684,-0.0738699,9.78915,0.10838,-0.484648,1.0133,-0.00653883,-0.00075066,0.0978913,1,6.04279e-05,-1.02335e-05,9.94844e-06,0.0120856,-0.00204671,0.00198969,0,0,0,0,0.0180149,0.494392,-1.01282,35.8125,1,31088,10410795
31,1,-0.653684,-0.0738699,9.78915,0.10838,-0.484648,1.0133,-0.00653883,-0.00075066,0.0978913,1,6.04279e-05,-1.02335e-05,9.94844e-06,0.0120856,-0.00204671,0.00198969,0,0,0,0,0.0180149,0.494392,-1.01282,35.8125,1,31088,10410795
31,2,-0.661123,-0.0805754,9.78982,0.0989417,-0.489619,1.0149,-0.00661366,-0.000816191,0.0978979,1,5.22882e-05,-1.25036e-05,1.5041e-05,0.0104576,-0.00250071,0.0030082,0,0,0,0,0.0180438,0.494853,-1.01129,35.8125,1,31089,10410895
31,3,-0.661123,-0.0805754,9.78982,0.0989417,-0.489619,1.0149,-0.00661366,-0.000816191,0.0978979,1,5.22882e-05,-1.25036e-05,1.5041e-05,0.0104576,-0.00250071,0.0030082,0,0,0,0,0.0180438,0.494853,-1.01129,35.8125,1,31089,10410895
31,4,-0.658093,-0.0759551,9.79662,0.10142,-0.48517,1.01859,-0.00658209,-0.000767697,0.0979661,1,4.03951e-05,-6.03142e-06,1.7563e-05,0.00807902,-0.00120628,0.00351259,0,0,0,0,0.0175223,0.497296,-1.01123,35.8125,1,31090,10410995
32,1,-0.658093,-0.0759551,9.79662,0.10142,-0.48517,1.01859,-0.00658209,-0.000767697,0.0979661,1,4.03951e-05,-6.03142e-06,1.7563e-05,0.00807902,-0.00120628,0.00351259,0,0,0,0,0.0175223,0.497296,-1.01123,35.8125,1,31090,10410995
32,2,-0.657201,-0.0793798,9.80134,0.108327,-0.487761,1.02485,-0.00657529,-0.000801081,0.0980131,1,3.67314e-05,-1.67804e-05,6.29383e-06,0.00734629,-0.00335609,0.00125877,0,0,0,0,0.019406,0.498273,-1.01223,35.8125,1,31091,10411095
32,3,-0.657201,-0.0793798,9.80134,0.108327,-0.487761,1.02485,-0.00657529,-0.000801081,0.0980131,1,3.67314e-05,-1.67804e-05,6.29383e-06,0.00734629,-0.00335609,0.00125877,0,0,0,0,0.019406,0.498273,-1.01223,35.8125,1,31091,10411095
32,4,-0.661029,-0.077427,9.78579,0.103215,-0.493742,1.00681,-0.00661432,-0.00078305,0.0978575,1,4.39622e-05,-2.07255e-05,1.32808e-05,0.00879244,-0.0041451,0.00265616,0,0,0,0,0.0193932,0.496837,-1.01378,35.8125,1,31092,10411195
34,1,-0.661029,-0.077427,9.78579,0.103215,-0.493742,1.00681,-0.00661432,-0.00078305,0.0978575,1,4.39622e-05,-2.07255e-05,1.32808e-05,0.00879244,-0.0041451,0.00265616,0,0,0,0,0.0193932,0.496837,-1.01378,35.8125,1,31092,10411195
34,2,-0.652491,-0.0806663,9.79045,0.103755,-0.493668,1.01246,-0.00652983,-0.000814688,0.0979041,1,3.99592e-05,-2.52167e-05,1.53911e-05,0.00799183,-0.00504333,0.00307822,0,0,0,0,0.017974,0.495386,-1.0138,35.8125,1,31093,10411295
38,1,-0.652491,-0.0806663,9.79045,0.103755,-0.493668,1.01246,-0.00652983,-0.000814688,0.0979041,1,3.99592e-05,-2.52167e-05,1.53911e-05,0.00799183,-0.00504333,0.00307822,0,0,0,0,0.017974,0.495386,-1.0138,35.8125,1,31093,10411295
38,2,-0.65903,-0.0748631,9.7963,0.0996685,-0.487775,1.01965,-0.00659323,-0.000758058,0.0979627,1,4.72665e-05,-1.50371e-05,1.25728e-05,0.0094533,-0.00300743,0.00251456,0,0,0,0,0.0189894,0.494375,-1.01232,35.8125,1,31094,10411395
39,1,-0.65903,-0.0748631,9.7963,0.0996685,-0.487775,1.01965,-0.00659323,-0.000758058,0.0979627,1,4.72665e-05,-1.50371e-05,1.25728e-05,0.0094533,-0.00300743,0.00251456,0,0,0,0,0.0189894,0.494375,-1.01232,35.8125,1,31094,10411395
39,2,-0.659703,-0.0792702,9.78948,0.096985,-0.497008,1.01489,-0.00659995,-0.000802703,0.0978946,1,5.01052e-05,-1.5026e-05,1.44559e-05,0.010021,-0.0030052,0.00289117,0,0,0,0,0.019528,0.493847,-1.01031,35.8125,1,31095,10411495
40,1,-0.659703,-0.0792702,9.78948,0.096985,-0.497008,1.01489,-0.00659995,-0.000802703,0.0978946,1,5.01052e-05,-1.5026e-05,1.44559e-05,0.010021,-0.0030052,0.00289117,0,0,0,0,0.019528,0.493847,-1.01031,35.8125,1,31095,10411495
40,2,-0.652977,-0.0764966,9.78675,0.103807,-0.494326,1.00831,-0.00653167,-0.000773432,0.0978673,1,4.27123e-05,-9.78276e-06,8.04274e-06,0.00854247,-0.00195655,0.00160855,0,0,0,0,0.0204579,0.49579,-1.01027,35.8125,1,31096,10411595
41,1,-0.652977,-0.0764966,9.78675,0.103807,-0.494326,1.00831,-0.00653167,-0.000773432,0.0978673,1,4.27123e-05,-9.78276e-06,8.04274e-06,0.00854247,-0.00195655,0.00160855,0,0,0,0,0.0204579,0.49579,-1.01027,35.8125,1,31096,10411595
41,2,-0.654371,-0.0819584,9.78976,0.101622,-0.49727,1.01002,-0.00654488,-0.000828832,0.0978974,1,4.64804e-05,-6.0518e-06,1.12579e-05,0.00929609,-0.00121036,0.00225159,0,0,0,0,0.0213917,0.496767,-1.01076,35.8125,1,31097,10411695
41,3,-0.654371,-0.0819584,9.78976,0.101622,-0.49727,1.01002,-0.00654488,-0.000828832,0.0978974,1,4.64804e-05,-6.0518e-06,1.12579e-05,0.00929609,-0.00121036,0.00225159,0,0,0,0,0.0213917,0.496767,-1.01076,35.8125,1,31097,10411695
41,4,-0.651305,-0.0819797,9.79076,0.105584,-0.499724,1.00969,-0.00651517,-0.00082887,0.0979073,1,4.51969e-05,-1.09376e-05,1.70361e-05,0.00903938,-0.00218752,0.00340722,0,0,0,0,0.0189159,0.495874,-1.0143,35.8125,1,31098,10411795
43,1,-0.651305,-0.0819797,9.79076,0.105584,-0.499724,1.00969,-0.00651517,-0.00082887,0.0979073,1,4.51969e-05,-1.09376e-05,1.70361e-05,0.00903938,-0.00218752,0.00340722,0,0,0,0,0.0189159,0.495874,-1.0143,35.8125,1,31098,10411795
43,2,-0.663058,-0.0857216,9.78911,0.0929293,-0.505753,1.01167,-0.00663439,-0.000867159,0.0978908,1,4.97531e-05,-1.9567e-05,1.52478e-05,0.00995062,-0.00391339,0.00304957,0,0,0,0,0.0184386,0.494912,-1.01483,35.8125,1,31099,10411895
43,3,-0.663058,-0.0857216,9.78911,0.0929293,-0.505753,1.01167,-0.00663439,-0.000867159,0.0978908,1,4.97531e-05,-1.9567e-05,1.52478e-05,0.00995062,-0.00391339,0.00304957,0,0,0,0,0.0184386,0.494912,-1.01483,35.8125,1,31099,10411895
43,4,-0.660809,-0.0791589,9.78474,0.0942427,-0.500182,1.00929,-0.00661005,-0.000803256,0.0978472,1,5.86602e-05,-1.01111e-05,1.42231e-05,0.011732,-0.00202222,0.00284461,0,0,0,0,0.0175337,0.494396,-1.01281,35.8125,1,31100,10411995
44,1,-0.660809,-0.0791589,9.78474,0.0942427,-0.500182,1.00929,-0.00661005,-0.000803256,0.0978472,1,5.86602e-05,-1.01111e-05,1.42231e-05,0.011732,-0.00202222,0.00284461,0,0,0,0,0.0175337,0.494396,-1.01281,35.8125,1,31100,10411995
44,2,-0.661403,-0.0805769,9.79559,0.0979248,-0.506473,1.02403,-0.00661613,-0.000817217,0.0979556,1,5.75595e-05,-1.08348e-05,1.29081e-05,0.0115119,-0.00216695,0.00258162,0,0,0,0,0.0185411,0.493873,-1.01132,35.8125,1,31101,10412095
46,1,-0.661403,-0.0805769,9.79559,0.0979248,-0.506473,1.02403,-0.00661613,-0.000817217,0.0979556,1,5.75595e-05,-1.08348e-05,1.29081e-05,0.0115119,-0.00216695,0.00258162,0,0,0,0,0.0185411,0.493873,-1.01132,35.8125,1,31101,10412095
46,2,-0.661946,-0.0926492,9.79414,0.0965912,-0.514859,1.0197,-0.00662199,-0.000937428,0.0979411,1,5.34821e-05,-1.32364e-05,3.47586e-05,0.0106964,-0.00264729,0.00695173,0,0,0,0,0.0189937,0.494854,-1.0118,35.8125,1,31102,10412195
47,1,-0.661946,-0.0926492,9.79414,0.0965912,-0.514859,1.0197,-0.00662199,-0.000937428,0.0979411,1,5.34821e-05,-1.32364e-05,3.47586e-05,0.0106964,-0.00264729,0.00695173,0,0,0,0,0.0189937,0.494854,-1.0118,35.8125,1,31102,10412195
47,2,-0.660318,-0.0776526,9.79765,0.0953087,-0.502124,1.01688,-0.00660726,-0.000785762,0.0979761,1,4.59085e-05,-2.09811e-05,1.8185e-05,0.00918171,-0.00419622,0.00363701,0,0,0,0,0.0175261,0.496329,-1.01176,35.8125,1,31103,10412295
47,3,-0.660318,-0.0776526,9.79765,0.0953087,-0.502124,1.01688,-0.00660726,-0.000785762,0.0979761,1,4.59085e-05,-2.09811e-05,1.8185e-05,0.00918171,-0.00419622,0.00363701,0,0,0,0,0.0175261,0.496329,-1.01176,35.8125,1,31103,10412295
47,4,-0.657934,-0.0826494,9.78335,0.098396,-0.507411,1.00549,-0.00658459,-0.000834721,0.097833,1,4.03357e-05,-2.70435e-05,2.54513e-05,0.00806713,-0.00540871,0.00509026,0,0,0,0,0.0179745,0.496831,-1.01276,35.8125,1,31104,10412395
48,1,-0.657934,-0.0826494,9.78335,0.098396,-0.507411,1.00549,-0.00658459,-0.000834721,0.097833,1,4.03357e-05,-2.70435e-05,2.54513e-05,0.00806713,-0.00540871,0.00509026,0,0,0,0,0.0179745,0.496831,-1.01276,35.8125,1,31104,10412395
48,2,-0.662165,-0.0824829,9.78676,0.092143,-0.51333,1.01062,-0.00662295,-0.000831755,0.0978674,1,3.38182e-05,-6.82674e-06,2.31564e-05,0.00676364,-0.00136535,0.00463127,0,0,0,0,0.0189405,0.495856,-1.01329,35.8125,1,31105,10412495
48,3,-0.662165,-0.0824829,9.78676,0.092143,-0.51333,1.01062,-0.00662295,-0.000831755,0.0978674,1,3.38182e-05,-6.82674e-06,2.31564e-05,0.00676364,-0.00136535,0.00463127,0,0,0,0,0.0189405,0.495856,-1.01329,35.8125,1,31105,10412495
48,4,-0.65527,-0.0781906,9.7871,0.0999761,-0.504794,1.00826,-0.00655572,-0.000790985,0.0978707,1,4.56218e-05,-1.55232e-05,1.14271e-05,0.00912437,-0.00310464,0.00228542,0,0,0,0,0.017538,0.494875,-1.0123,35.8125,1,31106,10412595
49,1,-0.65527,-0.0781906,9.7871,0.0999761,-0.504794,1.00826,-0.00655572,-0.000790985,0.0978707,1,4.56218e-05,-1.55232e-05,1.14271e-05,0.00912437,-0.00310464,0.00228542,0,0,0,0,0.017538,0.494875,-1.0123,35.8125,1,31106,10412595
49,2,-0.656305,-0.074814,9.79357,0.0918426,-0.505414,1.01868,-0.00656666,-0.000757086,0.0979354,1,4.467e-05,-1.85443e-05,1.50186e-05,0.00893401,-0.00370885,0.00300371,0,0,0,0,0.0185411,0.493873,-1.01132,35.8125,1,31107,10412695
50,1,-0.656305,-0.074814,9.79357,0.0918426,-0.505414,1.01868,-0.00656666,-0.000757086,0.0979354,1,4.467e-05,-1.85443e-05,1.50186e-05,0.00893401,-0.00370885,0.00300371,0,0,0,0,0.0185411,0.493873,-1.01132,35.8125,1,31107,10412695
50,2,-0.652249,-0.0818819,9.78195,0.0995052,-0.511454,1.00318,-0.0065249,-0.000828586,0.0978193,1,4.8604e-05,-1.24668e-05,1.97997e-05,0.00972079,-0.00249335,0.00395994,0,0,0,0,0.018476,0.49633,-1.01227,35.8125,1,31108,10412795
50,3,-0.652249,-0.0818819,9.78195,0.0995052,-0.511454,1.00318,-0.0065249,-0.000828586,0.0978193,1,4.8604e-05,-1.24668e-05,1.97997e-05,0.00972079,-0.00249335,0.00395994,0,0,0,0,0.018476,0.49633,-1.01227,35.8125,1,31108,10412795
50,4,-0.654249,-0.088073,9.79107,0.105637,-0.5211,1.01193,-0.00654364,-0.000890735,0.0979105,1,5.03883e-05,-5.93219e-06,1.05163e-05,0.0100777,-0.00118644,0.00210326,0,0,0,0,0.0179868,0.496822,-1.01226,35.8125,1,31109,10412895
51,1,-0.654249,-0.088073,9.79107,0.105637,-0.5211,1.01193,-0.00654364,-0.000890735,0.0979105,1,5.03883e-05,-5.93219e-06,1.05163e-05,0.0100777,-0.00118644,0.00210326,0,0,0,0,0.0179868,0.496822,-1.01226,35.8125,1,31109,10412895
51,2,-0.6506,-0.0755912,9.79352,0.101155,-0.501078,1.01558,-0.00650793,-0.000763113,0.097935,1,3.59676e-05,-9.9225e-06,1.19861e-05,0.00719353,-0.0019845,0.00239723,0,0,0,0,0.0179864,0.495377,-1.0133,35.8125,1,31110,10412995
52,1,-0.6506,-0.0755912,9.79352,0.101155,-0.501078,1.01558,-0.00650793,-0.000763113,0.097935,1,3.59676e-05,-9.9225e-06,1.19861e-05,0.00719353,-0.0019845,0.00239723,0,0,0,0,0.0179864,0.495377,-1.0133,35.8125,1,31110,10412995
52,2,-0.655156,-0.0774572,9.78912,0.0980402,-0.50724,1.00974,-0.00655128,-0.000783346,0.0978911,1,4.36212e-05,1.27238e-06,1.78591e-05,0.00872425,0.000254476,0.00357183,0,0,0,0,0.018459,0.494415,-1.01433,35.8125,1,31111,10413095
52,3,-0.655156,-0.0774572,9.78912,0.0980402,-0.50724,1.00974,-0.00655128,-0.000783346,0.0978911,1,4.36212e-05,1.27238e-06,1.78591e-05,0.00872425,0.000254476,0.00357183,0,0,0,0,0.018459,0.494415,-1.01433,35.8125,1,31111,10413095
52,4,-0.642034,-0.0762319,9.7816,0.114516,-0.509414,1.00253,-0.00642207,-0.0007724,0.0978158,1,4.92283e-05,-9.1326e-06,3.51232e-05,0.00984566,-0.00182652,0.00702465,0,0,0,0,0.0189852,0.493896,-1.01283,35.8125,1,31112,10413195
53,1,-0.642034,-0.0762319,9.7816,0.114516,-0.509414,1.00253,-0.00642207,-0.0007724,0.0978158,1,4.92283e-05,-9.1326e-06,3.51232e-05,0.00984566,-0.00182652,0.00702465,0,0,0,0,0.0189852,0.493896,-1.01283,35.8125,1,31112,10413195
53,2,-0.650236,-0.081906,9.78702,0.10214,-0.515623,1.00745,-0.00650451,-0.000828177,0.09787,1,4.56888e-05,-1.1081e-05,1.33458e-05,0.00913776,-0.00221619,0.00266917,0,0,0,0,0.0195237,0.493368,-1.01083,35.8125,1,31113,10413295
53,3,-0.650236,-0.081906,9.78702,0.10214,-0.515623,1.00745,-0.00650451,-0.000828177,0.09787,1,4.56888e-05,-1.1081e-05,1.33458e-05,0.00913776,-0.00221619,0.00266917,0,0,0,0,0.0195237,0.493368,-1.01083,35.8125,1,31113,10413295
53,4,-0.660316,-0.0765131,9.79732,0.0943343,-0.509504,1.01567,-0.00660738,-0.000775366,0.0979728,1,5.17202e-05,-2.16211e-05,7.61096e-06,0.010344,-0.00432422,0.00152219,0,0,0,0,0.019006,0.494845,-1.0113,35.8125,1,31114,10413395
54,1,-0.660316,-0.0765131,9.79732,0.0943343,-0.509504,1.01567,-0.00660738,-0.000775366,0.0979728,1,5.17202e-05,-2.16211e-05,7.61096e-06,0.010344,-0.00432422,0.00152219,0,0,0,0,0.019006,0.494845,-1.0113,35.8125,1,31114,10413395
54,2,-0.654588,-0.0885301,9.7992,0.0979643,-0.523771,1.01645,-0.00654633,-0.000894148,0.0979919,1,4.32376e-05,-2.58354e-06,2.85636e-05,0.00864752,-0.000516709,0.00571273,0,0,0,0,0.0189363,0.495378,-1.01381,35.8125,1,31115,10413495
54,3,-0.654588,-0.0885301,9.7992,0.0979643,-0.523771,1.01645,-0.00654633,-0.000894148,0.0979919,1,4.32376e-05,-2.58354e-06,2.85636e-05,0.00864752,-0.000516709,0.00571273,0,0,0,0,0.0189363,0.495378,-1.01381,35.8125,1,31115,10413495
54,4,-0.659442,-0.0798486,9.78608,0.0922593,-0.513387,1.00626,-0.00659547,-0.000808696,0.0978607,1,5.10086e-05,-5.46861e-06,1.72218e-05,0.0102017,-0.00109372,0.00344437,0,0,0,0,0.0184224,0.495887,-1.01481,35.8125,1,31116,10413595
56,1,-0.659442,-0.0798486,9.78608,0.0922593,-0.513387,1.00626,-0.00659547,-0.000808696,0.0978607,1,5.10086e-05,-5.46861e-06,1.72218e-05,0.0102017,-0.00109372,0.00344437,0,0,0,0,0.0184224,0.495887,-1.01481,35.8125,1,31116,10413595
56,2,-0.661216,-0.0754837,9.78444,0.0933576,-0.515629,1.00735,-0.00661395,-0.000764122,0.0978442,1,4.65958e-05,-9.20931e-06,1.26288e-05,0.00931917,-0.00184186,0.00252577,0,0,0,0,0.0184305,0.4954,-1.01482,35.8125,1,31117,10413695
57,1,-0.661216,-0.0754837,9.78444,0.0933576,-0.515629,1.00735,-0.00661395,-0.000764122,0.0978442,1,4.65958e-05,-9.20931e-06,1.26288e-05,0.00931917,-0.00184186,0.00252577,0,0,0,0,0.0184305,0.4954,-1.01482,35.8125,1,31117,10413695
57,2,-0.657932,-0.0908713,9.79209,0.0939752,-0.531857,1.01634,-0.00658058,-0.000918675,0.0979207,1,5.05541e-05,-6.4706e-06,4.60598e-06,0.0101108,-0.00129412,0.000921195,0,0,0,0,0.0194454,0.492944,-1.01437,35.8125,1,31118,10413795
60,1,-0.657932,-0.0908713,9.79209,0.0939752,-0.531857,1.01634,-0.00658058,-0.000918675,0.0979207,1,5.05541e-05,-6.4706e-06,4.60598e-06,0.0101108,-0.00129412,0.000921195,0,0,0,0,0.0194454,0.492944,-1.01437,35.8125,1,31118,10413795
60,2,-0.665959,-0.0909844,9.80266,0.090204,-0.53502,1.02252,-0.00666268,-0.000920158,0.0980262,1,5.17983e-05,-1.58957e-05,1.19097e-05,0.0103597,-0.00317915,0.00238194,0,0,0,0,0.0204817,0.492882,-1.01135,35.8125,1,31119,10413895
62,1,-0.665959,-0.0909844,9.80266,0.090204,-0.53502,1.02252,-0.00666268,-0.000920158,0.0980262,1,5.17983e-05,-1.58957e-05,1.19097e-05,0.0103597,-0.00317915,0.00238194,0,0,0,0,0.0204817,0.492882,-1.01135,35.8125,1,31119,10413895
62,2,-0.656081,-0.0709414,9.78072,0.0971805,-0.515513,1.00153,-0.00656372,-0.0007168,0.0978069,1,3.66215e-05,-1.50462e-05,1.68626e-05,0.00732431,-0.00300924,0.00337252,0,0,0,0,0.0180234,0.495349,-1.01179,35.8125,1,31120,10413995
62,3,-0.656081,-0.0709414,9.78072,0.0971805,-0.515513,1.00153,-0.00656372,-0.0007168,0.0978069,1,3.66215e-05,-1.50462e-05,1.68626e-05,0.00732431,-0.00300924,0.00337252,0,0,0,0,0.0180234,0.495349,-1.01179,35.8125,1,31120,10413995
62,4,-0.651035,-0.0779617,9.78468,0.0977473,-0.521487,1.0053,-0.00651181,-0.000790394,0.0978466,1,5.41061e-05,-7.55282e-06,1.44879e-05,0.0108212,-0.00151056,0.00289758,0,0,0,0,0.0170403,0.494409,-1.01332,35.8125,1,31121,10414095
63,1,-0.651035,-0.0779617,9.78468,0.0977473,-0.521487,1.0053,-0.00651181,-0.000790394,0.0978466,1,5.41061e-05,-7.55282e-06,1.44879e-05,0.0108212,-0.00151056,0.00289758,0,0,0,0,0.0170403,0.494409,-1.01332,35.8125,1,31121,10414095
63,2,-0.654463,-0.0916073,9.78935,0.0972814,-0.53392,1.00447,-0.00654774,-0.000924131,0.0978932,1,4.00655e-05,-1.59891e-05,1.62719e-05,0.00801311,-0.00319781,0.00325438,0,0,0,0,0.0165184,0.495407,-1.0143,35.8125,1,31122,10414195
63,3,-0.654463,-0.0916073,9.78935,0.0972814,-0.53392,1.00447,-0.00654774,-0.000924131,0.0978932,1,4.00655e-05,-1.59891e-05,1.62719e-05,0.00801311,-0.00319781,0.00325438,0,0,0,0,0.0165184,0.495407,-1.0143,35.8125,1,31122,10414195
63,4,-0.664804,-0.0836253,9.79219,0.0855138,-0.532336,1.01211,-0.0066501,-0.000847748,0.0979217,1,5.6874e-05,-1.07399e-05,2.68277e-05,0.0113748,-0.00214799,0.00536555,0,0,0,0,0.017966,0.495873,-1.01379,35.8125,1,31123,10414295
64,1,-0.664804,-0.0836253,9.79219,0.0855138,-0.532336,1.01211,-0.0066501,-0.000847748,0.0979217,1,5.6874e-05,-1.07399e-05,2.68277e-05,0.0113748,-0.00214799,0.00536555,0,0,0,0,0.017966,0.495873,-1.01379,35.8125,1,31123,10414295
64,2,-0.655034,-0.0815632,9.77994,0.100871,-0.526106,0.998128,-0.00655216,-0.0008241,0.0977992,1,4.20641e-05,-9.42129e-06,1.836e-05,0.00841283,-0.00188426,0.003672,0,0,0,0,0.0179987,0.495368,-1.01279,35.8125,1,31124,10414395
65,1,-0.655034,-0.0815632,9.77994,0.100871,-0.526106,0.998128,-0.00655216,-0.0008241,0.0977992,1,4.20641e-05,-9.42129e-06,1.836e-05,0.00841283,-0.00188426,0.003672,0,0,0,0,0.0179987,0.495368,-1.01279,35.8125,1,31124,10414395
65,2,-0.644844,-0.0758252,9.79382,0.11108,-0.521193,1.01692,-0.00644927,-0.000765276,0.0979381,1,3.54014e-05,-4.24504e-06,6.95133e-06,0.00708029,-0.000849007,0.00139027,0,0,0,0,0.0175793,0.495326,-1.01027,35.8125,1,31125,10414495
65,3,-0.644844,-0.0758252,9.79382,0.11108,-0.521193,1.01692,-0.00644927,-0.000765276,0.0979381,1,3.54014e-05,-4.24504e-06,6.95133e-06,0.00708029,-0.000849007,0.00139027,0,0,0,0,0.0175793,0.495326,-1.01027,35.8125,1,31125,10414495
65,4,-0.658724,-0.082146,9.7908,0.0986122,-0.533602,1.01056,-0.00658844,-0.0008347,0.0979078,1,6.70199e-05,-6.22125e-06,8.81761e-06,0.013404,-0.00124425,0.00176352,0,0,0,0,0.01804,0.495819,-1.01076,35.8125,1,31126,10414595
66,1,-0.658724,-0.082146,9.7908,0.0986122,-0.533602,1.01056,-0.00658844,-0.0008347,0.0979078,1,6.70199e-05,-6.22125e-06,8.81761e-06,0.013404,-0.00124425,0.00176352,0,0,0,0,0.01804,0.495819,-1.01076,35.8125,1,31126,10414595
66,2,-0.654058,-0.0741883,9.78576,0.10092,-0.525771,1.00827,-0.0065413,-0.000749577,0.0978574,1,3.85028e-05,-3.76076e-06,1.21162e-05,0.00770057,-0.000752152,0.00242324,0,0,0,0,0.0185002,0.494867,-1.0123,35.8125,1,31127,10414695
67,1,-0.654058,-0.0741883,9.78576,0.10092,-0.525771,1.00827,-0.0065413,-0.000749577,0.0978574,1,3.85028e-05,-3.76076e-06,1.21162e-05,0.00770057,-0.000752152,0.00242324,0,0,0,0,0.0185002,0.494867,-1.0123,35.8125,1,31127,10414695
67,2,-0.65587,-0.0780355,9.79863,0.096683,-0.527867,1.01591,-0.00656318,-0.000787692,0.097986,1,3.58243e-05,-2.30221e-05,2.40971e-05,0.00716487,-0.00460442,0.00481942,0,0,0,0,0.0184348,0.495878,-1.0143,35.8125,1,31128,10414795
67,3,-0.65587,-0.0780355,9.79863,0.096683,-0.527867,1.01591,-0.00656318,-0.000787692,0.097986,1,3.58243e-05,-2.30221e-05,2.40971e-05,0.00716487,-0.00460442,0.00481942,0,0,0,0,0.0184348,0.495878,-1.0143,35.8125,1,31128,10414795
67,4,-0.651953,-0.0676667,9.79123,0.101729,-0.51847,1.00896,-0.00652179,-0.000684275,0.0979121,1,3.71729e-05,-1.16788e-05,2.52349e-05,0.00743459,-0.00233577,0.00504698,0,0,0,0,0.0194212,0.494407,-1.01434,35.8125,1,31129,10414895
68,1,-0.651953,-0.0676667,9.79123,0.101729,-0.51847,1.00896,-0.00652179,-0.000684275,0.0979121,1,3.71729e-05,-1.16788e-05,2.52349e-05,0.00743459,-0.00233577,0.00504698,0,0,0,0,0.0194212,0.494407,-1.01434,35.8125,1,31129,10414895
68,2,-0.670419,-0.079441,9.78277,0.0836438,-0.529867,1.0035,-0.00670518,-0.000801834,0.0978276,1,3.65134e-05,-5.26585e-06,2.08803e-05,0.00730268,-0.00105317,0.00417606,0,0,0,0,0.0179902,0.49441,-1.01383,35.8125,1,31130,10414995
69,1,-0.670419,-0.079441,9.78277,0.0836438,-0.529867,1.0035,-0.00670518,-0.000801834,0.0978276,1,3.65134e-05,-5.26585e-06,2.08803e-05,0.00730268,-0.00105317,0.00417606,0,0,0,0,0.0179902,0.49441,-1.01383,35.8125,1,31130,10414995
69,2,-0.654739,-0.0743505,9.78407,0.0948717,-0.527882,1.0035,-0.00654939,-0.00075284,0.0978404,1,4.61861e-05,-1.03805e-05,2.27578e-05,0.00923723,-0.00207609,0.00455157,0,0,0,0,0.019006,0.494845,-1.0113,35.8125,1,31131,10415095
70,1,-0.654739,-0.0743505,9.78407,0.0948717,-0.527882,1.0035,-0.00654939,-0.00075284,0.0978404,1,4.61861e-05,-1.03805e-05,2.27578e-05,0.00923723,-0.00207609,0.00455157,0,0,0,0,0.019006,0.494845,-1.0113,35.8125,1,31131,10415095
70,2,-0.658456,-0.0827347,9.78639,0.0933592,-0.537105,1.00854,-0.00658512,-0.000840541,0.0978638,1,6.67553e-05,-2.98159e-06,9.66151e-06,0.0133511,-0.000596318,0.0019323,0,0,0,0,0.020429,0.495329,-1.0118,35.8125,1,31132,10415195
70,3,-0.658456,-0.0827347,9.78639,0.0933592,-0.537105,1.00854,-0.00658512,-0.000840541,0.0978638,1,6.67553e-05,-2.98159e-06,9.66151e-06,0.0133511,-0.000596318,0.0019323,0,0,0,0,0.020429,0.495329,-1.0118,35.8125,1,31132,10415195
70,4,-0.657984,-0.090982,9.79039,0.0961075,-0.542442,1.01118,-0.00658163,-0.000917512,0.0979037,1,3.86741e-05,-9.24058e-06,9.13632e-06,0.00773482,-0.00184812,0.00182726,0,0,0,0,0.0194136,0.49634,-1.01328,35.8125,1,31133,10415295
70,5,-0.657984,-0.090982,9.79039,0.0961075,-0.542442,1.01118,-0.00658163,-0.000917512,0.0979037,1,3.86741e-05,-9.24058e-06,9.13632e-06,0.00773482,-0.00184812,0.00182726,0,0,0,0,0.0194136,0.49634,-1.01328,35.8125,1,31133,10415295
70,6,-0.646143,-0.0790047,9.78566,0.102139,-0.537336,1.00369,-0.00646446,-0.000800705,0.0978563,1,5.40632e-05,-1.55384e-05,5.91954e-06,0.0108126,-0.00310768,0.00118391,0,0,0,0,0.0194217,0.495852,-1.0133,35.8125,1,31134,10415395
70,7,-0.646143,-0.0790047,9.78566,0.102139,-0.537336,1.00369,-0.00646446,-0.000800705,0.0978563,1,5.40632e-05,-1.55384e-05,5.91954e-06,0.0108126,-0.00310768,0.00118391,0,0,0,0,0.0194217,0.495852,-1.0133,35.8125,1,31134,10415395
70,8,-0.660178,-0.079435,9.78473,0.0882997,-0.539296,0.999975,-0.00660319,-0.000804958,0.0978471,1,5.3253e-05,-7.30554e-06,1.41767e-05,0.0106506,-0.00146111,0.00283533,0,0,0,0,0.0184718,0.495851,-1.01279,35.8125,1,31135,10415495
71,1,-0.660178,-0.079435,9.78473,0.0882997,-0.539296,0.999975,-0.00660319,-0.000804958,0.0978471,1,5.3253e-05,-7.30554e-06,1.41767e-05,0.0106506,-0.00146111,0.00283533,0,0,0,0,0.0184718,0.495851,-1.01279,35.8125,1,31135,10415495
71,2,-0.642735,-0.0797049,9.79038,0.109132,-0.538541,1.00875,-0.00642914,-0.000807189,0.0979036,1,5.07776e-05,-9.28346e-06,1.53835e-05,0.0101555,-0.00185669,0.00307671,0,0,0,0,0.0175176,0.495372,-1.01279,35.8125,1,31136,10415595
71,3,-0.642735,-0.0797049,9.79038,0.109132,-0.538541,1.00875,-0.00642914,-0.000807189,0.0979036,1,5.07776e-05,-9.28346e-06,1.53835e-05,0.0101555,-0.00185669,0.00307671,0,0,0,0,0.0175176,0.495372,-1.01279,35.8125,1,31136,10415595
71,4,-0.652939,-0.081955,9.78772,0.0985428,-0.538897,1.00467,-0.00653193,-0.000829069,0.097877,1,4.75924e-05,-1.30982e-05,1.55363e-05,0.00951849,-0.00261965,0.00310725,0,0,0,0,0.018533,0.494361,-1.0113,35.8125,1,31137,10415695
71,5,-0.652939,-0.081955,9.78772,0.0985428,-0.538897,1.00467,-0.00653193,-0.000829069,0.097877,1,4.75924e-05,-1.30982e-05,1.55363e-05,0.00951849,-0.00261965,0.00310725,0,0,0,0,0.018533,0.494361,-1.0113,35.8125,1,31137,10415695
71,6,-0.647532,-0.0768727,9.78129,0.0976133,-0.535523,0.998302,-0.00647794,-0.000775097,0.0978127,1,3.16408e-05,-1.3521e-05,1.39324e-05,0.00632816,-0.00270421,0.00278647,0,0,0,0,0.0189899,0.49582,-1.01127,35.8125,1,31138,10415795
71,7,-0.647532,-0.0768727,9.78129,0.0976133,-0.535523,0.998302,-0.00647794,-0.000775097,0.0978127,1,3.16408e-05,-1.3521e-05,1.39324e-05,0.00632816,-0.00270421,0.00278647,0,0,0,0,0.0189899,0.49582,-1.01127,35.8125,1,31138,10415795
71,8,-0.650004,-0.0784382,9.79009,0.0980507,-0.537632,1.01084,-0.00650087,-0.000794463,0.0979008,1,5.07701e-05,-4.30659e-06,1.07589e-05,0.010154,-0.000861318,0.00215178,0,0,0,0,0.0194217,0.495852,-1.0133,35.8125,1,31139,10415895
72,1,-0.650004,-0.0784382,9.79009,0.0980507,-0.537632,1.01084,-0.00650087,-0.000794463,0.0979008,1,5.07701e-05,-4.30659e-06,1.07589e-05,0.010154,-0.000861318,0.00215178,0,0,0,0,0.0194217,0.495852,-1.0133,35.8125,1,31139,10415895
72,2,-0.655093,-0.0725633,9.78375,0.0945977,-0.533459,1.00396,-0.00655183,-0.000736345,0.0978373,1,5.36554e-05,-4.73113e-06,1.62308e-05,0.0107311,-0.000946226,0.00324616,0,0,0,0,0.0184466,0.494424,-1.01484,35.8125,1,31140,10415995
72,3,-0.655093,-0.0725633,9.78375,0.0945977,-0.533459,1.00396,-0.00655183,-0.000736345,0.0978373,1,5.36554e-05,-4.73113e-06,1.62308e-05,0.0107311,-0.000946226,0.00324616,0,0,0,0,0.0184466,0.494424,-1.01484,35.8125,1,31140,10415995
72,4,-0.658531,-0.0668863,9.78721,0.0873558,-0.532244,1.00567,-0.00658784,-0.000678031,0.0978718,1,4.52268e-05,-1.30739e-05,2.39669e-05,0.00904535,-0.00261477,0.00479338,0,0,0,0,0.0184509,0.494903,-1.01432,35.8125,1,31141,10416095
73,1,-0.658531,-0.0668863,9.78721,0.0873558,-0.532244,1.00567,-0.00658784,-0.000678031,0.0978718,1,4.52268e-05,-1.30739e-05,2.39669e-05,0.00904535,-0.00261477,0.00479338,0,0,0,0,0.0184509,0.494903,-1.01432,35.8125,1,31141,10416095
73,2,-0.652643,-0.0695798,9.79461,0.0970448,-0.533255,1.01231,-0.00652883,-0.000707514,0.0979458,1,5.89024e-05,-1.23716e-05,1.3614e-05,0.0117805,-0.00247431,0.00272281,0,0,0,0,0.0170446,0.494888,-1.0128,35.8125,1,31142,10416195
77,1,-0.652643,-0.0695798,9.79461,0.0970448,-0.533255,1.01231,-0.00652883,-0.000707514,0.0979458,1,5.89024e-05,-1.23716e-05,1.3614e-05,0.0117805,-0.00247431,0.00272281,0,0,0,0,0.0170446,0.494888,-1.0128,35.8125,1,31142,10416195
77,2,-0.652004,-0.0805391,9.78501,0.0934614,-0.543657,1.00741,-0.00652138,-0.000814582,0.0978499,1,4.63799e-05,-6.92528e-06,8.78611e-06,0.00927597,-0.00138506,0.00175722,0,0,0,0,0.017575,0.494848,-1.01078,35.8125,1,31143,10416295
78,1,-0.652004,-0.0805391,9.78501,0.0934614,-0.543657,1.00741,-0.00652138,-0.000814582,0.0978499,1,4.63799e-05,-6.92528e-06,8.78611e-06,0.00927597,-0.00138506,0.00175722,0,0,0,0,0.017575,0.494848,-1.01078,35.8125,1,31143,10416295
78,2,-0.661468,-0.0823726,9.79455,0.0887278,-0.547157,1.01578,-0.00661689,-0.000833062,0.0979453,1,4.69739e-05,-1.13752e-05,1.01536e-05,0.00939478,-0.00227505,0.00203072,0,0,0,0,0.0170778,0.495827,-1.01076,35.8125,1,31144,10416395
79,1,-0.661468,-0.0823726,9.79455,0.0887278,-0.547157,1.01578,-0.00661689,-0.000833062,0.0979453,1,4.69739e-05,-1.13752e-05,1.01536e-05,0.00939478,-0.00227505,0.00203072,0,0,0,0,0.0170778,0.495827,-1.01076,35.8125,1,31144,10416395
79,2,-0.657174,-0.0830818,9.784,0.0916367,-0.550937,0.998136,-0.00657267,-0.000838131,0.0978399,1,3.67425e-05,-4.80191e-06,9.41402e-06,0.00734849,-0.000960382,0.0018828,0,0,0,0,0.0170569,0.494879,-1.0123,35.8125,1,31145,10416495
80,1,-0.657174,-0.0830818,9.784,0.0916367,-0.550937,0.998136,-0.00657267,-0.000838131,0.0978399,1,3.67425e-05,-4.80191e-06,9.41402e-06,0.00734849,-0.000960382,0.0018828,0,0,0,0,0.0170569,0.494879,-1.0123,35.8125,1,31145,10416495
80,2,-0.655668,-0.0735008,9.79561,0.0894022,-0.54119,1.01505,-0.00655834,-0.000744271,0.0979559,1,4.66388e-05,-8.54773e-06,9.5962e-06,0.00932776,-0.00170955,0.00191924,0,0,0,0,0.0189358,0.493932,-1.01485,35.8125,1,31146,10416595
80,3,-0.655668,-0.0735008,9.79561,0.0894022,-0.54119,1.01505,-0.00655834,-0.000744271,0.0979559,1,4.66388e-05,-8.54773e-06,9.5962e-06,0.00932776,-0.00170955,0.00191924,0,0,0,0,0.0189358,0.493932,-1.01485,35.8125,1,31146,10416595
80,4,-0.657079,-0.0713198,9.78716,0.0923531,-0.538063,1.00689,-0.00657352,-0.000723128,0.0978714,1,4.93937e-05,-1.40834e-05,1.98595e-05,0.00987873,-0.00281668,0.0039719,0,0,0,0,0.0199469,0.492443,-1.01388,35.8125,1,31147,10416695
81,1,-0.657079,-0.0713198,9.78716,0.0923531,-0.538063,1.00689,-0.00657352,-0.000723128,0.0978714,1,4.93937e-05,-1.40834e-05,1.98595e-05,0.00987873,-0.00281668,0.0039719,0,0,0,0,0.0199469,0.492443,-1.01388,35.8125,1,31147,10416695
81,2,-0.654806,-0.0742314,9.79627,0.0940743,-0.542208,1.01487,-0.00654709,-0.0007508,0.0979627,1,4.17232e-05,4.79637e-06,2.37748e-05,0.00834464,0.000959274,0.00475497,0,0,0,0,0.0194373,0.493432,-1.01436,35.8125,1,31148,10416795
83,1,-0.654806,-0.0742314,9.79627,0.0940743,-0.542208,1.01487,-0.00654709,-0.0007508,0.0979627,1,4.17232e-05,4.79637e-06,2.37748e-05,0.00834464,0.000959274,0.00475497,0,0,0,0,0.0194373,0.493432,-1.01436,35.8125,1,31148,10416795
83,2,-0.661293,-0.0905048,9.78974,0.0888492,-0.558529,1.01046,-0.00661665,-0.000914722,0.0978971,1,4.90156e-05,-1.90378e-05,5.83761e-06,0.00980312,-0.00380757,0.00116752,0,0,0,0,0.01989,0.494412,-1.01485,35.8125,1,31149,10416895
85,1,-0.661293,-0.0905048,9.78974,0.0888492,-0.558529,1.01046,-0.00661665,-0.000914722,0.0978971,1,4.90156e-05,-1.90378e-05,5.83761e-06,0.00980312,-0.00380757,0.00116752,0,0,0,0,0.01989,0.494412,-1.01485,35.8125,1,31149,10416895
85,2,-0.657965,-0.0724369,9.7902,0.09074,-0.546394,1.01085,-0.00657908,-0.000732842,0.0979019,1,4.2254e-05,2.81093e-06,1.51753e-05,0.0084508,0.000562185,0.00303505,0,0,0,0,0.0194255,0.494886,-1.01382,35.8125,1,31150,10416995
85,3,-0.657965,-0.0724369,9.7902,0.09074,-0.546394,1.01085,-0.00657908,-0.000732842,0.0979019,1,4.2254e-05,2.81093e-06,1.51753e-05,0.0084508,0.000562185,0.00303505,0,0,0,0,0.0194255,0.494886,-1.01382,35.8125,1,31150,10416995
85,4,-0.642058,-0.0800609,9.78292,0.103899,-0.550305,0.99965,-0.00642239,-0.000809079,0.097829,1,4.14813e-05,-9.47692e-06,2.76042e-05,0.00829626,-0.00189538,0.00552083,0,0,0,0,0.0185202,0.492925,-1.01285,35.8125,1,31151,10417095
86,1,-0.642058,-0.0800609,9.78292,0.103899,-0.550305,0.99965,-0.00642239,-0.000809079,0.097829,1,4.14813e-05,-9.47692e-06,2.76042e-05,0.00829626,-0.00189538,0.00552083,0,0,0,0,0.0185202,0.492925,-1.01285,35.8125,1,31151,10417095
86,2,-0.648529,-0.0802228,9.78771,0.103584,-0.554929,1.0052,-0.00648883,-0.00081122,0.0978767,1,4.47872e-05,-1.82261e-05,1.73843e-05,0.00895743,-0.00364523,0.00347686,0,0,0,0,0.0179859,0.493931,-1.01434,35.8125,1,31152,10417195
87,1,-0.648529,-0.0802228,9.78771,0.103584,-0.554929,1.0052,-0.00648883,-0.00081122,0.0978767,1,4.47872e-05,-1.82261e-05,1.73843e-05,0.00895743,-0.00364523,0.00347686,0,0,0,0,0.0179859,0.493931,-1.01434,35.8125,1,31152,10417195
87,2,-0.650365,-0.0800375,9.78263,0.0997005,-0.550977,0.999087,-0.00650412,-0.000810932,0.0978261,1,5.29215e-05,-2.53679e-06,1.55978e-05,0.0105843,-0.000507358,0.00311956,0,0,0,0,0.0184836,0.494397,-1.01332,35.8125,1,31153,10417295
87,3,-0.650365,-0.0800375,9.78263,0.0997005,-0.550977,0.999087,-0.00650412,-0.000810932,0.0978261,1,5.29215e-05,-2.53679e-06,1.55978e-05,0.0105843,-0.000507358,0.00311956,0,0,0,0,0.0184836,0.494397,-1.01332,35.8125,1,31153,10417295
87,4,-0.650801,-0.0846154,9.79718,0.0983504,-0.555928,1.01401,-0.00650945,-0.000857379,0.0979716,1,5.62408e-05,-7.46534e-06,1.57968e-05,0.0112482,-0.00149307,0.00315937,0,0,0,0,0.0166,0.493419,-1.01233,35.8125,1,31154,10417395
87,5,-0.650801,-0.0846154,9.79718,0.0983504,-0.555928,1.01401,-0.00650945,-0.000857379,0.0979716,1,5.62408e-05,-7.46534e-06,1.57968e-05,0.0112482,-0.00149307,0.00315937,0,0,0,0,0.0166,0.493419,-1.01233,35.8125,1,31154,10417395
87,6,-0.657128,-0.0855589,9.79824,0.0945547,-0.559513,1.01886,-0.00657614,-0.000862392,0.097982,1,3.38407e-05,-2.49201e-05,1.30349e-05,0.00676814,-0.00498402,0.00260698,0,0,0,0,0.0185411,0.493873,-1.01132,35.8125,1,31155,10417495
88,1,-0.657128,-0.0855589,9.79824,0.0945547,-0.559513,1.01886,-0.00657614,-0.000862392,0.097982,1,3.38407e-05,-2.49201e-05,1.30349e-05,0.00676814,-0.00498402,0.00260698,0,0,0,0,0.0185411,0.493873,-1.01132,35.8125,1,31155,10417495
88,2,-0.662715,-0.0763194,9.78988,0.0901799,-0.55221,1.00476,-0.00663042,-0.00077054,0.0978985,1,3.67276e-05,-1.68013e-05,1.1699e-05,0.00734552,-0.00336026,0.0023398,0,0,0,0,0.0189818,0.496308,-1.01126,35.8125,1,31156,10417595
89,1,-0.662715,-0.0763194,9.78988,0.0901799,-0.55221,1.00476,-0.00663042,-0.00077054,0.0978985,1,3.67276e-05,-1.68013e-05,1.1699e-05,0.00734552,-0.00336026,0.0023398,0,0,0,0,0.0189818,0.496308,-1.01126,35.8125,1,31156,10417595
89,2,-0.657378,-0.0782434,9.78846,0.0926116,-0.55484,1.01022,-0.00657579,-0.000791876,0.0978844,1,4.64675e-05,-1.04814e-05,2.62929e-05,0.00929349,-0.00209629,0.00525858,0,0,0,0,0.0189984,0.496778,-1.01024,35.8125,1,31157,10417695
90,1,-0.657378,-0.0782434,9.78846,0.0926116,-0.55484,1.01022,-0.00657579,-0.000791876,0.0978844,1,4.64675e-05,-1.04814e-05,2.62929e-05,0.00929349,-0.00209629,0.00525858,0,0,0,0,0.0189984,0.496778,-1.01024,35.8125,1,31157,10417695
90,2,-0.655231,-0.0786934,9.78811,0.0921211,-0.556501,1.00596,-0.00655545,-0.000793064,0.0978808,1,2.94207e-05,-1.62795e-05,2.82617e-05,0.00588414,-0.00325589,0.00565234,0,0,0,0,0.0180357,0.49534,-1.01128,35.8125,1,31158,10417795
90,3,-0.655231,-0.0786934,9.78811,0.0921211,-0.556501,1.00596,-0.00655545,-0.000793064,0.0978808,1,2.94207e-05,-1.62795e-05,2.82617e-05,0.00588414,-0.00325589,0.00565234,0,0,0,0,0.0180357,0.49534,-1.01128,35.8125,1,31158,10417795
90,4,-0.66105,-0.0857586,9.7891,0.0859767,-0.562561,1.00407,-0.00661288,-0.000867449,0.0978908,1,4.95817e-05,-1.22675e-05,1.17775e-05,0.00991634,-0.00245351,0.00235549,0,0,0,0,0.0185202,0.492925,-1.01285,35.8125,1,31159,10417895
91,1,-0.66105,-0.0857586,9.7891,0.0859767,-0.562561,1.00407,-0.00661288,-0.000867449,0.0978908,1,4.95817e-05,-1.22675e-05,1.17775e-05,0.00991634,-0.00245351,0.00235549,0,0,0,0,0.0185202,0.492925,-1.01285,35.8125,1,31159,10417895
91,2,-0.659745,-0.0800608,9.79999,0.0856135,-0.561574,1.02068,-0.00659868,-0.000808181,0.0979997,1,3.74261e-05,-6.4634e-06,1.79932e-05,0.00748522,-0.00129268,0.00359865,0,0,0,0,0.0194867,0.493395,-1.01234,35.8125,1,31160,10417995
91,3,-0.659745,-0.0800608,9.79999,0.0856135,-0.561574,1.02068,-0.00659868,-0.000808181,0.0979997,1,3.74261e-05,-6.4634e-06,1.79932e-05,0.00748522,-0.00129268,0.00359865,0,0,0,0,0.0194867,0.493395,-1.01234,35.8125,1,31160,10417995
91,4,-0.652682,-0.0781335,9.78334,0.0916418,-0.557319,1.00245,-0.00652941,-0.000790309,0.0978331,1,4.48691e-05,-1.33648e-05,1.49665e-05,0.00897382,-0.00267296,0.0029933,0,0,0,0,0.0190184,0.494836,-1.01079,35.8125,1,31161,10418095
93,1,-0.652682,-0.0781335,9.78334,0.0916418,-0.557319,1.00245,-0.00652941,-0.000790309,0.0978331,1,4.48691e-05,-1.33648e-05,1.49665e-05,0.00897382,-0.00267296,0.0029933,0,0,0,0,0.0190184,0.494836,-1.01079,35.8125,1,31161,10418095
93,2,-0.645506,-0.0825143,9.79003,0.100933,-0.566319,1.01082,-0.00645734,-0.000834172,0.0979001,1,4.5564e-05,-1.17123e-05,8.3451e-06,0.0091128,-0.00234245,0.00166902,0,0,0,0,0.0189614,0.496805,-1.01176,35.8125,1,31162,10418195
94,1,-0.645506,-0.0825143,9.79003,0.100933,-0.566319,1.01082,-0.00645734,-0.000834172,0.0979001,1,4.5564e-05,-1.17123e-05,8.3451e-06,0.0091128,-0.00234245,0.00166902,0,0,0,0,0.0189614,0.496805,-1.01176,35.8125,1,31162,10418195
94,2,-0.658738,-0.0867532,9.79789,0.0899933,-0.570818,1.01614,-0.0065878,-0.000877144,0.0979787,1,4.81866e-05,-2.23504e-06,1.28338e-05,0.00963732,-0.000447008,0.00256677,0,0,0,0,0.0199156,0.497285,-1.01175,35.8125,1,31163,10418295
95,1,-0.658738,-0.0867532,9.79789,0.0899933,-0.570818,1.01614,-0.0065878,-0.000877144,0.0979787,1,4.81866e-05,-2.23504e-06,1.28338e-05,0.00963732,-0.000447008,0.00256677,0,0,0,0,0.0199156,0.497285,-1.01175,35.8125,1,31163,10418295
95,2,-0.655965,-0.0826961,9.79045,0.0875573,-0.561354,1.00766,-0.00656142,-0.000834598,0.0979043,1,3.79645e-05,-9.20513e-06,1.55139e-05,0.0075929,-0.00184103,0.00310277,0,0,0,0,0.0208735,0.496798,-1.01227,35.8125,1,31164,10418395
95,3,-0.655965,-0.0826961,9.79045,0.0875573,-0.561354,1.00766,-0.00656142,-0.000834598,0.0979043,1,3.79645e-05,-9.20513e-06,1.55139e-05,0.0075929,-0.00184103,0.00310277,0,0,0,0,0.0208735,0.496798,-1.01227,35.8125,1,31164,10418395
95,4,-0.658372,-0.0737532,9.79054,0.0867711,-0.558088,1.00903,-0.00658734,-0.000746321,0.0979051,1,4.42788e-05,-1.86004e-05,9.04513e-06,0.00885576,-0.00372008,0.00180903,0,0,0,0,0.0213499,0.49487,-1.01383,35.8125,1,31165,10418495
96,1,-0.658372,-0.0737532,9.79054,0.0867711,-0.558088,1.00903,-0.00658734,-0.000746321,0.0979051,1,4.42788e-05,-1.86004e-05,9.04513e-06,0.00885576,-0.00372008,0.00180903,0,0,0,0,0.0213499,0.49487,-1.01383,35.8125,1,31165,10418495
96,2,-0.649656,-0.0801836,9.78431,0.0904771,-0.563196,1.00514,-0.00649744,-0.000810747,0.097843,1,4.44315e-05,-4.62657e-06,1.66689e-05,0.0088863,-0.000925315,0.00333378,0,0,0,0,0.0184632,0.494894,-1.01382,35.8125,1,31166,10418595
97,1,-0.649656,-0.0801836,9.78431,0.0904771,-0.563196,1.00514,-0.00649744,-0.000810747,0.097843,1,4.44315e-05,-4.62657e-06,1.66689e-05,0.0088863,-0.000925315,0.00333378,0,0,0,0,0.0184632,0.494894,-1.01382,35.8125,1,31166,10418595
97,2,-0.671323,-0.0864529,9.78712,0.0700238,-0.565305,1.0049,-0.00671451,-0.000875399,0.097871,1,5.36534e-05,-6.7934e-06,2.74442e-05,0.0107307,-0.00135868,0.00548885,0,0,0,0,0.0184884,0.496321,-1.01177,35.8125,1,31167,10418695
98,1,-0.671323,-0.0864529,9.78712,0.0700238,-0.565305,1.0049,-0.00671451,-0.000875399,0.097871,1,5.36534e-05,-6.7934e-06,2.74442e-05,0.0107307,-0.00135868,0.00548885,0,0,0,0,0.0184884,0.496321,-1.01177,35.8125,1,31167,10418695
98,2,-0.659259,-0.0904189,9.79007,0.08293,-0.574927,1.00974,-0.00659587,-0.000910255,0.0979004,1,3.06294e-05,-1.68141e-05,5.24882e-06,0.00612587,-0.00336282,0.00104976,0,0,0,0,0.0199156,0.497285,-1.01175,35.8125,1,31168,10418795
98,3,-0.659259,-0.0904189,9.79007,0.08293,-0.574927,1.00974,-0.00659587,-0.000910255,0.0979004,1,3.06294e-05,-1.68141e-05,5.24882e-06,0.00612587,-0.00336282,0.00104976,0,0,0,0,0.0199156,0.497285,-1.01175,35.8125,1,31168,10418795
98,4,-0.667764,-0.0823648,9.79223,0.0708333,-0.565091,1.01137,-0.00668173,-0.000834512,0.0979219,1,5.44544e-05,-2.09848e-05,1.4901e-05,0.0108909,-0.00419696,0.00298021,0,0,0,0,0.0213665,0.49534,-1.01281,35.8125,1,31169,10418895
99,1,-0.667764,-0.0823648,9.79223,0.0708333,-0.565091,1.01137,-0.00668173,-0.000834512,0.0979219,1,5.44544e-05,-2.09848e-05,1.4901e-05,0.0108909,-0.00419696,0.00298021,0,0,0,0,0.0213665,0.49534,-1.01281,35.8125,1,31169,10418895
99,2,-0.651213,-0.0782461,9.77893,0.0869113,-0.564175,0.992236,-0.00651611,-0.000793491,0.0977889,1,5.46724e-05,-2.05503e-05,2.5861e-05,0.0109345,-0.00411007,0.0051722,0,0,0,0,0.0203915,0.493911,-1.01435,35.8125,1,31170,10418995
99,3,-0.651213,-0.0782461,9.77893,0.0869113,-0.564175,0.992236,-0.00651611,-0.000793491,0.0977889,1,5.46724e-05,-2.05503e-05,2.5861e-05,0.0109345,-0.00411007,0.0051722,0,0,0,0,0.0203915,0.493911,-1.01435,35.8125,1,31170,10418995
99,4,-0.662395,-0.0855239,9.79724,0.0736334,-0.565322,1.02262,-0.00662674,-0.000863997,0.0979722,1,4.34367e-05,-1.43613e-05,1.86565e-05,0.00868734,-0.00287226,0.0037313,0,0,0,0,0.0194416,0.49391,-1.01384,35.8125,1,31171,10419095
99,5,-0.662395,-0.0855239,9.79724,0.0736334,-0.565322,1.02262,-0.00662674,-0.000863997,0.0979722,1,4.34367e-05,-1.43613e-05,1.86565e-05,0.00868734,-0.00287226,0.0037313,0,0,0,0,0.0194416,0.49391,-1.01384,35.8125,1,31171,10419095
99,6,-0.658629,-0.0879749,9.79551,0.0740541,-0.565543,1.0134,-0.00658839,-0.000888395,0.0979549,1,4.26713e-05,-1.09004e-05,2.1709e-05,0.00853427,-0.00218009,0.00434181,0,0,0,0,0.018504,0.4939,-1.01283,35.8125,1,31172,10419195
100,1,-0.658629,-0.0879749,9.79551,0.0740541,-0.565543,1.0134,-0.00658839,-0.000888395,0.0979549,1,4.26713e-05,-1.09004e-05,2.1709e-05,0.00853427,-0.00218009,0.00434181,0,0,0,0,0.018504,0.4939,-1.01283,35.8125,1,31172,10419195
100,2,-0.65832,-0.0837651,9.79792,0.0750126,-0.563482,1.01632,-0.00658525,-0.000846306,0.097979,1,4.37274e-05,-1.05036e-05,6.56216e-06,0.00874548,-0.00210072,0.00131243,0,0,0,0,0.0185287,0.493882,-1.01182,35.8125,1,31173,10419295
100,3,-0.65832,-0.0837651,9.79792,0.0750126,-0.563482,1.01632,-0.00658525,-0.000846306,0.097979,1,4.37274e-05,-1.05036e-05,6.56216e-06,0.00874548,-0.00210072,0.00131243,0,0,0,0,0.0185287,0.493882,-1.01182,35.8125,1,31173,10419295
100,4,-0.653264,-0.0847153,9.786,0.0776251,-0.569793,1.00281,-0.00653476,-0.000854562,0.0978598,1,3.62155e-05,-1.10343e-05,2.45962e-05,0.00724309,-0.00220686,0.00491924,0,0,0,0,0.0180315,0.494862,-1.0118,35.8125,1,31174,10419395
100,5,-0.653264,-0.0847153,9.786,0.0776251,-0.569793,1.00281,-0.00653476,-0.000854562,0.0978598,1,3.62155e-05,-1.10343e-05,2.45962e-05,0.00724309,-0.00220686,0.00491924,0,0,0,0,0.0180315,0.494862,-1.0118,35.8125,1,31174,10419395
100,6,-0.654015,-0.081978,9.78637,0.0781269,-0.56785,1.00715,-0.00654206,-0.000828132,0.0978635,1,4.1701e-05,-9.88862e-06,1.45231e-05,0.00834019,-0.00197772,0.00290461,0,0,0,0,0.0194174,0.495374,-1.01381,35.8125,1,31175,10419495
101,1,-0.654015,-0.081978,9.78637,0.0781269,-0.56785,1.00715,-0.00654206,-0.000828132,0.0978635,1,4.1701e-05,-9.88862e-06,1.45231e-05,0.00834019,-0.00197772,0.00290461,0,0,0,0,0.0194174,0.495374,-1.01381,35.8125,1,31175,10419495
101,2,-0.656735,-0.0789486,9.78845,0.0714547,-0.562846,1.00902,-0.00656927,-0.000798199,0.0978843,1,4.41484e-05,-9.8516e-06,5.33461e-06,0.00882968,-0.00197032,0.00106692,0,0,0,0,0.019833,0.496381,-1.01581,35.8125,1,31176,10419595
102,1,-0.656735,-0.0789486,9.78845,0.0714547,-0.562846,1.00902,-0.00656927,-0.000798199,0.0978843,1,4.41484e-05,-9.8516e-06,5.33461e-06,0.00882968,-0.00197032,0.00106692,0,0,0,0,0.019833,0.496381,-1.01581,35.8125,1,31176,10419595
102,2,-0.638782,-0.0683049,9.78774,0.0847525,-0.549166,1.00385,-0.00639025,-0.000694126,0.0978772,1,5.57732e-05,-1.24725e-05,1.24743e-05,0.0111546,-0.00249449,0.00249486,0,0,0,0,0.0194051,0.495383,-1.01432,35.8125,1,31177,10419695
102,3,-0.638782,-0.0683049,9.78774,0.0847525,-0.549166,1.00385,-0.00639025,-0.000694126,0.0978772,1,5.57732e-05,-1.24725e-05,1.24743e-05,0.0111546,-0.00249449,0.00249486,0,0,0,0,0.0194051,0.495383,-1.01432,35.8125,1,31177,10419695
102,4,-0.661631,-0.0871879,9.79418,0.0487062,-0.567479,1.01346,-0.00662019,-0.000881642,0.0979415,1,4.84362e-05,-1.99993e-05,2.08021e-05,0.00968723,-0.00399986,0.00416042,0,0,0,0,0.0180068,0.49488,-1.01281,35.8125,1,31178,10419795
103,1,-0.661631,-0.0871879,9.79418,0.0487062,-0.567479,1.01346,-0.00662019,-0.000881642,0.0979415,1,4.84362e-05,-1.99993e-05,2.08021e-05,0.00968723,-0.00399986,0.00416042,0,0,0,0,0.0180068,0.49488,-1.01281,35.8125,1,31178,10419795
103,2,-0.66946,-0.0879613,9.78948,0.0359801,-0.558108,1.0096,-0.0066985,-0.00088692,0.0978944,1,3.59826e-05,-2.00998e-05,1.95411e-05,0.00719651,-0.00401996,0.00390821,0,0,0,0,0.0170488,0.495367,-1.01229,35.8125,1,31179,10419895
105,1,-0.66946,-0.0879613,9.78948,0.0359801,-0.558108,1.0096,-0.0066985,-0.00088692,0.0978944,1,3.59826e-05,-2.00998e-05,1.95411e-05,0.00719651,-0.00401996,0.00390821,0,0,0,0,0.0170488,0.495367,-1.01229,35.8125,1,31179,10419895
105,2,-0.651672,-0.0816429,9.79109,0.0409372,-0.557039,1.01057,-0.00651653,-0.000825357,0.0979109,1,4.45414e-05,8.02695e-07,1.58045e-05,0.00890829,0.000160539,0.00316091,0,0,0,0,0.0179783,0.495864,-1.01329,35.8125,1,31180,10419995
106,1,-0.651672,-0.0816429,9.79109,0.0409372,-0.557039,1.01057,-0.00651653,-0.000825357,0.0979109,1,4.45414e-05,8.02695e-07,1.58045e-05,0.00890829,0.000160539,0.00316091,0,0,0,0,0.0179783,0.495864,-1.01329,35.8125,1,31180,10419995
106,2,-0.658378,-0.074773,9.7885,0.0251626,-0.553934,1.0096,-0.00658546,-0.000757765,0.0978848,1,5.06975e-05,-8.67423e-06,8.35354e-06,0.0101395,-0.00173485,0.00167071,0,0,0,0,0.0199151,0.495839,-1.01279,35.8125,1,31181,10420095
107,1,-0.658378,-0.074773,9.7885,0.0251626,-0.553934,1.0096,-0.00658546,-0.000757765,0.0978848,1,5.06975e-05,-8.67423e-06,8.35354e-06,0.0101395,-0.00173485,0.00167071,0,0,0,0,0.0199151,0.495839,-1.01279,35.8125,1,31181,10420095
107,2,-0.647502,-0.0833245,9.79039,0.0279722,-0.560285,1.01199,-0.00647599,-0.000841665,0.0979037,1,4.18723e-05,-5.13719e-06,1.70729e-05,0.00837446,-0.00102744,0.00341458,0,0,0,0,0.0189652,0.495838,-1.01228,35.8125,1,31182,10420195
109,1,-0.647502,-0.0833245,9.79039,0.0279722,-0.560285,1.01199,-0.00647599,-0.000841665,0.0979037,1,4.18723e-05,-5.13719e-06,1.70729e-05,0.00837446,-0.00102744,0.00341458,0,0,0,0,0.0189652,0.495838,-1.01228,35.8125,1,31182,10420195
109,2,-0.66059,-0.0719106,9.79703,0.00771339,-0.5496,1.01853,-0.00661175,-0.000726704,0.0979698,1,3.72733e-05,-3.00521e-05,2.232e-05,0.00745466,-0.00601041,0.00446401,0,0,0,0,0.0185126,0.494858,-1.0118,35.8125,1,31183,10420295
110,1,-0.66059,-0.0719106,9.79703,0.00771339,-0.5496,1.01853,-0.00661175,-0.000726704,0.0979698,1,3.72733e-05,-3.00521e-05,2.232e-05,0.00745466,-0.00601041,0.00446401,0,0,0,0,0.0185126,0.494858,-1.0118,35.8125,1,31183,10420295
110,2,-0.664342,-0.0836635,9.79152,0.00410709,-0.558109,1.0114,-0.00664775,-0.000846459,0.0979148,1,4.90211e-05,-2.2253e-05,1.68644e-05,0.00980422,-0.0044506,0.00337288,0,0,0,0,0.018533,0.494361,-1.0113,35.8125,1,31184,10420395
110,3,-0.664342,-0.0836635,9.79152,0.00410709,-0.558109,1.0114,-0.00664775,-0.000846459,0.0979148,1,4.90211e-05,-2.2253e-05,1.68644e-05,0.00980422,-0.0044506,0.00337288,0,0,0,0,0.018533,0.494361,-1.0113,35.8125,1,31184,10420395
110,4,-0.654017,-0.0711353,9.78477,0.0189433,-0.549207,1.00062,-0.00654349,-0.000723253,0.0978473,1,5.91595e-05,-1.71174e-05,2.46373e-05,0.0118319,-0.00342349,0.00492746,0,0,0,0,0.0195033,0.493865,-1.01132,35.8125,1,31185,10420495
111,1,-0.654017,-0.0711353,9.78477,0.0189433,-0.549207,1.00062,-0.00654349,-0.000723253,0.0978473,1,5.91595e-05,-1.71174e-05,2.46373e-05,0.0118319,-0.00342349,0.00492746,0,0,0,0,0.0195033,0.493865,-1.01132,35.8125,1,31185,10420495
111,2,-0.659255,-0.0757211,9.78645,0.00866515,-0.551572,1.00503,-0.00659235,-0.000762725,0.0978645,1,2.57175e-05,7.35571e-07,3.64147e-05,0.0051435,0.000147114,0.00728295,0,0,0,0,0.0189937,0.494854,-1.0118,35.8125,1,31186,10420595
111,3,-0.659255,-0.0757211,9.78645,0.00866515,-0.551572,1.00503,-0.00659235,-0.000762725,0.0978645,1,2.57175e-05,7.35571e-07,3.64147e-05,0.0051435,0.000147114,0.00728295,0,0,0,0,0.0189937,0.494854,-1.0118,35.8125,1,31186,10420595
111,4,-0.665893,-0.0813172,9.78476,0.00658092,-0.559816,1.00579,-0.00666158,-0.000821476,0.0978474,1,4.1822e-05,-1.36028e-05,9.00788e-06,0.00836439,-0.00272056,0.00180158,0,0,0,0,0.0180685,0.494835,-1.01028,35.8125,1,31187,10420695
112,1,-0.665893,-0.0813172,9.78476,0.00658092,-0.559816,1.00579,-0.00666158,-0.000821476,0.0978474,1,4.1822e-05,-1.36028e-05,9.00788e-06,0.00836439,-0.00272056,0.00180158,0,0,0,0,0.0180685,0.494835,-1.01028,35.8125,1,31187,10420695
112,2,-0.652542,-0.0853374,9.79108,0.0186535,-0.566763,1.00713,-0.00652749,-0.000863047,0.0979106,1,4.78383e-05,-1.07999e-05,2.33296e-05,0.00956766,-0.00215998,0.00466591,0,0,0,0,0.0189733,0.49535,-1.01229,35.8125,1,31188,10420795
112,3,-0.652542,-0.0853374,9.79108,0.0186535,-0.566763,1.00713,-0.00652749,-0.000863047,0.0979106,1,4.78383e-05,-1.07999e-05,2.33296e-05,0.00956766,-0.00215998,0.00466591,0,0,0,0,0.0189733,0.49535,-1.01229,35.8125,1,31188,10420795
112,4,-0.648894,-0.0850396,9.80767,0.0250332,-0.567962,1.02819,-0.006488,-0.000860916,0.0980766,1,5.19138e-05,4.52966e-06,2.59599e-05,0.0103828,0.000905931,0.00519197,0,0,0,0,0.0203962,0.495835,-1.0128,35.8125,1,31189,10420895
112,5,-0.648894,-0.0850396,9.80767,0.0250332,-0.567962,1.02819,-0.006488,-0.000860916,0.0980766,1,5.19138e-05,4.52966e-06,2.59599e-05,0.0103828,0.000905931,0.00519197,0,0,0,0,0.0203962,0.495835,-1.0128,35.8125,1,31189,10420895
112,6,-0.650874,-0.0873168,9.79376,0.0166314,-0.570554,1.01632,-0.00651081,-0.000882679,0.0979374,1,4.72571e-05,-1.07751e-05,1.95618e-05,0.00945142,-0.00215501,0.00391236,0,0,0,0,0.0199479,0.495333,-1.01179,35.8125,1,31190,10420995
113,1,-0.650874,-0.0873168,9.79376,0.0166314,-0.570554,1.01632,-0.00651081,-0.000882679,0.0979374,1,4.72571e-05,-1.07751e-05,1.95618e-05,0.00945142,-0.00215501,0.00391236,0,0,0,0,0.0199479,0.495333,-1.01179,35.8125,1,31190,10420995
113,2,-0.659414,-0.0785109,9.78712,0.0107595,-0.563527,1.00538,-0.00659563,-0.00079512,0.097871,1,4.96191e-05,-7.77825e-06,2.26048e-05,0.00992383,-0.00155565,0.00452096,0,0,0,0,0.019964,0.494358,-1.01182,35.8125,1,31191,10421095
113,3,-0.659414,-0.0785109,9.78712,0.0107595,-0.563527,1.00538,-0.00659563,-0.00079512,0.097871,1,4.96191e-05,-7.77825e-06,2.26048e-05,0.00992383,-0.00155565,0.00452096,0,0,0,0,0.019964,0.494358,-1.01182,35.8125,1,31191,10421095
113,4,-0.658706,-0.0809329,9.78845,0.0141126,-0.562793,1.00402,-0.00658937,-0.000817557,0.0978842,1,4.10266e-05,-1.1936e-05,1.49049e-05,0.00820532,-0.00238719,0.00298098,0,0,0,0,0.0194463,0.495834,-1.01229,35.8125,1,31192,10421195
113,5,-0.658706,-0.0809329,9.78845,0.0141126,-0.562793,1.00402,-0.00658937,-0.000817557,0.0978842,1,4.10266e-05,-1.1936e-05,1.49049e-05,0.00820532,-0.00238719,0.00298098,0,0,0,0,0.0194463,0.495834,-1.01229,35.8125,1,31192,10421195
113,6,-0.653882,-0.0767121,9.78846,0.0146169,-0.55782,1.00783,-0.00654264,-0.00077705,0.0978843,1,4.98835e-05,-1.96396e-05,1.24554e-05,0.00997671,-0.00392792,0.00249109,0,0,0,0,0.0179702,0.496352,-1.01328,35.8125,1,31193,10421295
114,1,-0.653882,-0.0767121,9.78846,0.0146169,-0.55782,1.00783,-0.00654264,-0.00077705,0.0978843,1,4.98835e-05,-1.96396e-05,1.24554e-05,0.00997671,-0.00392792,0.00249109,0,0,0,0,0.0179702,0.496352,-1.01328,35.8125,1,31193,10421295
114,2,-0.657738,-0.0736622,9.78885,0.0128228,-0.559327,1.0089,-0.00658076,-0.000741409,0.0978882,1,2.34693e-05,-1.73952e-05,1.45883e-05,0.00469387,-0.00347904,0.00291765,0,0,0,0,0.0184552,0.495382,-1.01381,35.8125,1,31194,10421395
114,3,-0.657738,-0.0736622,9.78885,0.0128228,-0.559327,1.0089,-0.00658076,-0.000741409,0.0978882,1,2.34693e-05,-1.73952e-05,1.45883e-05,0.00469387,-0.00347904,0.00291765,0,0,0,0,0.0184552,0.495382,-1.01381,35.8125,1,31194,10421395
114,4,-0.648983,-0.0826042,9.79175,0.0267019,-0.569275,1.00942,-0.00648929,-0.000835732,0.0979174,1,4.85629e-05,2.62052e-06,1.38433e-05,0.00971257,0.000524104,0.00276866,0,0,0,0,0.0189932,0.493408,-1.01284,35.8125,1,31195,10421495
115,1,-0.648983,-0.0826042,9.79175,0.0267019,-0.569275,1.00942,-0.00648929,-0.000835732,0.0979174,1,4.85629e-05,2.62052e-06,1.38433e-05,0.00971257,0.000524104,0.00276866,0,0,0,0,0.0189932,0.493408,-1.01284,35.8125,1,31195,10421495
115,2,-0.652063,-0.0722539,9.79051,0.023463,-0.556609,1.00721,-0.00652054,-0.000733219,0.097905,1,5.36554e-05,3.83213e-07,1.33103e-05,0.0107311,7.66425e-05,0.00266206,0,0,0,0,0.0170773,0.494382,-1.0118,35.8125,1,31196,10421595
116,1,-0.652063,-0.0722539,9.79051,0.023463,-0.556609,1.00721,-0.00652054,-0.000733219,0.097905,1,5.36554e-05,3.83213e-07,1.33103e-05,0.0107311,7.66425e-05,0.00266206,0,0,0,0,0.0170773,0.494382,-1.0118,35.8125,1,31196,10421595
116,2,-0.652614,-0.0775683,9.80199,0.0168577,-0.558645,1.01934,-0.00652834,-0.000784072,0.0980197,1,4.04936e-05,-1.15464e-05,3.45469e-05,0.00809872,-0.00230929,0.00690939,0,0,0,0,0.0170982,0.49533,-1.01027,35.8125,1,31197,10421695
116,3,-0.652614,-0.0775683,9.80199,0.0168577,-0.558645,1.01934,-0.00652834,-0.000784072,0.0980197,1,4.04936e-05,-1.15464e-05,3.45469e-05,0.00809872,-0.00230929,0.00690939,0,0,0,0,0.0170982,0.49533,-1.01027,35.8125,1,31197,10421695
116,4,-0.653967,-0.0778862,9.79183,0.0228635,-0.561659,1.00963,-0.00654274,-0.000788135,0.097918,1,4.65083e-05,-1.57747e-05,1.25638e-05,0.00930167,-0.00315495,0.00251276,0,0,0,0,0.0194463,0.495834,-1.01229,35.8125,1,31198,10421795
118,1,-0.653967,-0.0778862,9.79183,0.0228635,-0.561659,1.00963,-0.00654274,-0.000788135,0.097918,1,4.65083e-05,-1.57747e-05,1.25638e-05,0.00930167,-0.00315495,0.00251276,0,0,0,0,0.0194463,0.495834,-1.01229,35.8125,1,31198,10421795
118,2,-0.654714,-0.0781216,9.7864,0.0235072,-0.569655,1.00241,-0.00654895,-0.000790447,0.0978638,1,4.61078e-05,-9.39544e-06,1.57227e-05,0.00922157,-0.00187909,0.00314454,0,0,0,0,0.0208446,0.496337,-1.0138,35.8125,1,31199,10421895
118,3,-0.654714,-0.0781216,9.7864,0.0235072,-0.569655,1.00241,-0.00654895,-0.000790447,0.0978638,1,4.61078e-05,-9.39544e-06,1.57227e-05,0.00922157,-0.00187909,0.00314454,0,0,0,0,0.0208446,0.496337,-1.0138,35.8125,1,31199,10421895
118,4,-0.661745,-0.0819303,9.78575,0.0102291,-0.573502,1.00537,-0.00662034,-0.000830099,0.0978572,1,5.39086e-05,-1.4935e-05,1.8535e-05,0.0107817,-0.002987,0.003707,0,0,0,0,0.0203758,0.496332,-1.01329,35.8125,1,31200,10421995
119,1,-0.661745,-0.0819303,9.78575,0.0102291,-0.573502,1.00537,-0.00662034,-0.000830099,0.0978572,1,5.39086e-05,-1.4935e-05,1.8535e-05,0.0107817,-0.002987,0.003707,0,0,0,0,0.0203758,0.496332,-1.01329,35.8125,1,31200,10421995
119,2,-0.649233,-0.0790935,9.79077,0.0214263,-0.573655,1.01168,-0.0064939,-0.000800269,0.0979075,1,4.59141e-05,-8.23306e-06,2.64515e-05,0.00918282,-0.00164661,0.0052903,0,0,0,0,0.0214074,0.494346,-1.01182,35.8125,1,31201,10422095
120,1,-0.649233,-0.0790935,9.79077,0.0214263,-0.573655,1.01168,-0.0064939,-0.000800269,0.0979075,1,4.59141e-05,-8.23306e-06,2.64515e-05,0.00918282,-0.00164661,0.0052903,0,0,0,0,0.0214074,0.494346,-1.01182,35.8125,1,31201,10422095
120,2,-0.654923,-0.0762156,9.79186,0.0198601,-0.563261,1.0093,-0.00655308,-0.000770786,0.0979183,1,4.24476e-05,-1.98246e-05,2.42572e-05,0.00848951,-0.00396493,0.00485144,0,0,0,0,0.019499,0.493386,-1.01184,35.8125,1,31202,10422195
120,3,-0.654923,-0.0762156,9.79186,0.0198601,-0.563261,1.0093,-0.00655308,-0.000770786,0.0979183,1,4.24476e-05,-1.98246e-05,2.42572e-05,0.00848951,-0.00396493,0.00485144,0,0,0,0,0.019499,0.493386,-1.01184,35.8125,1,31202,10422195
120,4,-0.65387,-0.0910189,9.79646,0.0225814,-0.58024,1.01546,-0.00654084,-0.000917706,0.0979644,1,3.6953e-05,-1.10958e-05,2.11504e-05,0.0073906,-0.00221915,0.00423008,0,0,0,0,0.0194871,0.494841,-1.0113,35.8125,1,31203,10422295
120,5,-0.65387,-0.0910189,9.79646,0.0225814,-0.58024,1.01546,-0.00654084,-0.000917706,0.0979644,1,3.6953e-05,-1.10958e-05,2.11504e-05,0.0073906,-0.00221915,0.00423008,0,0,0,0,0.0194871,0.494841,-1.0113,35.8125,1,31203,10422295
120,6,-0.654329,-0.0833586,9.79721,0.0245403,-0.579347,1.01665,-0.00654374,-0.00084277,0.097972,1,4.54225e-05,-2.47168e-06,2.16663e-05,0.00908449,-0.000494336,0.00433326,0,0,0,0,0.0198947,0.496336,-1.01329,35.8125,1,31204,10422395
120,7,-0.654329,-0.0833586,9.79721,0.0245403,-0.579347,1.01665,-0.00654374,-0.00084277,0.097972,1,4.54225e-05,-2.47168e-06,2.16663e-05,0.00908449,-0.000494336,0.00433326,0,0,0,0,0.0198947,0.496336,-1.01329,35.8125,1,31204,10422395
120,8,-0.656578,-0.0863047,9.79212,0.0230859,-0.578923,1.00704,-0.0065689,-0.000874371,0.0979209,1,5.65666e-05,-1.606e-05,1.86861e-05,0.0113133,-0.003212,0.00373722,0,0,0,0,0.0189363,0.495378,-1.01381,35.8125,1,31205,10422495
121,1,-0.656578,-0.0863047,9.79212,0.0230859,-0.578923,1.00704,-0.0065689,-0.000874371,0.0979209,1,5.65666e-05,-1.606e-05,1.86861e-05,0.0113133,-0.003212,0.00373722,0,0,0,0,0.0189363,0.495378,-1.01381,35.8125,1,31205,10422495
121,2,-0.665225,-0.0774119,9.79156,0.0105089,-0.574554,1.00899,-0.00665441,-0.000786165,0.0979154,1,6.06235e-05,-1.11403e-05,1.30592e-05,0.0121247,-0.00222807,0.00261183,0,0,0,0,0.0180229,0.493904,-1.01283,35.8125,1,31206,10422595
121,3,-0.665225,-0.0774119,9.79156,0.0105089,-0.574554,1.00899,-0.00665441,-0.000786165,0.0979154,1,6.06235e-05,-1.11403e-05,1.30592e-05,0.0121247,-0.00222807,0.00261183,0,0,0,0,0.0180229,0.493904,-1.01283,35.8125,1,31206,10422595
121,4,-0.659016,-0.0793032,9.79931,0.0194556,-0.573753,1.02398,-0.00659243,-0.000802968,0.0979929,1,5.03622e-05,-1.15765e-05,4.97332e-06,0.0100724,-0.00231529,0.000994664,0,0,0,0,0.0180471,0.492441,-1.01286,35.8125,1,31207,10422695
122,1,-0.659016,-0.0793032,9.79931,0.0194556,-0.573753,1.02398,-0.00659243,-0.000802968,0.0979929,1,5.03622e-05,-1.15765e-05,4.97332e-06,0.0100724,-0.00231529,0.000994664,0,0,0,0,0.0180471,0.492441,-1.01286,35.8125,1,31207,10422695
122,2,-0.660714,-0.087742,9.78603,0.0161681,-0.58307,1.00058,-0.00660991,-0.000888783,0.09786,1,5.66673e-05,-1.43665e-05,2.05822e-05,0.0113335,-0.0028733,0.00411645,0,0,0,0,0.0184998,0.493421,-1.01335,35.8125,1,31208,10422795
122,3,-0.660714,-0.087742,9.78603,0.0161681,-0.58307,1.00058,-0.00660991,-0.000888783,0.09786,1,5.66673e-05,-1.43665e-05,2.05822e-05,0.0113335,-0.0028733,0.00411645,0,0,0,0,0.0184998,0.493421,-1.01335,35.8125,1,31208,10422795
122,4,-0.656036,-0.0746728,9.78645,0.0193328,-0.568748,1.00578,-0.00656407,-0.000756733,0.0978641,1,4.97492e-05,-1.90979e-05,2.03962e-05,0.00994985,-0.00381957,0.00407925,0,0,0,0,0.0199436,0.494855,-1.01231,35.8125,1,31209,10422895
123,1,-0.656036,-0.0746728,9.78645,0.0193328,-0.568748,1.00578,-0.00656407,-0.000756733,0.0978641,1,4.97492e-05,-1.90979e-05,2.03962e-05,0.00994985,-0.00381957,0.00407925,0,0,0,0,0.0199436,0.494855,-1.01231,35.8125,1,31209,10422895
123,2,-0.65318,-0.0826786,9.79992,0.026417,-0.574957,1.01349,-0.00653465,-0.000837355,0.097999,1,5.26588e-05,-1.47168e-05,1.90307e-05,0.0105318,-0.00294336,0.00380613,0,0,0,0,0.0199564,0.496291,-1.01076,35.8125,1,31210,10422995
123,3,-0.65318,-0.0826786,9.79992,0.026417,-0.574957,1.01349,-0.00653465,-0.000837355,0.097999,1,5.26588e-05,-1.47168e-05,1.90307e-05,0.0105318,-0.00294336,0.00380613,0,0,0,0,0.0199564,0.496291,-1.01076,35.8125,1,31210,10422995
123,4,-0.657983,-0.0810156,9.79048,0.0179067,-0.579767,1.00677,-0.00658299,-0.000818834,0.0979045,1,4.29321e-05,-1.63244e-05,2.06828e-05,0.00858641,-0.00326488,0.00413656,0,0,0,0,0.019899,0.496815,-1.01277,35.8125,1,31211,10423095
123,5,-0.657983,-0.0810156,9.79048,0.0179067,-0.579767,1.00677,-0.00658299,-0.000818834,0.0979045,1,4.29321e-05,-1.63244e-05,2.06828e-05,0.00858641,-0.00326488,0.00413656,0,0,0,0,0.019899,0.496815,-1.01277,35.8125,1,31211,10423095
123,6,-0.650778,-0.0898254,9.78391,0.026597,-0.59279,0.998946,-0.00651296,-0.000906614,0.0978387,1,4.16877e-05,-2.65875e-05,1.55457e-05,0.00833755,-0.00531749,0.00310914,0,0,0,0,0.0203877,0.494878,-1.01383,35.8125,1,31212,10423195
123,7,-0.650778,-0.0898254,9.78391,0.026597,-0.59279,0.998946,-0.00651296,-0.000906614,0.0978387,1,4.16877e-05,-2.65875e-05,1.55457e-05,0.00833755,-0.00531749,0.00310914,0,0,0,0,0.0203877,0.494878,-1.01383,35.8125,1,31212,10423195
123,8,-0.661015,-0.0833442,9.79014,0.0146871,-0.584454,1.00547,-0.00661327,-0.000843726,0.0979011,1,5.17928e-05,-1.6054e-05,1.07511e-05,0.0103586,-0.0032108,0.00215021,0,0,0,0,0.0209054,0.493401,-1.01336,35.8125,1,31213,10423295
124,1,-0.661015,-0.0833442,9.79014,0.0146871,-0.584454,1.00547,-0.00661327,-0.000843726,0.0979011,1,5.17928e-05,-1.6054e-05,1.07511e-05,0.0103586,-0.0032108,0.00215021,0,0,0,0,0.0209054,0.493401,-1.01336,35.8125,1,31213,10423295
124,2,-0.665684,-0.0674101,9.78352,0.0128899,-0.569837,1.00096,-0.00665948,-0.000681709,0.0978349,1,3.79587e-05,-1.35735e-05,1.36011e-05,0.00759174,-0.00271469,0.00272022,0,0,0,0,0.0189567,0.494881,-1.01332,35.8125,1,31214,10423395
124,3,-0.665684,-0.0674101,9.78352,0.0128899,-0.569837,1.00096,-0.00665948,-0.000681709,0.0978349,1,3.79587e-05,-1.35735e-05,1.36011e-05,0.00759174,-0.00271469,0.00272022,0,0,0,0,0.0189567,0.494881,-1.01332,35.8125,1,31214,10423395
124,4,-0.663534,-0.0858738,9.7993,0.0117258,-0.588911,1.01769,-0.00663984,-0.000866726,0.0979926,1,3.91865e-05,-2.31582e-05,2.31898e-05,0.00783729,-0.00463164,0.00463796,0,0,0,0,0.0180557,0.493398,-1.01183,35.8125,1,31215,10423495
125,1,-0.663534,-0.0858738,9.7993,0.0117258,-0.588911,1.01769,-0.00663984,-0.000866726,0.0979926,1,3.91865e-05,-2.31582e-05,2.31898e-05,0.00783729,-0.00463164,0.00463796,0,0,0,0,0.0180557,0.493398,-1.01183,35.8125,1,31215,10423495
125,2,-0.658175,-0.0746972,9.78578,0.0237449,-0.578721,1.00253,-0.00658275,-0.000756109,0.0978576,1,4.56665e-05,-5.26177e-06,1.51899e-05,0.0091333,-0.00105235,0.00303798,0,0,0,0,0.019491,0.493874,-1.01182,35.8125,1,31216,10423595
125,3,-0.658175,-0.0746972,9.78578,0.0237449,-0.578721,1.00253,-0.00658275,-0.000756109,0.0978576,1,4.56665e-05,-5.26177e-06,1.51899e-05,0.0091333,-0.00105235,0.00303798,0,0,0,0,0.019491,0.493874,-1.01182,35.8125,1,31216,10423595
125,4,-0.662494,-0.0714128,9.79534,0.0167814,-0.570594,1.01484,-0.00662665,-0.000724596,0.0979532,1,5.18989e-05,-8.89582e-06,2.27521e-05,0.0103798,-0.00177916,0.00455043,0,0,0,0,0.0218391,0.494378,-1.01384,35.8125,1,31217,10423695
125,5,-0.662494,-0.0714128,9.79534,0.0167814,-0.570594,1.01484,-0.00662665,-0.000724596,0.0979532,1,5.18989e-05,-8.89582e-06,2.27521e-05,0.0103798,-0.00177916,0.00455043,0,0,0,0,0.0218391,0.494378,-1.01384,35.8125,1,31217,10423695
125,6,-0.657376,-0.0778087,9.79117,0.0203315,-0.580396,1.01162,-0.00657632,-0.000789406,0.0979115,1,5.67475e-05,-1.32094e-05,1.56798e-05,0.0113495,-0.00264188,0.00313595,0,0,0,0,0.0203834,0.494399,-1.01434,35.8125,1,31218,10423795
125,7,-0.657376,-0.0778087,9.79117,0.0203315,-0.580396,1.01162,-0.00657632,-0.000789406,0.0979115,1,5.67475e-05,-1.32094e-05,1.56798e-05,0.0113495,-0.00264188,0.00313595,0,0,0,0,0.0203834,0.494399,-1.01434,35.8125,1,31218,10423795
125,8,-0.652153,-0.0781736,9.79624,0.0270236,-0.581178,1.01409,-0.00652565,-0.000793129,0.097962,1,5.6792e-05,-2.11673e-05,2.04426e-05,0.0113584,-0.00423346,0.00408851,0,0,0,0,0.0185206,0.49437,-1.01181,35.8125,1,31219,10423895
126,1,-0.652153,-0.0781736,9.79624,0.0270236,-0.581178,1.01409,-0.00652565,-0.000793129,0.097962,1,5.6792e-05,-2.11673e-05,2.04426e-05,0.0113584,-0.00423346,0.00408851,0,0,0,0,0.0185206,0.49437,-1.01181,35.8125,1,31219,10423895
126,2,-0.656144,-0.0848605,9.78061,0.0175603,-0.589943,0.999454,-0.006567,-0.000857783,0.0978056,1,4.5592e-05,-2.86027e-05,1.97664e-05,0.0091184,-0.00572055,0.00395327,0,0,0,0,0.0185539,0.495309,-1.00977,35.8125,1,31220,10423995
127,1,-0.656144,-0.0848605,9.78061,0.0175603,-0.589943,0.999454,-0.006567,-0.000857783,0.0978056,1,4.5592e-05,-2.86027e-05,1.97664e-05,0.0091184,-0.00572055,0.00395327,0,0,0,0,0.0185539,0.495309,-1.00977,35.8125,1,31220,10423995
127,2,-0.661568,-0.092332,9.79889,0.0151427,-0.595825,1.01656,-0.00661891,-0.000933623,0.0979885,1,5.06118e-05,-1.68012e-05,2.90162e-05,0.0101224,-0.00336025,0.00580324,0,0,0,0,0.0190188,0.496281,-1.00975,35.8125,1,31221,10424095
127,3,-0.661568,-0.092332,9.79889,0.0151427,-0.595825,1.01656,-0.00661891,-0.000933623,0.0979885,1,5.06118e-05,-1.68012e-05,2.90162e-05,0.0101224,-0.00336025,0.00580324,0,0,0,0,0.0190188,0.496281,-1.00975,35.8125,1,31221,10424095
127,4,-0.665211,-0.0789824,9.78545,0.013662,-0.588053,1.00057,-0.00665439,-0.000798825,0.0978543,1,4.46662e-05,-1.17741e-05,1.9485e-05,0.00893324,-0.00235483,0.00389701,0,0,0,0,0.019907,0.496327,-1.01278,35.8125,1,31222,10424195
128,1,-0.665211,-0.0789824,9.78545,0.013662,-0.588053,1.00057,-0.00665439,-0.000798825,0.0978543,1,4.46662e-05,-1.17741e-05,1.9485e-05,0.00893324,-0.00235483,0.00389701,0,0,0,0,0.019907,0.496327,-1.01278,35.8125,1,31222,10424195
128,2,-0.660957,-0.0889981,9.79382,0.0171999,-0.592114,1.00925,-0.00661286,-0.000897121,0.0979379,1,3.53735e-05,-1.69127e-05,1.5961e-05,0.00707471,-0.00338254,0.0031922,0,0,0,0,0.0194582,0.49438,-1.01282,35.8125,1,31223,10424295
128,3,-0.660957,-0.0889981,9.79382,0.0171999,-0.592114,1.00925,-0.00661286,-0.000897121,0.0979379,1,3.53735e-05,-1.69127e-05,1.5961e-05,0.00707471,-0.00338254,0.0031922,0,0,0,0,0.0194582,0.49438,-1.01282,35.8125,1,31223,10424295
128,4,-0.660747,-0.0807738,9.7949,0.0184572,-0.592657,1.01273,-0.00660902,-0.000814504,0.0979488,1,3.31663e-05,-8.04307e-06,2.03568e-05,0.00663325,-0.00160861,0.00407137,0,0,0,0,0.0185002,0.494867,-1.0123,35.8125,1,31224,10424395
129,1,-0.660747,-0.0807738,9.7949,0.0184572,-0.592657,1.01273,-0.00660902,-0.000814504,0.0979488,1,3.31663e-05,-8.04307e-06,2.03568e-05,0.00663325,-0.00160861,0.00407137,0,0,0,0,0.0185002,0.494867,-1.0123,35.8125,1,31224,10424395
129,2,-0.659329,-0.0778312,9.79798,0.0209789,-0.584337,1.01222,-0.00659674,-0.000789991,0.0979794,1,5.84481e-05,-1.77411e-05,1.71141e-05,0.0116896,-0.00354822,0.00342281,0,0,0,0,0.0185164,0.493891,-1.01232,35.8125,1,31225,10424495
129,3,-0.659329,-0.0778312,9.79798,0.0209789,-0.584337,1.01222,-0.00659674,-0.000789991,0.0979794,1,5.84481e-05,-1.77411e-05,1.71141e-05,0.0116896,-0.00354822,0.00342281,0,0,0,0,0.0185164,0.493891,-1.01232,35.8125,1,31225,10424495
129,4,-0.65648,-0.074072,9.7912,0.0214069,-0.581831,1.00907,-0.00656488,-0.000750777,0.0979119,1,4.99375e-05,-5.72191e-07,2.11801e-05,0.00998751,-0.000114438,0.00423602,0,0,0,0,0.0180438,0.494853,-1.01129,35.8125,1,31226,10424595
130,1,-0.65648,-0.074072,9.7912,0.0214069,-0.581831,1.00907,-0.00656488,-0.000750777,0.0979119,1,4.99375e-05,-5.72191e-07,2.11801e-05,0.00998751,-0.000114438,0.00423602,0,0,0,0,0.0180438,0.494853,-1.01129,35.8125,1,31226,10424595
130,2,-0.651478,-0.0791147,9.79079,0.0290523,-0.589172,1.00535,-0.0065181,-0.000801025,0.0979076,1,5.02189e-05,-1.70001e-05,3.38245e-06,0.0100438,-0.00340002,0.00067649,0,0,0,0,0.0189776,0.495829,-1.01178,35.8125,1,31227,10424695
130,3,-0.651478,-0.0791147,9.79079,0.0290523,-0.589172,1.00535,-0.0065181,-0.000801025,0.0979076,1,5.02189e-05,-1.70001e-05,3.38245e-06,0.0100438,-0.00340002,0.00067649,0,0,0,0,0.0189776,0.495829,-1.01178,35.8125,1,31227,10424695
130,4,-0.643036,-0.0797476,9.79039,0.0391669,-0.590208,1.00422,-0.00643308,-0.000807761,0.0979036,1,5.15822e-05,-1.39717e-05,1.43665e-05,0.0103164,-0.00279433,0.0028733,0,0,0,0,0.0194259,0.496331,-1.01278,35.8125,1,31228,10424795
130,5,-0.643036,-0.0797476,9.79039,0.0391669,-0.590208,1.00422,-0.00643308,-0.000807761,0.0979036,1,5.15822e-05,-1.39717e-05,1.43665e-05,0.0103164,-0.00279433,0.0028733,0,0,0,0,0.0194259,0.496331,-1.01278,35.8125,1,31228,10424795
130,6,-0.65162,-0.0696195,9.7929,0.0339735,-0.582661,1.00993,-0.00651804,-0.000706014,0.0979288,1,4.88088e-05,-9.5593e-06,1.98872e-05,0.00976176,-0.00191186,0.00397744,0,0,0,0,0.0189444,0.49489,-1.01382,35.8125,1,31229,10424895
131,1,-0.65162,-0.0696195,9.7929,0.0339735,-0.582661,1.00993,-0.00651804,-0.000706014,0.0979288,1,4.88088e-05,-9.5593e-06,1.98872e-05,0.00976176,-0.00191186,0.00397744,0,0,0,0,0.0189444,0.49489,-1.01382,35.8125,1,31229,10424895
131,2,-0.659318,-0.0847054,9.78639,0.0197303,-0.600315,1.0019,-0.00659739,-0.000855812,0.0978635,1,4.34871e-05,-2.1655e-05,1.86769e-05,0.00869743,-0.00433101,0.00373539,0,0,0,0,0.0179613,0.493949,-1.01535,35.8125,1,31230,10424995
131,3,-0.659318,-0.0847054,9.78639,0.0197303,-0.600315,1.0019,-0.00659739,-0.000855812,0.0978635,1,4.34871e-05,-2.1655e-05,1.86769e-05,0.00869743,-0.00433101,0.00373539,0,0,0,0,0.0179613,0.493949,-1.01535,35.8125,1,31230,10424995
131,4,-0.647746,-0.0768207,9.79723,0.0347369,-0.58794,1.01366,-0.00648078,-0.000776336,0.097972,1,4.06447e-05,-1.70377e-05,1.27312e-05,0.00812895,-0.00340754,0.00254624,0,0,0,0,0.0179779,0.494419,-1.01433,35.8125,1,31231,10425095
132,1,-0.647746,-0.0768207,9.79723,0.0347369,-0.58794,1.01366,-0.00648078,-0.000776336,0.097972,1,4.06447e-05,-1.70377e-05,1.27312e-05,0.00812895,-0.00340754,0.00254624,0,0,0,0,0.0179779,0.494419,-1.01433,35.8125,1,31231,10425095
132,2,-0.662885,-0.0776581,9.7868,0.0231365,-0.592816,1.00577,-0.00663089,-0.000787983,0.0978678,1,5.78016e-05,-1.0494e-05,6.67791e-06,0.0115603,-0.00209881,0.00133558,0,0,0,0,0.0179826,0.496343,-1.01277,35.8125,1,31232,10425195
132,3,-0.662885,-0.0776581,9.7868,0.0231365,-0.592816,1.00577,-0.00663089,-0.000787983,0.0978678,1,5.78016e-05,-1.0494e-05,6.67791e-06,0.0115603,-0.00209881,0.00133558,0,0,0,0,0.0179826,0.496343,-1.01277,35.8125,1,31232,10425195
132,4,-0.657636,-0.0778364,9.78982,0.0230617,-0.590369,1.00744,-0.00657942,-0.000790058,0.0978979,1,5.83252e-05,-1.58137e-05,2.08874e-05,0.011665,-0.00316273,0.00417747,0,0,0,0,0.018998,0.495332,-1.01129,35.8125,1,31233,10425295
132,5,-0.657636,-0.0778364,9.78982,0.0230617,-0.590369,1.00744,-0.00657942,-0.000790058,0.0978979,1,5.83252e-05,-1.58137e-05,2.08874e-05,0.011665,-0.00316273,0.00417747,0,0,0,0,0.018998,0.495332,-1.01129,35.8125,1,31233,10425295
132,6,-0.663706,-0.0718218,9.80383,0.0203563,-0.586124,1.01945,-0.00664081,-0.000727855,0.0980379,1,4.84511e-05,-1.92337e-05,1.03209e-05,0.00969022,-0.00384675,0.00206419,0,0,0,0,0.0185287,0.493882,-1.01182,35.8125,1,31234,10425395
132,7,-0.663706,-0.0718218,9.80383,0.0203563,-0.586124,1.01945,-0.00664081,-0.000727855,0.0980379,1,4.84511e-05,-1.92337e-05,1.03209e-05,0.00969022,-0.00384675,0.00206419,0,0,0,0,0.0185287,0.493882,-1.01182,35.8125,1,31234,10425395
132,8,-0.653518,-0.0826426,9.79349,0.0278028,-0.596655,1.01016,-0.0065377,-0.000835765,0.0979346,1,4.6596e-05,-1.30347e-05,1.61919e-05,0.0093192,-0.00260694,0.00323837,0,0,0,0,0.0185164,0.493891,-1.01232,35.8125,1,31235,10425495
133,1,-0.653518,-0.0826426,9.79349,0.0278028,-0.596655,1.01016,-0.0065377,-0.000835765,0.0979346,1,4.6596e-05,-1.30347e-05,1.61919e-05,0.0093192,-0.00260694,0.00323837,0,0,0,0,0.0185164,0.493891,-1.01232,35.8125,1,31235,10425495
133,2,-0.656958,-0.0846802,9.78603,0.0284747,-0.597906,0.999827,-0.00657226,-0.000855512,0.0978601,1,4.4195e-05,-1.37294e-05,4.57085e-06,0.00883901,-0.00274588,0.000914171,0,0,0,0,0.0189363,0.495378,-1.01381,35.8125,1,31236,10425595
134,1,-0.656958,-0.0846802,9.78603,0.0284747,-0.597906,0.999827,-0.00657226,-0.000855512,0.0978601,1,4.4195e-05,-1.37294e-05,4.57085e-06,0.00883901,-0.00274588,0.000914171,0,0,0,0,0.0189363,0.495378,-1.01381,35.8125,1,31236,10425595
134,2,-0.651182,-0.0919913,9.78965,0.0300323,-0.607951,1.00602,-0.00651333,-0.000925967,0.0978964,1,3.016e-05,-7.85852e-06,1.14552e-05,0.00603199,-0.0015717,0.00229105,0,0,0,0,0.0189814,0.494863,-1.01231,35.8125,1,31237,10425695
134,3,-0.651182,-0.0919913,9.78965,0.0300323,-0.607951,1.00602,-0.00651333,-0.000925967,0.0978964,1,3.016e-05,-7.85852e-06,1.14552e-05,0.00603199,-0.0015717,0.00229105,0,0,0,0,0.0189814,0.494863,-1.01231,35.8125,1,31237,10425695
134,4,-0.665143,-0.0784153,9.78376,0.0203842,-0.593057,0.99719,-0.00665587,-0.000796019,0.0978373,1,6.04223e-05,-2.27598e-05,3.23181e-06,0.0120845,-0.00455197,0.000646361,0,0,0,0,0.0189937,0.494854,-1.0118,35.8125,1,31238,10425795
134,5,-0.665143,-0.0784153,9.78376,0.0203842,-0.593057,0.99719,-0.00665587,-0.000796019,0.0978373,1,6.04223e-05,-2.27598e-05,3.23181e-06,0.0120845,-0.00455197,0.000646361,0,0,0,0,0.0189937,0.494854,-1.0118,35.8125,1,31238,10425795
134,6,-0.643319,-0.0787381,9.78769,0.0368451,-0.597386,1.00156,-0.00643793,-0.000798202,0.0978765,1,5.41193e-05,-2.43389e-05,1.76485e-05,0.0108239,-0.00486779,0.00352969,0,0,0,0,0.0204532,0.493866,-1.01183,35.8125,1,31239,10425895
134,7,-0.643319,-0.0787381,9.78769,0.0368451,-0.597386,1.00156,-0.00643793,-0.000798202,0.0978765,1,5.41193e-05,-2.43389e-05,1.76485e-05,0.0108239,-0.00486779,0.00352969,0,0,0,0,0.0204532,0.493866,-1.01183,35.8125,1,31239,10425895
134,8,-0.665623,-0.077124,9.78648,0.0156159,-0.594044,1.00466,-0.00665838,-0.000782738,0.0978646,1,5.6818e-05,-1.1241e-05,2.83776e-05,0.0113636,-0.00224821,0.00567553,0,0,0,0,0.0194625,0.494859,-1.01231,35.8125,1,31240,10425995
135,1,-0.665623,-0.077124,9.78648,0.0156159,-0.594044,1.00466,-0.00665838,-0.000782738,0.0978646,1,5.6818e-05,-1.1241e-05,2.83776e-05,0.0113636,-0.00224821,0.00567553,0,0,0,0,0.0194625,0.494859,-1.01231,35.8125,1,31240,10425995
135,2,-0.650488,-0.0779079,9.79418,0.028944,-0.596804,1.01124,-0.00650869,-0.000786828,0.0979415,1,3.87095e-05,-1.9567e-05,1.28095e-05,0.0077419,-0.0039134,0.00256191,0,0,0,0,0.0189814,0.494863,-1.01231,35.8125,1,31241,10426095
135,3,-0.650488,-0.0779079,9.79418,0.028944,-0.596804,1.01124,-0.00650869,-0.000786828,0.0979415,1,3.87095e-05,-1.9567e-05,1.28095e-05,0.0077419,-0.0039134,0.00256191,0,0,0,0,0.0189814,0.494863,-1.01231,35.8125,1,31241,10426095
135,4,-0.654562,-0.0755716,9.79321,0.0299255,-0.591762,1.00514,-0.00654913,-0.000762769,0.0979319,1,3.439e-05,-1.80883e-05,2.42162e-05,0.006878,-0.00361766,0.00484324,0,0,0,0,0.0185164,0.493891,-1.01232,35.8125,1,31242,10426195
135,5,-0.654562,-0.0755716,9.79321,0.0299255,-0.591762,1.00514,-0.00654913,-0.000762769,0.0979319,1,3.439e-05,-1.80883e-05,2.42162e-05,0.006878,-0.00361766,0.00484324,0,0,0,0,0.0185164,0.493891,-1.01232,35.8125,1,31242,10426195
135,6,-0.66545,-0.0875811,9.7864,0.0152124,-0.604098,1.00255,-0.0066569,-0.000884418,0.0978637,1,4.27831e-05,-1.24149e-05,1.75236e-05,0.00855661,-0.00248298,0.00350472,0,0,0,0,0.0189771,0.494384,-1.01282,35.8125,1,31243,10426295
136,1,-0.66545,-0.0875811,9.7864,0.0152124,-0.604098,1.00255,-0.0066569,-0.000884418,0.0978637,1,4.27831e-05,-1.24149e-05,1.75236e-05,0.00855661,-0.00248298,0.00350472,0,0,0,0,0.0189771,0.494384,-1.01282,35.8125,1,31243,10426295
136,2,-0.654034,-0.0747769,9.78542,0.0249623,-0.597673,0.999776,-0.00654242,-0.000755672,0.097854,1,3.98308e-05,-1.06972e-05,8.20307e-06,0.00796616,-0.00213945,0.00164061,0,0,0,0,0.019434,0.495843,-1.01279,35.8125,1,31244,10426395
136,3,-0.654034,-0.0747769,9.78542,0.0249623,-0.597673,0.999776,-0.00654242,-0.000755672,0.097854,1,3.98308e-05,-1.06972e-05,8.20307e-06,0.00796616,-0.00213945,0.00164061,0,0,0,0,0.019434,0.495843,-1.01279,35.8125,1,31244,10426395
136,4,-0.658827,-0.0736147,9.78851,0.0262287,-0.592728,1.00155,-0.00658945,-0.000747812,0.0978849,1,5.84386e-05,-6.16153e-06,1.70227e-05,0.0116877,-0.00123231,0.00340454,0,0,0,0,0.0203962,0.495835,-1.0128,35.8125,1,31245,10426495
137,1,-0.658827,-0.0736147,9.78851,0.0262287,-0.592728,1.00155,-0.00658945,-0.000747812,0.0978849,1,5.84386e-05,-6.16153e-06,1.70227e-05,0.0116877,-0.00123231,0.00340454,0,0,0,0,0.0203962,0.495835,-1.0128,35.8125,1,31245,10426495
137,2,-0.661799,-0.0789848,9.79391,0.0200233,-0.598779,1.007,-0.00661904,-0.000799212,0.0979389,1,4.64339e-05,-5.53022e-06,2.03381e-05,0.00928678,-0.00110604,0.00406762,0,0,0,0,0.0204166,0.495338,-1.0123,35.8125,1,31246,10426595
137,3,-0.661799,-0.0789848,9.79391,0.0200233,-0.598779,1.007,-0.00661904,-0.000799212,0.0979389,1,4.64339e-05,-5.53022e-06,2.03381e-05,0.00928678,-0.00110604,0.00406762,0,0,0,0,0.0204166,0.495338,-1.0123,35.8125,1,31246,10426595
137,4,-0.649759,-0.0741784,9.78674,0.0271898,-0.595023,0.999224,-0.0064987,-0.000748033,0.0978673,1,3.12309e-05,-5.74628e-06,1.04739e-05,0.00624619,-0.00114926,0.00209477,0,0,0,0,0.0214197,0.494337,-1.01132,35.8125,1,31247,10426695
137,5,-0.649759,-0.0741784,9.78674,0.0271898,-0.595023,0.999224,-0.0064987,-0.000748033,0.0978673,1,3.12309e-05,-5.74628e-06,1.04739e-05,0.00624619,-0.00114926,0.00209477,0,0,0,0,0.0214197,0.494337,-1.01132,35.8125,1,31247,10426695
137,6,-0.658483,-0.0781608,9.78982,0.026028,-0.600572,1.00413,-0.00658604,-0.000792454,0.097898,1,5.4881e-05,-6.22647e-06,7.62022e-06,0.0109762,-0.00124529,0.00152404,0,0,0,0,0.0194786,0.493883,-1.01233,35.8125,1,31248,10426795
137,7,-0.658483,-0.0781608,9.78982,0.026028,-0.600572,1.00413,-0.00658604,-0.000792454,0.097898,1,5.4881e-05,-6.22647e-06,7.62022e-06,0.0109762,-0.00124529,0.00152404,0,0,0,0,0.0194786,0.493883,-1.01233,35.8125,1,31248,10426795
137,8,-0.646279,-0.0790656,9.78294,0.0346095,-0.602272,0.992155,-0.00646297,-0.000800319,0.0978294,1,4.84996e-05,-1.02964e-06,1.34799e-05,0.00969992,-0.000205927,0.00269597,0,0,0,0,0.0180229,0.493904,-1.01283,35.8125,1,31249,10426895
138,1,-0.646279,-0.0790656,9.78294,0.0346095,-0.602272,0.992155,-0.00646297,-0.000800319,0.0978294,1,4.84996e-05,-1.02964e-06,1.34799e-05,0.00969992,-0.000205927,0.00269597,0,0,0,0,0.0180229,0.493904,-1.01283,35.8125,1,31249,10426895
138,2,-0.650923,-0.0797628,9.78468,0.0350812,-0.60174,1.00212,-0.00651192,-0.000806995,0.0978465,1,4.61062e-05,-1.39823e-05,2.64944e-05,0.00922123,-0.00279647,0.00529887,0,0,0,0,0.018961,0.49536,-1.0128,35.8125,1,31250,10426995
138,3,-0.650923,-0.0797628,9.78468,0.0350812,-0.60174,1.00212,-0.00651192,-0.000806995,0.0978465,1,4.61062e-05,-1.39823e-05,2.64944e-05,0.00922123,-0.00279647,0.00529887,0,0,0,0,0.018961,0.49536,-1.0128,35.8125,1,31250,10426995
138,4,-0.660056,-0.0849961,9.78808,0.0260255,-0.603881,1.0035,-0.00660323,-0.000859579,0.0978805,1,4.78102e-05,-1.37764e-05,1.95523e-05,0.00956205,-0.00275527,0.00391046,0,0,0,0,0.0185458,0.495797,-1.00976,35.8125,1,31251,10427095
138,5,-0.660056,-0.0849961,9.78808,0.0260255,-0.603881,1.0035,-0.00660323,-0.000859579,0.0978805,1,4.78102e-05,-1.37764e-05,1.95523e-05,0.00956205,-0.00275527,0.00391046,0,0,0,0,0.0185458,0.495797,-1.00976,35.8125,1,31251,10427095
138,6,-0.656744,-0.0740442,9.78917,0.030599,-0.59806,1.0031,-0.00656975,-0.000751363,0.0978914,1,5.44507e-05,-1.19488e-05,1.97757e-05,0.0108901,-0.00238976,0.00395515,0,0,0,0,0.0166009,0.49631,-1.01024,35.8125,1,31252,10427195
138,7,-0.656744,-0.0740442,9.78917,0.030599,-0.59806,1.0031,-0.00656975,-0.000751363,0.0978914,1,5.44507e-05,-1.19488e-05,1.97757e-05,0.0108901,-0.00238976,0.00395515,0,0,0,0,0.0166009,0.49631,-1.01024,35.8125,1,31252,10427195
138,8,-0.659324,-0.0751692,9.79257,0.0248789,-0.598624,1.00518,-0.00659749,-0.000761088,0.0979254,1,4.73557e-05,-2.17486e-05,9.25545e-06,0.00947114,-0.00434972,0.00185109,0,0,0,0,0.0165145,0.496373,-1.01378,35.8125,1,31253,10427295
139,1,-0.659324,-0.0751692,9.79257,0.0248789,-0.598624,1.00518,-0.00659749,-0.000761088,0.0979254,1,4.73557e-05,-2.17486e-05,9.25545e-06,0.00947114,-0.00434972,0.00185109,0,0,0,0,0.0165145,0.496373,-1.01378,35.8125,1,31253,10427295
139,2,-0.651818,-0.0862473,9.79989,0.033782,-0.611388,1.01514,-0.00651975,-0.000869871,0.0979987,1,3.69028e-05,-8.15639e-06,1.26547e-05,0.00738056,-0.00163128,0.00253094,0,0,0,0,0.0164737,0.497367,-1.01476,35.8125,1,31254,10427395
139,3,-0.651818,-0.0862473,9.79989,0.033782,-0.611388,1.01514,-0.00651975,-0.000869871,0.0979987,1,3.69028e-05,-8.15639e-06,1.26547e-05,0.00738056,-0.00163128,0.00253094,0,0,0,0,0.0164737,0.497367,-1.01476,35.8125,1,31254,10427395
139,4,-0.65592,-0.0809027,9.78877,0.0311463,-0.612758,1.00473,-0.00656359,-0.00081862,0.0978874,1,4.83039e-05,-2.24879e-05,1.03937e-05,0.00966077,-0.00449759,0.00207873,0,0,0,0,0.0179536,0.495882,-1.0143,35.8125,1,31255,10427495
139,5,-0.65592,-0.0809027,9.78877,0.0311463,-0.612758,1.00473,-0.00656359,-0.00081862,0.0978874,1,4.83039e-05,-2.24879e-05,1.03937e-05,0.00966077,-0.00449759,0.00207873,0,0,0,0,0.0179536,0.495882,-1.0143,35.8125,1,31255,10427495
139,6,-0.661866,-0.0691303,9.78654,0.0253206,-0.594542,1.00445,-0.00662185,-0.000697638,0.0978651,1,3.15606e-05,-1.63689e-05,1.18781e-05,0.00631213,-0.00327378,0.00237563,0,0,0,0,0.0185002,0.494867,-1.0123,35.8125,1,31256,10427595
139,7,-0.661866,-0.0691303,9.78654,0.0253206,-0.594542,1.00445,-0.00662185,-0.000697638,0.0978651,1,3.15606e-05,-1.63689e-05,1.18781e-05,0.00631213,-0.00327378,0.00237563,0,0,0,0,0.0185002,0.494867,-1.0123,35.8125,1,31256,10427595
139,8,-0.647507,-0.0790963,9.78466,0.0392913,-0.606363,1.00082,-0.00647802,-0.000800226,0.0978463,1,4.64209e-05,-1.52178e-05,1.38021e-05,0.00928417,-0.00304357,0.00276043,0,0,0,0,0.0190634,0.494321,-1.00929,35.8125,1,31257,10427695
140,1,-0.647507,-0.0790963,9.78466,0.0392913,-0.606363,1.00082,-0.00647802,-0.000800226,0.0978463,1,4.64209e-05,-1.52178e-05,1.38021e-05,0.00928417,-0.00304357,0.00276043,0,0,0,0,0.0190634,0.494321,-1.00929,35.8125,1,31257,10427695
140,2,-0.650915,-0.0755845,9.78471,0.0329971,-0.601139,0.998785,-0.00651236,-0.000765704,0.0978468,1,4.9876e-05,-1.64605e-05,7.54937e-06,0.00997519,-0.0032921,0.00150987,0,0,0,0,0.0199887,0.49434,-1.01081,35.8125,1,31258,10427795
140,3,-0.650915,-0.0755845,9.78471,0.0329971,-0.601139,0.998785,-0.00651236,-0.000765704,0.0978468,1,4.9876e-05,-1.64605e-05,7.54937e-06,0.00997519,-0.0032921,0.00150987,0,0,0,0,0.0199887,0.49434,-1.01081,35.8125,1,31258,10427795
140,4,-0.658961,-0.0804395,9.79049,0.0251142,-0.60827,1.00182,-0.00659186,-0.000817152,0.0979047,1,6.41571e-05,-1.16117e-05,1.47499e-05,0.0128314,-0.00232233,0.00294997,0,0,0,0,0.0199313,0.494864,-1.01281,35.8125,1,31259,10427895
141,1,-0.658961,-0.0804395,9.79049,0.0251142,-0.60827,1.00182,-0.00659186,-0.000817152,0.0979047,1,6.41571e-05,-1.16117e-05,1.47499e-05,0.0128314,-0.00232233,0.00294997,0,0,0,0,0.0199313,0.494864,-1.01281,35.8125,1,31259,10427895
141,2,-0.654776,-0.0808881,9.7864,0.0280252,-0.606974,0.996637,-0.00655357,-0.000818052,0.0978636,1,4.44055e-05,-2.99887e-05,3.66269e-05,0.0088811,-0.00599774,0.00732538,0,0,0,0,0.0204,0.494869,-1.01332,35.8125,1,31260,10427995
141,3,-0.654776,-0.0808881,9.7864,0.0280252,-0.606974,0.996637,-0.00655357,-0.000818052,0.0978636,1,4.44055e-05,-2.99887e-05,3.66269e-05,0.0088811,-0.00599774,0.00732538,0,0,0,0,0.0204,0.494869,-1.01332,35.8125,1,31260,10427995
141,4,-0.660375,-0.0845149,9.79114,0.0236948,-0.614724,1.00538,-0.00660639,-0.00085396,0.0979112,1,4.3869e-05,-1.36346e-05,1.66893e-05,0.0087738,-0.00272692,0.00333786,0,0,0,0,0.0180514,0.49292,-1.01234,35.8125,1,31261,10428095
141,5,-0.660375,-0.0845149,9.79114,0.0236948,-0.614724,1.00538,-0.00660639,-0.00085396,0.0979112,1,4.3869e-05,-1.36346e-05,1.66893e-05,0.0087738,-0.00272692,0.00333786,0,0,0,0,0.0180514,0.49292,-1.01234,35.8125,1,31261,10428095
141,6,-0.65234,-0.0798245,9.78603,0.0339937,-0.606932,0.996851,-0.00652449,-0.000808687,0.0978602,1,5.23777e-05,-5.703e-06,1.4672e-05,0.0104755,-0.0011406,0.0029344,0,0,0,0,0.0161844,0.492412,-1.01033,35.8125,1,31262,10428195
141,7,-0.65234,-0.0798245,9.78603,0.0339937,-0.606932,0.996851,-0.00652449,-0.000808687,0.0978602,1,5.23777e-05,-5.703e-06,1.4672e-05,0.0104755,-0.0011406,0.0029344,0,0,0,0,0.0161844,0.492412,-1.01033,35.8125,1,31262,10428195
141,8,-0.654583,-0.0818644,9.79079,0.0307127,-0.611292,1.004,-0.00654985,-0.000830669,0.0979075,1,6.12493e-05,-2.05674e-05,2.34525e-06,0.0122499,-0.00411348,0.00046905,0,0,0,0,0.019063,0.492876,-1.01033,35.8125,1,31263,10428295
142,1,-0.654583,-0.0818644,9.79079,0.0307127,-0.611292,1.004,-0.00654985,-0.000830669,0.0979075,1,6.12493e-05,-2.05674e-05,2.34525e-06,0.0122499,-0.00411348,0.00046905,0,0,0,0,0.019063,0.492876,-1.01033,35.8125,1,31263,10428295
142,2,-0.655626,-0.0754023,9.79695,0.0322005,-0.605096,1.00837,-0.00655803,-0.00076582,0.0979693,1,5.94315e-05,-9.11551e-06,1.16655e-05,0.0118863,-0.0018231,0.0023331,0,0,0,0,0.0194791,0.495328,-1.01129,35.8125,1,31264,10428395
142,3,-0.655626,-0.0754023,9.79695,0.0322005,-0.605096,1.00837,-0.00655803,-0.00076582,0.0979693,1,5.94315e-05,-9.11551e-06,1.16655e-05,0.0118863,-0.0018231,0.0023331,0,0,0,0,0.0194791,0.495328,-1.01129,35.8125,1,31264,10428395
142,4,-0.651549,-0.0791317,9.78604,0.0362312,-0.609827,0.996645,-0.0065196,-0.000801311,0.0978601,1,5.02074e-05,-2.10966e-05,1.28504e-05,0.0100415,-0.00421932,0.00257009,0,0,0,0,0.0189567,0.494881,-1.01332,35.8125,1,31265,10428495
142,5,-0.651549,-0.0791317,9.78604,0.0362312,-0.609827,0.996645,-0.0065196,-0.000801311,0.0978601,1,5.02074e-05,-2.10966e-05,1.28504e-05,0.0100415,-0.00421932,0.00257009,0,0,0,0,0.0189567,0.494881,-1.01332,35.8125,1,31265,10428495
142,6,-0.655256,-0.0820917,9.78536,0.0287145,-0.610514,0.994058,-0.0065563,-0.000826692,0.0978533,1,2.80328e-05,-1.92691e-05,2.21003e-05,0.00560656,-0.00385382,0.00442005,0,0,0,0,0.0194046,0.493937,-1.01536,35.8125,1,31266,10428595
142,7,-0.655256,-0.0820917,9.78536,0.0287145,-0.610514,0.994058,-0.0065563,-0.000826692,0.0978533,1,2.80328e-05,-1.92691e-05,2.21003e-05,0.00560656,-0.00385382,0.00442005,0,0,0,0,0.0194046,0.493937,-1.01536,35.8125,1,31266,10428595
142,8,-0.652911,-0.0781692,9.79352,0.0340874,-0.6119,1.01091,-0.00653107,-0.000790957,0.097935,1,4.60037e-05,-1.01365e-05,1.94869e-05,0.00920073,-0.00202729,0.00389737,0,0,0,0,0.018989,0.49293,-1.01336,35.8125,1,31267,10428695
143,1,-0.652911,-0.0781692,9.79352,0.0340874,-0.6119,1.01091,-0.00653107,-0.000790957,0.097935,1,4.60037e-05,-1.01365e-05,1.94869e-05,0.00920073,-0.00202729,0.00389737,0,0,0,0,0.018989,0.49293,-1.01336,35.8125,1,31267,10428695
143,2,-0.655581,-0.073515,9.7929,0.0290633,-0.602768,1.00649,-0.00655951,-0.000742322,0.0979287,1,3.56045e-05,-1.90158e-05,1.52009e-05,0.00712089,-0.00380317,0.00304018,0,0,0,0,0.016637,0.493392,-1.01081,35.8125,1,31268,10428795
145,1,-0.655581,-0.073515,9.7929,0.0290633,-0.602768,1.00649,-0.00655951,-0.000742322,0.0979287,1,3.56045e-05,-1.90158e-05,1.52009e-05,0.00712089,-0.00380317,0.00304018,0,0,0,0,0.016637,0.493392,-1.01081,35.8125,1,31268,10428795
145,2,-0.65833,-0.0823233,9.79013,0.0256945,-0.611793,1.00767,-0.00658579,-0.000833148,0.097901,1,4.96992e-05,-1.28353e-05,1.39771e-05,0.00993984,-0.00256707,0.00279543,0,0,0,0,0.0190226,0.495314,-1.01028,35.8125,1,31269,10428895
145,3,-0.65833,-0.0823233,9.79013,0.0256945,-0.611793,1.00767,-0.00658579,-0.000833148,0.097901,1,4.96992e-05,-1.28353e-05,1.39771e-05,0.00993984,-0.00256707,0.00279543,0,0,0,0,0.0190226,0.495314,-1.01028,35.8125,1,31269,10428895
145,4,-0.651137,-0.0838657,9.7877,0.034744,-0.617853,1.0009,-0.0065149,-0.000843627,0.0978767,1,2.44138e-05,-1.81328e-05,1.46607e-05,0.00488276,-0.00362655,0.00293214,0,0,0,0,0.0213713,0.497264,-1.01125,35.8125,3,31270,10428995
146,1,-0.651137,-0.0838657,9.7877,0.034744,-0.617853,1.0009,-0.0065149,-0.000843627,0.0978767,1,2.44138e-05,-1.81328e-05,1.46607e-05,0.00488276,-0.00362655,0.00293214,0,0,0,0,0.0213713,0.497264,-1.01125,35.8125,3,31270,10428995
146,2,-0.663313,-0.0828467,9.79458,0.019782,-0.614873,1.01229,-0.00663687,-0.000834868,0.0979455,1,3.07691e-05,-1.9351e-05,2.81575e-05,0.00615382,-0.00387021,0.00563151,0,0,0,0,0.0204086,0.495826,-1.01229,35.8125,3,31271,10429095
146,3,-0.663313,-0.0828467,9.79458,0.019782,-0.614873,1.01229,-0.00663687,-0.000834868,0.0979455,1,3.07691e-05,-1.9351e-05,2.81575e-05,0.00615382,-0.00387021,0.00563151,0,0,0,0,0.0204086,0.495826,-1.01229,35.8125,3,31271,10429095
146,4,-0.6589,-0.0784944,9.78644,0.0235004,-0.611315,1.0008,-0.00659443,-0.000794786,0.097864,1,4.901e-05,-2.79265e-05,1.88666e-05,0.009802,-0.00558531,0.00377332,0,0,0,0,0.0189444,0.49489,-1.01382,35.8125,3,31272,10429195
147,1,-0.6589,-0.0784944,9.78644,0.0235004,-0.611315,1.0008,-0.00659443,-0.000794786,0.097864,1,4.901e-05,-2.79265e-05,1.88666e-05,0.009802,-0.00558531,0.00377332,0,0,0,0,0.0189444,0.49489,-1.01382,35.8125,3,31272,10429195
147,2,-0.655204,-0.0790549,9.79184,0.0264149,-0.615052,1.00431,-0.00655493,-0.000803484,0.0979181,1,6.55764e-05,-1.48061e-05,7.1204e-06,0.0131153,-0.00296122,0.00142408,0,0,0,0,0.0180315,0.494862,-1.0118,35.8125,3,31273,10429295
147,3,-0.655204,-0.0790549,9.79184,0.0264149,-0.615052,1.00431,-0.00655493,-0.000803484,0.0979181,1,6.55764e-05,-1.48061e-05,7.1204e-06,0.0131153,-0.00296122,0.00142408,0,0,0,0,0.0180315,0.494862,-1.0118,35.8125,3,31273,10429295
147,4,-0.66143,-0.0795708,9.79322,0.0219472,-0.61319,1.00859,-0.00661539,-0.000806911,0.0979321,1,5.69374e-05,-5.62909e-06,3.85907e-06,0.0113875,-0.00112582,0.000771814,0,0,0,0,0.0180438,0.494853,-1.01129,35.8125,3,31274,10429395
147,5,-0.66143,-0.0795708,9.79322,0.0219472,-0.61319,1.00859,-0.00661539,-0.000806911,0.0979321,1,5.69374e-05,-5.62909e-06,3.85907e-06,0.0113875,-0.00112582,0.000771814,0,0,0,0,0.0180438,0.494853,-1.01129,35.8125,3,31274,10429395
147,6,-0.663329,-0.0862883,9.79861,0.0248871,-0.622366,1.01583,-0.00663584,-0.000871747,0.0979858,1,4.31762e-05,-1.32807e-05,3.02901e-05,0.00863525,-0.00265614,0.00605802,0,0,0,0,0.0185496,0.494831,-1.01028,35.8125,3,31275,10429495
148,1,-0.663329,-0.0862883,9.79861,0.0248871,-0.622366,1.01583,-0.00663584,-0.000871747,0.0979858,1,4.31762e-05,-1.32807e-05,3.02901e-05,0.00863525,-0.00265614,0.00605802,0,0,0,0,0.0185496,0.494831,-1.01028,35.8125,3,31275,10429495
148,2,-0.65872,-0.0767087,9.7851,0.0285754,-0.616975,0.999647,-0.0065892,-0.000777705,0.0978507,1,5.34059e-05,-1.0302e-05,1.2593e-05,0.0106812,-0.0020604,0.0025186,0,0,0,0,0.0185292,0.495327,-1.01078,35.8125,3,31276,10429595
148,3,-0.65872,-0.0767087,9.7851,0.0285754,-0.616975,0.999647,-0.0065892,-0.000777705,0.0978507,1,5.34059e-05,-1.0302e-05,1.2593e-05,0.0106812,-0.0020604,0.0025186,0,0,0,0,0.0185292,0.495327,-1.01078,35.8125,3,31276,10429595
148,4,-0.652386,-0.0771091,9.78776,0.0360834,-0.613502,0.996493,-0.00652359,-0.000781304,0.0978775,1,5.15078e-05,1.27569e-06,9.96868e-06,0.0103016,0.000255139,0.00199374,0,0,0,0,0.0189444,0.49489,-1.01382,35.8125,3,31277,10429695
149,1,-0.652386,-0.0771091,9.78776,0.0360834,-0.613502,0.996493,-0.00652359,-0.000781304,0.0978775,1,5.15078e-05,1.27569e-06,9.96868e-06,0.0103016,0.000255139,0.00199374,0,0,0,0,0.0189444,0.49489,-1.01382,35.8125,3,31277,10429695
149,2,-0.659413,-0.0829358,9.78911,0.0300997,-0.623208,1.00215,-0.00659651,-0.000839283,0.0978909,1,4.9444e-05,-1.22947e-05,1.85727e-05,0.00988879,-0.00245894,0.00371454,0,0,0,0,0.0184348,0.495878,-1.0143,35.8125,3,31278,10429795
150,1,-0.659413,-0.0829358,9.78911,0.0300997,-0.623208,1.00215,-0.00659651,-0.000839283,0.0978909,1,4.9444e-05,-1.22947e-05,1.85727e-05,0.00988879,-0.00245894,0.00371454,0,0,0,0,0.0184348,0.495878,-1.0143,35.8125,3,31278,10429795
150,2,-0.642059,-0.0738984,9.79752,0.0429916,-0.614003,1.00986,-0.00642349,-0.000745657,0.097975,1,3.30135e-05,-1.49143e-05,1.58865e-05,0.00660269,-0.00298286,0.00317731,0,0,0,0,0.0184756,0.494885,-1.01331,35.875,3,31279,10429895
150,3,-0.642059,-0.0738984,9.79752,0.0429916,-0.614003,1.00986,-0.00642349,-0.000745657,0.097975,1,3.30135e-05,-1.49143e-05,1.58865e-05,0.00660269,-0.00298286,0.00317731,0,0,0,0,0.0184756,0.494885,-1.01331,35.875,3,31279,10429895
150,4,-0.656242,-0.0923798,9.79334,0.0336137,-0.627369,1.01049,-0.00656445,-0.000933184,0.0979332,1,4.64209e-05,-1.06114e-05,2.23554e-05,0.00928418,-0.00212228,0.00447109,0,0,0,0,0.0189894,0.494375,-1.01232,35.875,3,31280,10429995
151,1,-0.656242,-0.0923798,9.79334,0.0336137,-0.627369,1.01049,-0.00656445,-0.000933184,0.0979332,1,4.64209e-05,-1.06114e-05,2.23554e-05,0.00928418,-0.00212228,0.00447109,0,0,0,0,0.0189894,0.494375,-1.01232,35.875,3,31280,10429995
151,2,-0.656349,-0.0775894,9.79212,0.0319671,-0.618813,1.00472,-0.00656573,-0.000785529,0.0979209,1,4.86094e-05,-1.15133e-05,8.83268e-06,0.00972187,-0.00230266,0.00176654,0,0,0,0,0.0199806,0.494828,-1.0108,35.875,3,31281,10430095
152,1,-0.656349,-0.0775894,9.79212,0.0319671,-0.618813,1.00472,-0.00656573,-0.000785529,0.0979209,1,4.86094e-05,-1.15133e-05,8.83268e-06,0.00972187,-0.00230266,0.00176654,0,0,0,0,0.0199806,0.494828,-1.0108,35.875,3,31281,10430095
152,2,-0.65774,-0.0784862,9.78364,0.0273724,-0.616545,0.990931,-0.00658049,-0.00079651,0.0978361,1,5.8882e-05,-1.58992e-05,9.59259e-06,0.0117764,-0.00317985,0.00191852,0,0,0,0,0.018439,0.496357,-1.01379,35.875,3,31282,10430195
152,3,-0.65774,-0.0784862,9.78364,0.0273724,-0.616545,0.990931,-0.00658049,-0.00079651,0.0978361,1,5.8882e-05,-1.58992e-05,9.59259e-06,0.0117764,-0.00317985,0.00191852,0,0,0,0,0.018439,0.496357,-1.01379,35.875,3,31282,10430195
152,4,-0.659332,-0.0855211,9.788,0.0238828,-0.622668,0.999849,-0.00659708,-0.000864824,0.0978796,1,4.79166e-05,-1.93304e-05,1.76151e-05,0.00958331,-0.00386608,0.00352303,0,0,0,0,0.0193723,0.495888,-1.01531,35.875,3,31283,10430295
152,5,-0.659332,-0.0855211,9.788,0.0238828,-0.622668,0.999849,-0.00659708,-0.000864824,0.0978796,1,4.79166e-05,-1.93304e-05,1.76151e-05,0.00958331,-0.00386608,0.00352303,0,0,0,0,0.0193723,0.495888,-1.01531,35.875,3,31283,10430295
152,6,-0.661783,-0.0859436,9.80024,0.0232314,-0.626556,1.01367,-0.00662329,-0.000869529,0.0980019,1,4.97962e-05,-2.80923e-05,2.50839e-05,0.00995924,-0.00561847,0.00501677,0,0,0,0,0.0198534,0.495884,-1.01532,35.875,3,31284,10430395
153,1,-0.661783,-0.0859436,9.80024,0.0232314,-0.626556,1.01367,-0.00662329,-0.000869529,0.0980019,1,4.97962e-05,-2.80923e-05,2.50839e-05,0.00995924,-0.00561847,0.00501677,0,0,0,0,0.0198534,0.495884,-1.01532,35.875,3,31284,10430395
153,2,-0.655386,-0.07676,9.7955,0.0318785,-0.61979,1.01153,-0.00655472,-0.000775709,0.0979549,1,4.06169e-05,-4.4553e-06,1.16005e-05,0.00812337,-0.00089106,0.0023201,0,0,0,0,0.0179902,0.49441,-1.01383,35.875,3,31285,10430495
153,3,-0.655386,-0.07676,9.7955,0.0318785,-0.61979,1.01153,-0.00655472,-0.000775709,0.0979549,1,4.06169e-05,-4.4553e-06,1.16005e-05,0.00812337,-0.00089106,0.0023201,0,0,0,0,0.0179902,0.49441,-1.01383,35.875,3,31285,10430495
153,4,-0.64712,-0.084049,9.79437,0.0386652,-0.630145,1.01176,-0.00647339,-0.000850708,0.0979435,1,5.13196e-05,-1.12687e-05,1.2748e-05,0.0102639,-0.00225374,0.0025496,0,0,0,0,0.0170892,0.492928,-1.01234,35.875,3,31286,10430595
153,5,-0.64712,-0.084049,9.79437,0.0386652,-0.630145,1.01176,-0.00647339,-0.000850708,0.0979435,1,5.13196e-05,-1.12687e-05,1.2748e-05,0.0102639,-0.00225374,0.0025496,0,0,0,0,0.0170892,0.492928,-1.01234,35.875,3,31286,10430595
153,6,-0.654792,-0.0748866,9.78093,0.0331401,-0.618496,0.993173,-0.00654988,-0.000755393,0.0978092,1,3.30563e-05,-1.00621e-05,4.63806e-06,0.00661127,-0.00201242,0.000927611,0,0,0,0,0.0190426,0.493372,-1.01082,35.875,3,31287,10430695
154,1,-0.654792,-0.0748866,9.78093,0.0331401,-0.618496,0.993173,-0.00654988,-0.000755393,0.0978092,1,3.30563e-05,-1.00621e-05,4.63806e-06,0.00661127,-0.00201242,0.000927611,0,0,0,0,0.0190426,0.493372,-1.01082,35.875,3,31287,10430695
154,2,-0.663044,-0.0853394,9.79583,0.0243737,-0.627795,1.00744,-0.00663317,-0.000861741,0.097958,1,4.11272e-05,-1.4132e-05,2.18581e-05,0.00822544,-0.00282639,0.00437162,0,0,0,0,0.0199398,0.495821,-1.01178,35.875,3,31288,10430795
154,3,-0.663044,-0.0853394,9.79583,0.0243737,-0.627795,1.00744,-0.00663317,-0.000861741,0.097958,1,4.11272e-05,-1.4132e-05,2.18581e-05,0.00822544,-0.00282639,0.00437162,0,0,0,0,0.0199398,0.495821,-1.01178,35.875,3,31288,10430795
154,4,-0.655186,-0.0845341,9.7968,0.0304152,-0.626965,1.00875,-0.0065551,-0.000855578,0.0979677,1,5.10422e-05,-1.67133e-05,1.80246e-05,0.0102084,-0.00334266,0.00360492,0,0,0,0,0.0194051,0.495383,-1.01432,35.875,3,31289,10430895
155,1,-0.655186,-0.0845341,9.7968,0.0304152,-0.626965,1.00875,-0.0065551,-0.000855578,0.0979677,1,5.10422e-05,-1.67133e-05,1.80246e-05,0.0102084,-0.00334266,0.00360492,0,0,0,0,0.0194051,0.495383,-1.01432,35.875,3,31289,10430895
155,2,-0.663025,-0.0862486,9.79209,0.0265388,-0.631559,1.00543,-0.0066349,-0.000871204,0.0979205,1,4.40552e-05,-2.38345e-05,6.8009e-06,0.00881104,-0.0047669,0.00136018,0,0,0,0,0.0179693,0.493462,-1.01536,35.875,3,31290,10430995
156,1,-0.663025,-0.0862486,9.79209,0.0265388,-0.631559,1.00543,-0.0066349,-0.000871204,0.0979205,1,4.40552e-05,-2.38345e-05,6.8009e-06,0.00881104,-0.0047669,0.00136018,0,0,0,0,0.0179693,0.493462,-1.01536,35.875,3,31290,10430995
156,2,-0.659088,-0.0878586,9.78899,0.024595,-0.630629,1.00099,-0.00659122,-0.000888554,0.0978898,1,5.07143e-05,-1.7546e-06,3.00423e-06,0.0101429,-0.00035092,0.000600845,0,0,0,0,0.0184836,0.494397,-1.01332,35.875,3,31291,10431095
157,1,-0.659088,-0.0878586,9.78899,0.024595,-0.630629,1.00099,-0.00659122,-0.000888554,0.0978898,1,5.07143e-05,-1.7546e-06,3.00423e-06,0.0101429,-0.00035092,0.000600845,0,0,0,0,0.0184836,0.494397,-1.01332,35.875,3,31291,10431095
157,2,-0.642446,-0.0775576,9.79134,0.0456969,-0.623484,1.00845,-0.00642674,-0.00078451,0.0979132,1,4.4953e-05,-1.17031e-05,1.02241e-05,0.00899061,-0.00234061,0.00204483,0,0,0,0,0.0189899,0.49582,-1.01127,35.875,3,31292,10431195
157,3,-0.642446,-0.0775576,9.79134,0.0456969,-0.623484,1.00845,-0.00642674,-0.00078451,0.0979132,1,4.4953e-05,-1.17031e-05,1.02241e-05,0.00899061,-0.00234061,0.00204483,0,0,0,0,0.0189899,0.49582,-1.01127,35.875,3,31292,10431195
157,4,-0.646185,-0.0743692,9.78665,0.0417795,-0.62124,0.998719,-0.00646443,-0.000754946,0.0978662,1,5.59223e-05,-1.33905e-05,2.3851e-05,0.0111845,-0.00267809,0.0047702,0,0,0,0,0.018533,0.494361,-1.0113,35.875,3,31293,10431295
158,1,-0.646185,-0.0743692,9.78665,0.0417795,-0.62124,0.998719,-0.00646443,-0.000754946,0.0978662,1,5.59223e-05,-1.33905e-05,2.3851e-05,0.0111845,-0.00267809,0.0047702,0,0,0,0,0.018533,0.494361,-1.0113,35.875,3,31293,10431295
158,2,-0.657963,-0.0861088,9.78765,0.0262631,-0.629155,0.998642,-0.00658326,-0.000872715,0.0978761,1,5.82859e-05,-1.86918e-05,1.6531e-05,0.0116572,-0.00373836,0.00330619,0,0,0,0,0.0184718,0.495851,-1.01279,35.875,3,31294,10431395
159,1,-0.657963,-0.0861088,9.78765,0.0262631,-0.629155,0.998642,-0.00658326,-0.000872715,0.0978761,1,5.82859e-05,-1.86918e-05,1.6531e-05,0.0116572,-0.00373836,0.00330619,0,0,0,0,0.0184718,0.495851,-1.01279,35.875,3,31294,10431395
159,2,-0.657259,-0.081423,9.80159,0.0317077,-0.626542,1.01444,-0.006575,-0.000824445,0.0980157,1,5.09099e-05,-1.24273e-05,1.78943e-05,0.010182,-0.00248547,0.00357887,0,0,0,0,0.0199108,0.495361,-1.01331,35.875,3,31295,10431495
159,3,-0.657259,-0.081423,9.80159,0.0317077,-0.626542,1.01444,-0.006575,-0.000824445,0.0980157,1,5.09099e-05,-1.24273e-05,1.78943e-05,0.010182,-0.00248547,0.00357887,0,0,0,0,0.0199108,0.495361,-1.01331,35.875,3,31295,10431495
159,4,-0.654745,-0.07,9.79115,0.0317885,-0.616541,1.00142,-0.00654968,-0.000711378,0.0979113,1,5.71123e-05,-1.14835e-05,1.47783e-05,0.0114225,-0.00229669,0.00295566,0,0,0,0,0.0194255,0.494886,-1.01382,35.875,3,31296,10431595
159,5,-0.654745,-0.07,9.79115,0.0317885,-0.616541,1.00142,-0.00654968,-0.000711378,0.0979113,1,5.71123e-05,-1.14835e-05,1.47783e-05,0.0114225,-0.00229669,0.00295566,0,0,0,0,0.0194255,0.494886,-1.01382,35.875,3,31296,10431595
159,6,-0.65411,-0.075625,9.78194,0.0329617,-0.630732,0.995366,-0.00654325,-0.000764375,0.0978192,1,4.04846e-05,-1.11181e-05,1.56444e-05,0.00809691,-0.00222362,0.00312889,0,0,0,0,0.0189728,0.493905,-1.01334,35.875,3,31297,10431695
160,1,-0.65411,-0.075625,9.78194,0.0329617,-0.630732,0.995366,-0.00654325,-0.000764375,0.0978192,1,4.04846e-05,-1.11181e-05,1.56444e-05,0.00809691,-0.00222362,0.00312889,0,0,0,0,0.0189728,0.493905,-1.01334,35.875,3,31297,10431695
160,2,-0.649894,-0.0684174,9.78978,0.0319671,-0.615503,0.999546,-0.00650355,-0.000693029,0.0978975,1,4.5618e-05,-2.34583e-05,-5.91582e-06,0.00912359,-0.00469166,-0.00118316,0,0,0,0,0.0184879,0.494876,-1.01281,35.875,3,31298,10431795
161,1,-0.649894,-0.0684174,9.78978,0.0319671,-0.615503,0.999546,-0.00650355,-0.000693029,0.0978975,1,4.5618e-05,-2.34583e-05,-5.91582e-06,0.00912359,-0.00469166,-0.00118316,0,0,0,0,0.0184879,0.494876,-1.01281,35.875,3,31298,10431795
161,2,-0.662432,-0.0740044,9.79423,0.0263898,-0.619794,1.007,-0.0066269,-0.000748388,0.097942,1,4.19226e-05,-1.32565e-05,9.98916e-06,0.00838451,-0.00265131,0.00199783,0,0,0,0,0.0189814,0.494863,-1.01231,35.875,3,31299,10431895
161,3,-0.662432,-0.0740044,9.79423,0.0263898,-0.619794,1.007,-0.0066269,-0.000748388,0.097942,1,4.19226e-05,-1.32565e-05,9.98916e-06,0.00838451,-0.00265131,0.00199783,0,0,0,0,0.0189814,0.494863,-1.01231,35.875,3,31299,10431895
161,4,-0.66203,-0.0784629,9.79487,0.0248136,-0.626422,1.009,-0.00662454,-0.000793665,0.0979483,1,4.45005e-05,-2.18022e-05,2.40803e-05,0.0089001,-0.00436045,0.00481605,0,0,0,0,0.0184186,0.496854,-1.01428,35.875,3,31300,10431995
161,5,-0.66203,-0.0784629,9.79487,0.0248136,-0.626422,1.009,-0.00662454,-0.000793665,0.0979483,1,4.45005e-05,-2.18022e-05,2.40803e-05,0.0089001,-0.00436045,0.00481605,0,0,0,0,0.0184186,0.496854,-1.01428,35.875,3,31300,10431995
161,6,-0.648593,-0.0706559,9.78805,0.0402868,-0.621208,0.997468,-0.00648872,-0.000716891,0.0978803,1,5.20274e-05,-1.43369e-05,1.13211e-05,0.0104055,-0.00286739,0.00226422,0,0,0,0,0.0193604,0.497343,-1.01478,35.875,3,31301,10432095
162,1,-0.648593,-0.0706559,9.78805,0.0402868,-0.621208,0.997468,-0.00648872,-0.000716891,0.0978803,1,5.20274e-05,-1.43369e-05,1.13211e-05,0.0104055,-0.00286739,0.00226422,0,0,0,0,0.0193604,0.497343,-1.01478,35.875,3,31301,10432095
162,2,-0.665146,-0.0802184,9.79554,0.0178977,-0.632293,1.00987,-0.00665399,-0.000809761,0.0979552,1,3.74747e-05,-1.30829e-05,1.77045e-05,0.00749494,-0.00261658,0.00354089,0,0,0,0,0.0184305,0.4954,-1.01482,35.875,3,31302,10432195
162,3,-0.665146,-0.0802184,9.79554,0.0178977,-0.632293,1.00987,-0.00665399,-0.000809761,0.0979552,1,3.74747e-05,-1.30829e-05,1.77045e-05,0.00749494,-0.00261658,0.00354089,0,0,0,0,0.0184305,0.4954,-1.01482,35.875,3,31302,10432195
162,4,-0.647335,-0.0787957,9.78084,0.035984,-0.636032,0.996939,-0.00647391,-0.000798776,0.0978083,1,5.36647e-05,-3.04552e-06,2.48402e-05,0.0107329,-0.000609104,0.00496804,0,0,0,0,0.017994,0.493444,-1.01435,35.875,3,31303,10432295
162,5,-0.647335,-0.0787957,9.78084,0.035984,-0.636032,0.996939,-0.00647391,-0.000798776,0.0978083,1,5.36647e-05,-3.04552e-06,2.48402e-05,0.0107329,-0.000609104,0.00496804,0,0,0,0,0.017994,0.493444,-1.01435,35.875,3,31303,10432295
162,6,-0.645017,-0.0872818,9.78925,0.0416526,-0.639432,1.00503,-0.00645234,-0.000879878,0.0978923,1,3.49545e-05,-1.12393e-05,1.68119e-05,0.0069909,-0.00224787,0.00336238,0,0,0,0,0.0175295,0.493917,-1.01333,35.875,3,31304,10432395
163,1,-0.645017,-0.0872818,9.78925,0.0416526,-0.639432,1.00503,-0.00645234,-0.000879878,0.0978923,1,3.49545e-05,-1.12393e-05,1.68119e-05,0.0069909,-0.00224787,0.00336238,0,0,0,0,0.0175295,0.493917,-1.01333,35.875,3,31304,10432395
163,2,-0.659902,-0.0770323,9.79112,0.0306713,-0.62926,1.00784,-0.00659987,-0.00077925,0.097911,1,4.45022e-05,-4.44615e-06,1.60991e-05,0.00890044,-0.000889229,0.00321982,0,0,0,0,0.016572,0.495849,-1.01177,35.875,3,31305,10432495
164,1,-0.659902,-0.0770323,9.79112,0.0306713,-0.62926,1.00784,-0.00659987,-0.00077925,0.097911,1,4.45022e-05,-4.44615e-06,1.60991e-05,0.00890044,-0.000889229,0.00321982,0,0,0,0,0.016572,0.495849,-1.01177,35.875,3,31305,10432495
164,2,-0.653942,-0.0793793,9.787,0.0357052,-0.627539,0.997627,-0.00654306,-0.000802054,0.0978697,1,4.03691e-05,-1.87737e-05,2.74684e-05,0.00807381,-0.00375473,0.00549369,0,0,0,0,0.0175261,0.496329,-1.01176,35.875,3,31306,10432595
164,3,-0.653942,-0.0793793,9.787,0.0357052,-0.627539,0.997627,-0.00654306,-0.000802054,0.0978697,1,4.03691e-05,-1.87737e-05,2.74684e-05,0.00807381,-0.00375473,0.00549369,0,0,0,0,0.0175261,0.496329,-1.01176,35.875,3,31306,10432595
164,4,-0.655398,-0.0842829,9.79272,0.0358565,-0.638751,1.0045,-0.00655468,-0.000855001,0.0979271,1,6.16498e-05,-3.63404e-06,7.44715e-06,0.01233,-0.000726808,0.00148943,0,0,0,0,0.018969,0.494872,-1.01281,35.875,3,31307,10432695
165,1,-0.655398,-0.0842829,9.79272,0.0358565,-0.638751,1.0045,-0.00655468,-0.000855001,0.0979271,1,6.16498e-05,-3.63404e-06,7.44715e-06,0.01233,-0.000726808,0.00148943,0,0,0,0,0.018969,0.494872,-1.01281,35.875,3,31307,10432695
165,2,-0.658701,-0.0844822,9.78597,0.0290618,-0.638715,0.997439,-0.00658999,-0.000853635,0.0978594,1,4.38225e-05,-1.53814e-05,1.79038e-05,0.00876451,-0.00307628,0.00358076,0,0,0,0,0.017966,0.495873,-1.01379,35.875,3,31308,10432795
165,3,-0.658701,-0.0844822,9.78597,0.0290618,-0.638715,0.997439,-0.00658999,-0.000853635,0.0978594,1,4.38225e-05,-1.53814e-05,1.79038e-05,0.00876451,-0.00307628,0.00358076,0,0,0,0,0.017966,0.495873,-1.01379,35.875,3,31308,10432795
165,4,-0.658683,-0.0784162,9.79755,0.0294754,-0.632608,1.01309,-0.00658967,-0.000794121,0.0979752,1,4.97326e-05,-1.46144e-05,1.62552e-05,0.00994653,-0.00292288,0.00325105,0,0,0,0,0.0184514,0.496348,-1.01328,35.875,3,31309,10432895
166,1,-0.658683,-0.0784162,9.79755,0.0294754,-0.632608,1.01309,-0.00658967,-0.000794121,0.0979752,1,4.97326e-05,-1.46144e-05,1.62552e-05,0.00994653,-0.00292288,0.00325105,0,0,0,0,0.0184514,0.496348,-1.01328,35.875,3,31309,10432895
166,2,-0.659515,-0.0769852,9.78638,0.0298801,-0.635045,0.99485,-0.00659633,-0.000778535,0.0978636,1,4.3856e-05,-6.1074e-06,7.57162e-06,0.00877121,-0.00122148,0.00151432,0,0,0,0,0.0184756,0.494885,-1.01331,35.875,3,31310,10432995
166,3,-0.659515,-0.0769852,9.78638,0.0298801,-0.635045,0.99485,-0.00659633,-0.000778535,0.0978636,1,4.3856e-05,-6.1074e-06,7.57162e-06,0.00877121,-0.00122148,0.00151432,0,0,0,0,0.0184756,0.494885,-1.01331,35.875,3,31310,10432995
166,4,-0.655306,-0.079638,9.78056,0.034565,-0.634855,0.992213,-0.00655673,-0.000804635,0.0978053,1,4.07082e-05,-1.89877e-05,2.23107e-05,0.00814164,-0.00379755,0.00446214,0,0,0,0,0.0195114,0.493377,-1.01133,35.875,3,31311,10433095
166,5,-0.655306,-0.079638,9.78056,0.034565,-0.634855,0.992213,-0.00655673,-0.000804635,0.0978053,1,4.07082e-05,-1.89877e-05,2.23107e-05,0.00814164,-0.00379755,0.00446214,0,0,0,0,0.0195114,0.493377,-1.01133,35.875,3,31311,10433095
166,6,-0.649828,-0.0792449,9.78935,0.036728,-0.635171,0.998592,-0.00650168,-0.000801453,0.0978932,1,4.45155e-05,-1.75962e-05,2.21412e-05,0.00890309,-0.00351924,0.00442824,0,0,0,0,0.0194833,0.495807,-1.01077,35.875,3,31312,10433195
166,7,-0.649828,-0.0792449,9.78935,0.036728,-0.635171,0.998592,-0.00650168,-0.000801453,0.0978932,1,4.45155e-05,-1.75962e-05,2.21412e-05,0.00890309,-0.00351924,0.00442824,0,0,0,0,0.0194833,0.495807,-1.01077,35.875,3,31312,10433195
166,8,-0.647155,-0.0813039,9.78761,0.0399833,-0.632178,1.00033,-0.00647551,-0.000821921,0.0978758,1,4.46345e-05,-2.03718e-05,1.11538e-05,0.0089269,-0.00407437,0.00223076,0,0,0,0,0.0194179,0.496819,-1.01277,35.875,3,31313,10433295
167,1,-0.647155,-0.0813039,9.78761,0.0399833,-0.632178,1.00033,-0.00647551,-0.000821921,0.0978758,1,4.46345e-05,-2.03718e-05,1.11538e-05,0.0089269,-0.00407437,0.00223076,0,0,0,0,0.0194179,0.496819,-1.01277,35.875,3,31313,10433295
167,2,-0.662513,-0.0812561,9.79246,0.0255619,-0.636864,1.00291,-0.00662526,-0.000819542,0.0979245,1,3.44907e-05,-7.95331e-07,1.70523e-05,0.00689814,-0.000159066,0.00341047,0,0,0,0,0.0193761,0.494922,-1.01584,35.875,3,31314,10433395
167,3,-0.662513,-0.0812561,9.79246,0.0255619,-0.636864,1.00291,-0.00662526,-0.000819542,0.0979245,1,3.44907e-05,-7.95331e-07,1.70523e-05,0.00689814,-0.000159066,0.00341047,0,0,0,0,0.0193761,0.494922,-1.01584,35.875,3,31314,10433395
167,4,-0.648992,-0.0837067,9.79474,0.0402843,-0.642142,1.00763,-0.00649488,-0.00084653,0.097947,1,4.67766e-05,-2.55145e-05,2.30633e-05,0.00935532,-0.00510291,0.00461266,0,0,0,0,0.0184913,0.492464,-1.01438,35.875,3,31315,10433495
168,1,-0.648992,-0.0837067,9.79474,0.0402843,-0.642142,1.00763,-0.00649488,-0.00084653,0.097947,1,4.67766e-05,-2.55145e-05,2.30633e-05,0.00935532,-0.00510291,0.00461266,0,0,0,0,0.0184913,0.492464,-1.01438,35.875,3,31315,10433495
168,2,-0.654496,-0.0885621,9.79608,0.0351097,-0.643906,1.01217,-0.00654968,-0.000896912,0.0979604,1,5.63429e-05,-2.42967e-05,1.92825e-05,0.0112686,-0.00485933,0.00385649,0,0,0,0,0.0180761,0.492902,-1.01133,35.875,3,31316,10433595
168,3,-0.654496,-0.0885621,9.79608,0.0351097,-0.643906,1.01217,-0.00654968,-0.000896912,0.0979604,1,5.63429e-05,-2.42967e-05,1.92825e-05,0.0112686,-0.00485933,0.00385649,0,0,0,0,0.0180761,0.492902,-1.01133,35.875,3,31316,10433595
168,4,-0.656783,-0.084966,9.78425,0.0292668,-0.641139,0.994819,-0.0065682,-0.000861687,0.0978424,1,6.04149e-05,-2.06946e-06,1.55735e-05,0.012083,-0.000413892,0.0031147,0,0,0,0,0.0190549,0.493363,-1.01032,35.875,3,31317,10433695
168,5,-0.656783,-0.084966,9.78425,0.0292668,-0.641139,0.994819,-0.0065682,-0.000861687,0.0978424,1,6.04149e-05,-2.06946e-06,1.55735e-05,0.012083,-0.000413892,0.0031147,0,0,0,0,0.0190549,0.493363,-1.01032,35.875,3,31317,10433695
168,6,-0.651696,-0.0847964,9.79407,0.0355598,-0.643662,1.00883,-0.00652304,-0.000857602,0.0979402,1,4.74136e-05,-3.12794e-05,2.68669e-05,0.00948272,-0.00625588,0.00537338,0,0,0,0,0.0185287,0.493882,-1.01182,35.875,3,31318,10433795
168,7,-0.651696,-0.0847964,9.79407,0.0355598,-0.643662,1.00883,-0.00652304,-0.000857602,0.0979402,1,4.74136e-05,-3.12794e-05,2.68669e-05,0.00948272,-0.00625588,0.00537338,0,0,0,0,0.0185287,0.493882,-1.01182,35.875,3,31318,10433795
168,8,-0.664044,-0.0843268,9.79449,0.0225143,-0.639201,1.00287,-0.00664488,-0.000851294,0.0979445,1,4.05313e-05,-2.27277e-05,6.48966e-06,0.00810626,-0.00454554,0.00129793,0,0,0,0,0.0194174,0.495374,-1.01381,35.875,3,31319,10433895
168,9,-0.664044,-0.0843268,9.79449,0.0225143,-0.639201,1.00287,-0.00664488,-0.000851294,0.0979445,1,4.05313e-05,-2.27277e-05,6.48966e-06,0.00810626,-0.00454554,0.00129793,0,0,0,0,0.0194174,0.495374,-1.01381,35.875,3,31319,10433895
168,10,-0.648118,-0.0732857,9.8016,0.0413353,-0.629726,1.01471,-0.00648549,-0.000741079,0.0980157,1,4.06224e-05,-2.21486e-05,1.99938e-05,0.00812447,-0.00442973,0.00399876,0,0,0,0,0.0183816,0.496881,-1.01579,35.875,3,31320,10433995
169,1,-0.648118,-0.0732857,9.8016,0.0413353,-0.629726,1.01471,-0.00648549,-0.000741079,0.0980157,1,4.06224e-05,-2.21486e-05,1.99938e-05,0.00812447,-0.00442973,0.00399876,0,0,0,0,0.0183816,0.496881,-1.01579,35.875,3,31320,10433995
169,2,-0.656192,-0.0928726,9.79266,0.030334,-0.654978,1.00373,-0.0065654,-0.000937566,0.0979263,1,4.35988e-05,-1.80067e-05,2.28806e-05,0.00871976,-0.00360133,0.00457612,0,0,0,0,0.0203839,0.495844,-1.0133,35.875,3,31321,10434095
169,3,-0.656192,-0.0928726,9.79266,0.030334,-0.654978,1.00373,-0.0065654,-0.000937566,0.0979263,1,4.35988e-05,-1.80067e-05,2.28806e-05,0.00871976,-0.00360133,0.00457612,0,0,0,0,0.0203839,0.495844,-1.0133,35.875,3,31321,10434095
169,4,-0.659751,-0.0854341,9.78834,0.0235073,-0.645391,1.00261,-0.00659816,-0.000864129,0.0978832,1,4.89467e-05,-3.43094e-06,1.55993e-05,0.00978934,-0.000686187,0.00311987,0,0,0,0,0.020437,0.494842,-1.01181,35.875,3,31322,10434195
170,1,-0.659751,-0.0854341,9.78834,0.0235073,-0.645391,1.00261,-0.00659816,-0.000864129,0.0978832,1,4.89467e-05,-3.43094e-06,1.55993e-05,0.00978934,-0.000686187,0.00311987,0,0,0,0,0.020437,0.494842,-1.01181,35.875,3,31322,10434195
170,2,-0.660655,-0.0750434,9.77452,0.0242248,-0.633329,0.989571,-0.00660718,-0.000762327,0.0977451,1,5.94761e-05,-3.38066e-06,2.00662e-05,0.0118952,-0.000676133,0.00401325,0,0,0,0,0.0185164,0.493891,-1.01232,35.875,3,31323,10434295
170,3,-0.660655,-0.0750434,9.77452,0.0242248,-0.633329,0.989571,-0.00660718,-0.000762327,0.0977451,1,5.94761e-05,-3.38066e-06,2.00662e-05,0.0118952,-0.000676133,0.00401325,0,0,0,0,0.0185164,0.493891,-1.01232,35.875,3,31323,10434295
170,4,-0.659713,-0.084807,9.79173,0.0256494,-0.6461,1.00366,-0.00659952,-0.000857613,0.0979171,1,4.68884e-05,-1.24179e-05,2.734e-05,0.00937768,-0.00248357,0.00546801,0,0,0,0,0.0199479,0.495333,-1.01179,35.875,3,31324,10434395
171,1,-0.659713,-0.084807,9.79173,0.0256494,-0.6461,1.00366,-0.00659952,-0.000857613,0.0979171,1,4.68884e-05,-1.24179e-05,2.734e-05,0.00937768,-0.00248357,0.00546801,0,0,0,0,0.0199479,0.495333,-1.01179,35.875,3,31324,10434395
171,2,-0.655344,-0.0828447,9.78664,0.0277658,-0.646804,0.998068,-0.00655525,-0.000837146,0.0978662,1,4.28465e-05,-9.4271e-06,2.38399e-05,0.00856929,-0.00188542,0.00476797,0,0,0,0,0.0208816,0.49631,-1.01228,35.875,3,31325,10434495
171,3,-0.655344,-0.0828447,9.78664,0.0277658,-0.646804,0.998068,-0.00655525,-0.000837146,0.0978662,1,4.28465e-05,-9.4271e-06,2.38399e-05,0.00856929,-0.00188542,0.00476797,0,0,0,0,0.0208816,0.49631,-1.01228,35.875,3,31325,10434495
171,4,-0.652658,-0.0760971,9.78837,0.0286439,-0.636837,0.999036,-0.00652959,-0.000772619,0.0978834,1,5.76338e-05,-1.55848e-05,2.7925e-05,0.0115268,-0.00311697,0.005585,0,0,0,0,0.0193889,0.496358,-1.01429,35.875,3,31326,10434595
171,5,-0.652658,-0.0760971,9.78837,0.0286439,-0.636837,0.999036,-0.00652959,-0.000772619,0.0978834,1,5.76338e-05,-1.55848e-05,2.7925e-05,0.0115268,-0.00311697,0.005585,0,0,0,0,0.0193889,0.496358,-1.01429,35.875,3,31326,10434595
171,6,-0.661583,-0.0921949,9.7978,0.0226201,-0.653606,1.01006,-0.0066197,-0.000931463,0.0979776,1,4.71099e-05,-1.9914e-05,2.1383e-05,0.00942197,-0.00398281,0.00427661,0,0,0,0,0.0199023,0.494403,-1.01434,35.875,3,31327,10434695
171,7,-0.661583,-0.0921949,9.7978,0.0226201,-0.653606,1.01006,-0.0066197,-0.000931463,0.0979776,1,4.71099e-05,-1.9914e-05,2.1383e-05,0.00942197,-0.00398281,0.00427661,0,0,0,0,0.0199023,0.494403,-1.01434,35.875,3,31327,10434695
171,8,-0.654959,-0.0796818,9.78972,0.0327163,-0.641287,0.999317,-0.00655095,-0.000807072,0.097897,1,5.09324e-05,-7.09718e-06,2.14554e-05,0.0101865,-0.00141944,0.00429107,0,0,0,0,0.0189894,0.494375,-1.01232,35.875,3,31328,10434795
172,1,-0.654959,-0.0796818,9.78972,0.0327163,-0.641287,0.999317,-0.00655095,-0.000807072,0.097897,1,5.09324e-05,-7.09718e-06,2.14554e-05,0.0101865,-0.00141944,0.00429107,0,0,0,0,0.0189894,0.494375,-1.01232,35.875,3,31328,10434795
172,2,-0.66316,-0.0732003,9.7905,0.0237227,-0.638095,1.00603,-0.00663548,-0.000741805,0.0979047,1,4.93917e-05,-1.99267e-05,9.83314e-06,0.00987834,-0.00398534,0.00196663,0,0,0,0,0.0199806,0.494828,-1.0108,35.875,3,31329,10434895
172,3,-0.66316,-0.0732003,9.7905,0.0237227,-0.638095,1.00603,-0.00663548,-0.000741805,0.0979047,1,4.93917e-05,-1.99267e-05,9.83314e-06,0.00987834,-0.00398534,0.00196663,0,0,0,0,0.0199806,0.494828,-1.0108,35.875,3,31329,10434895
172,4,-0.661672,-0.0836517,9.80634,0.0237666,-0.648427,1.015,-0.00661926,-0.000845798,0.0980632,1,4.58881e-05,-1.31167e-05,2.12678e-05,0.00917762,-0.00262333,0.00425356,0,0,0,0,0.0199313,0.494864,-1.01281,35.875,3,31330,10434995
