frame_id,imu_idx,accel_x,accel_y,accel_z,free_accel_x,free_accel_y,free_accel_z,delta_v_x,delta_v_y,delta_v_z,delta_q_w,delta_q_x,delta_q_y,delta_q_z,rate_x,rate_y,rate_z,quat_w,quat_x,quat_y,quat_z,mag_x,mag_y,mag_z,temperature,status_byte,packet_counter,time_fine
1,1,-0.705856,-0.0407664,9.78724,-0.219149,-1.85694,0.956429,-0.00706202,-0.000416009,0.0978722,1,4.14663e-05,-1.77303e-05,1.61807e-05,0.00829327,-0.00354607,0.00323614,0,0,0,0,0.0434505,0.320137,-1.15873,33.375,3,44593,37425286
1,2,-0.523053,-0.0405805,7.33175,-0.219149,-1.85694,0.956429,-0.00523041,-0.000410895,0.0733175,1,3.44143e-05,7.8957e-07,4.15173e-06,0.00688285,0.000157914,0.000830346,0,0,0,0,0.0627737,0.515211,-0.997409,34.125,1,49902,44511264
2,1,-0.523053,-0.0405805,7.33175,-0.219149,-1.85694,0.956429,-0.00523041,-0.000410895,0.0733175,1,3.44143e-05,7.8957e-07,4.15173e-06,0.00688285,0.000157914,0.000830346,0,0,0,0,0.0627737,0.515211,-0.997409,34.125,1,49902,44511264
2,2,-0.684931,-0.0743304,9.78763,0.092594,-0.5247,1.001,-0.00685184,-0.000752267,0.097876,1,4.50164e-05,-1.30181e-05,1.10605e-05,0.00900327,-0.00260363,0.0022121,0,0,0,0,0.0619178,0.513214,-0.994419,34.125,1,49903,44511364
3,1,-0.684931,-0.0743304,9.78763,0.092594,-0.5247,1.001,-0.00685184,-0.000752267,0.097876,1,4.50164e-05,-1.30181e-05,1.10605e-05,0.00900327,-0.00260363,0.0022121,0,0,0,0,0.0619178,0.513214,-0.994419,34.125,1,49903,44511364
3,2,-0.683485,-0.0703017,9.7795,0.0932175,-0.520845,0.996408,-0.0068341,-0.000710041,0.097795,1,3.46135e-05,3.68988e-06,1.85557e-05,0.0069227,0.000737975,0.00371115,0,0,0,0,0.0610865,0.511199,-0.990419,34.125,1,49904,44511464
4,1,-0.683485,-0.0703017,9.7795,0.0932175,-0.520845,0.996408,-0.0068341,-0.000710041,0.097795,1,3.46135e-05,3.68988e-06,1.85557e-05,0.0069227,0.000737975,0.00371115,0,0,0,0,0.0610865,0.511199,-0.990419,34.125,1,49904,44511464
4,2,-0.679526,-0.0763227,9.78384,0.0988627,-0.526355,0.988189,-0.0067965,-0.000773335,0.0978382,1,5.09676e-05,-6.43368e-06,9.92773e-06,0.0101935,-0.00128674,0.00198555,0,0,0,0,0.0640677,0.510624,-0.98691,34.125,1,49905,44511564
7,1,-0.679526,-0.0763227,9.78384,0.0988627,-0.526355,0.988189,-0.0067965,-0.000773335,0.0978382,1,5.09676e-05,-6.43368e-06,9.92773e-06,0.0101935,-0.00128674,0.00198555,0,0,0,0,0.0640677,0.510624,-0.98691,34.125,1,49905,44511564
7,2,-0.682277,-0.0701913,9.79001,0.0928116,-0.518233,0.99301,-0.00682439,-0.000711975,0.0978999,1,4.92855e-05,-8.4827e-06,3.02104e-05,0.0098571,-0.00169654,0.00604208,0,0,0,0,0.0654503,0.513548,-0.987357,34.125,1,49906,44511664
8,1,-0.682277,-0.0701913,9.79001,0.0928116,-0.518233,0.99301,-0.00682439,-0.000711975,0.0978999,1,4.92855e-05,-8.4827e-06,3.02104e-05,0.0098571,-0.00169654,0.00604208,0,0,0,0,0.0654503,0.513548,-0.987357,34.125,1,49906,44511664
8,2,-0.675418,-0.0794156,9.78413,0.0978494,-0.527452,0.988668,-0.00675583,-0.000803313,0.0978411,1,4.60669e-05,-8.49001e-06,1.05071e-05,0.00921339,-0.001698,0.00210143,0,0,0,0,0.0662858,0.516042,-0.990841,34.125,1,49907,44511764
9,1,-0.675418,-0.0794156,9.78413,0.0978494,-0.527452,0.988668,-0.00675583,-0.000803313,0.0978411,1,4.60669e-05,-8.49001e-06,1.05071e-05,0.00921339,-0.001698,0.00210143,0,0,0,0,0.0662858,0.516042,-0.990841,34.125,1,49907,44511764
9,2,-0.681758,-0.073352,9.78897,0.0936253,-0.52942,0.993091,-0.00682192,-0.000742226,0.0978894,1,4.29657e-05,-2.23087e-05,2.15434e-05,0.00859314,-0.00446175,0.00430867,0,0,0,0,0.0652899,0.513665,-0.993919,34.125,1,49908,44511864
10,1,-0.681758,-0.073352,9.78897,0.0936253,-0.52942,0.993091,-0.00682192,-0.000742226,0.0978894,1,4.29657e-05,-2.23087e-05,2.15434e-05,0.00859314,-0.00446175,0.00430867,0,0,0,0,0.0652899,0.513665,-0.993919,34.125,1,49908,44511864
10,2,-0.686985,-0.0755128,9.79034,0.0858182,-0.532849,0.996994,-0.00687112,-0.00076457,0.0979032,1,4.79948e-05,-6.48539e-06,3.22798e-06,0.00959896,-0.00129708,0.000645595,0,0,0,0,0.0649388,0.508755,-0.992006,34.125,1,49909,44511964
11,1,-0.686985,-0.0755128,9.79034,0.0858182,-0.532849,0.996994,-0.00687112,-0.00076457,0.0979032,1,4.79948e-05,-6.48539e-06,3.22798e-06,0.00959896,-0.00129708,0.000645595,0,0,0,0,0.0649388,0.508755,-0.992006,34.125,1,49909,44511964
11,2,-0.688562,-0.0708085,9.79244,0.0824286,-0.525572,0.999766,-0.00688932,-0.000716308,0.0979241,1,4.06411e-05,-1.90028e-05,1.91216e-05,0.00812823,-0.00380057,0.00382432,0,0,0,0,0.0626319,0.508703,-0.987957,34.125,1,49910,44512064
12,1,-0.688562,-0.0708085,9.79244,0.0824286,-0.525572,0.999766,-0.00688932,-0.000716308,0.0979241,1,4.06411e-05,-1.90028e-05,1.91216e-05,0.00812823,-0.00380057,0.00382432,0,0,0,0,0.0626319,0.508703,-0.987957,34.125,1,49910,44512064
12,2,-0.688083,-0.0699986,9.78056,0.0859047,-0.518865,0.989472,-0.00688292,-0.000708218,0.0978054,1,4.00692e-05,-1.08781e-05,2.8586e-05,0.00801384,-0.00217562,0.00571719,0,0,0,0,0.0631306,0.512059,-0.984854,34.125,1,49911,44512164
10,1,-0.688083,-0.0699986,9.78056,0.0859047,-0.518865,0.989472,-0.00688292,-0.000708218,0.0978054,1,4.00692e-05,-1.08781e-05,2.8586e-05,0.00801384,-0.00217562,0.00571719,0,0,0,0,0.0631306,0.512059,-0.984854,34.125,1,49911,44512164
10,2,-0.678705,-0.0675313,9.79274,0.0965229,-0.521031,0.992444,-0.00679149,-0.000684204,0.097927,1,4.51636e-05,-2.26908e-05,3.36754e-06,0.00903271,-0.00453815,0.000673509,0,0,0,0,0.0654346,0.515969,-0.986293,34.125,1,49912,44512264
14,1,-0.678705,-0.0675313,9.79274,0.0965229,-0.521031,0.992444,-0.00679149,-0.000684204,0.097927,1,4.51636e-05,-2.26908e-05,3.36754e-06,0.00903271,-0.00453815,0.000673509,0,0,0,0,0.0654346,0.515969,-0.986293,34.125,1,49912,44512264
14,2,-0.692593,-0.0759994,9.79005,0.0818711,-0.533152,0.990194,-0.00692996,-0.000766992,0.0979001,1,3.53458e-05,-2.0662e-05,5.54671e-06,0.00706916,-0.00413239,0.00110934,0,0,0,0,0.0672276,0.516531,-0.991339,34.125,1,49913,44512364
15,1,-0.692593,-0.0759994,9.79005,0.0818711,-0.533152,0.990194,-0.00692996,-0.000766992,0.0979001,1,3.53458e-05,-2.0662e-05,5.54671e-06,0.00706916,-0.00413239,0.00110934,0,0,0,0,0.0672276,0.516531,-0.991339,34.125,1,49913,44512364
15,2,-0.677776,-0.0683678,9.78967,0.0905929,-0.527536,0.990158,-0.00678074,-0.000694888,0.0978964,1,5.58551e-05,-1.53388e-05,2.02432e-05,0.011171,-0.00306777,0.00404864,0,0,0,0,0.0662032,0.515138,-0.994901,34.125,1,49914,44512464
16,1,-0.677776,-0.0683678,9.78967,0.0905929,-0.527536,0.990158,-0.00678074,-0.000694888,0.0978964,1,5.58551e-05,-1.53388e-05,2.02432e-05,0.011171,-0.00306777,0.00404864,0,0,0,0,0.0662032,0.515138,-0.994901,34.125,1,49914,44512464
16,2,-0.689402,-0.0600465,9.78846,0.0843324,-0.524043,0.993588,-0.00689745,-0.000610515,0.0978843,1,5.06658e-05,-1.75814e-05,9.52184e-06,0.0101332,-0.00351629,0.00190437,0,0,0,0,0.0639282,0.51169,-0.991937,34.125,1,49915,44512564
17,1,-0.689402,-0.0600465,9.78846,0.0843324,-0.524043,0.993588,-0.00689745,-0.000610515,0.0978843,1,5.06658e-05,-1.75814e-05,9.52184e-06,0.0101332,-0.00351629,0.00190437,0,0,0,0,0.0639282,0.51169,-0.991937,34.125,1,49915,44512564
17,2,-0.697761,-0.083135,9.79747,0.0733471,-0.543807,1.00484,-0.0069785,-0.000840514,0.0979746,1,4.48526e-05,-4.76653e-06,2.69021e-05,0.00897051,-0.000953306,0.00538042,0,0,0,0,0.0616369,0.509217,-0.988951,34.125,1,49916,44512664
18,1,-0.697761,-0.083135,9.79747,0.0733471,-0.543807,1.00484,-0.0069785,-0.000840514,0.0979746,1,4.48526e-05,-4.76653e-06,2.69021e-05,0.00897051,-0.000953306,0.00538042,0,0,0,0,0.0616369,0.509217,-0.988951,34.125,1,49916,44512664
18,2,-0.682892,-0.0858913,9.78479,0.0861024,-0.548661,0.991273,-0.00683053,-0.000869619,0.0978477,1,5.33665e-05,-8.39886e-06,1.92339e-05,0.0106733,-0.00167977,0.00384678,0,0,0,0,0.061691,0.511105,-0.985373,34.125,1,49917,44512764
19,1,-0.682892,-0.0858913,9.78479,0.0861024,-0.548661,0.991273,-0.00683053,-0.000869619,0.0978477,1,5.33665e-05,-8.39886e-06,1.92339e-05,0.0106733,-0.00167977,0.00384678,0,0,0,0,0.061691,0.511105,-0.985373,34.125,1,49917,44512764
19,2,-0.691071,-0.0786235,9.79305,0.0856466,-0.536858,0.994466,-0.00691169,-0.000794152,0.0979304,1,4.03859e-05,-4.99564e-06,5.68197e-07,0.00807717,-0.000999127,0.000113639,0,0,0,0,0.0649573,0.515006,-0.986817,34.125,1,49918,44512864
20,1,-0.691071,-0.0786235,9.79305,0.0856466,-0.536858,0.994466,-0.00691169,-0.000794152,0.0979304,1,4.03859e-05,-4.99564e-06,5.68197e-07,0.00807717,-0.000999127,0.000113639,0,0,0,0,0.0649573,0.515006,-0.986817,34.125,1,49918,44512864
20,2,-0.683893,-0.0805831,9.78078,0.085957,-0.547197,0.977424,-0.00684151,-0.000813331,0.0978076,1,3.70051e-05,-1.33516e-05,1.90958e-05,0.00740103,-0.00267032,0.00381916,0,0,0,0,0.0662611,0.51606,-0.99185,34.125,1,49919,44512964
21,1,-0.683893,-0.0805831,9.78078,0.085957,-0.547197,0.977424,-0.00684151,-0.000813331,0.0978076,1,3.70051e-05,-1.33516e-05,1.90958e-05,0.00740103,-0.00267032,0.00381916,0,0,0,0,0.0662611,0.51606,-0.99185,34.125,1,49919,44512964
21,2,-0.688473,-0.0833082,9.78962,0.0773359,-0.553653,0.998708,-0.00688859,-0.000842699,0.0978959,1,4.7151e-05,-1.99642e-05,2.79395e-05,0.00943019,-0.00399285,0.0055879,0,0,0,0,0.064813,0.514148,-0.993401,34.125,1,49920,44513064
22,1,-0.688473,-0.0833082,9.78962,0.0773359,-0.553653,0.998708,-0.00688859,-0.000842699,0.0978959,1,4.7151e-05,-1.99642e-05,2.79395e-05,0.00943019,-0.00399285,0.0055879,0,0,0,0,0.064813,0.514148,-0.993401,34.125,1,49920,44513064
22,2,-0.682201,-0.0787868,9.79062,0.0874653,-0.546771,0.994481,-0.00682376,-0.000798572,0.097906,1,5.23682e-05,-9.19448e-06,3.29856e-05,0.0104736,-0.0018389,0.00659713,0,0,0,0,0.0634879,0.5107,-0.990946,34.125,1,49921,44513164
23,1,-0.682201,-0.0787868,9.79062,0.0874653,-0.546771,0.994481,-0.00682376,-0.000798572,0.097906,1,5.23682e-05,-9.19448e-06,3.29856e-05,0.0104736,-0.0018389,0.00659713,0,0,0,0,0.0634879,0.5107,-0.990946,34.125,1,49921,44513164
23,2,-0.675048,-0.077414,9.7872,0.0941554,-0.541282,0.996536,-0.00675202,-0.000784469,0.0978718,1,5.24707e-05,-7.92191e-06,4.35453e-06,0.0104941,-0.00158438,0.000870906,0,0,0,0,0.0626077,0.510166,-0.987924,34.125,1,49922,44513264
24,1,-0.675048,-0.077414,9.7872,0.0941554,-0.541282,0.996536,-0.00675202,-0.000784469,0.0978718,1,5.24707e-05,-7.92191e-06,4.35453e-06,0.0104941,-0.00158438,0.000870906,0,0,0,0,0.0626077,0.510166,-0.987924,34.125,1,49922,44513264
24,2,-0.68633,-0.0790576,9.78318,0.084783,-0.546387,0.985547,-0.0068655,-0.000801806,0.0978315,1,5.59035e-05,-1.13842e-05,2.1266e-05,0.0111807,-0.00227685,0.00425321,0,0,0,0,0.0631918,0.510569,-0.983372,34.125,1,49923,44513364
25,1,-0.68633,-0.0790576,9.78318,0.084783,-0.546387,0.985547,-0.0068655,-0.000801806,0.0978315,1,5.59035e-05,-1.13842e-05,2.1266e-05,0.0111807,-0.00227685,0.00425321,0,0,0,0,0.0631918,0.510569,-0.983372,34.125,1,49923,44513364
25,2,-0.678587,-0.0775505,9.78178,0.093759,-0.551914,0.981627,-0.00678515,-0.000785977,0.0978178,1,5.21747e-05,3.48487e-06,1.95034e-05,0.0104349,0.000696974,0.00390069,0,0,0,0,0.0650061,0.513525,-0.98584,34.125,1,49924,44513464
26,1,-0.678587,-0.0775505,9.78178,0.093759,-0.551914,0.981627,-0.00678515,-0.000785977,0.0978178,1,5.21747e-05,3.48487e-06,1.95034e-05,0.0104349,0.000696974,0.00390069,0,0,0,0,0.0650061,0.513525,-0.98584,34.125,1,49924,44513464
26,2,-0.676877,-0.0689232,9.78389,0.0909691,-0.541117,0.98195,-0.00677125,-0.000695602,0.0978386,1,3.20169e-05,-1.26978e-05,7.73945e-06,0.00640338,-0.00253955,0.00154789,0,0,0,0,0.0668077,0.515044,-0.989855,34.125,1,49925,44513564
27,1,-0.676877,-0.0689232,9.78389,0.0909691,-0.541117,0.98195,-0.00677125,-0.000695602,0.0978386,1,3.20169e-05,-1.26978e-05,7.73945e-06,0.00640338,-0.00253955,0.00154789,0,0,0,0,0.0668077,0.515044,-0.989855,34.125,1,49925,44513564
27,2,-0.686662,-0.0805726,9.7913,0.0802695,-0.558188,0.993914,-0.0068678,-0.000815654,0.0979129,1,4.97624e-05,-6.11897e-06,1.33032e-05,0.00995247,-0.00122379,0.00266063,0,0,0,0,0.065278,0.515119,-0.993382,34.125,1,49926,44513664
28,1,-0.686662,-0.0805726,9.7913,0.0802695,-0.558188,0.993914,-0.0068678,-0.000815654,0.0979129,1,4.97624e-05,-6.11897e-06,1.33032e-05,0.00995247,-0.00122379,0.00266063,0,0,0,0,0.065278,0.515119,-0.993382,34.125,1,49926,44513664
28,2,-0.684643,-0.0695316,9.78258,0.0789818,-0.546425,0.987571,-0.00684854,-0.000705688,0.0978256,1,5.21317e-05,-1.08818e-05,1.25968e-05,0.0104263,-0.00217636,0.00251937,0,0,0,0,0.0639035,0.511708,-0.992946,34.125,1,49927,44513764
29,1,-0.684643,-0.0695316,9.78258,0.0789818,-0.546425,0.987571,-0.00684854,-0.000705688,0.0978256,1,5.21317e-05,-1.08818e-05,1.25968e-05,0.0104263,-0.00217636,0.00251937,0,0,0,0,0.0639035,0.511708,-0.992946,34.125,1,49927,44513764
29,2,-0.68879,-0.0871095,9.79365,0.0777503,-0.563849,0.998476,-0.00689144,-0.00088097,0.0979362,1,4.95968e-05,-1.81641e-05,1.16657e-05,0.00991936,-0.00363282,0.00233314,0,0,0,0,0.0631173,0.509178,-0.987443,34.125,1,49928,44513864
30,1,-0.68879,-0.0871095,9.79365,0.0777503,-0.563849,0.998476,-0.00689144,-0.00088097,0.0979362,1,4.95968e-05,-1.81641e-05,1.16657e-05,0.00991936,-0.00363282,0.00233314,0,0,0,0,0.0631173,0.509178,-0.987443,34.125,1,49928,44513864
30,2,-0.678024,-0.0838887,9.79496,0.0929769,-0.558856,0.999807,-0.00678219,-0.000849079,0.0979494,1,5.14444e-05,-1.00678e-05,8.43413e-06,0.0102889,-0.00201356,0.00168683,0,0,0,0,0.0626945,0.511549,-0.983348,34.125,1,49929,44513964
31,1,-0.678024,-0.0838887,9.79496,0.0929769,-0.558856,0.999807,-0.00678219,-0.000849079,0.0979494,1,5.14444e-05,-1.00678e-05,8.43413e-06,0.0102889,-0.00201356,0.00168683,0,0,0,0,0.0626945,0.511549,-0.983348,34.125,1,49929,44513964
31,2,-0.690183,-0.0652846,9.77858,0.0814176,-0.536537,0.977035,-0.0069034,-0.000664868,0.0977856,1,6.03441e-05,-8.09526e-06,1.59628e-05,0.0120688,-0.00161905,0.00319256,0,0,0,0,0.0640643,0.513036,-0.985341,34.125,1,49930,44514064
32,1,-0.690183,-0.0652846,9.77858,0.0814176,-0.536537,0.977035,-0.0069034,-0.000664868,0.0977856,1,6.03441e-05,-8.09526e-06,1.59628e-05,0.0120688,-0.00161905,0.00319256,0,0,0,0,0.0640643,0.513036,-0.985341,34.125,1,49930,44514064
32,2,-0.694429,-0.0788516,9.78935,0.0767461,-0.557457,0.984843,-0.00694711,-0.000792642,0.0978932,1,1.95446e-05,-1.45362e-05,2.15173e-05,0.00390893,-0.00290723,0.00430346,0,0,0,0,0.0653848,0.514559,-0.989354,34.125,1,49931,44514164
33,1,-0.694429,-0.0788516,9.78935,0.0767461,-0.557457,0.984843,-0.00694711,-0.000792642,0.0978932,1,1.95446e-05,-1.45362e-05,2.15173e-05,0.00390893,-0.00290723,0.00430346,0,0,0,0,0.0653848,0.514559,-0.989354,34.125,1,49931,44514164
33,2,-0.68347,-0.0853084,9.78888,0.0862003,-0.566286,0.988175,-0.00683721,-0.000862078,0.0978886,1,4.47072e-05,-1.29809e-05,1.76858e-05,0.00894143,-0.00259617,0.00353717,0,0,0,0,0.0653022,0.513656,-0.993414,34.125,1,49932,44514264
34,1,-0.68347,-0.0853084,9.78888,0.0862003,-0.566286,0.988175,-0.00683721,-0.000862078,0.0978886,1,4.47072e-05,-1.29809e-05,1.76858e-05,0.00894143,-0.00259617,0.00353717,0,0,0,0,0.0653022,0.513656,-0.993414,34.125,1,49932,44514264
34,2,-0.670556,-0.0666919,9.7893,0.0955928,-0.545906,0.991647,-0.00670991,-0.000677596,0.0978926,1,5.32364e-05,-2.2305e-05,1.88925e-05,0.0106473,-0.004461,0.0037785,0,0,0,0,0.06343,0.509779,-0.993997,34.125,1,49933,44514364
34,3,-0.670556,-0.0666919,9.7893,0.0955928,-0.545906,0.991647,-0.00670991,-0.000677596,0.0978926,1,5.32364e-05,-2.2305e-05,1.88925e-05,0.0106473,-0.004461,0.0037785,0,0,0,0,0.06343,0.509779,-0.993997,34.125,1,49933,44514364
34,4,-0.677827,-0.0732207,9.78691,0.086897,-0.5581,0.997048,-0.00678005,-0.000742885,0.0978689,1,5.3484e-05,-9.18644e-06,1.54674e-05,0.0106968,-0.00183729,0.00309349,0,0,0,0,0.0601566,0.509256,-0.990458,34.125,1,49934,44514464
35,1,-0.677827,-0.0732207,9.78691,0.086897,-0.5581,0.997048,-0.00678005,-0.000742885,0.0978689,1,5.3484e-05,-9.18644e-06,1.54674e-05,0.0106968,-0.00183729,0.00309349,0,0,0,0,0.0601566,0.509256,-0.990458,34.125,1,49934,44514464
35,2,-0.673842,-0.0736282,9.78755,0.0970253,-0.553284,0.990996,-0.00673867,-0.000744787,0.0978754,1,4.20156e-05,-1.44375e-06,2.0791e-05,0.00840313,-0.000288749,0.00415819,0,0,0,0,0.0621721,0.511101,-0.985376,34.125,1,49935,44514564
36,1,-0.673842,-0.0736282,9.78755,0.0970253,-0.553284,0.990996,-0.00673867,-0.000744787,0.0978754,1,4.20156e-05,-1.44375e-06,2.0791e-05,0.00840313,-0.000288749,0.00415819,0,0,0,0,0.0621721,0.511101,-0.985376,34.125,1,49935,44514564
36,2,-0.684976,-0.0778193,9.79302,0.0870699,-0.561187,0.993703,-0.00684939,-0.000786364,0.0979302,1,4.04027e-05,1.70836e-06,1.88611e-05,0.00808053,0.000341671,0.00377221,0,0,0,0,0.0640316,0.513542,-0.98634,34.125,1,49936,44514664
37,1,-0.684976,-0.0778193,9.79302,0.0870699,-0.561187,0.993703,-0.00684939,-0.000786364,0.0979302,1,4.04027e-05,1.70836e-06,1.88611e-05,0.00808053,0.000341671,0.00377221,0,0,0,0,0.0640316,0.513542,-0.98634,34.125,1,49936,44514664
37,2,-0.67843,-0.075961,9.79198,0.0876924,-0.559625,0.99226,-0.00678737,-0.000768761,0.0979195,1,4.56366e-05,-1.58064e-05,1.5693e-05,0.00912732,-0.00316129,0.00313861,0,0,0,0,0.0653316,0.515562,-0.990847,34.125,1,49937,44514764
38,1,-0.67843,-0.075961,9.79198,0.0876924,-0.559625,0.99226,-0.00678737,-0.000768761,0.0979195,1,4.56366e-05,-1.58064e-05,1.5693e-05,0.00912732,-0.00316129,0.00313861,0,0,0,0,0.0653316,0.515562,-0.990847,34.125,1,49937,44514764
38,2,-0.683885,-0.0801534,9.79333,0.0819322,-0.569656,0.995572,-0.00683976,-0.000811263,0.0979332,1,4.78011e-05,-4.82964e-06,2.67382e-05,0.00956022,-0.000965929,0.00534764,0,0,0,0,0.0652941,0.514144,-0.993404,34.125,1,49938,44514864
39,1,-0.683885,-0.0801534,9.79333,0.0819322,-0.569656,0.995572,-0.00683976,-0.000811263,0.0979332,1,4.78011e-05,-4.82964e-06,2.67382e-05,0.00956022,-0.000965929,0.00534764,0,0,0,0,0.0652941,0.514144,-0.993404,34.125,1,49938,44514864
39,2,-0.678444,-0.0750328,9.79673,0.0883947,-0.567742,0.999243,-0.0067863,-0.000759479,0.0979671,1,4.5076e-05,-9.6873e-06,2.35086e-05,0.00901519,-0.00193746,0.00470172,0,0,0,0,0.0644088,0.510241,-0.992981,34.125,1,49939,44514964
40,1,-0.678444,-0.0750328,9.79673,0.0883947,-0.567742,0.999243,-0.0067863,-0.000759479,0.0979671,1,4.5076e-05,-9.6873e-06,2.35086e-05,0.00901519,-0.00193746,0.00470172,0,0,0,0,0.0644088,0.510241,-0.992981,34.125,1,49939,44514964
40,2,-0.687571,-0.0820584,9.7886,0.0798074,-0.573142,0.993727,-0.00687775,-0.000827562,0.0978858,1,3.34737e-05,-1.06859e-05,3.09031e-05,0.00669474,-0.00213717,0.00618062,0,0,0,0,0.0640136,0.508736,-0.990487,34.125,1,49940,44515064
41,1,-0.687571,-0.0820584,9.7886,0.0798074,-0.573142,0.993727,-0.00687775,-0.000827562,0.0978858,1,3.34737e-05,-1.06859e-05,3.09031e-05,0.00669474,-0.00213717,0.00618062,0,0,0,0,0.0640136,0.508736,-0.990487,34.125,1,49940,44515064
41,2,-0.694824,-0.0662033,9.78777,0.0700544,-0.552759,0.991546,-0.00695006,-0.000672724,0.0978775,1,5.2307e-05,-9.51065e-06,3.24843e-05,0.0104614,-0.00190213,0.00649685,0,0,0,0,0.0650916,0.510571,-0.984391,34.125,1,49941,44515164
42,1,-0.694824,-0.0662033,9.78777,0.0700544,-0.552759,0.991546,-0.00695006,-0.000672724,0.0978775,1,5.2307e-05,-9.51065e-06,3.24843e-05,0.0104614,-0.00190213,0.00649685,0,0,0,0,0.0650916,0.510571,-0.984391,34.125,1,49941,44515164
42,2,-0.67608,-0.0797829,9.78515,0.0910358,-0.564843,0.985752,-0.00676242,-0.000806788,0.0978513,1,4.40031e-05,-8.49009e-06,2.57324e-05,0.00880063,-0.00169802,0.00514648,0,0,0,0,0.0660054,0.51349,-0.98433,34.125,1,49942,44515264
43,1,-0.67608,-0.0797829,9.78515,0.0910358,-0.564843,0.985752,-0.00676242,-0.000806788,0.0978513,1,4.40031e-05,-8.49009e-06,2.57324e-05,0.00880063,-0.00169802,0.00514648,0,0,0,0,0.0660054,0.51349,-0.98433,34.125,1,49942,44515264
43,2,-0.679484,-0.0730211,9.78761,0.0820021,-0.56208,0.986538,-0.00679597,-0.000737817,0.0978759,1,3.84357e-05,-5.84867e-06,6.03841e-06,0.00768715,-0.00116973,0.00120768,0,0,0,0,0.067313,0.513577,-0.98989,34.125,1,49943,44515364
44,1,-0.679484,-0.0730211,9.78761,0.0820021,-0.56208,0.986538,-0.00679597,-0.000737817,0.0978759,1,3.84357e-05,-5.84867e-06,6.03841e-06,0.00768715,-0.00116973,0.00120768,0,0,0,0,0.067313,0.513577,-0.98989,34.125,1,49943,44515364
44,2,-0.682689,-0.0742218,9.78184,0.0784954,-0.567828,0.98052,-0.00682839,-0.000753226,0.0978182,1,5.46518e-05,-7.84115e-06,2.31716e-05,0.0109304,-0.00156823,0.00463432,0,0,0,0,0.0657871,0.512685,-0.993943,34.125,1,49944,44515464
45,1,-0.682689,-0.0742218,9.78184,0.0784954,-0.567828,0.98052,-0.00682839,-0.000753226,0.0978182,1,5.46518e-05,-7.84115e-06,2.31716e-05,0.0109304,-0.00156823,0.00463432,0,0,0,0,0.0657871,0.512685,-0.993943,34.125,1,49944,44515464
45,2,-0.692333,-0.0791695,9.79103,0.0693497,-0.57153,0.993699,-0.00692649,-0.000802681,0.0979099,1,5.44227e-05,-1.6326e-05,2.37712e-05,0.0108845,-0.0032652,0.00475425,0,0,0,0,0.0629697,0.510731,-0.992459,34.125,1,49945,44515564
46,1,-0.692333,-0.0791695,9.79103,0.0693497,-0.57153,0.993699,-0.00692649,-0.000802681,0.0979099,1,5.44227e-05,-1.6326e-05,2.37712e-05,0.0108845,-0.0032652,0.00475425,0,0,0,0,0.0629697,0.510731,-0.992459,34.125,1,49945,44515564
46,2,-0.687962,-0.0781799,9.78558,0.0751569,-0.572984,0.993625,-0.00688293,-0.000791877,0.0978555,1,5.11351e-05,-1.69205e-05,5.1261e-06,0.010227,-0.00338411,0.00102522,0,0,0,0,0.063048,0.511156,-0.988914,34.125,1,49946,44515664
47,1,-0.687962,-0.0781799,9.78558,0.0751569,-0.572984,0.993625,-0.00688293,-0.000791877,0.0978555,1,5.11351e-05,-1.69205e-05,5.1261e-06,0.010227,-0.00338411,0.00102522,0,0,0,0,0.063048,0.511156,-0.988914,34.125,1,49946,44515664
47,2,-0.692772,-0.0747203,9.7914,0.0718763,-0.572347,0.995451,-0.00692873,-0.000758706,0.0979139,1,5.739e-05,-5.2959e-06,1.90939e-05,0.011478,-0.00105918,0.00381877,0,0,0,0,0.0641127,0.510109,-0.985407,34.125,1,49947,44515764
48,1,-0.692772,-0.0747203,9.7914,0.0718763,-0.572347,0.995451,-0.00692873,-0.000758706,0.0979139,1,5.739e-05,-5.2959e-06,1.90939e-05,0.011478,-0.00105918,0.00381877,0,0,0,0,0.0641127,0.510109,-0.985407,34.125,1,49947,44515764
48,2,-0.684551,-0.0767966,9.78761,0.0787208,-0.572972,0.989696,-0.00684832,-0.000775797,0.0978758,1,3.93948e-05,-1.44283e-05,8.76377e-06,0.00787897,-0.00288567,0.00175275,0,0,0,0,0.065483,0.513042,-0.986358,34.125,1,49948,44515864
49,1,-0.684551,-0.0767966,9.78761,0.0787208,-0.572972,0.989696,-0.00684832,-0.000775797,0.0978758,1,3.93948e-05,-1.44283e-05,8.76377e-06,0.00787897,-0.00288567,0.00175275,0,0,0,0,0.065483,0.513042,-0.986358,34.125,1,49948,44515864
49,2,-0.691859,-0.0724854,9.7809,0.0686911,-0.564579,0.979601,-0.0069205,-0.000732231,0.0978088,1,3.68245e-05,-9.8496e-06,1.25785e-05,0.0073649,-0.00196992,0.0025157,0,0,0,0,0.0672642,0.515058,-0.990867,34.125,1,49949,44515964
50,1,-0.691859,-0.0724854,9.7809,0.0686911,-0.564579,0.979601,-0.0069205,-0.000732231,0.0978088,1,3.68245e-05,-9.8496e-06,1.25785e-05,0.0073649,-0.00196992,0.0025157,0,0,0,0,0.0672642,0.515058,-0.990867,34.125,1,49949,44515964
50,2,-0.690717,-0.083522,9.79199,0.0743151,-0.582088,0.996624,-0.00690826,-0.000847021,0.0979197,1,5.94184e-05,-5.63782e-06,1.18878e-05,0.0118837,-0.00112756,0.00237757,0,0,0,0,0.0662564,0.514136,-0.993408,34.125,1,49950,44516064
51,1,-0.690717,-0.083522,9.79199,0.0743151,-0.582088,0.996624,-0.00690826,-0.000847021,0.0979197,1,5.94184e-05,-5.63782e-06,1.18878e-05,0.0118837,-0.00112756,0.00237757,0,0,0,0,0.0662564,0.514136,-0.993408,34.125,1,49950,44516064
51,2,-0.680039,-0.0860241,9.79156,0.0810309,-0.589369,0.992117,-0.0068033,-0.000869269,0.0979153,1,4.5022e-05,-1.49795e-05,1.55457e-05,0.00900439,-0.00299589,0.00310914,0,0,0,0,0.0644543,0.511171,-0.990435,34.125,1,49951,44516164
52,1,-0.680039,-0.0860241,9.79156,0.0810309,-0.589369,0.992117,-0.0068033,-0.000869269,0.0979153,1,4.5022e-05,-1.49795e-05,1.55457e-05,0.00900439,-0.00299589,0.00310914,0,0,0,0,0.0644543,0.511171,-0.990435,34.125,1,49951,44516164
52,2,-0.689736,-0.0754468,9.78798,0.0738157,-0.578837,0.992472,-0.00689894,-0.000763874,0.0978797,1,4.65214e-05,-8.20854e-06,2.16384e-05,0.00930429,-0.00164171,0.00432769,0,0,0,0,0.0630722,0.509693,-0.988947,34.125,1,49952,44516264
53,1,-0.689736,-0.0754468,9.78798,0.0738157,-0.578837,0.992472,-0.00689894,-0.000763874,0.0978797,1,4.65214e-05,-8.20854e-06,2.16384e-05,0.00930429,-0.00164171,0.00432769,0,0,0,0,0.0630722,0.509693,-0.988947,34.125,1,49952,44516264
53,2,-0.688655,-0.0787701,9.78829,0.076657,-0.578802,0.990957,-0.00688841,-0.000797881,0.0978827,1,5.05727e-05,-9.63353e-06,2.03122e-05,0.0101145,-0.00192671,0.00406244,0,0,0,0,0.0640843,0.511094,-0.98589,34.125,1,49953,44516364
54,1,-0.688655,-0.0787701,9.78829,0.076657,-0.578802,0.990957,-0.00688841,-0.000797881,0.0978827,1,5.05727e-05,-9.63353e-06,2.03122e-05,0.0101145,-0.00192671,0.00406244,0,0,0,0,0.0640843,0.511094,-0.98589,34.125,1,49953,44516364
54,2,-0.677557,-0.0687752,9.78355,0.0882682,-0.570354,0.986219,-0.00677787,-0.000697859,0.0978352,1,5.02113e-05,-1.18985e-05,2.07724e-05,0.0100423,-0.00237971,0.00415448,0,0,0,0,0.06499,0.5145,-0.985818,34.125,1,49954,44516464
55,1,-0.677557,-0.0687752,9.78355,0.0882682,-0.570354,0.986219,-0.00677787,-0.000697859,0.0978352,1,5.02113e-05,-1.18985e-05,2.07724e-05,0.0100423,-0.00237971,0.00415448,0,0,0,0,0.06499,0.5145,-0.985818,34.125,1,49954,44516464
55,2,-0.69198,-0.0791662,9.78797,0.0666435,-0.581708,0.985578,-0.00692275,-0.00080173,0.0978795,1,5.01294e-05,-1.52012e-05,1.83935e-05,0.0100259,-0.00304023,0.0036787,0,0,0,0,0.0653273,0.515083,-0.991363,34.125,1,49955,44516564
56,1,-0.69198,-0.0791662,9.78797,0.0666435,-0.581708,0.985578,-0.00692275,-0.00080173,0.0978795,1,5.01294e-05,-1.52012e-05,1.83935e-05,0.0100259,-0.00304023,0.0036787,0,0,0,0,0.0653273,0.515083,-0.991363,34.125,1,49955,44516564
56,2,-0.678867,-0.0719811,9.77811,0.0832227,-0.575977,0.975469,-0.00679065,-0.000727349,0.0977809,1,3.72138e-05,-1.02912e-05,1.9187e-05,0.00744277,-0.00205824,0.00383739,0,0,0,0,0.0633445,0.512733,-0.995446,34.125,1,49956,44516664
57,1,-0.678867,-0.0719811,9.77811,0.0832227,-0.575977,0.975469,-0.00679065,-0.000727349,0.0977809,1,3.72138e-05,-1.02912e-05,1.9187e-05,0.00744277,-0.00205824,0.00383739,0,0,0,0,0.0633445,0.512733,-0.995446,34.125,1,49956,44516664
57,2,-0.689439,-0.0665362,9.78162,0.0706064,-0.574506,0.985001,-0.00689615,-0.000673535,0.097816,1,4.02835e-05,-9.13439e-06,2.11558e-05,0.0080567,-0.00182688,0.00423115,0,0,0,0,0.0634547,0.509761,-0.992987,34.125,1,49957,44516764
58,1,-0.689439,-0.0665362,9.78162,0.0706064,-0.574506,0.985001,-0.00689615,-0.000673535,0.097816,1,4.02835e-05,-9.13439e-06,2.11558e-05,0.0080567,-0.00182688,0.00423115,0,0,0,0,0.0634547,0.509761,-0.992987,34.125,1,49957,44516764
58,2,-0.689127,-0.0740797,9.77985,0.0738963,-0.581946,0.985278,-0.00689329,-0.000748956,0.0977983,1,3.92234e-05,-1.05801e-05,3.53028e-05,0.00784468,-0.00211602,0.00706057,0,0,0,0,0.0635903,0.509662,-0.987435,34.125,1,49958,44516864
59,1,-0.689127,-0.0740797,9.77985,0.0738963,-0.581946,0.985278,-0.00689329,-0.000748956,0.0977983,1,3.92234e-05,-1.05801e-05,3.53028e-05,0.00784468,-0.00211602,0.00706057,0,0,0,0,0.0635903,0.509662,-0.987435,34.125,1,49958,44516864
59,2,-0.69054,-0.069974,9.78837,0.0750118,-0.570973,0.99276,-0.00690547,-0.000709501,0.0978837,1,4.95408e-05,-4.19039e-07,4.49654e-06,0.00990815,-8.38078e-05,0.000899308,0,0,0,0,0.0640847,0.512539,-0.984848,34.125,1,49959,44516964
60,1,-0.69054,-0.069974,9.78837,0.0750118,-0.570973,0.99276,-0.00690547,-0.000709501,0.0978837,1,4.95408e-05,-4.19039e-07,4.49654e-06,0.00990815,-8.38078e-05,0.000899308,0,0,0,0,0.0640847,0.512539,-0.984848,34.125,1,49959,44516964
60,2,-0.692671,-0.0781469,9.78664,0.0723641,-0.587205,0.98793,-0.00692895,-0.00079088,0.0978661,1,4.62236e-05,-1.16321e-05,2.61979e-05,0.00924471,-0.00232642,0.00523958,0,0,0,0,0.0654588,0.514505,-0.986325,34.125,1,49960,44517064
61,1,-0.692671,-0.0781469,9.78664,0.0723641,-0.587205,0.98793,-0.00692895,-0.00079088,0.0978661,1,4.62236e-05,-1.16321e-05,2.61979e-05,0.00924471,-0.00232642,0.00523958,0,0,0,0,0.0654588,0.514505,-0.986325,34.125,1,49960,44517064
61,2,-0.686664,-0.0816513,9.78588,0.0797798,-0.588426,0.981745,-0.00686648,-0.000824196,0.0978587,1,3.73871e-05,5.97928e-07,2.66319e-05,0.00747742,0.000119586,0.00532639,0,0,0,0,0.0658127,0.515558,-0.990849,34.125,1,49961,44517164
62,1,-0.686664,-0.0816513,9.78588,0.0797798,-0.588426,0.981745,-0.00686648,-0.000824196,0.0978587,1,3.73871e-05,5.97928e-07,2.66319e-05,0.00747742,0.000119586,0.00532639,0,0,0,0,0.0658127,0.515558,-0.990849,34.125,1,49961,44517164
62,2,-0.683622,-0.069114,9.78902,0.0756947,-0.581956,0.99222,-0.00683786,-0.000701503,0.09789,1,5.16418e-05,-8.49179e-06,1.84924e-05,0.0103284,-0.00169836,0.00369848,0,0,0,0,0.0656932,0.514682,-0.996424,34.125,1,49962,44517264
63,1,-0.683622,-0.069114,9.78902,0.0756947,-0.581956,0.99222,-0.00683786,-0.000701503,0.09789,1,5.16418e-05,-8.49179e-06,1.84924e-05,0.0103284,-0.00169836,0.00369848,0,0,0,0,0.0656932,0.514682,-0.996424,34.125,1,49962,44517264
63,2,-0.687797,-0.0783112,9.78489,0.072138,-0.590697,0.986956,-0.00687749,-0.000795382,0.0978488,1,6.08601e-05,2.22764e-06,2.6092e-05,0.012172,0.000445527,0.0052184,0,0,0,0,0.0648117,0.509812,-0.996528,34.125,1,49963,44517364
64,1,-0.687797,-0.0783112,9.78489,0.072138,-0.590697,0.986956,-0.00687749,-0.000795382,0.0978488,1,6.08601e-05,2.22764e-06,2.6092e-05,0.012172,0.000445527,0.0052184,0,0,0,0,0.0648117,0.509812,-0.996528,34.125,1,49963,44517364
64,2,-0.678809,-0.0757749,9.79707,0.0831607,-0.585108,0.997971,-0.0067877,-0.000766764,0.0979706,1,4.40386e-05,1.77147e-06,2.84237e-05,0.00880773,0.000354293,0.00568474,0,0,0,0,0.0625541,0.509724,-0.990459,34.125,1,49964,44517464
64,3,-0.678809,-0.0757749,9.79707,0.0831607,-0.585108,0.997971,-0.0067877,-0.000766764,0.0979706,1,4.40386e-05,1.77147e-06,2.84237e-05,0.00880773,0.000354293,0.00568474,0,0,0,0,0.0625541,0.509724,-0.990459,34.125,1,49964,44517464
64,4,-0.684502,-0.08149,9.78418,0.0720608,-0.590641,0.992961,-0.00684911,-0.00082483,0.0978414,1,4.98539e-05,-2.10083e-05,1.27071e-05,0.00997077,-0.00420167,0.00254142,0,0,0,0,0.0645696,0.511569,-0.985376,34.125,1,49965,44517564
65,1,-0.684502,-0.08149,9.78418,0.0720608,-0.590641,0.992961,-0.00684911,-0.00082483,0.0978414,1,4.98539e-05,-2.10083e-05,1.27071e-05,0.00997077,-0.00420167,0.00254142,0,0,0,0,0.0645696,0.511569,-0.985376,34.125,1,49965,44517564
65,2,-0.691406,-0.072249,9.77718,0.0729749,-0.584922,0.977767,-0.00691732,-0.000733975,0.0977715,1,5.67976e-05,-1.6897e-05,2.73657e-05,0.0113595,-0.00337941,0.00547313,0,0,0,0,0.0664372,0.513522,-0.986352,34.125,1,49966,44517664
66,1,-0.691406,-0.072249,9.77718,0.0729749,-0.584922,0.977767,-0.00691732,-0.000733975,0.0977715,1,5.67976e-05,-1.6897e-05,2.73657e-05,0.0113595,-0.00337941,0.00547313,0,0,0,0,0.0664372,0.513522,-0.986352,34.125,1,49966,44517664
66,2,-0.688323,-0.0803966,9.78081,0.072579,-0.594343,0.98209,-0.00688574,-0.000814039,0.0978079,1,4.99245e-05,-1.30456e-05,2.23296e-05,0.0099849,-0.00260912,0.00446591,0,0,0,0,0.0658251,0.515549,-0.990344,34.125,1,49967,44517764
67,1,-0.688323,-0.0803966,9.78081,0.072579,-0.594343,0.98209,-0.00688574,-0.000814039,0.0978079,1,4.99245e-05,-1.30456e-05,2.23296e-05,0.0099849,-0.00260912,0.00446591,0,0,0,0,0.0658251,0.515549,-0.990344,34.125,1,49967,44517764
67,2,-0.680127,-0.0726285,9.78829,0.075411,-0.588758,0.988622,-0.0068038,-0.000735398,0.0978827,1,4.50798e-05,-1.30664e-05,2.11036e-05,0.00901596,-0.00261329,0.00422073,0,0,0,0,0.0633659,0.515126,-0.992868,34.125,1,49968,44517864
68,1,-0.680127,-0.0726285,9.78829,0.075411,-0.588758,0.988622,-0.0068038,-0.000735398,0.0978827,1,4.50798e-05,-1.30664e-05,2.11036e-05,0.00901596,-0.00261329,0.00422073,0,0,0,0,0.0633659,0.515126,-0.992868,34.125,1,49968,44517864
68,2,-0.685955,-0.0682054,9.79379,0.0731308,-0.589563,0.993188,-0.00686138,-0.000693638,0.0979377,1,5.72913e-05,-9.53863e-06,2.64196e-05,0.0114583,-0.00190773,0.00528392,0,0,0,0,0.0629906,0.51168,-0.990922,34.125,1,49969,44517964
69,1,-0.685955,-0.0682054,9.79379,0.0731308,-0.589563,0.993188,-0.00686138,-0.000693638,0.0979377,1,5.72913e-05,-9.53863e-06,2.64196e-05,0.0114583,-0.00190773,0.00528392,0,0,0,0,0.0629906,0.51168,-0.990922,34.125,1,49969,44517964
69,2,-0.673272,-0.0827871,9.78612,0.0825428,-0.605175,0.987448,-0.00673525,-0.000836638,0.097861,1,4.37498e-05,-1.30666e-05,1.51414e-05,0.00874996,-0.00261331,0.00302827,0,0,0,0,0.0630684,0.510659,-0.98842,34.125,1,49970,44518064
70,1,-0.673272,-0.0827871,9.78612,0.0825428,-0.605175,0.987448,-0.00673525,-0.000836638,0.097861,1,4.37498e-05,-1.30666e-05,1.51414e-05,0.00874996,-0.00261331,0.00302827,0,0,0,0,0.0630684,0.510659,-0.98842,34.125,1,49970,44518064
70,2,-0.679221,-0.0811878,9.7899,0.0838928,-0.600921,0.988628,-0.00679278,-0.000821068,0.0978988,1,4.57875e-05,-3.0156e-06,1.65256e-05,0.00915749,-0.000603121,0.00330512,0,0,0,0,0.0640477,0.512566,-0.986362,34.125,1,49971,44518164
70,3,-0.679221,-0.0811878,9.7899,0.0838928,-0.600921,0.988628,-0.00679278,-0.000821068,0.0978988,1,4.57875e-05,-3.0156e-06,1.65256e-05,0.00915749,-0.000603121,0.00330512,0,0,0,0,0.0640477,0.512566,-0.986362,34.125,1,49971,44518164
70,4,-0.687582,-0.0781123,9.78965,0.0745126,-0.595691,0.989995,-0.00687831,-0.000792476,0.0978962,1,5.63358e-05,-1.29173e-05,2.34618e-05,0.0112672,-0.00258346,0.00469236,0,0,0,0,0.0654222,0.515978,-0.986798,34.125,1,49972,44518264
71,1,-0.687582,-0.0781123,9.78965,0.0745126,-0.595691,0.989995,-0.00687831,-0.000792476,0.0978962,1,5.63358e-05,-1.29173e-05,2.34618e-05,0.0112672,-0.00258346,0.00469236,0,0,0,0,0.0654222,0.515978,-0.986798,34.125,1,49972,44518264
71,2,-0.680667,-0.0760382,9.78181,0.0787286,-0.598089,0.980954,-0.00680577,-0.000766735,0.0978181,1,3.04432e-05,4.34567e-06,2.92061e-05,0.00608864,0.000869133,0.00584123,0,0,0,0,0.0663147,0.516502,-0.989315,34.125,1,49973,44518364
72,1,-0.680667,-0.0760382,9.78181,0.0787286,-0.598089,0.980954,-0.00680577,-0.000766735,0.0978181,1,3.04432e-05,4.34567e-06,2.92061e-05,0.00608864,0.000869133,0.00584123,0,0,0,0,0.0663147,0.516502,-0.989315,34.125,1,49973,44518364
72,2,-0.682516,-0.0686132,9.78767,0.074898,-0.591506,0.984352,-0.00682861,-0.000694694,0.0978764,1,4.33475e-05,-1.771e-05,5.62134e-06,0.0086695,-0.003542,0.00112427,0,0,0,0,0.0647803,0.514654,-0.9944,34.125,1,49974,44518464
73,1,-0.682516,-0.0686132,9.78767,0.074898,-0.591506,0.984352,-0.00682861,-0.000694694,0.0978764,1,4.33475e-05,-1.771e-05,5.62134e-06,0.0086695,-0.003542,0.00112427,0,0,0,0,0.0647803,0.514654,-0.9944,34.125,1,49974,44518464
73,2,-0.688728,-0.0678691,9.78839,0.0678775,-0.594869,0.987135,-0.00688859,-0.000688679,0.0978837,1,4.94682e-05,-6.823e-06,2.20517e-05,0.00989364,-0.0013646,0.00441033,0,0,0,0,0.0629038,0.510298,-0.995498,34.125,1,49975,44518564
74,1,-0.688728,-0.0678691,9.78839,0.0678775,-0.594869,0.987135,-0.00688859,-0.000688679,0.0978837,1,4.94682e-05,-6.823e-06,2.20517e-05,0.00989364,-0.0013646,0.00441033,0,0,0,0,0.0629038,0.510298,-0.995498,34.125,1,49975,44518564
74,2,-0.684704,-0.0702392,9.78935,0.0728716,-0.595569,0.992113,-0.00684797,-0.000712058,0.0978933,1,4.77693e-05,-4.88605e-06,2.28846e-05,0.00955386,-0.000977209,0.00457691,0,0,0,0,0.0635367,0.509219,-0.989969,34.125,1,49976,44518664
75,1,-0.684704,-0.0702392,9.78935,0.0728716,-0.595569,0.992113,-0.00684797,-0.000712058,0.0978933,1,4.77693e-05,-4.88605e-06,2.28846e-05,0.00955386,-0.000977209,0.00457691,0,0,0,0,0.0635367,0.509219,-0.989969,34.125,1,49976,44518664
75,2,-0.675559,-0.0816976,9.79192,0.0834375,-0.607931,0.994847,-0.00675871,-0.000828598,0.0979189,1,5.75727e-05,-1.61675e-05,2.57099e-05,0.0115145,-0.0032335,0.00514198,0,0,0,0,0.066486,0.51204,-0.985375,34.125,1,49977,44518764
76,1,-0.675559,-0.0816976,9.79192,0.0834375,-0.607931,0.994847,-0.00675871,-0.000828598,0.0979189,1,5.75727e-05,-1.61675e-05,2.57099e-05,0.0115145,-0.0032335,0.00514198,0,0,0,0,0.066486,0.51204,-0.985375,34.125,1,49977,44518764
76,2,-0.67548,-0.0834497,9.77934,0.0828746,-0.606768,0.978956,-0.00675636,-0.000844118,0.0977932,1,4.84101e-05,-8.08041e-06,1.13269e-05,0.00968201,-0.00161608,0.00226539,0,0,0,0,0.0659114,0.515486,-0.986811,34.125,1,49978,44518864
77,1,-0.67548,-0.0834497,9.77934,0.0828746,-0.606768,0.978956,-0.00675636,-0.000844118,0.0977932,1,4.84101e-05,-8.08041e-06,1.13269e-05,0.00968201,-0.00161608,0.00226539,0,0,0,0,0.0659114,0.515486,-0.986811,34.125,1,49978,44518864
77,2,-0.684344,-0.0727677,9.78627,0.0762242,-0.601379,0.978043,-0.00684448,-0.000736398,0.0978626,1,4.31928e-05,-5.48596e-06,1.94553e-05,0.00863857,-0.00109719,0.00389106,0,0,0,0,0.0658374,0.51554,-0.98984,34.125,1,49979,44518964
78,1,-0.684344,-0.0727677,9.78627,0.0762242,-0.601379,0.978043,-0.00684448,-0.000736398,0.0978626,1,4.31928e-05,-5.48596e-06,1.94553e-05,0.00863857,-0.00109719,0.00389106,0,0,0,0,0.0658374,0.51554,-0.98984,34.125,1,49979,44518964
78,2,-0.697163,-0.0764451,9.77921,0.0579755,-0.603114,0.98145,-0.00697465,-0.000772679,0.0977919,1,4.14253e-05,-1.55418e-05,9.01152e-06,0.00828505,-0.00310837,0.0018023,0,0,0,0,0.0647803,0.514654,-0.9944,34.125,1,49980,44519064
79,1,-0.697163,-0.0764451,9.77921,0.0579755,-0.603114,0.98145,-0.00697465,-0.000772679,0.0977919,1,4.14253e-05,-1.55418e-05,9.01152e-06,0.00828505,-0.00310837,0.0018023,0,0,0,0,0.0647803,0.514654,-0.9944,34.125,1,49980,44519064
79,2,-0.688071,-0.0768415,9.78694,0.0689064,-0.605278,0.988088,-0.0068822,-0.00077787,0.0978692,1,4.76091e-05,-7.67439e-06,9.861e-06,0.00952182,-0.00153488,0.0019722,0,0,0,0,0.0643969,0.511695,-0.992444,34.125,1,49981,44519164
80,1,-0.688071,-0.0768415,9.78694,0.0689064,-0.605278,0.988088,-0.0068822,-0.00077787,0.0978692,1,4.76091e-05,-7.67439e-06,9.861e-06,0.00952182,-0.00153488,0.0019722,0,0,0,0,0.0643969,0.511695,-0.992444,34.125,1,49981,44519164
80,2,-0.685115,-0.0704002,9.7846,0.0746525,-0.595552,0.984863,-0.00685045,-0.000711675,0.097846,1,3.73666e-05,3.42299e-06,2.63228e-05,0.00747332,0.000684599,0.00526457,0,0,0,0,0.0626158,0.509679,-0.987935,34.125,1,49982,44519264
81,1,-0.685115,-0.0704002,9.7846,0.0746525,-0.595552,0.984863,-0.00685045,-0.000711675,0.097846,1,3.73666e-05,3.42299e-06,2.63228e-05,0.00747332,0.000684599,0.00526457,0,0,0,0,0.0626158,0.509679,-0.987935,34.125,1,49982,44519264
81,2,-0.688001,-0.0688843,9.79041,0.0725039,-0.593621,0.988455,-0.0068821,-0.000700098,0.0979039,1,5.6712e-05,-1.07637e-05,1.09596e-05,0.0113424,-0.00215274,0.00219193,0,0,0,0,0.0636482,0.510583,-0.984384,34.125,1,49983,44519364
82,1,-0.688001,-0.0688843,9.79041,0.0725039,-0.593621,0.988455,-0.0068821,-0.000700098,0.0979039,1,5.6712e-05,-1.07637e-05,1.09596e-05,0.0113424,-0.00215274,0.00219193,0,0,0,0,0.0636482,0.510583,-0.984384,34.125,1,49983,44519364
82,2,-0.682021,-0.0742808,9.77912,0.0732541,-0.602966,0.975086,-0.00682119,-0.000751783,0.0977911,1,4.47966e-05,-5.12441e-06,1.56054e-05,0.00895931,-0.00102488,0.00312107,0,0,0,0,0.0664656,0.512537,-0.985869,34.125,1,49984,44519464
83,1,-0.682021,-0.0742808,9.77912,0.0732541,-0.602966,0.975086,-0.00682119,-0.000751783,0.0977911,1,4.47966e-05,-5.12441e-06,1.56054e-05,0.00895931,-0.00102488,0.00312107,0,0,0,0,0.0664656,0.512537,-0.985869,34.125,1,49984,44519464
83,2,-0.689089,-0.0828512,9.78181,0.0653316,-0.611944,0.979188,-0.00689105,-0.000839018,0.097818,1,5.26384e-05,-9.44382e-07,1.50465e-05,0.0105277,-0.000188876,0.00300929,0,0,0,0,0.0668196,0.51359,-0.990392,34.125,1,49985,44519564
84,1,-0.689089,-0.0828512,9.78181,0.0653316,-0.611944,0.979188,-0.00689105,-0.000839018,0.097818,1,5.26384e-05,-9.44382e-07,1.50465e-05,0.0105277,-0.000188876,0.00300929,0,0,0,0,0.0668196,0.51359,-0.990392,34.125,1,49985,44519564
84,2,-0.686334,-0.0763365,9.78219,0.0691096,-0.609542,0.981994,-0.00686494,-0.000773527,0.0978217,1,4.9958e-05,-8.3798e-06,2.826e-05,0.00999161,-0.00167596,0.005652,0,0,0,0,0.065771,0.513661,-0.993922,34.125,1,49986,44519664
85,1,-0.686334,-0.0763365,9.78219,0.0691096,-0.609542,0.981994,-0.00686494,-0.000773527,0.0978217,1,4.9958e-05,-8.3798e-06,2.826e-05,0.00999161,-0.00167596,0.005652,0,0,0,0,0.065771,0.513661,-0.993922,34.125,1,49986,44519664
85,2,-0.690318,-0.0733199,9.78767,0.0603027,-0.604326,0.987509,-0.00690659,-0.000743354,0.0978764,1,5.05373e-05,-1.75517e-05,1.90251e-05,0.0101075,-0.00351034,0.00380502,0,0,0,0,0.0634062,0.512687,-0.992922,34.125,1,49987,44519764
86,1,-0.690318,-0.0733199,9.78767,0.0603027,-0.604326,0.987509,-0.00690659,-0.000743354,0.0978764,1,5.05373e-05,-1.75517e-05,1.90251e-05,0.0101075,-0.00351034,0.00380502,0,0,0,0,0.0634062,0.512687,-0.992922,34.125,1,49987,44519764
86,2,-0.68396,-0.0777575,9.79166,0.0713254,-0.606875,0.994058,-0.00684022,-0.000787472,0.0979164,1,4.99785e-05,-3.20193e-06,8.00957e-06,0.00999569,-0.000640386,0.00160191,0,0,0,0,0.0620734,0.511173,-0.989414,34.125,1,49988,44519864
87,1,-0.68396,-0.0777575,9.79166,0.0713254,-0.606875,0.994058,-0.00684022,-0.000787472,0.0979164,1,4.99785e-05,-3.20193e-06,8.00957e-06,0.00999569,-0.000640386,0.00160191,0,0,0,0,0.0620734,0.511173,-0.989414,34.125,1,49988,44519864
87,2,-0.685326,-0.0641541,9.785,0.0721183,-0.592563,0.985001,-0.0068558,-0.000650375,0.0978498,1,4.36605e-05,-1.30738e-05,2.11203e-05,0.0087321,-0.00261475,0.00422406,0,0,0,0,0.0659845,0.512541,-0.985866,34.125,1,49989,44519964
88,1,-0.685326,-0.0641541,9.785,0.0721183,-0.592563,0.985001,-0.0068558,-0.000650375,0.0978498,1,4.36605e-05,-1.30738e-05,2.11203e-05,0.0087321,-0.00261475,0.00422406,0,0,0,0,0.0659845,0.512541,-0.985866,34.125,1,49989,44519964
88,2,-0.695029,-0.0863783,9.78963,0.064242,-0.617133,0.984705,-0.00695224,-0.000872464,0.0978961,1,4.33195e-05,-1.00622e-05,1.43648e-05,0.00866389,-0.00201244,0.00287296,0,0,0,0,0.0663883,0.515003,-0.987329,34.125,1,49990,44520064
89,1,-0.695029,-0.0863783,9.78963,0.064242,-0.617133,0.984705,-0.00695224,-0.000872464,0.0978961,1,4.33195e-05,-1.00622e-05,1.43648e-05,0.00866389,-0.00201244,0.00287296,0,0,0,0,0.0663883,0.515003,-0.987329,34.125,1,49990,44520064
89,2,-0.680733,-0.0778749,9.79605,0.0740786,-0.611743,0.99069,-0.00680996,-0.000788002,0.0979603,1,4.62346e-05,-1.35229e-05,1.42398e-05,0.00924692,-0.00270457,0.00284796,0,0,0,0,0.06631,0.514578,-0.990873,34.125,1,49991,44520164
90,1,-0.680733,-0.0778749,9.79605,0.0740786,-0.611743,0.99069,-0.00680996,-0.000788002,0.0979603,1,4.62346e-05,-1.35229e-05,1.42398e-05,0.00924692,-0.00270457,0.00284796,0,0,0,0,0.06631,0.514578,-0.990873,34.125,1,49991,44520164
90,2,-0.683629,-0.0812066,9.78246,0.0721929,-0.619156,0.977174,-0.00683697,-0.000820342,0.0978245,1,4.05852e-05,-3.65626e-06,2.45626e-05,0.00811704,-0.000731253,0.00491253,0,0,0,0,0.0662849,0.513151,-0.992925,34.125,1,49992,44520264
91,1,-0.683629,-0.0812066,9.78246,0.0721929,-0.619156,0.977174,-0.00683697,-0.000820342,0.0978245,1,4.05852e-05,-3.65626e-06,2.45626e-05,0.00811704,-0.000731253,0.00491253,0,0,0,0,0.0662849,0.513151,-0.992925,34.125,1,49992,44520264
91,2,-0.684644,-0.0685228,9.79039,0.0676884,-0.603314,0.98697,-0.00684712,-0.000694875,0.0979038,1,4.74138e-05,-3.70103e-06,2.6494e-05,0.00948276,-0.000740206,0.0052988,0,0,0,0,0.0644377,0.510701,-0.991456,34.125,1,49993,44520364
92,1,-0.684644,-0.0685228,9.79039,0.0676884,-0.603314,0.98697,-0.00684712,-0.000694875,0.0979038,1,4.74138e-05,-3.70103e-06,2.6494e-05,0.00948276,-0.000740206,0.0052988,0,0,0,0,0.0644377,0.510701,-0.991456,34.125,1,49993,44520364
92,2,-0.685874,-0.0781022,9.78625,0.0722937,-0.610557,0.988233,-0.00686169,-0.0007895,0.0978622,1,4.13563e-05,-1.5309e-05,2.7895e-05,0.00827127,-0.00306179,0.005579,0,0,0,0,0.0620938,0.510676,-0.98892,34.125,1,49994,44520464
93,1,-0.685874,-0.0781022,9.78625,0.0722937,-0.610557,0.988233,-0.00686169,-0.0007895,0.0978622,1,4.13563e-05,-1.5309e-05,2.7895e-05,0.00827127,-0.00306179,0.005579,0,0,0,0,0.0620938,0.510676,-0.98892,34.125,1,49994,44520464
93,2,-0.692145,-0.0709143,9.78363,0.0659882,-0.606393,0.982314,-0.00692377,-0.000719146,0.0978361,1,4.98723e-05,-1.19746e-05,1.76748e-05,0.00997447,-0.00239493,0.00353496,0,0,0,0,0.0640805,0.51206,-0.985363,34.125,1,49995,44520564
94,1,-0.692145,-0.0709143,9.78363,0.0659882,-0.606393,0.982314,-0.00692377,-0.000719146,0.0978361,1,4.98723e-05,-1.19746e-05,1.76748e-05,0.00997447,-0.00239493,0.00353496,0,0,0,0,0.0640805,0.51206,-0.985363,34.125,1,49995,44520564
94,2,-0.705316,-0.0855505,9.78122,0.0522585,-0.613987,0.981058,-0.00705501,-0.000862786,0.097812,1,3.66084e-05,-9.50883e-06,8.48997e-06,0.00732168,-0.00190177,0.00169799,0,0,0,0,0.0659522,0.514492,-0.985823,34.125,1,49996,44520664
95,1,-0.705316,-0.0855505,9.78122,0.0522585,-0.613987,0.981058,-0.00705501,-0.000862786,0.097812,1,3.66084e-05,-9.50883e-06,8.48997e-06,0.00732168,-0.00190177,0.00169799,0,0,0,0,0.0659522,0.514492,-0.985823,34.125,1,49996,44520664
95,2,-0.680812,-0.0835321,9.78888,0.0765479,-0.616023,0.984393,-0.00680932,-0.000846078,0.0978886,1,5.37839e-05,-6.2805e-06,1.67264e-05,0.0107568,-0.0012561,0.00334529,0,0,0,0,0.066812,0.515523,-0.989339,34.125,1,49997,44520764
96,1,-0.680812,-0.0835321,9.78888,0.0765479,-0.616023,0.984393,-0.00680932,-0.000846078,0.0978886,1,5.37839e-05,-6.2805e-06,1.67264e-05,0.0107568,-0.0012561,0.00334529,0,0,0,0,0.066812,0.515523,-0.989339,34.125,1,49997,44520764
96,2,-0.687301,-0.0764716,9.78593,0.0663481,-0.616353,0.979878,-0.00687573,-0.000773974,0.097859,1,4.61061e-05,-1.40164e-05,1.70227e-05,0.00922121,-0.00280327,0.00340454,0,0,0,0,0.0652979,0.513177,-0.99393,34.125,1,49998,44520864
97,1,-0.687301,-0.0764716,9.78593,0.0663481,-0.616353,0.979878,-0.00687573,-0.000773974,0.097859,1,4.61061e-05,-1.40164e-05,1.70227e-05,0.00922121,-0.00280327,0.00340454,0,0,0,0,0.0652979,0.513177,-0.99393,34.125,1,49998,44520864
97,2,-0.691771,-0.073782,9.79683,0.064213,-0.612372,0.996722,-0.00691853,-0.000748443,0.0979681,1,5.22621e-05,-4.39189e-06,2.772e-05,0.0104524,-0.000878377,0.00554399,0,0,0,0,0.0639192,0.509287,-0.99401,34.125,1,49999,44520964
98,1,-0.691771,-0.073782,9.79683,0.064213,-0.612372,0.996722,-0.00691853,-0.000748443,0.0979681,1,5.22621e-05,-4.39189e-06,2.772e-05,0.0104524,-0.000878377,0.00554399,0,0,0,0,0.0639192,0.509287,-0.99401,34.125,1,49999,44520964
98,2,-0.685172,-0.0837438,9.79603,0.0719248,-0.620915,0.994708,-0.00685274,-0.000844983,0.0979601,1,3.65806e-05,-5.47411e-06,2.7582e-05,0.00731611,-0.00109482,0.00551639,0,0,0,0,0.0630969,0.509675,-0.987937,34.125,1,50000,44521064
99,1,-0.685172,-0.0837438,9.79603,0.0719248,-0.620915,0.994708,-0.00685274,-0.000844983,0.0979601,1,3.65806e-05,-5.47411e-06,2.7582e-05,0.00731611,-0.00109482,0.00551639,0,0,0,0,0.0630969,0.509675,-0.987937,34.125,1,50000,44521064
99,2,-0.678294,-0.0765759,9.78552,0.0717229,-0.614503,0.98149,-0.00678351,-0.000776766,0.097855,1,5.52814e-05,-3.01156e-06,1.38044e-05,0.0110563,-0.000602312,0.00276089,0,0,0,0,0.0631306,0.512059,-0.984854,34.125,1,50001,44521164
99,3,-0.678294,-0.0765759,9.78552,0.0717229,-0.614503,0.98149,-0.00678351,-0.000776766,0.097855,1,5.52814e-05,-3.01156e-06,1.38044e-05,0.0110563,-0.000602312,0.00276089,0,0,0,0,0.0631306,0.512059,-0.984854,34.125,1,50001,44521164
99,4,-0.68966,-0.0727984,9.79344,0.0672497,-0.606699,0.992216,-0.00689718,-0.000736152,0.0979343,1,4.02277e-05,-3.07911e-06,2.08688e-05,0.00804554,-0.000615821,0.00417375,0,0,0,0,0.0649079,0.515042,-0.988836,34.125,1,50002,44521264
100,1,-0.68966,-0.0727984,9.79344,0.0672497,-0.606699,0.992216,-0.00689718,-0.000736152,0.0979343,1,4.02277e-05,-3.07911e-06,2.08688e-05,0.00804554,-0.000615821,0.00417375,0,0,0,0,0.0649079,0.515042,-0.988836,34.125,1,50002,44521264
100,2,-0.68398,-0.070282,9.78935,0.0772674,-0.60915,0.986336,-0.00684039,-0.000710874,0.0978934,1,3.98235e-05,-3.14785e-06,1.87511e-05,0.00796469,-0.00062957,0.00375022,0,0,0,0,0.0643528,0.5151,-0.991863,34.125,1,50003,44521364
100,3,-0.68398,-0.070282,9.78935,0.0772674,-0.60915,0.986336,-0.00684039,-0.000710874,0.0978934,1,3.98235e-05,-3.14785e-06,1.87511e-05,0.00796469,-0.00062957,0.00375022,0,0,0,0,0.0643528,0.5151,-0.991863,34.125,1,50003,44521364
100,4,-0.680813,-0.0677894,9.788,0.0716218,-0.61318,0.980957,-0.00681298,-0.000687674,0.0978796,1,4.87771e-05,-2.49164e-05,1.70118e-05,0.00975542,-0.00498328,0.00340237,0,0,0,0,0.0633203,0.514196,-0.995413,34.125,1,50004,44521464
100,5,-0.680813,-0.0677894,9.788,0.0716218,-0.61318,0.980957,-0.00681298,-0.000687674,0.0978796,1,4.87771e-05,-2.49164e-05,1.70118e-05,0.00975542,-0.00498328,0.00340237,0,0,0,0,0.0633203,0.514196,-0.995413,34.125,1,50004,44521464
100,6,-0.690342,-0.0846649,9.78181,0.0623747,-0.623963,0.986607,-0.0069059,-0.000855585,0.0978178,1,4.45936e-05,-1.28038e-05,1.5324e-05,0.00891872,-0.00256076,0.00306481,0,0,0,0,0.0633972,0.510285,-0.994996,34.125,1,50005,44521564
101,1,-0.690342,-0.0846649,9.78181,0.0623747,-0.623963,0.986607,-0.0069059,-0.000855585,0.0978178,1,4.45936e-05,-1.28038e-05,1.5324e-05,0.00891872,-0.00256076,0.00306481,0,0,0,0,0.0633972,0.510285,-0.994996,34.125,1,50005,44521564
101,2,-0.688027,-0.0789081,9.79235,0.0664142,-0.621811,0.994963,-0.00688174,-0.000797942,0.0979234,1,4.29766e-05,-7.80099e-06,3.22929e-05,0.00859531,-0.0015602,0.00645859,0,0,0,0,0.0625868,0.509218,-0.98946,34.125,1,50006,44521664
102,1,-0.688027,-0.0789081,9.79235,0.0664142,-0.621811,0.994963,-0.00688174,-0.000797942,0.0979234,1,4.29766e-05,-7.80099e-06,3.22929e-05,0.00859531,-0.0015602,0.00645859,0,0,0,0,0.0625868,0.509218,-0.98946,34.125,1,50006,44521664
102,2,-0.681518,-0.0765125,9.78758,0.0738854,-0.61492,0.989473,-0.00681705,-0.000773454,0.0978756,1,4.09317e-05,-9.70842e-06,2.31879e-05,0.00818634,-0.00194168,0.00463759,0,0,0,0,0.0640843,0.511094,-0.98589,34.125,1,50007,44521764
102,3,-0.681518,-0.0765125,9.78758,0.0738854,-0.61492,0.989473,-0.00681705,-0.000773454,0.0978756,1,4.09317e-05,-9.70842e-06,2.31879e-05,0.00818634,-0.00194168,0.00463759,0,0,0,0,0.0640843,0.511094,-0.98589,34.125,1,50007,44521764
102,4,-0.684741,-0.0768867,9.77878,0.0663634,-0.617303,0.978151,-0.00684629,-0.000779862,0.0977878,1,5.4963e-05,5.61621e-06,1.79425e-05,0.0109926,0.00112324,0.0035885,0,0,0,0,0.0645084,0.513059,-0.986858,34.125,1,50008,44521864
103,1,-0.684741,-0.0768867,9.77878,0.0663634,-0.617303,0.978151,-0.00684629,-0.000779862,0.0977878,1,5.4963e-05,5.61621e-06,1.79425e-05,0.0109926,0.00112324,0.0035885,0,0,0,0,0.0645084,0.513059,-0.986858,34.125,1,50008,44521864
103,2,-0.69475,-0.0842073,9.78998,0.0564444,-0.6261,0.987333,-0.00694954,-0.000854447,0.0978996,1,6.16796e-05,-1.06149e-05,2.13407e-05,0.0123359,-0.00212298,0.00426814,0,0,0,0,0.064887,0.514094,-0.990372,34.125,1,50009,44521964
104,1,-0.69475,-0.0842073,9.78998,0.0564444,-0.6261,0.987333,-0.00694954,-0.000854447,0.0978996,1,6.16796e-05,-1.06149e-05,2.13407e-05,0.0123359,-0.00212298,0.00426814,0,0,0,0,0.064887,0.514094,-0.990372,34.125,1,50009,44521964
104,2,-0.687714,-0.0677895,9.78397,0.0615099,-0.612865,0.979947,-0.0068801,-0.00068889,0.0978395,1,5.44282e-05,-1.52982e-05,2.50769e-05,0.0108856,-0.00305964,0.00501538,0,0,0,0,0.0652571,0.514171,-0.994918,34.125,1,50010,44522064
104,3,-0.687714,-0.0677895,9.78397,0.0615099,-0.612865,0.979947,-0.0068801,-0.00068889,0.0978395,1,5.44282e-05,-1.52982e-05,2.50769e-05,0.0108856,-0.00305964,0.00501538,0,0,0,0,0.0652571,0.514171,-0.994918,34.125,1,50010,44522064
104,4,-0.681179,-0.0759236,9.78928,0.0729588,-0.621043,0.986752,-0.00681489,-0.000769897,0.0978925,1,5.33815e-05,-1.59777e-05,1.5341e-05,0.0106763,-0.00319554,0.00306821,0,0,0,0,0.0619747,0.511245,-0.993453,34.125,1,50011,44522164
105,1,-0.681179,-0.0759236,9.78928,0.0729588,-0.621043,0.986752,-0.00681489,-0.000769897,0.0978925,1,5.33815e-05,-1.59777e-05,1.5341e-05,0.0106763,-0.00319554,0.00306821,0,0,0,0,0.0619747,0.511245,-0.993453,34.125,1,50011,44522164
105,2,-0.678176,-0.0730781,9.78827,0.0721862,-0.617591,0.987663,-0.00678316,-0.000738047,0.0978825,1,3.64538e-05,-7.25311e-06,9.55342e-06,0.00729077,-0.00145062,0.00191068,0,0,0,0,0.0616127,0.51068,-0.988918,34.125,1,50012,44522264
105,3,-0.678176,-0.0730781,9.78827,0.0721862,-0.617591,0.987663,-0.00678316,-0.000738047,0.0978825,1,3.64538e-05,-7.25311e-06,9.55342e-06,0.00729077,-0.00145062,0.00191068,0,0,0,0,0.0616127,0.51068,-0.988918,34.125,1,50012,44522264
105,4,-0.681704,-0.0699142,9.7839,0.070865,-0.61743,0.981011,-0.00681651,-0.000708136,0.097839,1,4.41541e-05,2.51253e-06,2.59763e-05,0.00883082,0.000502507,0.00519526,0,0,0,0,0.065047,0.512531,-0.984852,34.125,1,50013,44522364
105,5,-0.681704,-0.0699142,9.7839,0.070865,-0.61743,0.981011,-0.00681651,-0.000708136,0.097839,1,4.41541e-05,2.51253e-06,2.59763e-05,0.00883082,0.000502507,0.00519526,0,0,0,0,0.065047,0.512531,-0.984852,34.125,1,50013,44522364
105,6,-0.691675,-0.0844373,9.78691,0.0622009,-0.628282,0.984353,-0.00691853,-0.000852618,0.0978689,1,3.9868e-05,-9.35087e-06,3.18866e-05,0.0079736,-0.00187017,0.00637731,0,0,0,0,0.0659152,0.514519,-0.987337,34.125,1,50014,44522464
105,7,-0.691675,-0.0844373,9.78691,0.0622009,-0.628282,0.984353,-0.00691853,-0.000852618,0.0978689,1,3.9868e-05,-9.35087e-06,3.18866e-05,0.0079736,-0.00187017,0.00637731,0,0,0,0,0.0659152,0.514519,-0.987337,34.125,1,50014,44522464
105,8,-0.681165,-0.0722056,9.78593,0.0689584,-0.615335,0.981659,-0.00681582,-0.000731333,0.0978589,1,4.56588e-05,-2.14968e-05,2.49747e-05,0.00913176,-0.00429936,0.00499494,0,0,0,0,0.0667133,0.515595,-0.993378,34.125,1,50015,44522564
106,1,-0.681165,-0.0722056,9.78593,0.0689584,-0.615335,0.981659,-0.00681582,-0.000731333,0.0978589,1,4.56588e-05,-2.14968e-05,2.49747e-05,0.00913176,-0.00429936,0.00499494,0,0,0,0,0.0667133,0.515595,-0.993378,34.125,1,50015,44522564
106,2,-0.690684,-0.0722637,9.78667,0.0587189,-0.624759,0.980426,-0.00691003,-0.000733779,0.0978664,1,5.55402e-05,-1.64644e-05,1.95894e-05,0.011108,-0.00329289,0.00391788,0,0,0,0,0.0651793,0.515191,-0.99742,34.125,1,50016,44522664
106,3,-0.690684,-0.0722637,9.78667,0.0587189,-0.624759,0.980426,-0.00691003,-0.000733779,0.0978664,1,5.55402e-05,-1.64644e-05,1.95894e-05,0.011108,-0.00329289,0.00391788,0,0,0,0,0.0651793,0.515191,-0.99742,34.125,1,50016,44522664
106,4,-0.68635,-0.074638,9.78797,0.0634768,-0.627789,0.990455,-0.00686519,-0.000756719,0.0978795,1,5.1748e-05,-8.79331e-06,1.5151e-05,0.0103496,-0.00175866,0.0030302,0,0,0,0,0.0643519,0.51221,-0.993947,34.125,1,50017,44522764
107,1,-0.68635,-0.074638,9.78797,0.0634768,-0.627789,0.990455,-0.00686519,-0.000756719,0.0978795,1,5.1748e-05,-8.79331e-06,1.5151e-05,0.0103496,-0.00175866,0.0030302,0,0,0,0,0.0643519,0.51221,-0.993947,34.125,1,50017,44522764
107,2,-0.69422,-0.06687,9.78266,0.0549728,-0.618578,0.984269,-0.00694319,-0.00067889,0.0978265,1,5.1152e-05,-5.13754e-06,1.31314e-05,0.0102304,-0.00102751,0.00262628,0,0,0,0,0.0635415,0.511143,-0.988412,34.125,1,50018,44522864
108,1,-0.69422,-0.06687,9.78266,0.0549728,-0.618578,0.984269,-0.00694319,-0.00067889,0.0978265,1,5.1152e-05,-5.13754e-06,1.31314e-05,0.0102304,-0.00102751,0.00262628,0,0,0,0,0.0635415,0.511143,-0.988412,34.125,1,50018,44522864
108,2,-0.692845,-0.080298,9.7866,0.0584235,-0.631925,0.988227,-0.00692802,-0.000812468,0.0978659,1,4.59943e-05,1.91253e-06,3.50494e-05,0.00919886,0.000382507,0.00700988,0,0,0,0,0.0636278,0.51108,-0.984878,34.125,1,50019,44522964
108,3,-0.692845,-0.080298,9.7866,0.0584235,-0.631925,0.988227,-0.00692802,-0.000812468,0.0978659,1,4.59943e-05,1.91253e-06,3.50494e-05,0.00919886,0.000382507,0.00700988,0,0,0,0,0.0636278,0.51108,-0.984878,34.125,1,50019,44522964
108,4,-0.685975,-0.0708259,9.7836,0.0661358,-0.617454,0.980444,-0.00686209,-0.000718257,0.0978357,1,5.05187e-05,-1.20009e-05,8.19001e-06,0.0101037,-0.00240018,0.001638,0,0,0,0,0.0645127,0.513538,-0.986343,34.125,1,50020,44523064
109,1,-0.685975,-0.0708259,9.7836,0.0661358,-0.617454,0.980444,-0.00686209,-0.000718257,0.0978357,1,5.05187e-05,-1.20009e-05,8.19001e-06,0.0101037,-0.00240018,0.001638,0,0,0,0,0.0645127,0.513538,-0.986343,34.125,1,50020,44523064
109,2,-0.684512,-0.0760762,9.791,0.0667279,-0.621131,0.9827,-0.00684778,-0.000771801,0.0979098,1,5.54343e-05,-1.36977e-05,1.33941e-05,0.0110869,-0.00273955,0.00267881,0,0,0,0,0.0658369,0.514095,-0.990882,34.125,1,50021,44523164
109,3,-0.684512,-0.0760762,9.791,0.0667279,-0.621131,0.9827,-0.00684778,-0.000771801,0.0979098,1,5.54343e-05,-1.36977e-05,1.33941e-05,0.0110869,-0.00273955,0.00267881,0,0,0,0,0.0658369,0.514095,-0.990882,34.125,1,50021,44523164
109,4,-0.676396,-0.073903,9.78622,0.0743891,-0.623089,0.978095,-0.00676674,-0.000748608,0.0978619,1,4.68325e-05,-1.43928e-05,3.04262e-05,0.00936651,-0.00287856,0.00608524,0,0,0,0,0.0652325,0.514189,-0.995928,34.125,1,50022,44523264
110,1,-0.676396,-0.073903,9.78622,0.0743891,-0.623089,0.978095,-0.00676674,-0.000748608,0.0978619,1,4.68325e-05,-1.43928e-05,3.04262e-05,0.00936651,-0.00287856,0.00608524,0,0,0,0,0.0652325,0.514189,-0.995928,34.125,1,50022,44523264
110,2,-0.687715,-0.0661953,9.79314,0.0650738,-0.612947,0.991295,-0.00687947,-0.000672204,0.0979312,1,5.06434e-05,-1.19952e-05,2.41271e-05,0.0101287,-0.00239903,0.00482542,0,0,0,0,0.0633896,0.512218,-0.993943,34.125,1,50023,44523364
111,1,-0.687715,-0.0661953,9.79314,0.0650738,-0.612947,0.991295,-0.00687947,-0.000672204,0.0979312,1,5.06434e-05,-1.19952e-05,2.41271e-05,0.0101287,-0.00239903,0.00482542,0,0,0,0,0.0633896,0.512218,-0.993943,34.125,1,50023,44523364
111,2,-0.681767,-0.0882161,9.78681,0.0676406,-0.6394,0.988192,-0.0068198,-0.000889194,0.0978679,1,3.4701e-05,-1.10252e-05,1.76522e-05,0.00694021,-0.00220505,0.00353045,0,0,0,0,0.063105,0.509187,-0.987948,34.125,1,50024,44523464
111,3,-0.681767,-0.0882161,9.78681,0.0676406,-0.6394,0.988192,-0.0068198,-0.000889194,0.0978679,1,3.4701e-05,-1.10252e-05,1.76522e-05,0.00694021,-0.00220505,0.00353045,0,0,0,0,0.063105,0.509187,-0.987948,34.125,1,50024,44523464
111,4,-0.686618,-0.0722028,9.78393,0.0666628,-0.627494,0.982503,-0.00686833,-0.000733562,0.0978391,1,5.74683e-05,-1.11406e-05,2.10047e-05,0.0114937,-0.00222813,0.00420093,0,0,0,0,0.0646266,0.5096,-0.98441,34.125,1,50025,44523564
111,5,-0.686618,-0.0722028,9.78393,0.0666628,-0.627494,0.982503,-0.00686833,-0.000733562,0.0978391,1,5.74683e-05,-1.11406e-05,2.10047e-05,0.0114937,-0.00222813,0.00420093,0,0,0,0,0.0646266,0.5096,-0.98441,34.125,1,50025,44523564
111,6,-0.669226,-0.0772,9.78784,0.081638,-0.630452,0.988491,-0.0066942,-0.000783755,0.0978782,1,5.86957e-05,-1.00713e-05,1.97754e-05,0.0117391,-0.00201426,0.00395508,0,0,0,0,0.065956,0.513526,-0.986349,34.125,1,50026,44523664
112,1,-0.669226,-0.0772,9.78784,0.081638,-0.630452,0.988491,-0.0066942,-0.000783755,0.0978782,1,5.86957e-05,-1.00713e-05,1.97754e-05,0.0117391,-0.00201426,0.00395508,0,0,0,0,0.065956,0.513526,-0.986349,34.125,1,50026,44523664
112,2,-0.68286,-0.078125,9.79097,0.0658977,-0.630133,0.985006,-0.00683014,-0.000790514,0.0979095,1,4.58174e-05,-8.05024e-06,2.13943e-05,0.00916348,-0.00161005,0.00427886,0,0,0,0,0.0667992,0.514087,-0.990886,34.125,1,50027,44523764
113,1,-0.68286,-0.078125,9.79097,0.0658977,-0.630133,0.985006,-0.00683014,-0.000790514,0.0979095,1,4.58174e-05,-8.05024e-06,2.13943e-05,0.00916348,-0.00161005,0.00427886,0,0,0,0,0.0667992,0.514087,-0.990886,34.125,1,50027,44523764
113,2,-0.677589,-0.0763697,9.78144,0.0724646,-0.628186,0.974937,-0.00677614,-0.000772182,0.0978143,1,4.21293e-05,-1.43619e-06,1.79336e-05,0.00842586,-0.000287239,0.00358672,0,0,0,0,0.0647513,0.514193,-0.995925,34.125,1,50028,44523864
114,1,-0.677589,-0.0763697,9.78144,0.0724646,-0.628186,0.974937,-0.00677614,-0.000772182,0.0978143,1,4.21293e-05,-1.43619e-06,1.79336e-05,0.00842586,-0.000287239,0.00358672,0,0,0,0,0.0647513,0.514193,-0.995925,34.125,1,50028,44523864
114,2,-0.691519,-0.0720822,9.78565,0.0572181,-0.625563,0.985614,-0.00691577,-0.000728194,0.0978564,1,3.63215e-05,-3.08452e-06,1.90773e-05,0.00726431,-0.000616904,0.00381546,0,0,0,0,0.0634176,0.509788,-0.994502,34.125,1,50029,44523964
115,1,-0.691519,-0.0720822,9.78565,0.0572181,-0.625563,0.985614,-0.00691577,-0.000728194,0.0978564,1,3.63215e-05,-3.08452e-06,1.90773e-05,0.00726431,-0.000616904,0.00381546,0,0,0,0,0.0634176,0.509788,-0.994502,34.125,1,50029,44523964
115,2,-0.689056,-0.0713919,9.78327,0.0620333,-0.623901,0.985711,-0.00689246,-0.000721891,0.0978325,1,3.93316e-05,-9.87223e-06,2.00903e-05,0.00786633,-0.00197445,0.00401806,0,0,0,0,0.0630926,0.509196,-0.988453,34.125,1,50030,44524064
116,1,-0.689056,-0.0713919,9.78327,0.0620333,-0.623901,0.985711,-0.00689246,-0.000721891,0.0978325,1,3.93316e-05,-9.87223e-06,2.00903e-05,0.00786633,-0.00197445,0.00401806,0,0,0,0,0.0630926,0.509196,-0.988453,34.125,1,50030,44524064
116,2,-0.687028,-0.0740696,9.78934,0.0647182,-0.628789,0.989584,-0.00687132,-0.00075031,0.0978932,1,4.82016e-05,-5.40864e-06,1.28877e-05,0.00964031,-0.00108173,0.00257753,0,0,0,0,0.065092,0.512016,-0.983349,34.125,1,50031,44524164
116,3,-0.687028,-0.0740696,9.78934,0.0647182,-0.628789,0.989584,-0.00687132,-0.00075031,0.0978932,1,4.82016e-05,-5.40864e-06,1.28877e-05,0.00964031,-0.00108173,0.00257753,0,0,0,0,0.065092,0.512016,-0.983349,34.125,1,50031,44524164
116,4,-0.686336,-0.0676137,9.77752,0.0657436,-0.62046,0.973921,-0.00686683,-0.00068802,0.0977749,1,5.87813e-05,-1.79356e-05,2.83178e-05,0.0117563,-0.00358713,0.00566356,0,0,0,0,0.0659522,0.514492,-0.985823,34.125,1,50032,44524264
117,1,-0.686336,-0.0676137,9.77752,0.0657436,-0.62046,0.973921,-0.00686683,-0.00068802,0.0977749,1,5.87813e-05,-1.79356e-05,2.83178e-05,0.0117563,-0.00358713,0.00566356,0,0,0,0,0.0659522,0.514492,-0.985823,34.125,1,50032,44524264
117,2,-0.689443,-0.0760216,9.77577,0.0561768,-0.62849,0.969806,-0.00689632,-0.000768898,0.0977575,1,4.26732e-05,-9.86267e-06,2.45869e-05,0.00853464,-0.00197253,0.00491739,0,0,0,0,0.0643243,0.516085,-0.992346,34.125,1,50033,44524364
117,3,-0.689443,-0.0760216,9.77577,0.0561768,-0.62849,0.969806,-0.00689632,-0.000768898,0.0977575,1,4.26732e-05,-9.86267e-06,2.45869e-05,0.00853464,-0.00197253,0.00491739,0,0,0,0,0.0643243,0.516085,-0.992346,34.125,1,50033,44524364
117,4,-0.680472,-0.0799406,9.80247,0.0665445,-0.634251,0.992115,-0.00680477,-0.000807204,0.0980246,1,3.8337e-05,-4.20675e-07,2.07386e-05,0.0076674,-8.41351e-05,0.00414773,0,0,0,0,0.0642418,0.515181,-0.996406,34.125,1,50034,44524464
118,1,-0.680472,-0.0799406,9.80247,0.0665445,-0.634251,0.992115,-0.00680477,-0.000807204,0.0980246,1,3.8337e-05,-4.20675e-07,2.07386e-05,0.0076674,-8.41351e-05,0.00414773,0,0,0,0,0.0642418,0.515181,-0.996406,34.125,1,50034,44524464
118,2,-0.690637,-0.0814526,9.78286,0.0594655,-0.641312,0.980964,-0.0069084,-0.000824637,0.0978284,1,5.09806e-05,-1.04721e-05,9.82888e-06,0.0101961,-0.00209442,0.00196578,0,0,0,0,0.0628838,0.51224,-0.99495,34.125,1,50035,44524564
118,3,-0.690637,-0.0814526,9.78286,0.0594655,-0.641312,0.980964,-0.0069084,-0.000824637,0.0978284,1,5.09806e-05,-1.04721e-05,9.82888e-06,0.0101961,-0.00209442,0.00196578,0,0,0,0,0.0628838,0.51224,-0.99495,34.125,1,50035,44524564
118,4,-0.695532,-0.0737466,9.78566,0.0547741,-0.633378,0.989111,-0.00695682,-0.000748485,0.0978564,1,5.51883e-05,-7.79518e-06,1.56554e-05,0.0110377,-0.00155904,0.00313109,0,0,0,0,0.0625052,0.511205,-0.991436,34.125,1,50036,44524664
118,5,-0.695532,-0.0737466,9.78566,0.0547741,-0.633378,0.989111,-0.00695682,-0.000748485,0.0978564,1,5.51883e-05,-7.79518e-06,1.56554e-05,0.0110377,-0.00155904,0.00313109,0,0,0,0,0.0625052,0.511205,-0.991436,34.125,1,50036,44524664
118,6,-0.678567,-0.0755753,9.77706,0.0696998,-0.630944,0.976971,-0.00678709,-0.000764077,0.0977704,1,4.09893e-05,-7.44334e-06,2.27243e-05,0.00819787,-0.00148867,0.00454486,0,0,0,0,0.0640311,0.512096,-0.987382,34.125,1,50037,44524764
119,1,-0.678567,-0.0755753,9.77706,0.0696998,-0.630944,0.976971,-0.00678709,-0.000764077,0.0977704,1,4.09893e-05,-7.44334e-06,2.27243e-05,0.00819787,-0.00148867,0.00454486,0,0,0,0,0.0640311,0.512096,-0.987382,34.125,1,50037,44524764
119,2,-0.684174,-0.0788908,9.78521,0.0609546,-0.633564,0.98251,-0.00684538,-0.000797522,0.0978518,1,4.32636e-05,-1.86862e-05,1.06914e-05,0.00865272,-0.00373725,0.00213829,0,0,0,0,0.0640074,0.515005,-0.986308,34.125,1,50038,44524864
119,3,-0.684174,-0.0788908,9.78521,0.0609546,-0.633564,0.98251,-0.00684538,-0.000797522,0.0978518,1,4.32636e-05,-1.86862e-05,1.06914e-05,0.00865272,-0.00373725,0.00213829,0,0,0,0,0.0640074,0.515005,-0.986308,34.125,1,50038,44524864
119,4,-0.680616,-0.0709737,9.79474,0.0669667,-0.625804,0.988737,-0.00680635,-0.00071905,0.0979473,1,4.70579e-05,-1.02068e-06,6.96073e-06,0.00941157,-0.000204135,0.00139215,0,0,0,0,0.0663057,0.5141,-0.991389,34.125,1,50039,44524964
120,1,-0.680616,-0.0709737,9.79474,0.0669667,-0.625804,0.988737,-0.00680635,-0.00071905,0.0979473,1,4.70579e-05,-1.02068e-06,6.96073e-06,0.00941157,-0.000204135,0.00139215,0,0,0,0,0.0663057,0.5141,-0.991389,34.125,1,50039,44524964
120,2,-0.684059,-0.0705398,9.78528,0.0676372,-0.631476,0.97967,-0.00684034,-0.00071524,0.0978527,1,4.92577e-05,1.13627e-06,1.47389e-05,0.00985154,0.000227254,0.00294779,0,0,0,0,0.0657255,0.51273,-0.996467,34.125,1,50040,44525064
120,3,-0.684059,-0.0705398,9.78528,0.0676372,-0.631476,0.97967,-0.00684034,-0.00071524,0.0978527,1,4.92577e-05,1.13627e-06,1.47389e-05,0.00985154,0.000227254,0.00294779,0,0,0,0,0.0657255,0.51273,-0.996467,34.125,1,50040,44525064
120,4,-0.678097,-0.0757234,9.77876,0.0673066,-0.633078,0.979857,-0.00678525,-0.000764677,0.0977872,1,3.69494e-05,-2.20051e-05,1.59237e-05,0.00738988,-0.00440103,0.00318475,0,0,0,0,0.065326,0.510747,-0.994489,34.125,1,50041,44525164
121,1,-0.678097,-0.0757234,9.77876,0.0673066,-0.633078,0.979857,-0.00678525,-0.000764677,0.0977872,1,3.69494e-05,-2.20051e-05,1.59237e-05,0.00738988,-0.00440103,0.00318475,0,0,0,0,0.065326,0.510747,-0.994489,34.125,1,50041,44525164
121,2,-0.674221,-0.0667644,9.7832,0.073453,-0.624656,0.986171,-0.00674335,-0.00067656,0.0978319,1,4.40888e-05,-5.96214e-06,2.14913e-05,0.00881776,-0.00119243,0.00429826,0,0,0,0,0.0635372,0.510664,-0.988927,34.125,1,50042,44525264
122,1,-0.674221,-0.0667644,9.7832,0.073453,-0.624656,0.986171,-0.00674335,-0.00067656,0.0978319,1,4.40888e-05,-5.96214e-06,2.14913e-05,0.00881776,-0.00119243,0.00429826,0,0,0,0,0.0635372,0.510664,-0.988927,34.125,1,50042,44525264
122,2,-0.684492,-0.0750288,9.79305,0.0649364,-0.630649,0.991564,-0.00684786,-0.000760949,0.0979302,1,5.2305e-05,-1.52475e-05,3.04095e-05,0.010461,-0.00304951,0.00608189,0,0,0,0,0.0645696,0.511569,-0.985376,34.125,1,50043,44525364
122,3,-0.684492,-0.0750288,9.79305,0.0649364,-0.630649,0.991564,-0.00684786,-0.000760949,0.0979302,1,5.2305e-05,-1.52475e-05,3.04095e-05,0.010461,-0.00304951,0.00608189,0,0,0,0,0.0645696,0.511569,-0.985376,34.125,1,50043,44525364
122,4,-0.696701,-0.0857469,9.78829,0.0501647,-0.64169,0.9866,-0.00697029,-0.000867194,0.0978826,1,4.82741e-05,-1.69205e-05,1.97012e-05,0.00965482,-0.0033841,0.00394024,0,0,0,0,0.0654298,0.514045,-0.987851,34.125,1,50044,44525464
123,1,-0.696701,-0.0857469,9.78829,0.0501647,-0.64169,0.9866,-0.00697029,-0.000867194,0.0978826,1,4.82741e-05,-1.69205e-05,1.97012e-05,0.00965482,-0.0033841,0.00394024,0,0,0,0,0.0654298,0.514045,-0.987851,34.125,1,50044,44525464
123,2,-0.684511,-0.0715769,9.78528,0.05548,-0.627102,0.978833,-0.006848,-0.000726518,0.0978525,1,5.31787e-05,-1.49761e-05,2.4998e-05,0.0106357,-0.00299523,0.00499961,0,0,0,0,0.0648177,0.516072,-0.991843,34.125,1,50045,44525564
123,3,-0.684511,-0.0715769,9.78528,0.05548,-0.627102,0.978833,-0.006848,-0.000726518,0.0978525,1,5.31787e-05,-1.49761e-05,2.4998e-05,0.0106357,-0.00299523,0.00499961,0,0,0,0,0.0648177,0.516072,-0.991843,34.125,1,50045,44525564
123,4,-0.692561,-0.0774762,9.77848,0.0532914,-0.638945,0.9724,-0.00692628,-0.000783834,0.0977847,1,4.51747e-05,-3.57818e-06,1.71029e-05,0.00903494,-0.000715635,0.00342058,0,0,0,0,0.0642992,0.514657,-0.994398,34.125,1,50046,44525664
123,5,-0.692561,-0.0774762,9.77848,0.0532914,-0.638945,0.9724,-0.00692628,-0.000783834,0.0977847,1,4.51747e-05,-3.57818e-06,1.71029e-05,0.00903494,-0.000715635,0.00342058,0,0,0,0,0.0642992,0.514657,-0.994398,34.125,1,50046,44525664
123,6,-0.689853,-0.0808572,9.7825,0.0585771,-0.640557,0.975687,-0.00689695,-0.000817172,0.0978251,1,4.37461e-05,8.03715e-06,2.94659e-06,0.00874922,0.00160743,0.000589317,0,0,0,0,0.0643557,0.511243,-0.994474,34.125,1,50047,44525764
124,1,-0.689853,-0.0808572,9.7825,0.0585771,-0.640557,0.975687,-0.00689695,-0.000817172,0.0978251,1,4.37461e-05,8.03715e-06,2.94659e-06,0.00874922,0.00160743,0.000589317,0,0,0,0,0.0643557,0.511243,-0.994474,34.125,1,50047,44525764
124,2,-0.693814,-0.0709585,9.78433,0.0511162,-0.63499,0.986817,-0.00694038,-0.000719315,0.097843,1,4.87845e-05,-1.15466e-05,1.32638e-05,0.00975691,-0.00230931,0.00265276,0,0,0,0,0.063504,0.509725,-0.990968,34.125,1,50048,44525864
124,3,-0.693814,-0.0709585,9.78433,0.0511162,-0.63499,0.986817,-0.00694038,-0.000719315,0.097843,1,4.87845e-05,-1.15466e-05,1.32638e-05,0.00975691,-0.00230931,0.00265276,0,0,0,0,0.063504,0.509725,-0.990968,34.125,1,50048,44525864
124,4,-0.685814,-0.0701925,9.78325,0.0602893,-0.630145,0.983193,-0.00685769,-0.000712883,0.0978324,1,5.41619e-05,2.09197e-06,2.62671e-05,0.0108324,0.000418394,0.00525342,0,0,0,0,0.0635827,0.511595,-0.986381,34.125,1,50049,44525964
125,1,-0.685814,-0.0701925,9.78325,0.0602893,-0.630145,0.983193,-0.00685769,-0.000712883,0.0978324,1,5.41619e-05,2.09197e-06,2.62671e-05,0.0108324,0.000418394,0.00525342,0,0,0,0,0.0635827,0.511595,-0.986381,34.125,1,50049,44525964
125,2,-0.682512,-0.0699634,9.79206,0.0669151,-0.630967,0.985986,-0.00682943,-0.000708283,0.0979202,1,4.2783e-05,-2.21413e-05,1.98318e-05,0.0085566,-0.00442825,0.00396636,0,0,0,0,0.0644557,0.515507,-0.987309,34.125,1,50050,44526064
125,3,-0.682512,-0.0699634,9.79206,0.0669151,-0.630967,0.985986,-0.00682943,-0.000708283,0.0979202,1,4.2783e-05,-2.21413e-05,1.98318e-05,0.0085566,-0.00442825,0.00396636,0,0,0,0,0.0644557,0.515507,-0.987309,34.125,1,50050,44526064
125,4,-0.687882,-0.0785538,9.79033,0.059336,-0.639125,0.988645,-0.00688056,-0.000793453,0.0979031,1,3.9341e-05,-9.04114e-06,1.53517e-05,0.0078682,-0.00180823,0.00307033,0,0,0,0,0.0662734,0.516051,-0.991345,34.125,1,50051,44526164
126,1,-0.687882,-0.0785538,9.79033,0.059336,-0.639125,0.988645,-0.00688056,-0.000793453,0.0979031,1,3.9341e-05,-9.04114e-06,1.53517e-05,0.0078682,-0.00180823,0.00307033,0,0,0,0,0.0662734,0.516051,-0.991345,34.125,1,50051,44526164
126,2,-0.678044,-0.093125,9.79046,0.0684595,-0.655536,0.986274,-0.00678147,-0.000940087,0.0979045,1,4.35467e-05,-5.48553e-06,2.29013e-05,0.00870935,-0.00109711,0.00458027,0,0,0,0,0.0662279,0.51512,-0.993891,34.125,1,50052,44526264
126,3,-0.678044,-0.093125,9.79046,0.0684595,-0.655536,0.986274,-0.00678147,-0.000940087,0.0979045,1,4.35467e-05,-5.48553e-06,2.29013e-05,0.00870935,-0.00109711,0.00458027,0,0,0,0,0.0662279,0.51512,-0.993891,34.125,1,50052,44526264
126,4,-0.682498,-0.0693651,9.79545,0.0639668,-0.631708,0.994188,-0.00682878,-0.000701424,0.0979542,1,3.79736e-05,-1.96138e-05,2.44418e-05,0.00759472,-0.00392275,0.00488836,0,0,0,0,0.0648534,0.511709,-0.993456,34.125,1,50053,44526364
127,1,-0.682498,-0.0693651,9.79545,0.0639668,-0.631708,0.994188,-0.00682878,-0.000701424,0.0979542,1,3.79736e-05,-1.96138e-05,2.44418e-05,0.00759472,-0.00392275,0.00488836,0,0,0,0,0.0648534,0.511709,-0.993456,34.125,1,50053,44526364
127,2,-0.680249,-0.0677386,9.78494,0.0653718,-0.625876,0.986164,-0.0068047,-0.000687534,0.0978491,1,4.99096e-05,-1.14586e-05,2.79863e-05,0.00998193,-0.00229172,0.00559726,0,0,0,0,0.0635249,0.510673,-0.989432,34.125,1,50054,44526464
127,3,-0.680249,-0.0677386,9.78494,0.0653718,-0.625876,0.986164,-0.0068047,-0.000687534,0.0978491,1,4.99096e-05,-1.14586e-05,2.79863e-05,0.00998193,-0.00229172,0.00559726,0,0,0,0,0.0635249,0.510673,-0.989432,34.125,1,50054,44526464
127,4,-0.690068,-0.0744226,9.78901,0.0531431,-0.632428,0.989305,-0.00690243,-0.000752878,0.09789,1,4.26229e-05,-9.12866e-06,2.22252e-05,0.00852458,-0.00182573,0.00444504,0,0,0,0,0.0626371,0.512072,-0.985356,34.125,1,50055,44526564
128,1,-0.690068,-0.0744226,9.78901,0.0531431,-0.632428,0.989305,-0.00690243,-0.000752878,0.09789,1,4.26229e-05,-9.12866e-06,2.22252e-05,0.00852458,-0.00182573,0.00444504,0,0,0,0,0.0626371,0.512072,-0.985356,34.125,1,50055,44526564
128,2,-0.690585,-0.0750815,9.78425,0.0526002,-0.634273,0.977787,-0.00690595,-0.000759889,0.0978424,1,4.48914e-05,-6.96326e-07,2.09682e-05,0.00897828,-0.000139265,0.00419363,0,0,0,0,0.0649653,0.514518,-0.986828,34.125,1,50056,44526664
128,3,-0.690585,-0.0750815,9.78425,0.0526002,-0.634273,0.977787,-0.00690595,-0.000759889,0.0978424,1,4.48914e-05,-6.96326e-07,2.09682e-05,0.00897828,-0.000139265,0.00419363,0,0,0,0,0.0649653,0.514518,-0.986828,34.125,1,50056,44526664
128,4,-0.68637,-0.0847406,9.794,0.0598463,-0.645186,0.984665,-0.00686797,-0.000855495,0.0979396,1,4.08181e-05,-2.18487e-05,6.75012e-06,0.00816362,-0.00436973,0.00135002,0,0,0,0,0.0658412,0.514573,-0.990366,34.125,1,50057,44526764
129,1,-0.68637,-0.0847406,9.794,0.0598463,-0.645186,0.984665,-0.00686797,-0.000855495,0.0979396,1,4.08181e-05,-2.18487e-05,6.75012e-06,0.00816362,-0.00436973,0.00135002,0,0,0,0,0.0658412,0.514573,-0.990366,34.125,1,50057,44526764
129,2,-0.679381,-0.0732181,9.78148,0.0635749,-0.638581,0.9755,-0.00679381,-0.000743177,0.0978147,1,5.51305e-05,-1.17399e-07,1.55273e-05,0.0110261,-2.34799e-05,0.00310547,0,0,0,0,0.0633573,0.514169,-0.993899,34.125,1,50058,44526864
130,1,-0.679381,-0.0732181,9.78148,0.0635749,-0.638581,0.9755,-0.00679381,-0.000743177,0.0978147,1,5.51305e-05,-1.17399e-07,1.55273e-05,0.0110261,-2.34799e-05,0.00310547,0,0,0,0,0.0633573,0.514169,-0.993899,34.125,1,50058,44526864
130,2,-0.68457,-0.0776547,9.78251,0.0607533,-0.64316,0.981851,-0.00684806,-0.000786613,0.0978248,1,4.96544e-05,-1.22563e-05,2.56076e-05,0.00993088,-0.00245126,0.00512152,0,0,0,0,0.0633815,0.512705,-0.993932,34.125,1,50059,44526964
130,3,-0.68457,-0.0776547,9.78251,0.0607533,-0.64316,0.981851,-0.00684806,-0.000786613,0.0978248,1,4.96544e-05,-1.22563e-05,2.56076e-05,0.00993088,-0.00245126,0.00512152,0,0,0,0,0.0633815,0.512705,-0.993932,34.125,1,50059,44526964
130,4,-0.69305,-0.0739591,9.78633,0.052885,-0.631848,0.983326,-0.00693408,-0.000750096,0.0978629,1,5.21374e-05,-1.84508e-05,2.17112e-05,0.0104275,-0.00369016,0.00434225,0,0,0,0,0.0629991,0.512637,-0.989891,34.125,1,50060,44527064
131,1,-0.69305,-0.0739591,9.78633,0.052885,-0.631848,0.983326,-0.00693408,-0.000750096,0.0978629,1,5.21374e-05,-1.84508e-05,2.17112e-05,0.0104275,-0.00369016,0.00434225,0,0,0,0,0.0629991,0.512637,-0.989891,34.125,1,50060,44527064
131,2,-0.676368,-0.0754044,9.79129,0.0665254,-0.639961,0.985838,-0.00676581,-0.000762556,0.0979127,1,4.23454e-05,-1.09709e-05,1.62197e-05,0.00846909,-0.00219418,0.00324395,0,0,0,0,0.0650099,0.512558,-0.986367,34.125,1,50061,44527164
131,3,-0.676368,-0.0754044,9.79129,0.0665254,-0.639961,0.985838,-0.00676581,-0.000762556,0.0979127,1,4.23454e-05,-1.09709e-05,1.62197e-05,0.00846909,-0.00219418,0.00324395,0,0,0,0,0.0650099,0.512558,-0.986367,34.125,1,50061,44527164
131,4,-0.681209,-0.0801441,9.78415,0.0598832,-0.64403,0.977909,-0.0068131,-0.000809685,0.0978414,1,4.0643e-05,-5.33823e-06,2.13402e-05,0.00812859,-0.00106765,0.00426805,0,0,0,0,0.0668485,0.514051,-0.988867,34.125,1,50062,44527264
132,1,-0.681209,-0.0801441,9.78415,0.0598832,-0.64403,0.977909,-0.0068131,-0.000809685,0.0978414,1,4.0643e-05,-5.33823e-06,2.13402e-05,0.00812859,-0.00106765,0.00426805,0,0,0,0,0.0668485,0.514051,-0.988867,34.125,1,50062,44527264
132,2,-0.676735,-0.0779664,9.79466,0.0713957,-0.636435,0.985582,-0.00676915,-0.00078647,0.0979465,1,3.28664e-05,-9.38402e-06,2.7148e-05,0.00657328,-0.0018768,0.00542961,0,0,0,0,0.0667584,0.51508,-0.991874,34.125,1,50063,44527364
132,3,-0.676735,-0.0779664,9.79466,0.0713957,-0.636435,0.985582,-0.00676915,-0.00078647,0.0979465,1,3.28664e-05,-9.38402e-06,2.7148e-05,0.00657328,-0.0018768,0.00542961,0,0,0,0,0.0667584,0.51508,-0.991874,34.125,1,50063,44527364
132,4,-0.686393,-0.0706149,9.7914,0.0542827,-0.636846,0.987923,-0.00686469,-0.000716183,0.0979138,1,4.90359e-05,-4.11085e-06,3.13912e-05,0.00980718,-0.00082217,0.00627825,0,0,0,0,0.0647395,0.515647,-0.995388,34.125,1,50064,44527464
132,5,-0.686393,-0.0706149,9.7914,0.0542827,-0.636846,0.987923,-0.00686469,-0.000716183,0.0979138,1,4.90359e-05,-4.11085e-06,3.13912e-05,0.00980718,-0.00082217,0.00627825,0,0,0,0,0.0647395,0.515647,-0.995388,34.125,1,50064,44527464
132,6,-0.681114,-0.0838106,9.79091,0.0600146,-0.649506,0.990589,-0.00681381,-0.000848965,0.0979089,1,5.43053e-05,-1.3795e-05,1.65089e-05,0.0108611,-0.002759,0.00330178,0,0,0,0,0.0623657,0.512271,-0.996462,34.125,1,50065,44527564
133,1,-0.681114,-0.0838106,9.79091,0.0600146,-0.649506,0.990589,-0.00681381,-0.000848965,0.0979089,1,5.43053e-05,-1.3795e-05,1.65089e-05,0.0108611,-0.002759,0.00330178,0,0,0,0,0.0623657,0.512271,-0.996462,34.125,1,50065,44527564
133,2,-0.689021,-0.0761686,9.78526,0.0603177,-0.637551,0.981713,-0.00689276,-0.0007698,0.0978524,1,4.0261e-05,-1.31616e-05,1.70377e-05,0.0080522,-0.00263232,0.00340754,0,0,0,0,0.0610941,0.509266,-0.991472,34.125,1,50066,44527664
133,3,-0.689021,-0.0761686,9.78526,0.0603177,-0.637551,0.981713,-0.00689276,-0.0007698,0.0978524,1,4.0261e-05,-1.31616e-05,1.70377e-05,0.0080522,-0.00263232,0.00340754,0,0,0,0,0.0610941,0.509266,-0.991472,34.125,1,50066,44527664
133,4,-0.69226,-0.0838619,9.79268,0.0527593,-0.648237,0.99592,-0.00692547,-0.000850251,0.0979265,1,5.82859e-05,-1.48099e-05,1.56686e-05,0.0116572,-0.00296198,0.00313373,0,0,0,0,0.0636235,0.510601,-0.985394,34.125,1,50067,44527764
134,1,-0.69226,-0.0838619,9.79268,0.0527593,-0.648237,0.99592,-0.00692547,-0.000850251,0.0979265,1,5.82859e-05,-1.48099e-05,1.56686e-05,0.0116572,-0.00296198,0.00313373,0,0,0,0,0.0636235,0.510601,-0.985394,34.125,1,50067,44527764
134,2,-0.687288,-0.0709734,9.78361,0.0559591,-0.633323,0.981939,-0.00687603,-0.000719789,0.0978358,1,5.0392e-05,-1.62312e-05,1.42024e-05,0.0100784,-0.00324624,0.00284049,0,0,0,0,0.0664495,0.513513,-0.985847,34.125,1,50068,44527864
134,3,-0.687288,-0.0709734,9.78361,0.0559591,-0.633323,0.981939,-0.00687603,-0.000719789,0.0978358,1,5.0392e-05,-1.62312e-05,1.42024e-05,0.0100784,-0.00324624,0.00284049,0,0,0,0,0.0664495,0.513513,-0.985847,34.125,1,50068,44527864
134,4,-0.690025,-0.0807157,9.7954,0.0543998,-0.645429,0.992722,-0.00690093,-0.000814197,0.0979539,1,3.51295e-05,-3.55021e-06,1.1474e-05,0.00702589,-0.000710043,0.0022948,0,0,0,0,0.0653316,0.515562,-0.990847,34.125,1,50069,44527964
135,1,-0.690025,-0.0807157,9.7954,0.0543998,-0.645429,0.992722,-0.00690093,-0.000814197,0.0979539,1,3.51295e-05,-3.55021e-06,1.1474e-05,0.00702589,-0.000710043,0.0022948,0,0,0,0,0.0653316,0.515562,-0.990847,34.125,1,50069,44527964
135,2,-0.682453,-0.069466,9.78732,0.0612667,-0.636447,0.978611,-0.00682991,-0.000705563,0.0978728,1,5.40968e-05,-2.76583e-05,2.3028e-05,0.0108194,-0.00553166,0.0046056,0,0,0,0,0.0642906,0.5137,-0.995429,34.125,1,50070,44528064
136,1,-0.682453,-0.069466,9.78732,0.0612667,-0.636447,0.978611,-0.00682991,-0.000705563,0.0978728,1,5.40968e-05,-2.76583e-05,2.3028e-05,0.0108194,-0.00553166,0.0046056,0,0,0,0,0.0642906,0.5137,-0.995429,34.125,1,50070,44528064
136,2,-0.672714,-0.0708251,9.78757,0.0722149,-0.639417,0.981223,-0.00672879,-0.000716612,0.0978755,1,4.14178e-05,-8.55322e-06,1.87903e-05,0.00828357,-0.00171064,0.00375805,0,0,0,0,0.0634138,0.510754,-0.993975,34.125,1,50071,44528164
137,1,-0.672714,-0.0708251,9.78757,0.0722149,-0.639417,0.981223,-0.00672879,-0.000716612,0.0978755,1,4.14178e-05,-8.55322e-06,1.87903e-05,0.00828357,-0.00171064,0.00375805,0,0,0,0,0.0634138,0.510754,-0.993975,34.125,1,50071,44528164
137,2,-0.684117,-0.0758706,9.79508,0.061232,-0.640592,0.993248,-0.00684371,-0.000765662,0.0979505,1,3.45932e-05,-1.30251e-05,1.31278e-05,0.00691864,-0.00260503,0.00262556,0,0,0,0,0.0601774,0.510204,-0.988922,34.125,1,50072,44528264
137,3,-0.684117,-0.0758706,9.79508,0.061232,-0.640592,0.993248,-0.00684371,-0.000765662,0.0979505,1,3.45932e-05,-1.30251e-05,1.31278e-05,0.00691864,-0.00260503,0.00262556,0,0,0,0,0.0601774,0.510204,-0.988922,34.125,1,50072,44528264
137,4,-0.687593,-0.0744522,9.79613,0.0534442,-0.640627,0.994262,-0.00687892,-0.000753541,0.097961,1,4.49362e-05,-1.53949e-05,1.56203e-05,0.00898724,-0.00307897,0.00312407,0,0,0,0,0.0611976,0.511118,-0.985876,34.125,1,50073,44528364
138,1,-0.687593,-0.0744522,9.79613,0.0534442,-0.640627,0.994262,-0.00687892,-0.000753541,0.097961,1,4.49362e-05,-1.53949e-05,1.56203e-05,0.00898724,-0.00307897,0.00312407,0,0,0,0,0.0611976,0.511118,-0.985876,34.125,1,50073,44528364
138,2,-0.675452,-0.077543,9.79126,0.0700573,-0.643847,0.988197,-0.00675495,-0.000783679,0.0979125,1,4.10192e-05,-2.32302e-06,1.60485e-05,0.00820384,-0.000464605,0.0032097,0,0,0,0,0.0644633,0.513574,-0.988362,34.125,1,50074,44528464
138,3,-0.675452,-0.077543,9.79126,0.0700573,-0.643847,0.988197,-0.00675495,-0.000783679,0.0979125,1,4.10192e-05,-2.32302e-06,1.60485e-05,0.00820384,-0.000464605,0.0032097,0,0,0,0,0.0644633,0.513574,-0.988362,34.125,1,50074,44528464
138,4,-0.686828,-0.0705796,9.78325,0.0590598,-0.637675,0.976459,-0.0068685,-0.000713106,0.0978325,1,3.67108e-05,-1.17526e-06,9.18862e-06,0.00734216,-0.000235052,0.00183773,0,0,0,0,0.0663057,0.5141,-0.991389,34.125,1,50075,44528564
139,1,-0.686828,-0.0705796,9.78325,0.0590598,-0.637675,0.976459,-0.0068685,-0.000713106,0.0978325,1,3.67108e-05,-1.17526e-06,9.18862e-06,0.00734216,-0.000235052,0.00183773,0,0,0,0,0.0663057,0.5141,-0.991389,34.125,1,50075,44528564
139,2,-0.686737,-0.0829288,9.79063,0.0522857,-0.650175,0.98304,-0.00687097,-0.000840513,0.0979059,1,5.64736e-05,-1.84514e-05,1.21384e-05,0.0112947,-0.00369027,0.00242767,0,0,0,0,0.0638261,0.514174,-0.994406,34.125,1,50076,44528664
139,3,-0.686737,-0.0829288,9.79063,0.0522857,-0.650175,0.98304,-0.00687097,-0.000840513,0.0979059,1,5.64736e-05,-1.84514e-05,1.21384e-05,0.0112947,-0.00369027,0.00242767,0,0,0,0,0.0638261,0.514174,-0.994406,34.125,1,50076,44528664
139,4,-0.686177,-0.070613,9.78461,0.0539784,-0.636387,0.980528,-0.00686219,-0.000713971,0.097846,1,3.91248e-05,-2.22595e-06,1.34356e-05,0.00782495,-0.00044519,0.00268712,0,0,0,0,0.0624397,0.512217,-0.993433,34.125,1,50077,44528764
140,1,-0.686177,-0.070613,9.78461,0.0539784,-0.636387,0.980528,-0.00686219,-0.000713971,0.097846,1,3.91248e-05,-2.22595e-06,1.34356e-05,0.00782495,-0.00044519,0.00268712,0,0,0,0,0.0624397,0.512217,-0.993433,34.125,1,50077,44528764
140,2,-0.678525,-0.0760013,9.78451,0.0678613,-0.64728,0.98338,-0.00678643,-0.000769272,0.097845,1,4.57354e-05,-6.19159e-06,2.27205e-05,0.00914708,-0.00123832,0.0045441,0,0,0,0,0.0635206,0.510194,-0.989948,34.125,1,50078,44528864
140,3,-0.678525,-0.0760013,9.78451,0.0678613,-0.64728,0.98338,-0.00678643,-0.000769272,0.097845,1,4.57354e-05,-6.19159e-06,2.27205e-05,0.00914708,-0.00123832,0.0045441,0,0,0,0,0.0635206,0.510194,-0.989948,34.125,1,50078,44528864
140,4,-0.683802,-0.0822983,9.79128,0.0583779,-0.649031,0.987565,-0.00684072,-0.000832752,0.0979126,1,4.82928e-05,-1.39494e-05,2.27409e-05,0.00965857,-0.00278989,0.00454819,0,0,0,0,0.0654949,0.511588,-0.986896,34.125,1,50079,44528964
141,1,-0.683802,-0.0822983,9.79128,0.0583779,-0.649031,0.987565,-0.00684072,-0.000832752,0.0979126,1,4.82928e-05,-1.39494e-05,2.27409e-05,0.00965857,-0.00278989,0.00454819,0,0,0,0,0.0654949,0.511588,-0.986896,34.125,1,50079,44528964
141,2,-0.687232,-0.0852899,9.78314,0.0532709,-0.652701,0.984277,-0.00687622,-0.000862405,0.097831,1,4.62159e-05,-2.02392e-05,3.36639e-05,0.00924318,-0.00404784,0.00673278,0,0,0,0,0.0658863,0.514059,-0.988863,34.125,1,50080,44529064
141,3,-0.687232,-0.0852899,9.78314,0.0532709,-0.652701,0.984277,-0.00687622,-0.000862405,0.097831,1,4.62159e-05,-2.02392e-05,3.36639e-05,0.00924318,-0.00404784,0.00673278,0,0,0,0,0.0658863,0.514059,-0.988863,34.125,1,50080,44529064
141,4,-0.676802,-0.0749253,9.78485,0.0643301,-0.643217,0.978438,-0.00676979,-0.000759065,0.0978483,1,4.93713e-05,-9.11383e-06,1.11572e-05,0.00987426,-0.00182277,0.00223144,0,0,0,0,0.0658042,0.5146,-0.991881,34.125,1,50081,44529164
141,5,-0.676802,-0.0749253,9.78485,0.0643301,-0.643217,0.978438,-0.00676979,-0.000759065,0.0978483,1,4.93713e-05,-9.11383e-06,1.11572e-05,0.00987426,-0.00182277,0.00223144,0,0,0,0,0.0658042,0.5146,-0.991881,34.125,1,50081,44529164
141,6,-0.704356,-0.0785309,9.78195,0.0376671,-0.64568,0.974499,-0.00704515,-0.000796089,0.0978193,1,5.3471e-05,-8.32392e-06,2.26032e-05,0.0106942,-0.00166478,0.00452065,0,0,0,0,0.0638304,0.514652,-0.993891,34.125,1,50082,44529264
142,1,-0.704356,-0.0785309,9.78195,0.0376671,-0.64568,0.974499,-0.00704515,-0.000796089,0.0978193,1,5.3471e-05,-8.32392e-06,2.26032e-05,0.0106942,-0.00166478,0.00452065,0,0,0,0,0.0638304,0.514652,-0.993891,34.125,1,50082,44529264
142,2,-0.684556,-0.0780951,9.78725,0.0527374,-0.651042,0.98567,-0.00684851,-0.000791148,0.0978723,1,5.06322e-05,-1.52141e-05,2.09159e-05,0.0101264,-0.00304281,0.00418317,0,0,0,0,0.0624393,0.510771,-0.994475,34.125,1,50083,44529364
142,3,-0.684556,-0.0780951,9.78725,0.0527374,-0.651042,0.98567,-0.00684851,-0.000791148,0.0978723,1,5.06322e-05,-1.52141e-05,2.09159e-05,0.0101264,-0.00304281,0.00418317,0,0,0,0,0.0624393,0.510771,-0.994475,34.125,1,50083,44529364
142,4,-0.699184,-0.0821357,9.79376,0.0395942,-0.651038,0.99393,-0.00699236,-0.000831349,0.0979375,1,4.97214e-05,-2.82814e-06,1.80694e-05,0.00994428,-0.000565628,0.00361389,0,0,0,0,0.0611065,0.509257,-0.990968,34.125,1,50084,44529464
143,1,-0.699184,-0.0821357,9.79376,0.0395942,-0.651038,0.99393,-0.00699236,-0.000831349,0.0979375,1,4.97214e-05,-2.82814e-06,1.80694e-05,0.00994428,-0.000565628,0.00361389,0,0,0,0,0.0611065,0.509257,-0.990968,34.125,1,50084,44529464
143,2,-0.701252,-0.0727667,9.78233,0.0374242,-0.644225,0.979849,-0.0070148,-0.000737384,0.097823,1,4.77156e-05,-1.18612e-05,2.7185e-05,0.00954311,-0.00237224,0.005437,0,0,0,0,0.0635457,0.511622,-0.987896,34.125,1,50085,44529564
143,3,-0.701252,-0.0727667,9.78233,0.0374242,-0.644225,0.979849,-0.0070148,-0.000737384,0.097823,1,4.77156e-05,-1.18612e-05,2.7185e-05,0.00954311,-0.00237224,0.005437,0,0,0,0,0.0635457,0.511622,-0.987896,34.125,1,50085,44529564
143,4,-0.689374,-0.0755448,9.77985,0.0524549,-0.640647,0.97664,-0.00689597,-0.000762598,0.0977982,1,3.49378e-05,-1.16116e-05,2.29588e-05,0.00698756,-0.00232232,0.00459176,0,0,0,0,0.0649245,0.515512,-0.987816,34.125,1,50086,44529664
144,1,-0.689374,-0.0755448,9.77985,0.0524549,-0.640647,0.97664,-0.00689597,-0.000762598,0.0977982,1,3.49378e-05,-1.16116e-05,2.29588e-05,0.00698756,-0.00232232,0.00459176,0,0,0,0,0.0649245,0.515512,-0.987816,34.125,1,50086,44529664
144,2,-0.692569,-0.0820219,9.78796,0.0473593,-0.648299,0.982383,-0.00692937,-0.000828071,0.0978792,1,3.89685e-05,-1.89058e-05,1.61043e-05,0.0077937,-0.00378115,0.00322087,0,0,0,0,0.065315,0.515092,-0.991867,34.125,1,50087,44529764
144,3,-0.692569,-0.0820219,9.78796,0.0473593,-0.648299,0.982383,-0.00692937,-0.000828071,0.0978792,1,3.89685e-05,-1.89058e-05,1.61043e-05,0.0077937,-0.00378115,0.00322087,0,0,0,0,0.065315,0.515092,-0.991867,34.125,1,50087,44529764
144,4,-0.6836,-0.0669847,9.79616,0.0565861,-0.64211,0.996078,-0.00683722,-0.000678339,0.0979614,1,4.23585e-05,-6.34414e-06,1.41318e-05,0.00847169,-0.00126883,0.00282635,0,0,0,0,0.0652282,0.51371,-0.996443,34.125,1,50088,44529864
145,1,-0.6836,-0.0669847,9.79616,0.0565861,-0.64211,0.996078,-0.00683722,-0.000678339,0.0979614,1,4.23585e-05,-6.34414e-06,1.41318e-05,0.00847169,-0.00126883,0.00282635,0,0,0,0,0.0652282,0.51371,-0.996443,34.125,1,50088,44529864
145,2,-0.67922,-0.0765967,9.78553,0.0633481,-0.64925,0.983928,-0.00679203,-0.000776842,0.0978552,1,5.44322e-05,7.07922e-07,1.6363e-05,0.0108864,0.000141584,0.00327261,0,0,0,0,0.0638541,0.511744,-0.994965,34.125,1,50089,44529964
145,3,-0.67922,-0.0765967,9.78553,0.0633481,-0.64925,0.983928,-0.00679203,-0.000776842,0.0978552,1,5.44322e-05,7.07922e-07,1.6363e-05,0.0108864,0.000141584,0.00327261,0,0,0,0,0.0638541,0.511744,-0.994965,34.125,1,50089,44529964
145,4,-0.68723,-0.0696052,9.7887,0.0527543,-0.637459,0.984811,-0.00687588,-0.00070623,0.0978867,1,5.09602e-05,-1.83917e-05,1.46065e-05,0.010192,-0.00367835,0.00292131,0,0,0,0,0.0620611,0.511182,-0.989919,34.125,1,50090,44530064
146,1,-0.68723,-0.0696052,9.7887,0.0527543,-0.637459,0.984811,-0.00687588,-0.00070623,0.0978867,1,5.09602e-05,-1.83917e-05,1.46065e-05,0.010192,-0.00367835,0.00292131,0,0,0,0,0.0620611,0.511182,-0.989919,34.125,1,50090,44530064
146,2,-0.691758,-0.0678751,9.79349,0.049045,-0.638972,0.990854,-0.00691909,-0.000690286,0.0979348,1,5.68424e-05,-7.90148e-06,2.9059e-05,0.0113685,-0.0015803,0.00581179,0,0,0,0,0.0626006,0.513545,-0.985829,34.125,1,50091,44530164
146,3,-0.691758,-0.0678751,9.79349,0.049045,-0.638972,0.990854,-0.00691909,-0.000690286,0.0979348,1,5.68424e-05,-7.90148e-06,2.9059e-05,0.0113685,-0.0015803,0.00581179,0,0,0,0,0.0626006,0.513545,-0.985829,34.125,1,50091,44530164
146,4,-0.684034,-0.0894158,9.79123,0.053401,-0.667441,0.987669,-0.00684378,-0.000904647,0.0979119,1,5.21207e-05,-1.77806e-05,2.06548e-05,0.0104241,-0.00355612,0.00413096,0,0,0,0,0.0639746,0.515511,-0.987306,34.125,1,50092,44530264
146,5,-0.684034,-0.0894158,9.79123,0.053401,-0.667441,0.987669,-0.00684378,-0.000904647,0.0979119,1,5.21207e-05,-1.77806e-05,2.06548e-05,0.0104241,-0.00355612,0.00413096,0,0,0,0,0.0639746,0.515511,-0.987306,34.125,1,50092,44530264
146,6,-0.678405,-0.08315,9.77835,0.0584031,-0.658046,0.973033,-0.00678625,-0.000840195,0.0977833,1,4.2623e-05,-1.14705e-05,2.64437e-05,0.0085246,-0.0022941,0.00528874,0,0,0,0,0.0662402,0.515111,-0.993386,34.125,1,50093,44530364
147,1,-0.678405,-0.08315,9.77835,0.0584031,-0.658046,0.973033,-0.00678625,-0.000840195,0.0977833,1,4.2623e-05,-1.14705e-05,2.64437e-05,0.0085246,-0.0022941,0.00528874,0,0,0,0,0.0662402,0.515111,-0.993386,34.125,1,50093,44530364
147,2,-0.684596,-0.0731253,9.79272,0.0556672,-0.65055,0.986406,-0.00684717,-0.000739394,0.0979271,1,4.00283e-05,-6.37216e-06,2.19959e-05,0.00800566,-0.00127443,0.00439918,0,0,0,0,0.0647181,0.513253,-0.997966,34.125,1,50094,44530464
148,1,-0.684596,-0.0731253,9.79272,0.0556672,-0.65055,0.986406,-0.00684717,-0.000739394,0.0979271,1,4.00283e-05,-6.37216e-06,2.19959e-05,0.00800566,-0.00127443,0.00439918,0,0,0,0,0.0647181,0.513253,-0.997966,34.125,1,50094,44530464
148,2,-0.686522,-0.07705,9.7961,0.0534956,-0.648707,0.993856,-0.00686681,-0.000781504,0.0979608,1,5.45756e-05,-8.29449e-06,2.26774e-05,0.0109151,-0.0016589,0.00453547,0,0,0,0,0.0638703,0.510768,-0.994987,34.125,1,50095,44530564
148,3,-0.686522,-0.07705,9.7961,0.0534956,-0.648707,0.993856,-0.00686681,-0.000781504,0.0979608,1,5.45756e-05,-8.29449e-06,2.26774e-05,0.0109151,-0.0016589,0.00453547,0,0,0,0,0.0638703,0.510768,-0.994987,34.125,1,50095,44530564
148,4,-0.689463,-0.0850623,9.79809,0.0487915,-0.65858,0.996028,-0.00689707,-0.000860838,0.0979806,1,4.99544e-05,-1.27351e-05,3.09233e-05,0.00999088,-0.00254702,0.00618466,0,0,0,0,0.0640141,0.510181,-0.989445,34.125,1,50096,44530664
148,5,-0.689463,-0.0850623,9.79809,0.0487915,-0.65858,0.996028,-0.00689707,-0.000860838,0.0979806,1,4.99544e-05,-1.27351e-05,3.09233e-05,0.00999088,-0.00254702,0.00618466,0,0,0,0,0.0640141,0.510181,-0.989445,34.125,1,50096,44530664
148,6,-0.687709,-0.0765051,9.78559,0.054621,-0.65063,0.985771,-0.00687906,-0.000773905,0.0978557,1,4.36007e-05,-1.02444e-05,2.33503e-05,0.00872015,-0.00204889,0.00467005,0,0,0,0,0.0645364,0.510629,-0.987417,34.125,1,50097,44530764
149,1,-0.687709,-0.0765051,9.78559,0.054621,-0.65063,0.985771,-0.00687906,-0.000773905,0.0978557,1,4.36007e-05,-1.02444e-05,2.33503e-05,0.00872015,-0.00204889,0.00467005,0,0,0,0,0.0645364,0.510629,-0.987417,34.125,1,50097,44530764
149,2,-0.684586,-0.067285,9.78701,0.0517108,-0.643316,0.98285,-0.00684996,-0.000680651,0.0978698,1,3.80817e-05,-2.11152e-05,2.53357e-05,0.00761633,-0.00422303,0.00506714,0,0,0,0,0.065882,0.51358,-0.989378,34.125,1,50098,44530864
150,1,-0.684586,-0.067285,9.78701,0.0517108,-0.643316,0.98285,-0.00684996,-0.000680651,0.0978698,1,3.80817e-05,-2.11152e-05,2.53357e-05,0.00761633,-0.00422303,0.00506714,0,0,0,0,0.065882,0.51358,-0.989378,34.125,1,50098,44530864
150,2,-0.690078,-0.0799546,9.7832,0.048404,-0.659827,0.981062,-0.00690177,-0.000806696,0.0978319,1,3.55561e-05,-5.16128e-06,1.40052e-05,0.00711121,-0.00103226,0.00280104,0,0,0,0,0.0663019,0.515066,-0.990862,34.125,1,50099,44530964
150,3,-0.690078,-0.0799546,9.7832,0.048404,-0.659827,0.981062,-0.00690177,-0.000806696,0.0978319,1,3.55561e-05,-5.16128e-06,1.40052e-05,0.00711121,-0.00103226,0.00280104,0,0,0,0,0.0663019,0.515066,-0.990862,34.125,1,50099,44530964
150,4,-0.697395,-0.0839302,9.78763,0.0375136,-0.659595,0.984652,-0.00697664,-0.000850597,0.097876,1,5.65629e-05,-1.39159e-05,1.59311e-05,0.0113126,-0.00278319,0.00318622,0,0,0,0,0.0638793,0.513171,-0.992913,34.125,1,50100,44531064
150,5,-0.697395,-0.0839302,9.78763,0.0375136,-0.659595,0.984652,-0.00697664,-0.000850597,0.097876,1,5.65629e-05,-1.39159e-05,1.59311e-05,0.0113126,-0.00278319,0.00318622,0,0,0,0,0.0638793,0.513171,-0.992913,34.125,1,50100,44531064
150,6,-0.681591,-0.0817442,9.78245,0.0526207,-0.656975,0.979949,-0.00681549,-0.000827835,0.0978244,1,5.16028e-05,1.96006e-06,2.17685e-05,0.0103206,0.000392013,0.0043537,0,0,0,0,0.0624763,0.510744,-0.992961,34.125,1,50101,44531164
151,1,-0.681591,-0.0817442,9.78245,0.0526207,-0.656975,0.979949,-0.00681549,-0.000827835,0.0978244,1,5.16028e-05,1.96006e-06,2.17685e-05,0.0103206,0.000392013,0.0043537,0,0,0,0,0.0624763,0.510744,-0.992961,34.125,1,50101,44531164
151,2,-0.686358,-0.0702456,9.78462,0.0563996,-0.646703,0.981029,-0.00686534,-0.000712478,0.097846,1,5.00624e-05,-9.10244e-06,1.63837e-05,0.0100125,-0.00182049,0.00327674,0,0,0,0,0.063076,0.508726,-0.989473,34.125,3,50102,44531264
151,3,-0.686358,-0.0702456,9.78462,0.0563996,-0.646703,0.981029,-0.00686534,-0.000712478,0.097846,1,5.00624e-05,-9.10244e-06,1.63837e-05,0.0100125,-0.00182049,0.00327674,0,0,0,0,0.063076,0.508726,-0.989473,34.125,3,50102,44531264
151,4,-0.694522,-0.073215,9.79346,0.0442338,-0.647946,0.99004,-0.00694707,-0.000739863,0.0979344,1,3.92608e-05,-9.44192e-06,1.61149e-06,0.00785216,-0.00188838,0.000322297,0,0,0,0,0.0641127,0.510109,-0.985407,34.125,3,50103,44531364
152,1,-0.694522,-0.073215,9.79346,0.0442338,-0.647946,0.99004,-0.00694707,-0.000739863,0.0979344,1,3.92608e-05,-9.44192e-06,1.61149e-06,0.00785216,-0.00188838,0.000322297,0,0,0,0,0.0641127,0.510109,-0.985407,34.125,3,50103,44531364
152,2,-0.677933,-0.0705015,9.78557,0.060212,-0.65045,0.982406,-0.00677914,-0.000715486,0.0978557,1,5.17388e-05,8.02874e-07,2.54399e-05,0.0103478,0.000160575,0.00508798,0,0,0,0,0.064423,0.516013,-0.988307,34.125,3,50104,44531464
152,3,-0.677933,-0.0705015,9.78557,0.060212,-0.65045,0.982406,-0.00677914,-0.000715486,0.0978557,1,5.17388e-05,8.02874e-07,2.54399e-05,0.0103478,0.000160575,0.00508798,0,0,0,0,0.064423,0.516013,-0.988307,34.125,3,50104,44531464
152,4,-0.682455,-0.0840721,9.7916,0.0562451,-0.660545,0.987278,-0.0068274,-0.000848481,0.0979157,1,3.94601e-05,-1.45436e-05,2.38611e-06,0.00789202,-0.00290872,0.000477223,0,0,0,0,0.0662284,0.516566,-0.992849,34.125,3,50105,44531564
153,1,-0.682455,-0.0840721,9.7916,0.0562451,-0.660545,0.987278,-0.0068274,-0.000848481,0.0979157,1,3.94601e-05,-1.45436e-05,2.38611e-06,0.00789202,-0.00290872,0.000477223,0,0,0,0,0.0662284,0.516566,-0.992849,34.125,3,50105,44531564
153,2,-0.690739,-0.0811551,9.78218,0.050226,-0.657482,0.974291,-0.00690969,-0.000823036,0.0978215,1,5.67677e-05,-1.19451e-05,2.73979e-05,0.0113535,-0.00238902,0.00547959,0,0,0,0,0.0647675,0.513217,-0.995947,34.125,3,50106,44531664
153,3,-0.690739,-0.0811551,9.78218,0.050226,-0.657482,0.974291,-0.00690969,-0.000823036,0.0978215,1,5.67677e-05,-1.19451e-05,2.73979e-05,0.0113535,-0.00238902,0.00547959,0,0,0,0,0.0647675,0.513217,-0.995947,34.125,3,50106,44531664
153,4,-0.676334,-0.0785762,9.79127,0.0589934,-0.655884,0.986494,-0.00676668,-0.000792636,0.0979124,1,3.36936e-05,-1.72478e-05,2.03904e-05,0.00673872,-0.00344956,0.00407808,0,0,0,0,0.0634304,0.511224,-0.992955,34.125,3,50107,44531764
154,1,-0.676334,-0.0785762,9.79127,0.0589934,-0.655884,0.986494,-0.00676668,-0.000792636,0.0979124,1,3.36936e-05,-1.72478e-05,2.03904e-05,0.00673872,-0.00344956,0.00407808,0,0,0,0,0.0634304,0.511224,-0.992955,34.125,3,50107,44531764
154,2,-0.677852,-0.0843377,9.78918,0.0659326,-0.662483,0.987375,-0.0067791,-0.000851815,0.0978917,1,4.11102e-05,-3.2471e-06,2.87223e-05,0.00822204,-0.00064942,0.00574446,0,0,0,0,0.0630684,0.510659,-0.98842,34.125,3,50108,44531864
154,3,-0.677852,-0.0843377,9.78918,0.0659326,-0.662483,0.987375,-0.0067791,-0.000851815,0.0978917,1,4.11102e-05,-3.2471e-06,2.87223e-05,0.00822204,-0.00064942,0.00574446,0,0,0,0,0.0630684,0.510659,-0.98842,34.125,3,50108,44531864
154,4,-0.683174,-0.0797214,9.78824,0.0564434,-0.657114,0.988089,-0.00683488,-0.000801737,0.0978822,1,2.21284e-05,-1.61694e-05,1.39717e-05,0.00442567,-0.00323388,0.00279435,0,0,0,0,0.0635623,0.512091,-0.986875,34.125,3,50109,44531964
154,5,-0.683174,-0.0797214,9.78824,0.0564434,-0.657114,0.988089,-0.00683488,-0.000801737,0.0978822,1,2.21284e-05,-1.61694e-05,1.39717e-05,0.00442567,-0.00323388,0.00279435,0,0,0,0,0.0635623,0.512091,-0.986875,34.125,3,50109,44531964
154,6,-0.688857,-0.0753709,9.78051,0.0505912,-0.651427,0.975083,-0.00688867,-0.000762149,0.097805,1,4.19597e-05,-5.92207e-07,1.67975e-05,0.00839195,-0.000118441,0.0033595,0,0,0,0,0.0658782,0.514546,-0.988852,34.125,3,50110,44532064
154,7,-0.688857,-0.0753709,9.78051,0.0505912,-0.651427,0.975083,-0.00688867,-0.000762149,0.097805,1,4.19597e-05,-5.92207e-07,1.67975e-05,0.00839195,-0.000118441,0.0033595,0,0,0,0,0.0658782,0.514546,-0.988852,34.125,3,50110,44532064
154,8,-0.693348,-0.0842281,9.79472,0.0462387,-0.658837,0.990422,-0.00693561,-0.000849794,0.097947,1,3.70554e-05,-1.10641e-05,1.82968e-05,0.00741109,-0.00221281,0.00365937,0,0,0,0,0.0676551,0.516084,-0.993876,34.125,3,50111,44532164
155,1,-0.693348,-0.0842281,9.79472,0.0462387,-0.658837,0.990422,-0.00693561,-0.000849794,0.097947,1,3.70554e-05,-1.10641e-05,1.82968e-05,0.00741109,-0.00221281,0.00365937,0,0,0,0,0.0676551,0.516084,-0.993876,34.125,3,50111,44532164
155,2,-0.683541,-0.0749082,9.78287,0.0576772,-0.651193,0.978492,-0.00683736,-0.000760156,0.0978285,1,5.47843e-05,-1.01699e-05,2.5937e-05,0.0109569,-0.00203397,0.0051874,0,0,0,0,0.0661582,0.515653,-0.996404,34.125,3,50112,44532264
155,3,-0.683541,-0.0749082,9.78287,0.0576772,-0.651193,0.978492,-0.00683736,-0.000760156,0.0978285,1,5.47843e-05,-1.01699e-05,2.5937e-05,0.0109569,-0.00203397,0.0051874,0,0,0,0,0.0661582,0.515653,-0.996404,34.125,3,50112,44532264
155,4,-0.685807,-0.0703189,9.79139,0.0482936,-0.6512,0.988983,-0.00685629,-0.000711522,0.0979139,1,4.20697e-05,8.99485e-06,6.88421e-06,0.00841394,0.00179897,0.00137684,0,0,0,0,0.0634304,0.511224,-0.992955,34.125,3,50113,44532364
155,5,-0.685807,-0.0703189,9.79139,0.0482936,-0.6512,0.988983,-0.00685629,-0.000711522,0.0979139,1,4.20697e-05,8.99485e-06,6.88421e-06,0.00841394,0.00179897,0.00137684,0,0,0,0,0.0634304,0.511224,-0.992955,34.125,3,50113,44532364
155,6,-0.684562,-0.0805129,9.78824,0.0552201,-0.66216,0.985439,-0.00684722,-0.000814627,0.0978822,1,4.69926e-05,-8.34868e-06,2.18059e-05,0.00939853,-0.00166974,0.00436118,0,0,0,0,0.0616246,0.509226,-0.989455,34.125,3,50114,44532464
155,7,-0.684562,-0.0805129,9.78824,0.0552201,-0.66216,0.985439,-0.00684722,-0.000814627,0.0978822,1,4.69926e-05,-8.34868e-06,2.18059e-05,0.00939853,-0.00166974,0.00436118,0,0,0,0,0.0616246,0.509226,-0.989455,34.125,3,50114,44532464
155,8,-0.689993,-0.0703426,9.79007,0.0483471,-0.649313,0.985467,-0.0069038,-0.000712809,0.0979004,1,4.67746e-05,-1.98895e-05,1.62386e-05,0.00935493,-0.0039779,0.00324773,0,0,0,0,0.0640396,0.513054,-0.986351,34.125,3,50115,44532564
156,1,-0.689993,-0.0703426,9.79007,0.0483471,-0.649313,0.985467,-0.0069038,-0.000712809,0.0979004,1,4.67746e-05,-1.98895e-05,1.62386e-05,0.00935493,-0.0039779,0.00324773,0,0,0,0,0.0640396,0.513054,-0.986351,34.125,3,50115,44532564
156,2,-0.677078,-0.0814208,9.78785,0.0631999,-0.66087,0.978523,-0.00677255,-0.000824891,0.0978783,1,5.33405e-05,-9.18112e-06,1.78442e-05,0.0106681,-0.00183622,0.00356883,0,0,0,0,0.064896,0.516496,-0.988299,34.125,3,50116,44532664
156,3,-0.677078,-0.0814208,9.78785,0.0631999,-0.66087,0.978523,-0.00677255,-0.000824891,0.0978783,1,5.33405e-05,-9.18112e-06,1.78442e-05,0.0106681,-0.00183622,0.00356883,0,0,0,0,0.064896,0.516496,-0.988299,34.125,3,50116,44532664
156,4,-0.688857,-0.0705889,9.7931,0.0513597,-0.651692,0.987077,-0.00688781,-0.000715277,0.097931,1,4.62308e-05,3.69925e-06,2.41773e-05,0.00924615,0.00073985,0.00483547,0,0,0,0,0.0652946,0.515589,-0.992361,34.125,3,50117,44532764
157,1,-0.688857,-0.0705889,9.7931,0.0513597,-0.651692,0.987077,-0.00688781,-0.000715277,0.097931,1,4.62308e-05,3.69925e-06,2.41773e-05,0.00924615,0.00073985,0.00483547,0,0,0,0,0.0652946,0.515589,-0.992361,34.125,3,50117,44532764
157,2,-0.687009,-0.0770578,9.79168,0.049175,-0.657897,0.989775,-0.00687136,-0.00078065,0.0979166,1,5.03398e-05,-6.60111e-06,1.55794e-05,0.010068,-0.00132022,0.00311588,0,0,0,0,0.0652448,0.51418,-0.995423,34.125,3,50118,44532864
157,3,-0.687009,-0.0770578,9.79168,0.049175,-0.657897,0.989775,-0.00687136,-0.00078065,0.0979166,1,5.03398e-05,-6.60111e-06,1.55794e-05,0.010068,-0.00132022,0.00311588,0,0,0,0,0.0652448,0.51418,-0.995423,34.125,3,50118,44532864
157,4,-0.68596,-0.0712483,9.77952,0.0536541,-0.654798,0.976334,-0.00686353,-0.000721261,0.0977949,1,4.43962e-05,-2.01724e-05,6.8415e-06,0.00887924,-0.00403447,0.0013683,0,0,0,0,0.063373,0.511748,-0.994963,34.125,3,50119,44532964
157,5,-0.68596,-0.0712483,9.77952,0.0536541,-0.654798,0.976334,-0.00686353,-0.000721261,0.0977949,1,4.43962e-05,-2.01724e-05,6.8415e-06,0.00887924,-0.00403447,0.0013683,0,0,0,0,0.063373,0.511748,-0.994963,34.125,3,50119,44532964
157,6,-0.687219,-0.0776743,9.78491,0.0511758,-0.656517,0.977662,-0.00687453,-0.00078701,0.0978488,1,5.07908e-05,-1.21293e-05,2.38192e-05,0.0101582,-0.00242586,0.00476384,0,0,0,0,0.0634793,0.509743,-0.991978,34.125,3,50120,44533064
157,7,-0.687219,-0.0776743,9.78491,0.0511758,-0.656517,0.977662,-0.00687453,-0.00078701,0.0978488,1,5.07908e-05,-1.21293e-05,2.38192e-05,0.0101582,-0.00242586,0.00476384,0,0,0,0,0.0634793,0.509743,-0.991978,34.125,3,50120,44533064
157,8,-0.696121,-0.0751566,9.79482,0.0440096,-0.656737,0.992253,-0.00696277,-0.000763114,0.097948,1,5.82487e-05,-8.0518e-06,9.81976e-06,0.0116497,-0.00161036,0.00196395,0,0,0,0,0.0649934,0.512088,-0.987387,34.125,3,50121,44533164
157,9,-0.696121,-0.0751566,9.79482,0.0440096,-0.656737,0.992253,-0.00696277,-0.000763114,0.097948,1,5.82487e-05,-8.0518e-06,9.81976e-06,0.0116497,-0.00161036,0.00196395,0,0,0,0,0.0649934,0.512088,-0.987387,34.125,3,50121,44533164
157,10,-0.68615,-0.0820735,9.78724,0.0551204,-0.660998,0.984782,-0.00686443,-0.000828588,0.0978721,1,3.92814e-05,-1.50689e-05,1.19634e-05,0.00785628,-0.00301378,0.00239267,0,0,0,0,0.0649245,0.515512,-0.987816,34.125,3,50122,44533264
158,1,-0.68615,-0.0820735,9.78724,0.0551204,-0.660998,0.984782,-0.00686443,-0.000828588,0.0978721,1,3.92814e-05,-1.50689e-05,1.19634e-05,0.00785628,-0.00301378,0.00239267,0,0,0,0,0.0649245,0.515512,-0.987816,34.125,3,50122,44533264
158,2,-0.68068,-0.0814039,9.78619,0.0584574,-0.663636,0.979351,-0.00681069,-0.000825789,0.0978615,1,5.76248e-05,-2.01428e-05,3.46114e-05,0.011525,-0.00402856,0.00692228,0,0,0,0,0.0638555,0.51608,-0.991839,34.125,3,50123,44533364
158,3,-0.68068,-0.0814039,9.78619,0.0584574,-0.663636,0.979351,-0.00681069,-0.000825789,0.0978615,1,5.76248e-05,-2.01428e-05,3.46114e-05,0.011525,-0.00402856,0.00692228,0,0,0,0,0.0638555,0.51608,-0.991839,34.125,3,50123,44533364
158,4,-0.683841,-0.0772179,9.78624,0.0543841,-0.65984,0.980223,-0.00684236,-0.000778724,0.0978621,1,3.20673e-05,-2.0325e-05,1.96249e-05,0.00641347,-0.00406501,0.00392498,0,0,0,0,0.0628639,0.514182,-0.994402,34.125,3,50124,44533464
158,5,-0.683841,-0.0772179,9.78624,0.0543841,-0.65984,0.980223,-0.00684236,-0.000778724,0.0978621,1,3.20673e-05,-2.0325e-05,1.96249e-05,0.00641347,-0.00406501,0.00392498,0,0,0,0,0.0628639,0.514182,-0.994402,34.125,3,50124,44533464
158,6,-0.684565,-0.0774913,9.78759,0.0536594,-0.66028,0.983939,-0.00684855,-0.000783105,0.0978757,1,4.1386e-05,-1.48697e-05,6.63859e-06,0.0082772,-0.00297394,0.00132772,0,0,0,0,0.0644211,0.510232,-0.992476,34.125,3,50125,44533564
159,1,-0.684565,-0.0774913,9.78759,0.0536594,-0.66028,0.983939,-0.00684855,-0.000783105,0.0978757,1,4.1386e-05,-1.48697e-05,6.63859e-06,0.0082772,-0.00297394,0.00132772,0,0,0,0,0.0644211,0.510232,-0.992476,34.125,3,50125,44533564
159,2,-0.687991,-0.06963,9.78735,0.0495072,-0.652909,0.982302,-0.00688261,-0.000706865,0.0978733,1,5.21578e-05,-1.39888e-05,2.57564e-05,0.0104316,-0.00279776,0.00515129,0,0,0,0,0.0649597,0.509704,-0.99047,34.125,3,50126,44533664
159,3,-0.687991,-0.06963,9.78735,0.0495072,-0.652909,0.982302,-0.00688261,-0.000706865,0.0978733,1,5.21578e-05,-1.39888e-05,2.57564e-05,0.0104316,-0.00279776,0.00515129,0,0,0,0,0.0649597,0.509704,-0.99047,34.125,3,50126,44533664
159,4,-0.680881,-0.0697988,9.78425,0.0531349,-0.657524,0.980761,-0.0068115,-0.000707375,0.0978422,1,4.71418e-05,-1.38057e-05,1.18614e-05,0.00942835,-0.00276113,0.00237227,0,0,0,0,0.0650214,0.509659,-0.987946,34.125,3,50127,44533764
159,5,-0.680881,-0.0697988,9.78425,0.0531349,-0.657524,0.980761,-0.0068115,-0.000707375,0.0978422,1,4.71418e-05,-1.38057e-05,1.18614e-05,0.00942835,-0.00276113,0.00237227,0,0,0,0,0.0650214,0.509659,-0.987946,34.125,3,50127,44533764
159,6,-0.677063,-0.0739823,9.78521,0.0576643,-0.652457,0.983424,-0.00677435,-0.000747929,0.0978517,1,3.9503e-05,-1.92688e-05,2.77181e-05,0.0079006,-0.00385377,0.00554362,0,0,0,0,0.0639699,0.513587,-0.988864,34.125,3,50128,44533864
160,1,-0.677063,-0.0739823,9.78521,0.0576643,-0.652457,0.983424,-0.00677435,-0.000747929,0.0978517,1,3.9503e-05,-1.92688e-05,2.77181e-05,0.0079006,-0.00385377,0.00554362,0,0,0,0,0.0639699,0.513587,-0.988864,34.125,3,50128,44533864
160,2,-0.690701,-0.0703023,9.78465,0.0469928,-0.651722,0.978969,-0.00691019,-0.000712559,0.0978462,1,4.83373e-05,-1.62672e-05,5.54485e-06,0.00966746,-0.00325345,0.00110897,0,0,0,0,0.0648092,0.515114,-0.992875,34.125,3,50129,44533964
160,3,-0.690701,-0.0703023,9.78465,0.0469928,-0.651722,0.978969,-0.00691019,-0.000712559,0.0978462,1,4.83373e-05,-1.62672e-05,5.54485e-06,0.00966746,-0.00325345,0.00110897,0,0,0,0,0.0648092,0.515114,-0.992875,34.125,3,50129,44533964
160,4,-0.683505,-0.0808309,9.79163,0.0507658,-0.668301,0.986799,-0.00683764,-0.000819109,0.097916,1,5.22118e-05,-1.35782e-05,4.20382e-05,0.0104424,-0.00271565,0.00840764,0,0,0,0,0.0638584,0.512223,-0.99445,34.125,3,50130,44534064
160,5,-0.683505,-0.0808309,9.79163,0.0507658,-0.668301,0.986799,-0.00683764,-0.000819109,0.097916,1,5.22118e-05,-1.35782e-05,4.20382e-05,0.0104424,-0.00271565,0.00840764,0,0,0,0,0.0638584,0.512223,-0.99445,34.125,3,50130,44534064
160,6,-0.687599,-0.08058,9.78759,0.0449905,-0.662121,0.981699,-0.00687868,-0.000815687,0.0978756,1,4.91217e-05,-1.39029e-05,1.97123e-05,0.00982434,-0.00278057,0.00394246,0,0,0,0,0.0615387,0.510734,-0.991947,34.125,3,50131,44534164
161,1,-0.687599,-0.08058,9.78759,0.0449905,-0.662121,0.981699,-0.00687868,-0.000815687,0.0978756,1,4.91217e-05,-1.39029e-05,1.97123e-05,0.00982434,-0.00278057,0.00394246,0,0,0,0,0.0615387,0.510734,-0.991947,34.125,3,50131,44534164
161,2,-0.692774,-0.0727846,9.7843,0.0382266,-0.660475,0.982419,-0.00693005,-0.000736081,0.0978428,1,3.98122e-05,-1.20031e-05,3.21026e-05,0.00796244,-0.00240063,0.00642052,0,0,0,0,0.0601694,0.510692,-0.988911,34.125,3,50132,44534264
161,3,-0.692774,-0.0727846,9.7843,0.0382266,-0.660475,0.982419,-0.00693005,-0.000736081,0.0978428,1,3.98122e-05,-1.20031e-05,3.21026e-05,0.00796244,-0.00240063,0.00642052,0,0,0,0,0.0601694,0.510692,-0.988911,34.125,3,50132,44534264
161,4,-0.67954,-0.0758919,9.77977,0.0533222,-0.65868,0.975869,-0.00679692,-0.000769941,0.0977975,1,5.48047e-05,-7.97571e-06,2.22659e-05,0.0109609,-0.00159514,0.00445319,0,0,0,0,0.0616379,0.512107,-0.986866,34.125,3,50133,44534364
161,5,-0.67954,-0.0758919,9.77977,0.0533222,-0.65868,0.975869,-0.00679692,-0.000769941,0.0977975,1,5.48047e-05,-7.97571e-06,2.22659e-05,0.0109609,-0.00159514,0.00445319,0,0,0,0,0.0616379,0.512107,-0.986866,34.125,3,50133,44534364
161,6,-0.695788,-0.0819937,9.78628,0.0423629,-0.670003,0.982989,-0.0069592,-0.000830312,0.0978626,1,5.21001e-05,-6.8172e-06,1.28111e-05,0.01042,-0.00136344,0.00256223,0,0,0,0,0.0644429,0.514071,-0.988856,34.125,3,50134,44534464
161,7,-0.695788,-0.0819937,9.78628,0.0423629,-0.670003,0.982989,-0.0069592,-0.000830312,0.0978626,1,5.21001e-05,-6.8172e-06,1.28111e-05,0.01042,-0.00136344,0.00256223,0,0,0,0,0.0644429,0.514071,-0.988856,34.125,3,50134,44534464
161,8,-0.68187,-0.0684984,9.78257,0.057217,-0.654897,0.971965,-0.00682217,-0.000694347,0.0978254,1,4.60279e-05,-1.79261e-05,2.62352e-05,0.00920559,-0.00358523,0.00524705,0,0,0,0,0.0677125,0.51556,-0.991868,34.125,3,50135,44534564
162,1,-0.68187,-0.0684984,9.78257,0.057217,-0.654897,0.971965,-0.00682217,-0.000694347,0.0978254,1,4.60279e-05,-1.79261e-05,2.62352e-05,0.00920559,-0.00358523,0.00524705,0,0,0,0,0.0677125,0.51556,-0.991868,34.125,3,50135,44534564
162,2,-0.683225,-0.0713708,9.78391,0.0503445,-0.659518,0.976422,-0.0068351,-0.000721443,0.0978389,1,3.86518e-05,-1.4674e-05,1.26081e-05,0.00773035,-0.0029348,0.00252161,0,0,0,0,0.0647845,0.515132,-0.993884,34.125,3,50136,44534664
162,3,-0.683225,-0.0713708,9.78391,0.0503445,-0.659518,0.976422,-0.0068351,-0.000721443,0.0978389,1,3.86518e-05,-1.4674e-05,1.26081e-05,0.00773035,-0.0029348,0.00252161,0,0,0,0,0.0647845,0.515132,-0.993884,34.125,3,50136,44534664
162,4,-0.684434,-0.0779122,9.79065,0.0510295,-0.668672,0.983668,-0.00684701,-0.000788136,0.0979063,1,4.47316e-05,-1.37671e-05,1.86594e-05,0.00894632,-0.00275342,0.00373188,0,0,0,0,0.0629374,0.512682,-0.992415,34.125,3,50137,44534764
163,1,-0.684434,-0.0779122,9.79065,0.0510295,-0.668672,0.983668,-0.00684701,-0.000788136,0.0979063,1,4.47316e-05,-1.37671e-05,1.86594e-05,0.00894632,-0.00275342,0.00373188,0,0,0,0,0.0629374,0.512682,-0.992415,34.125,3,50137,44534764
163,2,-0.683172,-0.0731183,9.77203,0.0510807,-0.659688,0.967482,-0.00683716,-0.000741973,0.0977199,1,5.36889e-05,-2.80329e-05,2.1724e-05,0.0107378,-0.00560658,0.00434479,0,0,0,0,0.0635045,0.51117,-0.989926,34.125,3,50138,44534864
163,3,-0.683172,-0.0731183,9.77203,0.0510807,-0.659688,0.967482,-0.00683716,-0.000741973,0.0977199,1,5.36889e-05,-2.80329e-05,2.1724e-05,0.0107378,-0.00560658,0.00434479,0,0,0,0,0.0635045,0.51117,-0.989926,34.125,3,50138,44534864
163,4,-0.68899,-0.0764529,9.78696,0.0453927,-0.664417,0.98239,-0.00689197,-0.000774424,0.0978694,1,4.94421e-05,-1.07325e-05,1.57989e-05,0.00988842,-0.00214651,0.00315978,0,0,0,0,0.0645407,0.511108,-0.986902,34.125,3,50139,44534964
163,5,-0.68899,-0.0764529,9.78696,0.0453927,-0.664417,0.98239,-0.00689197,-0.000774424,0.0978694,1,4.94421e-05,-1.07325e-05,1.57989e-05,0.00988842,-0.00214651,0.00315978,0,0,0,0,0.0645407,0.511108,-0.986902,34.125,3,50139,44534964
163,6,-0.686739,-0.074723,9.78627,0.0466445,-0.663545,0.980563,-0.00686728,-0.000756191,0.0978626,1,4.46085e-05,3.91156e-07,1.67898e-05,0.0089217,7.82311e-05,0.00335796,0,0,0,0,0.0654052,0.514063,-0.98886,34.125,3,50140,44535064
164,1,-0.686739,-0.074723,9.78627,0.0466445,-0.663545,0.980563,-0.00686728,-0.000756191,0.0978626,1,4.46085e-05,3.91156e-07,1.67898e-05,0.0089217,7.82311e-05,0.00335796,0,0,0,0,0.0654052,0.514063,-0.98886,34.125,3,50140,44535064
164,2,-0.686914,-0.0777904,9.79168,0.0476599,-0.66217,0.987461,-0.00687105,-0.000787908,0.0979166,1,4.91217e-05,-9.98365e-06,2.80011e-05,0.00982435,-0.00199673,0.00560022,0,0,0,0,0.0662564,0.514136,-0.993408,34.125,3,50141,44535164
164,3,-0.686914,-0.0777904,9.79168,0.0476599,-0.66217,0.987461,-0.00687105,-0.000787908,0.0979166,1,4.91217e-05,-9.98365e-06,2.80011e-05,0.00982435,-0.00199673,0.00560022,0,0,0,0,0.0662564,0.514136,-0.993408,34.125,3,50141,44535164
164,4,-0.684275,-0.0742845,9.78728,0.0426754,-0.666379,0.979212,-0.00684487,-0.000755047,0.0978726,1,6.1553e-05,-1.09468e-05,1.11871e-05,0.0123106,-0.00218936,0.00223741,0,0,0,0,0.0637806,0.513243,-0.996952,34.125,3,50142,44535264
165,1,-0.684275,-0.0742845,9.78728,0.0426754,-0.666379,0.979212,-0.00684487,-0.000755047,0.0978726,1,6.1553e-05,-1.09468e-05,1.11871e-05,0.0123106,-0.00218936,0.00223741,0,0,0,0,0.0637806,0.513243,-0.996952,34.125,3,50142,44535264
165,2,-0.691961,-0.0864071,9.78181,0.0452889,-0.672163,0.977049,-0.00692302,-0.000872437,0.0978177,1,4.17419e-05,-1.75609e-05,1.43964e-05,0.00834839,-0.00351218,0.00287928,0,0,0,0,0.0614443,0.511285,-0.99547,34.125,3,50143,44535364
165,3,-0.691961,-0.0864071,9.78181,0.0452889,-0.672163,0.977049,-0.00692302,-0.000872437,0.0978177,1,4.17419e-05,-1.75609e-05,1.43964e-05,0.00834839,-0.00351218,0.00287928,0,0,0,0,0.0614443,0.511285,-0.99547,34.125,3,50143,44535364
165,4,-0.676444,-0.0668374,9.78797,0.055241,-0.655502,0.982432,-0.00676799,-0.000675831,0.0978794,1,3.68691e-05,-1.82763e-05,1.77344e-05,0.00737382,-0.00365526,0.00354688,0,0,0,0,0.0620402,0.510234,-0.991455,34.125,3,50144,44535464
166,1,-0.676444,-0.0668374,9.78797,0.055241,-0.655502,0.982432,-0.00676799,-0.000675831,0.0978794,1,3.68691e-05,-1.82763e-05,1.77344e-05,0.00737382,-0.00365526,0.00354688,0,0,0,0,0.0620402,0.510234,-0.991455,34.125,3,50144,44535464
166,2,-0.688966,-0.0884456,9.79736,0.0456393,-0.681678,0.995694,-0.00688905,-0.000895331,0.0979735,1,5.35436e-05,2.82926e-06,2.77552e-05,0.0107087,0.000565853,0.00555104,0,0,0,0,0.0659802,0.512062,-0.986382,34.125,3,50145,44535564
166,3,-0.688966,-0.0884456,9.79736,0.0456393,-0.681678,0.995694,-0.00688905,-0.000895331,0.0979735,1,5.35436e-05,2.82926e-06,2.77552e-05,0.0107087,0.000565853,0.00555104,0,0,0,0,0.0659802,0.512062,-0.986382,34.125,3,50145,44535564
166,4,-0.679505,-0.0757818,9.78893,0.0519237,-0.666473,0.986286,-0.00679656,-0.000765597,0.0978892,1,3.96949e-05,-7.72779e-06,5.51323e-07,0.00793897,-0.00154556,0.000110265,0,0,0,0,0.0683047,0.515475,-0.987327,34.125,3,50146,44535664
166,5,-0.679505,-0.0757818,9.78893,0.0519237,-0.666473,0.986286,-0.00679656,-0.000765597,0.0978892,1,3.96949e-05,-7.72779e-06,5.51323e-07,0.00793897,-0.00154556,0.000110265,0,0,0,0,0.0683047,0.515475,-0.987327,34.125,3,50146,44535664
166,6,-0.686678,-0.0724802,9.79478,0.0498527,-0.665675,0.990892,-0.00686841,-0.000732801,0.0979476,1,3.92738e-05,-8.4807e-06,2.22271e-05,0.00785475,-0.00169614,0.00444542,0,0,0,0,0.0671906,0.516558,-0.992854,34.125,3,50147,44535764
167,1,-0.686678,-0.0724802,9.79478,0.0498527,-0.665675,0.990892,-0.00686841,-0.000732801,0.0979476,1,3.92738e-05,-8.4807e-06,2.22271e-05,0.00785475,-0.00169614,0.00444542,0,0,0,0,0.0671906,0.516558,-0.992854,34.125,3,50147,44535764
167,2,-0.683895,-0.0873288,9.78581,0.0470785,-0.681342,0.979063,-0.00683965,-0.000883016,0.0978579,1,4.73429e-05,-3.87422e-06,3.37828e-05,0.00946857,-0.000774844,0.00675656,0,0,0,0,0.0638138,0.514183,-0.994911,34.125,3,50148,44535864
167,3,-0.683895,-0.0873288,9.78581,0.0470785,-0.681342,0.979063,-0.00683965,-0.000883016,0.0978579,1,4.73429e-05,-3.87422e-06,3.37828e-05,0.00946857,-0.000774844,0.00675656,0,0,0,0,0.0638138,0.514183,-0.994911,34.125,3,50148,44535864
167,4,-0.684602,-0.072302,9.78629,0.045785,-0.665832,0.984394,-0.00684847,-0.000733014,0.0978626,1,4.9727e-05,-1.26884e-05,1.90623e-05,0.0099454,-0.00253768,0.00381246,0,0,0,0,0.06394,0.510236,-0.992474,34.125,3,50149,44535964
168,1,-0.684602,-0.072302,9.78629,0.045785,-0.665832,0.984394,-0.00684847,-0.000733014,0.0978626,1,4.9727e-05,-1.26884e-05,1.90623e-05,0.0099454,-0.00253768,0.00381246,0,0,0,0,0.06394,0.510236,-0.992474,34.125,3,50149,44535964
168,2,-0.686973,-0.0758547,9.78559,0.0433833,-0.665958,0.979738,-0.00687251,-0.000766753,0.0978557,1,4.07305e-05,-1.4346e-05,1.70376e-05,0.0081461,-0.0028692,0.00340751,0,0,0,0,0.0630518,0.510189,-0.989441,34.125,3,50150,44536064
168,3,-0.686973,-0.0758547,9.78559,0.0433833,-0.665958,0.979738,-0.00687251,-0.000766753,0.0978557,1,4.07305e-05,-1.4346e-05,1.70376e-05,0.0081461,-0.0028692,0.00340751,0,0,0,0,0.0630518,0.510189,-0.989441,34.125,3,50150,44536064
168,4,-0.686041,-0.0828555,9.78687,0.0512088,-0.671508,0.984396,-0.00685981,-0.000839652,0.0978687,1,5.48493e-05,2.84971e-06,2.62745e-05,0.0109699,0.000569942,0.0052549,0,0,0,0,0.0635742,0.510637,-0.987413,34.125,3,50151,44536164
168,5,-0.686041,-0.0828555,9.78687,0.0512088,-0.671508,0.984396,-0.00685981,-0.000839652,0.0978687,1,5.48493e-05,2.84971e-06,2.62745e-05,0.0109699,0.000569942,0.0052549,0,0,0,0,0.0635742,0.510637,-0.987413,34.125,3,50151,44536164
168,6,-0.68756,-0.087284,9.79601,0.0436611,-0.678069,0.990341,-0.00687616,-0.000880282,0.09796,1,3.64259e-05,-3.08638e-06,2.21989e-05,0.00728519,-0.000617276,0.00443978,0,0,0,0,0.0654256,0.513566,-0.988366,34.125,3,50152,44536264
168,7,-0.68756,-0.087284,9.79601,0.0436611,-0.678069,0.990341,-0.00687616,-0.000880282,0.09796,1,3.64259e-05,-3.08638e-06,2.21989e-05,0.00728519,-0.000617276,0.00443978,0,0,0,0,0.0654256,0.513566,-0.988366,34.125,3,50152,44536264
168,8,-0.675726,-0.072091,9.79606,0.0616323,-0.662186,0.986319,-0.0067594,-0.000727422,0.0979604,1,3.20505e-05,-1.10232e-05,1.72295e-05,0.0064101,-0.00220465,0.0034459,0,0,0,0,0.0653397,0.515074,-0.990858,34.125,3,50153,44536364
168,9,-0.675726,-0.072091,9.79606,0.0616323,-0.662186,0.986319,-0.0067594,-0.000727422,0.0979604,1,3.20505e-05,-1.10232e-05,1.72295e-05,0.0064101,-0.00220465,0.0034459,0,0,0,0,0.0653397,0.515074,-0.990858,34.125,3,50153,44536364
168,10,-0.6953,-0.0699522,9.78569,0.0345929,-0.662925,0.981224,-0.00695254,-0.000710148,0.0978568,1,5.29755e-05,2.22597e-06,1.85761e-05,0.0105951,0.000445195,0.00371522,0,0,0,0,0.0643196,0.514161,-0.993904,34.125,3,50154,44536464
169,1,-0.6953,-0.0699522,9.78569,0.0345929,-0.662925,0.981224,-0.00695254,-0.000710148,0.0978568,1,5.29755e-05,2.22597e-06,1.85761e-05,0.0105951,0.000445195,0.00371522,0,0,0,0,0.0643196,0.514161,-0.993904,34.125,3,50154,44536464
169,2,-0.678717,-0.0692677,9.78933,0.0475171,-0.663769,0.985615,-0.00679117,-0.00070094,0.097893,1,4.0425e-05,-2.06254e-05,2.56577e-05,0.008085,-0.00412508,0.00513154,0,0,0,0,0.0624435,0.51125,-0.99396,34.125,3,50155,44536564
169,3,-0.678717,-0.0692677,9.78933,0.0475171,-0.663769,0.985615,-0.00679117,-0.00070094,0.097893,1,4.0425e-05,-2.06254e-05,2.56577e-05,0.008085,-0.00412508,0.00513154,0,0,0,0,0.0624435,0.51125,-0.99396,34.125,3,50155,44536564
169,4,-0.691494,-0.0743987,9.79173,0.0416271,-0.668576,0.986412,-0.00691409,-0.000753904,0.0979173,1,4.80954e-05,4.05906e-06,3.60402e-05,0.00961909,0.000811812,0.00720804,0,0,0,0,0.062073,0.509728,-0.990456,34.125,3,50156,44536664
170,1,-0.691494,-0.0743987,9.79173,0.0416271,-0.668576,0.986412,-0.00691409,-0.000753904,0.0979173,1,4.80954e-05,4.05906e-06,3.60402e-05,0.00961909,0.000811812,0.00720804,0,0,0,0,0.062073,0.509728,-0.990456,34.125,3,50156,44536664
170,2,-0.687543,-0.0715692,9.78121,0.0446859,-0.663866,0.97891,-0.00687589,-0.000726693,0.097812,1,5.54713e-05,-2.41617e-06,1.08614e-05,0.0110943,-0.000483233,0.00217228,0,0,0,0,0.0640558,0.512078,-0.986373,34.125,3,50157,44536764
170,3,-0.687543,-0.0715692,9.78121,0.0446859,-0.663866,0.97891,-0.00687589,-0.000726693,0.097812,1,5.54713e-05,-2.41617e-06,1.08614e-05,0.0110943,-0.000483233,0.00217228,0,0,0,0,0.0640558,0.512078,-0.986373,34.125,3,50157,44536764
170,4,-0.683524,-0.0704053,9.79071,0.0482959,-0.66255,0.98332,-0.00683801,-0.000712041,0.0979069,1,4.02443e-05,-1.41618e-05,7.86016e-06,0.00804886,-0.00283235,0.00157203,0,0,0,0,0.0644638,0.515019,-0.98732,34.125,3,50158,44536864
170,5,-0.683524,-0.0704053,9.79071,0.0482959,-0.66255,0.98332,-0.00683801,-0.000712041,0.0979069,1,4.02443e-05,-1.41618e-05,7.86016e-06,0.00804886,-0.00283235,0.00157203,0,0,0,0,0.0644638,0.515019,-0.98732,34.125,3,50158,44536864
170,6,-0.686832,-0.0710278,9.7863,0.0441444,-0.663307,0.980036,-0.00686864,-0.000718791,0.0978629,1,4.22223e-05,-1.72664e-06,1.80959e-05,0.00844446,-0.000345328,0.00361918,0,0,0,0,0.0662772,0.515084,-0.991872,34.125,3,50159,44536964
171,1,-0.686832,-0.0710278,9.7863,0.0441444,-0.663307,0.980036,-0.00686864,-0.000718791,0.0978629,1,4.22223e-05,-1.72664e-06,1.80959e-05,0.00844446,-0.000345328,0.00361918,0,0,0,0,0.0662772,0.515084,-0.991872,34.125,3,50159,44536964
171,2,-0.68918,-0.0840076,9.79673,0.0448429,-0.681282,0.987914,-0.00689623,-0.000851449,0.0979669,1,5.61399e-05,-2.28624e-05,2.70794e-05,0.011228,-0.00457248,0.00541588,0,0,0,0,0.066199,0.51466,-0.995416,34.125,3,50160,44537064
171,3,-0.68918,-0.0840076,9.79673,0.0448429,-0.681282,0.987914,-0.00689623,-0.000851449,0.0979669,1,5.61399e-05,-2.28624e-05,2.70794e-05,0.011228,-0.00457248,0.00541588,0,0,0,0,0.066199,0.51466,-0.995416,34.125,3,50160,44537064
171,4,-0.682599,-0.0620844,9.78908,0.0507032,-0.655988,0.983501,-0.00682939,-0.000629251,0.0978905,1,4.2174e-05,-1.74679e-05,1.09413e-05,0.0084348,-0.00349358,0.00218825,0,0,0,0,0.065335,0.51315,-0.992416,34.125,3,50161,44537164
