frame_id,imu_idx,accel_x,accel_y,accel_z,free_accel_x,free_accel_y,free_accel_z,delta_v_x,delta_v_y,delta_v_z,delta_q_w,delta_q_x,delta_q_y,delta_q_z,rate_x,rate_y,rate_z,quat_w,quat_x,quat_y,quat_z,mag_x,mag_y,mag_z,temperature,status_byte,packet_counter,time_fine
1,1,-0.662822,-0.0677536,9.78881,0.406003,-0.412026,0.983701,-0.00662877,-0.000686911,0.097888,1,4.67673e-05,-2.92783e-06,1.65291e-05,0.00935346,-0.000585567,0.00330583,0,0,0,0,0.0532696,0.511832,-0.994915,36.1875,3,15252,1570877
1,2,-0.50435,-0.0607814,7.35132,0.406003,-0.412026,0.983701,-0.00504348,-0.000612247,0.0735132,1,2.95509e-05,7.46057e-08,8.76552e-06,0.00591018,1.49211e-05,0.0017531,0,0,0,0,0.0546194,0.515261,-0.99636,36.1875,1,15253,1572414
2,1,-0.50435,-0.0607814,7.35132,0.406003,-0.412026,0.983701,-0.00504348,-0.000612247,0.0735132,1,2.95509e-05,7.46057e-08,8.76552e-06,0.00591018,1.49211e-05,0.0017531,0,0,0,0,0.0546194,0.515261,-0.99636,36.1875,1,15253,1572414
2,2,-0.672579,-0.0618402,9.79199,0.0811735,-0.479992,1.00541,-0.00672805,-0.000626319,0.0979197,1,4.0127e-05,-1.15372e-05,4.36027e-06,0.00802539,-0.00230744,0.000872053,0,0,0,0,0.0541587,0.514769,-0.995864,36.1875,1,15254,1572514
2,3,-0.672579,-0.0618402,9.79199,0.0811735,-0.479992,1.00541,-0.00672805,-0.000626319,0.0979197,1,4.0127e-05,-1.15372e-05,4.36027e-06,0.00802539,-0.00230744,0.000872053,0,0,0,0,0.0541587,0.514769,-0.995864,36.1875,1,15254,1572514
2,4,-0.673011,-0.0634795,9.79027,0.0830998,-0.482345,1.00158,-0.00673118,-0.000642004,0.0979026,1,3.6031e-05,-5.51888e-06,1.14628e-05,0.00720621,-0.00110378,0.00229255,0,0,0,0,0.0522746,0.512346,-0.995909,36.1875,1,15255,1572614
2,5,-0.673011,-0.0634795,9.79027,0.0830998,-0.482345,1.00158,-0.00673118,-0.000642004,0.0979026,1,3.6031e-05,-5.51888e-06,1.14628e-05,0.00720621,-0.00110378,0.00229255,0,0,0,0,0.0522746,0.512346,-0.995909,36.1875,1,15255,1572614
2,6,-0.664366,-0.0630106,9.79531,0.0903064,-0.483949,1.00585,-0.00664556,-0.000640791,0.0979529,1,5.35399e-05,-9.79202e-06,1.47257e-05,0.010708,-0.0019584,0.00294515,0,0,0,0,0.0533099,0.509393,-0.994969,36.1875,1,15256,1572714
2,7,-0.664366,-0.0630106,9.79531,0.0903064,-0.483949,1.00585,-0.00664556,-0.000640791,0.0979529,1,5.35399e-05,-9.79202e-06,1.47257e-05,0.010708,-0.0019584,0.00294515,0,0,0,0,0.0533099,0.509393,-0.994969,36.1875,1,15256,1572714
2,8,-0.66889,-0.0740007,9.78473,0.0862602,-0.490676,1.00039,-0.00669052,-0.000748722,0.0978471,1,4.29841e-05,-8.44547e-06,2.26313e-05,0.00859682,-0.00168909,0.00452626,0,0,0,0,0.0533146,0.511317,-0.993411,36.1875,1,15257,1572814
3,1,-0.66889,-0.0740007,9.78473,0.0862602,-0.490676,1.00039,-0.00669052,-0.000748722,0.0978471,1,4.29841e-05,-8.44547e-06,2.26313e-05,0.00859682,-0.00168909,0.00452626,0,0,0,0,0.0533146,0.511317,-0.993411,36.1875,1,15257,1572814
3,2,-0.663648,-0.0671825,9.79053,0.0879464,-0.483358,0.999523,-0.00663857,-0.000681617,0.0979051,1,4.88704e-05,-1.07979e-05,1.67875e-05,0.00977407,-0.00215958,0.0033575,0,0,0,0,0.0547338,0.512768,-0.993385,36.1875,1,15258,1572914
3,3,-0.663648,-0.0671825,9.79053,0.0879464,-0.483358,0.999523,-0.00663857,-0.000681617,0.0979051,1,4.88704e-05,-1.07979e-05,1.67875e-05,0.00977407,-0.00215958,0.0033575,0,0,0,0,0.0547338,0.512768,-0.993385,36.1875,1,15258,1572914
3,4,-0.666436,-0.0742921,9.7966,0.0887009,-0.49245,1.00584,-0.00667029,-0.000753123,0.0979656,1,5.09603e-05,-3.03871e-05,1.63184e-05,0.0101921,-0.00607741,0.00326367,0,0,0,0,0.0556182,0.513781,-0.995892,36.1875,1,15259,1573014
3,5,-0.666436,-0.0742921,9.7966,0.0887009,-0.49245,1.00584,-0.00667029,-0.000753123,0.0979656,1,5.09603e-05,-3.03871e-05,1.63184e-05,0.0101921,-0.00607741,0.00326367,0,0,0,0,0.0556182,0.513781,-0.995892,36.1875,1,15259,1573014
3,6,-0.670857,-0.0710544,9.7902,0.0784573,-0.495767,1.00116,-0.00671086,-0.000718004,0.0979018,1,3.77186e-05,-1.17084e-05,5.58982e-06,0.00754372,-0.00234168,0.00111796,0,0,0,0,0.0556097,0.512824,-0.996924,36.1875,1,15260,1573114
4,1,-0.670857,-0.0710544,9.7902,0.0784573,-0.495767,1.00116,-0.00671086,-0.000718004,0.0979018,1,3.77186e-05,-1.17084e-05,5.58982e-06,0.00754372,-0.00234168,0.00111796,0,0,0,0,0.0556097,0.512824,-0.996924,36.1875,1,15260,1573114
4,2,-0.667556,-0.065049,9.77903,0.085828,-0.488234,0.991041,-0.00667832,-0.000659209,0.0977901,1,4.31575e-05,-1.42643e-05,2.08784e-05,0.0086315,-0.00285286,0.00417568,0,0,0,0,0.0542109,0.510875,-0.996455,36.1875,1,15261,1573214
7,1,-0.667556,-0.065049,9.77903,0.085828,-0.488234,0.991041,-0.00667832,-0.000659209,0.0977901,1,4.31575e-05,-1.42643e-05,2.08784e-05,0.0086315,-0.00285286,0.00417568,0,0,0,0,0.0542109,0.510875,-0.996455,36.1875,1,15261,1573214
7,2,-0.658662,-0.0665789,9.78066,0.0967704,-0.490967,0.989782,-0.00659046,-0.000676682,0.0978063,1,5.46258e-05,-1.97532e-05,1.57209e-05,0.0109252,-0.00395064,0.00314417,0,0,0,0,0.0547499,0.511793,-0.993407,36.1875,1,15262,1573314
8,1,-0.658662,-0.0665789,9.78066,0.0967704,-0.490967,0.989782,-0.00659046,-0.000676682,0.0978063,1,5.46258e-05,-1.97532e-05,1.57209e-05,0.0109252,-0.00395064,0.00314417,0,0,0,0,0.0547499,0.511793,-0.993407,36.1875,1,15262,1573314
8,2,-0.661439,-0.0593577,9.78176,0.0891298,-0.48312,0.994777,-0.00661734,-0.000602764,0.0978173,1,4.60465e-05,-1.51841e-05,1.34876e-05,0.00920929,-0.00303681,0.00269752,0,0,0,0,0.0547466,0.514205,-0.991838,36.1875,1,15263,1573414
9,1,-0.661439,-0.0593577,9.78176,0.0891298,-0.48312,0.994777,-0.00661734,-0.000602764,0.0978173,1,4.60465e-05,-1.51841e-05,1.34876e-05,0.00920929,-0.00303681,0.00269752,0,0,0,0,0.0547466,0.514205,-0.991838,36.1875,1,15263,1573414
9,2,-0.6678,-0.0702775,9.79018,0.0886655,-0.4935,0.996217,-0.00667941,-0.000711123,0.0979017,1,4.18238e-05,-7.26454e-06,1.18463e-05,0.00836477,-0.00145291,0.00236925,0,0,0,0,0.0561325,0.514717,-0.993854,36.1875,1,15264,1573514
10,1,-0.6678,-0.0702775,9.79018,0.0886655,-0.4935,0.996217,-0.00667941,-0.000711123,0.0979017,1,4.18238e-05,-7.26454e-06,1.18463e-05,0.00836477,-0.00145291,0.00236925,0,0,0,0,0.0561325,0.514717,-0.993854,36.1875,1,15264,1573514
10,2,-0.676417,-0.0702823,9.78481,0.0685721,-0.501517,0.99394,-0.00676434,-0.000712052,0.097848,1,4.54467e-05,-1.05815e-06,2.48196e-05,0.00908935,-0.000211631,0.00496393,0,0,0,0,0.0550507,0.513848,-0.999424,36.1875,1,15265,1573614
11,1,-0.676417,-0.0702823,9.78481,0.0685721,-0.501517,0.99394,-0.00676434,-0.000712052,0.097848,1,4.54467e-05,-1.05815e-06,2.48196e-05,0.00908935,-0.000211631,0.00496393,0,0,0,0,0.0550507,0.513848,-0.999424,36.1875,1,15265,1573614
11,2,-0.664568,-0.0657846,9.79324,0.0823528,-0.497044,1.00572,-0.00664524,-0.000666982,0.0979324,1,4.60297e-05,2.17736e-06,9.10467e-06,0.00920593,0.000435472,0.00182094,0,0,0,0,0.0532036,0.511398,-0.997954,36.1875,1,15266,1573714
11,3,-0.664568,-0.0657846,9.79324,0.0823528,-0.497044,1.00572,-0.00664524,-0.000666982,0.0979324,1,4.60297e-05,2.17736e-06,9.10467e-06,0.00920593,0.000435472,0.00182094,0,0,0,0,0.0532036,0.511398,-0.997954,36.1875,1,15266,1573714
11,4,-0.670232,-0.0661035,9.79091,0.0827868,-0.496926,1.00767,-0.00670412,-0.00067268,0.0979089,1,5.95097e-05,-9.18836e-06,-5.84922e-07,0.0119019,-0.00183767,-0.000116984,0,0,0,0,0.0542811,0.511788,-0.9929,36.1875,1,15267,1573814
11,5,-0.670232,-0.0661035,9.79091,0.0827868,-0.496926,1.00767,-0.00670412,-0.00067268,0.0979089,1,5.95097e-05,-9.18836e-06,-5.84922e-07,0.0119019,-0.00183767,-0.000116984,0,0,0,0,0.0542811,0.511788,-0.9929,36.1875,1,15267,1573814
11,6,-0.661024,-0.0684118,9.78947,0.0955339,-0.496472,0.99599,-0.00661247,-0.000692117,0.0978945,1,3.94602e-05,-1.15275e-05,2.06662e-05,0.00789204,-0.0023055,0.00413324,0,0,0,0,0.056255,0.511736,-0.99089,36.1875,1,15268,1573914
12,1,-0.661024,-0.0684118,9.78947,0.0955339,-0.496472,0.99599,-0.00661247,-0.000692117,0.0978945,1,3.94602e-05,-1.15275e-05,2.06662e-05,0.00789204,-0.0023055,0.00413324,0,0,0,0,0.056255,0.511736,-0.99089,36.1875,1,15268,1573914
12,2,-0.663521,-0.0715807,9.79558,0.0858144,-0.503238,1.00479,-0.00663928,-0.000724422,0.0979554,1,4.30457e-05,-2.0873e-05,1.37108e-05,0.00860914,-0.0041746,0.00274216,0,0,0,0,0.0557411,0.512246,-0.991886,36.1875,1,15269,1574014
10,1,-0.663521,-0.0715807,9.79558,0.0858144,-0.503238,1.00479,-0.00663928,-0.000724422,0.0979554,1,4.30457e-05,-2.0873e-05,1.37108e-05,0.00860914,-0.0041746,0.00274216,0,0,0,0,0.0557411,0.512246,-0.991886,36.1875,1,15269,1574014
10,2,-0.669304,-0.0665029,9.79123,0.0799862,-0.497469,0.99878,-0.00669284,-0.000674252,0.0979123,1,4.66928e-05,9.66574e-07,5.98282e-06,0.00933856,0.000193315,0.00119656,0,0,0,0,0.0561937,0.513226,-0.992372,36.1875,1,15270,1574114
14,1,-0.669304,-0.0665029,9.79123,0.0799862,-0.497469,0.99878,-0.00669284,-0.000674252,0.0979123,1,4.66928e-05,9.66574e-07,5.98282e-06,0.00933856,0.000193315,0.00119656,0,0,0,0,0.0561937,0.513226,-0.992372,36.1875,1,15270,1574114
14,2,-0.667029,-0.0724923,9.7966,0.0852074,-0.504463,1.00493,-0.00667271,-0.000731335,0.0979658,1,3.18735e-05,-1.24371e-05,1.24871e-05,0.00637471,-0.00248741,0.00249742,0,0,0,0,0.0570981,0.512297,-0.995427,36.1875,1,15271,1574214
15,1,-0.667029,-0.0724923,9.7966,0.0852074,-0.504463,1.00493,-0.00667271,-0.000731335,0.0979658,1,3.18735e-05,-1.24371e-05,1.24871e-05,0.00637471,-0.00248741,0.00249742,0,0,0,0,0.0570981,0.512297,-0.995427,36.1875,1,15271,1574214
15,2,-0.667555,-0.0703461,9.78068,0.0755585,-0.50855,0.988748,-0.00667807,-0.000715236,0.0978066,1,5.95096e-05,-1.29679e-05,1.00213e-05,0.0119019,-0.00259358,0.00200427,0,0,0,0,0.0556419,0.510872,-0.996967,36.1875,1,15272,1574314
16,1,-0.667555,-0.0703461,9.78068,0.0755585,-0.50855,0.988748,-0.00667807,-0.000715236,0.0978066,1,5.95096e-05,-1.29679e-05,1.00213e-05,0.0119019,-0.00259358,0.00200427,0,0,0,0,0.0556419,0.510872,-0.996967,36.1875,1,15272,1574314
16,2,-0.668145,-0.0677367,9.79563,0.0751544,-0.50732,1.00771,-0.00668337,-0.000683508,0.0979561,1,2.91969e-05,-1.00325e-05,3.15029e-05,0.00583938,-0.0020065,0.00630058,0,0,0,0,0.0527799,0.510878,-0.995944,36.1875,1,15273,1574414
17,1,-0.668145,-0.0677367,9.79563,0.0751544,-0.50732,1.00771,-0.00668337,-0.000683508,0.0979561,1,2.91969e-05,-1.00325e-05,3.15029e-05,0.00583938,-0.0020065,0.00630058,0,0,0,0,0.0527799,0.510878,-0.995944,36.1875,1,15273,1574414
17,2,-0.655986,-0.0638572,9.78778,0.0921064,-0.498747,0.997013,-0.00656092,-0.000648738,0.0978777,1,5.05876e-05,-5.54677e-06,2.0014e-05,0.0101175,-0.00110935,0.0040028,0,0,0,0,0.0547746,0.511775,-0.992398,36.1875,1,15274,1574514
18,1,-0.655986,-0.0638572,9.78778,0.0921064,-0.498747,0.997013,-0.00656092,-0.000648738,0.0978777,1,5.05876e-05,-5.54677e-06,2.0014e-05,0.0101175,-0.00110935,0.0040028,0,0,0,0,0.0547746,0.511775,-0.992398,36.1875,1,15274,1574514
18,2,-0.671017,-0.0700783,9.78785,0.0740089,-0.503264,0.995497,-0.00671495,-0.000706973,0.0978781,1,3.02533e-05,-2.45478e-05,1.99431e-05,0.00605066,-0.00490955,0.00398863,0,0,0,0,0.0557211,0.514188,-0.991338,36.1875,1,15275,1574614
19,1,-0.671017,-0.0700783,9.78785,0.0740089,-0.503264,0.995497,-0.00671495,-0.000706973,0.0978781,1,3.02533e-05,-2.45478e-05,1.99431e-05,0.00605066,-0.00490955,0.00398863,0,0,0,0,0.0557211,0.514188,-0.991338,36.1875,1,15275,1574614
19,2,-0.655213,-0.0710504,9.8023,0.0931565,-0.509545,1.01116,-0.00655245,-0.00071687,0.0980229,1,3.04524e-05,-1.85147e-06,3.01674e-05,0.00609048,-0.000370293,0.00603348,0,0,0,0,0.055166,0.514246,-0.994365,36.1875,1,15276,1574714
20,1,-0.655213,-0.0710504,9.8023,0.0931565,-0.509545,1.01116,-0.00655245,-0.00071687,0.0980229,1,3.04524e-05,-1.85147e-06,3.01674e-05,0.00609048,-0.000370293,0.00603348,0,0,0,0,0.055166,0.514246,-0.994365,36.1875,1,15276,1574714
20,2,-0.659482,-0.0550577,9.78754,0.0863963,-0.496711,0.994253,-0.00659547,-0.000561129,0.0978753,1,5.27297e-05,-3.40254e-06,1.74696e-05,0.0105459,-0.000680508,0.00349391,0,0,0,0,0.0551124,0.513803,-0.996899,36.1875,1,15277,1574814
21,1,-0.659482,-0.0550577,9.78754,0.0863963,-0.496711,0.994253,-0.00659547,-0.000561129,0.0978753,1,5.27297e-05,-3.40254e-06,1.74696e-05,0.0105459,-0.000680508,0.00349391,0,0,0,0,0.0551124,0.513803,-0.996899,36.1875,1,15277,1574814
21,2,-0.670987,-0.0583405,9.78759,0.0744891,-0.503962,0.998603,-0.00671102,-0.000591587,0.0978758,1,4.09633e-05,-5.96439e-06,1.21817e-05,0.00819266,-0.00119288,0.00243634,0,0,0,0,0.0551319,0.510416,-0.99849,36.1875,1,15278,1574914
22,1,-0.670987,-0.0583405,9.78759,0.0744891,-0.503962,0.998603,-0.00671102,-0.000591587,0.0978758,1,4.09633e-05,-5.96439e-06,1.21817e-05,0.00819266,-0.00119288,0.00243634,0,0,0,0,0.0551319,0.510416,-0.99849,36.1875,1,15278,1574914
22,2,-0.67041,-0.0794557,9.79487,0.0766138,-0.522702,1.00991,-0.00670572,-0.0008057,0.0979485,1,5.60637e-05,-8.38234e-06,1.19599e-05,0.0112127,-0.00167647,0.00239198,0,0,0,0,0.0527714,0.509921,-0.996975,36.1875,1,15279,1575014
23,1,-0.67041,-0.0794557,9.79487,0.0766138,-0.522702,1.00991,-0.00670572,-0.0008057,0.0979485,1,5.60637e-05,-8.38234e-06,1.19599e-05,0.0112127,-0.00167647,0.00239198,0,0,0,0,0.0527714,0.509921,-0.996975,36.1875,1,15279,1575014
23,2,-0.659082,-0.0633053,9.7895,0.0904545,-0.506719,1.00207,-0.00659222,-0.000642431,0.0978949,1,4.64189e-05,-7.28672e-06,2.20446e-05,0.00928378,-0.00145734,0.00440891,0,0,0,0,0.0528416,0.510833,-0.99342,36.1875,1,15280,1575114
24,1,-0.659082,-0.0633053,9.7895,0.0904545,-0.506719,1.00207,-0.00659222,-0.000642431,0.0978949,1,4.64189e-05,-7.28672e-06,2.20446e-05,0.00928378,-0.00145734,0.00440891,0,0,0,0,0.0528416,0.510833,-0.99342,36.1875,1,15280,1575114
24,2,-0.677073,-0.0723582,9.79226,0.0750292,-0.515434,1.00677,-0.00677073,-0.000731893,0.0979225,1,4.12203e-05,-1.54451e-07,1.76207e-05,0.00824406,-3.08901e-05,0.00352414,0,0,0,0,0.0552519,0.512737,-0.991873,36.1875,1,15281,1575214
25,1,-0.677073,-0.0723582,9.79226,0.0750292,-0.515434,1.00677,-0.00677073,-0.000731893,0.0979225,1,4.12203e-05,-1.54451e-07,1.76207e-05,0.00824406,-3.08901e-05,0.00352414,0,0,0,0,0.0552519,0.512737,-0.991873,36.1875,1,15281,1575214
25,2,-0.663372,-0.0741206,9.77961,0.0829803,-0.519915,0.990027,-0.00663647,-0.00075119,0.0977958,1,5.03101e-05,-1.41635e-05,1.08536e-05,0.010062,-0.00283269,0.00217072,0,0,0,0,0.0571232,0.513724,-0.993375,36.1875,1,15282,1575314
26,1,-0.663372,-0.0741206,9.77961,0.0829803,-0.519915,0.990027,-0.00663647,-0.00075119,0.0977958,1,5.03101e-05,-1.41635e-05,1.08536e-05,0.010062,-0.00283269,0.00217072,0,0,0,0,0.0571232,0.513724,-0.993375,36.1875,1,15282,1575314
26,2,-0.661398,-0.0668099,9.78813,0.0817917,-0.514348,0.993228,-0.00661576,-0.000676363,0.0978811,1,4.18313e-05,-9.10476e-06,5.67916e-06,0.00836625,-0.00182095,0.00113583,0,0,0,0,0.0555731,0.514296,-0.997396,36.1875,1,15283,1575414
27,1,-0.661398,-0.0668099,9.78813,0.0817917,-0.514348,0.993228,-0.00661576,-0.000676363,0.0978811,1,4.18313e-05,-9.10476e-06,5.67916e-06,0.00836625,-0.00182095,0.00113583,0,0,0,0,0.0555731,0.514296,-0.997396,36.1875,1,15283,1575414
27,2,-0.665789,-0.0691284,9.79289,0.0804384,-0.515489,1.0041,-0.00665916,-0.000700764,0.0979287,1,4.76017e-05,-6.56977e-06,1.17515e-05,0.00952034,-0.00131395,0.00235029,0,0,0,0,0.0541336,0.513341,-0.997915,36.1875,1,15284,1575514
28,1,-0.665789,-0.0691284,9.79289,0.0804384,-0.515489,1.0041,-0.00665916,-0.000700764,0.0979287,1,4.76017e-05,-6.56977e-06,1.17515e-05,0.00952034,-0.00131395,0.00235029,0,0,0,0,0.0541336,0.513341,-0.997915,36.1875,1,15284,1575514
28,2,-0.669338,-0.0821335,9.78806,0.0776258,-0.538361,1.0026,-0.00669645,-0.000831693,0.0978803,1,5.17928e-05,-1.58102e-05,1.63446e-05,0.0103586,-0.00316204,0.00326891,0,0,0,0,0.0518547,0.510859,-0.994425,36.1875,1,15285,1575614
29,1,-0.669338,-0.0821335,9.78806,0.0776258,-0.538361,1.0026,-0.00669645,-0.000831693,0.0978803,1,5.17928e-05,-1.58102e-05,1.63446e-05,0.0103586,-0.00316204,0.00326891,0,0,0,0,0.0518547,0.510859,-0.994425,36.1875,1,15285,1575614
29,2,-0.671206,-0.0785216,9.78132,0.0784944,-0.528688,0.990288,-0.00671442,-0.000791599,0.097813,1,3.17673e-05,-1.21968e-05,1.25785e-05,0.00635346,-0.00243937,0.0025157,0,0,0,0,0.0528786,0.510806,-0.991905,36.1875,1,15286,1575714
30,1,-0.671206,-0.0785216,9.78132,0.0784944,-0.528688,0.990288,-0.00671442,-0.000791599,0.097813,1,3.17673e-05,-1.21968e-05,1.25785e-05,0.00635346,-0.00243937,0.0025157,0,0,0,0,0.0528786,0.510806,-0.991905,36.1875,1,15286,1575714
30,2,-0.679628,-0.0744804,9.79837,0.0710201,-0.523872,1.00901,-0.00679778,-0.00075357,0.0979835,1,4.40143e-05,-7.72053e-06,1.036e-05,0.00880287,-0.00154411,0.00207201,0,0,0,0,0.0552434,0.51178,-0.992905,36.1875,1,15287,1575814
31,1,-0.679628,-0.0744804,9.79837,0.0710201,-0.523872,1.00901,-0.00679778,-0.00075357,0.0979835,1,4.40143e-05,-7.72053e-06,1.036e-05,0.00880287,-0.00154411,0.00207201,0,0,0,0,0.0552434,0.51178,-0.992905,36.1875,1,15287,1575814
31,2,-0.663146,-0.0603673,9.79261,0.0837422,-0.508404,0.997209,-0.00663321,-0.000611387,0.0979259,1,3.79644e-05,-9.0282e-06,2.09996e-05,0.00759288,-0.00180564,0.00419991,0,0,0,0,0.0561729,0.512278,-0.993908,36.1875,1,15288,1575914
32,1,-0.663146,-0.0603673,9.79261,0.0837422,-0.508404,0.997209,-0.00663321,-0.000611387,0.0979259,1,3.79644e-05,-9.0282e-06,2.09996e-05,0.00759288,-0.00180564,0.00419991,0,0,0,0,0.0561729,0.512278,-0.993908,36.1875,1,15288,1575914
32,2,-0.665574,-0.0638182,9.78378,0.0847887,-0.518026,0.990489,-0.00665672,-0.000646403,0.0978377,1,4.05926e-05,-5.12633e-06,2.08541e-05,0.00811852,-0.00102527,0.00417083,0,0,0,0,0.0556139,0.513302,-0.996408,36.1875,1,15289,1576014
33,1,-0.665574,-0.0638182,9.78378,0.0847887,-0.518026,0.990489,-0.00665672,-0.000646403,0.0978377,1,4.05926e-05,-5.12633e-06,2.08541e-05,0.00811852,-0.00102527,0.00417083,0,0,0,0,0.0556139,0.513302,-0.996408,36.1875,1,15289,1576014
33,2,-0.667888,-0.0619803,9.78415,0.0747017,-0.515824,0.993343,-0.00668206,-0.000627288,0.0978412,1,3.64443e-05,-1.64472e-05,2.64479e-05,0.00728887,-0.00328944,0.00528959,0,0,0,0,0.0531998,0.512365,-0.997428,36.1875,1,15290,1576114
34,1,-0.667888,-0.0619803,9.78415,0.0747017,-0.515824,0.993343,-0.00668206,-0.000627288,0.0978412,1,3.64443e-05,-1.64472e-05,2.64479e-05,0.00728887,-0.00328944,0.00528959,0,0,0,0,0.0531998,0.512365,-0.997428,36.1875,1,15290,1576114
34,2,-0.667147,-0.0623611,9.79534,0.0774781,-0.516255,1.00574,-0.00667347,-0.00063328,0.0979532,1,4.77861e-05,-1.0349e-05,2.30912e-05,0.00955723,-0.0020698,0.00461824,0,0,0,0,0.0517892,0.511871,-0.996422,36.1875,1,15291,1576214
35,1,-0.667147,-0.0623611,9.79534,0.0774781,-0.516255,1.00574,-0.00667347,-0.00063328,0.0979532,1,4.77861e-05,-1.0349e-05,2.30912e-05,0.00955723,-0.0020698,0.00461824,0,0,0,0,0.0517892,0.511871,-0.996422,36.1875,1,15291,1576214
35,2,-0.673766,-0.0764327,9.78883,0.075799,-0.533175,0.997997,-0.00674166,-0.000772135,0.0978879,1,3.84431e-05,-2.06121e-05,2.09269e-05,0.00768862,-0.00412241,0.00418538,0,0,0,0,0.0532938,0.510369,-0.994947,36.1875,1,15292,1576314
36,1,-0.673766,-0.0764327,9.78883,0.075799,-0.533175,0.997997,-0.00674166,-0.000772135,0.0978879,1,3.84431e-05,-2.06121e-05,2.09269e-05,0.00768862,-0.00412241,0.00418538,0,0,0,0,0.0532938,0.510369,-0.994947,36.1875,1,15292,1576314
36,2,-0.67766,-0.0718655,9.79566,0.0661589,-0.528359,1.00527,-0.00677826,-0.000726229,0.0979564,1,3.75211e-05,-8.60181e-06,1.64342e-05,0.00750421,-0.00172036,0.00328683,0,0,0,0,0.0551736,0.512313,-0.995418,36.1875,1,15293,1576414
37,1,-0.67766,-0.0718655,9.79566,0.0661589,-0.528359,1.00527,-0.00677826,-0.000726229,0.0979564,1,3.75211e-05,-8.60181e-06,1.64342e-05,0.00750421,-0.00172036,0.00328683,0,0,0,0,0.0551736,0.512313,-0.995418,36.1875,1,15293,1576414
37,2,-0.670981,-0.0627784,9.79365,0.0737071,-0.522196,1.00664,-0.00671034,-0.000636284,0.0979365,1,4.19114e-05,-2.85012e-06,2.16942e-05,0.00838227,-0.000570025,0.00433885,0,0,0,0,0.0565928,0.513764,-0.995392,36.1875,1,15294,1576514
38,1,-0.670981,-0.0627784,9.79365,0.0737071,-0.522196,1.00664,-0.00671034,-0.000636284,0.0979365,1,4.19114e-05,-2.85012e-06,2.16942e-05,0.00838227,-0.000570025,0.00433885,0,0,0,0,0.0565928,0.513764,-0.995392,36.1875,1,15294,1576514
38,2,-0.666545,-0.0652871,9.79258,0.0745536,-0.526456,1.00533,-0.00666656,-0.000663714,0.0979257,1,5.48884e-05,-5.69972e-06,6.98334e-06,0.0109777,-0.00113994,0.00139667,0,0,0,0,0.0546598,0.512823,-0.996414,36.1875,1,15295,1576614
39,1,-0.666545,-0.0652871,9.79258,0.0745536,-0.526456,1.00533,-0.00666656,-0.000663714,0.0979257,1,5.48884e-05,-5.69972e-06,6.98334e-06,0.0109777,-0.00113994,0.00139667,0,0,0,0,0.0546598,0.512823,-0.996414,36.1875,1,15295,1576614
39,2,-0.669602,-0.0565449,9.7876,0.0719756,-0.517576,0.997315,-0.00669879,-0.000573682,0.0978758,1,4.1131e-05,-1.42434e-05,1.359e-05,0.00822619,-0.00284867,0.002718,0,0,0,0,0.0536729,0.512849,-0.997419,36.1875,1,15296,1576714
40,1,-0.669602,-0.0565449,9.7876,0.0719756,-0.517576,0.997315,-0.00669879,-0.000573682,0.0978758,1,4.1131e-05,-1.42434e-05,1.359e-05,0.00822619,-0.00284867,0.002718,0,0,0,0,0.0536729,0.512849,-0.997419,36.1875,1,15296,1576714
40,2,-0.67058,-0.0652077,9.78855,0.072179,-0.523249,0.993943,-0.00670688,-0.00065871,0.0978854,1,3.30657e-05,-5.62356e-06,1.1958e-05,0.00661313,-0.00112471,0.0023916,0,0,0,0,0.0527476,0.512829,-0.9959,36.1875,1,15297,1576814
41,1,-0.67058,-0.0652077,9.78855,0.072179,-0.523249,0.993943,-0.00670688,-0.00065871,0.0978854,1,3.30657e-05,-5.62356e-06,1.1958e-05,0.00661313,-0.00112471,0.0023916,0,0,0,0,0.0527476,0.512829,-0.9959,36.1875,1,15297,1576814
41,2,-0.662909,-0.0695059,9.79017,0.0813775,-0.529459,0.998298,-0.0066318,-0.000704147,0.0979014,1,4.58155e-05,-1.38564e-05,8.83408e-06,0.0091631,-0.00277127,0.00176682,0,0,0,0,0.0528748,0.511773,-0.991379,36.1875,1,15298,1576914
42,1,-0.662909,-0.0695059,9.79017,0.0813775,-0.529459,0.998298,-0.0066318,-0.000704147,0.0979014,1,4.58155e-05,-1.38564e-05,8.83408e-06,0.0091631,-0.00277127,0.00176682,0,0,0,0,0.0528748,0.511773,-0.991379,36.1875,1,15298,1576914
42,2,-0.666504,-0.0695404,9.79391,0.0796217,-0.533893,1.00275,-0.0066667,-0.000705543,0.0979389,1,5.03193e-05,-8.62942e-06,2.12326e-05,0.0100639,-0.00172588,0.00424652,0,0,0,0,0.0538171,0.513707,-0.990835,36.1875,1,15299,1577014
43,1,-0.666504,-0.0695404,9.79391,0.0796217,-0.533893,1.00275,-0.0066667,-0.000705543,0.0979389,1,5.03193e-05,-8.62942e-06,2.12326e-05,0.0100639,-0.00172588,0.00424652,0,0,0,0,0.0538171,0.513707,-0.990835,36.1875,1,15299,1577014
43,2,-0.661671,-0.0708236,9.79048,0.0843714,-0.533278,0.99561,-0.0066189,-0.000718207,0.0979045,1,5.02169e-05,-1.12559e-05,1.04681e-05,0.0100434,-0.00225119,0.00209362,0,0,0,0,0.0561491,0.515186,-0.992833,36.1875,1,15300,1577114
44,1,-0.661671,-0.0708236,9.79048,0.0843714,-0.533278,0.99561,-0.0066189,-0.000718207,0.0979045,1,5.02169e-05,-1.12559e-05,1.04681e-05,0.0100434,-0.00225119,0.00209362,0,0,0,0,0.0561491,0.515186,-0.992833,36.1875,1,15300,1577114
44,2,-0.65888,-0.0709564,9.79521,0.0830711,-0.53085,0.994472,-0.00659181,-0.000717558,0.0979518,1,3.91565e-05,-1.55326e-05,2.44696e-05,0.0078313,-0.00310652,0.00489392,0,0,0,0,0.05709,0.512784,-0.995416,36.1875,1,15301,1577214
45,1,-0.65888,-0.0709564,9.79521,0.0830711,-0.53085,0.994472,-0.00659181,-0.000717558,0.0979518,1,3.91565e-05,-1.55326e-05,2.44696e-05,0.0078313,-0.00310652,0.00489392,0,0,0,0,0.05709,0.512784,-0.995416,36.1875,1,15301,1577214
45,2,-0.664307,-0.07028,9.79152,0.0756987,-0.539504,0.998003,-0.00664745,-0.000711277,0.0979149,1,4.25633e-05,-2.24746e-05,1.06581e-05,0.00851266,-0.00449493,0.00213162,0,0,0,0,0.0556092,0.511378,-0.997966,36.1875,1,15302,1577314
46,1,-0.664307,-0.07028,9.79152,0.0756987,-0.539504,0.998003,-0.00664745,-0.000711277,0.0979149,1,4.25633e-05,-2.24746e-05,1.06581e-05,0.00851266,-0.00449493,0.00213162,0,0,0,0,0.0556092,0.511378,-0.997966,36.1875,1,15302,1577314
46,2,-0.666904,-0.0583249,9.78722,0.0690061,-0.52695,0.994559,-0.00667141,-0.000590004,0.097872,1,3.29427e-05,-1.22357e-05,2.29553e-05,0.00658855,-0.00244713,0.00459106,0,0,0,0,0.0541948,0.511851,-0.996434,36.1875,1,15303,1577414
47,1,-0.666904,-0.0583249,9.78722,0.0690061,-0.52695,0.994559,-0.00667141,-0.000590004,0.097872,1,3.29427e-05,-1.22357e-05,2.29553e-05,0.00658855,-0.00244713,0.00459106,0,0,0,0,0.0541948,0.511851,-0.996434,36.1875,1,15303,1577414
47,2,-0.655243,-0.0678278,9.79419,0.0900819,-0.535113,1.00156,-0.00655429,-0.000687286,0.0979417,1,4.47389e-05,-9.62444e-06,1.86115e-05,0.00894777,-0.00192489,0.00372231,0,0,0,0,0.055288,0.50982,-0.992443,36.1875,1,15304,1577514
48,1,-0.655243,-0.0678278,9.79419,0.0900819,-0.535113,1.00156,-0.00655429,-0.000687286,0.0979417,1,4.47389e-05,-9.62444e-06,1.86115e-05,0.00894777,-0.00192489,0.00372231,0,0,0,0,0.055288,0.50982,-0.992443,36.1875,1,15304,1577514
48,2,-0.67112,-0.0605464,9.78452,0.0703289,-0.535124,0.990718,-0.00671105,-0.000615278,0.0978451,1,4.91496e-05,6.35519e-07,1.46443e-05,0.00982991,0.000127104,0.00292887,0,0,0,0,0.0557283,0.510809,-0.993433,36.1875,1,15305,1577614
49,1,-0.67112,-0.0605464,9.78452,0.0703289,-0.535124,0.990718,-0.00671105,-0.000615278,0.0978451,1,4.91496e-05,6.35519e-07,1.46443e-05,0.00982991,0.000127104,0.00292887,0,0,0,0,0.0557283,0.510809,-0.993433,36.1875,1,15305,1577614
49,2,-0.650712,-0.0716787,9.78938,0.0916153,-0.538986,0.992935,-0.00651082,-0.000725952,0.0978935,1,4.59756e-05,-1.89895e-05,1.25508e-05,0.00919513,-0.0037979,0.00251016,0,0,0,0,0.0556016,0.513311,-0.996913,36.1875,1,15306,1577714
50,1,-0.650712,-0.0716787,9.78938,0.0916153,-0.538986,0.992935,-0.00651082,-0.000725952,0.0978935,1,4.59756e-05,-1.89895e-05,1.25508e-05,0.00919513,-0.0037979,0.00251016,0,0,0,0,0.0556016,0.513311,-0.996913,36.1875,1,15306,1577714
50,2,-0.664566,-0.0656065,9.79256,0.0765261,-0.536936,1.00045,-0.00664539,-0.000668477,0.0979256,1,6.23688e-05,1.28546e-06,1.47766e-05,0.0124738,0.000257092,0.00295532,0,0,0,0,0.0535827,0.513878,-1.00043,36.1875,1,15307,1577814
50,3,-0.664566,-0.0656065,9.79256,0.0765261,-0.536936,1.00045,-0.00664539,-0.000668477,0.0979256,1,6.23688e-05,1.28546e-06,1.47766e-05,0.0124738,0.000257092,0.00295532,0,0,0,0,0.0535827,0.513878,-1.00043,36.1875,1,15307,1577814
50,4,-0.66841,-0.0753759,9.79523,0.0743026,-0.545176,1.00234,-0.00668643,-0.000764272,0.0979521,1,5.35418e-05,-1.19096e-05,1.78256e-06,0.0107084,-0.00238193,0.000356512,0,0,0,0,0.0531913,0.511407,-0.998459,36.1875,1,15308,1577914
50,5,-0.66841,-0.0753759,9.79523,0.0743026,-0.545176,1.00234,-0.00668643,-0.000764272,0.0979521,1,5.35418e-05,-1.19096e-05,1.78256e-06,0.0107084,-0.00238193,0.000356512,0,0,0,0,0.0531913,0.511407,-0.998459,36.1875,1,15308,1577914
50,6,-0.675971,-0.0617606,9.7937,0.0646716,-0.536473,1.00183,-0.00676124,-0.000627439,0.0979369,1,4.94849e-05,-7.85861e-06,1.03299e-05,0.00989699,-0.00157172,0.00206599,0,0,0,0,0.05236,0.509392,-0.99446,36.1875,1,15309,1578014
51,1,-0.675971,-0.0617606,9.7937,0.0646716,-0.536473,1.00183,-0.00676124,-0.000627439,0.0979369,1,4.94849e-05,-7.85861e-06,1.03299e-05,0.00989699,-0.00157172,0.00206599,0,0,0,0,0.05236,0.509392,-0.99446,36.1875,1,15309,1578014
51,2,-0.653743,-0.0728627,9.79889,0.0857447,-0.545773,1.00334,-0.00654068,-0.000739368,0.0979886,1,5.28989e-05,-1.68257e-05,2.8601e-05,0.0105798,-0.00336514,0.0057202,0,0,0,0,0.0533635,0.509836,-0.992434,36.1875,1,15310,1578114
52,1,-0.653743,-0.0728627,9.79889,0.0857447,-0.545773,1.00334,-0.00654068,-0.000739368,0.0979886,1,5.28989e-05,-1.68257e-05,2.8601e-05,0.0105798,-0.00336514,0.0057202,0,0,0,0,0.0533635,0.509836,-0.992434,36.1875,1,15310,1578114
52,2,-0.662019,-0.0685203,9.7949,0.0834993,-0.542059,1.00349,-0.0066219,-0.000693725,0.0979489,1,4.27756e-05,-8.79006e-06,1.07642e-05,0.00855512,-0.00175801,0.00215284,0,0,0,0,0.0552391,0.511301,-0.99342,36.1875,1,15311,1578214
52,3,-0.662019,-0.0685203,9.7949,0.0834993,-0.542059,1.00349,-0.0066219,-0.000693725,0.0979489,1,4.27756e-05,-8.79006e-06,1.07642e-05,0.00855512,-0.00175801,0.00215284,0,0,0,0,0.0552391,0.511301,-0.99342,36.1875,1,15311,1578214
52,4,-0.664355,-0.0692185,9.78712,0.0767647,-0.547816,0.994782,-0.00664749,-0.000700581,0.0978709,1,4.16095e-05,-2.02658e-05,1.89562e-05,0.0083219,-0.00405315,0.00379124,0,0,0,0,0.0556471,0.514242,-0.994367,36.1875,1,15312,1578314
52,5,-0.664355,-0.0692185,9.78712,0.0767647,-0.547816,0.994782,-0.00664749,-0.000700581,0.0978709,1,4.16095e-05,-2.02658e-05,1.89562e-05,0.0083219,-0.00405315,0.00379124,0,0,0,0,0.0556471,0.514242,-0.994367,36.1875,1,15312,1578314
52,6,-0.66125,-0.0678912,9.79457,0.0815759,-0.541017,1.00002,-0.00661479,-0.000687517,0.0979455,1,4.34425e-05,-1.17661e-05,7.20065e-06,0.00868851,-0.00235322,0.00144013,0,0,0,0,0.0550958,0.513333,-0.99792,36.1875,1,15313,1578414
52,7,-0.66125,-0.0678912,9.79457,0.0815759,-0.541017,1.00002,-0.00661479,-0.000687517,0.0979455,1,4.34425e-05,-1.17661e-05,7.20065e-06,0.00868851,-0.00235322,0.00144013,0,0,0,0,0.0550958,0.513333,-0.99792,36.1875,1,15313,1578414
52,8,-0.658347,-0.0663996,9.78846,0.0817733,-0.544849,0.993947,-0.00658499,-0.000672061,0.0978844,1,4.09502e-05,-7.79704e-06,3.65265e-06,0.00819005,-0.00155941,0.00073053,0,0,0,0,0.0546588,0.509932,-0.998499,36.1875,1,15314,1578514
53,1,-0.658347,-0.0663996,9.78846,0.0817733,-0.544849,0.993947,-0.00658499,-0.000672061,0.0978844,1,4.09502e-05,-7.79704e-06,3.65265e-06,0.00819005,-0.00155941,0.00073053,0,0,0,0,0.0546588,0.509932,-0.998499,36.1875,1,15314,1578514
53,2,-0.666524,-0.0620809,9.79261,0.0754546,-0.540129,1.00083,-0.00666713,-0.000629607,0.0979259,1,4.47799e-05,-9.7024e-06,2.06389e-06,0.00895597,-0.00194048,0.000412778,0,0,0,0,0.0537298,0.510879,-0.996453,36.1875,1,15315,1578614
53,3,-0.666524,-0.0620809,9.79261,0.0754546,-0.540129,1.00083,-0.00666713,-0.000629607,0.0979259,1,4.47799e-05,-9.7024e-06,2.06389e-06,0.00895597,-0.00194048,0.000412778,0,0,0,0,0.0537298,0.510879,-0.996453,36.1875,1,15315,1578614
53,4,-0.666502,-0.0657385,9.78818,0.0759199,-0.542572,0.99104,-0.00666714,-0.000666129,0.0978816,1,4.30867e-05,-1.09543e-05,2.31844e-05,0.00861733,-0.00219086,0.00463689,0,0,0,0,0.0556628,0.511821,-0.995431,36.1875,1,15316,1578714
53,5,-0.666502,-0.0657385,9.78818,0.0759199,-0.542572,0.99104,-0.00666714,-0.000666129,0.0978816,1,4.30867e-05,-1.09543e-05,2.31844e-05,0.00861733,-0.00219086,0.00463689,0,0,0,0,0.0556628,0.511821,-0.995431,36.1875,1,15316,1578714
53,6,-0.671477,-0.0710215,9.79563,0.0724653,-0.551241,1.00394,-0.00671684,-0.000720053,0.0979561,1,4.95576e-05,-1.06039e-05,9.57943e-06,0.00991152,-0.00212078,0.00191589,0,0,0,0,0.0556263,0.513293,-0.995903,36.1875,1,15317,1578814
54,1,-0.671477,-0.0710215,9.79563,0.0724653,-0.551241,1.00394,-0.00671684,-0.000720053,0.0979561,1,4.95576e-05,-1.06039e-05,9.57943e-06,0.00991152,-0.00212078,0.00191589,0,0,0,0,0.0556263,0.513293,-0.995903,36.1875,1,15317,1578814
54,2,-0.662071,-0.0691502,9.78269,0.0777259,-0.552366,0.989985,-0.00662383,-0.000700665,0.0978267,1,4.55713e-05,-1.6101e-05,1.86508e-05,0.00911427,-0.00322019,0.00373016,0,0,0,0,0.0546887,0.513283,-0.994889,36.1875,1,15318,1578914
54,3,-0.662071,-0.0691502,9.78269,0.0777259,-0.552366,0.989985,-0.00662383,-0.000700665,0.0978267,1,4.55713e-05,-1.6101e-05,1.86508e-05,0.00911427,-0.00322019,0.00373016,0,0,0,0,0.0546887,0.513283,-0.994889,36.1875,1,15318,1578914
54,4,-0.668912,-0.0684116,9.79461,0.0676882,-0.550353,1.0035,-0.0066894,-0.000695013,0.097946,1,5.3646e-05,-1.66691e-06,2.90443e-05,0.0107292,-0.000333382,0.00580887,0,0,0,0,0.0556305,0.513772,-0.995387,36.1875,1,15319,1579014
54,5,-0.668912,-0.0684116,9.79461,0.0676882,-0.550353,1.0035,-0.0066894,-0.000695013,0.097946,1,5.3646e-05,-1.66691e-06,2.90443e-05,0.0107292,-0.000333382,0.00580887,0,0,0,0,0.0556305,0.513772,-0.995387,36.1875,1,15319,1579014
54,6,-0.674588,-0.0795014,9.78913,0.0615233,-0.563621,0.995906,-0.00674741,-0.000804814,0.0978911,1,4.80561e-05,-8.02279e-06,2.90238e-05,0.00961123,-0.00160456,0.00580476,0,0,0,0,0.0561643,0.51132,-0.994939,36.1875,1,15320,1579114
54,7,-0.674588,-0.0795014,9.78913,0.0615233,-0.563621,0.995906,-0.00674741,-0.000804814,0.0978911,1,4.80561e-05,-8.02279e-06,2.90238e-05,0.00961123,-0.00160456,0.00580476,0,0,0,0,0.0561643,0.51132,-0.994939,36.1875,1,15320,1579114
54,8,-0.671841,-0.0732096,9.79629,0.0680835,-0.558202,1.00426,-0.00671945,-0.0007444,0.0979627,1,6.17132e-05,-5.44473e-06,1.58883e-05,0.0123426,-0.00108895,0.00317765,0,0,0,0,0.0547291,0.510844,-0.994943,36.1875,1,15321,1579214
55,1,-0.671841,-0.0732096,9.79629,0.0680835,-0.558202,1.00426,-0.00671945,-0.0007444,0.0979627,1,6.17132e-05,-5.44473e-06,1.58883e-05,0.0123426,-0.00108895,0.00317765,0,0,0,0,0.0547291,0.510844,-0.994943,36.1875,1,15321,1579214
55,2,-0.66782,-0.0695776,9.79358,0.0682609,-0.553188,1.00177,-0.00667979,-0.000705293,0.0979356,1,4.75719e-05,-8.21046e-06,1.48491e-05,0.00951438,-0.00164209,0.00296982,0,0,0,0,0.0538242,0.510329,-0.99293,36.1875,1,15322,1579314
56,1,-0.66782,-0.0695776,9.79358,0.0682609,-0.553188,1.00177,-0.00667979,-0.000705293,0.0979356,1,4.75719e-05,-8.21046e-06,1.48491e-05,0.00951438,-0.00164209,0.00296982,0,0,0,0,0.0538242,0.510329,-0.99293,36.1875,1,15322,1579314
56,2,-0.668069,-0.0697234,9.79223,0.0734847,-0.554046,1.00223,-0.00668337,-0.000705087,0.0979221,1,3.93615e-05,-1.37592e-05,1.07379e-05,0.0078723,-0.00275185,0.00214757,0,0,0,0,0.0552514,0.511292,-0.992915,36.1875,1,15323,1579414
57,1,-0.668069,-0.0697234,9.79223,0.0734847,-0.554046,1.00223,-0.00668337,-0.000705087,0.0979221,1,3.93615e-05,-1.37592e-05,1.07379e-05,0.0078723,-0.00275185,0.00214757,0,0,0,0,0.0552514,0.511292,-0.992915,36.1875,1,15323,1579414
57,2,-0.657152,-0.0726609,9.79112,0.081072,-0.559304,0.995341,-0.00657582,-0.000732914,0.0979108,1,3.13222e-05,-2.20853e-05,1.30666e-05,0.00626444,-0.00441706,0.00261331,0,0,0,0,0.0570658,0.514248,-0.995383,36.1875,1,15324,1579514
58,1,-0.657152,-0.0726609,9.79112,0.081072,-0.559304,0.995341,-0.00657582,-0.000732914,0.0979108,1,3.13222e-05,-2.20853e-05,1.30666e-05,0.00626444,-0.00441706,0.00261331,0,0,0,0,0.0570658,0.514248,-0.995383,36.1875,1,15324,1579514
58,2,-0.664387,-0.0661229,9.79766,0.071614,-0.553013,1.00328,-0.00664638,-0.000670791,0.0979764,1,4.79016e-05,-1.2893e-05,1.31728e-05,0.00958033,-0.00257861,0.00263456,0,0,0,0,0.0555655,0.516229,-0.996343,36.1875,1,15325,1579614
58,3,-0.664387,-0.0661229,9.79766,0.071614,-0.553013,1.00328,-0.00664638,-0.000670791,0.0979764,1,4.79016e-05,-1.2893e-05,1.31728e-05,0.00958033,-0.00257861,0.00263456,0,0,0,0,0.0555655,0.516229,-0.996343,36.1875,1,15325,1579614
58,4,-0.670504,-0.0661921,9.79024,0.0634915,-0.557323,0.998199,-0.00670809,-0.000669822,0.0979021,1,4.0004e-05,-1.5596e-05,5.0646e-06,0.0080008,-0.00311919,0.00101292,0,0,0,0,0.0546189,0.513816,-0.997402,36.1875,1,15326,1579714
58,5,-0.670504,-0.0661921,9.79024,0.0634915,-0.557323,0.998199,-0.00670809,-0.000669822,0.0979021,1,4.0004e-05,-1.5596e-05,5.0646e-06,0.0080008,-0.00311919,0.00101292,0,0,0,0,0.0546189,0.513816,-0.997402,36.1875,1,15326,1579714
58,6,-0.671936,-0.0660887,9.79703,0.0630494,-0.552907,1.00334,-0.00672125,-0.0006731,0.09797,1,6.17355e-05,-9.69853e-06,8.65426e-06,0.0123471,-0.00193971,0.00173085,0,0,0,0,0.0546593,0.511377,-0.997456,36.1875,1,15327,1579814
58,7,-0.671936,-0.0660887,9.79703,0.0630494,-0.552907,1.00334,-0.00672125,-0.0006731,0.09797,1,6.17355e-05,-9.69853e-06,8.65426e-06,0.0123471,-0.00193971,0.00173085,0,0,0,0,0.0546593,0.511377,-0.997456,36.1875,1,15327,1579814
58,8,-0.661062,-0.0625914,9.79156,0.0782017,-0.557231,0.996105,-0.00661368,-0.000636147,0.0979153,1,5.17666e-05,-1.56834e-05,7.24593e-06,0.0103533,-0.00313668,0.00144919,0,0,0,0,0.0537877,0.511801,-0.993402,36.1875,1,15328,1579914
59,1,-0.661062,-0.0625914,9.79156,0.0782017,-0.557231,0.996105,-0.00661368,-0.000636147,0.0979153,1,5.17666e-05,-1.56834e-05,7.24593e-06,0.0103533,-0.00313668,0.00144919,0,0,0,0,0.0537877,0.511801,-0.993402,36.1875,1,15328,1579914
59,2,-0.682391,-0.0699177,9.78791,0.0506193,-0.563932,0.995085,-0.00682605,-0.00071108,0.0978789,1,5.87833e-05,-1.11087e-05,2.89675e-05,0.0117567,-0.00222174,0.0057935,0,0,0,0,0.0538005,0.513237,-0.991855,36.1875,1,15329,1580014
60,1,-0.682391,-0.0699177,9.78791,0.0506193,-0.563932,0.995085,-0.00682605,-0.00071108,0.0978789,1,5.87833e-05,-1.11087e-05,2.89675e-05,0.0117567,-0.00222174,0.0057935,0,0,0,0,0.0538005,0.513237,-0.991855,36.1875,1,15329,1580014
60,2,-0.671616,-0.0715989,9.78545,0.0684668,-0.565701,0.990217,-0.00671765,-0.000724003,0.0978543,1,3.9583e-05,-7.72238e-06,1.98783e-05,0.0079166,-0.00154448,0.00397566,0,0,0,0,0.0556471,0.514242,-0.994367,36.1875,1,15330,1580114
61,1,-0.671616,-0.0715989,9.78545,0.0684668,-0.565701,0.990217,-0.00671765,-0.000724003,0.0978543,1,3.9583e-05,-7.72238e-06,1.98783e-05,0.0079166,-0.00154448,0.00397566,0,0,0,0,0.0556471,0.514242,-0.994367,36.1875,1,15330,1580114
61,2,-0.671545,-0.0620725,9.78995,0.066349,-0.553748,0.9971,-0.00671774,-0.000628745,0.0978992,1,3.97508e-05,-1.18372e-05,1.76261e-05,0.00795015,-0.00236743,0.00352521,0,0,0,0,0.0560704,0.513316,-0.99742,36.1875,1,15331,1580214
61,3,-0.671545,-0.0620725,9.78995,0.066349,-0.553748,0.9971,-0.00671774,-0.000628745,0.0978992,1,3.97508e-05,-1.18372e-05,1.76261e-05,0.00795015,-0.00236743,0.00352521,0,0,0,0,0.0560704,0.513316,-0.99742,36.1875,1,15331,1580214
61,4,-0.658455,-0.0584192,9.77768,0.0787717,-0.554878,0.982496,-0.00658671,-0.000593144,0.0977766,1,4.45825e-05,-1.11588e-05,1.77789e-05,0.0089165,-0.00223177,0.00355578,0,0,0,0,0.0551447,0.511852,-0.996943,36.1875,1,15332,1580314
61,5,-0.658455,-0.0584192,9.77768,0.0787717,-0.554878,0.982496,-0.00658671,-0.000593144,0.0977766,1,4.45825e-05,-1.11588e-05,1.77789e-05,0.0089165,-0.00223177,0.00355578,0,0,0,0,0.0551447,0.511852,-0.996943,36.1875,1,15332,1580314
61,6,-0.669644,-0.0613753,9.7862,0.0640506,-0.556258,0.995616,-0.00669745,-0.000622895,0.0978619,1,4.56124e-05,-5.236e-06,1.60094e-05,0.00912249,-0.0010472,0.00320188,0,0,0,0,0.0547044,0.510862,-0.995953,36.1875,1,15333,1580414
61,7,-0.669644,-0.0613753,9.7862,0.0640506,-0.556258,0.995616,-0.00669745,-0.000622895,0.0978619,1,4.56124e-05,-5.236e-06,1.60094e-05,0.00912249,-0.0010472,0.00320188,0,0,0,0,0.0547044,0.510862,-0.995953,36.1875,1,15333,1580414
61,8,-0.664297,-0.0687555,9.79526,0.0696193,-0.565714,0.998775,-0.00664692,-0.000698371,0.0979523,1,5.47487e-05,-2.02041e-05,6.78574e-06,0.0109497,-0.00404082,0.00135715,0,0,0,0,0.0547827,0.511287,-0.992408,36.1875,1,15334,1580514
62,1,-0.664297,-0.0687555,9.79526,0.0696193,-0.565714,0.998775,-0.00664692,-0.000698371,0.0979523,1,5.47487e-05,-2.02041e-05,6.78574e-06,0.0109497,-0.00404082,0.00135715,0,0,0,0,0.0547827,0.511287,-0.992408,36.1875,1,15334,1580514
62,2,-0.66545,-0.0684428,9.79798,0.0688315,-0.568088,1.00653,-0.00665576,-0.000695028,0.0979796,1,5.27128e-05,-6.58811e-06,2.03309e-05,0.0105426,-0.00131762,0.00406619,0,0,0,0,0.0547219,0.514223,-0.992848,36.1875,1,15335,1580614
63,1,-0.66545,-0.0684428,9.79798,0.0688315,-0.568088,1.00653,-0.00665576,-0.000695028,0.0979796,1,5.27128e-05,-6.58811e-06,2.03309e-05,0.0105426,-0.00131762,0.00406619,0,0,0,0,0.0547219,0.514223,-0.992848,36.1875,1,15335,1580614
63,2,-0.670154,-0.0763185,9.78676,0.0640632,-0.574799,0.991851,-0.00670393,-0.000774053,0.0978673,1,5.43557e-05,-1.23083e-05,1.70917e-05,0.0108711,-0.00246166,0.00341833,0,0,0,0,0.056124,0.513759,-0.994885,36.1875,1,15336,1580714
64,1,-0.670154,-0.0763185,9.78676,0.0640632,-0.574799,0.991851,-0.00670393,-0.000774053,0.0978673,1,5.43557e-05,-1.23083e-05,1.70917e-05,0.0108711,-0.00246166,0.00341833,0,0,0,0,0.056124,0.513759,-0.994885,36.1875,1,15336,1580714
64,2,-0.667431,-0.0651296,9.79362,0.066465,-0.565521,1.00004,-0.00667763,-0.00066071,0.0979359,1,4.70149e-05,-1.70509e-05,1.53594e-05,0.00940298,-0.00341018,0.00307187,0,0,0,0,0.0570734,0.512315,-0.996437,36.1875,1,15337,1580814
65,1,-0.667431,-0.0651296,9.79362,0.066465,-0.565521,1.00004,-0.00667763,-0.00066071,0.0979359,1,4.70149e-05,-1.70509e-05,1.53594e-05,0.00940298,-0.00341018,0.00307187,0,0,0,0,0.0570734,0.512315,-0.996437,36.1875,1,15337,1580814
65,2,-0.669766,-0.0703113,9.79359,0.0658846,-0.570398,1.00066,-0.00669971,-0.000712721,0.0979357,1,4.87119e-05,-1.05017e-05,4.99159e-06,0.00974238,-0.00210033,0.000998317,0,0,0,0,0.0547125,0.510375,-0.995964,36.1875,1,15338,1580914
66,1,-0.669766,-0.0703113,9.79359,0.0658846,-0.570398,1.00066,-0.00669971,-0.000712721,0.0979357,1,4.87119e-05,-1.05017e-05,4.99159e-06,0.00974238,-0.00210033,0.000998317,0,0,0,0,0.0547125,0.510375,-0.995964,36.1875,1,15338,1580914
66,2,-0.6642,-0.0625829,9.79497,0.0705054,-0.563344,1.00108,-0.00664156,-0.000637192,0.0979496,1,5.68349e-05,2.12907e-06,1.72574e-05,0.011367,0.000425815,0.00345147,0,0,0,0,0.0523277,0.511343,-0.994416,36.1875,1,15339,1581014
67,1,-0.6642,-0.0625829,9.79497,0.0705054,-0.563344,1.00108,-0.00664156,-0.000637192,0.0979496,1,5.68349e-05,2.12907e-06,1.72574e-05,0.011367,0.000425815,0.00345147,0,0,0,0,0.0523277,0.511343,-0.994416,36.1875,1,15339,1581014
67,2,-0.673694,-0.0657999,9.79263,0.0647136,-0.56891,0.997717,-0.00673872,-0.000667993,0.0979261,1,5.06732e-05,-9.1197e-06,5.16545e-06,0.0101346,-0.00182394,0.00103309,0,0,0,0,0.0542565,0.511806,-0.99391,36.1875,1,15340,1581114
67,3,-0.673694,-0.0657999,9.79263,0.0647136,-0.56891,0.997717,-0.00673872,-0.000667993,0.0979261,1,5.06732e-05,-9.1197e-06,5.16545e-06,0.0101346,-0.00182394,0.00103309,0,0,0,0,0.0542565,0.511806,-0.99391,36.1875,1,15340,1581114
67,4,-0.653851,-0.0652046,9.79081,0.0786946,-0.56884,0.992996,-0.00654249,-0.000664628,0.0979078,1,6.32909e-05,-2.0418e-05,1.43836e-05,0.0126582,-0.0040836,0.00287672,0,0,0,0,0.0546683,0.51378,-0.995383,36.1875,1,15341,1581214
67,5,-0.653851,-0.0652046,9.79081,0.0786946,-0.56884,0.992996,-0.00654249,-0.000664628,0.0979078,1,6.32909e-05,-2.0418e-05,1.43836e-05,0.0126582,-0.0040836,0.00287672,0,0,0,0,0.0546683,0.51378,-0.995383,36.1875,1,15341,1581214
67,6,-0.667777,-0.0635264,9.79567,0.0648791,-0.570535,1.00286,-0.00668016,-0.000643757,0.0979565,1,4.24423e-05,-1.22934e-05,1.33495e-05,0.00848846,-0.00245868,0.0026699,0,0,0,0,0.054599,0.515758,-0.996854,36.1875,1,15342,1581314
67,7,-0.667777,-0.0635264,9.79567,0.0648791,-0.570535,1.00286,-0.00668016,-0.000643757,0.0979565,1,4.24423e-05,-1.22934e-05,1.33495e-05,0.00848846,-0.00245868,0.0026699,0,0,0,0,0.054599,0.515758,-0.996854,36.1875,1,15342,1581314
67,8,-0.670905,-0.0722558,9.78408,0.0628524,-0.582242,0.988757,-0.00671167,-0.000731908,0.0978406,1,4.64245e-05,-1.35059e-05,1.98131e-05,0.00928491,-0.00270118,0.00396262,0,0,0,0,0.0536444,0.513833,-0.997902,36.1875,1,15343,1581414
68,1,-0.670905,-0.0722558,9.78408,0.0628524,-0.582242,0.988757,-0.00671167,-0.000731908,0.0978406,1,4.64245e-05,-1.35059e-05,1.98131e-05,0.00928491,-0.00270118,0.00396262,0,0,0,0,0.0536444,0.513833,-0.997902,36.1875,1,15343,1581414
68,2,-0.667916,-0.0630687,9.79702,0.0640466,-0.571284,1.00427,-0.00667968,-0.000641406,0.0979701,1,5.37801e-05,-2.73233e-06,1.35527e-05,0.010756,-0.000546466,0.00271055,0,0,0,0,0.0527306,0.510914,-0.997963,36.1875,1,15344,1581514
68,3,-0.667916,-0.0630687,9.79702,0.0640466,-0.571284,1.00427,-0.00667968,-0.000641406,0.0979701,1,5.37801e-05,-2.73233e-06,1.35527e-05,0.010756,-0.000546466,0.00271055,0,0,0,0,0.0527306,0.510914,-0.997963,36.1875,1,15344,1581514
68,4,-0.666469,-0.0745135,9.79557,0.0636061,-0.583256,1.00061,-0.00666476,-0.000750919,0.0979556,1,2.83886e-05,-4.91509e-07,1.66595e-05,0.00567772,-9.83018e-05,0.0033319,0,0,0,0,0.0527718,0.511366,-0.995933,36.1875,1,15345,1581614
68,5,-0.666469,-0.0745135,9.79557,0.0636061,-0.583256,1.00061,-0.00666476,-0.000750919,0.0979556,1,2.83886e-05,-4.91509e-07,1.66595e-05,0.00567772,-9.83018e-05,0.0033319,0,0,0,0,0.0527718,0.511366,-0.995933,36.1875,1,15345,1581614
68,6,-0.662337,-0.0688517,9.79423,0.0752614,-0.572487,0.996451,-0.00662635,-0.000696687,0.097942,1,4.17978e-05,-1.52308e-05,-1.32231e-06,0.00835955,-0.00304617,-0.000264463,0,0,0,0,0.0533227,0.510829,-0.993422,36.1875,1,15346,1581714
68,7,-0.662337,-0.0688517,9.79423,0.0752614,-0.572487,0.996451,-0.00662635,-0.000696687,0.097942,1,4.17978e-05,-1.52308e-05,-1.32231e-06,0.00835955,-0.00304617,-0.000264463,0,0,0,0,0.0533227,0.510829,-0.993422,36.1875,1,15346,1581714
68,8,-0.66985,-0.073306,9.79153,0.0614392,-0.58239,1.00202,-0.00669935,-0.000742541,0.0979151,1,4.74621e-05,-4.47987e-06,1.3886e-05,0.00949241,-0.000895975,0.00277719,0,0,0,0,0.0542854,0.512267,-0.992384,36.1875,1,15347,1581814
69,1,-0.66985,-0.073306,9.79153,0.0614392,-0.58239,1.00202,-0.00669935,-0.000742541,0.0979151,1,4.74621e-05,-4.47987e-06,1.3886e-05,0.00949241,-0.000895975,0.00277719,0,0,0,0,0.0542854,0.512267,-0.992384,36.1875,1,15347,1581814
69,2,-0.671228,-0.0651088,9.78415,0.0597602,-0.575475,0.987113,-0.00671646,-0.000659457,0.0978412,1,4.13413e-05,-2.14893e-05,2.08246e-05,0.00826826,-0.00429787,0.00416492,0,0,0,0,0.0551783,0.514237,-0.99386,36.1875,1,15348,1581914
70,1,-0.671228,-0.0651088,9.78415,0.0597602,-0.575475,0.987113,-0.00671646,-0.000659457,0.0978412,1,4.13413e-05,-2.14893e-05,2.08246e-05,0.00826826,-0.00429787,0.00416492,0,0,0,0,0.0551783,0.514237,-0.99386,36.1875,1,15348,1581914
70,2,-0.66856,-0.0738361,9.78947,0.0577269,-0.584505,0.995712,-0.00668782,-0.000750285,0.0978945,1,6.00702e-05,-1.14271e-05,1.21674e-05,0.012014,-0.00228542,0.00243348,0,0,0,0,0.0546355,0.514286,-0.996382,36.1875,1,15349,1582014
71,1,-0.66856,-0.0738361,9.78947,0.0577269,-0.584505,0.995712,-0.00668782,-0.000750285,0.0978945,1,6.00702e-05,-1.14271e-05,1.21674e-05,0.012014,-0.00228542,0.00243348,0,0,0,0,0.0546355,0.514286,-0.996382,36.1875,1,15349,1582014
71,2,-0.662163,-0.0611417,9.78751,0.0683978,-0.576302,0.988924,-0.00662224,-0.000621969,0.097875,1,5.32568e-05,-3.20929e-06,9.52176e-06,0.0106514,-0.000641859,0.00190435,0,0,0,0,0.0542071,0.511842,-0.995929,36.1875,1,15350,1582114
72,1,-0.662163,-0.0611417,9.78751,0.0683978,-0.576302,0.988924,-0.00662224,-0.000621969,0.097875,1,5.32568e-05,-3.20929e-06,9.52176e-06,0.0106514,-0.000641859,0.00190435,0,0,0,0,0.0542071,0.511842,-0.995929,36.1875,1,15350,1582114
72,2,-0.670786,-0.063805,9.79807,0.0584293,-0.583678,1.00311,-0.00671085,-0.000647279,0.0979804,1,4.6011e-05,-1.53541e-05,1.58604e-05,0.0092022,-0.00307081,0.00317207,0,0,0,0,0.0528088,0.511339,-0.994418,36.1875,1,15351,1582214
73,1,-0.670786,-0.063805,9.79807,0.0584293,-0.583678,1.00311,-0.00671085,-0.000647279,0.0979804,1,4.6011e-05,-1.53541e-05,1.58604e-05,0.0092022,-0.00307081,0.00317207,0,0,0,0,0.0528088,0.511339,-0.994418,36.1875,1,15351,1582214
73,2,-0.665515,-0.0673936,9.78035,0.0592767,-0.5831,0.984596,-0.00665705,-0.000682401,0.0978033,1,4.1809e-05,-9.89968e-06,2.14837e-05,0.0083618,-0.00197994,0.00429675,0,0,0,0,0.0538119,0.510338,-0.993435,36.1875,1,15352,1582314
74,1,-0.665515,-0.0673936,9.78035,0.0592767,-0.5831,0.984596,-0.00665705,-0.000682401,0.0978033,1,4.1809e-05,-9.89968e-06,2.14837e-05,0.0083618,-0.00197994,0.00429675,0,0,0,0,0.0538119,0.510338,-0.993435,36.1875,1,15352,1582314
74,2,-0.658237,-0.0651809,9.79424,0.0701959,-0.574802,1.00076,-0.00658466,-0.00065824,0.0979422,1,3.15515e-05,-1.18222e-05,1.90435e-05,0.00631029,-0.00236443,0.0038087,0,0,0,0,0.0547703,0.511296,-0.992913,36.1875,1,15353,1582414
75,1,-0.658237,-0.0651809,9.79424,0.0701959,-0.574802,1.00076,-0.00658466,-0.00065824,0.0979422,1,3.15515e-05,-1.18222e-05,1.90435e-05,0.00631029,-0.00236443,0.0038087,0,0,0,0,0.0547703,0.511296,-0.992913,36.1875,1,15353,1582414
75,2,-0.66387,-0.0703326,9.80339,0.0656163,-0.584693,1.00503,-0.00664258,-0.000713012,0.0980335,1,4.79818e-05,-1.98948e-05,2.09025e-05,0.00959636,-0.00397897,0.0041805,0,0,0,0,0.055659,0.512787,-0.994904,36.1875,1,15354,1582514
76,1,-0.66387,-0.0703326,9.80339,0.0656163,-0.584693,1.00503,-0.00664258,-0.000713012,0.0980335,1,4.79818e-05,-1.98948e-05,2.09025e-05,0.00959636,-0.00397897,0.0041805,0,0,0,0,0.055659,0.512787,-0.994904,36.1875,1,15354,1582514
76,2,-0.670824,-0.0703362,9.7997,0.0573789,-0.58892,1.00171,-0.00670975,-0.000712723,0.0979968,1,4.73764e-05,-7.76345e-06,5.67733e-06,0.00947527,-0.00155269,0.00113547,0,0,0,0,0.0551081,0.513324,-0.997415,36.1875,1,15355,1582614
77,1,-0.670824,-0.0703362,9.7997,0.0573789,-0.58892,1.00171,-0.00670975,-0.000712723,0.0979968,1,4.73764e-05,-7.76345e-06,5.67733e-06,0.00947527,-0.00155269,0.00113547,0,0,0,0,0.0551081,0.513324,-0.997415,36.1875,1,15355,1582614
77,2,-0.666568,-0.0729233,9.79525,0.0633201,-0.588928,0.994718,-0.00666991,-0.000738531,0.0979522,1,4.70897e-05,-2.16139e-05,5.42028e-06,0.00941793,-0.00432277,0.00108406,0,0,0,0,0.054162,0.512357,-0.997432,36.1875,1,15356,1582714
78,1,-0.666568,-0.0729233,9.79525,0.0633201,-0.588928,0.994718,-0.00666991,-0.000738531,0.0979522,1,4.70897e-05,-2.16139e-05,5.42028e-06,0.00941793,-0.00432277,0.00108406,0,0,0,0,0.054162,0.512357,-0.997432,36.1875,1,15356,1582714
78,2,-0.667728,-0.070933,9.79357,0.0615613,-0.587189,0.997331,-0.00667955,-0.000717806,0.0979355,1,4.31407e-05,-1.15783e-05,1.90168e-06,0.00862814,-0.00231567,0.000380336,0,0,0,0,0.0532202,0.511868,-0.996934,36.1875,1,15357,1582814
79,1,-0.667728,-0.070933,9.79357,0.0615613,-0.587189,0.997331,-0.00667955,-0.000717806,0.0979355,1,4.31407e-05,-1.15783e-05,1.90168e-06,0.00862814,-0.00231567,0.000380336,0,0,0,0,0.0532202,0.511868,-0.996934,36.1875,1,15357,1582814
79,2,-0.660747,-0.0675908,9.80406,0.0692931,-0.585853,1.00772,-0.00660734,-0.000684088,0.0980406,1,4.02535e-05,5.40382e-07,2.17168e-05,0.00805069,0.000108076,0.00434337,0,0,0,0,0.0547252,0.511811,-0.994417,36.1875,1,15358,1582914
79,3,-0.660747,-0.0675908,9.80406,0.0692931,-0.585853,1.00772,-0.00660734,-0.000684088,0.0980406,1,4.02535e-05,5.40382e-07,2.17168e-05,0.00805069,0.000108076,0.00434337,0,0,0,0,0.0547252,0.511811,-0.994417,36.1875,1,15358,1582914
79,4,-0.677385,-0.062125,9.78726,0.0500339,-0.576424,0.990681,-0.0067762,-0.000628788,0.0978724,1,3.74541e-05,-1.2081e-05,1.52533e-05,0.00749082,-0.00241621,0.00305065,0,0,0,0,0.0556713,0.512778,-0.9944,36.1875,1,15359,1583014
79,5,-0.677385,-0.062125,9.78726,0.0500339,-0.576424,0.990681,-0.0067762,-0.000628788,0.0978724,1,3.74541e-05,-1.2081e-05,1.52533e-05,0.00749082,-0.00241621,0.00305065,0,0,0,0,0.0556713,0.512778,-0.9944,36.1875,1,15359,1583014
79,6,-0.652646,-0.0637696,9.78335,0.0760137,-0.589494,0.987877,-0.00652821,-0.000648299,0.0978333,1,5.32642e-05,-9.06176e-06,1.38321e-05,0.0106528,-0.00181235,0.00276643,0,0,0,0,0.0556101,0.514269,-0.995881,36.1875,1,15360,1583114
80,1,-0.652646,-0.0637696,9.78335,0.0760137,-0.589494,0.987877,-0.00652821,-0.000648299,0.0978333,1,5.32642e-05,-9.06176e-06,1.38321e-05,0.0106528,-0.00181235,0.00276643,0,0,0,0,0.0556101,0.514269,-0.995881,36.1875,1,15360,1583114
80,2,-0.671203,-0.0630564,9.78925,0.0546435,-0.585714,0.989415,-0.00671609,-0.000639789,0.0978922,1,4.64412e-05,-2.08264e-05,9.84796e-06,0.00928825,-0.00416528,0.00196959,0,0,0,0,0.0540847,0.514823,-0.998892,36.1875,1,15361,1583214
81,1,-0.671203,-0.0630564,9.78925,0.0546435,-0.585714,0.989415,-0.00671609,-0.000639789,0.0978922,1,4.64412e-05,-2.08264e-05,9.84796e-06,0.00928825,-0.00416528,0.00196959,0,0,0,0,0.0540847,0.514823,-0.998892,36.1875,1,15361,1583214
81,2,-0.665875,-0.0626346,9.79736,0.0648751,-0.583781,0.995587,-0.00665956,-0.00063504,0.0979735,1,4.24738e-05,-4.3376e-06,2.78971e-05,0.00849476,-0.00086752,0.00557941,0,0,0,0,0.0541127,0.512393,-0.999452,36.1875,1,15362,1583314
82,1,-0.665875,-0.0626346,9.79736,0.0648751,-0.583781,0.995587,-0.00665956,-0.00063504,0.0979735,1,4.24738e-05,-4.3376e-06,2.78971e-05,0.00849476,-0.00086752,0.00557941,0,0,0,0,0.0541127,0.512393,-0.999452,36.1875,1,15362,1583314
82,2,-0.665487,-0.073018,9.79353,0.0642788,-0.595253,0.995596,-0.00665546,-0.00073779,0.0979352,1,3.73218e-05,-3.21669e-06,2.25195e-05,0.00746435,-0.000643337,0.00450391,0,0,0,0,0.0542109,0.510875,-0.996455,36.1875,1,15363,1583414
83,1,-0.665487,-0.073018,9.79353,0.0642788,-0.595253,0.995596,-0.00665546,-0.00073779,0.0979352,1,3.73218e-05,-3.21669e-06,2.25195e-05,0.00746435,-0.000643337,0.00450391,0,0,0,0,0.0542109,0.510875,-0.996455,36.1875,1,15363,1583414
83,2,-0.665127,-0.0669816,9.78883,0.0570477,-0.590097,0.99454,-0.00665354,-0.000679937,0.0978881,1,4.97363e-05,-1.18163e-05,2.88135e-05,0.00994726,-0.00236326,0.00576269,0,0,0,0,0.0547699,0.509851,-0.993955,36.1875,1,15364,1583514
84,1,-0.665127,-0.0669816,9.78883,0.0570477,-0.590097,0.99454,-0.00665354,-0.000679937,0.0978881,1,4.97363e-05,-1.18163e-05,2.88135e-05,0.00994726,-0.00236326,0.00576269,0,0,0,0,0.0547699,0.509851,-0.993955,36.1875,1,15364,1583514
84,2,-0.669317,-0.0600516,9.78519,0.0528169,-0.581204,0.991156,-0.00669537,-0.000607971,0.0978517,1,3.68561e-05,-1.13733e-05,1.80436e-05,0.00737122,-0.00227466,0.00360872,0,0,0,0,0.0556751,0.511812,-0.994926,36.1875,1,15365,1583614
85,1,-0.669317,-0.0600516,9.78519,0.0528169,-0.581204,0.991156,-0.00669537,-0.000607971,0.0978517,1,3.68561e-05,-1.13733e-05,1.80436e-05,0.00737122,-0.00227466,0.00360872,0,0,0,0,0.0556751,0.511812,-0.994926,36.1875,1,15365,1583614
85,2,-0.663812,-0.0649976,9.78477,0.0600417,-0.587374,0.98953,-0.00663923,-0.000659673,0.0978476,1,4.84475e-05,-5.77585e-06,1.62421e-05,0.00968949,-0.00115517,0.00324842,0,0,0,0,0.0566132,0.513267,-0.994898,36.1875,1,15366,1583714
86,1,-0.663812,-0.0649976,9.78477,0.0600417,-0.587374,0.98953,-0.00663923,-0.000659673,0.0978476,1,4.84475e-05,-5.77585e-06,1.62421e-05,0.00968949,-0.00115517,0.00324842,0,0,0,0,0.0566132,0.513267,-0.994898,36.1875,1,15366,1583714
86,2,-0.66973,-0.0739738,9.79797,0.0574865,-0.589861,1.001,-0.00670038,-0.000746474,0.0979794,1,3.29334e-05,-1.58737e-05,2.11409e-05,0.00658668,-0.00317474,0.00422818,0,0,0,0,0.0556139,0.513302,-0.996408,36.1875,1,15367,1583814
87,1,-0.66973,-0.0739738,9.79797,0.0574865,-0.589861,1.001,-0.00670038,-0.000746474,0.0979794,1,3.29334e-05,-1.58737e-05,2.11409e-05,0.00658668,-0.00317474,0.00422818,0,0,0,0,0.0556139,0.513302,-0.996408,36.1875,1,15367,1583814
87,2,-0.664945,-0.0719857,9.79219,0.0550724,-0.593029,0.994822,-0.00665385,-0.000727783,0.0979216,1,3.88828e-05,-2.26477e-05,2.33632e-05,0.00777656,-0.00452954,0.00467265,0,0,0,0,0.0546636,0.511856,-0.996941,36.1875,1,15368,1583914
88,1,-0.664945,-0.0719857,9.79219,0.0550724,-0.593029,0.994822,-0.00665385,-0.000727783,0.0979216,1,3.88828e-05,-2.26477e-05,2.33632e-05,0.00777656,-0.00452954,0.00467265,0,0,0,0,0.0546636,0.511856,-0.996941,36.1875,1,15368,1583914
88,2,-0.677749,-0.0670136,9.79434,0.0468376,-0.589754,0.99838,-0.00677912,-0.000677297,0.0979433,1,3.55317e-05,-8.45275e-06,1.48045e-05,0.00710634,-0.00169055,0.00296091,0,0,0,0,0.0537834,0.511322,-0.993918,36.1875,1,15369,1584014
89,1,-0.677749,-0.0670136,9.79434,0.0468376,-0.589754,0.99838,-0.00677912,-0.000677297,0.0979433,1,3.55317e-05,-8.45275e-06,1.48045e-05,0.00710634,-0.00169055,0.00296091,0,0,0,0,0.0537834,0.511322,-0.993918,36.1875,1,15369,1584014
89,2,-0.667077,-0.0664364,9.79395,0.0607024,-0.589809,0.996573,-0.00667278,-0.000673828,0.0979393,1,4.74771e-05,-1.03876e-05,1.22932e-05,0.00949542,-0.00207753,0.00245864,0,0,0,0,0.0557734,0.510295,-0.99193,36.1875,1,15370,1584114
90,1,-0.667077,-0.0664364,9.79395,0.0607024,-0.589809,0.996573,-0.00667278,-0.000673828,0.0979393,1,4.74771e-05,-1.03876e-05,1.22932e-05,0.00949542,-0.00207753,0.00245864,0,0,0,0,0.0557734,0.510295,-0.99193,36.1875,1,15370,1584114
90,2,-0.673148,-0.0734895,9.79528,0.0508727,-0.597851,0.998164,-0.00673394,-0.000743555,0.0979526,1,4.29601e-05,-1.2709e-05,1.81122e-05,0.00859201,-0.0025418,0.00362245,0,0,0,0,0.0552514,0.511292,-0.992915,36.1875,1,15371,1584214
90,3,-0.673148,-0.0734895,9.79528,0.0508727,-0.597851,0.998164,-0.00673394,-0.000743555,0.0979526,1,4.29601e-05,-1.2709e-05,1.81122e-05,0.00859201,-0.0025418,0.00362245,0,0,0,0,0.0552514,0.511292,-0.992915,36.1875,1,15371,1584214
90,4,-0.664401,-0.0673461,9.78849,0.0598204,-0.592242,0.986154,-0.00664713,-0.000684239,0.0978846,1,5.47748e-05,-1.59704e-05,4.12219e-06,0.010955,-0.00319408,0.000824438,0,0,0,0,0.0551945,0.513261,-0.993882,36.1875,1,15372,1584314
90,5,-0.664401,-0.0673461,9.78849,0.0598204,-0.592242,0.986154,-0.00664713,-0.000684239,0.0978846,1,5.47748e-05,-1.59704e-05,4.12219e-06,0.010955,-0.00319408,0.000824438,0,0,0,0,0.0551945,0.513261,-0.993882,36.1875,1,15372,1584314
90,6,-0.663136,-0.0778292,9.8023,0.0587588,-0.60727,1.0069,-0.00663456,-0.000785927,0.0980228,1,3.78117e-05,-1.64621e-05,1.67004e-05,0.00756234,-0.00329243,0.00334008,0,0,0,0,0.0561112,0.512323,-0.996432,36.1875,1,15373,1584414
90,7,-0.663136,-0.0778292,9.8023,0.0587588,-0.60727,1.0069,-0.00663456,-0.000785927,0.0980228,1,3.78117e-05,-1.64621e-05,1.67004e-05,0.00756234,-0.00329243,0.00334008,0,0,0,0,0.0561112,0.512323,-0.996432,36.1875,1,15373,1584414
90,8,-0.670809,-0.0618492,9.79842,0.0522945,-0.58825,1.00029,-0.00671089,-0.000626569,0.097984,1,3.9665e-05,-1.44598e-05,2.26869e-05,0.00793301,-0.00289196,0.00453738,0,0,0,0,0.0536847,0.511394,-0.997957,36.1875,1,15374,1584514
91,1,-0.670809,-0.0618492,9.79842,0.0522945,-0.58825,1.00029,-0.00671089,-0.000626569,0.097984,1,3.9665e-05,-1.44598e-05,2.26869e-05,0.00793301,-0.00289196,0.00453738,0,0,0,0,0.0536847,0.511394,-0.997957,36.1875,1,15374,1584514
91,2,-0.664433,-0.0681709,9.79492,0.0554836,-0.59354,0.995989,-0.00664723,-0.000690741,0.097949,1,4.49379e-05,-1.49591e-05,1.72504e-05,0.00898759,-0.00299181,0.00345007,0,0,0,0,0.0527718,0.511366,-0.995933,36.1875,1,15375,1584614
92,1,-0.664433,-0.0681709,9.79492,0.0554836,-0.59354,0.995989,-0.00664723,-0.000690741,0.097949,1,4.49379e-05,-1.49591e-05,1.72504e-05,0.00898759,-0.00299181,0.00345007,0,0,0,0,0.0527718,0.511366,-0.995933,36.1875,1,15375,1584614
92,2,-0.663336,-0.0708431,9.80134,0.0622261,-0.595309,1.00385,-0.00663401,-0.000715225,0.0980133,1,3.37549e-05,-3.43476e-06,1.33662e-05,0.00675098,-0.000686952,0.00267323,0,0,0,0,0.0533388,0.509854,-0.993444,36.1875,1,15376,1584714
93,1,-0.663336,-0.0708431,9.80134,0.0622261,-0.595309,1.00385,-0.00663401,-0.000715225,0.0980133,1,3.37549e-05,-3.43476e-06,1.33662e-05,0.00675098,-0.000686952,0.00267323,0,0,0,0,0.0533388,0.509854,-0.993444,36.1875,1,15376,1584714
93,2,-0.666424,-0.0714589,9.79084,0.0549858,-0.599249,0.993083,-0.00666485,-0.000725812,0.0979083,1,5.60342e-05,-3.2241e-06,1.87843e-05,0.0112068,-0.00064482,0.00375687,0,0,0,0,0.0537796,0.512289,-0.993392,36.1875,1,15377,1584814
94,1,-0.666424,-0.0714589,9.79084,0.0549858,-0.599249,0.993083,-0.00666485,-0.000725812,0.0979083,1,5.60342e-05,-3.2241e-06,1.87843e-05,0.0112068,-0.00064482,0.00375687,0,0,0,0,0.0537796,0.512289,-0.993392,36.1875,1,15377,1584814
94,2,-0.675389,-0.069989,9.79464,0.0513948,-0.594826,0.995964,-0.0067558,-0.000708739,0.0979462,1,4.44184e-05,-9.83309e-06,1.09138e-05,0.00888367,-0.00196662,0.00218275,0,0,0,0,0.0551537,0.514255,-0.994869,36.1875,1,15378,1584914
95,1,-0.675389,-0.069989,9.79464,0.0513948,-0.594826,0.995964,-0.0067558,-0.000708739,0.0979462,1,4.44184e-05,-9.83309e-06,1.09138e-05,0.00888367,-0.00196662,0.00218275,0,0,0,0,0.0551537,0.514255,-0.994869,36.1875,1,15378,1584914
95,2,-0.660054,-0.0698811,9.78776,0.0622123,-0.60132,0.991791,-0.0066019,-0.000707009,0.0978774,1,4.10434e-05,-7.03528e-06,1.2409e-05,0.00820867,-0.00140706,0.00248179,0,0,0,0,0.0550797,0.514309,-0.997898,36.1875,1,15379,1585014
96,1,-0.660054,-0.0698811,9.78776,0.0622123,-0.60132,0.991791,-0.0066019,-0.000707009,0.0978774,1,4.10434e-05,-7.03528e-06,1.2409e-05,0.00820867,-0.00140706,0.00248179,0,0,0,0,0.0550797,0.514309,-0.997898,36.1875,1,15379,1585014
96,2,-0.667801,-0.0750897,9.78946,0.056364,-0.601112,0.990339,-0.00668019,-0.000757999,0.0978944,1,3.46526e-05,-1.13282e-05,2.3788e-05,0.00693053,-0.00226564,0.00475761,0,0,0,0,0.0546266,0.511883,-0.998455,36.1875,1,15380,1585114
97,1,-0.667801,-0.0750897,9.78946,0.056364,-0.601112,0.990339,-0.00668019,-0.000757999,0.0978944,1,3.46526e-05,-1.13282e-05,2.3788e-05,0.00693053,-0.00226564,0.00475761,0,0,0,0,0.0546266,0.511883,-0.998455,36.1875,1,15380,1585114
97,2,-0.663839,-0.0589991,9.78313,0.0558146,-0.593102,0.990665,-0.0066404,-0.000597328,0.0978311,1,3.66903e-05,-1.0379e-05,1.19078e-05,0.00733806,-0.0020758,0.00238155,0,0,0,0,0.0537213,0.509922,-0.997484,36.1875,1,15381,1585214
97,3,-0.663839,-0.0589991,9.78313,0.0558146,-0.593102,0.990665,-0.0066404,-0.000597328,0.0978311,1,3.66903e-05,-1.0379e-05,1.19078e-05,0.00733806,-0.0020758,0.00238155,0,0,0,0,0.0537213,0.509922,-0.997484,36.1875,1,15381,1585214
97,4,-0.669778,-0.0837714,9.79992,0.0521507,-0.618418,1.00111,-0.00669878,-0.000844271,0.097999,1,3.24044e-05,-5.23208e-06,1.53167e-05,0.00648088,-0.00104642,0.00306334,0,0,0,0,0.0537792,0.510843,-0.994434,36.1875,1,15382,1585314
97,5,-0.669778,-0.0837714,9.79992,0.0521507,-0.618418,1.00111,-0.00669878,-0.000844271,0.097999,1,3.24044e-05,-5.23208e-06,1.53167e-05,0.00648088,-0.00104642,0.00306334,0,0,0,0,0.0537792,0.510843,-0.994434,36.1875,1,15382,1585314
97,6,-0.664491,-0.0682018,9.79662,0.062776,-0.599852,1.00381,-0.00664492,-0.000691455,0.0979661,1,4.76036e-05,-7.44931e-08,8.26646e-06,0.00952073,-1.48986e-05,0.00165329,0,0,0,0,0.0547423,0.513726,-0.992354,36.1875,1,15383,1585414
97,7,-0.664491,-0.0682018,9.79662,0.062776,-0.599852,1.00381,-0.00664492,-0.000691455,0.0979661,1,4.76036e-05,-7.44931e-08,8.26646e-06,0.00952073,-1.48986e-05,0.00165329,0,0,0,0,0.0547423,0.513726,-0.992354,36.1875,1,15383,1585414
97,8,-0.674647,-0.0669853,9.79196,0.0494677,-0.59657,0.996108,-0.00674765,-0.00067657,0.0979194,1,3.32612e-05,-6.1265e-06,1.50632e-05,0.00665224,-0.0012253,0.00301264,0,0,0,0,0.056597,0.514243,-0.994876,36.1875,1,15384,1585514
98,1,-0.674647,-0.0669853,9.79196,0.0494677,-0.59657,0.996108,-0.00674765,-0.00067657,0.0979194,1,3.32612e-05,-6.1265e-06,1.50632e-05,0.00665224,-0.0012253,0.00301264,0,0,0,0,0.056597,0.514243,-0.994876,36.1875,1,15384,1585514
98,2,-0.664493,-0.0707143,9.7966,0.0606972,-0.606049,0.999312,-0.00664466,-0.000713685,0.0979659,1,3.20188e-05,1.2181e-06,2.01967e-05,0.00640376,0.000243619,0.00403935,0,0,0,0,0.0546479,0.514277,-0.995877,36.1875,1,15385,1585614
99,1,-0.664493,-0.0707143,9.7966,0.0606972,-0.606049,0.999312,-0.00664466,-0.000713685,0.0979659,1,3.20188e-05,1.2181e-06,2.01967e-05,0.00640376,0.000243619,0.00403935,0,0,0,0,0.0546479,0.514277,-0.995877,36.1875,1,15385,1585614
99,2,-0.665771,-0.0623843,9.7916,0.0555781,-0.595926,0.991643,-0.00666008,-0.000633138,0.0979158,1,4.59161e-05,-1.22303e-05,2.27521e-05,0.00918322,-0.00244606,0.00455042,0,0,0,0,0.0527638,0.511854,-0.995922,36.1875,1,15386,1585714
100,1,-0.665771,-0.0623843,9.7916,0.0555781,-0.595926,0.991643,-0.00666008,-0.000633138,0.0979158,1,4.59161e-05,-1.22303e-05,2.27521e-05,0.00918322,-0.00244606,0.00455042,0,0,0,0,0.0527638,0.511854,-0.995922,36.1875,1,15386,1585714
100,2,-0.662289,-0.0678837,9.78678,0.0592767,-0.60154,0.989494,-0.00662622,-0.000686062,0.0978676,1,3.63066e-05,-1.70954e-05,8.91439e-06,0.00726133,-0.00341909,0.00178288,0,0,0,0,0.0532653,0.511353,-0.99543,36.1875,1,15387,1585814
101,1,-0.662289,-0.0678837,9.78678,0.0592767,-0.60154,0.989494,-0.00662622,-0.000686062,0.0978676,1,3.63066e-05,-1.70954e-05,8.91439e-06,0.00726133,-0.00341909,0.00178288,0,0,0,0,0.0532653,0.511353,-0.99543,36.1875,1,15387,1585814
101,2,-0.672127,-0.0701842,9.79564,0.0476357,-0.606027,0.99621,-0.0067239,-0.000713757,0.0979562,1,5.93514e-05,-1.35806e-05,2.14073e-05,0.0118703,-0.00271611,0.00428145,0,0,0,0,0.0552761,0.511274,-0.991906,36.1875,1,15388,1585914
102,1,-0.672127,-0.0701842,9.79564,0.0476357,-0.606027,0.99621,-0.0067239,-0.000713757,0.0979562,1,5.93514e-05,-1.35806e-05,2.14073e-05,0.0118703,-0.00271611,0.00428145,0,0,0,0,0.0552761,0.511274,-0.991906,36.1875,1,15388,1585914
102,2,-0.666753,-0.0646454,9.79735,0.0511951,-0.597822,1.00199,-0.00667068,-0.000651547,0.0979732,1,2.52333e-05,-1.6123e-05,1.1176e-05,0.00504665,-0.0032246,0.0022352,0,0,0,0,0.0557492,0.511758,-0.991897,36.1875,1,15389,1586014
103,1,-0.666753,-0.0646454,9.79735,0.0511951,-0.597822,1.00199,-0.00667068,-0.000651547,0.0979732,1,2.52333e-05,-1.6123e-05,1.1176e-05,0.00504665,-0.0032246,0.0022352,0,0,0,0,0.0557492,0.511758,-0.991897,36.1875,1,15389,1586014
103,2,-0.670607,-0.0595255,9.79029,0.0520806,-0.595087,0.991238,-0.0067084,-0.000606013,0.0979027,1,5.37391e-05,-1.19861e-05,1.75817e-05,0.0107478,-0.00239722,0.00351633,0,0,0,0,0.0566051,0.513755,-0.994887,36.1875,1,15390,1586114
104,1,-0.670607,-0.0595255,9.79029,0.0520806,-0.595087,0.991238,-0.0067084,-0.000606013,0.0979027,1,5.37391e-05,-1.19861e-05,1.75817e-05,0.0107478,-0.00239722,0.00351633,0,0,0,0,0.0566051,0.513755,-0.994887,36.1875,1,15390,1586114
104,2,-0.666446,-0.069533,9.78476,0.0508997,-0.60747,0.985954,-0.00666743,-0.000703802,0.0978473,1,4.19785e-05,-1.53201e-05,1.92225e-05,0.00839569,-0.00306402,0.0038445,0,0,0,0,0.0551081,0.513324,-0.997415,36.1875,1,15391,1586214
105,1,-0.666446,-0.069533,9.78476,0.0508997,-0.60747,0.985954,-0.00666743,-0.000703802,0.0978473,1,4.19785e-05,-1.53201e-05,1.92225e-05,0.00839569,-0.00306402,0.0038445,0,0,0,0,0.0551081,0.513324,-0.997415,36.1875,1,15391,1586214
105,2,-0.670181,-0.0747735,9.79627,0.0551492,-0.611933,0.997996,-0.00670129,-0.000756283,0.0979626,1,4.2975e-05,2.55542e-06,9.53463e-06,0.008595,0.000511084,0.00190693,0,0,0,0,0.054219,0.510388,-0.996466,36.1875,1,15392,1586314
106,1,-0.670181,-0.0747735,9.79627,0.0551492,-0.611933,0.997996,-0.00670129,-0.000756283,0.0979626,1,4.2975e-05,2.55542e-06,9.53463e-06,0.008595,0.000511084,0.00190693,0,0,0,0,0.054219,0.510388,-0.996466,36.1875,1,15392,1586314
106,2,-0.666625,-0.0701816,9.79154,0.0559198,-0.609157,0.994647,-0.00667033,-0.000711441,0.0979151,1,4.71509e-05,-2.10761e-05,2.9331e-05,0.00943019,-0.00421522,0.0058662,0,0,0,0,0.0533227,0.510829,-0.993422,36.1875,1,15393,1586414
107,1,-0.666625,-0.0701816,9.79154,0.0559198,-0.609157,0.994647,-0.00667033,-0.000711441,0.0979151,1,4.71509e-05,-2.10761e-05,2.9331e-05,0.00943019,-0.00421522,0.0058662,0,0,0,0,0.0533227,0.510829,-0.993422,36.1875,1,15393,1586414
107,2,-0.669202,-0.0678646,9.79191,0.0518817,-0.606158,0.996809,-0.00669351,-0.000688369,0.0979189,1,4.88013e-05,-7.70249e-06,1.2394e-05,0.00976026,-0.0015405,0.0024788,0,0,0,0,0.0538494,0.511756,-0.990878,36.1875,1,15394,1586514
108,1,-0.669202,-0.0678646,9.79191,0.0518817,-0.606158,0.996809,-0.00669351,-0.000688369,0.0979189,1,4.88013e-05,-7.70249e-06,1.2394e-05,0.00976026,-0.0015405,0.0024788,0,0,0,0,0.0538494,0.511756,-0.990878,36.1875,1,15394,1586514
108,2,-0.670916,-0.0676377,9.7909,0.0486593,-0.608814,0.993725,-0.00671119,-0.000683975,0.0979088,1,3.74168e-05,-1.04866e-05,2.01818e-05,0.00748335,-0.00209733,0.00403637,0,0,0,0,0.0547504,0.513238,-0.992365,36.1875,1,15395,1586614
109,1,-0.670916,-0.0676377,9.7909,0.0486593,-0.608814,0.993725,-0.00671119,-0.000683975,0.0979088,1,3.74168e-05,-1.04866e-05,2.01818e-05,0.00748335,-0.00209733,0.00403637,0,0,0,0,0.0547504,0.513238,-0.992365,36.1875,1,15395,1586614
109,2,-0.672184,-0.0702105,9.79903,0.0515907,-0.610088,1.00211,-0.00672399,-0.000713384,0.0979901,1,5.67194e-05,-1.10452e-05,1.21837e-05,0.0113439,-0.00220904,0.00243674,0,0,0,0,0.0561078,0.514735,-0.994863,36.1875,1,15396,1586714
110,1,-0.672184,-0.0702105,9.79903,0.0515907,-0.610088,1.00211,-0.00672399,-0.000713384,0.0979901,1,5.67194e-05,-1.10452e-05,1.21837e-05,0.0113439,-0.00220904,0.00243674,0,0,0,0,0.0561078,0.514735,-0.994863,36.1875,1,15396,1586714
110,2,-0.66574,-0.066861,9.79326,0.0554564,-0.607653,0.991969,-0.00666025,-0.000676696,0.0979323,1,4.11309e-05,-1.45195e-05,2.20359e-06,0.00822617,-0.0029039,0.000440718,0,0,0,0,0.0555646,0.513338,-0.998427,36.1875,1,15397,1586814
111,1,-0.66574,-0.066861,9.79326,0.0554564,-0.607653,0.991969,-0.00666025,-0.000676696,0.0979323,1,4.11309e-05,-1.45195e-05,2.20359e-06,0.00822617,-0.0029039,0.000440718,0,0,0,0,0.0555646,0.513338,-0.998427,36.1875,1,15397,1586814
111,2,-0.668055,-0.0716224,9.79526,0.0500265,-0.614777,0.998854,-0.00668202,-0.000725667,0.0979525,1,4.78439e-05,-7.51018e-06,5.26724e-06,0.00956879,-0.00150204,0.00105345,0,0,0,0,0.0541492,0.510921,-0.998979,36.1875,1,15398,1586914
112,1,-0.668055,-0.0716224,9.79526,0.0500265,-0.614777,0.998854,-0.00668202,-0.000725667,0.0979525,1,4.78439e-05,-7.51018e-06,5.26724e-06,0.00956879,-0.00150204,0.00105345,0,0,0,0,0.0541492,0.510921,-0.998979,36.1875,1,15398,1586914
112,2,-0.668,-0.0638297,9.795,0.0548822,-0.609611,0.999693,-0.00668416,-0.000646499,0.0979496,1,4.09391e-05,-2.1292e-05,1.36194e-05,0.00818782,-0.0042584,0.00272388,0,0,0,0,0.0527676,0.510887,-0.996449,36.1875,1,15399,1587014
112,3,-0.668,-0.0638297,9.795,0.0548822,-0.609611,0.999693,-0.00668416,-0.000646499,0.0979496,1,4.09391e-05,-2.1292e-05,1.36194e-05,0.00818782,-0.0042584,0.00272388,0,0,0,0,0.0527676,0.510887,-0.996449,36.1875,1,15399,1587014
112,4,-0.67812,-0.0651427,9.7913,0.0468873,-0.608096,0.995286,-0.00678234,-0.000660804,0.0979129,1,4.62606e-05,-5.98072e-06,2.34695e-05,0.00925212,-0.00119614,0.00469391,0,0,0,0,0.0543096,0.510803,-0.992417,36.1875,1,15400,1587114
112,5,-0.67812,-0.0651427,9.7913,0.0468873,-0.608096,0.995286,-0.00678234,-0.000660804,0.0979129,1,4.62606e-05,-5.98072e-06,2.34695e-05,0.00925212,-0.00119614,0.00469391,0,0,0,0,0.0543096,0.510803,-0.992417,36.1875,1,15400,1587114
112,6,-0.662857,-0.0652453,9.78374,0.0578946,-0.607773,0.984856,-0.00662948,-0.000663547,0.0978373,1,5.64046e-05,-4.69571e-06,4.28041e-06,0.0112809,-0.000939143,0.000856082,0,0,0,0,0.056226,0.511275,-0.992415,36.1875,1,15401,1587214
112,7,-0.662857,-0.0652453,9.78374,0.0578946,-0.607773,0.984856,-0.00662948,-0.000663547,0.0978373,1,5.64046e-05,-4.69571e-06,4.28041e-06,0.0112809,-0.000939143,0.000856082,0,0,0,0,0.056226,0.511275,-0.992415,36.1875,1,15401,1587214
112,8,-0.673512,-0.0746185,9.78612,0.0443743,-0.615921,0.985066,-0.00673802,-0.000756733,0.0978609,1,5.31319e-05,-1.4877e-05,1.10976e-05,0.0106264,-0.0029754,0.00221952,0,0,0,0,0.0565804,0.513773,-0.995897,36.1875,1,15402,1587314
113,1,-0.673512,-0.0746185,9.78612,0.0443743,-0.615921,0.985066,-0.00673802,-0.000756733,0.0978609,1,5.31319e-05,-1.4877e-05,1.10976e-05,0.0106264,-0.0029754,0.00221952,0,0,0,0,0.0565804,0.513773,-0.995897,36.1875,1,15402,1587314
113,2,-0.667414,-0.0724855,9.79355,0.0544157,-0.611959,0.990151,-0.00667666,-0.000737843,0.0979352,1,6.46226e-05,-1.30757e-05,2.47546e-05,0.0129245,-0.00261515,0.00495093,0,0,0,0,0.0550877,0.513821,-0.997909,36.1875,1,15403,1587414
114,1,-0.667414,-0.0724855,9.79355,0.0544157,-0.611959,0.990151,-0.00667666,-0.000737843,0.0979352,1,6.46226e-05,-1.30757e-05,2.47546e-05,0.0129245,-0.00261515,0.00495093,0,0,0,0,0.0550877,0.513821,-0.997909,36.1875,1,15403,1587414
114,2,-0.672793,-0.0739278,9.79324,0.0460059,-0.62162,0.996048,-0.00673051,-0.000749969,0.0979322,1,5.40948e-05,-1.32308e-05,7.10029e-06,0.010819,-0.00264616,0.00142006,0,0,0,0,0.0527348,0.511393,-0.997447,36.1875,1,15404,1587514
115,1,-0.672793,-0.0739278,9.79324,0.0460059,-0.62162,0.996048,-0.00673051,-0.000749969,0.0979322,1,5.40948e-05,-1.32308e-05,7.10029e-06,0.010819,-0.00264616,0.00142006,0,0,0,0,0.0527348,0.511393,-0.997447,36.1875,1,15404,1587514
115,2,-0.660864,-0.0574256,9.78854,0.0588554,-0.598661,0.987289,-0.00661005,-0.000584634,0.0978853,1,5.20925e-05,-7.28662e-06,1.36051e-05,0.0104185,-0.00145732,0.00272102,0,0,0,0,0.0532449,0.51185,-0.995924,36.1875,1,15405,1587614
116,1,-0.660864,-0.0574256,9.78854,0.0588554,-0.598661,0.987289,-0.00661005,-0.000584634,0.0978853,1,5.20925e-05,-7.28662e-06,1.36051e-05,0.0104185,-0.00145732,0.00272102,0,0,0,0,0.0532449,0.51185,-0.995924,36.1875,1,15405,1587614
116,2,-0.663632,-0.0666704,9.7929,0.0551734,-0.61302,0.993788,-0.00664118,-0.000677048,0.0979286,1,5.28264e-05,-2.48051e-05,-1.97087e-07,0.0105653,-0.00496101,-3.94174e-05,0,0,0,0,0.0542973,0.510812,-0.992922,36.1875,1,15406,1587714
117,1,-0.663632,-0.0666704,9.7929,0.0551734,-0.61302,0.993788,-0.00664118,-0.000677048,0.0979286,1,5.28264e-05,-2.48051e-05,-1.97087e-07,0.0105653,-0.00496101,-3.94174e-05,0,0,0,0,0.0542973,0.510812,-0.992922,36.1875,1,15406,1587714
117,2,-0.672826,-0.0675561,9.79702,0.0479453,-0.61436,0.997724,-0.00673229,-0.000686099,0.0979699,1,5.32773e-05,-2.06192e-05,7.37257e-06,0.0106555,-0.00412384,0.00147451,0,0,0,0,0.0547665,0.512263,-0.992387,36.1875,1,15407,1587814
118,1,-0.672826,-0.0675561,9.79702,0.0479453,-0.61436,0.997724,-0.00673229,-0.000686099,0.0979699,1,5.32773e-05,-2.06192e-05,7.37257e-06,0.0106555,-0.00412384,0.00147451,0,0,0,0,0.0547665,0.512263,-0.992387,36.1875,1,15407,1587814
118,2,-0.657781,-0.0602221,9.78239,0.0587034,-0.607517,0.977319,-0.00657885,-0.000610747,0.0978238,1,4.23621e-05,-5.43151e-06,1.80658e-05,0.00847243,-0.0010863,0.00361315,0,0,0,0,0.0566051,0.513755,-0.994887,36.1875,1,15408,1587914
119,1,-0.657781,-0.0602221,9.78239,0.0587034,-0.607517,0.977319,-0.00657885,-0.000610747,0.0978238,1,4.23621e-05,-5.43151e-06,1.80658e-05,0.00847243,-0.0010863,0.00361315,0,0,0,0,0.0566051,0.513755,-0.994887,36.1875,1,15408,1587914
119,2,-0.671475,-0.0637534,9.794,0.0492628,-0.612272,0.995901,-0.0067184,-0.000648048,0.0979397,1,5.29922e-05,-1.86824e-05,1.00023e-05,0.0105984,-0.00373649,0.00200046,0,0,0,0,0.0555726,0.512851,-0.998438,36.1875,1,15409,1588014
120,1,-0.671475,-0.0637534,9.794,0.0492628,-0.612272,0.995901,-0.0067184,-0.000648048,0.0979397,1,5.29922e-05,-1.86824e-05,1.00023e-05,0.0105984,-0.00373649,0.00200046,0,0,0,0,0.0555726,0.512851,-0.998438,36.1875,1,15409,1588014
120,2,-0.667755,-0.0685467,9.79427,0.0545076,-0.614881,0.99277,-0.00668009,-0.00069499,0.0979425,1,4.73447e-05,-1.30854e-05,1.85723e-05,0.00946895,-0.00261708,0.00371446,0,0,0,0,0.0541497,0.512366,-0.997937,36.1875,1,15410,1588114
121,1,-0.667755,-0.0685467,9.79427,0.0545076,-0.614881,0.99277,-0.00668009,-0.00069499,0.0979425,1,4.73447e-05,-1.30854e-05,1.85723e-05,0.00946895,-0.00261708,0.00371446,0,0,0,0,0.0541497,0.512366,-0.997937,36.1875,1,15410,1588114
121,2,-0.672599,-0.0723733,9.78884,0.0437294,-0.620794,0.990228,-0.00672639,-0.000732648,0.0978883,1,4.47519e-05,-2.1478e-06,1.13806e-05,0.00895038,-0.00042956,0.00227612,0,0,0,0,0.0532326,0.511859,-0.996429,36.1875,1,15411,1588214
122,1,-0.672599,-0.0723733,9.78884,0.0437294,-0.620794,0.990228,-0.00672639,-0.000732648,0.0978883,1,4.47519e-05,-2.1478e-06,1.13806e-05,0.00895038,-0.00042956,0.00227612,0,0,0,0,0.0532326,0.511859,-0.996429,36.1875,1,15411,1588214
122,2,-0.679542,-0.0597365,9.78967,0.0398364,-0.605696,0.987472,-0.00679674,-0.000606788,0.0978965,1,4.72291e-05,-6.81764e-06,1.28916e-05,0.00944582,-0.00136353,0.00257832,0,0,0,0,0.0556832,0.511324,-0.994937,36.1875,1,15412,1588314
123,1,-0.679542,-0.0597365,9.78967,0.0398364,-0.605696,0.987472,-0.00679674,-0.000606788,0.0978965,1,4.72291e-05,-6.81764e-06,1.28916e-05,0.00944582,-0.00136353,0.00257832,0,0,0,0,0.0556832,0.511324,-0.994937,36.1875,1,15412,1588314
123,2,-0.66579,-0.0698813,9.78949,0.0521937,-0.616849,0.993483,-0.00665982,-0.00070852,0.0978947,1,4.89261e-05,-9.88702e-06,9.58896e-06,0.00978521,-0.0019774,0.00191779,0,0,0,0,0.0561525,0.512774,-0.994402,36.1875,1,15413,1588414
124,1,-0.66579,-0.0698813,9.78949,0.0521937,-0.616849,0.993483,-0.00665982,-0.00070852,0.0978947,1,4.89261e-05,-9.88702e-06,9.58896e-06,0.00978521,-0.0019774,0.00191779,0,0,0,0,0.0561525,0.512774,-0.994402,36.1875,1,15413,1588414
124,2,-0.664111,-0.0621521,9.78379,0.0520374,-0.611754,0.984946,-0.00664304,-0.000633481,0.0978377,1,5.99754e-05,-9.99126e-06,1.692e-05,0.0119951,-0.00199825,0.00338399,0,0,0,0,0.0560832,0.514753,-0.995873,36.1875,1,15414,1588514
125,1,-0.664111,-0.0621521,9.78379,0.0520374,-0.611754,0.984946,-0.00664304,-0.000633481,0.0978377,1,5.99754e-05,-9.99126e-06,1.692e-05,0.0119951,-0.00199825,0.00338399,0,0,0,0,0.0560832,0.514753,-0.995873,36.1875,1,15414,1588514
125,2,-0.666666,-0.0678829,9.79258,0.0505114,-0.61875,0.994712,-0.00667016,-0.000687151,0.0979255,1,4.27943e-05,-1.77994e-05,-4.44821e-06,0.00855885,-0.00355988,-0.000889643,0,0,0,0,0.054599,0.515758,-0.996854,36.1875,1,15415,1588614
126,1,-0.666666,-0.0678829,9.79258,0.0505114,-0.61875,0.994712,-0.00667016,-0.000687151,0.0979255,1,4.27943e-05,-1.77994e-05,-4.44821e-06,0.00855885,-0.00355988,-0.000889643,0,0,0,0,0.054599,0.515758,-0.996854,36.1875,1,15415,1588614
126,2,-0.677268,-0.0693882,9.79738,0.0411026,-0.620605,0.995962,-0.00677511,-0.000702624,0.0979735,1,4.42825e-05,-1.23959e-05,4.841e-06,0.00885651,-0.00247917,0.000968199,0,0,0,0,0.0536729,0.512849,-0.997419,36.1875,1,15416,1588714
127,1,-0.677268,-0.0693882,9.79738,0.0411026,-0.620605,0.995962,-0.00677511,-0.000702624,0.0979735,1,4.42825e-05,-1.23959e-05,4.841e-06,0.00885651,-0.00247917,0.000968199,0,0,0,0,0.0536729,0.512849,-0.997419,36.1875,1,15416,1588714
127,2,-0.664715,-0.0687368,9.79357,0.051516,-0.621223,0.993878,-0.00664902,-0.000698803,0.0979355,1,5.68945e-05,-9.71366e-06,2.18469e-05,0.0113789,-0.00194273,0.00436938,0,0,0,0,0.054219,0.510388,-0.996466,36.1875,1,15417,1588814
128,1,-0.664715,-0.0687368,9.79357,0.051516,-0.621223,0.993878,-0.00664902,-0.000698803,0.0979355,1,5.68945e-05,-9.71366e-06,2.18469e-05,0.0113789,-0.00194273,0.00436938,0,0,0,0,0.054219,0.510388,-0.996466,36.1875,1,15417,1588814
128,2,-0.676124,-0.065862,9.78417,0.0448633,-0.622161,0.984375,-0.0067628,-0.000666767,0.0978415,1,4.04137e-05,-8.10067e-06,1.76506e-05,0.00808275,-0.00162013,0.00353013,0,0,0,0,0.0557159,0.510818,-0.993938,36.1875,1,15418,1588914
129,1,-0.676124,-0.065862,9.78417,0.0448633,-0.622161,0.984375,-0.0067628,-0.000666767,0.0978415,1,4.04137e-05,-8.10067e-06,1.76506e-05,0.00808275,-0.00162013,0.00353013,0,0,0,0,0.0557159,0.510818,-0.993938,36.1875,1,15418,1588914
129,2,-0.668692,-0.0623144,9.78279,0.0474893,-0.619992,0.98299,-0.00668728,-0.000631926,0.0978278,1,4.35933e-05,-1.93157e-06,1.89134e-05,0.00871867,-0.000386313,0.00378267,0,0,0,0,0.0546849,0.51425,-0.994362,36.1875,1,15419,1589014
130,1,-0.668692,-0.0623144,9.78279,0.0474893,-0.619992,0.98299,-0.00668728,-0.000631926,0.0978278,1,4.35933e-05,-1.93157e-06,1.89134e-05,0.00871867,-0.000386313,0.00378267,0,0,0,0,0.0546849,0.51425,-0.994362,36.1875,1,15419,1589014
130,2,-0.663304,-0.064041,9.79259,0.0562844,-0.618759,0.99372,-0.00663668,-0.000649532,0.0979256,1,4.56163e-05,-1.86766e-05,1.42007e-05,0.00912325,-0.00373532,0.00284013,0,0,0,0,0.0551698,0.513279,-0.994891,36.1875,1,15420,1589114
131,1,-0.663304,-0.064041,9.79259,0.0562844,-0.618759,0.99372,-0.00663668,-0.000649532,0.0979256,1,4.56163e-05,-1.86766e-05,1.42007e-05,0.00912325,-0.00373532,0.00284013,0,0,0,0,0.0551698,0.513279,-0.994891,36.1875,1,15420,1589114
131,2,-0.671425,-0.069204,9.79022,0.0438957,-0.622107,0.989851,-0.00671764,-0.000701559,0.0979019,1,4.72423e-05,-1.74642e-05,2.00139e-05,0.00944847,-0.00349284,0.00400278,0,0,0,0,0.0555931,0.512354,-0.997944,36.1875,1,15421,1589214
132,1,-0.671425,-0.069204,9.79022,0.0438957,-0.622107,0.989851,-0.00671764,-0.000701559,0.0979019,1,4.72423e-05,-1.74642e-05,2.00139e-05,0.00944847,-0.00349284,0.00400278,0,0,0,0,0.0555931,0.512354,-0.997944,36.1875,1,15421,1589214
132,2,-0.66589,-0.0658296,9.78274,0.0491898,-0.617848,0.981884,-0.00666063,-0.000670469,0.0978272,1,6.09196e-05,-8.94987e-06,1.90588e-05,0.0121839,-0.00178997,0.00381176,0,0,0,0,0.0532364,0.510892,-0.996956,36.1875,1,15422,1589314
133,1,-0.66589,-0.0658296,9.78274,0.0491898,-0.617848,0.981884,-0.00666063,-0.000670469,0.0978272,1,6.09196e-05,-8.94987e-06,1.90588e-05,0.0121839,-0.00178997,0.00381176,0,0,0,0,0.0532364,0.510892,-0.996956,36.1875,1,15422,1589314
133,2,-0.664285,-0.0706259,9.79593,0.0554707,-0.626559,0.996789,-0.00664545,-0.000714903,0.097959,1,4.38803e-05,-1.3288e-05,3.51645e-06,0.00877605,-0.00265759,0.000703289,0,0,0,0,0.053298,0.510847,-0.994431,36.1875,1,15423,1589414
134,1,-0.664285,-0.0706259,9.79593,0.0554707,-0.626559,0.996789,-0.00664545,-0.000714903,0.097959,1,4.38803e-05,-1.3288e-05,3.51645e-06,0.00877605,-0.00265759,0.000703289,0,0,0,0,0.053298,0.510847,-0.994431,36.1875,1,15423,1589414
134,2,-0.664155,-0.0694932,9.79152,0.0515717,-0.622827,0.993274,-0.00664228,-0.000705743,0.0979151,1,5.35938e-05,-3.91722e-06,2.37023e-05,0.0107188,-0.000783444,0.00474046,0,0,0,0,0.0552514,0.511292,-0.992915,36.1875,1,15424,1589514
135,1,-0.664155,-0.0694932,9.79152,0.0515717,-0.622827,0.993274,-0.00664228,-0.000705743,0.0979151,1,5.35938e-05,-3.91722e-06,2.37023e-05,0.0107188,-0.000783444,0.00474046,0,0,0,0,0.0552514,0.511292,-0.992915,36.1875,1,15424,1589514
135,2,-0.657036,-0.0642928,9.79863,0.0625375,-0.621541,0.995064,-0.00657093,-0.000656046,0.0979862,1,6.66398e-05,-2.92795e-06,4.41672e-06,0.013328,-0.00058559,0.000883345,0,0,0,0,0.0556998,0.511794,-0.993917,36.1875,1,15425,1589614
136,1,-0.657036,-0.0642928,9.79863,0.0625375,-0.621541,0.995064,-0.00657093,-0.000656046,0.0979862,1,6.66398e-05,-2.92795e-06,4.41672e-06,0.013328,-0.00058559,0.000883345,0,0,0,0,0.0556998,0.511794,-0.993917,36.1875,1,15425,1589614
136,2,-0.674503,-0.0705954,9.78616,0.042327,-0.628895,0.985184,-0.00674928,-0.000714827,0.0978613,1,4.43889e-05,-2.18262e-05,1.36997e-05,0.00887777,-0.00436524,0.00273995,0,0,0,0,0.0561154,0.512802,-0.995916,36.1875,1,15426,1589714
137,1,-0.674503,-0.0705954,9.78616,0.042327,-0.628895,0.985184,-0.00674928,-0.000714827,0.0978613,1,4.43889e-05,-2.18262e-05,1.36997e-05,0.00887777,-0.00436524,0.00273995,0,0,0,0,0.0561154,0.512802,-0.995916,36.1875,1,15426,1589714
137,2,-0.662079,-0.0666226,9.7912,0.0567195,-0.620939,0.987727,-0.00662262,-0.000672398,0.0979118,1,3.01506e-05,-9.49384e-06,2.02861e-05,0.00603013,-0.00189877,0.00405722,0,0,0,0,0.054627,0.513328,-0.997413,36.1875,1,15427,1589814
138,1,-0.662079,-0.0666226,9.7912,0.0567195,-0.620939,0.987727,-0.00662262,-0.000672398,0.0979118,1,3.01506e-05,-9.49384e-06,2.02861e-05,0.00603013,-0.00189877,0.00405722,0,0,0,0,0.054627,0.513328,-0.997413,36.1875,1,15427,1589814
138,2,-0.663649,-0.0742402,9.79453,0.0539578,-0.630476,0.995089,-0.00663847,-0.000752775,0.0979451,1,5.30202e-05,-1.01029e-05,-1.00026e-06,0.010604,-0.00202059,-0.000200052,0,0,0,0,0.0532036,0.511398,-0.997954,36.1875,1,15428,1589914
139,1,-0.663649,-0.0742402,9.79453,0.0539578,-0.630476,0.995089,-0.00663847,-0.000752775,0.0979451,1,5.30202e-05,-1.01029e-05,-1.00026e-06,0.010604,-0.00202059,-0.000200052,0,0,0,0,0.0532036,0.511398,-0.997954,36.1875,1,15428,1589914
139,2,-0.673533,-0.0726413,9.78851,0.046585,-0.628213,0.986144,-0.00673751,-0.000735576,0.0978848,1,4.6501e-05,-1.11441e-05,4.41989e-06,0.00930019,-0.00222883,0.000883979,0,0,0,0,0.0527761,0.511845,-0.995417,36.1875,1,15429,1590014
140,1,-0.673533,-0.0726413,9.78851,0.046585,-0.628213,0.986144,-0.00673751,-0.000735576,0.0978848,1,4.6501e-05,-1.11441e-05,4.41989e-06,0.00930019,-0.00222883,0.000883979,0,0,0,0,0.0527761,0.511845,-0.995417,36.1875,1,15429,1590014
140,2,-0.679364,-0.0641436,9.80388,0.0394809,-0.623084,1.00205,-0.0067951,-0.000653185,0.0980386,1,5.84218e-05,-7.5755e-06,2.1685e-05,0.0116844,-0.0015151,0.004337,0,0,0,0,0.0557368,0.511767,-0.992402,36.1875,1,15430,1590114
140,3,-0.679364,-0.0641436,9.80388,0.0394809,-0.623084,1.00205,-0.0067951,-0.000653185,0.0980386,1,5.84218e-05,-7.5755e-06,2.1685e-05,0.0116844,-0.0015151,0.004337,0,0,0,0,0.0557368,0.511767,-0.992402,36.1875,1,15430,1590114
140,4,-0.67026,-0.0651426,9.78617,0.047726,-0.626479,0.988403,-0.00670493,-0.0006609,0.0978615,1,4.76892e-05,-1.19752e-05,1.04625e-05,0.00953785,-0.00239504,0.0020925,0,0,0,0,0.0561852,0.512269,-0.993403,36.1875,1,15431,1590214
140,5,-0.67026,-0.0651426,9.78617,0.047726,-0.626479,0.988403,-0.00670493,-0.0006609,0.0978615,1,4.76892e-05,-1.19752e-05,1.04625e-05,0.00953785,-0.00239504,0.0020925,0,0,0,0,0.0561852,0.512269,-0.993403,36.1875,1,15431,1590214
140,6,-0.663484,-0.0635343,9.78106,0.0488705,-0.620246,0.982244,-0.00663625,-0.000646784,0.0978104,1,5.7677e-05,-7.28796e-06,1.19318e-05,0.0115354,-0.00145759,0.00238636,0,0,0,0,0.0561605,0.512287,-0.994413,36.1875,1,15432,1590314
140,7,-0.663484,-0.0635343,9.78106,0.0488705,-0.620246,0.982244,-0.00663625,-0.000646784,0.0978104,1,5.7677e-05,-7.28796e-06,1.19318e-05,0.0115354,-0.00145759,0.00238636,0,0,0,0,0.0561605,0.512287,-0.994413,36.1875,1,15432,1590314
140,8,-0.6622,-0.0711585,9.78606,0.0550083,-0.632987,0.987956,-0.00662228,-0.000720994,0.0978605,1,4.74359e-05,-1.51451e-06,9.39357e-06,0.00948718,-0.000302903,0.00187871,0,0,0,0,0.0556054,0.512345,-0.997439,36.1875,1,15433,1590414
141,1,-0.6622,-0.0711585,9.78606,0.0550083,-0.632987,0.987956,-0.00662228,-0.000720994,0.0978605,1,4.74359e-05,-1.51451e-06,9.39357e-06,0.00948718,-0.000302903,0.00187871,0,0,0,0,0.0556054,0.512345,-0.997439,36.1875,1,15433,1590414
141,2,-0.672228,-0.0743984,9.79017,0.0450587,-0.634093,0.991825,-0.00672385,-0.000753078,0.0979016,1,4.5171e-05,-8.14156e-06,1.85333e-05,0.0090342,-0.00162831,0.00370667,0,0,0,0,0.0527102,0.511411,-0.998457,36.1875,1,15434,1590514
142,1,-0.672228,-0.0743984,9.79017,0.0450587,-0.634093,0.991825,-0.00672385,-0.000753078,0.0979016,1,4.5171e-05,-8.14156e-06,1.85333e-05,0.0090342,-0.00162831,0.00370667,0,0,0,0,0.0527102,0.511411,-0.998457,36.1875,1,15434,1590514
142,2,-0.67029,-0.0648171,9.79092,0.0463409,-0.62728,0.992386,-0.00670436,-0.000657229,0.097909,1,4.6134e-05,-7.48962e-06,1.81067e-06,0.00922679,-0.00149792,0.000362134,0,0,0,0,0.0518423,0.510868,-0.994929,36.1875,1,15435,1590614
143,1,-0.67029,-0.0648171,9.79092,0.0463409,-0.62728,0.992386,-0.00670436,-0.000657229,0.097909,1,4.6134e-05,-7.48962e-06,1.81067e-06,0.00922679,-0.00149792,0.000362134,0,0,0,0,0.0518423,0.510868,-0.994929,36.1875,1,15435,1590614
143,2,-0.679362,-0.066171,9.79335,0.0404575,-0.626013,0.996243,-0.00679482,-0.000672446,0.0979333,1,5.42682e-05,-6.16726e-06,7.86013e-06,0.0108536,-0.00123345,0.00157203,0,0,0,0,0.053327,0.511308,-0.992906,36.1875,1,15436,1590714
144,1,-0.679362,-0.066171,9.79335,0.0404575,-0.626013,0.996243,-0.00679482,-0.000672446,0.0979333,1,5.42682e-05,-6.16726e-06,7.86013e-06,0.0108536,-0.00123345,0.00157203,0,0,0,0,0.053327,0.511308,-0.992906,36.1875,1,15436,1590714
144,2,-0.66548,-0.0565753,9.79334,0.0489509,-0.617597,0.994883,-0.00665715,-0.000576148,0.0979331,1,5.24446e-05,-1.20161e-05,9.21431e-06,0.0104889,-0.00240323,0.00184286,0,0,0,0,0.0537469,0.512794,-0.99439,36.1875,1,15437,1590814
145,1,-0.66548,-0.0565753,9.79334,0.0489509,-0.617597,0.994883,-0.00665715,-0.000576148,0.0979331,1,5.24446e-05,-1.20161e-05,9.21431e-06,0.0104889,-0.00240323,0.00184286,0,0,0,0,0.0537469,0.512794,-0.99439,36.1875,1,15437,1590814
145,2,-0.667774,-0.0758012,9.78878,0.0508497,-0.63538,0.986653,-0.00668045,-0.000764362,0.0978876,1,3.214e-05,-1.38393e-05,4.35128e-06,0.00642799,-0.00276786,0.000870256,0,0,0,0,0.0555892,0.51332,-0.997418,36.1875,1,15438,1590914
146,1,-0.667774,-0.0758012,9.78878,0.0508497,-0.63538,0.986653,-0.00668045,-0.000764362,0.0978876,1,3.214e-05,-1.38393e-05,4.35128e-06,0.00642799,-0.00276786,0.000870256,0,0,0,0,0.0555892,0.51332,-0.997418,36.1875,1,15438,1590914
146,2,-0.668842,-0.0652277,9.79532,0.0466921,-0.631586,0.995399,-0.00668999,-0.000660838,0.097953,1,4.2975e-05,-8.04663e-06,1.05798e-05,0.00859499,-0.00160933,0.00211595,0,0,0,0,0.0545815,0.512398,-0.999959,36.1875,1,15439,1591014
147,1,-0.668842,-0.0652277,9.79532,0.0466921,-0.631586,0.995399,-0.00668999,-0.000660838,0.097953,1,4.2975e-05,-8.04663e-06,1.05798e-05,0.00859499,-0.00160933,0.00211595,0,0,0,0,0.0545815,0.512398,-0.999959,36.1875,1,15439,1591014
147,2,-0.665396,-0.0693398,9.79255,0.0499492,-0.632072,0.994523,-0.00665737,-0.000701351,0.0979252,1,4.06391e-05,-1.74103e-05,-5.30861e-07,0.00812782,-0.00348205,-0.000106172,0,0,0,0,0.0526898,0.511908,-0.998951,36.1875,1,15440,1591114
148,1,-0.665396,-0.0693398,9.79255,0.0499492,-0.632072,0.994523,-0.00665737,-0.000701351,0.0979252,1,4.06391e-05,-1.74103e-05,-5.30861e-07,0.00812782,-0.00348205,-0.000106172,0,0,0,0,0.0526898,0.511908,-0.998951,36.1875,1,15440,1591114
148,2,-0.669075,-0.0825905,9.79687,0.0491265,-0.644561,0.996121,-0.0066916,-0.000835393,0.0979685,1,4.7516e-05,-4.45201e-06,1.32919e-05,0.00950321,-0.000890403,0.00265837,0,0,0,0,0.0537217,0.511367,-0.996442,36.1875,1,15441,1591214
149,1,-0.669075,-0.0825905,9.79687,0.0491265,-0.644561,0.996121,-0.0066916,-0.000835393,0.0979685,1,4.7516e-05,-4.45201e-06,1.32919e-05,0.00950321,-0.000890403,0.00265837,0,0,0,0,0.0537217,0.511367,-0.996442,36.1875,1,15441,1591214
149,2,-0.673507,-0.0654039,9.78892,0.0413438,-0.630229,0.994795,-0.00673785,-0.000665157,0.0978889,1,5.6198e-05,-1.4262e-05,8.60871e-06,0.0112396,-0.00285241,0.00172174,0,0,0,0,0.0552391,0.511301,-0.99342,36.1875,1,15442,1591314
150,1,-0.673507,-0.0654039,9.78892,0.0413438,-0.630229,0.994795,-0.00673785,-0.000665157,0.0978889,1,5.6198e-05,-1.4262e-05,8.60871e-06,0.0112396,-0.00285241,0.00172174,0,0,0,0,0.0552391,0.511301,-0.99342,36.1875,1,15442,1591314
150,2,-0.659758,-0.0650959,9.78983,0.059675,-0.625382,0.988306,-0.00659919,-0.000659326,0.0978981,1,4.11811e-05,-8.3484e-06,2.30225e-05,0.00823622,-0.00166968,0.0046045,0,0,0,0,0.0557207,0.512742,-0.99238,36.1875,1,15443,1591414
151,1,-0.659758,-0.0650959,9.78983,0.059675,-0.625382,0.988306,-0.00659919,-0.000659326,0.0978981,1,4.11811e-05,-8.3484e-06,2.30225e-05,0.00823622,-0.00166968,0.0046045,0,0,0,0,0.0557207,0.512742,-0.99238,36.1875,1,15443,1591414
151,2,-0.672024,-0.0620282,9.78485,0.0446623,-0.627045,0.983501,-0.00672175,-0.000628436,0.0978484,1,4.06168e-05,-7.83248e-06,1.52682e-05,0.00812337,-0.0015665,0.00305364,0,0,0,0,0.0561686,0.511799,-0.994424,36.1875,1,15444,1591514
152,1,-0.672024,-0.0620282,9.78485,0.0446623,-0.627045,0.983501,-0.00672175,-0.000628436,0.0978484,1,4.06168e-05,-7.83248e-06,1.52682e-05,0.00812337,-0.0015665,0.00305364,0,0,0,0,0.0561686,0.511799,-0.994424,36.1875,1,15444,1591514
152,2,-0.674035,-0.0624228,9.79131,0.0460554,-0.628694,0.991649,-0.00674306,-0.000633879,0.0979128,1,4.79088e-05,-1.39663e-05,1.99382e-05,0.00958177,-0.00279326,0.00398765,0,0,0,0,0.0546228,0.51285,-0.997929,36.1875,1,15445,1591614
153,1,-0.674035,-0.0624228,9.79131,0.0460554,-0.628694,0.991649,-0.00674306,-0.000633879,0.0979128,1,4.79088e-05,-1.39663e-05,1.99382e-05,0.00958177,-0.00279326,0.00398765,0,0,0,0,0.0546228,0.51285,-0.997929,36.1875,1,15445,1591614
153,2,-0.66599,-0.0689571,9.79528,0.0514902,-0.632935,0.991878,-0.00666326,-0.000697359,0.0979525,1,3.92478e-05,-1.72072e-05,7.41327e-06,0.00784955,-0.00344144,0.00148265,0,0,0,0,0.0531832,0.511895,-0.998448,36.1875,1,15446,1591714
154,1,-0.66599,-0.0689571,9.79528,0.0514902,-0.632935,0.991878,-0.00666326,-0.000697359,0.0979525,1,3.92478e-05,-1.72072e-05,7.41327e-06,0.00784955,-0.00344144,0.00148265,0,0,0,0,0.0531832,0.511895,-0.998448,36.1875,1,15446,1591714
154,2,-0.671544,-0.0598738,9.78452,0.0406538,-0.623501,0.9843,-0.00671465,-0.000609501,0.0978452,1,5.32305e-05,3.87609e-06,2.57906e-05,0.0106461,0.000775219,0.00515813,0,0,0,0,0.0528003,0.510382,-0.99545,36.1875,1,15447,1591814
155,1,-0.671544,-0.0598738,9.78452,0.0406538,-0.623501,0.9843,-0.00671465,-0.000609501,0.0978452,1,5.32305e-05,3.87609e-06,2.57906e-05,0.0106461,0.000775219,0.00515813,0,0,0,0,0.0528003,0.510382,-0.99545,36.1875,1,15447,1591814
155,2,-0.657619,-0.0701257,9.78435,0.0555616,-0.639876,0.983047,-0.00657876,-0.000710188,0.0978433,1,4.47668e-05,-1.32266e-05,1.29975e-05,0.00895337,-0.00264532,0.00259949,0,0,0,0,0.0533516,0.51129,-0.991897,36.1875,1,15448,1591914
155,3,-0.657619,-0.0701257,9.78435,0.0555616,-0.639876,0.983047,-0.00657876,-0.000710188,0.0978433,1,4.47668e-05,-1.32266e-05,1.29975e-05,0.00895337,-0.00264532,0.00259949,0,0,0,0,0.0533516,0.51129,-0.991897,36.1875,1,15448,1591914
155,4,-0.668501,-0.0587429,9.79266,0.0474986,-0.626009,0.993494,-0.0066881,-0.000595389,0.0979264,1,3.87226e-05,-1.59162e-05,2.81389e-05,0.00774452,-0.00318323,0.00562779,0,0,0,0,0.0571066,0.513254,-0.994396,36.1875,1,15449,1592014
155,5,-0.668501,-0.0587429,9.79266,0.0474986,-0.626009,0.993494,-0.0066881,-0.000595389,0.0979264,1,3.87226e-05,-1.59162e-05,2.81389e-05,0.00774452,-0.00318323,0.00562779,0,0,0,0,0.0571066,0.513254,-0.994396,36.1875,1,15449,1592014
155,6,-0.660035,-0.0665461,9.7827,0.0603521,-0.636627,0.98054,-0.00660322,-0.000676789,0.0978267,1,5.68367e-05,-1.47839e-05,1.57431e-05,0.0113673,-0.00295677,0.00314863,0,0,0,0,0.0575631,0.513268,-0.995408,36.1875,1,15450,1592114
155,7,-0.660035,-0.0665461,9.7827,0.0603521,-0.636627,0.98054,-0.00660322,-0.000676789,0.0978267,1,5.68367e-05,-1.47839e-05,1.57431e-05,0.0113673,-0.00295677,0.00314863,0,0,0,0,0.0575631,0.513268,-0.995408,36.1875,1,15450,1592114
155,8,-0.665785,-0.0623288,9.78583,0.0507341,-0.632454,0.980906,-0.0066606,-0.000632489,0.0978581,1,4.61024e-05,-1.41076e-05,1.33923e-05,0.00922048,-0.00282151,0.00267846,0,0,0,0,0.0551001,0.513812,-0.997404,36.1875,1,15451,1592214
156,1,-0.665785,-0.0623288,9.78583,0.0507341,-0.632454,0.980906,-0.0066606,-0.000632489,0.0978581,1,4.61024e-05,-1.41076e-05,1.33923e-05,0.00922048,-0.00282151,0.00267846,0,0,0,0,0.0551001,0.513812,-0.997404,36.1875,1,15451,1592214
156,2,-0.672048,-0.0582845,9.78454,0.0426389,-0.628115,0.981136,-0.00672232,-0.000591378,0.0978453,1,4.2107e-05,-9.54777e-06,2.17967e-05,0.00842139,-0.00190955,0.00435934,0,0,0,0,0.0541786,0.512827,-0.996412,36.1875,1,15452,1592314
157,1,-0.672048,-0.0582845,9.78454,0.0426389,-0.628115,0.981136,-0.00672232,-0.000591378,0.0978453,1,4.2107e-05,-9.54777e-06,2.17967e-05,0.00842139,-0.00190955,0.00435934,0,0,0,0,0.0541786,0.512827,-0.996412,36.1875,1,15452,1592314
157,2,-0.673425,-0.066565,9.7923,0.0421847,-0.637447,0.989661,-0.00673961,-0.000674322,0.0979226,1,4.19318e-05,-2.75896e-05,3.41088e-05,0.00838636,-0.00551792,0.00682176,0,0,0,0,0.0518628,0.510372,-0.994435,36.1875,3,15453,1592414
158,1,-0.673425,-0.066565,9.7923,0.0421847,-0.637447,0.989661,-0.00673961,-0.000674322,0.0979226,1,4.19318e-05,-2.75896e-05,3.41088e-05,0.00838636,-0.00551792,0.00682176,0,0,0,0,0.0518628,0.510372,-0.994435,36.1875,3,15453,1592414
158,2,-0.662876,-0.0596002,9.78854,0.0533226,-0.62677,0.987312,-0.0066298,-0.000605693,0.0978853,1,4.83468e-05,-5.44433e-06,1.70415e-05,0.00966936,-0.00108887,0.0034083,0,0,0,0,0.0523643,0.509871,-0.993944,36.1875,3,15454,1592514
159,1,-0.662876,-0.0596002,9.78854,0.0533226,-0.62677,0.987312,-0.0066298,-0.000605693,0.0978853,1,4.83468e-05,-5.44433e-06,1.70415e-05,0.00966936,-0.00108887,0.0034083,0,0,0,0,0.0523643,0.509871,-0.993944,36.1875,3,15454,1592514
159,2,-0.67467,-0.0651381,9.78857,0.0413756,-0.637319,0.986764,-0.00674864,-0.000661361,0.0978855,1,4.91291e-05,-1.00919e-05,2.68463e-05,0.00982582,-0.00201838,0.00536927,0,0,0,0,0.0547176,0.513744,-0.993364,36.1875,3,15455,1592614
160,1,-0.67467,-0.0651381,9.78857,0.0413756,-0.637319,0.986764,-0.00674864,-0.000661361,0.0978855,1,4.91291e-05,-1.00919e-05,2.68463e-05,0.00982582,-0.00201838,0.00536927,0,0,0,0,0.0547176,0.513744,-0.993364,36.1875,3,15455,1592614
160,2,-0.671671,-0.0643415,9.78652,0.0444671,-0.633531,0.985867,-0.006719,-0.000653487,0.097865,1,5.15953e-05,-1.17251e-05,-2.00379e-06,0.0103191,-0.00234502,-0.000400758,0,0,0,0,0.0570411,0.514266,-0.996393,36.1875,3,15456,1592714
161,1,-0.671671,-0.0643415,9.78652,0.0444671,-0.633531,0.985867,-0.006719,-0.000653487,0.097865,1,5.15953e-05,-1.17251e-05,-2.00379e-06,0.0103191,-0.00234502,-0.000400758,0,0,0,0,0.0570411,0.514266,-0.996393,36.1875,3,15456,1592714
161,2,-0.663325,-0.0662853,9.80341,0.0501653,-0.639354,1.00469,-0.00663508,-0.000670464,0.098034,1,3.84655e-05,-9.34485e-06,5.25817e-06,0.0076931,-0.00186897,0.00105163,0,0,0,0,0.057945,0.511891,-1.00049,36.1875,3,15457,1592814
162,1,-0.663325,-0.0662853,9.80341,0.0501653,-0.639354,1.00469,-0.00663508,-0.000670464,0.098034,1,3.84655e-05,-9.34485e-06,5.25817e-06,0.0076931,-0.00186897,0.00105163,0,0,0,0,0.057945,0.511891,-1.00049,36.1875,3,15457,1592814
162,2,-0.673368,-0.0593992,9.79133,0.0420113,-0.632431,0.989673,-0.00673538,-0.000602337,0.0979131,1,4.15555e-05,-8.80498e-06,1.54042e-05,0.0083111,-0.001761,0.00308085,0,0,0,0,0.0565425,0.510909,-0.999496,36.1875,3,15458,1592914
163,1,-0.673368,-0.0593992,9.79133,0.0420113,-0.632431,0.989673,-0.00673538,-0.000602337,0.0979131,1,4.15555e-05,-8.80498e-06,1.54042e-05,0.0083111,-0.001761,0.00308085,0,0,0,0,0.0565425,0.510909,-0.999496,36.1875,3,15458,1592914
163,2,-0.668278,-0.0657481,9.78547,0.0451491,-0.640072,0.98644,-0.00668407,-0.000666716,0.0978546,1,4.63388e-05,-6.64603e-06,1.23867e-05,0.00926776,-0.00132921,0.00247735,0,0,0,0,0.0542275,0.511345,-0.995435,36.1875,3,15459,1593014
164,1,-0.668278,-0.0657481,9.78547,0.0451491,-0.640072,0.98644,-0.00668407,-0.000666716,0.0978546,1,4.63388e-05,-6.64603e-06,1.23867e-05,0.00926776,-0.00132921,0.00247735,0,0,0,0,0.0542275,0.511345,-0.995435,36.1875,3,15459,1593014
164,2,-0.670837,-0.0610768,9.7886,0.0450819,-0.631118,0.986689,-0.00671174,-0.000620082,0.0978857,1,4.59458e-05,-1.73976e-05,2.37726e-05,0.00918917,-0.00347952,0.00475452,0,0,0,0,0.0542603,0.510839,-0.994436,36.1875,3,15460,1593114
164,3,-0.670837,-0.0610768,9.7886,0.0450819,-0.631118,0.986689,-0.00671174,-0.000620082,0.0978857,1,4.59458e-05,-1.73976e-05,2.37726e-05,0.00918917,-0.00347952,0.00475452,0,0,0,0,0.0542603,0.510839,-0.994436,36.1875,3,15460,1593114
164,4,-0.672506,-0.0713768,9.79597,0.0459445,-0.642346,0.996408,-0.00672643,-0.000721371,0.0979596,1,3.72586e-05,-7.15431e-06,2.24802e-05,0.00745172,-0.00143086,0.00449603,0,0,0,0,0.0551532,0.51281,-0.995912,36.1875,3,15461,1593214
164,5,-0.672506,-0.0713768,9.79597,0.0459445,-0.642346,0.996408,-0.00672643,-0.000721371,0.0979596,1,3.72586e-05,-7.15431e-06,2.24802e-05,0.00745172,-0.00143086,0.00449603,0,0,0,0,0.0551532,0.51281,-0.995912,36.1875,3,15461,1593214
164,6,-0.670373,-0.0636875,9.78652,0.0375217,-0.639122,0.989253,-0.00670527,-0.000646317,0.097865,1,4.70428e-05,-7.96088e-06,1.74497e-05,0.00940857,-0.00159218,0.00348994,0,0,0,0,0.0565273,0.514776,-0.997389,36.1875,3,15462,1593314
164,7,-0.670373,-0.0636875,9.78652,0.0375217,-0.639122,0.989253,-0.00670527,-0.000646317,0.097865,1,4.70428e-05,-7.96088e-06,1.74497e-05,0.00940857,-0.00159218,0.00348994,0,0,0,0,0.0565273,0.514776,-0.997389,36.1875,3,15462,1593314
164,8,-0.672431,-0.0678143,9.79025,0.0404779,-0.641114,0.986866,-0.00672791,-0.000686473,0.0979021,1,4.18034e-05,-1.84941e-05,1.07548e-05,0.00836068,-0.00369882,0.00215095,0,0,0,0,0.0550835,0.513342,-0.998425,36.1875,3,15463,1593414
165,1,-0.672431,-0.0678143,9.79025,0.0404779,-0.641114,0.986866,-0.00672791,-0.000686473,0.0979021,1,4.18034e-05,-1.84941e-05,1.07548e-05,0.00836068,-0.00369882,0.00215095,0,0,0,0,0.0550835,0.513342,-0.998425,36.1875,3,15463,1593414
165,2,-0.66872,-0.0655367,9.79397,0.0487823,-0.641763,0.99364,-0.00669138,-0.000666204,0.0979393,1,5.46909e-05,-2.14096e-05,9.30916e-06,0.0109382,-0.00428192,0.00186183,0,0,0,0,0.0541948,0.511851,-0.996434,36.1875,3,15464,1593514
166,1,-0.66872,-0.0655367,9.79397,0.0487823,-0.641763,0.99364,-0.00669138,-0.000666204,0.0979393,1,5.46909e-05,-2.14096e-05,9.30916e-06,0.0109382,-0.00428192,0.00186183,0,0,0,0,0.0541948,0.511851,-0.996434,36.1875,3,15464,1593514
166,2,-0.661943,-0.0668507,9.79425,0.0567522,-0.64306,0.994131,-0.0066224,-0.000677364,0.0979422,1,4.46438e-05,-1.52348e-05,8.47479e-06,0.00892877,-0.00304696,0.00169496,0,0,0,0,0.0527514,0.511863,-0.996427,36.1875,3,15465,1593614
167,1,-0.661943,-0.0668507,9.79425,0.0567522,-0.64306,0.994131,-0.0066224,-0.000677364,0.0979422,1,4.46438e-05,-1.52348e-05,8.47479e-06,0.00892877,-0.00304696,0.00169496,0,0,0,0,0.0527514,0.511863,-0.996427,36.1875,3,15465,1593614
167,2,-0.66449,-0.0670975,9.78578,0.048416,-0.641507,0.982847,-0.00664693,-0.00068013,0.0978576,1,4.59775e-05,-1.04438e-05,1.17776e-05,0.0091955,-0.00208875,0.00235553,0,0,0,0,0.0518547,0.510859,-0.994425,36.1875,3,15466,1593714
168,1,-0.66449,-0.0670975,9.78578,0.048416,-0.641507,0.982847,-0.00664693,-0.00068013,0.0978576,1,4.59775e-05,-1.04438e-05,1.17776e-05,0.0091955,-0.00208875,0.00235553,0,0,0,0,0.0518547,0.510859,-0.994425,36.1875,3,15466,1593714
168,2,-0.661302,-0.0733188,9.79283,0.0517804,-0.651725,0.992783,-0.00661412,-0.000740675,0.0979282,1,3.71654e-05,-5.75165e-06,1.56852e-05,0.00743309,-0.00115033,0.00313704,0,0,0,0,0.0542076,0.513287,-0.994887,36.1875,3,15467,1593814
169,1,-0.661302,-0.0733188,9.79283,0.0517804,-0.651725,0.992783,-0.00661412,-0.000740675,0.0979282,1,3.71654e-05,-5.75165e-06,1.56852e-05,0.00743309,-0.00115033,0.00313704,0,0,0,0,0.0542076,0.513287,-0.994887,36.1875,3,15467,1593814
169,2,-0.662723,-0.0648562,9.7885,0.0528541,-0.643498,0.98667,-0.00663018,-0.000655536,0.0978848,1,3.41703e-05,-1.51954e-05,2.14465e-05,0.00683406,-0.00303907,0.00428929,0,0,0,0,0.0565235,0.515742,-0.996863,36.1875,3,15468,1593914
170,1,-0.662723,-0.0648562,9.7885,0.0528541,-0.643498,0.98667,-0.00663018,-0.000655536,0.0978848,1,3.41703e-05,-1.51954e-05,2.14465e-05,0.00683406,-0.00303907,0.00428929,0,0,0,0,0.0565235,0.515742,-0.996863,36.1875,3,15468,1593914
170,2,-0.666633,-0.0716221,9.79526,0.0474919,-0.650335,0.9932,-0.0066717,-0.000725686,0.0979522,1,4.73037e-05,-2.75559e-05,1.48549e-05,0.00946074,-0.00551117,0.00297098,0,0,0,0,0.0550469,0.514815,-0.998897,36.1875,3,15469,1594014
170,3,-0.666633,-0.0716221,9.79526,0.0474919,-0.650335,0.9932,-0.0066717,-0.000725686,0.0979522,1,4.73037e-05,-2.75559e-05,1.48549e-05,0.00946074,-0.00551117,0.00297098,0,0,0,0,0.0550469,0.514815,-0.998897,36.1875,3,15469,1594014
170,4,-0.664414,-0.0715575,9.79726,0.0523584,-0.650611,0.994854,-0.00664523,-0.000725582,0.0979725,1,5.0636e-05,-5.61973e-06,6.40209e-06,0.0101272,-0.00112395,0.00128042,0,0,0,0,0.0546432,0.512353,-0.997435,36.1875,3,15470,1594114
170,5,-0.664414,-0.0715575,9.79726,0.0523584,-0.650611,0.994854,-0.00664523,-0.000725582,0.0979725,1,5.0636e-05,-5.61973e-06,6.40209e-06,0.0101272,-0.00112395,0.00128042,0,0,0,0,0.0546432,0.512353,-0.997435,36.1875,3,15470,1594114
170,6,-0.663123,-0.0727864,9.78707,0.0506254,-0.651172,0.984985,-0.00663238,-0.000733312,0.0978706,1,2.7081e-05,-5.95301e-06,1.10623e-05,0.00541619,-0.0011906,0.00221246,0,0,0,0,0.0532696,0.511832,-0.994915,36.1875,3,15471,1594214
170,7,-0.663123,-0.0727864,9.78707,0.0506254,-0.651172,0.984985,-0.00663238,-0.000733312,0.0978706,1,2.7081e-05,-5.95301e-06,1.10623e-05,0.00541619,-0.0011906,0.00221246,0,0,0,0,0.0532696,0.511832,-0.994915,36.1875,3,15471,1594214
170,8,-0.673837,-0.063972,9.79503,0.0398741,-0.635807,0.996963,-0.00674153,-0.000646091,0.0979501,1,3.13226e-05,-1.62419e-05,1.74324e-05,0.00626451,-0.00324837,0.00348647,0,0,0,0,0.0542645,0.511318,-0.993921,36.1875,3,15472,1594314
171,1,-0.673837,-0.063972,9.79503,0.0398741,-0.635807,0.996963,-0.00674153,-0.000646091,0.0979501,1,3.13226e-05,-1.62419e-05,1.74324e-05,0.00626451,-0.00324837,0.00348647,0,0,0,0,0.0542645,0.511318,-0.993921,36.1875,3,15472,1594314
171,2,-0.670117,-0.0634012,9.78823,0.0416167,-0.644511,0.986369,-0.0067047,-0.00064186,0.097882,1,3.865e-05,-1.81608e-05,2.09975e-05,0.00772999,-0.00363215,0.00419949,0,0,0,0,0.0561605,0.512287,-0.994413,36.1875,3,15473,1594414
172,1,-0.670117,-0.0634012,9.78823,0.0416167,-0.644511,0.986369,-0.0067047,-0.00064186,0.097882,1,3.865e-05,-1.81608e-05,2.09975e-05,0.00772999,-0.00363215,0.00419949,0,0,0,0,0.0561605,0.512287,-0.994413,36.1875,3,15473,1594414
172,2,-0.662752,-0.0636527,9.78953,0.0552477,-0.639486,0.987089,-0.00663038,-0.00064592,0.097895,1,4.64635e-05,-1.47914e-05,2.23072e-05,0.00929271,-0.00295828,0.00446145,0,0,0,0,0.0551328,0.513306,-0.996406,36.1875,3,15474,1594514
173,1,-0.662752,-0.0636527,9.78953,0.0552477,-0.639486,0.987089,-0.00663038,-0.00064592,0.097895,1,4.64635e-05,-1.47914e-05,2.23072e-05,0.00929271,-0.00295828,0.00446145,0,0,0,0,0.0551328,0.513306,-0.996406,36.1875,3,15474,1594514
173,2,-0.666797,-0.0678956,9.78884,0.0454667,-0.64469,0.985644,-0.00667024,-0.000686498,0.0978882,1,3.67817e-05,-1.17885e-05,2.55592e-05,0.00735633,-0.0023577,0.00511185,0,0,0,0,0.0540927,0.514335,-0.998903,36.1875,3,15475,1594614
174,1,-0.666797,-0.0678956,9.78884,0.0454667,-0.64469,0.985644,-0.00667024,-0.000686498,0.0978882,1,3.67817e-05,-1.17885e-05,2.55592e-05,0.00735633,-0.0023577,0.00511185,0,0,0,0,0.0540927,0.514335,-0.998903,36.1875,3,15475,1594614
174,2,-0.667921,-0.0573787,9.79335,0.0462431,-0.634532,0.993115,-0.00668113,-0.000581036,0.0979333,1,3.60738e-05,-9.88329e-06,1.36943e-05,0.00721476,-0.00197666,0.00273885,0,0,0,0,0.0531462,0.511922,-0.999963,36.1875,3,15476,1594714
175,1,-0.667921,-0.0573787,9.79335,0.0462431,-0.634532,0.993115,-0.00668113,-0.000581036,0.0979333,1,3.60738e-05,-9.88329e-06,1.36943e-05,0.00721476,-0.00197666,0.00273885,0,0,0,0,0.0531462,0.511922,-0.999963,36.1875,3,15476,1594714
175,2,-0.663453,-0.0750413,9.79519,0.0483314,-0.652829,0.991162,-0.00663411,-0.000758969,0.0979519,1,4.25726e-05,2.04702e-06,1.63094e-05,0.00851452,0.000409403,0.00326188,0,0,0,0,0.0522822,0.510413,-0.996962,36.1875,3,15477,1594814
176,1,-0.663453,-0.0750413,9.79519,0.0483314,-0.652829,0.991162,-0.00663411,-0.000758969,0.0979519,1,4.25726e-05,2.04702e-06,1.63094e-05,0.00851452,0.000409403,0.00326188,0,0,0,0,0.0522822,0.510413,-0.996962,36.1875,3,15477,1594814
176,2,-0.660678,-0.0703325,9.79895,0.0522429,-0.647237,0.997649,-0.00660675,-0.000711902,0.0979894,1,4.24721e-05,2.03987e-08,1.92429e-05,0.00849441,4.07975e-06,0.00384858,0,0,0,0,0.0547741,0.51033,-0.99344,36.1875,3,15478,1594914
176,3,-0.660678,-0.0703325,9.79895,0.0522429,-0.647237,0.997649,-0.00660675,-0.000711902,0.0979894,1,4.24721e-05,2.03987e-08,1.92429e-05,0.00849441,4.07975e-06,0.00384858,0,0,0,0,0.0547741,0.51033,-0.99344,36.1875,3,15478,1594914
176,4,-0.666293,-0.0698475,9.78748,0.0484313,-0.649553,0.990808,-0.00666698,-0.000707314,0.0978744,1,4.49959e-05,-2.07127e-05,2.29451e-06,0.00899917,-0.00414255,0.000458902,0,0,0,0,0.0552068,0.513252,-0.993377,36.1875,3,15479,1595014
176,5,-0.666293,-0.0698475,9.78748,0.0484313,-0.649553,0.990808,-0.00666698,-0.000707314,0.0978744,1,4.49959e-05,-2.07127e-05,2.29451e-06,0.00899917,-0.00414255,0.000458902,0,0,0,0,0.0552068,0.513252,-0.993377,36.1875,3,15479,1595014
176,6,-0.672728,-0.0703733,9.80176,0.0409085,-0.647883,1.00106,-0.0067316,-0.000713755,0.0980172,1,4.93637e-05,-2.22477e-05,2.56208e-05,0.00987274,-0.00444954,0.00512416,0,0,0,0,0.0561406,0.514229,-0.993864,36.1875,3,15480,1595114
177,1,-0.672728,-0.0703733,9.80176,0.0409085,-0.647883,1.00106,-0.0067316,-0.000713755,0.0980172,1,4.93637e-05,-2.22477e-05,2.56208e-05,0.00987274,-0.00444954,0.00512416,0,0,0,0,0.0561406,0.514229,-0.993864,36.1875,3,15480,1595114
177,2,-0.67491,-0.0696471,9.79092,0.0399029,-0.647672,0.988458,-0.00675177,-0.000704965,0.0979089,1,4.2634e-05,-1.37017e-05,1.07977e-05,0.00852681,-0.00274034,0.00215955,0,0,0,0,0.0556258,0.511848,-0.996945,36.1875,3,15481,1595214
178,1,-0.67491,-0.0696471,9.79092,0.0399029,-0.647672,0.988458,-0.00675177,-0.000704965,0.0979089,1,4.2634e-05,-1.37017e-05,1.07977e-05,0.00852681,-0.00274034,0.00215955,0,0,0,0,0.0556258,0.511848,-0.996945,36.1875,3,15481,1595214
178,2,-0.675039,-0.0659657,9.79636,0.0378935,-0.649622,0.995442,-0.00675065,-0.000667352,0.0979636,1,3.82885e-05,-1.44738e-06,1.43201e-05,0.0076577,-0.000289475,0.00286402,0,0,0,0,0.0542233,0.510866,-0.995951,36.1875,3,15482,1595314
179,1,-0.675039,-0.0659657,9.79636,0.0378935,-0.649622,0.995442,-0.00675065,-0.000667352,0.0979636,1,3.82885e-05,-1.44738e-06,1.43201e-05,0.0076577,-0.000289475,0.00286402,0,0,0,0,0.0542233,0.510866,-0.995951,36.1875,3,15482,1595314
179,2,-0.660309,-0.0736311,9.79519,0.0535968,-0.651449,0.993102,-0.00660457,-0.000745269,0.0979517,1,4.50629e-05,-7.61265e-06,9.83859e-06,0.00901259,-0.00152253,0.00196772,0,0,0,0,0.0547091,0.512786,-0.994395,36.1875,3,15483,1595414
180,1,-0.660309,-0.0736311,9.79519,0.0535968,-0.651449,0.993102,-0.00660457,-0.000745269,0.0979517,1,4.50629e-05,-7.61265e-06,9.83859e-06,0.00901259,-0.00152253,0.00196772,0,0,0,0,0.0547091,0.512786,-0.994395,36.1875,3,15483,1595414
180,2,-0.666727,-0.0718243,9.79593,0.0460956,-0.654236,0.995726,-0.00667029,-0.000725415,0.097959,1,3.57162e-05,-1.55475e-05,1.30833e-05,0.00714324,-0.00310949,0.00261665,0,0,0,0,0.0561648,0.512765,-0.993897,36.1875,3,15484,1595514
181,1,-0.666727,-0.0718243,9.79593,0.0460956,-0.654236,0.995726,-0.00667029,-0.000725415,0.097959,1,3.57162e-05,-1.55475e-05,1.30833e-05,0.00714324,-0.00310949,0.00261665,0,0,0,0,0.0561648,0.512765,-0.993897,36.1875,3,15484,1595514
181,2,-0.660409,-0.0683085,9.79218,0.0522338,-0.651111,0.992631,-0.00660468,-0.000689147,0.0979217,1,3.06554e-05,-3.0713e-06,4.42568e-06,0.00613108,-0.00061426,0.000885135,0,0,0,0,0.0561444,0.513262,-0.994391,36.1875,3,15485,1595614
182,1,-0.660409,-0.0683085,9.79218,0.0522338,-0.651111,0.992631,-0.00660468,-0.000689147,0.0979217,1,3.06554e-05,-3.0713e-06,4.42568e-06,0.00613108,-0.00061426,0.000885135,0,0,0,0,0.0561444,0.513262,-0.994391,36.1875,3,15485,1595614
182,2,-0.671582,-0.0706933,9.78376,0.0435784,-0.653069,0.980507,-0.00671844,-0.000714127,0.0978374,1,3.57255e-05,-1.34558e-05,1.51582e-05,0.0071451,-0.00269116,0.00303165,0,0,0,0,0.0561282,0.514238,-0.994369,36.1875,3,15486,1595714
183,1,-0.671582,-0.0706933,9.78376,0.0435784,-0.653069,0.980507,-0.00671844,-0.000714127,0.0978374,1,3.57255e-05,-1.34558e-05,1.51582e-05,0.0071451,-0.00269116,0.00303165,0,0,0,0,0.0561282,0.514238,-0.994369,36.1875,3,15486,1595714
183,2,-0.68409,-0.0747004,9.78754,0.0255292,-0.656099,0.984239,-0.00684218,-0.000755382,0.0978753,1,4.20306e-05,-6.57861e-06,1.10062e-05,0.00840613,-0.00131572,0.00220125,0,0,0,0,0.0555854,0.514287,-0.996891,36.1875,3,15487,1595814
184,1,-0.68409,-0.0747004,9.78754,0.0255292,-0.656099,0.984239,-0.00684218,-0.000755382,0.0978753,1,4.20306e-05,-6.57861e-06,1.10062e-05,0.00840613,-0.00131572,0.00220125,0,0,0,0,0.0555854,0.514287,-0.996891,36.1875,3,15487,1595814
184,2,-0.653916,-0.066406,9.78876,0.0608032,-0.650571,0.986308,-0.00654131,-0.00066942,0.0978875,1,2.65389e-05,-1.10807e-05,1.25619e-05,0.00530778,-0.00221615,0.00251237,0,0,0,0,0.0551447,0.511852,-0.996943,36.1875,3,15488,1595914
185,1,-0.653916,-0.066406,9.78876,0.0608032,-0.650571,0.986308,-0.00654131,-0.00066942,0.0978875,1,2.65389e-05,-1.10807e-05,1.25619e-05,0.00530778,-0.00221615,0.00251237,0,0,0,0,0.0551447,0.511852,-0.996943,36.1875,3,15488,1595914
185,2,-0.671534,-0.0845275,9.78432,0.0403626,-0.670521,0.98269,-0.00671712,-0.00085624,0.097843,1,5.42588e-05,-9.32031e-06,2.58575e-05,0.0108518,-0.00186406,0.0051715,0,0,0,0,0.0547044,0.510862,-0.995953,36.1875,3,15489,1596014
185,3,-0.671534,-0.0845275,9.78432,0.0403626,-0.670521,0.98269,-0.00671712,-0.00085624,0.097843,1,5.42588e-05,-9.32031e-06,2.58575e-05,0.0108518,-0.00186406,0.0051715,0,0,0,0,0.0547044,0.510862,-0.995953,36.1875,3,15489,1596014
185,4,-0.66753,-0.0650767,9.79124,0.0426948,-0.652189,0.990274,-0.00667698,-0.000660419,0.0979123,1,4.82741e-05,-8.66314e-06,1.48975e-05,0.00965483,-0.00173263,0.00297951,0,0,0,0,0.0561724,0.510832,-0.99495,36.1875,3,15490,1596114
185,5,-0.66753,-0.0650767,9.79124,0.0426948,-0.652189,0.990274,-0.00667698,-0.000660419,0.0979123,1,4.82741e-05,-8.66314e-06,1.48975e-05,0.00965483,-0.00173263,0.00297951,0,0,0,0,0.0561724,0.510832,-0.99495,36.1875,3,15490,1596114
185,6,-0.670934,-0.0669482,9.78446,0.0438888,-0.649272,0.984673,-0.00671132,-0.000675215,0.0978445,1,2.83402e-05,-1.01792e-05,1.3968e-05,0.00566804,-0.00203584,0.0027936,0,0,0,0,0.0561729,0.512278,-0.993908,36.1875,3,15491,1596214
185,7,-0.670934,-0.0669482,9.78446,0.0438888,-0.649272,0.984673,-0.00671132,-0.000675215,0.0978445,1,2.83402e-05,-1.01792e-05,1.3968e-05,0.00566804,-0.00203584,0.0027936,0,0,0,0,0.0561729,0.512278,-0.993908,36.1875,3,15491,1596214
185,8,-0.672334,-0.0671761,9.7865,0.0382585,-0.650939,0.985204,-0.00672413,-0.000679052,0.0978649,1,3.63942e-05,-4.12585e-06,1.25151e-05,0.00727884,-0.00082517,0.00250303,0,0,0,0,0.0550963,0.514779,-0.996878,36.1875,3,15492,1596314
186,1,-0.672334,-0.0671761,9.7865,0.0382585,-0.650939,0.985204,-0.00672413,-0.000679052,0.0978649,1,3.63942e-05,-4.12585e-06,1.25151e-05,0.00727884,-0.00082517,0.00250303,0,0,0,0,0.0550963,0.514779,-0.996878,36.1875,3,15492,1596314
186,2,-0.663103,-0.0695042,9.78643,0.0448626,-0.649819,0.981735,-0.00663295,-0.000703699,0.0978641,1,4.41167e-05,-9.84598e-06,1.63928e-06,0.00882335,-0.0019692,0.000327855,0,0,0,0,0.0545535,0.514828,-0.999399,36.1875,3,15493,1596414
187,1,-0.663103,-0.0695042,9.78643,0.0448626,-0.649819,0.981735,-0.00663295,-0.000703699,0.0978641,1,4.41167e-05,-9.84598e-06,1.63928e-06,0.00882335,-0.0019692,0.000327855,0,0,0,0,0.0545535,0.514828,-0.999399,36.1875,3,15493,1596414
187,2,-0.660715,-0.0658206,9.79695,0.0491546,-0.64943,0.994264,-0.00660755,-0.000666606,0.0979694,1,4.20809e-05,-2.13103e-06,1.17737e-05,0.00841618,-0.000426206,0.00235474,0,0,0,0,0.0551485,0.510885,-0.99747,36.1875,3,15494,1596514
188,1,-0.660715,-0.0658206,9.79695,0.0491546,-0.64943,0.994264,-0.00660755,-0.000666606,0.0979694,1,4.20809e-05,-2.13103e-06,1.17737e-05,0.00841618,-0.000426206,0.00235474,0,0,0,0,0.0551485,0.510885,-0.99747,36.1875,3,15494,1596514
188,2,-0.665089,-0.073134,9.79421,0.0486495,-0.660061,0.996087,-0.00665165,-0.000738563,0.097942,1,3.67407e-05,-3.90046e-06,1.95754e-06,0.00734813,-0.000780092,0.000391508,0,0,0,0,0.054219,0.510388,-0.996466,36.1875,3,15495,1596614
189,1,-0.665089,-0.073134,9.79421,0.0486495,-0.660061,0.996087,-0.00665165,-0.000738563,0.097942,1,3.67407e-05,-3.90046e-06,1.95754e-06,0.00734813,-0.000780092,0.000391508,0,0,0,0,0.054219,0.510388,-0.996466,36.1875,3,15495,1596614
189,2,-0.657603,-0.0725732,9.79247,0.0531445,-0.662201,0.992979,-0.00657747,-0.000734724,0.0979245,1,4.43775e-05,-7.50834e-06,2.27895e-05,0.0088755,-0.00150167,0.00455789,0,0,0,0,0.0557159,0.510818,-0.993938,36.1875,3,15496,1596714
190,1,-0.657603,-0.0725732,9.79247,0.0531445,-0.662201,0.992979,-0.00657747,-0.000734724,0.0979245,1,4.43775e-05,-7.50834e-06,2.27895e-05,0.0088755,-0.00150167,0.00455789,0,0,0,0,0.0557159,0.510818,-0.993938,36.1875,3,15496,1596714
190,2,-0.656963,-0.0694157,9.79046,0.0566306,-0.657063,0.988545,-0.00657213,-0.000703358,0.0979044,1,4.6106e-05,-1.28818e-05,1.31487e-05,0.00922121,-0.00257636,0.00262975,0,0,0,0,0.0556633,0.513266,-0.994389,36.1875,3,15497,1596814
191,1,-0.656963,-0.0694157,9.79046,0.0566306,-0.657063,0.988545,-0.00657213,-0.000703358,0.0979044,1,4.6106e-05,-1.28818e-05,1.31487e-05,0.00922121,-0.00257636,0.00262975,0,0,0,0,0.0556633,0.513266,-0.994389,36.1875,3,15497,1596814
191,2,-0.664731,-0.0747468,9.79555,0.0445483,-0.661029,0.993009,-0.0066491,-0.00075445,0.0979553,1,3.45278e-05,-9.26266e-06,1.64194e-05,0.00690556,-0.00185253,0.00328388,0,0,0,0,0.0551247,0.513794,-0.996395,36.1875,3,15498,1596914
192,1,-0.664731,-0.0747468,9.79555,0.0445483,-0.661029,0.993009,-0.0066491,-0.00075445,0.0979553,1,3.45278e-05,-9.26266e-06,1.64194e-05,0.00690556,-0.00185253,0.00328388,0,0,0,0,0.0551247,0.513794,-0.996395,36.1875,3,15498,1596914
192,2,-0.665424,-0.0713479,9.78982,0.0433528,-0.655804,0.988668,-0.00665726,-0.000721269,0.0978979,1,3.82603e-05,-1.55702e-05,2.24972e-05,0.00765207,-0.00311404,0.00449945,0,0,0,0,0.0541212,0.51335,-0.99842,36.1875,3,15499,1597014
193,1,-0.665424,-0.0713479,9.78982,0.0433528,-0.655804,0.988668,-0.00665726,-0.000721269,0.0978979,1,3.82603e-05,-1.55702e-05,2.24972e-05,0.00765207,-0.00311404,0.00449945,0,0,0,0,0.0541212,0.51335,-0.99842,36.1875,3,15499,1597014
193,2,-0.668202,-0.06946,9.78544,0.0414312,-0.657535,0.983856,-0.00668384,-0.000705075,0.0978542,1,5.38789e-05,-9.26485e-06,-5.25638e-06,0.0107758,-0.00185297,-0.00105128,0,0,0,0,0.0536439,0.512388,-0.998945,36.1875,3,15500,1597114
194,1,-0.668202,-0.06946,9.78544,0.0414312,-0.657535,0.983856,-0.00668384,-0.000705075,0.0978542,1,5.38789e-05,-9.26485e-06,-5.25638e-06,0.0107758,-0.00185297,-0.00105128,0,0,0,0,0.0536439,0.512388,-0.998945,36.1875,3,15500,1597114
194,2,-0.670054,-0.0677531,9.79057,0.0369089,-0.653838,0.987133,-0.00670445,-0.000684463,0.0979054,1,3.37755e-05,-2.01446e-05,2.37837e-05,0.0067551,-0.00402892,0.00475675,0,0,0,0,0.0537094,0.511376,-0.996947,36.1875,3,15501,1597214
194,3,-0.670054,-0.0677531,9.79057,0.0369089,-0.653838,0.987133,-0.00670445,-0.000684463,0.0979054,1,3.37755e-05,-2.01446e-05,2.37837e-05,0.0067551,-0.00402892,0.00475675,0,0,0,0,0.0537094,0.511376,-0.996947,36.1875,3,15501,1597214
194,4,-0.676148,-0.0786329,9.79628,0.0365287,-0.667619,0.996966,-0.00676309,-0.000794351,0.0979626,1,4.00265e-05,-8.31101e-06,1.33009e-05,0.0080053,-0.0016622,0.00266018,0,0,0,0,0.0538038,0.510825,-0.993424,36.1875,3,15502,1597314
194,5,-0.676148,-0.0786329,9.79628,0.0365287,-0.667619,0.996966,-0.00676309,-0.000794351,0.0979626,1,4.00265e-05,-8.31101e-06,1.33009e-05,0.0080053,-0.0016622,0.00266018,0,0,0,0,0.0538038,0.510825,-0.993424,36.1875,3,15502,1597314
194,6,-0.666101,-0.082699,9.79924,0.0473293,-0.67372,0.996224,-0.00666579,-0.000834883,0.097992,1,3.98421e-05,-2.4477e-05,6.30293e-06,0.00796842,-0.00489539,0.00126059,0,0,0,0,0.054228,0.51279,-0.994393,36.1875,3,15503,1597414
194,7,-0.666101,-0.082699,9.79924,0.0473293,-0.67372,0.996224,-0.00666579,-0.000834883,0.097992,1,3.98421e-05,-2.4477e-05,6.30293e-06,0.00796842,-0.00489539,0.00126059,0,0,0,0,0.054228,0.51279,-0.994393,36.1875,3,15503,1597414
194,8,-0.664155,-0.0661063,9.79358,0.0479443,-0.655925,0.990813,-0.00664249,-0.000671596,0.0979356,1,5.27761e-05,-4.9005e-06,1.47468e-05,0.0105552,-0.0009801,0.00294936,0,0,0,0,0.0546726,0.514259,-0.994867,36.1875,3,15504,1597514
195,1,-0.664155,-0.0661063,9.79358,0.0479443,-0.655925,0.990813,-0.00664249,-0.000671596,0.0979356,1,5.27761e-05,-4.9005e-06,1.47468e-05,0.0105552,-0.0009801,0.00294936,0,0,0,0,0.0546726,0.514259,-0.994867,36.1875,3,15504,1597514
195,2,-0.656561,-0.0644932,9.78542,0.0549071,-0.653507,0.984144,-0.00656911,-0.000656252,0.0978539,1,5.73881e-05,-1.79633e-05,6.7818e-06,0.0114776,-0.00359266,0.00135636,0,0,0,0,0.0536652,0.514782,-0.996366,36.1875,3,15505,1597614
196,1,-0.656561,-0.0644932,9.78542,0.0549071,-0.653507,0.984144,-0.00656911,-0.000656252,0.0978539,1,5.73881e-05,-1.79633e-05,6.7818e-06,0.0114776,-0.00359266,0.00135636,0,0,0,0,0.0536652,0.514782,-0.996366,36.1875,3,15505,1597614
196,2,-0.669821,-0.067478,9.79124,0.0398368,-0.656757,0.989141,-0.00670263,-0.000684027,0.0979121,1,4.66534e-05,-2.26611e-05,8.25383e-06,0.00933069,-0.00453223,0.00165077,0,0,0,0,0.0541412,0.511408,-0.998969,36.1875,3,15506,1597714
197,1,-0.669821,-0.067478,9.79124,0.0398368,-0.656757,0.989141,-0.00670263,-0.000684027,0.0979121,1,4.66534e-05,-2.26611e-05,8.25383e-06,0.00933069,-0.00453223,0.00165077,0,0,0,0,0.0541412,0.511408,-0.998969,36.1875,3,15506,1597714
197,2,-0.669837,-0.0767134,9.78336,0.0392748,-0.668607,0.981925,-0.00670052,-0.000775713,0.0978334,1,4.24218e-05,-1.11627e-05,2.08077e-05,0.00848435,-0.00223254,0.00416153,0,0,0,0,0.0537094,0.511376,-0.996947,36.1875,3,15507,1597814
198,1,-0.669837,-0.0767134,9.78336,0.0392748,-0.668607,0.981925,-0.00670052,-0.000775713,0.0978334,1,4.24218e-05,-1.11627e-05,2.08077e-05,0.00848435,-0.00223254,0.00416153,0,0,0,0,0.0537094,0.511376,-0.996947,36.1875,3,15507,1597814
198,2,-0.662322,-0.0661384,9.79663,0.0482734,-0.654893,0.992895,-0.00662544,-0.000669538,0.0979661,1,4.12781e-05,-1.13528e-05,5.00114e-06,0.00825562,-0.00227057,0.00100023,0,0,0,0,0.0542242,0.513757,-0.993866,36.1875,3,15508,1597914
198,3,-0.662322,-0.0661384,9.79663,0.0482734,-0.654893,0.992895,-0.00662544,-0.000669538,0.0979661,1,4.12781e-05,-1.13528e-05,5.00114e-06,0.00825562,-0.00227057,0.00100023,0,0,0,0,0.0542242,0.513757,-0.993866,36.1875,3,15508,1597914
198,4,-0.669441,-0.0696771,9.79597,0.0435277,-0.658198,0.994194,-0.00669652,-0.000705345,0.0979595,1,4.2012e-05,-1.09468e-05,2.56317e-05,0.0084024,-0.00218936,0.00512634,0,0,0,0,0.0542322,0.513269,-0.993877,36.1875,3,15509,1598014
198,5,-0.669441,-0.0696771,9.79597,0.0435277,-0.658198,0.994194,-0.00669652,-0.000705345,0.0979595,1,4.2012e-05,-1.09468e-05,2.56317e-05,0.0084024,-0.00218936,0.00512634,0,0,0,0,0.0542322,0.513269,-0.993877,36.1875,3,15509,1598014
198,6,-0.66513,-0.0690647,9.78068,0.045333,-0.657521,0.977923,-0.00665527,-0.000700072,0.0978065,1,4.68528e-05,-2.0452e-05,1.94892e-05,0.00937055,-0.0040904,0.00389785,0,0,0,0,0.0551328,0.513306,-0.996406,36.1875,3,15510,1598114
198,7,-0.66513,-0.0690647,9.78068,0.045333,-0.657521,0.977923,-0.00665527,-0.000700072,0.0978065,1,4.68528e-05,-2.0452e-05,1.94892e-05,0.00937055,-0.0040904,0.00389785,0,0,0,0,0.0551328,0.513306,-0.996406,36.1875,3,15510,1598114
198,8,-0.67088,-0.0643634,9.78653,0.038031,-0.658882,0.98489,-0.00671183,-0.000653368,0.097865,1,4.92372e-05,-1.55082e-05,7.15815e-06,0.00984745,-0.00310163,0.00143163,0,0,0,0,0.0550877,0.513821,-0.997909,36.1875,3,15511,1598214
199,1,-0.67088,-0.0643634,9.78653,0.038031,-0.658882,0.98489,-0.00671183,-0.000653368,0.097865,1,4.92372e-05,-1.55082e-05,7.15815e-06,0.00984745,-0.00310163,0.00143163,0,0,0,0,0.0550877,0.513821,-0.997909,36.1875,3,15511,1598214
