frame_id,imu_idx,accel_x,accel_y,accel_z,free_accel_x,free_accel_y,free_accel_z,delta_v_x,delta_v_y,delta_v_z,delta_q_w,delta_q_x,delta_q_y,delta_q_z,rate_x,rate_y,rate_z,quat_w,quat_x,quat_y,quat_z,mag_x,mag_y,mag_z,temperature,status_byte,packet_counter,time_fine
8529,1,-0.689917,-0.0332726,9.78363,-0.193826,-1.83372,0.91004,-0.00689848,-0.000341193,0.0978363,1,4.23099e-05,3.50389e-06,1.36179e-05,0.00846199,0.000700777,0.00272358,0,0,0,0,0.0462229,0.309034,-1.11151,35.8125,3,33599,10661895
8529,2,-0.500483,-0.0555779,7.36174,-0.193826,-1.83372,0.91004,-0.0050061,-0.000561917,0.0736173,1,3.96277e-05,-8.90331e-06,3.03482e-05,0.00792555,-0.00178066,0.00606963,0,0,0,0,0.0341476,0.522638,-0.962262,35.9375,1,59512,13254723
8529,3,-0.500483,-0.0555779,7.36174,-0.193826,-1.83372,0.91004,-0.0050061,-0.000561917,0.0736173,1,3.96277e-05,-8.90331e-06,3.03482e-05,0.00792555,-0.00178066,0.00606963,0,0,0,0,0.0341476,0.522638,-0.962262,35.9375,1,59512,13254723
8529,4,-0.676678,-0.0512688,9.79172,0.0855741,-0.485907,0.96831,-0.0067693,-0.000523378,0.097917,1,5.37801e-05,-1.29174e-05,1.17105e-05,0.010756,-0.00258347,0.0023421,0,0,0,0,0.0336257,0.523635,-0.963248,35.9375,1,59513,13254823
1,1,-0.676678,-0.0512688,9.79172,0.0855741,-0.485907,0.96831,-0.0067693,-0.000523378,0.097917,1,5.37801e-05,-1.29174e-05,1.17105e-05,0.010756,-0.00258347,0.0023421,0,0,0,0,0.0336257,0.523635,-0.963248,35.9375,1,59513,13254823
1,2,-0.655286,-0.0512835,9.78344,0.108261,-0.489324,0.960476,-0.00655563,-0.00052264,0.0978342,1,4.88794e-05,-1.42886e-05,1.84273e-05,0.00977588,-0.00285771,0.00368546,0,0,0,0,0.0345633,0.523645,-0.964262,35.9375,1,59514,13254923
1,3,-0.655286,-0.0512835,9.78344,0.108261,-0.489324,0.960476,-0.00655563,-0.00052264,0.0978342,1,4.88794e-05,-1.42886e-05,1.84273e-05,0.00977588,-0.00285771,0.00368546,0,0,0,0,0.0345633,0.523645,-0.964262,35.9375,1,59514,13254923
1,4,-0.669488,-0.0623859,9.78378,0.0966355,-0.500368,0.958535,-0.0066975,-0.000634512,0.0978375,1,5.34988e-05,-1.34895e-05,1.37668e-05,0.0106998,-0.0026979,0.00275337,0,0,0,0,0.0331398,0.521715,-0.964803,35.9375,1,59515,13255023
2,1,-0.669488,-0.0623859,9.78378,0.0966355,-0.500368,0.958535,-0.0066975,-0.000634512,0.0978375,1,5.34988e-05,-1.34895e-05,1.37668e-05,0.0106998,-0.0026979,0.00275337,0,0,0,0,0.0331398,0.521715,-0.964803,35.9375,1,59515,13255023
2,2,-0.676707,-0.0652808,9.79026,0.0844518,-0.505442,0.974095,-0.0067715,-0.00066154,0.0979022,1,4.31762e-05,-2.27467e-05,2.05317e-05,0.00863524,-0.00454934,0.00410633,0,0,0,0,0.0317373,0.520734,-0.963809,35.9375,1,59516,13255123
2,3,-0.676707,-0.0652808,9.79026,0.0844518,-0.505442,0.974095,-0.0067715,-0.00066154,0.0979022,1,4.31762e-05,-2.27467e-05,2.05317e-05,0.00863524,-0.00454934,0.00410633,0,0,0,0,0.0317373,0.520734,-0.963809,35.9375,1,59516,13255123
2,4,-0.674722,-0.0676055,9.77766,0.0890346,-0.50662,0.957635,-0.00674795,-0.000683756,0.0977765,1,3.75564e-05,-3.93746e-06,2.64069e-05,0.00751128,-0.000787492,0.00528137,0,0,0,0,0.03272,0.520229,-0.963319,35.9375,1,59517,13255223
3,1,-0.674722,-0.0676055,9.77766,0.0890346,-0.50662,0.957635,-0.00674795,-0.000683756,0.0977765,1,3.75564e-05,-3.93746e-06,2.64069e-05,0.00751128,-0.000787492,0.00528137,0,0,0,0,0.03272,0.520229,-0.963319,35.9375,1,59517,13255223
3,2,-0.681047,-0.0734523,9.78647,0.0827821,-0.513672,0.967419,-0.00681114,-0.000744866,0.0978645,1,5.20497e-05,-3.52399e-06,1.13808e-05,0.0104099,-0.000704798,0.00227617,0,0,0,0,0.0341999,0.518744,-0.962854,35.9375,1,59518,13255323
3,3,-0.681047,-0.0734523,9.78647,0.0827821,-0.513672,0.967419,-0.00681114,-0.000744866,0.0978645,1,5.20497e-05,-3.52399e-06,1.13808e-05,0.0104099,-0.000704798,0.00227617,0,0,0,0,0.0341999,0.518744,-0.962854,35.9375,1,59518,13255323
3,4,-0.663709,-0.0585654,9.79293,0.10097,-0.501162,0.969207,-0.00663848,-0.000597199,0.0979291,1,5.78631e-05,-7.16922e-06,1.59964e-05,0.0115726,-0.00143385,0.00319928,0,0,0,0,0.0336494,0.520727,-0.964323,35.9375,1,59519,13255423
7,1,-0.663709,-0.0585654,9.79293,0.10097,-0.501162,0.969207,-0.00663848,-0.000597199,0.0979291,1,5.78631e-05,-7.16922e-06,1.59964e-05,0.0115726,-0.00143385,0.00319928,0,0,0,0,0.0336494,0.520727,-0.964323,35.9375,1,59519,13255423
7,2,-0.660249,-0.0576447,9.79902,0.0998083,-0.495714,0.975892,-0.00660411,-0.000586369,0.09799,1,4.95874e-05,-8.35184e-06,1.54394e-05,0.00991748,-0.00167037,0.00308787,0,0,0,0,0.0340978,0.521228,-0.965324,35.9375,1,59520,13255523
7,3,-0.660249,-0.0576447,9.79902,0.0998083,-0.495714,0.975892,-0.00660411,-0.000586369,0.09799,1,4.95874e-05,-8.35184e-06,1.54394e-05,0.00991748,-0.00167037,0.00308787,0,0,0,0,0.0340978,0.521228,-0.965324,35.9375,1,59520,13255523
7,4,-0.677964,-0.0705715,9.78512,0.0824247,-0.510205,0.963691,-0.00678141,-0.000712925,0.097851,1,3.53511e-05,-9.19229e-06,2.14707e-05,0.00707022,-0.00183846,0.00429415,0,0,0,0,0.0331598,0.519773,-0.965352,35.9375,1,59521,13255623
8,1,-0.677964,-0.0705715,9.78512,0.0824247,-0.510205,0.963691,-0.00678141,-0.000712925,0.097851,1,3.53511e-05,-9.19229e-06,2.14707e-05,0.00707022,-0.00183846,0.00429415,0,0,0,0,0.0331598,0.519773,-0.965352,35.9375,1,59521,13255623
8,2,-0.675845,-0.0730675,9.78407,0.0845257,-0.516669,0.962559,-0.00676182,-0.00074044,0.0978404,1,4.88553e-05,-1.73355e-05,1.51491e-05,0.00977106,-0.00346711,0.00302981,0,0,0,0,0.0312966,0.518299,-0.963861,35.9375,1,59522,13255723
8,3,-0.675845,-0.0730675,9.78407,0.0845257,-0.516669,0.962559,-0.00676182,-0.00074044,0.0978404,1,4.88553e-05,-1.73355e-05,1.51491e-05,0.00977106,-0.00346711,0.00302981,0,0,0,0,0.0312966,0.518299,-0.963861,35.9375,1,59522,13255723
8,4,-0.676991,-0.0766734,9.79932,0.0852261,-0.520764,0.974972,-0.00677215,-0.000776663,0.0979929,1,4.9608e-05,-1.15783e-05,1.52657e-05,0.0099216,-0.00231565,0.00305314,0,0,0,0,0.0307623,0.519305,-0.965351,35.9375,1,59523,13255823
9,1,-0.676991,-0.0766734,9.79932,0.0852261,-0.520764,0.974972,-0.00677215,-0.000776663,0.0979929,1,4.9608e-05,-1.15783e-05,1.52657e-05,0.0099216,-0.00231565,0.00305314,0,0,0,0,0.0307623,0.519305,-0.965351,35.9375,1,59523,13255823
9,2,-0.664364,-0.0662006,9.78575,0.0996339,-0.5106,0.962759,-0.00664479,-0.000672163,0.0978573,1,5.09434e-05,-5.98282e-06,1.39845e-05,0.0101887,-0.00119656,0.00279691,0,0,0,0,0.0331845,0.519755,-0.964342,35.9375,1,59524,13255923
9,3,-0.664364,-0.0662006,9.78575,0.0996339,-0.5106,0.962759,-0.00664479,-0.000672163,0.0978573,1,5.09434e-05,-5.98282e-06,1.39845e-05,0.0101887,-0.00119656,0.00279691,0,0,0,0,0.0331845,0.519755,-0.964342,35.9375,1,59524,13255923
9,4,-0.692261,-0.0523484,9.77996,0.0696347,-0.497325,0.956764,-0.00692695,-0.000533274,0.0977992,1,4.90303e-05,-2.22681e-05,1.43739e-05,0.00980606,-0.00445363,0.00287478,0,0,0,0,0.0336865,0.5207,-0.962808,35.9375,1,59525,13256023
10,1,-0.692261,-0.0523484,9.77996,0.0696347,-0.497325,0.956764,-0.00692695,-0.000533274,0.0977992,1,4.90303e-05,-2.22681e-05,1.43739e-05,0.00980606,-0.00445363,0.00287478,0,0,0,0,0.0336865,0.5207,-0.962808,35.9375,1,59525,13256023
10,2,-0.682862,-0.0489517,9.78669,0.0730392,-0.497129,0.964904,-0.00683053,-0.000498388,0.0978668,1,4.55957e-05,-9.7378e-06,-3.95441e-06,0.00911914,-0.00194756,-0.000790882,0,0,0,0,0.0322142,0.520251,-0.964327,35.9375,1,59526,13256123
10,3,-0.682862,-0.0489517,9.78669,0.0730392,-0.497129,0.964904,-0.00683053,-0.000498388,0.0978668,1,4.55957e-05,-9.7378e-06,-3.95441e-06,0.00911914,-0.00194756,-0.000790882,0,0,0,0,0.0322142,0.520251,-0.964327,35.9375,1,59526,13256123
10,4,-0.687765,-0.0650233,9.78592,0.0721827,-0.509527,0.960155,-0.00688046,-0.000660756,0.0978589,1,5.22081e-05,-1.45048e-05,2.21969e-05,0.0104416,-0.00290096,0.00443938,0,0,0,0,0.031696,0.520282,-0.965839,35.9375,1,59527,13256223
11,1,-0.687765,-0.0650233,9.78592,0.0721827,-0.509527,0.960155,-0.00688046,-0.000660756,0.0978589,1,5.22081e-05,-1.45048e-05,2.21969e-05,0.0104416,-0.00290096,0.00443938,0,0,0,0,0.031696,0.520282,-0.965839,35.9375,1,59527,13256223
11,2,-0.681677,-0.069863,9.78346,0.0786842,-0.521788,0.961059,-0.0068189,-0.000705765,0.0978344,1,3.47774e-05,-1.10755e-05,2.41603e-05,0.00695548,-0.0022151,0.00483207,0,0,0,0,0.0312192,0.520765,-0.965321,35.9375,1,59528,13256323
11,3,-0.681677,-0.069863,9.78346,0.0786842,-0.521788,0.961059,-0.0068189,-0.000705765,0.0978344,1,3.47774e-05,-1.10755e-05,2.41603e-05,0.00695548,-0.0022151,0.00483207,0,0,0,0,0.0312192,0.520765,-0.965321,35.9375,1,59528,13256323
11,4,-0.683379,-0.068371,9.78416,0.0739329,-0.519688,0.963806,-0.00683648,-0.000693699,0.0978413,1,4.95966e-05,-1.38637e-05,2.07369e-05,0.00991932,-0.00277275,0.00414738,0,0,0,0,0.0312315,0.520756,-0.964816,35.9375,1,59529,13256423
12,1,-0.683379,-0.068371,9.78416,0.0739329,-0.519688,0.963806,-0.00683648,-0.000693699,0.0978413,1,4.95966e-05,-1.38637e-05,2.07369e-05,0.00991932,-0.00277275,0.00414738,0,0,0,0,0.0312315,0.520756,-0.964816,35.9375,1,59529,13256423
12,2,-0.667319,-0.0670002,9.78543,0.0969547,-0.521112,0.96488,-0.00667594,-0.000677399,0.097854,1,3.63944e-05,-1.42027e-05,2.05969e-05,0.00727888,-0.00284054,0.00411938,0,0,0,0,0.0336988,0.520691,-0.962303,35.9375,1,59530,13256523
12,3,-0.667319,-0.0670002,9.78543,0.0969547,-0.521112,0.96488,-0.00667594,-0.000677399,0.097854,1,3.63944e-05,-1.42027e-05,2.05969e-05,0.00727888,-0.00284054,0.00411938,0,0,0,0,0.0336988,0.520691,-0.962303,35.9375,1,59530,13256523
12,4,-0.675168,-0.0637975,9.79296,0.0854297,-0.51794,0.968217,-0.00675347,-0.000649754,0.0979294,1,5.86454e-05,-9.28564e-06,2.16399e-05,0.0117291,-0.00185713,0.00432799,0,0,0,0,0.0341595,0.521183,-0.9628,35.9375,1,59531,13256623
10,1,-0.675168,-0.0637975,9.79296,0.0854297,-0.51794,0.968217,-0.00675347,-0.000649754,0.0979294,1,5.86454e-05,-9.28564e-06,2.16399e-05,0.0117291,-0.00185713,0.00432799,0,0,0,0,0.0341595,0.521183,-0.9628,35.9375,1,59531,13256623
10,2,-0.680011,-0.0541194,9.79545,0.0777781,-0.511455,0.970022,-0.00680283,-0.00055106,0.0979543,1,4.95016e-05,-1.39888e-05,1.23828e-05,0.00990031,-0.00279775,0.00247656,0,0,0,0,0.0345865,0.519291,-0.966379,35.9375,1,59532,13256723
10,3,-0.680011,-0.0541194,9.79545,0.0777781,-0.511455,0.970022,-0.00680283,-0.00055106,0.0979543,1,4.95016e-05,-1.39888e-05,1.23828e-05,0.00990031,-0.00279775,0.00247656,0,0,0,0,0.0345865,0.519291,-0.966379,35.9375,1,59532,13256723
10,4,-0.687877,-0.0636329,9.78016,0.0732732,-0.516992,0.956825,-0.00688101,-0.000644302,0.0978014,1,3.87411e-05,-1.16303e-05,2.87332e-05,0.00774823,-0.00232606,0.00574664,0,0,0,0,0.0336115,0.517863,-0.967922,35.9375,1,59533,13256823
14,1,-0.687877,-0.0636329,9.78016,0.0732732,-0.516992,0.956825,-0.00688101,-0.000644302,0.0978014,1,3.87411e-05,-1.16303e-05,2.87332e-05,0.00774823,-0.00232606,0.00574664,0,0,0,0,0.0336115,0.517863,-0.967922,35.9375,1,59533,13256823
14,2,-0.694747,-0.0663019,9.79001,0.0633508,-0.51715,0.969081,-0.00694721,-0.000676085,0.0979,1,6.58817e-05,1.2615e-06,1.1951e-05,0.0131763,0.000252299,0.0023902,0,0,0,0,0.0326948,0.518802,-0.965371,35.9375,1,59534,13256923
14,3,-0.694747,-0.0663019,9.79001,0.0633508,-0.51715,0.969081,-0.00694721,-0.000676085,0.0979,1,6.58817e-05,1.2615e-06,1.1951e-05,0.0131763,0.000252299,0.0023902,0,0,0,0,0.0326948,0.518802,-0.965371,35.9375,1,59534,13256923
14,4,-0.678574,-0.0742435,9.79798,0.078906,-0.530354,0.982518,-0.00678698,-0.000752395,0.0979797,1,5.08502e-05,-6.31626e-06,-3.35053e-07,0.01017,-0.00126325,-6.70106e-05,0,0,0,0,0.0322265,0.520242,-0.963822,35.9375,1,59535,13257023
15,1,-0.678574,-0.0742435,9.79798,0.078906,-0.530354,0.982518,-0.00678698,-0.000752395,0.0979797,1,5.08502e-05,-6.31626e-06,-3.35053e-07,0.01017,-0.00126325,-6.70106e-05,0,0,0,0,0.0322265,0.520242,-0.963822,35.9375,1,59535,13257023
15,2,-0.693246,-0.0684156,9.7849,0.066758,-0.52201,0.962708,-0.00693439,-0.00069443,0.0978488,1,5.15841e-05,-9.93167e-06,1.29062e-05,0.0103168,-0.00198633,0.00258124,0,0,0,0,0.0312851,0.521198,-0.962281,35.9375,1,59536,13257123
15,3,-0.693246,-0.0684156,9.7849,0.066758,-0.52201,0.962708,-0.00693439,-0.00069443,0.0978488,1,5.15841e-05,-9.93167e-06,1.29062e-05,0.0103168,-0.00198633,0.00258124,0,0,0,0,0.0312851,0.521198,-0.962281,35.9375,1,59536,13257123
15,4,-0.681936,-0.061543,9.79371,0.0749355,-0.521848,0.968407,-0.00682268,-0.000626082,0.0979368,1,5.29866e-05,-1.70807e-05,2.00475e-05,0.0105973,-0.00341614,0.0040095,0,0,0,0,0.0331564,0.522185,-0.963783,35.9375,1,59537,13257223
16,1,-0.681936,-0.061543,9.79371,0.0749355,-0.521848,0.968407,-0.00682268,-0.000626082,0.0979368,1,5.29866e-05,-1.70807e-05,2.00475e-05,0.0105973,-0.00341614,0.0040095,0,0,0,0,0.0331564,0.522185,-0.963783,35.9375,1,59537,13257223
16,2,-0.665572,-0.0605416,9.79971,0.088934,-0.520988,0.973091,-0.00666002,-0.00061306,0.0979968,1,3.76961e-05,-2.20538e-05,1.92394e-05,0.00753921,-0.00441076,0.00384788,0,0,0,0,0.0345462,0.52173,-0.966325,35.9375,1,59538,13257323
16,3,-0.665572,-0.0605416,9.79971,0.088934,-0.520988,0.973091,-0.00666002,-0.00061306,0.0979968,1,3.76961e-05,-2.20538e-05,1.92394e-05,0.00753921,-0.00441076,0.00384788,0,0,0,0,0.0345462,0.52173,-0.966325,35.9375,1,59538,13257323
16,4,-0.670185,-0.0665439,9.78578,0.086023,-0.530919,0.960675,-0.00670212,-0.000674131,0.0978577,1,4.37517e-05,-1.47659e-06,9.61669e-06,0.00875035,-0.000295318,0.00192334,0,0,0,0,0.0326255,0.52078,-0.966842,35.9375,1,59539,13257423
17,1,-0.670185,-0.0665439,9.78578,0.086023,-0.530919,0.960675,-0.00670212,-0.000674131,0.0978577,1,4.37517e-05,-1.47659e-06,9.61669e-06,0.00875035,-0.000295318,0.00192334,0,0,0,0,0.0326255,0.52078,-0.966842,35.9375,1,59539,13257423
17,2,-0.671442,-0.0619302,9.78516,0.0867883,-0.528488,0.96106,-0.00671887,-0.000626873,0.0978512,1,3.75119e-05,-2.28509e-05,1.70991e-05,0.00750238,-0.00457017,0.00341981,0,0,0,0,0.031753,0.518313,-0.964873,35.9375,1,59540,13257523
17,3,-0.671442,-0.0619302,9.78516,0.0867883,-0.528488,0.96106,-0.00671887,-0.000626873,0.0978512,1,3.75119e-05,-2.28509e-05,1.70991e-05,0.00750238,-0.00457017,0.00341981,0,0,0,0,0.031753,0.518313,-0.964873,35.9375,1,59540,13257523
17,4,-0.668589,-0.0658775,9.7885,0.0897394,-0.531231,0.965764,-0.00669091,-0.000668235,0.0978846,1,4.67599e-05,-2.57996e-05,2.28657e-05,0.00935197,-0.00515991,0.00457315,0,0,0,0,0.0312885,0.518787,-0.96385,35.9375,1,59541,13257623
18,1,-0.668589,-0.0658775,9.7885,0.0897394,-0.531231,0.965764,-0.00669091,-0.000668235,0.0978846,1,4.67599e-05,-2.57996e-05,2.28657e-05,0.00935197,-0.00515991,0.00457315,0,0,0,0,0.0312885,0.518787,-0.96385,35.9375,1,59541,13257623
18,2,-0.682619,-0.0617861,9.78149,0.0724041,-0.521718,0.95966,-0.00682528,-0.00062867,0.0978149,1,5.47022e-05,4.60954e-06,7.91262e-06,0.0109404,0.000921908,0.00158252,0,0,0,0,0.0326834,0.521701,-0.963791,35.9375,1,59542,13257723
18,3,-0.682619,-0.0617861,9.78149,0.0724041,-0.521718,0.95966,-0.00682528,-0.00062867,0.0978149,1,5.47022e-05,4.60954e-06,7.91262e-06,0.0109404,0.000921908,0.00158252,0,0,0,0,0.0326834,0.521701,-0.963791,35.9375,1,59542,13257723
18,4,-0.667199,-0.0739594,9.80334,0.0855924,-0.540377,0.977883,-0.00667478,-0.000749204,0.0980331,1,4.77769e-05,-1.43667e-05,1.8196e-05,0.00955537,-0.00287334,0.0036392,0,0,0,0,0.0335967,0.523174,-0.964773,35.9375,1,59543,13257823
19,1,-0.667199,-0.0739594,9.80334,0.0855924,-0.540377,0.977883,-0.00667478,-0.000749204,0.0980331,1,4.77769e-05,-1.43667e-05,1.8196e-05,0.00955537,-0.00287334,0.0036392,0,0,0,0,0.0335967,0.523174,-0.964773,35.9375,1,59543,13257823
19,2,-0.659741,-0.0589836,9.78815,0.0994893,-0.52959,0.965135,-0.00659782,-0.000597919,0.0978814,1,4.03635e-05,-2.17531e-06,1.37856e-05,0.0080727,-0.000435063,0.00275711,0,0,0,0,0.0340855,0.521237,-0.965829,35.9375,1,59544,13257923
19,3,-0.659741,-0.0589836,9.78815,0.0994893,-0.52959,0.965135,-0.00659782,-0.000597919,0.0978814,1,4.03635e-05,-2.17531e-06,1.37856e-05,0.0080727,-0.000435063,0.00275711,0,0,0,0,0.0340855,0.521237,-0.965829,35.9375,1,59544,13257923
19,4,-0.660226,-0.0691313,9.78705,0.0919016,-0.542287,0.959182,-0.00660483,-0.000702249,0.0978702,1,5.43892e-05,-1.32823e-05,2.1942e-05,0.0108778,-0.00265646,0.00438841,0,0,0,0,0.0336124,0.520754,-0.965837,35.9375,1,59545,13258023
20,1,-0.660226,-0.0691313,9.78705,0.0919016,-0.542287,0.959182,-0.00660483,-0.000702249,0.0978702,1,5.43892e-05,-1.32823e-05,2.1942e-05,0.0108778,-0.00265646,0.00438841,0,0,0,0,0.0336124,0.520754,-0.965837,35.9375,1,59545,13258023
20,2,-0.670342,-0.0536573,9.78352,0.082805,-0.522185,0.962095,-0.0067037,-0.000544487,0.0978351,1,3.8838e-05,-1.56855e-06,2.34637e-05,0.0077676,-0.00031371,0.00469274,0,0,0,0,0.0317084,0.520273,-0.965334,35.9375,1,59546,13258123
20,3,-0.670342,-0.0536573,9.78352,0.082805,-0.522185,0.962095,-0.0067037,-0.000544487,0.0978351,1,3.8838e-05,-1.56855e-06,2.34637e-05,0.0077676,-0.00031371,0.00469274,0,0,0,0,0.0317084,0.520273,-0.965334,35.9375,1,59546,13258123
20,4,-0.684189,-0.0555279,9.78529,0.0738464,-0.524263,0.961532,-0.00684362,-0.000563353,0.0978527,1,3.98643e-05,-8.91467e-06,1.99005e-05,0.00797287,-0.00178293,0.00398009,0,0,0,0,0.0312681,0.519283,-0.964344,35.9375,1,59547,13258223
21,1,-0.684189,-0.0555279,9.78529,0.0738464,-0.524263,0.961532,-0.00684362,-0.000563353,0.0978527,1,3.98643e-05,-8.91467e-06,1.99005e-05,0.00797287,-0.00178293,0.00398009,0,0,0,0,0.0312681,0.519283,-0.964344,35.9375,1,59547,13258223
21,2,-0.680957,-0.0613653,9.79743,0.0737762,-0.53225,0.973257,-0.0068121,-0.000621954,0.0979741,1,4.03933e-05,-1.30888e-05,2.83662e-05,0.00807866,-0.00261777,0.00567325,0,0,0,0,0.0341714,0.519729,-0.963337,35.9375,1,59548,13258323
21,3,-0.680957,-0.0613653,9.79743,0.0737762,-0.53225,0.973257,-0.0068121,-0.000621954,0.0979741,1,4.03933e-05,-1.30888e-05,2.83662e-05,0.00807866,-0.00261777,0.00567325,0,0,0,0,0.0341714,0.519729,-0.963337,35.9375,1,59548,13258323
21,4,-0.66421,-0.0744962,9.78195,0.0898229,-0.545566,0.95316,-0.00664567,-0.00075233,0.0978192,1,3.59343e-05,-1.8444e-05,2.54118e-05,0.00718685,-0.00368879,0.00508237,0,0,0,0,0.0341182,0.520732,-0.96483,35.9375,1,59549,13258423
22,1,-0.66421,-0.0744962,9.78195,0.0898229,-0.545566,0.95316,-0.00664567,-0.00075233,0.0978192,1,3.59343e-05,-1.8444e-05,2.54118e-05,0.00718685,-0.00368879,0.00508237,0,0,0,0,0.0341182,0.520732,-0.96483,35.9375,1,59549,13258423
22,2,-0.662247,-0.0705805,9.7857,0.091384,-0.544203,0.962132,-0.00662608,-0.000715679,0.0978566,1,4.98015e-05,-1.85297e-05,9.65056e-06,0.00996029,-0.00370595,0.00193011,0,0,0,0,0.0346363,0.520701,-0.963318,35.9375,1,59550,13258523
22,3,-0.662247,-0.0705805,9.7857,0.091384,-0.544203,0.962132,-0.00662608,-0.000715679,0.0978566,1,4.98015e-05,-1.85297e-05,9.65056e-06,0.00996029,-0.00370595,0.00193011,0,0,0,0,0.0346363,0.520701,-0.963318,35.9375,1,59550,13258523
22,4,-0.666769,-0.0664686,9.78338,0.0849664,-0.541603,0.953833,-0.00666974,-0.000674582,0.0978336,1,4.91832e-05,-1.06393e-05,2.04352e-05,0.00983663,-0.00212785,0.00408704,0,0,0,0,0.0331726,0.521209,-0.963805,35.9375,1,59551,13258623
23,1,-0.666769,-0.0664686,9.78338,0.0849664,-0.541603,0.953833,-0.00666974,-0.000674582,0.0978336,1,4.91832e-05,-1.06393e-05,2.04352e-05,0.00983663,-0.00212785,0.00408704,0,0,0,0,0.0331726,0.521209,-0.963805,35.9375,1,59551,13258623
23,2,-0.673522,-0.0714577,9.79153,0.078692,-0.545544,0.966118,-0.0067355,-0.000723726,0.0979152,1,4.55659e-05,-1.5794e-06,1.67358e-05,0.00911319,-0.000315881,0.00334716,0,0,0,0,0.033156,0.52074,-0.964825,35.9375,1,59552,13258723
23,3,-0.673522,-0.0714577,9.79153,0.078692,-0.545544,0.966118,-0.0067355,-0.000723726,0.0979152,1,4.55659e-05,-1.5794e-06,1.67358e-05,0.00911319,-0.000315881,0.00334716,0,0,0,0,0.033156,0.52074,-0.964825,35.9375,1,59552,13258723
23,4,-0.699326,-0.0658731,9.79921,0.057154,-0.548002,0.976827,-0.00699374,-0.00067003,0.097992,1,5.62296e-05,-2.56551e-06,1.99021e-05,0.0112459,-0.000513102,0.00398042,0,0,0,0,0.0336941,0.518767,-0.963861,35.9375,1,59553,13258823
24,1,-0.699326,-0.0658731,9.79921,0.057154,-0.548002,0.976827,-0.00699374,-0.00067003,0.097992,1,5.62296e-05,-2.56551e-06,1.99021e-05,0.0112459,-0.000513102,0.00398042,0,0,0,0,0.0336941,0.518767,-0.963861,35.9375,1,59553,13258823
24,2,-0.680047,-0.063378,9.78995,0.0711518,-0.541466,0.965096,-0.00680104,-0.000643534,0.0978993,1,4.94067e-05,-2.94826e-06,5.91191e-06,0.00988134,-0.000589653,0.00118238,0,0,0,0,0.0337353,0.519218,-0.961831,35.9375,1,59554,13258923
24,3,-0.680047,-0.063378,9.78995,0.0711518,-0.541466,0.965096,-0.00680104,-0.000643534,0.0978993,1,4.94067e-05,-2.94826e-06,5.91191e-06,0.00988134,-0.000589653,0.00118238,0,0,0,0,0.0337353,0.519218,-0.961831,35.9375,1,59554,13258923
24,4,-0.67154,-0.0707516,9.78507,0.0802823,-0.546834,0.957119,-0.00671678,-0.000715922,0.0978506,1,4.16394e-05,-7.2047e-06,1.91668e-05,0.00832787,-0.00144094,0.00383336,0,0,0,0,0.0331973,0.521191,-0.962795,35.9375,1,59555,13259023
25,1,-0.67154,-0.0707516,9.78507,0.0802823,-0.546834,0.957119,-0.00671678,-0.000715922,0.0978506,1,4.16394e-05,-7.2047e-06,1.91668e-05,0.00832787,-0.00144094,0.00383336,0,0,0,0,0.0331973,0.521191,-0.962795,35.9375,1,59555,13259023
25,2,-0.680695,-0.0710678,9.78106,0.0779089,-0.546562,0.954199,-0.00680923,-0.0007211,0.0978104,1,5.25116e-05,-1.17797e-05,1.09972e-05,0.0105023,-0.00235594,0.00219944,0,0,0,0,0.0326915,0.521213,-0.963802,35.9375,1,59556,13259123
25,3,-0.680695,-0.0710678,9.78106,0.0779089,-0.546562,0.954199,-0.00680923,-0.0007211,0.0978104,1,5.25116e-05,-1.17797e-05,1.09972e-05,0.0105023,-0.00235594,0.00219944,0,0,0,0,0.0326915,0.521213,-0.963802,35.9375,1,59556,13259123
25,4,-0.684104,-0.0686537,9.7784,0.0672038,-0.548381,0.945273,-0.00684373,-0.000697521,0.0977838,1,5.56801e-05,-1.3778e-05,6.88627e-06,0.011136,-0.00275559,0.00137725,0,0,0,0,0.0331398,0.521715,-0.964803,35.9375,1,59557,13259223
26,1,-0.684104,-0.0686537,9.7784,0.0672038,-0.548381,0.945273,-0.00684373,-0.000697521,0.0977838,1,5.56801e-05,-1.3778e-05,6.88627e-06,0.011136,-0.00275559,0.00137725,0,0,0,0,0.0331398,0.521715,-0.964803,35.9375,1,59557,13259223
26,2,-0.66557,-0.0683609,9.7949,0.0883237,-0.555235,0.970783,-0.00665987,-0.00069461,0.0979486,1,5.56595e-05,-2.13107e-05,7.31821e-06,0.0111319,-0.00426214,0.00146364,0,0,0,0,0.0326507,0.522207,-0.96479,35.9375,1,59558,13259323
26,3,-0.66557,-0.0683609,9.7949,0.0883237,-0.555235,0.970783,-0.00665987,-0.00069461,0.0979486,1,5.56595e-05,-2.13107e-05,7.31821e-06,0.0111319,-0.00426214,0.00146364,0,0,0,0,0.0326507,0.522207,-0.96479,35.9375,1,59558,13259323
26,4,-0.676432,-0.0767842,9.79083,0.0739742,-0.558465,0.962965,-0.00676789,-0.000773771,0.097908,1,2.91075e-05,-1.83657e-05,1.69203e-05,0.0058215,-0.00367315,0.00338406,0,0,0,0,0.0326711,0.52171,-0.964296,35.9375,1,59559,13259423
27,1,-0.676432,-0.0767842,9.79083,0.0739742,-0.558465,0.962965,-0.00676789,-0.000773771,0.097908,1,2.91075e-05,-1.83657e-05,1.69203e-05,0.0058215,-0.00367315,0.00338406,0,0,0,0,0.0326711,0.52171,-0.964296,35.9375,1,59559,13259423
27,2,-0.664656,-0.0602297,9.78072,0.087025,-0.548856,0.949769,-0.00665112,-0.00061376,0.0978068,1,5.74534e-05,-2.34374e-05,1.68681e-05,0.0114907,-0.00468749,0.00337362,0,0,0,0,0.0341059,0.520741,-0.965335,35.9375,1,59560,13259523
27,3,-0.664656,-0.0602297,9.78072,0.087025,-0.548856,0.949769,-0.00665112,-0.00061376,0.0978068,1,5.74534e-05,-2.34374e-05,1.68681e-05,0.0114907,-0.00468749,0.00337362,0,0,0,0,0.0341059,0.520741,-0.965335,35.9375,1,59560,13259523
27,4,-0.658965,-0.0635576,9.77692,0.095735,-0.55143,0.957819,-0.00659229,-0.000646666,0.0977689,1,5.56353e-05,-1.35749e-05,1.60504e-05,0.0111271,-0.00271499,0.00321008,0,0,0,0,0.033156,0.52074,-0.964825,35.9375,1,59561,13259623
28,1,-0.658965,-0.0635576,9.77692,0.095735,-0.55143,0.957819,-0.00659229,-0.000646666,0.0977689,1,5.56353e-05,-1.35749e-05,1.60504e-05,0.0111271,-0.00271499,0.00321008,0,0,0,0,0.033156,0.52074,-0.964825,35.9375,1,59561,13259623
28,2,-0.660151,-0.0742091,9.80125,0.0876488,-0.561044,0.973731,-0.00660303,-0.0007502,0.0980123,1,4.06764e-05,-7.81952e-06,1.0239e-05,0.00813529,-0.0015639,0.0020478,0,0,0,0,0.0331683,0.520731,-0.96432,35.9375,1,59562,13259723
28,3,-0.660151,-0.0742091,9.80125,0.0876488,-0.561044,0.973731,-0.00660303,-0.0007502,0.0980123,1,4.06764e-05,-7.81952e-06,1.0239e-05,0.00813529,-0.0015639,0.0020478,0,0,0,0,0.0331683,0.520731,-0.96432,35.9375,1,59562,13259723
28,4,-0.670898,-0.0827055,9.79854,0.0751158,-0.572519,0.972594,-0.00671148,-0.000837844,0.0979851,1,5.45885e-05,-1.27964e-05,6.80785e-06,0.0109177,-0.00255928,0.00136157,0,0,0,0,0.0326663,0.519786,-0.965854,35.9375,1,59563,13259823
29,1,-0.670898,-0.0827055,9.79854,0.0751158,-0.572519,0.972594,-0.00671148,-0.000837844,0.0979851,1,5.45885e-05,-1.27964e-05,6.80785e-06,0.0109177,-0.00255928,0.00136157,0,0,0,0,0.0326663,0.519786,-0.965854,35.9375,1,59563,13259823
29,2,-0.673598,-0.0638356,9.78379,0.0807819,-0.55224,0.954748,-0.00673771,-0.000648582,0.0978378,1,5.10886e-05,-8.91487e-06,1.69911e-05,0.0102177,-0.00178297,0.00339822,0,0,0,0,0.0326991,0.51928,-0.964855,35.9375,1,59564,13259923
29,3,-0.673598,-0.0638356,9.78379,0.0807819,-0.55224,0.954748,-0.00673771,-0.000648582,0.0978378,1,5.10886e-05,-8.91487e-06,1.69911e-05,0.0102177,-0.00178297,0.00339822,0,0,0,0,0.0326991,0.51928,-0.964855,35.9375,1,59564,13259923
29,4,-0.662699,-0.0608214,9.79256,0.0881629,-0.55496,0.966153,-0.00662892,-0.000617863,0.0979254,1,4.81866e-05,-9.97644e-06,1.59294e-05,0.00963732,-0.00199529,0.00318588,0,0,0,0,0.0331973,0.521191,-0.962795,35.9375,1,59565,13260023
30,1,-0.662699,-0.0608214,9.79256,0.0881629,-0.55496,0.966153,-0.00662892,-0.000617863,0.0979254,1,4.81866e-05,-9.97644e-06,1.59294e-05,0.00963732,-0.00199529,0.00318588,0,0,0,0,0.0331973,0.521191,-0.962795,35.9375,1,59565,13260023
30,2,-0.670541,-0.0625023,9.78954,0.0783015,-0.556332,0.963774,-0.00670606,-0.000635371,0.0978953,1,5.13401e-05,-3.42181e-06,2.21188e-05,0.010268,-0.000684363,0.00442376,0,0,0,0,0.0337439,0.520176,-0.9608,35.9375,1,59566,13260123
30,3,-0.670541,-0.0625023,9.78954,0.0783015,-0.556332,0.963774,-0.00670606,-0.000635371,0.0978953,1,5.13401e-05,-3.42181e-06,2.21188e-05,0.010268,-0.000684363,0.00442376,0,0,0,0,0.0337439,0.520176,-0.9608,35.9375,1,59566,13260123
30,4,-0.665779,-0.0523041,9.79334,0.0848569,-0.542875,0.966338,-0.00665878,-0.00053134,0.0979333,1,4.13471e-05,-5.15589e-06,1.50779e-05,0.00826941,-0.00103118,0.00301557,0,0,0,0,0.0341761,0.521653,-0.961779,35.9375,1,59567,13260223
31,1,-0.665779,-0.0523041,9.79334,0.0848569,-0.542875,0.966338,-0.00665878,-0.00053134,0.0979333,1,4.13471e-05,-5.15589e-06,1.50779e-05,0.00826941,-0.00103118,0.00301557,0,0,0,0,0.0341761,0.521653,-0.961779,35.9375,1,59567,13260223
31,2,-0.658244,-0.0614102,9.78711,0.0968009,-0.558401,0.959992,-0.00658494,-0.000623276,0.0978708,1,4.61117e-05,-1.28781e-05,1.12485e-05,0.00922234,-0.00257562,0.00224969,0,0,0,0,0.0336006,0.522208,-0.9653,35.9375,1,59568,13260323
31,3,-0.658244,-0.0614102,9.78711,0.0968009,-0.558401,0.959992,-0.00658494,-0.000623276,0.0978708,1,4.61117e-05,-1.28781e-05,1.12485e-05,0.00922234,-0.00257562,0.00224969,0,0,0,0,0.0336006,0.522208,-0.9653,35.9375,1,59568,13260323
31,4,-0.668047,-0.0650748,9.78237,0.0867974,-0.560355,0.9552,-0.00667894,-0.000661541,0.0978237,1,5.42774e-05,7.73182e-06,1.3011e-05,0.0108555,0.00154636,0.0026022,0,0,0,0,0.0316799,0.521257,-0.965817,35.9375,1,59569,13260423
32,1,-0.668047,-0.0650748,9.78237,0.0867974,-0.560355,0.9552,-0.00667894,-0.000661541,0.0978237,1,5.42774e-05,7.73182e-06,1.3011e-05,0.0108555,0.00154636,0.0026022,0,0,0,0,0.0316799,0.521257,-0.965817,35.9375,1,59569,13260423
32,2,-0.678721,-0.0624173,9.78079,0.0733188,-0.553913,0.955742,-0.00678856,-0.000634841,0.0978077,1,5.38715e-05,-6.98098e-06,9.55157e-06,0.0107743,-0.0013962,0.00191031,0,0,0,0,0.0312595,0.518326,-0.965375,35.9375,1,59570,13260523
32,3,-0.678721,-0.0624173,9.78079,0.0733188,-0.553913,0.955742,-0.00678856,-0.000634841,0.0978077,1,5.38715e-05,-6.98098e-06,9.55157e-06,0.0107743,-0.0013962,0.00191031,0,0,0,0,0.0312595,0.518326,-0.965375,35.9375,1,59570,13260523
32,4,-0.677112,-0.0790945,9.79386,0.0715571,-0.580552,0.964994,-0.00677381,-0.000799197,0.0979384,1,4.04213e-05,-1.39531e-05,2.47006e-05,0.00808425,-0.00279061,0.00494011,0,0,0,0,0.0322298,0.51783,-0.965391,35.9375,1,59571,13260623
33,1,-0.677112,-0.0790945,9.79386,0.0715571,-0.580552,0.964994,-0.00677381,-0.000799197,0.0979384,1,4.04213e-05,-1.39531e-05,2.47006e-05,0.00808425,-0.00279061,0.00494011,0,0,0,0,0.0322298,0.51783,-0.965391,35.9375,1,59571,13260623
33,2,-0.679091,-0.0611876,9.793,0.0719052,-0.555815,0.967371,-0.00678953,-0.000621681,0.09793,1,4.85965e-05,6.9326e-06,2.11221e-05,0.0097193,0.00138652,0.00422442,0,0,0,0,0.0346197,0.520231,-0.964338,35.9375,1,59572,13260723
33,3,-0.679091,-0.0611876,9.793,0.0719052,-0.555815,0.967371,-0.00678953,-0.000621681,0.09793,1,4.85965e-05,6.9326e-06,2.11221e-05,0.0097193,0.00138652,0.00422442,0,0,0,0,0.0346197,0.520231,-0.964338,35.9375,1,59572,13260723
33,4,-0.686146,-0.0635019,9.76795,0.062572,-0.562606,0.943034,-0.00686576,-0.000644277,0.0976791,1,4.63108e-05,-2.21248e-05,1.53704e-05,0.00926217,-0.00442497,0.00307408,0,0,0,0,0.0345709,0.521712,-0.965315,35.9375,1,59573,13260823
34,1,-0.686146,-0.0635019,9.76795,0.062572,-0.562606,0.943034,-0.00686576,-0.000644277,0.0976791,1,4.63108e-05,-2.21248e-05,1.53704e-05,0.00926217,-0.00442497,0.00307408,0,0,0,0,0.0345709,0.521712,-0.965315,35.9375,1,59573,13260823
34,2,-0.667851,-0.0732664,9.78539,0.0837567,-0.568984,0.954631,-0.00668365,-0.000745271,0.0978534,1,6.35813e-05,-2.63754e-05,1.22521e-05,0.0127163,-0.00527507,0.00245042,0,0,0,0,0.0335797,0.521259,-0.966836,35.9375,1,59574,13260923
34,3,-0.667851,-0.0732664,9.78539,0.0837567,-0.568984,0.954631,-0.00668365,-0.000745271,0.0978534,1,6.35813e-05,-2.63754e-05,1.22521e-05,0.0127163,-0.00527507,0.00245042,0,0,0,0,0.0335797,0.521259,-0.966836,35.9375,1,59574,13260923
34,4,-0.682953,-0.068044,9.79061,0.0651414,-0.569265,0.963106,-0.00683293,-0.000690696,0.0979058,1,4.96972e-05,-1.76802e-05,3.83891e-05,0.00993944,-0.00353604,0.00767783,0,0,0,0,0.0321359,0.519826,-0.967871,35.9375,1,59575,13261023
35,1,-0.682953,-0.068044,9.79061,0.0651414,-0.569265,0.963106,-0.00683293,-0.000690696,0.0979058,1,4.96972e-05,-1.76802e-05,3.83891e-05,0.00993944,-0.00353604,0.00767783,0,0,0,0,0.0321359,0.519826,-0.967871,35.9375,1,59575,13261023
35,2,-0.678881,-0.0636293,9.79469,0.0703569,-0.566186,0.964921,-0.00679262,-0.000647246,0.0979465,1,5.48847e-05,-1.95578e-05,1.48733e-05,0.0109769,-0.00391157,0.00297467,0,0,0,0,0.0322218,0.518318,-0.96538,35.9375,1,59576,13261123
35,3,-0.678881,-0.0636293,9.79469,0.0703569,-0.566186,0.964921,-0.00679262,-0.000647246,0.0979465,1,5.48847e-05,-1.95578e-05,1.48733e-05,0.0109769,-0.00391157,0.00297467,0,0,0,0,0.0322218,0.518318,-0.96538,35.9375,1,59576,13261123
35,4,-0.680637,-0.0661,9.79637,0.068824,-0.565379,0.971381,-0.00680935,-0.000669233,0.0979634,1,4.02814e-05,-1.54135e-05,2.50138e-05,0.00805627,-0.00308269,0.00500276,0,0,0,0,0.0337064,0.518757,-0.963357,35.9375,1,59577,13261223
36,1,-0.680637,-0.0661,9.79637,0.068824,-0.565379,0.971381,-0.00680935,-0.000669233,0.0979634,1,4.02814e-05,-1.54135e-05,2.50138e-05,0.00805627,-0.00308269,0.00500276,0,0,0,0,0.0337064,0.518757,-0.963357,35.9375,1,59577,13261223
36,2,-0.66876,-0.0512333,9.77504,0.0785865,-0.553753,0.95005,-0.00668726,-0.000518284,0.0977504,1,2.96775e-05,1.67271e-06,1.11442e-05,0.0059355,0.000334541,0.00222884,0,0,0,0,0.0341837,0.51972,-0.962832,35.9375,1,59578,13261323
36,3,-0.66876,-0.0512333,9.77504,0.0785865,-0.553753,0.95005,-0.00668726,-0.000518284,0.0977504,1,2.96775e-05,1.67271e-06,1.11442e-05,0.0059355,0.000334541,0.00222884,0,0,0,0,0.0341837,0.51972,-0.962832,35.9375,1,59578,13261323
36,4,-0.664008,-0.062824,9.78611,0.0841948,-0.56851,0.956571,-0.00664253,-0.000637063,0.0978609,1,4.29377e-05,-1.27594e-05,3.15568e-05,0.00858753,-0.00255188,0.00631136,0,0,0,0,0.0327119,0.520717,-0.963308,35.9375,1,59579,13261423
37,1,-0.664008,-0.062824,9.78611,0.0841948,-0.56851,0.956571,-0.00664253,-0.000637063,0.0978609,1,4.29377e-05,-1.27594e-05,3.15568e-05,0.00858753,-0.00255188,0.00631136,0,0,0,0,0.0327119,0.520717,-0.963308,35.9375,1,59579,13261423
37,2,-0.679601,-0.063428,9.79028,0.0711226,-0.569552,0.962753,-0.00679965,-0.000645983,0.0979025,1,5.83863e-05,-1.87423e-05,1.99399e-05,0.0116773,-0.00374845,0.00398797,0,0,0,0,0.031725,0.520743,-0.964313,35.9375,1,59580,13261523
37,3,-0.679601,-0.063428,9.79028,0.0711226,-0.569552,0.962753,-0.00679965,-0.000645983,0.0979025,1,5.83863e-05,-1.87423e-05,1.99399e-05,0.0116773,-0.00374845,0.00398797,0,0,0,0,0.031725,0.520743,-0.964313,35.9375,1,59580,13261523
37,4,-0.681912,-0.0745036,9.78647,0.0654386,-0.581096,0.960293,-0.0068224,-0.000755604,0.0978644,1,5.27818e-05,-1.69201e-05,1.7358e-05,0.0105564,-0.00338402,0.00347161,0,0,0,0,0.0306887,0.520805,-0.967338,35.9375,1,59581,13261623
38,1,-0.681912,-0.0745036,9.78647,0.0654386,-0.581096,0.960293,-0.0068224,-0.000755604,0.0978644,1,5.27818e-05,-1.69201e-05,1.7358e-05,0.0105564,-0.00338402,0.00347161,0,0,0,0,0.0306887,0.520805,-0.967338,35.9375,1,59581,13261623
38,2,-0.662547,-0.0637527,9.7878,0.0846398,-0.572631,0.96093,-0.00662959,-0.00064679,0.0978777,1,4.64319e-05,-2.11579e-05,1.31541e-05,0.00928639,-0.00423158,0.00263082,0,0,0,0,0.0312026,0.520295,-0.966341,35.9375,1,59582,13261723
38,3,-0.662547,-0.0637527,9.7878,0.0846398,-0.572631,0.96093,-0.00662959,-0.00064679,0.0978777,1,4.64319e-05,-2.11579e-05,1.31541e-05,0.00928639,-0.00423158,0.00263082,0,0,0,0,0.0312026,0.520295,-0.966341,35.9375,1,59582,13261723
38,4,-0.646709,-0.0548137,9.78811,0.0995359,-0.565448,0.962098,-0.00646964,-0.000555636,0.0978808,1,3.69307e-05,-1.31576e-05,2.08504e-05,0.00738614,-0.00263153,0.00417009,0,0,0,0,0.0312477,0.51978,-0.964838,35.9375,1,59583,13261823
39,1,-0.646709,-0.0548137,9.78811,0.0995359,-0.565448,0.962098,-0.00646964,-0.000555636,0.0978808,1,3.69307e-05,-1.31576e-05,2.08504e-05,0.00738614,-0.00263153,0.00417009,0,0,0,0,0.0312477,0.51978,-0.964838,35.9375,1,59583,13261823
39,2,-0.664813,-0.0599975,9.7824,0.0878816,-0.566053,0.953324,-0.00664952,-0.000609963,0.0978239,1,5.00288e-05,-7.20099e-06,1.50464e-05,0.0100058,-0.0014402,0.00300928,0,0,0,0,0.0341628,0.518772,-0.964369,35.9375,1,59584,13261923
39,3,-0.664813,-0.0599975,9.7824,0.0878816,-0.566053,0.953324,-0.00664952,-0.000609963,0.0978239,1,5.00288e-05,-7.20099e-06,1.50464e-05,0.0100058,-0.0014402,0.00300928,0,0,0,0,0.0341628,0.518772,-0.964369,35.9375,1,59584,13261923
39,4,-0.688782,-0.0558748,9.79008,0.0656521,-0.564703,0.963221,-0.00689138,-0.000567607,0.0979005,1,4.45097e-05,-1.82374e-05,1.04902e-05,0.00890195,-0.00364748,0.00209804,0,0,0,0,0.0350928,0.520715,-0.96433,35.9375,1,59585,13262023
40,1,-0.688782,-0.0558748,9.79008,0.0656521,-0.564703,0.963221,-0.00689138,-0.000567607,0.0979005,1,4.45097e-05,-1.82374e-05,1.04902e-05,0.00890195,-0.00364748,0.00209804,0,0,0,0,0.0350928,0.520715,-0.96433,35.9375,1,59585,13262023
40,2,-0.697269,-0.073709,9.79133,0.0454847,-0.579649,0.961099,-0.00697444,-0.000745885,0.0979131,1,4.40591e-05,-9.01112e-06,1.19508e-05,0.00881181,-0.00180223,0.00239016,0,0,0,0,0.0345955,0.521694,-0.964306,35.9375,1,59586,13262123
40,3,-0.697269,-0.073709,9.79133,0.0454847,-0.579649,0.961099,-0.00697444,-0.000745885,0.0979131,1,4.40591e-05,-9.01112e-06,1.19508e-05,0.00881181,-0.00180223,0.00239016,0,0,0,0,0.0345955,0.521694,-0.964306,35.9375,1,59586,13262123
40,4,-0.652649,-0.0737753,9.79374,0.0937321,-0.584816,0.963571,-0.00652953,-0.000745272,0.0979372,1,3.70926e-05,-1.56594e-05,1.93585e-05,0.00741853,-0.00313187,0.00387171,0,0,0,0,0.0331275,0.521724,-0.965308,35.9375,1,59587,13262223
41,1,-0.652649,-0.0737753,9.79374,0.0937321,-0.584816,0.963571,-0.00652953,-0.000745272,0.0979372,1,3.70926e-05,-1.56594e-05,1.93585e-05,0.00741853,-0.00313187,0.00387171,0,0,0,0,0.0331275,0.521724,-0.965308,35.9375,1,59587,13262223
41,2,-0.63786,-0.0752383,9.7943,0.111348,-0.586038,0.963742,-0.00637885,-0.000762933,0.0979429,1,5.17664e-05,-1.53479e-06,3.21049e-05,0.0103533,-0.000306958,0.00642098,0,0,0,0,0.0322142,0.520251,-0.964327,35.9375,1,59588,13262323
41,3,-0.63786,-0.0752383,9.7943,0.111348,-0.586038,0.963742,-0.00637885,-0.000762933,0.0979429,1,5.17664e-05,-1.53479e-06,3.21049e-05,0.0103533,-0.000306958,0.00642098,0,0,0,0,0.0322142,0.520251,-0.964327,35.9375,1,59588,13262323
41,4,-0.668705,-0.0663373,9.78815,0.0807872,-0.581639,0.960972,-0.00668971,-0.000671393,0.0978813,1,3.9734e-05,-1.36794e-05,1.80527e-05,0.00794679,-0.00273588,0.00361053,0,0,0,0,0.0341794,0.519241,-0.963348,35.9375,1,59589,13262423
42,1,-0.668705,-0.0663373,9.78815,0.0807872,-0.581639,0.960972,-0.00668971,-0.000671393,0.0978813,1,3.9734e-05,-1.36794e-05,1.80527e-05,0.00794679,-0.00273588,0.00361053,0,0,0,0,0.0341794,0.519241,-0.963348,35.9375,1,59589,13262423
42,2,-0.688545,-0.0557892,9.79278,0.0635709,-0.568561,0.968445,-0.00688663,-0.000568374,0.0979277,1,5.15916e-05,-6.19546e-06,2.74142e-05,0.0103183,-0.00123909,0.00548285,0,0,0,0,0.0351664,0.519215,-0.962343,35.9375,1,59590,13262523
42,3,-0.688545,-0.0557892,9.79278,0.0635709,-0.568561,0.968445,-0.00688663,-0.000568374,0.0979277,1,5.15916e-05,-6.19546e-06,2.74142e-05,0.0103183,-0.00123909,0.00548285,0,0,0,0,0.0351664,0.519215,-0.962343,35.9375,1,59590,13262523
42,4,-0.686053,-0.0580019,9.79547,0.0576372,-0.576397,0.971053,-0.00686334,-0.000589314,0.0979544,1,4.60781e-05,-1.44618e-05,1.95854e-05,0.00921563,-0.00289237,0.00391709,0,0,0,0,0.0336494,0.520727,-0.964323,35.9375,1,59591,13262623
43,1,-0.686053,-0.0580019,9.79547,0.0576372,-0.576397,0.971053,-0.00686334,-0.000589314,0.0979544,1,4.60781e-05,-1.44618e-05,1.95854e-05,0.00921563,-0.00289237,0.00391709,0,0,0,0,0.0336494,0.520727,-0.964323,35.9375,1,59591,13262623
43,2,-0.651705,-0.0636435,9.77346,0.0921767,-0.57881,0.945586,-0.00651698,-0.000644982,0.0977346,1,4.24384e-05,2.58986e-07,1.92861e-05,0.00848768,5.17973e-05,0.00385722,0,0,0,0,0.0321653,0.521732,-0.965304,35.9375,1,59592,13262723
43,3,-0.651705,-0.0636435,9.77346,0.0921767,-0.57881,0.945586,-0.00651698,-0.000644982,0.0977346,1,4.24384e-05,2.58986e-07,1.92861e-05,0.00848768,5.17973e-05,0.00385722,0,0,0,0,0.0321653,0.521732,-0.965304,35.9375,1,59592,13262723
43,4,-0.662896,-0.0818188,9.78662,0.0844178,-0.599466,0.955712,-0.00662999,-0.000829266,0.097866,1,5.54286e-05,-5.39073e-06,1.72536e-05,0.0110857,-0.00107815,0.00345072,0,0,0,0,0.0312149,0.520286,-0.965836,35.9375,1,59593,13262823
44,1,-0.662896,-0.0818188,9.78662,0.0844178,-0.599466,0.955712,-0.00662999,-0.000829266,0.097866,1,5.54286e-05,-5.39073e-06,1.72536e-05,0.0110857,-0.00107815,0.00345072,0,0,0,0,0.0312149,0.520286,-0.965836,35.9375,1,59593,13262823
44,2,-0.671235,-0.0961368,9.7852,0.076933,-0.610592,0.957828,-0.00671429,-0.000973113,0.0978518,1,5.81723e-05,-1.0196e-05,2.68779e-05,0.0116345,-0.0020392,0.00537558,0,0,0,0,0.0322426,0.519266,-0.963844,35.9375,1,59594,13262923
44,3,-0.671235,-0.0961368,9.7852,0.076933,-0.610592,0.957828,-0.00671429,-0.000973113,0.0978518,1,5.81723e-05,-1.0196e-05,2.68779e-05,0.0116345,-0.0020392,0.00537558,0,0,0,0,0.0322426,0.519266,-0.963844,35.9375,1,59594,13262923
44,4,-0.678593,-0.0756918,9.78949,0.070366,-0.593414,0.961807,-0.00678714,-0.00076487,0.0978947,1,3.81637e-05,-6.48752e-06,3.53214e-05,0.00763274,-0.0012975,0.00706428,0,0,0,0,0.0332215,0.519728,-0.962828,35.9375,1,59595,13263023
45,1,-0.678593,-0.0756918,9.78949,0.070366,-0.593414,0.961807,-0.00678714,-0.00076487,0.0978947,1,3.81637e-05,-6.48752e-06,3.53214e-05,0.00763274,-0.0012975,0.00706428,0,0,0,0,0.0332215,0.519728,-0.962828,35.9375,1,59595,13263023
45,2,-0.678401,-0.0635644,9.78755,0.0686646,-0.582718,0.956655,-0.0067842,-0.000645066,0.0978755,1,4.76148e-05,-1.02044e-06,7.4897e-06,0.00952296,-0.000204089,0.00149794,0,0,0,0,0.0346644,0.518271,-0.963877,35.9375,1,59596,13263123
45,3,-0.678401,-0.0635644,9.78755,0.0686646,-0.582718,0.956655,-0.0067842,-0.000645066,0.0978755,1,4.76148e-05,-1.02044e-06,7.4897e-06,0.00952296,-0.000204089,0.00149794,0,0,0,0,0.0346644,0.518271,-0.963877,35.9375,1,59596,13263123
45,4,-0.668807,-0.0644477,9.79121,0.0758936,-0.585057,0.962018,-0.00668877,-0.000655535,0.097912,1,5.53429e-05,-3.69706e-06,1.6529e-05,0.0110686,-0.000739411,0.0033058,0,0,0,0,0.0322142,0.520251,-0.964327,35.9375,1,59597,13263223
46,1,-0.668807,-0.0644477,9.79121,0.0758936,-0.585057,0.962018,-0.00668877,-0.000655535,0.097912,1,5.53429e-05,-3.69706e-06,1.6529e-05,0.0110686,-0.000739411,0.0033058,0,0,0,0,0.0322142,0.520251,-0.964327,35.9375,1,59597,13263223
46,2,-0.672168,-0.0514393,9.77472,0.0760695,-0.567738,0.944327,-0.00672118,-0.000523479,0.0977472,1,4.47761e-05,2.43085e-06,2.46913e-05,0.00895521,0.00048617,0.00493826,0,0,0,0,0.0322061,0.520739,-0.964316,35.9375,1,59598,13263323
46,3,-0.672168,-0.0514393,9.77472,0.0760695,-0.567738,0.944327,-0.00672118,-0.000523479,0.0977472,1,4.47761e-05,2.43085e-06,2.46913e-05,0.00895521,0.00048617,0.00493826,0,0,0,0,0.0322061,0.520739,-0.964316,35.9375,1,59598,13263323
46,4,-0.687504,-0.0578462,9.79276,0.0599567,-0.579204,0.965806,-0.00687742,-0.000589074,0.0979273,1,5.2588e-05,-1.23235e-05,2.27076e-05,0.0105176,-0.0024647,0.00454152,0,0,0,0,0.0326583,0.520274,-0.965843,35.9375,1,59599,13263423
47,1,-0.687504,-0.0578462,9.79276,0.0599567,-0.579204,0.965806,-0.00687742,-0.000589074,0.0979273,1,5.2588e-05,-1.23235e-05,2.27076e-05,0.0105176,-0.0024647,0.00454152,0,0,0,0,0.0326583,0.520274,-0.965843,35.9375,1,59599,13263423
47,2,-0.693695,-0.0752148,9.77738,0.0558053,-0.599994,0.954221,-0.00693819,-0.000761818,0.0977736,1,4.91719e-05,-6.34999e-06,3.93982e-06,0.00983437,-0.00127,0.000787964,0,0,0,0,0.032711,0.517826,-0.965393,35.9375,1,59600,13263523
47,3,-0.693695,-0.0752148,9.77738,0.0558053,-0.599994,0.954221,-0.00693819,-0.000761818,0.0977736,1,4.91719e-05,-6.34999e-06,3.93982e-06,0.00983437,-0.00127,0.000787964,0,0,0,0,0.032711,0.517826,-0.965393,35.9375,1,59600,13263523
47,4,-0.695732,-0.0639703,9.78258,0.0496548,-0.59248,0.953619,-0.00695895,-0.000649512,0.0978256,1,4.89707e-05,-8.42118e-06,1.63598e-05,0.00979415,-0.00168424,0.00327196,0,0,0,0,0.0336817,0.518776,-0.964366,35.9375,1,59601,13263623
48,1,-0.695732,-0.0639703,9.78258,0.0496548,-0.59248,0.953619,-0.00695895,-0.000649512,0.0978256,1,4.89707e-05,-8.42118e-06,1.63598e-05,0.00979415,-0.00168424,0.00327196,0,0,0,0,0.0336817,0.518776,-0.964366,35.9375,1,59601,13263623
48,2,-0.690732,-0.0764439,9.80245,0.0543638,-0.600201,0.972116,-0.00690884,-0.000775472,0.0980243,1,5.4989e-05,-7.90861e-06,1.82336e-05,0.0109978,-0.00158172,0.00364672,0,0,0,0,0.0331726,0.521209,-0.963805,35.9375,1,59602,13263723
48,3,-0.690732,-0.0764439,9.80245,0.0543638,-0.600201,0.972116,-0.00690884,-0.000775472,0.0980243,1,5.4989e-05,-7.90861e-06,1.82336e-05,0.0109978,-0.00158172,0.00364672,0,0,0,0,0.0331726,0.521209,-0.963805,35.9375,1,59602,13263723
48,4,-0.683829,-0.0587701,9.77272,0.0570442,-0.585833,0.949203,-0.00684006,-0.00059714,0.097727,1,4.60411e-05,-9.24828e-06,3.21637e-05,0.00920822,-0.00184966,0.00643275,0,0,0,0,0.033629,0.521223,-0.964817,35.9375,1,59603,13263823
49,1,-0.683829,-0.0587701,9.77272,0.0570442,-0.585833,0.949203,-0.00684006,-0.00059714,0.097727,1,4.60411e-05,-9.24828e-06,3.21637e-05,0.00920822,-0.00184966,0.00643275,0,0,0,0,0.033629,0.521223,-0.964817,35.9375,1,59603,13263823
49,2,-0.686024,-0.0609635,9.79205,0.0579828,-0.587647,0.962373,-0.00686274,-0.00062004,0.0979202,1,5.21021e-05,-1.28428e-05,1.46734e-05,0.0104204,-0.00256857,0.00293468,0,0,0,0,0.0341054,0.519295,-0.966377,35.9375,1,59604,13263923
49,3,-0.686024,-0.0609635,9.79205,0.0579828,-0.587647,0.962373,-0.00686274,-0.00062004,0.0979202,1,5.21021e-05,-1.28428e-05,1.46734e-05,0.0104204,-0.00256857,0.00293468,0,0,0,0,0.0341054,0.519295,-0.966377,35.9375,1,59604,13263923
49,4,-0.686312,-0.0635896,9.79203,0.0570994,-0.595888,0.959604,-0.00686725,-0.000646228,0.0979199,1,5.0571e-05,-2.12766e-05,3.11639e-05,0.0101142,-0.00425531,0.00623279,0,0,0,0,0.0321686,0.51932,-0.966872,35.9375,1,59605,13264023
50,1,-0.686312,-0.0635896,9.79203,0.0570994,-0.595888,0.959604,-0.00686725,-0.000646228,0.0979199,1,5.0571e-05,-2.12766e-05,3.11639e-05,0.0101142,-0.00425531,0.00623279,0,0,0,0,0.0321686,0.51932,-0.966872,35.9375,1,59605,13264023
50,2,-0.700709,-0.0674287,9.79005,0.0461778,-0.593823,0.965342,-0.00701031,-0.000685661,0.0979002,1,5.73118e-05,-1.65307e-05,1.08038e-05,0.0114624,-0.00330613,0.00216076,0,0,0,0,0.0322265,0.520242,-0.963822,35.9375,1,59606,13264123
50,3,-0.700709,-0.0674287,9.79005,0.0461778,-0.593823,0.965342,-0.00701031,-0.000685661,0.0979002,1,5.73118e-05,-1.65307e-05,1.08038e-05,0.0114624,-0.00330613,0.00216076,0,0,0,0,0.0322265,0.520242,-0.963822,35.9375,1,59606,13264123
50,4,-0.674804,-0.0718015,9.79119,0.068555,-0.599026,0.961951,-0.00675015,-0.000726628,0.0979117,1,4.22188e-05,-1.0952e-05,2.56095e-05,0.00844376,-0.0021904,0.00512191,0,0,0,0,0.0307874,0.520733,-0.963299,35.9375,1,59607,13264223
51,1,-0.674804,-0.0718015,9.79119,0.068555,-0.599026,0.961951,-0.00675015,-0.000726628,0.0979117,1,4.22188e-05,-1.0952e-05,2.56095e-05,0.00844376,-0.0021904,0.00512191,0,0,0,0,0.0307874,0.520733,-0.963299,35.9375,1,59607,13264223
51,2,-0.658401,-0.0642713,9.79828,0.0912285,-0.594638,0.968108,-0.00658791,-0.000651497,0.0979825,1,4.30794e-05,-2.00903e-05,2.59391e-05,0.00861588,-0.00401807,0.00518781,0,0,0,0,0.0317743,0.520707,-0.962294,35.9375,1,59608,13264323
51,3,-0.658401,-0.0642713,9.79828,0.0912285,-0.594638,0.968108,-0.00658791,-0.000651497,0.0979825,1,4.30794e-05,-2.00903e-05,2.59391e-05,0.00861588,-0.00401807,0.00518781,0,0,0,0,0.0317743,0.520707,-0.962294,35.9375,1,59608,13264323
51,4,-0.652234,-0.0514426,9.78308,0.0882496,-0.581123,0.953917,-0.00652558,-0.000522494,0.0978305,1,4.0181e-05,-1.66799e-05,1.57357e-05,0.0080362,-0.00333598,0.00314714,0,0,0,0,0.0317582,0.521682,-0.962272,35.9375,1,59609,13264423
52,1,-0.652234,-0.0514426,9.78308,0.0882496,-0.581123,0.953917,-0.00652558,-0.000522494,0.0978305,1,4.0181e-05,-1.66799e-05,1.57357e-05,0.0080362,-0.00333598,0.00314714,0,0,0,0,0.0317582,0.521682,-0.962272,35.9375,1,59609,13264423
52,2,-0.673973,-0.0647464,9.78887,0.071691,-0.596695,0.957931,-0.00673989,-0.000659101,0.0978886,1,5.8284e-05,-9.16256e-07,1.67862e-05,0.0116568,-0.000183251,0.00335724,0,0,0,0,0.0312277,0.521722,-0.964289,35.9375,1,59610,13264523
52,3,-0.673973,-0.0647464,9.78887,0.071691,-0.596695,0.957931,-0.00673989,-0.000659101,0.0978886,1,5.8284e-05,-9.16256e-07,1.67862e-05,0.0116568,-0.000183251,0.00335724,0,0,0,0,0.0312277,0.521722,-0.964289,35.9375,1,59610,13264523
52,4,-0.672349,-0.0744043,9.78777,0.0698132,-0.604572,0.958561,-0.00672745,-0.000754715,0.0978773,1,5.27576e-05,-2.04331e-05,2.5591e-05,0.0105515,-0.00408663,0.00511819,0,0,0,0,0.0316633,0.520788,-0.966837,35.9375,1,59611,13264623
53,1,-0.672349,-0.0744043,9.78777,0.0698132,-0.604572,0.958561,-0.00672745,-0.000754715,0.0978773,1,5.27576e-05,-2.04331e-05,2.5591e-05,0.0105515,-0.00408663,0.00511819,0,0,0,0,0.0316633,0.520788,-0.966837,35.9375,1,59611,13264623
53,2,-0.671244,-0.0680337,9.79529,0.0624106,-0.602304,0.964253,-0.00671778,-0.000690297,0.0979524,1,4.91386e-05,-2.74162e-05,2.4814e-05,0.00982772,-0.00548324,0.0049628,0,0,0,0,0.0326906,0.518323,-0.965887,35.9375,1,59612,13264723
53,3,-0.671244,-0.0680337,9.79529,0.0624106,-0.602304,0.964253,-0.00671778,-0.000690297,0.0979524,1,4.91386e-05,-2.74162e-05,2.4814e-05,0.00982772,-0.00548324,0.0049628,0,0,0,0,0.0326906,0.518323,-0.965887,35.9375,1,59612,13264723
53,4,-0.657304,-0.0641598,9.79181,0.0822219,-0.600251,0.960936,-0.00657399,-0.000650748,0.097918,1,4.50516e-05,-5.022e-06,2.48945e-05,0.00901032,-0.0010044,0.00497891,0,0,0,0,0.0336983,0.519245,-0.963346,35.9375,1,59613,13264823
54,1,-0.657304,-0.0641598,9.79181,0.0822219,-0.600251,0.960936,-0.00657399,-0.000650748,0.097918,1,4.50516e-05,-5.022e-06,2.48945e-05,0.00901032,-0.0010044,0.00497891,0,0,0,0,0.0336983,0.519245,-0.963346,35.9375,1,59613,13264823
54,2,-0.651817,-0.0729037,9.78661,0.0869447,-0.604554,0.954154,-0.00651839,-0.000738383,0.097866,1,4.69647e-05,-1.21816e-06,1.18296e-05,0.00939295,-0.000243631,0.00236593,0,0,0,0,0.0327489,0.52069,-0.961794,35.9375,1,59614,13264923
54,3,-0.651817,-0.0729037,9.78661,0.0869447,-0.604554,0.954154,-0.00651839,-0.000738383,0.097866,1,4.69647e-05,-1.21816e-06,1.18296e-05,0.00939295,-0.000243631,0.00236593,0,0,0,0,0.0327489,0.52069,-0.961794,35.9375,1,59614,13264923
54,4,-0.650394,-0.0637707,9.79348,0.0880201,-0.603952,0.962821,-0.00650553,-0.000646606,0.0979346,1,4.48823e-05,-8.18991e-06,8.33714e-06,0.00897647,-0.00163798,0.00166743,0,0,0,0,0.031762,0.520716,-0.962799,35.9375,1,59615,13265023
55,1,-0.650394,-0.0637707,9.79348,0.0880201,-0.603952,0.962821,-0.00650553,-0.000646606,0.0979346,1,4.48823e-05,-8.18991e-06,8.33714e-06,0.00897647,-0.00163798,0.00166743,0,0,0,0,0.031762,0.520716,-0.962799,35.9375,1,59615,13265023
55,2,-0.665916,-0.0555722,9.78923,0.0732731,-0.588613,0.957305,-0.00665917,-0.000563778,0.0978923,1,4.01325e-05,-1.45097e-07,1.48789e-05,0.0080265,-2.90194e-05,0.00297578,0,0,0,0,0.0327361,0.519253,-0.963341,35.9375,1,59616,13265123
55,3,-0.665916,-0.0555722,9.78923,0.0732731,-0.588613,0.957305,-0.00665917,-0.000563778,0.0978923,1,4.01325e-05,-1.45097e-07,1.48789e-05,0.0080265,-2.90194e-05,0.00297578,0,0,0,0,0.0327361,0.519253,-0.963341,35.9375,1,59616,13265123
55,4,-0.664627,-0.068298,9.79488,0.0702927,-0.602625,0.965043,-0.00664901,-0.000693991,0.0979486,1,5.54398e-05,-1.40348e-05,1.13828e-05,0.011088,-0.00280695,0.00227655,0,0,0,0,0.0307789,0.519775,-0.964331,35.9375,1,59617,13265223
56,1,-0.664627,-0.068298,9.79488,0.0702927,-0.602625,0.965043,-0.00664901,-0.000693991,0.0979486,1,5.54398e-05,-1.40348e-05,1.13828e-05,0.011088,-0.00280695,0.00227655,0,0,0,0,0.0307789,0.519775,-0.964331,35.9375,1,59617,13265223
56,2,-0.658816,-0.0676935,9.79825,0.0806726,-0.600733,0.966044,-0.00659059,-0.0006847,0.0979822,1,3.8337e-05,-1.25765e-05,1.91313e-05,0.00766739,-0.00251529,0.00382626,0,0,0,0,0.0317369,0.519288,-0.964851,35.9375,1,59618,13265323
56,3,-0.658816,-0.0676935,9.79825,0.0806726,-0.600733,0.966044,-0.00659059,-0.0006847,0.0979822,1,3.8337e-05,-1.25765e-05,1.91313e-05,0.00766739,-0.00251529,0.00382626,0,0,0,0,0.0317369,0.519288,-0.964851,35.9375,1,59618,13265323
56,4,-0.666439,-0.061491,9.78512,0.065942,-0.597628,0.952062,-0.00666576,-0.000623622,0.0978511,1,4.33438e-05,-7.10226e-06,1.71977e-05,0.00866876,-0.00142045,0.00343953,0,0,0,0,0.0331925,0.519267,-0.964353,35.9375,1,59619,13265423
57,1,-0.666439,-0.061491,9.78512,0.065942,-0.597628,0.952062,-0.00666576,-0.000623622,0.0978511,1,4.33438e-05,-7.10226e-06,1.71977e-05,0.00866876,-0.00142045,0.00343953,0,0,0,0,0.0331925,0.519267,-0.964353,35.9375,1,59619,13265423
57,2,-0.680006,-0.0594089,9.79134,0.0521392,-0.599844,0.96466,-0.00680098,-0.000604965,0.0979133,1,5.3946e-05,-4.86739e-06,2.29213e-05,0.0107892,-0.000973478,0.00458427,0,0,0,0,0.033723,0.519227,-0.962336,35.9375,1,59620,13265523
57,3,-0.680006,-0.0594089,9.79134,0.0521392,-0.599844,0.96466,-0.00680098,-0.000604965,0.0979133,1,5.3946e-05,-4.86739e-06,2.29213e-05,0.0107892,-0.000973478,0.00458427,0,0,0,0,0.033723,0.519227,-0.962336,35.9375,1,59620,13265523
57,4,-0.667435,-0.0710485,9.78742,0.0660565,-0.610528,0.959478,-0.00667667,-0.000718058,0.0978739,1,3.7847e-05,-1.19729e-05,1.23422e-05,0.0075694,-0.00239458,0.00246845,0,0,0,0,0.0327242,0.520708,-0.962804,35.9375,1,59621,13265623
58,1,-0.667435,-0.0710485,9.78742,0.0660565,-0.610528,0.959478,-0.00667667,-0.000718058,0.0978739,1,3.7847e-05,-1.19729e-05,1.23422e-05,0.0075694,-0.00239458,0.00246845,0,0,0,0,0.0327242,0.520708,-0.962804,35.9375,1,59621,13265623
58,2,-0.672731,-0.0662114,9.78887,0.0566341,-0.605872,0.960093,-0.00673118,-0.000672546,0.0978883,1,5.1979e-05,-1.99227e-05,1.89581e-05,0.0103958,-0.00398454,0.00379161,0,0,0,0,0.033156,0.52074,-0.964825,35.9375,1,59622,13265723
58,3,-0.672731,-0.0662114,9.78887,0.0566341,-0.605872,0.960093,-0.00673118,-0.000672546,0.0978883,1,5.1979e-05,-1.99227e-05,1.89581e-05,0.0103958,-0.00398454,0.00379161,0,0,0,0,0.033156,0.52074,-0.964825,35.9375,1,59622,13265723
58,4,-0.67884,-0.0740287,9.79629,0.0518928,-0.61234,0.969146,-0.00679115,-0.000748992,0.0979626,1,4.38225e-05,-1.41076e-05,8.80472e-06,0.0087645,-0.00282151,0.00176094,0,0,0,0,0.0326459,0.520283,-0.966348,35.9375,1,59623,13265823
59,1,-0.67884,-0.0740287,9.79629,0.0518928,-0.61234,0.969146,-0.00679115,-0.000748992,0.0979626,1,4.38225e-05,-1.41076e-05,8.80472e-06,0.0087645,-0.00282151,0.00176094,0,0,0,0,0.0326459,0.520283,-0.966348,35.9375,1,59623,13265823
59,2,-0.676849,-0.0622713,9.78079,0.0484124,-0.597467,0.951864,-0.00677401,-0.000635524,0.0978074,1,6.40192e-05,-2.83455e-05,2.12474e-05,0.0128038,-0.0056691,0.00424948,0,0,0,0,0.0331721,0.519764,-0.964847,35.9375,1,59624,13265923
59,3,-0.676849,-0.0622713,9.78079,0.0484124,-0.597467,0.951864,-0.00677401,-0.000635524,0.0978074,1,6.40192e-05,-2.83455e-05,2.12474e-05,0.0128038,-0.0056691,0.00424948,0,0,0,0,0.0331721,0.519764,-0.964847,35.9375,1,59624,13265923
59,4,-0.694762,-0.0777818,9.78959,0.0200865,-0.616212,0.963904,-0.00695111,-0.000786391,0.0978956,1,4.24217e-05,-1.79616e-05,1.92672e-05,0.00848434,-0.00359232,0.00385344,0,0,0,0,0.0317535,0.519758,-0.96383,35.9375,1,59625,13266023
60,1,-0.694762,-0.0777818,9.78959,0.0200865,-0.616212,0.963904,-0.00695111,-0.000786391,0.0978956,1,4.24217e-05,-1.79616e-05,1.92672e-05,0.00848434,-0.00359232,0.00385344,0,0,0,0,0.0317535,0.519758,-0.96383,35.9375,1,59625,13266023
60,2,-0.687816,-0.0605596,9.78663,0.0265373,-0.596418,0.958973,-0.00688118,-0.000616123,0.0978661,1,5.32754e-05,-1.5484e-05,7.21023e-06,0.0106551,-0.00309681,0.00144205,0,0,0,0,0.0322184,0.52073,-0.963811,35.9375,1,59626,13266123
60,3,-0.687816,-0.0605596,9.78663,0.0265373,-0.596418,0.958973,-0.00688118,-0.000616123,0.0978661,1,5.32754e-05,-1.5484e-05,7.21023e-06,0.0106551,-0.00309681,0.00144205,0,0,0,0,0.0322184,0.52073,-0.963811,35.9375,1,59626,13266123
60,4,-0.683322,-0.0647202,9.79301,0.0290041,-0.605943,0.963016,-0.00683491,-0.000656477,0.0979299,1,4.56386e-05,-8.81224e-06,2.4542e-05,0.00912772,-0.00176245,0.00490841,0,0,0,0,0.0335963,0.521729,-0.965815,35.9375,1,59627,13266223
61,1,-0.683322,-0.0647202,9.79301,0.0290041,-0.605943,0.963016,-0.00683491,-0.000656477,0.0979299,1,4.56386e-05,-8.81224e-06,2.4542e-05,0.00912772,-0.00176245,0.00490841,0,0,0,0,0.0335963,0.521729,-0.965815,35.9375,1,59627,13266223
61,2,-0.689116,-0.0719649,9.78417,0.0148478,-0.611082,0.956322,-0.00689377,-0.000727229,0.0978414,1,3.8186e-05,-1.33944e-05,7.84543e-06,0.00763721,-0.00267888,0.00156909,0,0,0,0,0.0341059,0.520741,-0.965335,35.9375,1,59628,13266323
61,3,-0.689116,-0.0719649,9.78417,0.0148478,-0.611082,0.956322,-0.00689377,-0.000727229,0.0978414,1,3.8186e-05,-1.33944e-05,7.84543e-06,0.00763721,-0.00267888,0.00156909,0,0,0,0,0.0341059,0.520741,-0.965335,35.9375,1,59628,13266323
61,4,-0.679542,-0.0748134,9.7929,0.0168786,-0.615424,0.965404,-0.00679737,-0.000758752,0.0979287,1,5.30406e-05,-1.01143e-05,1.68309e-05,0.0106081,-0.00202287,0.00336617,0,0,0,0,0.0331356,0.521236,-0.965319,35.9375,1,59629,13266423
62,1,-0.679542,-0.0748134,9.7929,0.0168786,-0.615424,0.965404,-0.00679737,-0.000758752,0.0979287,1,5.30406e-05,-1.01143e-05,1.68309e-05,0.0106081,-0.00202287,0.00336617,0,0,0,0,0.0331356,0.521236,-0.965319,35.9375,1,59629,13266423
62,2,-0.693819,-0.0658175,9.79104,-0.00306236,-0.599938,0.964404,-0.006942,-0.00066672,0.0979101,1,4.25503e-05,-1.9552e-05,1.53147e-05,0.00851006,-0.00391041,0.00306294,0,0,0,0,0.0336248,0.520745,-0.965332,35.9375,1,59630,13266523
62,3,-0.693819,-0.0658175,9.79104,-0.00306236,-0.599938,0.964404,-0.006942,-0.00066672,0.0979101,1,4.25503e-05,-1.9552e-05,1.53147e-05,0.00851006,-0.00391041,0.00306294,0,0,0,0,0.0336248,0.520745,-0.965332,35.9375,1,59630,13266523
62,4,-0.689556,-0.0686032,9.77775,-0.00147906,-0.60588,0.950895,-0.00689781,-0.000699395,0.0977773,1,6.63269e-05,-1.16881e-05,2.84091e-05,0.0132654,-0.00233763,0.00568183,0,0,0,0,0.0322341,0.518309,-0.964875,35.9375,1,59631,13266623
63,1,-0.689556,-0.0686032,9.77775,-0.00147906,-0.60588,0.950895,-0.00689781,-0.000699395,0.0977773,1,6.63269e-05,-1.16881e-05,2.84091e-05,0.0132654,-0.00233763,0.00568183,0,0,0,0,0.0322341,0.518309,-0.964875,35.9375,1,59631,13266623
63,2,-0.671644,-0.0727906,9.79355,0.0141564,-0.612513,0.960715,-0.00672046,-0.000737287,0.0979351,1,4.67786e-05,-2.06751e-05,1.62777e-05,0.00935571,-0.00413501,0.00325554,0,0,0,0,0.0317164,0.519785,-0.965345,35.9375,1,59632,13266723
63,3,-0.671644,-0.0727906,9.79355,0.0141564,-0.612513,0.960715,-0.00672046,-0.000737287,0.0979351,1,4.67786e-05,-2.06751e-05,1.62777e-05,0.00935571,-0.00413501,0.00325554,0,0,0,0,0.0317164,0.519785,-0.965345,35.9375,1,59632,13266723
63,4,-0.672257,-0.0715238,9.79797,0.0235279,-0.610243,0.969705,-0.00672718,-0.000723428,0.0979794,1,4.16935e-05,-2.35605e-05,1.45106e-06,0.0083387,-0.0047121,0.000290213,0,0,0,0,0.0336333,0.521702,-0.964301,35.9375,1,59633,13266823
64,1,-0.672257,-0.0715238,9.79797,0.0235279,-0.610243,0.969705,-0.00672718,-0.000723428,0.0979794,1,4.16935e-05,-2.35605e-05,1.45106e-06,0.0083387,-0.0047121,0.000290213,0,0,0,0,0.0336333,0.521702,-0.964301,35.9375,1,59633,13266823
64,2,-0.674197,-0.0604909,9.78417,0.0164441,-0.59428,0.956283,-0.00674661,-0.000614303,0.0978413,1,4.6758e-05,-2.38492e-05,1.81199e-05,0.0093516,-0.00476985,0.00362399,0,0,0,0,0.0341182,0.520732,-0.96483,35.9375,1,59634,13266923
64,3,-0.674197,-0.0604909,9.78417,0.0164441,-0.59428,0.956283,-0.00674661,-0.000614303,0.0978413,1,4.6758e-05,-2.38492e-05,1.81199e-05,0.0093516,-0.00476985,0.00362399,0,0,0,0,0.0341182,0.520732,-0.96483,35.9375,1,59634,13266923
64,4,-0.68066,-0.0584623,9.78356,0.00626754,-0.597687,0.954939,-0.00681063,-0.000593086,0.0978352,1,4.15091e-05,-2.07497e-05,2.50415e-05,0.00830182,-0.00414994,0.00500829,0,0,0,0,0.0321487,0.521262,-0.966324,35.9375,1,59635,13267023
65,1,-0.68066,-0.0584623,9.78356,0.00626754,-0.597687,0.954939,-0.00681063,-0.000593086,0.0978352,1,4.15091e-05,-2.07497e-05,2.50415e-05,0.00830182,-0.00414994,0.00500829,0,0,0,0,0.0321487,0.521262,-0.966324,35.9375,1,59635,13267023
65,2,-0.675834,-0.071058,9.79528,0.0189092,-0.615625,0.965508,-0.00676096,-0.000721558,0.0979525,1,5.53242e-05,-1.34668e-05,1.03286e-05,0.0110648,-0.00269336,0.00206572,0,0,0,0,0.0336694,0.518785,-0.964871,35.9375,1,59636,13267123
65,3,-0.675834,-0.071058,9.79528,0.0189092,-0.615625,0.965508,-0.00676096,-0.000721558,0.0979525,1,5.53242e-05,-1.34668e-05,1.03286e-05,0.0110648,-0.00269336,0.00206572,0,0,0,0,0.0336694,0.518785,-0.964871,35.9375,1,59636,13267123
65,4,-0.667316,-0.0595079,9.78583,0.0223366,-0.603551,0.952774,-0.00667796,-0.000603398,0.097858,1,4.19431e-05,-2.45628e-05,8.22693e-06,0.00838862,-0.00491256,0.00164539,0,0,0,0,0.0341709,0.518284,-0.964379,35.9375,1,59637,13267223
66,1,-0.667316,-0.0595079,9.78583,0.0223366,-0.603551,0.952774,-0.00667796,-0.000603398,0.097858,1,4.19431e-05,-2.45628e-05,8.22693e-06,0.00838862,-0.00491256,0.00164539,0,0,0,0,0.0341709,0.518284,-0.964379,35.9375,1,59637,13267223
66,2,-0.663829,-0.0723073,9.78706,0.0228278,-0.615936,0.954966,-0.00664237,-0.000733661,0.0978702,1,5.25675e-05,-2.09961e-05,2.24781e-05,0.0105135,-0.00419922,0.00449563,0,0,0,0,0.0341424,0.519268,-0.964862,35.9375,1,59638,13267323
66,3,-0.663829,-0.0723073,9.78706,0.0228278,-0.615936,0.954966,-0.00664237,-0.000733661,0.0978702,1,5.25675e-05,-2.09961e-05,2.24781e-05,0.0105135,-0.00419922,0.00449563,0,0,0,0,0.0341424,0.519268,-0.964862,35.9375,1,59638,13267323
66,4,-0.66007,-0.0493861,9.78959,0.0309163,-0.592436,0.959693,-0.00660263,-0.000502936,0.0978958,1,4.54187e-05,-9.89831e-06,1.38004e-05,0.00908373,-0.00197966,0.00276009,0,0,0,0,0.0335963,0.521729,-0.965815,35.9375,1,59639,13267423
67,1,-0.66007,-0.0493861,9.78959,0.0309163,-0.592436,0.959693,-0.00660263,-0.000502936,0.0978958,1,4.54187e-05,-9.89831e-06,1.38004e-05,0.00908373,-0.00197966,0.00276009,0,0,0,0,0.0335963,0.521729,-0.965815,35.9375,1,59639,13267423
67,2,-0.658934,-0.0670993,9.79045,0.0278984,-0.606478,0.95944,-0.0065911,-0.000682255,0.0979043,1,5.65908e-05,-9.10467e-06,1.37838e-05,0.0113182,-0.00182093,0.00275677,0,0,0,0,0.0335963,0.521729,-0.965815,35.9375,1,59640,13267523
67,3,-0.658934,-0.0670993,9.79045,0.0278984,-0.606478,0.95944,-0.0065911,-0.000682255,0.0979043,1,5.65908e-05,-9.10467e-06,1.37838e-05,0.0113182,-0.00182093,0.00275677,0,0,0,0,0.0335963,0.521729,-0.965815,35.9375,1,59640,13267523
67,4,-0.662005,-0.0652932,9.78641,0.0310121,-0.609491,0.956446,-0.0066216,-0.000660833,0.097864,1,3.94006e-05,-7.99431e-06,1.42436e-05,0.00788012,-0.00159886,0.00284872,0,0,0,0,0.0331593,0.518328,-0.966394,35.9375,1,59641,13267623
68,1,-0.662005,-0.0652932,9.78641,0.0310121,-0.609491,0.956446,-0.0066216,-0.000660833,0.097864,1,3.94006e-05,-7.99431e-06,1.42436e-05,0.00788012,-0.00159886,0.00284872,0,0,0,0,0.0331593,0.518328,-0.966394,35.9375,1,59641,13267623
68,2,-0.664029,-0.0679125,9.7837,0.0236525,-0.610291,0.956741,-0.00664277,-0.000688201,0.0978367,1,4.5646e-05,-1.27273e-05,1.08444e-05,0.0091292,-0.00254547,0.00216888,0,0,0,0,0.0327356,0.517808,-0.964383,35.9375,1,59642,13267723
68,3,-0.664029,-0.0679125,9.7837,0.0236525,-0.610291,0.956741,-0.00664277,-0.000688201,0.0978367,1,4.5646e-05,-1.27273e-05,1.08444e-05,0.0091292,-0.00254547,0.00216888,0,0,0,0,0.0327356,0.517808,-0.964383,35.9375,1,59642,13267723
68,4,-0.666983,-0.0774939,9.78872,0.0181689,-0.622318,0.958469,-0.0066716,-0.000784633,0.097887,1,4.88125e-05,-9.13999e-06,1.02893e-05,0.0097625,-0.001828,0.00205786,0,0,0,0,0.0317739,0.519261,-0.963336,35.9375,1,59643,13267823
69,1,-0.666983,-0.0774939,9.78872,0.0181689,-0.622318,0.958469,-0.0066716,-0.000784633,0.097887,1,4.88125e-05,-9.13999e-06,1.02893e-05,0.0097625,-0.001828,0.00205786,0,0,0,0,0.0317739,0.519261,-0.963336,35.9375,1,59643,13267823
69,2,-0.676056,-0.0657773,9.7726,0.0126213,-0.60931,0.937574,-0.00676184,-0.000667514,0.0977258,1,4.9634e-05,-6.57305e-06,2.95039e-06,0.00992679,-0.00131461,0.000590078,0,0,0,0,0.0327323,0.52022,-0.962815,35.9375,1,59644,13267923
69,3,-0.676056,-0.0657773,9.7726,0.0126213,-0.60931,0.937574,-0.00676184,-0.000667514,0.0977258,1,4.9634e-05,-6.57305e-06,2.95039e-06,0.00992679,-0.00131461,0.000590078,0,0,0,0,0.0327323,0.52022,-0.962815,35.9375,1,59644,13267923
69,4,-0.663371,-0.0559026,9.78821,0.0282182,-0.603062,0.954733,-0.0066363,-0.000569293,0.0978818,1,5.07534e-05,-1.33977e-05,2.49817e-05,0.0101507,-0.00267954,0.00499635,0,0,0,0,0.0327119,0.520717,-0.963308,35.9375,1,59645,13268023
70,1,-0.663371,-0.0559026,9.78821,0.0282182,-0.603062,0.954733,-0.0066363,-0.000569293,0.0978818,1,5.07534e-05,-1.33977e-05,2.49817e-05,0.0101507,-0.00267954,0.00499635,0,0,0,0,0.0327119,0.520717,-0.963308,35.9375,1,59645,13268023
70,2,-0.681818,-0.0637817,9.80082,0.0120159,-0.61116,0.967086,-0.00682278,-0.000646668,0.0980078,1,4.40033e-05,-2.36051e-05,1.65886e-05,0.00880065,-0.00472103,0.00331772,0,0,0,0,0.0322265,0.520242,-0.963822,35.9375,1,59646,13268123
70,3,-0.681818,-0.0637817,9.80082,0.0120159,-0.61116,0.967086,-0.00682278,-0.000646668,0.0980078,1,4.40033e-05,-2.36051e-05,1.65886e-05,0.00880065,-0.00472103,0.00331772,0,0,0,0,0.0322265,0.520242,-0.963822,35.9375,1,59646,13268123
70,4,-0.684255,-0.0646554,9.7764,0.00953896,-0.611147,0.944889,-0.00684354,-0.000654012,0.0977638,1,3.67797e-05,-5.20231e-06,1.94369e-05,0.00735594,-0.00104046,0.00388738,0,0,0,0,0.0326953,0.520247,-0.964329,35.9375,1,59647,13268223
71,1,-0.684255,-0.0646554,9.7764,0.00953896,-0.611147,0.944889,-0.00684354,-0.000654012,0.0977638,1,3.67797e-05,-5.20231e-06,1.94369e-05,0.00735594,-0.00104046,0.00388738,0,0,0,0,0.0326953,0.520247,-0.964329,35.9375,1,59647,13268223
71,2,-0.683939,-0.056874,9.78835,0.00227636,-0.60624,0.954993,-0.00684552,-0.000576594,0.097883,1,3.91789e-05,-3.13986e-05,1.34371e-05,0.00783578,-0.00627972,0.00268742,0,0,0,0,0.0322384,0.518788,-0.964359,35.9375,1,59648,13268323
71,3,-0.683939,-0.056874,9.78835,0.00227636,-0.60624,0.954993,-0.00684552,-0.000576594,0.097883,1,3.91789e-05,-3.13986e-05,1.34371e-05,0.00783578,-0.00627972,0.00268742,0,0,0,0,0.0322384,0.518788,-0.964359,35.9375,1,59648,13268323
71,4,-0.66226,-0.0665881,9.79048,0.0256469,-0.619888,0.962976,-0.00662616,-0.000675112,0.0979045,1,4.55919e-05,-1.83675e-05,2.29238e-05,0.00911838,-0.00367349,0.00458475,0,0,0,0,0.0312681,0.519283,-0.964344,35.9375,1,59649,13268423
72,1,-0.66226,-0.0665881,9.79048,0.0256469,-0.619888,0.962976,-0.00662616,-0.000675112,0.0979045,1,4.55919e-05,-1.83675e-05,2.29238e-05,0.00911838,-0.00367349,0.00458475,0,0,0,0,0.0312681,0.519283,-0.964344,35.9375,1,59649,13268423
72,2,-0.666391,-0.0610772,9.78513,0.0291195,-0.608684,0.953668,-0.00666745,-0.000619075,0.097851,1,4.14959e-05,-1.8187e-05,1.36813e-05,0.00829917,-0.00363741,0.00273626,0,0,0,0,0.032218,0.519284,-0.964853,35.9375,1,59650,13268523
72,3,-0.666391,-0.0610772,9.78513,0.0291195,-0.608684,0.953668,-0.00666745,-0.000619075,0.097851,1,4.14959e-05,-1.8187e-05,1.36813e-05,0.00829917,-0.00363741,0.00273626,0,0,0,0,0.032218,0.519284,-0.964853,35.9375,1,59650,13268523
72,4,-0.668885,-0.0708537,9.78982,0.0235788,-0.618402,0.958242,-0.00669237,-0.000716046,0.0978979,1,3.73686e-05,-1.80622e-05,1.4353e-05,0.00747371,-0.00361243,0.00287061,0,0,0,0,0.0326744,0.519298,-0.965865,35.9375,1,59651,13268623
73,1,-0.668885,-0.0708537,9.78982,0.0235788,-0.618402,0.958242,-0.00669237,-0.000716046,0.0978979,1,3.73686e-05,-1.80622e-05,1.4353e-05,0.00747371,-0.00361243,0.00287061,0,0,0,0,0.0326744,0.519298,-0.965865,35.9375,1,59651,13268623
73,2,-0.668775,-0.0640039,9.78749,0.0220235,-0.613649,0.958377,-0.00669011,-0.000652119,0.0978746,1,6.01634e-05,-1.21893e-05,2.26797e-05,0.0120327,-0.00243786,0.00453594,0,0,0,0,0.0331475,0.519782,-0.965857,35.9375,1,59652,13268723
73,3,-0.668775,-0.0640039,9.78749,0.0220235,-0.613649,0.958377,-0.00669011,-0.000652119,0.0978746,1,6.01634e-05,-1.21893e-05,2.26797e-05,0.0120327,-0.00243786,0.00453594,0,0,0,0,0.0331475,0.519782,-0.965857,35.9375,1,59652,13268723
73,4,-0.664145,-0.0553826,9.78855,0.0286762,-0.607942,0.959997,-0.00664256,-0.00056262,0.0978854,1,4.3666e-05,-5.81339e-06,1.85054e-05,0.0087332,-0.00116268,0.00370108,0,0,0,0,0.0331437,0.520749,-0.96533,35.9375,1,59653,13268823
74,1,-0.664145,-0.0553826,9.78855,0.0286762,-0.607942,0.959997,-0.00664256,-0.00056262,0.0978854,1,4.3666e-05,-5.81339e-06,1.85054e-05,0.0087332,-0.00116268,0.00370108,0,0,0,0,0.0331437,0.520749,-0.96533,35.9375,1,59653,13268823
74,2,-0.659318,-0.0595448,9.79458,0.0311089,-0.609548,0.964676,-0.00659433,-0.000602426,0.0979457,1,3.52915e-05,-5.88234e-06,4.86338e-06,0.0070583,-0.00117647,0.000972677,0,0,0,0,0.0332091,0.519737,-0.963333,35.9375,1,59654,13268923
74,3,-0.659318,-0.0595448,9.79458,0.0311089,-0.609548,0.964676,-0.00659433,-0.000602426,0.0979457,1,3.52915e-05,-5.88234e-06,4.86338e-06,0.0070583,-0.00117647,0.000972677,0,0,0,0,0.0332091,0.519737,-0.963333,35.9375,1,59654,13268923
74,4,-0.661279,-0.0717178,9.79043,0.0324209,-0.623912,0.958812,-0.00661326,-0.000726875,0.0979041,1,4.78551e-05,-2.5779e-06,2.47451e-05,0.00957103,-0.000515579,0.00494903,0,0,0,0,0.0322469,0.519745,-0.963328,35.9375,1,59655,13269023
75,1,-0.661279,-0.0717178,9.79043,0.0324209,-0.623912,0.958812,-0.00661326,-0.000726875,0.0979041,1,4.78551e-05,-2.5779e-06,2.47451e-05,0.00957103,-0.000515579,0.00494903,0,0,0,0,0.0322469,0.519745,-0.963328,35.9375,1,59655,13269023
75,2,-0.654772,-0.0614767,9.79929,0.0396546,-0.617624,0.962494,-0.00655064,-0.000624254,0.0979927,1,4.74937e-05,-1.49981e-05,1.36868e-05,0.00949874,-0.00299962,0.00273736,0,0,0,0,0.033193,0.520713,-0.963311,35.9375,1,59656,13269123
75,3,-0.654772,-0.0614767,9.79929,0.0396546,-0.617624,0.962494,-0.00655064,-0.000624254,0.0979927,1,4.74937e-05,-1.49981e-05,1.36868e-05,0.00949874,-0.00299962,0.00273736,0,0,0,0,0.033193,0.520713,-0.963311,35.9375,1,59656,13269123
75,4,-0.649417,-0.0642186,9.79654,0.0451293,-0.618186,0.963609,-0.00650043,-0.000649478,0.0979649,1,3.57034e-05,-3.21269e-05,2.28377e-05,0.00714068,-0.00642537,0.00456754,0,0,0,0,0.0331726,0.521209,-0.963805,35.9375,1,59657,13269223
76,1,-0.649417,-0.0642186,9.79654,0.0451293,-0.618186,0.963609,-0.00650043,-0.000649478,0.0979649,1,3.57034e-05,-3.21269e-05,2.28377e-05,0.00714068,-0.00642537,0.00456754,0,0,0,0,0.0331726,0.521209,-0.963805,35.9375,1,59657,13269223
76,2,-0.651401,-0.0627025,9.78129,0.0384728,-0.619857,0.947057,-0.00651714,-0.000635465,0.0978126,1,4.1539e-05,-1.61323e-05,2.40856e-05,0.0083078,-0.00322647,0.00481713,0,0,0,0,0.0321444,0.520784,-0.96684,35.9375,1,59658,13269323
76,3,-0.651401,-0.0627025,9.78129,0.0384728,-0.619857,0.947057,-0.00651714,-0.000635465,0.0978126,1,4.1539e-05,-1.61323e-05,2.40856e-05,0.0083078,-0.00322647,0.00481713,0,0,0,0,0.0321444,0.520784,-0.96684,35.9375,1,59658,13269323
76,4,-0.644316,-0.0617929,9.78023,0.0476978,-0.618042,0.94583,-0.00644569,-0.000627181,0.097802,1,4.5661e-05,-1.31202e-05,2.49222e-05,0.00913219,-0.00262404,0.00498444,0,0,0,0,0.0306679,0.519856,-0.968874,35.9375,1,59659,13269423
76,5,-0.644316,-0.0617929,9.78023,0.0476978,-0.618042,0.94583,-0.00644569,-0.000627181,0.097802,1,4.5661e-05,-1.31202e-05,2.49222e-05,0.00913219,-0.00262404,0.00498444,0,0,0,0,0.0306679,0.519856,-0.968874,35.9375,1,59659,13269423
76,6,-0.660091,-0.0649081,9.80032,0.0323178,-0.619008,0.970416,-0.00660467,-0.000658214,0.0980029,1,4.55865e-05,-1.93042e-05,1.49719e-05,0.0091173,-0.00386083,0.00299438,0,0,0,0,0.0326659,0.518341,-0.966896,35.9375,1,59660,13269523
77,1,-0.660091,-0.0649081,9.80032,0.0323178,-0.619008,0.970416,-0.00660467,-0.000658214,0.0980029,1,4.55865e-05,-1.93042e-05,1.49719e-05,0.0091173,-0.00386083,0.00299438,0,0,0,0,0.0326659,0.518341,-0.966896,35.9375,1,59660,13269523
77,2,-0.64097,-0.0605141,9.79886,0.0569229,-0.615788,0.965718,-0.00641015,-0.000615971,0.0979885,1,5.42197e-05,-2.41019e-06,1.587e-05,0.0108439,-0.000482037,0.00317399,0,0,0,0,0.0327442,0.518766,-0.963352,35.9375,1,59661,13269623
77,3,-0.64097,-0.0605141,9.79886,0.0569229,-0.615788,0.965718,-0.00641015,-0.000615971,0.0979885,1,5.42197e-05,-2.41019e-06,1.587e-05,0.0108439,-0.000482037,0.00317399,0,0,0,0,0.0327442,0.518766,-0.963352,35.9375,1,59661,13269623
77,4,-0.638932,-0.0627626,9.80256,0.057153,-0.618277,0.969428,-0.00638834,-0.000636076,0.0980256,1,4.18704e-05,4.85745e-06,1.88314e-05,0.00837408,0.00097149,0.00376628,0,0,0,0,0.0322801,0.520684,-0.961287,35.9375,1,59662,13269723
78,1,-0.638932,-0.0627626,9.80256,0.057153,-0.618277,0.969428,-0.00638834,-0.000636076,0.0980256,1,4.18704e-05,4.85745e-06,1.88314e-05,0.00837408,0.00097149,0.00376628,0,0,0,0,0.0322801,0.520684,-0.961287,35.9375,1,59662,13269723
78,2,-0.64136,-0.0528983,9.78299,0.0527466,-0.610652,0.947875,-0.00641539,-0.000539533,0.0978297,1,5.22156e-05,-9.27219e-06,2.59839e-05,0.0104431,-0.00185444,0.00519677,0,0,0,0,0.0322232,0.522654,-0.962253,35.9375,1,59663,13269823
78,3,-0.64136,-0.0528983,9.78299,0.0527466,-0.610652,0.947875,-0.00641539,-0.000539533,0.0978297,1,5.22156e-05,-9.27219e-06,2.59839e-05,0.0104431,-0.00185444,0.00519677,0,0,0,0,0.0322232,0.522654,-0.962253,35.9375,1,59663,13269823
78,4,-0.646671,-0.067007,9.78698,0.0479553,-0.626101,0.950513,-0.00646897,-0.000681934,0.0978696,1,5.95115e-05,-1.16787e-05,1.66931e-05,0.0119023,-0.00233573,0.00333862,0,0,0,0,0.0336333,0.521702,-0.964301,35.9375,1,59664,13269923
79,1,-0.646671,-0.067007,9.78698,0.0479553,-0.626101,0.950513,-0.00646897,-0.000681934,0.0978696,1,5.95115e-05,-1.16787e-05,1.66931e-05,0.0119023,-0.00233573,0.00333862,0,0,0,0,0.0336333,0.521702,-0.964301,35.9375,1,59664,13269923
79,2,-0.65566,-0.0470097,9.78754,0.0400442,-0.606951,0.954415,-0.00655867,-0.000478364,0.0978753,1,4.14531e-05,-1.06545e-05,1.15968e-05,0.00829062,-0.00213091,0.00231937,0,0,0,0,0.0335835,0.520293,-0.967362,35.9375,1,59665,13270023
79,3,-0.65566,-0.0470097,9.78754,0.0400442,-0.606951,0.954415,-0.00655867,-0.000478364,0.0978753,1,4.14531e-05,-1.06545e-05,1.15968e-05,0.00829062,-0.00213091,0.00231937,0,0,0,0,0.0335835,0.520293,-0.967362,35.9375,1,59665,13270023
79,4,-0.651118,-0.0608253,9.78333,0.0409255,-0.620665,0.949251,-0.00651401,-0.000618499,0.0978331,1,5.07776e-05,-1.46066e-05,2.38214e-05,0.0101555,-0.00292132,0.00476428,0,0,0,0,0.0326744,0.519298,-0.965865,35.9375,1,59666,13270123
79,5,-0.651118,-0.0608253,9.78333,0.0409255,-0.620665,0.949251,-0.00651401,-0.000618499,0.0978331,1,5.07776e-05,-1.46066e-05,2.38214e-05,0.0101555,-0.00292132,0.00476428,0,0,0,0,0.0326744,0.519298,-0.965865,35.9375,1,59666,13270123
79,6,-0.628709,-0.0686372,9.795,0.061564,-0.626563,0.96344,-0.00629249,-0.000696639,0.0979495,1,5.10755e-05,-2.77201e-05,2.07776e-05,0.0102151,-0.00554402,0.00415552,0,0,0,0,0.0331845,0.519755,-0.964342,35.9375,1,59667,13270223
80,1,-0.628709,-0.0686372,9.795,0.061564,-0.626563,0.96344,-0.00629249,-0.000696639,0.0979495,1,5.10755e-05,-2.77201e-05,2.07776e-05,0.0102151,-0.00554402,0.00415552,0,0,0,0,0.0331845,0.519755,-0.964342,35.9375,1,59667,13270223
80,2,-0.62813,-0.0689547,9.79125,0.0716488,-0.625712,0.962182,-0.00628485,-0.000699794,0.0979122,1,5.11373e-05,-1.82368e-05,1.85461e-05,0.0102275,-0.00364736,0.00370922,0,0,0,0,0.0322346,0.519754,-0.963833,35.9375,1,59668,13270323
80,3,-0.62813,-0.0689547,9.79125,0.0716488,-0.625712,0.962182,-0.00628485,-0.000699794,0.0979122,1,5.11373e-05,-1.82368e-05,1.85461e-05,0.0102275,-0.00364736,0.00370922,0,0,0,0,0.0322346,0.519754,-0.963833,35.9375,1,59668,13270323
80,4,-0.653155,-0.0752743,9.78118,0.0418045,-0.635625,0.946351,-0.00653361,-0.000761349,0.0978116,1,4.27718e-05,-1.06732e-05,1.82392e-05,0.00855435,-0.00213463,0.00364784,0,0,0,0,0.031733,0.520255,-0.964324,35.9375,1,59669,13270423
80,5,-0.653155,-0.0752743,9.78118,0.0418045,-0.635625,0.946351,-0.00653361,-0.000761349,0.0978116,1,4.27718e-05,-1.06732e-05,1.82392e-05,0.00855435,-0.00213463,0.00364784,0,0,0,0,0.031733,0.520255,-0.964324,35.9375,1,59669,13270423
80,6,-0.66406,-0.0751208,9.78465,0.0320709,-0.63381,0.951923,-0.0066408,-0.000759825,0.0978464,1,4.22019e-05,-1.2388e-06,2.6973e-05,0.00844038,-0.00024776,0.00539461,0,0,0,0,0.0331683,0.520731,-0.96432,35.9375,1,59670,13270523
80,7,-0.66406,-0.0751208,9.78465,0.0320709,-0.63381,0.951923,-0.0066408,-0.000759825,0.0978464,1,4.22019e-05,-1.2388e-06,2.6973e-05,0.00844038,-0.00024776,0.00539461,0,0,0,0,0.0331683,0.520731,-0.96432,35.9375,1,59670,13270523
80,8,-0.649298,-0.0614077,9.80773,0.0463541,-0.623327,0.973063,-0.00649569,-0.000624632,0.0980771,1,5.25228e-05,-1.39362e-05,1.93996e-05,0.0105046,-0.00278723,0.00387993,0,0,0,0,0.0326872,0.520735,-0.964318,35.9375,1,59671,13270623
81,1,-0.649298,-0.0614077,9.80773,0.0463541,-0.623327,0.973063,-0.00649569,-0.000624632,0.0980771,1,5.25228e-05,-1.39362e-05,1.93996e-05,0.0105046,-0.00278723,0.00387993,0,0,0,0,0.0326872,0.520735,-0.964318,35.9375,1,59671,13270623
81,2,-0.641864,-0.0563784,9.79789,0.0527524,-0.618343,0.969227,-0.00642143,-0.000575094,0.0979786,1,5.7023e-05,-1.42753e-05,1.05352e-05,0.0114046,-0.00285506,0.00210703,0,0,0,0,0.0322669,0.517803,-0.963876,35.9375,1,59672,13270723
81,3,-0.641864,-0.0563784,9.79789,0.0527524,-0.618343,0.969227,-0.00642143,-0.000575094,0.0979786,1,5.7023e-05,-1.42753e-05,1.05352e-05,0.0114046,-0.00285506,0.00210703,0,0,0,0,0.0322669,0.517803,-0.963876,35.9375,1,59672,13270723
81,4,-0.657294,-0.0650769,9.78909,0.0371857,-0.628001,0.955596,-0.0065733,-0.000660382,0.0978909,1,4.76074e-05,-1.99096e-06,2.22158e-05,0.00952147,-0.000398193,0.00444316,0,0,0,0,0.0331925,0.519267,-0.964353,35.9375,1,59673,13270823
81,5,-0.657294,-0.0650769,9.78909,0.0371857,-0.628001,0.955596,-0.0065733,-0.000660382,0.0978909,1,4.76074e-05,-1.99096e-06,2.22158e-05,0.00952147,-0.000398193,0.00444316,0,0,0,0,0.0331925,0.519267,-0.964353,35.9375,1,59673,13270823
81,6,-0.6552,-0.0572176,9.77763,0.0348444,-0.620208,0.937401,-0.00655638,-0.000580601,0.0977759,1,4.17307e-05,-2.25063e-05,2.0193e-05,0.00834614,-0.00450125,0.0040386,0,0,0,0,0.0327038,0.521204,-0.963298,35.9375,1,59674,13270923
82,1,-0.6552,-0.0572176,9.77763,0.0348444,-0.620208,0.937401,-0.00655638,-0.000580601,0.0977759,1,4.17307e-05,-2.25063e-05,2.0193e-05,0.00834614,-0.00450125,0.0040386,0,0,0,0,0.0327038,0.521204,-0.963298,35.9375,1,59674,13270923
82,2,-0.650252,-0.0585833,9.7969,0.0495449,-0.617691,0.96648,-0.00650196,-0.00059427,0.0979689,1,4.25577e-05,2.81639e-06,7.51781e-06,0.00851153,0.000563278,0.00150356,0,0,0,0,0.0321529,0.521741,-0.965808,35.9375,1,59675,13271023
82,3,-0.650252,-0.0585833,9.7969,0.0495449,-0.617691,0.96648,-0.00650196,-0.00059427,0.0979689,1,4.25577e-05,2.81639e-06,7.51781e-06,0.00851153,0.000563278,0.00150356,0,0,0,0,0.0321529,0.521741,-0.965808,35.9375,1,59675,13271023
82,4,-0.673328,-0.0565474,9.77978,0.0202853,-0.620234,0.948691,-0.00673478,-0.000575595,0.0977976,1,5.02933e-05,-7.78385e-06,2.10944e-05,0.0100587,-0.00155677,0.00421888,0,0,0,0,0.0325809,0.52274,-0.967303,35.9375,1,59676,13271123
83,1,-0.673328,-0.0565474,9.77978,0.0202853,-0.620234,0.948691,-0.00673478,-0.000575595,0.0977976,1,5.02933e-05,-7.78385e-06,2.10944e-05,0.0100587,-0.00155677,0.00421888,0,0,0,0,0.0325809,0.52274,-0.967303,35.9375,1,59676,13271123
83,2,-0.659303,-0.0500009,9.78721,0.0347022,-0.619815,0.954196,-0.0065969,-0.000510045,0.0978718,1,5.09638e-05,-1.9785e-05,4.5525e-06,0.0101928,-0.003957,0.0009105,0,0,0,0,0.0331033,0.523187,-0.965276,35.9375,1,59677,13271223
83,3,-0.659303,-0.0500009,9.78721,0.0347022,-0.619815,0.954196,-0.0065969,-0.000510045,0.0978718,1,5.09638e-05,-1.9785e-05,4.5525e-06,0.0101928,-0.003957,0.0009105,0,0,0,0,0.0331033,0.523187,-0.965276,35.9375,1,59677,13271223
83,4,-0.63613,-0.0570763,9.79886,0.0551397,-0.626884,0.967601,-0.00636317,-0.000580945,0.0979884,1,5.01611e-05,-9.69833e-06,2.76194e-05,0.0100322,-0.00193967,0.00552387,0,0,0,0,0.034131,0.522168,-0.963283,35.9375,1,59678,13271323
84,1,-0.63613,-0.0570763,9.79886,0.0551397,-0.626884,0.967601,-0.00636317,-0.000580945,0.0979884,1,5.01611e-05,-9.69833e-06,2.76194e-05,0.0100322,-0.00193967,0.00552387,0,0,0,0,0.034131,0.522168,-0.963283,35.9375,1,59678,13271323
84,2,-0.636642,-0.0809843,9.80001,0.0511509,-0.650564,0.970898,-0.00636677,-0.000821447,0.098,1,5.73193e-05,-2.04308e-06,2.90477e-05,0.0114639,-0.000408616,0.00580955,0,0,0,0,0.0341514,0.521671,-0.962789,35.9375,1,59679,13271423
84,3,-0.636642,-0.0809843,9.80001,0.0511509,-0.650564,0.970898,-0.00636677,-0.000821447,0.098,1,5.73193e-05,-2.04308e-06,2.90477e-05,0.0114639,-0.000408616,0.00580955,0,0,0,0,0.0341514,0.521671,-0.962789,35.9375,1,59679,13271423
84,4,-0.610158,-0.0827304,9.80287,0.0867623,-0.656784,0.966057,-0.00610174,-0.000834997,0.0980286,1,3.79029e-05,-1.01724e-06,2.14987e-05,0.00758059,-0.000203448,0.00429974,0,0,0,0,0.0327327,0.521665,-0.961772,35.9375,1,59680,13271523
85,1,-0.610158,-0.0827304,9.80287,0.0867623,-0.656784,0.966057,-0.00610174,-0.000834997,0.0980286,1,3.79029e-05,-1.01724e-06,2.14987e-05,0.00758059,-0.000203448,0.00429974,0,0,0,0,0.0327327,0.521665,-0.961772,35.9375,1,59680,13271523
85,2,-0.635718,-0.0813633,9.79695,0.0591306,-0.648333,0.963803,-0.0063569,-0.000823707,0.0979694,1,4.96097e-05,1.23103e-06,2.77869e-05,0.00992194,0.000246207,0.00555739,0,0,0,0,0.0321942,0.522193,-0.963778,35.9375,1,59681,13271623
85,3,-0.635718,-0.0813633,9.79695,0.0591306,-0.648333,0.963803,-0.0063569,-0.000823707,0.0979694,1,4.96097e-05,1.23103e-06,2.77869e-05,0.00992194,0.000246207,0.00555739,0,0,0,0,0.0321942,0.522193,-0.963778,35.9375,1,59681,13271623
85,4,-0.644193,-0.055073,9.79146,0.0546868,-0.619331,0.953513,-0.00644133,-0.000560504,0.0979146,1,4.82442e-05,2.9298e-06,2.52615e-05,0.00964884,0.00058596,0.0050523,0,0,0,0,0.0346606,0.519237,-0.96335,35.9375,1,59682,13271723
86,1,-0.644193,-0.055073,9.79146,0.0546868,-0.619331,0.953513,-0.00644133,-0.000560504,0.0979146,1,4.82442e-05,2.9298e-06,2.52615e-05,0.00964884,0.00058596,0.0050523,0,0,0,0,0.0346606,0.519237,-0.96335,35.9375,1,59682,13271723
86,2,-0.633863,-0.0587868,9.79272,0.0634908,-0.630884,0.959794,-0.00633833,-0.000597075,0.0979272,1,4.55007e-05,1.38595e-06,2.32849e-05,0.00910014,0.000277191,0.00465697,0,0,0,0,0.033184,0.51831,-0.965384,35.9375,1,59683,13271823
86,3,-0.633863,-0.0587868,9.79272,0.0634908,-0.630884,0.959794,-0.00633833,-0.000597075,0.0979272,1,4.55007e-05,1.38595e-06,2.32849e-05,0.00910014,0.000277191,0.00465697,0,0,0,0,0.033184,0.51831,-0.965384,35.9375,1,59683,13271823
86,4,-0.626988,-0.0624231,9.77942,0.0671186,-0.635456,0.940095,-0.00627136,-0.000638892,0.097794,1,7.4057e-05,-7.61251e-06,1.40533e-05,0.0148114,-0.0015225,0.00281065,0,0,0,0,0.032691,0.519768,-0.964845,35.9375,1,59684,13271923
86,5,-0.626988,-0.0624231,9.77942,0.0671186,-0.635456,0.940095,-0.00627136,-0.000638892,0.097794,1,7.4057e-05,-7.61251e-06,1.40533e-05,0.0148114,-0.0015225,0.00281065,0,0,0,0,0.032691,0.519768,-0.964845,35.9375,1,59684,13271923
86,6,-0.64611,-0.0662803,9.78731,0.0491231,-0.63386,0.953373,-0.00646196,-0.00067362,0.097873,1,5.32733e-05,-4.5837e-06,3.01137e-05,0.0106547,-0.00091674,0.00602275,0,0,0,0,0.0322592,0.519736,-0.962823,35.9375,1,59685,13272023
86,7,-0.64611,-0.0662803,9.78731,0.0491231,-0.63386,0.953373,-0.00646196,-0.00067362,0.097873,1,5.32733e-05,-4.5837e-06,3.01137e-05,0.0106547,-0.00091674,0.00602275,0,0,0,0,0.0322592,0.519736,-0.962823,35.9375,1,59685,13272023
86,8,-0.620745,-0.0686798,9.79493,0.0756284,-0.637425,0.959079,-0.00620885,-0.000695781,0.0979491,1,4.54355e-05,-7.20675e-06,6.67922e-06,0.0090871,-0.00144135,0.00133584,0,0,0,0,0.0322388,0.520233,-0.963317,35.9375,1,59686,13272123
87,1,-0.620745,-0.0686798,9.79493,0.0756284,-0.637425,0.959079,-0.00620885,-0.000695781,0.0979491,1,4.54355e-05,-7.20675e-06,6.67922e-06,0.0090871,-0.00144135,0.00133584,0,0,0,0,0.0322388,0.520233,-0.963317,35.9375,1,59686,13272123
87,2,-0.602339,-0.064823,9.79518,0.0952175,-0.633232,0.954424,-0.00602644,-0.000654956,0.0979516,1,3.30714e-05,-1.57038e-05,2.05002e-05,0.00661428,-0.00314076,0.00410004,0,0,0,0,0.0326668,0.521231,-0.964812,35.9375,1,59687,13272223
87,3,-0.602339,-0.064823,9.79518,0.0952175,-0.633232,0.954424,-0.00602644,-0.000654956,0.0979516,1,3.30714e-05,-1.57038e-05,2.05002e-05,0.00661428,-0.00314076,0.00410004,0,0,0,0,0.0326668,0.521231,-0.964812,35.9375,1,59687,13272223
87,4,-0.600893,-0.0529474,9.78644,0.0962949,-0.623928,0.949674,-0.00601126,-0.00054011,0.0978642,1,5.3199e-05,-1.19934e-05,1.85744e-05,0.0106398,-0.00239869,0.00371489,0,0,0,0,0.0340893,0.520271,-0.966355,35.9375,1,59688,13272323
88,1,-0.600893,-0.0529474,9.78644,0.0962949,-0.623928,0.949674,-0.00601126,-0.00054011,0.0978642,1,5.3199e-05,-1.19934e-05,1.85744e-05,0.0106398,-0.00239869,0.00371489,0,0,0,0,0.0340893,0.520271,-0.966355,35.9375,1,59688,13272323
88,2,-0.590464,-0.0676495,9.80694,0.103663,-0.640116,0.971149,-0.00590525,-0.000688366,0.0980693,1,5.99735e-05,-3.17054e-06,9.19574e-06,0.0119947,-0.000634107,0.00183915,0,0,0,0,0.0326867,0.519289,-0.96536,35.9375,1,59689,13272423
88,3,-0.590464,-0.0676495,9.80694,0.103663,-0.640116,0.971149,-0.00590525,-0.000688366,0.0980693,1,5.99735e-05,-3.17054e-06,9.19574e-06,0.0119947,-0.000634107,0.00183915,0,0,0,0,0.0326867,0.519289,-0.96536,35.9375,1,59689,13272423
88,4,-0.582514,-0.0538301,9.80734,0.111545,-0.623942,0.972243,-0.00582543,-0.000543456,0.0980733,1,2.58032e-05,-1.52913e-06,8.07102e-06,0.00516063,-0.000305826,0.0016142,0,0,0,0,0.0312885,0.518787,-0.96385,35.9375,1,59690,13272523
88,5,-0.582514,-0.0538301,9.80734,0.111545,-0.623942,0.972243,-0.00582543,-0.000543456,0.0980733,1,2.58032e-05,-1.52913e-06,8.07102e-06,0.00516063,-0.000305826,0.0016142,0,0,0,0,0.0312885,0.518787,-0.96385,35.9375,1,59690,13272523
88,6,-0.562877,-0.0792568,9.8036,0.13854,-0.6533,0.965423,-0.00562894,-0.000799273,0.098036,1,3.38685e-05,-9.03662e-07,5.76108e-06,0.0067737,-0.000180732,0.00115222,0,0,0,0,0.0312847,0.519753,-0.963323,35.9375,1,59691,13272623
89,1,-0.562877,-0.0792568,9.8036,0.13854,-0.6533,0.965423,-0.00562894,-0.000799273,0.098036,1,3.38685e-05,-9.03662e-07,5.76108e-06,0.0067737,-0.000180732,0.00115222,0,0,0,0,0.0312847,0.519753,-0.963323,35.9375,1,59691,13272623
89,2,-0.582108,-0.0769944,9.7895,0.110346,-0.653009,0.950013,-0.00582068,-0.000781373,0.097895,1,5.671e-05,1.82739e-06,2.79957e-05,0.011342,0.000365479,0.00559914,0,0,0,0,0.0322554,0.520703,-0.962297,35.9375,1,59692,13272723
89,3,-0.582108,-0.0769944,9.7895,0.110346,-0.653009,0.950013,-0.00582068,-0.000781373,0.097895,1,5.671e-05,1.82739e-06,2.79957e-05,0.011342,0.000365479,0.00559914,0,0,0,0,0.0322554,0.520703,-0.962297,35.9375,1,59692,13272723
89,4,-0.595913,-0.0819677,9.79261,0.103352,-0.659942,0.956888,-0.00595956,-0.000829733,0.097926,1,5.08651e-05,-2.24048e-06,7.92736e-06,0.010173,-0.000448095,0.00158547,0,0,0,0,0.033091,0.523197,-0.96578,35.9375,1,59693,13272823
89,5,-0.595913,-0.0819677,9.79261,0.103352,-0.659942,0.956888,-0.00595956,-0.000829733,0.097926,1,5.08651e-05,-2.24048e-06,7.92736e-06,0.010173,-0.000448095,0.00158547,0,0,0,0,0.033091,0.523197,-0.96578,35.9375,1,59693,13272823
89,6,-0.611063,-0.0660198,9.7864,0.0843334,-0.641864,0.950058,-0.00611096,-0.000668684,0.0978639,1,4.25018e-05,-1.75985e-06,1.36887e-05,0.00850037,-0.00035197,0.00273774,0,0,0,0,0.0335469,0.521765,-0.967835,35.9375,1,59694,13272923
90,1,-0.611063,-0.0660198,9.7864,0.0843334,-0.641864,0.950058,-0.00611096,-0.000668684,0.0978639,1,4.25018e-05,-1.75985e-06,1.36887e-05,0.00850037,-0.00035197,0.00273774,0,0,0,0,0.0335469,0.521765,-0.967835,35.9375,1,59694,13272923
90,2,-0.604788,-0.069478,9.79481,0.0922747,-0.647369,0.957899,-0.00604951,-0.000706356,0.0979479,1,5.70938e-05,-8.55144e-06,3.23504e-05,0.0114188,-0.00171029,0.00647007,0,0,0,0,0.0321525,0.520296,-0.966851,35.9375,1,59695,13273023
90,3,-0.604788,-0.069478,9.79481,0.0922747,-0.647369,0.957899,-0.00604951,-0.000706356,0.0979479,1,5.70938e-05,-8.55144e-06,3.23504e-05,0.0114188,-0.00171029,0.00647007,0,0,0,0,0.0321525,0.520296,-0.966851,35.9375,1,59695,13273023
90,4,-0.601506,-0.0571321,9.79184,0.094869,-0.634177,0.957591,-0.00601723,-0.000581147,0.0979182,1,4.94271e-05,-1.11851e-05,1.21259e-05,0.00988543,-0.00223703,0.00242519,0,0,0,0,0.0317292,0.521221,-0.963798,35.9375,1,59696,13273123
91,1,-0.601506,-0.0571321,9.79184,0.094869,-0.634177,0.957591,-0.00601723,-0.000581147,0.0979182,1,4.94271e-05,-1.11851e-05,1.21259e-05,0.00988543,-0.00223703,0.00242519,0,0,0,0,0.0317292,0.521221,-0.963798,35.9375,1,59696,13273123
91,2,-0.602218,-0.0554016,9.78915,0.100242,-0.634433,0.953658,-0.00602524,-0.000563658,0.0978912,1,4.85219e-05,-1.57261e-05,1.18505e-05,0.00970438,-0.00314522,0.0023701,0,0,0,0,0.0312605,0.521216,-0.963291,35.9375,1,59697,13273223
91,3,-0.602218,-0.0554016,9.78915,0.100242,-0.634433,0.953658,-0.00602524,-0.000563658,0.0978912,1,4.85219e-05,-1.57261e-05,1.18505e-05,0.00970438,-0.00314522,0.0023701,0,0,0,0,0.0312605,0.521216,-0.963291,35.9375,1,59697,13273223
91,4,-0.648128,-0.067419,9.78393,0.0494626,-0.641146,0.948809,-0.00648094,-0.000683495,0.0978392,1,4.7151e-05,1.71336e-06,6.08885e-06,0.00943021,0.000342672,0.00121777,0,0,0,0,0.0326834,0.521701,-0.963791,35.9375,1,59698,13273323
92,1,-0.648128,-0.067419,9.78393,0.0494626,-0.641146,0.948809,-0.00648094,-0.000683495,0.0978392,1,4.7151e-05,1.71336e-06,6.08885e-06,0.00943021,0.000342672,0.00121777,0,0,0,0,0.0326834,0.521701,-0.963791,35.9375,1,59698,13273323
92,2,-0.618074,-0.0750888,9.77892,0.0827446,-0.656797,0.939991,-0.00618288,-0.000758242,0.097789,1,3.67146e-05,-1.1038e-05,1.39754e-05,0.00734293,-0.00220759,0.00279508,0,0,0,0,0.0336086,0.52172,-0.965311,35.9375,1,59699,13273423
92,3,-0.618074,-0.0750888,9.77892,0.0827446,-0.656797,0.939991,-0.00618288,-0.000758242,0.097789,1,3.67146e-05,-1.1038e-05,1.39754e-05,0.00734293,-0.00220759,0.00279508,0,0,0,0,0.0336086,0.52172,-0.965311,35.9375,1,59699,13273423
92,4,-0.625362,-0.0575054,9.78896,0.0751407,-0.635035,0.953996,-0.00626246,-0.000587251,0.097889,1,6.12382e-05,-4.52937e-05,1.66095e-05,0.0122476,-0.00905875,0.0033219,0,0,0,0,0.0336039,0.519796,-0.966868,35.9375,1,59700,13273523
93,1,-0.625362,-0.0575054,9.78896,0.0751407,-0.635035,0.953996,-0.00626246,-0.000587251,0.097889,1,6.12382e-05,-4.52937e-05,1.66095e-05,0.0122476,-0.00905875,0.0033219,0,0,0,0,0.0336039,0.519796,-0.966868,35.9375,1,59700,13273523
93,2,-0.607227,-0.0679885,9.78975,0.0856068,-0.648628,0.956039,-0.00607301,-0.00069264,0.0978974,1,6.42557e-05,-3.8859e-06,1.43533e-05,0.0128511,-0.00077718,0.00287066,0,0,0,0,0.0326706,0.520265,-0.965339,35.9375,1,59701,13273623
93,3,-0.607227,-0.0679885,9.78975,0.0856068,-0.648628,0.956039,-0.00607301,-0.00069264,0.0978974,1,6.42557e-05,-3.8859e-06,1.43533e-05,0.0128511,-0.00077718,0.00287066,0,0,0,0,0.0326706,0.520265,-0.965339,35.9375,1,59701,13273623
93,4,-0.610314,-0.0592529,9.79765,0.0858386,-0.636036,0.961021,-0.00610399,-0.000603461,0.0979764,1,5.41658e-05,-4.48724e-06,2.60844e-05,0.0108332,-0.000897448,0.00521688,0,0,0,0,0.0313008,0.518777,-0.963345,35.9375,1,59702,13273723
93,5,-0.610314,-0.0592529,9.79765,0.0858386,-0.636036,0.961021,-0.00610399,-0.000603461,0.0979764,1,5.41658e-05,-4.48724e-06,2.60844e-05,0.0108332,-0.000897448,0.00521688,0,0,0,0,0.0313008,0.518777,-0.963345,35.9375,1,59702,13273723
93,6,-0.610748,-0.0601859,9.79119,0.0860299,-0.640769,0.956665,-0.00610709,-0.000612673,0.0979119,1,5.46258e-05,1.91282e-06,9.58874e-06,0.0109252,0.000382564,0.00191775,0,0,0,0,0.0307912,0.519766,-0.963826,35.9375,1,59703,13273823
94,1,-0.610748,-0.0601859,9.79119,0.0860299,-0.640769,0.956665,-0.00610709,-0.000612673,0.0979119,1,5.46258e-05,1.91282e-06,9.58874e-06,0.0109252,0.000382564,0.00191775,0,0,0,0,0.0307912,0.519766,-0.963826,35.9375,1,59703,13273823
94,2,-0.620419,-0.0630926,9.80346,0.0780168,-0.645992,0.965925,-0.00620572,-0.000642527,0.0980344,1,5.82058e-05,-7.88616e-06,1.52402e-05,0.0116412,-0.00157723,0.00304803,0,0,0,0,0.0326796,0.522668,-0.963265,35.9375,1,59704,13273923
94,3,-0.620419,-0.0630926,9.80346,0.0780168,-0.645992,0.965925,-0.00620572,-0.000642527,0.0980344,1,5.82058e-05,-7.88616e-06,1.52402e-05,0.0116412,-0.00157723,0.00304803,0,0,0,0,0.0326796,0.522668,-0.963265,35.9375,1,59704,13273923
94,4,-0.567708,-0.0542924,9.80385,0.125829,-0.638259,0.964355,-0.00568054,-0.000551089,0.0980383,1,4.1347e-05,-1.77062e-05,5.13345e-06,0.00826941,-0.00354125,0.00102669,0,0,0,0,0.032635,0.524628,-0.963726,35.9375,1,59705,13274023
94,5,-0.567708,-0.0542924,9.80385,0.125829,-0.638259,0.964355,-0.00568054,-0.000551089,0.0980383,1,4.1347e-05,-1.77062e-05,5.13345e-06,0.00826941,-0.00354125,0.00102669,0,0,0,0,0.032635,0.524628,-0.963726,35.9375,1,59705,13274023
94,6,-0.572499,-0.0693502,9.79493,0.127179,-0.648751,0.957573,-0.00572705,-0.000701102,0.0979491,1,3.86089e-05,-1.04921e-05,3.22621e-06,0.00772178,-0.00209843,0.000645242,0,0,0,0,0.0316357,0.524663,-0.965236,35.9375,1,59706,13274123
94,7,-0.572499,-0.0693502,9.79493,0.127179,-0.648751,0.957573,-0.00572705,-0.000701102,0.0979491,1,3.86089e-05,-1.04921e-05,3.22621e-06,0.00772178,-0.00209843,0.000645242,0,0,0,0,0.0316357,0.524663,-0.965236,35.9375,1,59706,13274123
94,8,-0.600043,-0.082454,9.79432,0.100981,-0.66407,0.956846,-0.0060009,-0.000833643,0.0979431,1,4.60222e-05,-2.43836e-06,7.37452e-06,0.00920444,-0.000487672,0.0014749,0,0,0,0,0.0306773,0.523704,-0.965758,35.9375,1,59707,13274223
95,1,-0.600043,-0.082454,9.79432,0.100981,-0.66407,0.956846,-0.0060009,-0.000833643,0.0979431,1,4.60222e-05,-2.43836e-06,7.37452e-06,0.00920444,-0.000487672,0.0014749,0,0,0,0,0.0306773,0.523704,-0.965758,35.9375,1,59707,13274223
95,2,-0.63303,-0.0704323,9.80415,0.0666858,-0.655717,0.968676,-0.00633098,-0.000713333,0.0980414,1,4.47742e-05,-3.62056e-06,1.82486e-05,0.00895484,-0.000724112,0.00364972,0,0,0,0,0.030237,0.522715,-0.964768,35.9375,1,59708,13274323
95,3,-0.63303,-0.0704323,9.80415,0.0666858,-0.655717,0.968676,-0.00633098,-0.000713333,0.0980414,1,4.47742e-05,-3.62056e-06,1.82486e-05,0.00895484,-0.000724112,0.00364972,0,0,0,0,0.030237,0.522715,-0.964768,35.9375,1,59708,13274323
95,4,-0.622734,-0.0752197,9.79184,0.0758751,-0.662282,0.956537,-0.00623023,-0.00075961,0.0979181,1,3.73609e-05,-1.48117e-05,7.81007e-06,0.00747219,-0.00296235,0.00156201,0,0,0,0,0.0302005,0.524187,-0.96524,35.9375,1,59709,13274423
96,1,-0.622734,-0.0752197,9.79184,0.0758751,-0.662282,0.956537,-0.00623023,-0.00075961,0.0979181,1,3.73609e-05,-1.48117e-05,7.81007e-06,0.00747219,-0.00296235,0.00156201,0,0,0,0,0.0302005,0.524187,-0.96524,35.9375,1,59709,13274423
96,2,-0.602468,-0.0392894,9.77674,0.0910002,-0.63011,0.936251,-0.00602496,-0.00040252,0.0977673,1,4.82425e-05,-1.48822e-06,1.60335e-05,0.00964851,-0.000297645,0.00320669,0,0,0,0,0.0316685,0.524157,-0.964237,35.9375,1,59710,13274523
96,3,-0.602468,-0.0392894,9.77674,0.0910002,-0.63011,0.936251,-0.00602496,-0.00040252,0.0977673,1,4.82425e-05,-1.48822e-06,1.60335e-05,0.00964851,-0.000297645,0.00320669,0,0,0,0,0.0316685,0.524157,-0.964237,35.9375,1,59710,13274523
96,4,-0.590563,-0.0567171,9.80499,0.107604,-0.64152,0.965495,-0.00590792,-0.000577845,0.0980498,1,5.43148e-05,-1.16729e-05,1.87042e-06,0.010863,-0.00233459,0.000374085,0,0,0,0,0.0316647,0.525124,-0.963711,35.9375,1,59711,13274623
96,5,-0.590563,-0.0567171,9.80499,0.107604,-0.64152,0.965495,-0.00590792,-0.000577845,0.0980498,1,5.43148e-05,-1.16729e-05,1.87042e-06,0.010863,-0.00233459,0.000374085,0,0,0,0,0.0316647,0.525124,-0.963711,35.9375,1,59711,13274623
96,6,-0.588579,-0.0489937,9.79794,0.1061,-0.642451,0.958253,-0.00588816,-0.00050356,0.0979792,1,6.8508e-05,-1.22209e-05,1.67975e-05,0.0137016,-0.00244418,0.00335949,0,0,0,0,0.0316523,0.525133,-0.964216,35.9375,3,59712,13274723
97,1,-0.588579,-0.0489937,9.79794,0.1061,-0.642451,0.958253,-0.00588816,-0.00050356,0.0979792,1,6.8508e-05,-1.22209e-05,1.67975e-05,0.0137016,-0.00244418,0.00335949,0,0,0,0,0.0316523,0.525133,-0.964216,35.9375,3,59712,13274723
97,2,-0.556971,-0.0747375,9.80971,0.143428,-0.657038,0.963172,-0.00557276,-0.000756284,0.0980969,1,4.42566e-05,-1.57205e-05,2.02823e-05,0.00885131,-0.00314411,0.00405646,0,0,0,0,0.0326098,0.523201,-0.965778,35.9375,3,59713,13274823
97,3,-0.556971,-0.0747375,9.80971,0.143428,-0.657038,0.963172,-0.00557276,-0.000756284,0.0980969,1,4.42566e-05,-1.57205e-05,2.02823e-05,0.00885131,-0.00314411,0.00405646,0,0,0,0,0.0326098,0.523201,-0.965778,35.9375,3,59713,13274823
97,4,-0.543603,-0.10947,9.81203,0.151854,-0.69868,0.971069,-0.00543581,-0.00110511,0.0981202,1,5.25135e-05,9.87051e-07,9.16622e-06,0.0105027,0.00019741,0.00183324,0,0,0,0,0.0321857,0.521235,-0.96481,35.9375,3,59714,13274923
97,5,-0.543603,-0.10947,9.81203,0.151854,-0.69868,0.971069,-0.00543581,-0.00110511,0.0981202,1,5.25135e-05,9.87051e-07,9.16622e-06,0.0105027,0.00019741,0.00183324,0,0,0,0,0.0321857,0.521235,-0.96481,35.9375,3,59714,13274923
97,6,-0.553675,-0.0611871,9.79724,0.148637,-0.655314,0.957137,-0.00553525,-0.000621955,0.0979725,1,5.05894e-05,7.51217e-06,1.55048e-05,0.0101179,0.00150243,0.00310096,0,0,0,0,0.0312643,0.52025,-0.963817,35.9375,3,59715,13275023
98,1,-0.553675,-0.0611871,9.79724,0.148637,-0.655314,0.957137,-0.00553525,-0.000621955,0.0979725,1,5.05894e-05,7.51217e-06,1.55048e-05,0.0101179,0.00150243,0.00310096,0,0,0,0,0.0312643,0.52025,-0.963817,35.9375,3,59715,13275023
98,2,-0.596497,-0.0132101,9.77353,0.102073,-0.598861,0.933201,-0.00596743,-0.000141229,0.0977352,1,4.63985e-05,-1.25448e-05,4.90604e-06,0.00927971,-0.00250896,0.000981208,0,0,0,0,0.0303433,0.52071,-0.961782,35.9375,3,59716,13275123
98,3,-0.596497,-0.0132101,9.77353,0.102073,-0.598861,0.933201,-0.00596743,-0.000141229,0.0977352,1,4.63985e-05,-1.25448e-05,4.90604e-06,0.00927971,-0.00250896,0.000981208,0,0,0,0,0.0303433,0.52071,-0.961782,35.9375,3,59716,13275123
98,4,-0.582709,-0.0420826,9.78913,0.112714,-0.626233,0.948024,-0.00582596,-0.000432972,0.0978913,1,6.05081e-05,5.6695e-06,2.57062e-05,0.0121016,0.0011339,0.00514123,0,0,0,0,0.0302493,0.522706,-0.964263,35.9375,3,59717,13275223
98,5,-0.582709,-0.0420826,9.78913,0.112714,-0.626233,0.948024,-0.00582596,-0.000432972,0.0978913,1,6.05081e-05,5.6695e-06,2.57062e-05,0.0121016,0.0011339,0.00514123,0,0,0,0,0.0302493,0.522706,-0.964263,35.9375,3,59717,13275223
98,6,-0.564545,-0.0777599,9.80634,0.133475,-0.671781,0.963194,-0.00564578,-0.000788109,0.0980633,1,5.28172e-05,-1.77332e-06,1.33941e-05,0.0105634,-0.000354665,0.00267881,0,0,0,0,0.0321283,0.521759,-0.966818,35.9375,3,59718,13275323
99,1,-0.564545,-0.0777599,9.80634,0.133475,-0.671781,0.963194,-0.00564578,-0.000788109,0.0980633,1,5.28172e-05,-1.77332e-06,1.33941e-05,0.0105634,-0.000354665,0.00267881,0,0,0,0,0.0321283,0.521759,-0.966818,35.9375,3,59718,13275323
99,2,-0.516998,-0.0651181,9.81732,0.178388,-0.656018,0.975891,-0.00516997,-0.000663534,0.0981731,1,6.23223e-05,-2.4545e-08,1.12353e-05,0.0124645,-4.90901e-06,0.00224706,0,0,0,0,0.0326583,0.520274,-0.965843,35.9375,3,59719,13275423
99,3,-0.516998,-0.0651181,9.81732,0.178388,-0.656018,0.975891,-0.00516997,-0.000663534,0.0981731,1,6.23223e-05,-2.4545e-08,1.12353e-05,0.0124645,-4.90901e-06,0.00224706,0,0,0,0,0.0326583,0.520274,-0.965843,35.9375,3,59719,13275423
99,4,-0.473796,-0.100792,9.8113,0.223542,-0.69083,0.966779,-0.0047405,-0.00101361,0.0981129,1,2.86065e-05,-1.30515e-05,8.205e-06,0.0057213,-0.0026103,0.001641,0,0,0,0,0.031733,0.520255,-0.964324,35.9375,3,59720,13275523
100,1,-0.473796,-0.100792,9.8113,0.223542,-0.69083,0.966779,-0.0047405,-0.00101361,0.0981129,1,2.86065e-05,-1.30515e-05,8.205e-06,0.0057213,-0.0026103,0.001641,0,0,0,0,0.031733,0.520255,-0.964324,35.9375,3,59720,13275523
100,2,-0.46173,-0.112592,9.79449,0.234293,-0.706897,0.947993,-0.00461694,-0.00113855,0.0979448,1,6.39912e-05,1.69118e-06,9.75835e-06,0.0127982,0.000338236,0.00195167,0,0,0,0,0.0298252,0.520741,-0.963295,35.9375,3,59721,13275623
100,3,-0.46173,-0.112592,9.79449,0.234293,-0.706897,0.947993,-0.00461694,-0.00113855,0.0979448,1,6.39912e-05,1.69118e-06,9.75835e-06,0.0127982,0.000338236,0.00195167,0,0,0,0,0.0298252,0.520741,-0.963295,35.9375,3,59721,13275623
100,4,-0.509242,-0.0480718,9.79706,0.196375,-0.644348,0.951123,-0.00509038,-0.000492066,0.0979706,1,5.68852e-05,1.02725e-05,1.98242e-05,0.011377,0.0020545,0.00396483,0,0,0,0,0.030294,0.520746,-0.963802,35.9375,3,59722,13275723
101,1,-0.509242,-0.0480718,9.79706,0.196375,-0.644348,0.951123,-0.00509038,-0.000492066,0.0979706,1,5.68852e-05,1.02725e-05,1.98242e-05,0.011377,0.0020545,0.00396483,0,0,0,0,0.030294,0.520746,-0.963802,35.9375,3,59722,13275723
101,2,-0.536319,-0.00297379,9.78543,0.162393,-0.599913,0.942798,-0.00536604,-4.09702e-05,0.0978541,1,5.59798e-05,-1.45455e-05,2.5783e-05,0.011196,-0.0029091,0.0051566,0,0,0,0,0.0307219,0.521744,-0.965297,35.9375,3,59723,13275823
101,3,-0.536319,-0.00297379,9.78543,0.162393,-0.599913,0.942798,-0.00536604,-4.09702e-05,0.0978541,1,5.59798e-05,-1.45455e-05,2.5783e-05,0.011196,-0.0029091,0.0051566,0,0,0,0,0.0307219,0.521744,-0.965297,35.9375,3,59723,13275823
101,4,-0.496355,-0.0253298,9.78564,0.195799,-0.616135,0.937942,-0.00496583,-0.000264432,0.0978563,1,5.61923e-05,-1.1651e-05,1.37723e-05,0.0112385,-0.00233021,0.00275446,0,0,0,0,0.0311618,0.521288,-0.967329,35.9375,3,59724,13275923
102,1,-0.496355,-0.0253298,9.78564,0.195799,-0.616135,0.937942,-0.00496583,-0.000264432,0.0978563,1,5.61923e-05,-1.1651e-05,1.37723e-05,0.0112385,-0.00233021,0.00275446,0,0,0,0,0.0311618,0.521288,-0.967329,35.9375,3,59724,13275923
102,2,-0.408361,-0.0871619,9.81438,0.284317,-0.680698,0.960774,-0.0040915,-0.000882277,0.0981434,1,5.3674e-05,-4.02929e-05,1.5035e-05,0.0107348,-0.00805857,0.003007,0,0,0,0,0.0311656,0.520322,-0.967856,35.9375,3,59725,13276023
102,3,-0.408361,-0.0871619,9.81438,0.284317,-0.680698,0.960774,-0.0040915,-0.000882277,0.0981434,1,5.3674e-05,-4.02929e-05,1.5035e-05,0.0107348,-0.00805857,0.003007,0,0,0,0,0.0311656,0.520322,-0.967856,35.9375,3,59725,13276023
102,4,-0.36474,-0.125479,9.83613,0.339127,-0.71787,0.983111,-0.00364888,-0.00126647,0.0983611,1,5.85279e-05,-7.82301e-06,2.29407e-05,0.0117056,-0.0015646,0.00458813,0,0,0,0,0.0327276,0.518296,-0.964372,35.9375,3,59726,13276123
102,5,-0.36474,-0.125479,9.83613,0.339127,-0.71787,0.983111,-0.00364888,-0.00126647,0.0983611,1,5.85279e-05,-7.82301e-06,2.29407e-05,0.0117056,-0.0015646,0.00458813,0,0,0,0,0.0327276,0.518296,-0.964372,35.9375,3,59726,13276123
102,6,-0.459765,-0.142643,9.78066,0.242206,-0.745488,0.939853,-0.00459989,-0.00143698,0.0978063,1,5.35175e-05,-1.1597e-05,9.47345e-06,0.0107035,-0.0023194,0.00189469,0,0,0,0,0.0317615,0.51927,-0.963841,35.9375,3,59727,13276223
103,1,-0.459765,-0.142643,9.78066,0.242206,-0.745488,0.939853,-0.00459989,-0.00143698,0.0978063,1,5.35175e-05,-1.1597e-05,9.47345e-06,0.0107035,-0.0023194,0.00189469,0,0,0,0,0.0317615,0.51927,-0.963841,35.9375,3,59727,13276223
103,2,-0.496992,-0.0658045,9.76767,0.182899,-0.671636,0.921897,-0.00497569,-0.00067017,0.0976764,1,6.1946e-05,-2.95416e-05,2.42692e-06,0.0123892,-0.00590833,0.000485383,0,0,0,0,0.0312111,0.521252,-0.96531,35.9375,3,59728,13276323
103,3,-0.496992,-0.0658045,9.76767,0.182899,-0.671636,0.921897,-0.00497569,-0.00067017,0.0976764,1,6.1946e-05,-2.95416e-05,2.42692e-06,0.0123892,-0.00590833,0.000485383,0,0,0,0,0.0312111,0.521252,-0.96531,35.9375,3,59728,13276323
103,4,-0.382525,0.029423,9.82741,0.302579,-0.577123,0.967645,-0.00382992,0.000279941,0.098274,1,7.2876e-05,-2.38009e-05,-4.60448e-06,0.0145752,-0.00476019,-0.000920897,0,0,0,0,0.0311988,0.521261,-0.965815,35.9375,3,59729,13276423
104,1,-0.382525,0.029423,9.82741,0.302579,-0.577123,0.967645,-0.00382992,0.000279941,0.098274,1,7.2876e-05,-2.38009e-05,-4.60448e-06,0.0145752,-0.00476019,-0.000920897,0,0,0,0,0.0311988,0.521261,-0.965815,35.9375,3,59729,13276423
104,2,-0.341747,-0.00744309,9.84309,0.369531,-0.59672,0.994356,-0.00342207,-8.55256e-05,0.0984308,1,5.63449e-05,-2.33841e-05,3.6548e-07,0.011269,-0.00467681,7.3096e-05,0,0,0,0,0.0298005,0.520759,-0.964304,35.9375,3,59730,13276523
104,3,-0.341747,-0.00744309,9.84309,0.369531,-0.59672,0.994356,-0.00342207,-8.55256e-05,0.0984308,1,5.63449e-05,-2.33841e-05,3.6548e-07,0.011269,-0.00467681,7.3096e-05,0,0,0,0,0.0298005,0.520759,-0.964304,35.9375,3,59730,13276523
104,4,-0.50054,-0.117855,9.76486,0.200251,-0.70424,0.92582,-0.00500659,-0.00118849,0.0976485,1,4.97532e-05,-6.38888e-06,2.30352e-05,0.00995064,-0.00127778,0.00460703,0,0,0,0,0.0288425,0.521245,-0.963784,35.9375,3,59731,13276623
105,1,-0.50054,-0.117855,9.76486,0.200251,-0.70424,0.92582,-0.00500659,-0.00118849,0.0976485,1,4.97532e-05,-6.38888e-06,2.30352e-05,0.00995064,-0.00127778,0.00460703,0,0,0,0,0.0288425,0.521245,-0.963784,35.9375,3,59731,13276623
105,2,-0.50273,-0.118338,9.76218,0.164646,-0.729892,0.906585,-0.00503343,-0.00119878,0.0976213,1,7.94418e-05,-3.12309e-05,-1.05464e-05,0.0158884,-0.00624618,-0.00210928,0,0,0,0,0.0297597,0.521752,-0.965292,35.9375,3,59732,13276723
105,3,-0.50273,-0.118338,9.76218,0.164646,-0.729892,0.906585,-0.00503343,-0.00119878,0.0976213,1,7.94418e-05,-3.12309e-05,-1.05464e-05,0.0158884,-0.00624618,-0.00210928,0,0,0,0,0.0297597,0.521752,-0.965292,35.9375,3,59732,13276723
105,4,-0.34883,0.0119168,9.86332,0.351498,-0.603519,1.00343,-0.00349333,0.000106285,0.098633,1,6.54086e-05,-2.54849e-05,-2.9706e-06,0.0130817,-0.00509697,-0.000594121,0,0,0,0,0.0311831,0.523682,-0.964751,35.9375,3,59733,13276823
106,1,-0.34883,0.0119168,9.86332,0.351498,-0.603519,1.00343,-0.00349333,0.000106285,0.098633,1,6.54086e-05,-2.54849e-05,-2.9706e-06,0.0130817,-0.00509697,-0.000594121,0,0,0,0,0.0311831,0.523682,-0.964751,35.9375,3,59733,13276823
106,2,-0.52834,-0.0452045,9.81045,0.193158,-0.630759,0.97564,-0.00528456,-0.000458841,0.0981044,1,3.45055e-05,-5.91764e-06,2.4287e-06,0.00690111,-0.00118353,0.000485739,0,0,0,0,0.0322027,0.52315,-0.962747,35.9375,3,59734,13276923
106,3,-0.52834,-0.0452045,9.81045,0.193158,-0.630759,0.97564,-0.00528456,-0.000458841,0.0981044,1,3.45055e-05,-5.91764e-06,2.4287e-06,0.00690111,-0.00118353,0.000485739,0,0,0,0,0.0322027,0.52315,-0.962747,35.9375,3,59734,13276923
106,4,-0.612345,-0.203595,9.74388,0.0482163,-0.806535,0.903996,-0.00612884,-0.00204966,0.0974382,1,7.02591e-05,-2.76806e-05,2.17926e-06,0.0140518,-0.00553611,0.000435853,0,0,0,0,0.0312362,0.52268,-0.963258,35.9375,3,59735,13277023
107,1,-0.612345,-0.203595,9.74388,0.0482163,-0.806535,0.903996,-0.00612884,-0.00204966,0.0974382,1,7.02591e-05,-2.76806e-05,2.17926e-06,0.0140518,-0.00553611,0.000435853,0,0,0,0,0.0312362,0.52268,-0.963258,35.9375,3,59735,13277023
107,2,-0.318434,-0.0277881,9.83564,0.356265,-0.666086,0.965771,-0.00319033,-0.000293616,0.0983562,1,7.98291e-05,-3.04637e-05,4.90685e-06,0.0159658,-0.00609274,0.000981369,0,0,0,0,0.0312035,0.523185,-0.964257,35.9375,3,59736,13277123
107,3,-0.318434,-0.0277881,9.83564,0.356265,-0.666086,0.965771,-0.00319033,-0.000293616,0.0983562,1,7.98291e-05,-3.04637e-05,4.90685e-06,0.0159658,-0.00609274,0.000981369,0,0,0,0,0.0312035,0.523185,-0.964257,35.9375,3,59736,13277123
107,4,-0.424716,0.123866,9.83764,0.31077,-0.472551,0.996477,-0.00424543,0.0012279,0.0983766,1,5.49648e-05,8.72688e-06,-6.21525e-06,0.010993,0.00174538,-0.00124305,0,0,0,0,0.0306692,0.524192,-0.965747,35.9375,3,59737,13277223
108,1,-0.424716,0.123866,9.83764,0.31077,-0.472551,0.996477,-0.00424543,0.0012279,0.0983766,1,5.49648e-05,8.72688e-06,-6.21525e-06,0.010993,0.00174538,-0.00124305,0,0,0,0,0.0306692,0.524192,-0.965747,35.9375,3,59737,13277223
108,2,-0.59828,-0.110489,9.77374,0.0616009,-0.693353,0.932398,-0.00598691,-0.0011103,0.0977371,1,2.71035e-05,-2.11093e-05,9.35409e-06,0.0054207,-0.00422185,0.00187082,0,0,0,0,0.0306858,0.524662,-0.964727,35.9375,3,59738,13277323
108,3,-0.59828,-0.110489,9.77374,0.0616009,-0.693353,0.932398,-0.00598691,-0.0011103,0.0977371,1,2.71035e-05,-2.11093e-05,9.35409e-06,0.0054207,-0.00422185,0.00187082,0,0,0,0,0.0306858,0.524662,-0.964727,35.9375,3,59738,13277323
108,4,-0.266533,-0.121182,9.85654,0.406455,-0.755321,0.990581,-0.00267045,-0.0012277,0.0985651,1,8.07846e-05,-2.58636e-05,-9.46545e-06,0.0161569,-0.00517272,-0.00189309,0,0,0,0,0.0307266,0.523668,-0.963739,35.9375,3,59739,13277423
109,1,-0.266533,-0.121182,9.85654,0.406455,-0.755321,0.990581,-0.00267045,-0.0012277,0.0985651,1,8.07846e-05,-2.58636e-05,-9.46545e-06,0.0161569,-0.00517272,-0.00189309,0,0,0,0,0.0307266,0.523668,-0.963739,35.9375,3,59739,13277423
109,2,-0.493238,0.037709,9.84348,0.241436,-0.56584,1.00251,-0.00493111,0.000366231,0.098435,1,5.43186e-05,6.53004e-06,1.67395e-05,0.0108637,0.00130601,0.0033479,0,0,0,0,0.0317088,0.521718,-0.964292,35.9375,3,59740,13277523
109,3,-0.493238,0.037709,9.84348,0.241436,-0.56584,1.00251,-0.00493111,0.000366231,0.098435,1,5.43186e-05,6.53004e-06,1.67395e-05,0.0108637,0.00130601,0.0033479,0,0,0,0,0.0317088,0.521718,-0.964292,35.9375,3,59740,13277523
109,4,-0.621087,-0.0886797,9.78596,0.0238221,-0.683113,0.943146,-0.00621673,-0.000896841,0.0978591,1,5.08411e-05,-3.00143e-05,7.50066e-06,0.0101682,-0.00600287,0.00150013,0,0,0,0,0.0311622,0.522734,-0.966287,35.9375,3,59741,13277623
110,1,-0.621087,-0.0886797,9.78596,0.0238221,-0.683113,0.943146,-0.00621673,-0.000896841,0.0978591,1,5.08411e-05,-3.00143e-05,7.50066e-06,0.0101682,-0.00600287,0.00150013,0,0,0,0,0.0311622,0.522734,-0.966287,35.9375,3,59741,13277623
110,2,-0.28268,-0.112124,9.83841,0.426154,-0.747201,0.979162,-0.00283255,-0.00113138,0.0983838,1,5.12618e-05,-2.93792e-05,9.91735e-06,0.0102524,-0.00587584,0.00198347,0,0,0,0,0.0311907,0.521749,-0.965804,35.9375,3,59742,13277723
110,3,-0.28268,-0.112124,9.83841,0.426154,-0.747201,0.979162,-0.00283255,-0.00113138,0.0983838,1,5.12618e-05,-2.93792e-05,9.91735e-06,0.0102524,-0.00587584,0.00198347,0,0,0,0,0.0311907,0.521749,-0.965804,35.9375,3,59742,13277723
110,4,-0.698151,-0.052385,9.73455,0.0159872,-0.657194,0.908417,-0.00698214,-0.000533424,0.0973454,1,4.90044e-05,-3.25594e-06,2.39493e-06,0.00980087,-0.000651188,0.000478986,0,0,0,0,0.0321895,0.520269,-0.965336,35.9375,3,59743,13277823
110,5,-0.698151,-0.052385,9.73455,0.0159872,-0.657194,0.908417,-0.00698214,-0.000533424,0.0973454,1,4.90044e-05,-3.25594e-06,2.39493e-06,0.00980087,-0.000651188,0.000478986,0,0,0,0,0.0321895,0.520269,-0.965336,35.9375,3,59743,13277823
110,6,-0.516355,-0.105898,9.80614,0.0949672,-0.716924,0.941674,-0.0051714,-0.001071,0.0980608,1,6.1417e-05,-3.99687e-05,-2.70424e-06,0.0122834,-0.00799373,-0.000540847,0,0,0,0,0.0327318,0.518775,-0.963857,35.9375,3,59744,13277923
110,7,-0.516355,-0.105898,9.80614,0.0949672,-0.716924,0.941674,-0.0051714,-0.001071,0.0980608,1,6.1417e-05,-3.99687e-05,-2.70424e-06,0.0122834,-0.00799373,-0.000540847,0,0,0,0,0.0327318,0.518775,-0.963857,35.9375,3,59744,13277923
110,8,-0.339048,0.0435182,9.8608,0.420711,-0.601549,1.01121,-0.00339354,0.000423619,0.098608,1,5.83641e-05,-1.54787e-05,7.8405e-06,0.0116728,-0.00309574,0.0015681,0,0,0,0,0.0322673,0.519248,-0.962834,35.9375,3,59745,13278023
111,1,-0.339048,0.0435182,9.8608,0.420711,-0.601549,1.01121,-0.00339354,0.000423619,0.098608,1,5.83641e-05,-1.54787e-05,7.8405e-06,0.0116728,-0.00309574,0.0015681,0,0,0,0,0.0322673,0.519248,-0.962834,35.9375,3,59745,13278023
111,2,-0.727949,-0.075921,9.70504,-0.0878098,-0.666835,0.877454,-0.00728312,-0.000768761,0.0970501,1,4.86263e-05,-1.87549e-05,7.70903e-06,0.00972525,-0.00375098,0.00154181,0,0,0,0,0.0332181,0.52214,-0.961259,35.9375,3,59746,13278123
111,3,-0.727949,-0.075921,9.70504,-0.0878098,-0.666835,0.877454,-0.00728312,-0.000768761,0.0970501,1,4.86263e-05,-1.87549e-05,7.70903e-06,0.00972525,-0.00375098,0.00154181,0,0,0,0,0.0332181,0.52214,-0.961259,35.9375,3,59746,13278123
111,4,-0.352051,-0.0793851,9.87919,0.327028,-0.73106,1.01469,-0.003526,-0.000808663,0.0987915,1,7.47479e-05,-2.78222e-05,6.03012e-06,0.0149496,-0.00556444,0.00120602,0,0,0,0,0.0312291,0.526058,-0.961163,35.9375,3,59747,13278223
112,1,-0.352051,-0.0793851,9.87919,0.327028,-0.73106,1.01469,-0.003526,-0.000808663,0.0987915,1,7.47479e-05,-2.78222e-05,6.03012e-06,0.0149496,-0.00556444,0.00120602,0,0,0,0,0.0312291,0.526058,-0.961163,35.9375,3,59747,13278223
112,2,-0.43527,-0.0637289,9.79779,0.263139,-0.682147,0.972932,-0.00435235,-0.000644099,0.0979779,1,3.41776e-05,1.71371e-06,1.30087e-05,0.00683553,0.000342741,0.00260173,0,0,0,0,0.0316979,0.526063,-0.96167,35.9375,3,59748,13278323
112,3,-0.43527,-0.0637289,9.79779,0.263139,-0.682147,0.972932,-0.00435235,-0.000644099,0.0979779,1,3.41776e-05,1.71371e-06,1.30087e-05,0.00683553,0.000342741,0.00260173,0,0,0,0,0.0316979,0.526063,-0.96167,35.9375,3,59748,13278323
112,4,-0.680447,-0.0927,9.76598,0.00380724,-0.694617,0.903502,-0.00680682,-0.000939794,0.0976595,1,6.51964e-05,-1.20698e-05,4.33712e-06,0.0130393,-0.00241396,0.000867424,0,0,0,0,0.0306986,0.526098,-0.96318,35.9375,3,59749,13278423
113,1,-0.680447,-0.0927,9.76598,0.00380724,-0.694617,0.903502,-0.00680682,-0.000939794,0.0976595,1,6.51964e-05,-1.20698e-05,4.33712e-06,0.0130393,-0.00241396,0.000867424,0,0,0,0,0.0306986,0.526098,-0.96318,35.9375,3,59749,13278423
113,2,-0.440098,-0.0192365,9.80703,0.21458,-0.659754,0.946934,-0.00440643,-0.000202667,0.0980701,1,5.22975e-05,-2.77702e-05,4.97351e-06,0.0104595,-0.00555403,0.000994701,0,0,0,0,0.0292676,0.526101,-0.962668,35.9375,3,59750,13278523
113,3,-0.440098,-0.0192365,9.80703,0.21458,-0.659754,0.946934,-0.00440643,-0.000202667,0.0980701,1,5.22975e-05,-2.77702e-05,4.97351e-06,0.0104595,-0.00555403,0.000994701,0,0,0,0,0.0292676,0.526101,-0.962668,35.9375,3,59750,13278523
113,4,-0.56933,-0.0521714,9.79133,0.12838,-0.691165,0.959008,-0.00569265,-0.000527757,0.0979133,1,3.03687e-05,3.27643e-06,8.42099e-06,0.00607373,0.000655286,0.0016842,0,0,0,0,0.02926,0.528034,-0.961615,35.9375,3,59751,13278623
114,1,-0.56933,-0.0521714,9.79133,0.12838,-0.691165,0.959008,-0.00569265,-0.000527757,0.0979133,1,3.03687e-05,3.27643e-06,8.42099e-06,0.00607373,0.000655286,0.0016842,0,0,0,0,0.02926,0.528034,-0.961615,35.9375,3,59751,13278623
114,2,-0.469514,-0.0410296,9.78025,0.190152,-0.636299,0.929529,-0.0047031,-0.000417582,0.0978021,1,3.71802e-05,-4.07267e-05,1.42479e-06,0.00743605,-0.00814534,0.000284958,0,0,0,0,0.0292519,0.528522,-0.961604,35.9375,3,59752,13278723
114,3,-0.469514,-0.0410296,9.78025,0.190152,-0.636299,0.929529,-0.0047031,-0.000417582,0.0978021,1,3.71802e-05,-4.07267e-05,1.42479e-06,0.00743605,-0.00814534,0.000284958,0,0,0,0,0.0292519,0.528522,-0.961604,35.9375,3,59752,13278723
114,4,-0.405549,-0.118217,9.82121,0.273994,-0.697264,0.952102,-0.0040587,-0.0011908,0.0982119,1,4.41037e-05,-1.63017e-05,-4.24735e-06,0.00882074,-0.00326034,-0.000849469,0,0,0,0,0.0292396,0.528531,-0.962109,35.9375,3,59753,13278823
115,1,-0.405549,-0.118217,9.82121,0.273994,-0.697264,0.952102,-0.0040587,-0.0011908,0.0982119,1,4.41037e-05,-1.63017e-05,-4.24735e-06,0.00882074,-0.00326034,-0.000849469,0,0,0,0,0.0292396,0.528531,-0.962109,35.9375,3,59753,13278823
115,2,-0.362895,-0.118452,9.83958,0.310083,-0.706491,0.996986,-0.00363436,-0.00120016,0.0983954,1,7.93597e-05,-2.75263e-05,2.51847e-06,0.0158719,-0.00550527,0.000503693,0,0,0,0,0.0297568,0.525609,-0.962681,35.9375,3,59754,13278923
115,3,-0.362895,-0.118452,9.83958,0.310083,-0.706491,0.996986,-0.00363436,-0.00120016,0.0983954,1,7.93597e-05,-2.75263e-05,2.51847e-06,0.0158719,-0.00550527,0.000503693,0,0,0,0,0.0297568,0.525609,-0.962681,35.9375,3,59754,13278923
115,4,-0.591418,0.00581751,9.78961,0.110812,-0.660811,0.938223,-0.00591673,4.52688e-05,0.097896,1,6.58242e-05,-1.30511e-05,1.5591e-06,0.0131648,-0.00261023,0.000311821,0,0,0,0,0.0302375,0.52416,-0.963726,35.9375,3,59755,13279023
115,5,-0.591418,0.00581751,9.78961,0.110812,-0.660811,0.938223,-0.00591673,4.52688e-05,0.097896,1,6.58242e-05,-1.30511e-05,1.5591e-06,0.0131648,-0.00261023,0.000311821,0,0,0,0,0.0302375,0.52416,-0.963726,35.9375,3,59755,13279023
115,6,-0.396164,0.00878157,9.78629,0.234927,-0.627219,0.932765,-0.00396737,7.7716e-05,0.0978627,1,5.10794e-05,-2.92879e-05,1.28747e-05,0.0102159,-0.00585758,0.00257495,0,0,0,0,0.0302702,0.523654,-0.962727,35.9375,3,59756,13279123
116,1,-0.396164,0.00878157,9.78629,0.234927,-0.627219,0.932765,-0.00396737,7.7716e-05,0.0978627,1,5.10794e-05,-2.92879e-05,1.28747e-05,0.0102159,-0.00585758,0.00257495,0,0,0,0,0.0302702,0.523654,-0.962727,35.9375,3,59756,13279123
116,2,-0.542644,-0.0835538,9.78647,0.18884,-0.706134,0.936376,-0.00542624,-0.000843495,0.0978647,1,4.07863e-05,1.028e-06,-2.35048e-06,0.00815726,0.000205599,-0.000470096,0,0,0,0,0.0298465,0.523134,-0.960716,35.9375,3,59757,13279223
116,3,-0.542644,-0.0835538,9.78647,0.18884,-0.706134,0.936376,-0.00542624,-0.000843495,0.0978647,1,4.07863e-05,1.028e-06,-2.35048e-06,0.00815726,0.000205599,-0.000470096,0,0,0,0,0.0298465,0.523134,-0.960716,35.9375,3,59757,13279223
116,4,-0.429711,-0.0524034,9.76905,0.204402,-0.67062,0.912367,-0.00430358,-0.000529422,0.0976901,1,2.74944e-05,-3.31048e-05,1.89521e-06,0.00549888,-0.00662096,0.000379043,0,0,0,0,0.0303195,0.523618,-0.960708,35.9375,3,59758,13279323
117,1,-0.429711,-0.0524034,9.76905,0.204402,-0.67062,0.912367,-0.00430358,-0.000529422,0.0976901,1,2.74944e-05,-3.31048e-05,1.89521e-06,0.00549888,-0.00662096,0.000379043,0,0,0,0,0.0303195,0.523618,-0.960708,35.9375,3,59758,13279323
117,2,-0.368466,-0.180196,9.81909,0.319214,-0.735457,0.962971,-0.00368546,-0.001819,0.0981906,1,8.64882e-05,-4.25237e-06,7.58417e-06,0.0172976,-0.000850474,0.00151683,0,0,0,0,0.0302868,0.524124,-0.961706,35.9375,3,59759,13279423
117,3,-0.368466,-0.180196,9.81909,0.319214,-0.735457,0.962971,-0.00368546,-0.001819,0.0981906,1,8.64882e-05,-4.25237e-06,7.58417e-06,0.0172976,-0.000850474,0.00151683,0,0,0,0,0.0302868,0.524124,-0.961706,35.9375,3,59759,13279423
117,4,-0.470477,0.0905881,9.80276,0.222611,-0.609828,0.957216,-0.0047116,0.000890541,0.0980274,1,7.93636e-05,-3.5062e-05,-2.32794e-05,0.0158727,-0.00701241,-0.00465588,0,0,0,0,0.0302783,0.523166,-0.962738,35.9375,3,59760,13279523
118,1,-0.470477,0.0905881,9.80276,0.222611,-0.609828,0.957216,-0.0047116,0.000890541,0.0980274,1,7.93636e-05,-3.5062e-05,-2.32794e-05,0.0158727,-0.00701241,-0.00465588,0,0,0,0,0.0302783,0.523166,-0.962738,35.9375,3,59760,13279523
118,2,-0.43792,-0.0866294,9.80172,0.244664,-0.702825,0.957193,-0.00438297,-0.000863937,0.0980171,1,-1.22043e-05,-1.92971e-05,4.09139e-06,-0.00244086,-0.00385942,0.000818279,0,0,0,0,0.0288311,0.524145,-0.962204,35.9375,3,59761,13279623
118,3,-0.43792,-0.0866294,9.80172,0.244664,-0.702825,0.957193,-0.00438297,-0.000863937,0.0980171,1,-1.22043e-05,-1.92971e-05,4.09139e-06,-0.00244086,-0.00385942,0.000818279,0,0,0,0,0.0288311,0.524145,-0.962204,35.9375,3,59761,13279623
118,4,-0.446768,-0.148115,9.81279,0.201491,-0.66299,0.931956,-0.00447277,-0.0014943,0.0981275,1,6.73478e-05,-2.58424e-05,-7.05433e-06,0.0134696,-0.00516848,-0.00141087,0,0,0,0,0.0283709,0.525097,-0.960666,35.9375,3,59762,13279723
119,1,-0.446768,-0.148115,9.81279,0.201491,-0.66299,0.931956,-0.00447277,-0.0014943,0.0981275,1,6.73478e-05,-2.58424e-05,-7.05433e-06,0.0134696,-0.00516848,-0.00141087,0,0,0,0,0.0283709,0.525097,-0.960666,35.9375,3,59762,13279723
119,2,-0.455013,0.0990195,9.80678,0.253367,-0.520956,0.958304,-0.00455427,0.000976819,0.0980678,1,6.77909e-05,-2.10426e-05,8.78234e-06,0.0135582,-0.00420852,0.00175647,0,0,0,0,0.0268867,0.526103,-0.961647,35.9375,3,59763,13279823
119,3,-0.455013,0.0990195,9.80678,0.253367,-0.520956,0.958304,-0.00455427,0.000976819,0.0980678,1,6.77909e-05,-2.10426e-05,8.78234e-06,0.0135582,-0.00420852,0.00175647,0,0,0,0,0.0268867,0.526103,-0.961647,35.9375,3,59763,13279823
119,4,-0.46439,-0.0888533,9.75199,0.17116,-0.647457,0.912903,-0.00464996,-0.000895383,0.0975195,1,3.52991e-05,-3.10558e-05,-3.77512e-06,0.00705982,-0.00621116,-0.000755025,0,0,0,0,0.0283547,0.526073,-0.960644,35.9375,3,59764,13279923
120,1,-0.46439,-0.0888533,9.75199,0.17116,-0.647457,0.912903,-0.00464996,-0.000895383,0.0975195,1,3.52991e-05,-3.10558e-05,-3.77512e-06,0.00705982,-0.00621116,-0.000755025,0,0,0,0,0.0283547,0.526073,-0.960644,35.9375,3,59764,13279923
120,2,-0.40182,-0.0618602,9.81931,0.255025,-0.74188,0.966922,-0.00402415,-0.000631665,0.0981927,1,6.72509e-05,-3.01525e-05,-1.79127e-05,0.0134502,-0.0060305,-0.00358255,0,0,0,0,0.0274371,0.524121,-0.960178,35.9375,3,59765,13280023
120,3,-0.40182,-0.0618602,9.81931,0.255025,-0.74188,0.966922,-0.00402415,-0.000631665,0.0981927,1,6.72509e-05,-3.01525e-05,-1.79127e-05,0.0134502,-0.0060305,-0.00358255,0,0,0,0,0.0274371,0.524121,-0.960178,35.9375,3,59765,13280023
120,4,-0.323219,-0.0324629,9.84276,0.351262,-0.691715,0.984771,-0.00323553,-0.000328582,0.0984275,1,2.02619e-05,-1.69315e-05,-5.53002e-06,0.00405238,-0.0033863,-0.001106,0,0,0,0,0.0274162,0.523172,-0.961714,35.9375,3,59766,13280123
120,5,-0.323219,-0.0324629,9.84276,0.351262,-0.691715,0.984771,-0.00323553,-0.000328582,0.0984275,1,2.02619e-05,-1.69315e-05,-5.53002e-06,0.00405238,-0.0033863,-0.001106,0,0,0,0,0.0274162,0.523172,-0.961714,35.9375,3,59766,13280123
120,6,-0.529379,-0.156772,9.78884,0.159184,-0.722173,0.930816,-0.00529986,-0.00157867,0.0978879,1,5.57117e-05,-3.10449e-05,4.23888e-06,0.0111423,-0.00620899,0.000847776,0,0,0,0,0.0283623,0.52414,-0.961697,35.9375,3,59767,13280223
121,1,-0.529379,-0.156772,9.78884,0.159184,-0.722173,0.930816,-0.00529986,-0.00157867,0.0978879,1,5.57117e-05,-3.10449e-05,4.23888e-06,0.0111423,-0.00620899,0.000847776,0,0,0,0,0.0283623,0.52414,-0.961697,35.9375,3,59767,13280223
121,2,-0.332539,-0.0858025,9.79726,0.263172,-0.723435,0.950225,-0.003328,-0.000871087,0.0979724,1,6.65375e-05,-1.33439e-05,3.66942e-06,0.0133075,-0.00266879,0.000733885,0,0,0,0,0.0264995,0.524111,-0.959164,35.9375,3,59768,13280323
121,3,-0.332539,-0.0858025,9.79726,0.263172,-0.723435,0.950225,-0.003328,-0.000871087,0.0979724,1,6.65375e-05,-1.33439e-05,3.66942e-06,0.0133075,-0.00266879,0.000733885,0,0,0,0,0.0264995,0.524111,-0.959164,35.9375,3,59768,13280323
121,4,-0.513462,-0.00689714,9.84766,0.240608,-0.683089,0.987786,-0.00513601,-7.70938e-05,0.0984765,1,4.11645e-05,-7.05382e-06,1.44583e-06,0.0082329,-0.00141076,0.000289166,0,0,0,0,0.0279187,0.525562,-0.959138,35.9375,3,59769,13280423
122,1,-0.513462,-0.00689714,9.84766,0.240608,-0.683089,0.987786,-0.00513601,-7.70938e-05,0.0984765,1,4.11645e-05,-7.05382e-06,1.44583e-06,0.0082329,-0.00141076,0.000289166,0,0,0,0,0.0279187,0.525562,-0.959138,35.9375,3,59769,13280423
122,2,-0.331995,-0.0423453,9.84919,0.270987,-0.696683,0.987617,-0.00332825,-0.000432557,0.0984916,1,4.62885e-05,-4.2137e-05,-2.07681e-06,0.00925769,-0.0084274,-0.000415362,0,0,0,0,0.0288069,0.525608,-0.962172,35.9375,3,59770,13280523
122,3,-0.331995,-0.0423453,9.84919,0.270987,-0.696683,0.987617,-0.00332825,-0.000432557,0.0984916,1,4.62885e-05,-4.2137e-05,-2.07681e-06,0.00925769,-0.0084274,-0.000415362,0,0,0,0,0.0288069,0.525608,-0.962172,35.9375,3,59770,13280523
