frame_id,imu_idx,accel_x,accel_y,accel_z,free_accel_x,free_accel_y,free_accel_z,delta_v_x,delta_v_y,delta_v_z,delta_q_w,delta_q_x,delta_q_y,delta_q_z,rate_x,rate_y,rate_z,quat_w,quat_x,quat_y,quat_z,mag_x,mag_y,mag_z,temperature,status_byte,packet_counter,time_fine
494,1,0,0,0,0,0,0,0,0,0,0,0,0,0,0,0,0,0,0,0,0,0,0,0,0,0,0,0
494,2,-0.484363,-0.0516487,7.33678,0,0,0,-0.00484733,-0.000522102,0.0733675,1,3.66627e-05,-2.53502e-05,2.42033e-05,0.00733253,-0.00507005,0.00484066,0,0,0,0,0.017516,0.516093,-0.99819,34.1875,1,16393,48114176
1,1,-0.484363,-0.0516487,7.33678,0,0,0,-0.00484733,-0.000522102,0.0733675,1,3.66627e-05,-2.53502e-05,2.42033e-05,0.00733253,-0.00507005,0.00484066,0,0,0,0,0.017516,0.516093,-0.99819,34.1875,1,16393,48114176
1,2,-0.67685,-0.082065,9.79523,0.084779,-0.515487,1.00518,-0.00676712,-0.000829795,0.0979523,1,4.51729e-05,6.88031e-06,2.1778e-05,0.00903459,0.00137606,0.0043556,0,0,0,0,0.0189223,0.516108,-0.999712,34.1875,1,16394,48114276
2,1,-0.67685,-0.082065,9.79523,0.084779,-0.515487,1.00518,-0.00676712,-0.000829795,0.0979523,1,4.51729e-05,6.88031e-06,2.1778e-05,0.00903459,0.00137606,0.0043556,0,0,0,0,0.0189223,0.516108,-0.999712,34.1875,1,16394,48114276
2,2,-0.673787,-0.0707298,9.79666,0.0863827,-0.506798,1.00602,-0.00673827,-0.000716116,0.0979665,1,4.39081e-05,-2.16836e-06,1.59088e-05,0.00878163,-0.000433671,0.00318176,0,0,0,0,0.0180085,0.51319,-0.999772,34.1875,1,16395,48114376
3,1,-0.673787,-0.0707298,9.79666,0.0863827,-0.506798,1.00602,-0.00673827,-0.000716116,0.0979665,1,4.39081e-05,-2.16836e-06,1.59088e-05,0.00878163,-0.000433671,0.00318176,0,0,0,0,0.0180085,0.51319,-0.999772,34.1875,1,16395,48114376
3,2,-0.667104,-0.0708018,9.79051,0.0932096,-0.506192,1.00508,-0.00667277,-0.000713767,0.0979049,1,2.80773e-05,-8.99457e-06,1.87683e-05,0.00561547,-0.00179891,0.00375366,0,0,0,0,0.0176251,0.510231,-0.997816,34.1875,1,16396,48114476
7,1,-0.667104,-0.0708018,9.79051,0.0932096,-0.506192,1.00508,-0.00667277,-0.000713767,0.0979049,1,2.80773e-05,-8.99457e-06,1.87683e-05,0.00561547,-0.00179891,0.00375366,0,0,0,0,0.0176251,0.510231,-0.997816,34.1875,1,16396,48114476
7,2,-0.673819,-0.0820578,9.78232,0.0843543,-0.515972,0.991133,-0.00673811,-0.000832289,0.0978231,1,5.87944e-05,2.86975e-07,1.53929e-05,0.0117589,5.73949e-05,0.00307858,0,0,0,0,0.0181361,0.513578,-0.994209,34.1875,1,16397,48114576
8,1,-0.673819,-0.0820578,9.78232,0.0843543,-0.515972,0.991133,-0.00673811,-0.000832289,0.0978231,1,5.87944e-05,2.86975e-07,1.53929e-05,0.0117589,5.73949e-05,0.00307858,0,0,0,0,0.0181361,0.513578,-0.994209,34.1875,1,16397,48114576
8,2,-0.673713,-0.0799557,9.79421,0.0857604,-0.51257,1.00208,-0.0067381,-0.000809058,0.0979419,1,4.71137e-05,-5.15419e-06,2.02134e-05,0.00942274,-0.00103084,0.00404268,0,0,0,0,0.019058,0.516009,-0.994159,34.1875,1,16398,48114676
9,1,-0.673713,-0.0799557,9.79421,0.0857604,-0.51257,1.00208,-0.0067381,-0.000809058,0.0979419,1,4.71137e-05,-5.15419e-06,2.02134e-05,0.00942274,-0.00103084,0.00404268,0,0,0,0,0.019058,0.516009,-0.994159,34.1875,1,16398,48114676
9,2,-0.660574,-0.0653827,9.76814,0.100421,-0.502279,0.972678,-0.00660945,-0.000660771,0.0976811,1,3.48389e-05,-1.90979e-05,1.04194e-05,0.00696778,-0.00381957,0.00208388,0,0,0,0,0.0194485,0.515589,-0.99821,34.1875,1,16399,48114776
10,1,-0.660574,-0.0653827,9.76814,0.100421,-0.502279,0.972678,-0.00660945,-0.000660771,0.0976811,1,3.48389e-05,-1.90979e-05,1.04194e-05,0.00696778,-0.00381957,0.00208388,0,0,0,0,0.0194485,0.515589,-0.99821,34.1875,1,16399,48114776
10,2,-0.689022,-0.081706,9.79497,0.0706178,-0.525612,1.00256,-0.0068901,-0.000826405,0.0979497,1,4.63482e-05,4.32108e-07,1.92038e-05,0.00926964,8.64217e-05,0.00384075,0,0,0,0,0.0208833,0.51462,-0.999249,34.1875,1,16400,48114876
11,1,-0.689022,-0.081706,9.79497,0.0706178,-0.525612,1.00256,-0.0068901,-0.000826405,0.0979497,1,4.63482e-05,4.32108e-07,1.92038e-05,0.00926964,8.64217e-05,0.00384075,0,0,0,0,0.0208833,0.51462,-0.999249,34.1875,1,16400,48114876
11,2,-0.670931,-0.08261,9.78942,0.0874724,-0.525715,1.00012,-0.00671214,-0.000835784,0.097894,1,4.77209e-05,-1.46293e-05,2.53842e-05,0.00954418,-0.00292587,0.00507685,0,0,0,0,0.0190319,0.511691,-0.998295,34.1875,1,16401,48114976
12,1,-0.670931,-0.08261,9.78942,0.0874724,-0.525715,1.00012,-0.00671214,-0.000835784,0.097894,1,4.77209e-05,-1.46293e-05,2.53842e-05,0.00954418,-0.00292587,0.00507685,0,0,0,0,0.0190319,0.511691,-0.998295,34.1875,1,16401,48114976
12,2,-0.677605,-0.0639703,9.79369,0.0789785,-0.505586,1.00598,-0.00677903,-0.000647856,0.0979367,1,3.9836e-05,-1.54172e-05,2.58931e-05,0.0079672,-0.00308345,0.00517863,0,0,0,0,0.0171853,0.510687,-0.995784,34.1875,1,16402,48115076
10,1,-0.677605,-0.0639703,9.79369,0.0789785,-0.505586,1.00598,-0.00677903,-0.000647856,0.0979367,1,3.9836e-05,-1.54172e-05,2.58931e-05,0.0079672,-0.00308345,0.00517863,0,0,0,0,0.0171853,0.510687,-0.995784,34.1875,1,16402,48115076
10,2,-0.672691,-0.0641378,9.78011,0.0805802,-0.502388,0.988978,-0.00673087,-0.000649125,0.0978007,1,3.86426e-05,-2.03101e-05,1.39957e-05,0.00772852,-0.00406202,0.00279914,0,0,0,0,0.01812,0.514554,-0.994187,34.1875,1,16403,48115176
14,1,-0.672691,-0.0641378,9.78011,0.0805802,-0.502388,0.988978,-0.00673087,-0.000649125,0.0978007,1,3.86426e-05,-2.03101e-05,1.39957e-05,0.00772852,-0.00406202,0.00279914,0,0,0,0,0.01812,0.514554,-0.994187,34.1875,1,16403,48115176
14,2,-0.676137,-0.072007,9.78921,0.0831855,-0.510229,0.994712,-0.00676383,-0.00073027,0.0978918,1,5.06826e-05,-1.27363e-05,2.04799e-05,0.0101365,-0.00254727,0.00409597,0,0,0,0,0.019979,0.515549,-0.996194,34.1875,1,16404,48115276
15,1,-0.676137,-0.072007,9.78921,0.0831855,-0.510229,0.994712,-0.00676383,-0.00073027,0.0978918,1,5.06826e-05,-1.27363e-05,2.04799e-05,0.0101365,-0.00254727,0.00409597,0,0,0,0,0.019979,0.515549,-0.996194,34.1875,1,16404,48115276
15,2,-0.674114,-0.0680774,9.79093,0.0845703,-0.511475,0.993026,-0.00674299,-0.00068947,0.0979091,1,4.26043e-05,-9.66189e-06,2.61774e-05,0.00852087,-0.00193238,0.00523549,0,0,0,0,0.0203699,0.516575,-0.999203,34.1875,1,16405,48115376
16,1,-0.674114,-0.0680774,9.79093,0.0845703,-0.511475,0.993026,-0.00674299,-0.00068947,0.0979091,1,4.26043e-05,-9.66189e-06,2.61774e-05,0.00852087,-0.00193238,0.00523549,0,0,0,0,0.0203699,0.516575,-0.999203,34.1875,1,16405,48115376
16,2,-0.674775,-0.07653,9.78848,0.0785084,-0.524795,0.997805,-0.00674931,-0.000773947,0.0978847,1,4.31407e-05,-8.07087e-06,1.48974e-05,0.00862814,-0.00161417,0.00297949,0,0,0,0,0.0203941,0.515112,-0.999235,34.1875,1,16406,48115476
17,1,-0.674775,-0.07653,9.78848,0.0785084,-0.524795,0.997805,-0.00674931,-0.000773947,0.0978847,1,4.31407e-05,-8.07087e-06,1.48974e-05,0.00862814,-0.00161417,0.00297949,0,0,0,0,0.0203941,0.515112,-0.999235,34.1875,1,16406,48115476
17,2,-0.669872,-0.068331,9.78546,0.0870118,-0.516785,0.992877,-0.00669853,-0.000690762,0.0978546,1,3.77316e-05,9.2574e-07,5.07765e-06,0.00754632,0.000185148,0.00101553,0,0,0,0,0.0190158,0.512667,-0.998273,34.1875,1,16407,48115576
18,1,-0.669872,-0.068331,9.78546,0.0870118,-0.516785,0.992877,-0.00669853,-0.000690762,0.0978546,1,3.77316e-05,9.2574e-07,5.07765e-06,0.00754632,0.000185148,0.00101553,0,0,0,0,0.0190158,0.512667,-0.998273,34.1875,1,16407,48115576
18,2,-0.680521,-0.0819526,9.78677,0.0744016,-0.529688,0.996131,-0.00680611,-0.000829882,0.0978676,1,5.1938e-05,-4.68255e-06,1.3912e-05,0.0103876,-0.000936511,0.0027824,0,0,0,0,0.0171981,0.512123,-0.994237,34.1875,1,16408,48115676
19,1,-0.680521,-0.0819526,9.78677,0.0744016,-0.529688,0.996131,-0.00680611,-0.000829882,0.0978676,1,5.1938e-05,-4.68255e-06,1.3912e-05,0.0103876,-0.000936511,0.0027824,0,0,0,0,0.0171981,0.512123,-0.994237,34.1875,1,16408,48115676
19,2,-0.673987,-0.0846078,9.78976,0.0842151,-0.531343,0.99863,-0.00674189,-0.000857136,0.0978974,1,5.57602e-05,-1.03971e-05,1.04215e-05,0.011152,-0.00207942,0.00208431,0,0,0,0,0.0186049,0.513583,-0.994716,34.1875,1,16409,48115776
20,1,-0.673987,-0.0846078,9.78976,0.0842151,-0.531343,0.99863,-0.00674189,-0.000857136,0.0978974,1,5.57602e-05,-1.03971e-05,1.04215e-05,0.011152,-0.00207942,0.00208431,0,0,0,0,0.0186049,0.513583,-0.994716,34.1875,1,16409,48115776
20,2,-0.668596,-0.07913,9.7813,0.0902281,-0.522967,0.985879,-0.00668888,-0.000799333,0.0978127,1,4.06056e-05,-1.49943e-05,6.66832e-06,0.00812113,-0.00299887,0.00133366,0,0,0,0,0.0209901,0.51406,-0.995221,34.1875,1,16410,48115876
21,1,-0.668596,-0.07913,9.7813,0.0902281,-0.522967,0.985879,-0.00668888,-0.000799333,0.0978127,1,4.06056e-05,-1.49943e-05,6.66832e-06,0.00812113,-0.00299887,0.00133366,0,0,0,0,0.0209901,0.51406,-0.995221,34.1875,1,16410,48115876
21,2,-0.674661,-0.0763715,9.7912,0.0815327,-0.526875,0.998617,-0.00674986,-0.000774466,0.0979117,1,5.37168e-05,-1.67471e-05,1.72501e-05,0.0107434,-0.00334942,0.00345001,0,0,0,0,0.0199623,0.51508,-0.997214,34.1875,1,16411,48115976
22,1,-0.674661,-0.0763715,9.7912,0.0815327,-0.526875,0.998617,-0.00674986,-0.000774466,0.0979117,1,5.37168e-05,-1.67471e-05,1.72501e-05,0.0107434,-0.00334942,0.00345001,0,0,0,0,0.0199623,0.51508,-0.997214,34.1875,1,16411,48115976
22,2,-0.67025,-0.0870373,9.79006,0.081252,-0.536159,0.997216,-0.00670432,-0.000873584,0.0979005,1,1.49068e-05,-9.49748e-06,2.17743e-05,0.00298135,-0.0018995,0.00435487,0,0,0,0,0.0189508,0.515124,-0.999229,34.1875,1,16412,48116076
23,1,-0.67025,-0.0870373,9.79006,0.081252,-0.536159,0.997216,-0.00670432,-0.000873584,0.0979005,1,1.49068e-05,-9.49748e-06,2.17743e-05,0.00298135,-0.0018995,0.00435487,0,0,0,0,0.0189508,0.515124,-0.999229,34.1875,1,16412,48116076
23,2,-0.674155,-0.0741123,9.78815,0.0826627,-0.525169,0.99236,-0.00674215,-0.000750562,0.0978814,1,4.60018e-05,-3.356e-06,3.2179e-05,0.00920036,-0.0006712,0.00643581,0,0,0,0,0.0170875,0.513649,-0.997737,34.1875,1,16413,48116176
24,1,-0.674155,-0.0741123,9.78815,0.0826627,-0.525169,0.99236,-0.00674215,-0.000750562,0.0978814,1,4.60018e-05,-3.356e-06,3.2179e-05,0.00920036,-0.0006712,0.00643581,0,0,0,0,0.0170875,0.513649,-0.997737,34.1875,1,16413,48116176
24,2,-0.666618,-0.0747792,9.78606,0.08841,-0.525866,0.991404,-0.00666769,-0.00075561,0.0978605,1,3.84134e-05,-7.89763e-06,2.25155e-05,0.00768268,-0.00157953,0.00450311,0,0,0,0,0.0171653,0.512629,-0.995235,34.1875,1,16414,48116276
25,1,-0.666618,-0.0747792,9.78606,0.08841,-0.525866,0.991404,-0.00666769,-0.00075561,0.0978605,1,3.84134e-05,-7.89763e-06,2.25155e-05,0.00768268,-0.00157953,0.00450311,0,0,0,0,0.0171653,0.512629,-0.995235,34.1875,1,16414,48116276
25,2,-0.684818,-0.0847344,9.78849,0.0741957,-0.536702,0.997187,-0.00685055,-0.000856708,0.0978846,1,4.65011e-05,-1.22635e-05,1.90454e-05,0.00930021,-0.00245271,0.00380908,0,0,0,0,0.0166643,0.514575,-0.994685,34.1875,1,16415,48116376
26,1,-0.684818,-0.0847344,9.78849,0.0741957,-0.536702,0.997187,-0.00685055,-0.000856708,0.0978846,1,4.65011e-05,-1.22635e-05,1.90454e-05,0.00930021,-0.00245271,0.00380908,0,0,0,0,0.0166643,0.514575,-0.994685,34.1875,1,16415,48116376
26,2,-0.685348,-0.0749411,9.78789,0.0677051,-0.531159,0.994696,-0.00685539,-0.000756436,0.0978787,1,3.4958e-05,-9.89634e-06,1.32697e-05,0.00699161,-0.00197927,0.00265393,0,0,0,0,0.0185318,0.516528,-0.99566,34.1875,1,16416,48116476
27,1,-0.685348,-0.0749411,9.78789,0.0677051,-0.531159,0.994696,-0.00685539,-0.000756436,0.0978787,1,3.4958e-05,-9.89634e-06,1.32697e-05,0.00699161,-0.00197927,0.00265393,0,0,0,0,0.0185318,0.516528,-0.99566,34.1875,1,16416,48116476
27,2,-0.678457,-0.0700499,9.80078,0.0809635,-0.527184,1.00658,-0.00678809,-0.000710751,0.0980075,1,5.16696e-05,-1.80083e-05,9.14235e-06,0.0103339,-0.00360166,0.00182847,0,0,0,0,0.0198807,0.517067,-0.99919,34.1875,1,16417,48116576
28,1,-0.678457,-0.0700499,9.80078,0.0809635,-0.527184,1.00658,-0.00678809,-0.000710751,0.0980075,1,5.16696e-05,-1.80083e-05,9.14235e-06,0.0103339,-0.00360166,0.00182847,0,0,0,0,0.0198807,0.517067,-0.99919,34.1875,1,16417,48116576
28,2,-0.666916,-0.0777194,9.79113,0.0859935,-0.533903,0.998657,-0.00667109,-0.000787783,0.0979111,1,5.35361e-05,-9.91131e-06,7.89954e-06,0.0107072,-0.00198226,0.00157991,0,0,0,0,0.0198641,0.516597,-1.00021,34.1875,1,16418,48116676
29,1,-0.666916,-0.0777194,9.79113,0.0859935,-0.533903,0.998657,-0.00667109,-0.000787783,0.0979111,1,5.35361e-05,-9.91131e-06,7.89954e-06,0.0107072,-0.00198226,0.00157991,0,0,0,0,0.0198641,0.516597,-1.00021,34.1875,1,16418,48116676
29,2,-0.672137,-0.0797164,9.78809,0.0828868,-0.540558,0.998914,-0.00672138,-0.000809469,0.0978808,1,6.09736e-05,-2.40503e-07,2.74165e-05,0.0121947,-4.81006e-05,0.00548329,0,0,0,0,0.0199415,0.514131,-0.99875,34.1875,1,16419,48116776
30,1,-0.672137,-0.0797164,9.78809,0.0828868,-0.540558,0.998914,-0.00672138,-0.000809469,0.0978808,1,6.09736e-05,-2.40503e-07,2.74165e-05,0.0121947,-4.81006e-05,0.00548329,0,0,0,0,0.0199415,0.514131,-0.99875,34.1875,1,16419,48116776
30,2,-0.672693,-0.0754732,9.79085,0.0806011,-0.533827,1.00414,-0.0067288,-0.000763669,0.0979083,1,4.39863e-05,-9.72336e-06,2.40411e-05,0.00879726,-0.00194467,0.00480823,0,0,0,0,0.0186006,0.513104,-0.995231,34.1875,1,16420,48116876
31,1,-0.672693,-0.0754732,9.79085,0.0806011,-0.533827,1.00414,-0.0067288,-0.000763669,0.0979083,1,4.39863e-05,-9.72336e-06,2.40411e-05,0.00879726,-0.00194467,0.00480823,0,0,0,0,0.0186006,0.513104,-0.995231,34.1875,1,16420,48116876
31,2,-0.675815,-0.0840508,9.78266,0.0838213,-0.54708,0.989831,-0.00675878,-0.000848137,0.0978265,1,3.80334e-05,-3.3324e-06,1.38749e-05,0.00760667,-0.00066648,0.00277497,0,0,0,0,0.0186419,0.513556,-0.993201,34.1875,1,16421,48116976
32,1,-0.675815,-0.0840508,9.78266,0.0838213,-0.54708,0.989831,-0.00675878,-0.000848137,0.0978265,1,3.80334e-05,-3.3324e-06,1.38749e-05,0.00760667,-0.00066648,0.00277497,0,0,0,0,0.0186419,0.513556,-0.993201,34.1875,1,16421,48116976
32,2,-0.669528,-0.07882,9.79251,0.0836417,-0.539968,0.997184,-0.00669656,-0.000798908,0.0979249,1,5.38771e-05,-6.6069e-06,1.16745e-05,0.0107754,-0.00132138,0.00233489,0,0,0,0,0.0210309,0.513066,-0.994233,34.1875,1,16422,48117076
33,1,-0.669528,-0.07882,9.79251,0.0836417,-0.539968,0.997184,-0.00669656,-0.000798908,0.0979249,1,5.38771e-05,-6.6069e-06,1.16745e-05,0.0107754,-0.00132138,0.00233489,0,0,0,0,0.0210309,0.513066,-0.994233,34.1875,1,16422,48117076
33,2,-0.671975,-0.0786482,9.78777,0.0844766,-0.538969,0.988503,-0.00672199,-0.000793944,0.0978775,1,3.64371e-05,-1.16397e-05,2.45402e-05,0.00728743,-0.00232794,0.00490805,0,0,0,0,0.0199377,0.515098,-0.998224,34.1875,1,16423,48117176
34,1,-0.671975,-0.0786482,9.78777,0.0844766,-0.538969,0.988503,-0.00672199,-0.000793944,0.0978775,1,3.64371e-05,-1.16397e-05,2.45402e-05,0.00728743,-0.00232794,0.00490805,0,0,0,0,0.0199377,0.515098,-0.998224,34.1875,1,16423,48117176
34,2,-0.674208,-0.0825825,9.78672,0.0751506,-0.54785,0.995401,-0.00674209,-0.000836292,0.0978671,1,5.17422e-05,-2.95877e-07,2.51591e-05,0.0103484,-5.91753e-05,0.00503182,0,0,0,0,0.0179719,0.514662,-1.00024,34.1875,1,16424,48117276
35,1,-0.674208,-0.0825825,9.78672,0.0751506,-0.54785,0.995401,-0.00674209,-0.000836292,0.0978671,1,5.17422e-05,-2.95877e-07,2.51591e-05,0.0103484,-5.91753e-05,0.00503182,0,0,0,0,0.0179719,0.514662,-1.00024,34.1875,1,16424,48117276
35,2,-0.66731,-0.0757645,9.7803,0.086343,-0.541146,0.989242,-0.00667532,-0.000765411,0.0978028,1,3.89237e-05,-1.14088e-05,1.13602e-05,0.00778474,-0.00228175,0.00227204,0,0,0,0,0.0170382,0.513685,-0.999757,34.1875,1,16425,48117376
36,1,-0.66731,-0.0757645,9.7803,0.086343,-0.541146,0.989242,-0.00667532,-0.000765411,0.0978028,1,3.89237e-05,-1.14088e-05,1.13602e-05,0.00778474,-0.00228175,0.00227204,0,0,0,0,0.0170382,0.513685,-0.999757,34.1875,1,16425,48117376
36,2,-0.671058,-0.0724084,9.79154,0.0897596,-0.537204,1.00252,-0.00671164,-0.000732183,0.0979153,1,4.0466e-05,-5.49478e-06,1.30366e-05,0.0080932,-0.00109896,0.00260733,0,0,0,0,0.0171364,0.512168,-0.996761,34.1875,1,16426,48117476
37,1,-0.671058,-0.0724084,9.79154,0.0897596,-0.537204,1.00252,-0.00671164,-0.000732183,0.0979153,1,4.0466e-05,-5.49478e-06,1.30366e-05,0.0080932,-0.00109896,0.00260733,0,0,0,0,0.0171364,0.512168,-0.996761,34.1875,1,16426,48117476
37,2,-0.677526,-0.0766128,9.80003,0.0752466,-0.538439,1.00885,-0.00677511,-0.000775697,0.0980002,1,4.73763e-05,5.86939e-07,2.08376e-05,0.00947525,0.000117388,0.00416752,0,0,0,0,0.018091,0.514093,-0.995712,34.1875,1,16427,48117576
38,1,-0.677526,-0.0766128,9.80003,0.0752466,-0.538439,1.00885,-0.00677511,-0.000775697,0.0980002,1,4.73763e-05,5.86939e-07,2.08376e-05,0.00947525,0.000117388,0.00416752,0,0,0,0,0.018091,0.514093,-0.995712,34.1875,1,16427,48117576
38,2,-0.686316,-0.0724255,9.78995,0.0656691,-0.54115,0.996209,-0.00686598,-0.00073544,0.0978992,1,5.5952e-05,-1.4538e-05,1.67862e-05,0.0111904,-0.00290759,0.00335725,0,0,0,0,0.0190129,0.516524,-0.995662,34.1875,1,16428,48117676
39,1,-0.686316,-0.0724255,9.78995,0.0656691,-0.54115,0.996209,-0.00686598,-0.00073544,0.0978992,1,5.5952e-05,-1.4538e-05,1.67862e-05,0.0111904,-0.00290759,0.00335725,0,0,0,0,0.0190129,0.516524,-0.995662,34.1875,1,16428,48117676
39,2,-0.673898,-0.0751298,9.79257,0.0817677,-0.54259,0.995561,-0.00674319,-0.000761778,0.0979253,1,5.11558e-05,-2.17633e-05,3.41625e-05,0.0102312,-0.00435266,0.0068325,0,0,0,0,0.018445,0.515146,-1.00024,34.1875,1,16429,48117776
40,1,-0.673898,-0.0751298,9.79257,0.0817677,-0.54259,0.995561,-0.00674319,-0.000761778,0.0979253,1,5.11558e-05,-2.17633e-05,3.41625e-05,0.0102312,-0.00435266,0.0068325,0,0,0,0,0.018445,0.515146,-1.00024,34.1875,1,16429,48117776
40,2,-0.672404,-0.0637643,9.794,0.0803293,-0.536508,1.00149,-0.00672695,-0.000647873,0.0979397,1,5.09898e-05,-1.49852e-05,1.80063e-05,0.010198,-0.00299704,0.00360127,0,0,0,0,0.0193902,0.513223,-1.0023,34.1875,1,16430,48117876
41,1,-0.672404,-0.0637643,9.794,0.0803293,-0.536508,1.00149,-0.00672695,-0.000647873,0.0979397,1,5.09898e-05,-1.49852e-05,1.80063e-05,0.010198,-0.00299704,0.00360127,0,0,0,0,0.0193902,0.513223,-1.0023,34.1875,1,16430,48117876
41,2,-0.682867,-0.0695972,9.78996,0.0732066,-0.543315,0.999667,-0.00683095,-0.000707838,0.0978993,1,5.91783e-05,-1.17867e-05,2.04682e-05,0.0118357,-0.00235734,0.00409363,0,0,0,0,0.0179962,0.513199,-1.00028,34.1875,1,16431,48117976
42,1,-0.682867,-0.0695972,9.78996,0.0732066,-0.543315,0.999667,-0.00683095,-0.000707838,0.0978993,1,5.91783e-05,-1.17867e-05,2.04682e-05,0.0118357,-0.00235734,0.00409363,0,0,0,0,0.0179962,0.513199,-1.00028,34.1875,1,16431,48117976
42,2,-0.677341,-0.076629,9.80139,0.0778554,-0.545872,1.01264,-0.00677673,-0.000776292,0.0980136,1,4.96208e-05,-1.7101e-05,2.02955e-05,0.00992416,-0.0034202,0.00405909,0,0,0,0,0.0166714,0.511196,-0.99678,34.1875,1,16432,48118076
43,1,-0.677341,-0.076629,9.80139,0.0778554,-0.545872,1.01264,-0.00677673,-0.000776292,0.0980136,1,4.96208e-05,-1.7101e-05,2.02955e-05,0.00992416,-0.0034202,0.00405909,0,0,0,0,0.0166714,0.511196,-0.99678,34.1875,1,16432,48118076
43,2,-0.669999,-0.0714543,9.78782,0.0818336,-0.545375,0.996479,-0.00670357,-0.000727244,0.0978778,1,6.37863e-05,-1.84419e-05,1.59874e-05,0.0127573,-0.00368838,0.00319747,0,0,0,0,0.0186619,0.511614,-0.99375,34.1875,1,16433,48118176
44,1,-0.669999,-0.0714543,9.78782,0.0818336,-0.545375,0.996479,-0.00670357,-0.000727244,0.0978778,1,6.37863e-05,-1.84419e-05,1.59874e-05,0.0127573,-0.00368838,0.00319747,0,0,0,0,0.0186619,0.511614,-0.99375,34.1875,1,16433,48118176
44,2,-0.666278,-0.0785313,9.78434,0.0857162,-0.553068,0.99008,-0.00666415,-0.000794256,0.0978432,1,4.51673e-05,-7.05381e-06,7.86023e-06,0.00903346,-0.00141076,0.00157205,0,0,0,0,0.0205175,0.515022,-0.994187,34.1875,1,16434,48118276
45,1,-0.666278,-0.0785313,9.78434,0.0857162,-0.553068,0.99008,-0.00666415,-0.000794256,0.0978432,1,4.51673e-05,-7.05381e-06,7.86023e-06,0.00903346,-0.00141076,0.00157205,0,0,0,0,0.0205175,0.515022,-0.994187,34.1875,1,16434,48118276
45,2,-0.678194,-0.0771166,9.78544,0.0713234,-0.547541,0.988572,-0.00678426,-0.000781473,0.0978542,1,5.19509e-05,-1.19492e-05,1.0269e-05,0.0103902,-0.00238985,0.00205379,0,0,0,0,0.0189266,0.516587,-0.999196,34.1875,1,16435,48118376
46,1,-0.678194,-0.0771166,9.78544,0.0713234,-0.547541,0.988572,-0.00678426,-0.000781473,0.0978542,1,5.19509e-05,-1.19492e-05,1.0269e-05,0.0103902,-0.00238985,0.00205379,0,0,0,0,0.0189266,0.516587,-0.999196,34.1875,1,16435,48118376
46,2,-0.671801,-0.0706199,9.78919,0.078569,-0.548398,0.992281,-0.006718,-0.000715192,0.0978918,1,4.52251e-05,-3.35635e-08,1.03562e-05,0.00904501,-6.71271e-06,0.00207123,0,0,0,0,0.0189422,0.514166,-1.00026,34.1875,1,16436,48118476
47,1,-0.671801,-0.0706199,9.78919,0.078569,-0.548398,0.992281,-0.006718,-0.000715192,0.0978918,1,4.52251e-05,-3.35635e-08,1.03562e-05,0.00904501,-6.71271e-06,0.00207123,0,0,0,0,0.0189422,0.514166,-1.00026,34.1875,1,16436,48118476
47,2,-0.672154,-0.07909,9.78979,0.0837468,-0.55856,0.994518,-0.00672026,-0.000802842,0.0978979,1,5.8936e-05,6.29184e-06,2.9916e-05,0.0117872,0.00125837,0.0059832,0,0,0,0,0.0175886,0.511703,-0.998288,34.1875,1,16437,48118576
48,1,-0.672154,-0.07909,9.78979,0.0837468,-0.55856,0.994518,-0.00672026,-0.000802842,0.0978979,1,5.8936e-05,6.29184e-06,2.9916e-05,0.0117872,0.00125837,0.0059832,0,0,0,0,0.0175886,0.511703,-0.998288,34.1875,1,16437,48118576
48,2,-0.672091,-0.0726256,9.79392,0.0816429,-0.554486,1.00337,-0.00672174,-0.000737663,0.0979391,1,5.7457e-05,-4.31395e-06,1.13567e-05,0.0114914,-0.00086279,0.00227134,0,0,0,0,0.0171734,0.512141,-0.995246,34.1875,1,16438,48118676
49,1,-0.672091,-0.0726256,9.79392,0.0816429,-0.554486,1.00337,-0.00672174,-0.000737663,0.0979391,1,5.7457e-05,-4.31395e-06,1.13567e-05,0.0114914,-0.00086279,0.00227134,0,0,0,0,0.0171734,0.512141,-0.995246,34.1875,1,16438,48118676
49,2,-0.668233,-0.0814944,9.79518,0.0880097,-0.562599,0.998092,-0.00668378,-0.000825719,0.0979516,1,5.39366e-05,-7.51407e-06,1.56053e-05,0.0107873,-0.00150281,0.00312106,0,0,0,0,0.0176801,0.515009,-0.992154,34.1875,1,16439,48118776
50,1,-0.668233,-0.0814944,9.79518,0.0880097,-0.562599,0.998092,-0.00668378,-0.000825719,0.0979516,1,5.39366e-05,-7.51407e-06,1.56053e-05,0.0107873,-0.00150281,0.00312106,0,0,0,0,0.0176801,0.515009,-0.992154,34.1875,1,16439,48118776
50,2,-0.681421,-0.0836311,9.78745,0.0713883,-0.567093,0.989445,-0.00681689,-0.000846629,0.0978742,1,5.18393e-05,-1.38172e-05,1.25447e-05,0.0103679,-0.00276344,0.00250894,0,0,0,0,0.0181328,0.51599,-0.99264,34.1875,1,16440,48118876
51,1,-0.681421,-0.0836311,9.78745,0.0713883,-0.567093,0.989445,-0.00681689,-0.000846629,0.0978742,1,5.18393e-05,-1.38172e-05,1.25447e-05,0.0103679,-0.00276344,0.00250894,0,0,0,0,0.0181328,0.51599,-0.99264,34.1875,1,16440,48118876
51,2,-0.669363,-0.0711628,9.79324,0.0852327,-0.555118,0.995214,-0.0066951,-0.000718514,0.0979322,1,3.3589e-05,-7.68534e-06,2.29404e-05,0.0067178,-0.00153707,0.00458808,0,0,0,0,0.018454,0.517548,-0.998162,34.1875,1,16441,48118976
52,1,-0.669363,-0.0711628,9.79324,0.0852327,-0.555118,0.995214,-0.0066951,-0.000718514,0.0979322,1,3.3589e-05,-7.68534e-06,2.29404e-05,0.0067178,-0.00153707,0.00458808,0,0,0,0,0.018454,0.517548,-0.998162,34.1875,1,16441,48118976
52,2,-0.666557,-0.0788782,9.78841,0.0869007,-0.566356,0.987732,-0.00666687,-0.000796137,0.0978839,1,3.63254e-05,-6.75736e-06,1.82724e-05,0.00726509,-0.00135147,0.00365448,0,0,0,0,0.0189138,0.515151,-1.00074,34.1875,1,16442,48119076
53,1,-0.666557,-0.0788782,9.78841,0.0869007,-0.566356,0.987732,-0.00666687,-0.000796137,0.0978839,1,3.63254e-05,-6.75736e-06,1.82724e-05,0.00726509,-0.00135147,0.00365448,0,0,0,0,0.0189138,0.515151,-1.00074,34.1875,1,16442,48119076
53,2,-0.670736,-0.0789735,9.7864,0.0827053,-0.569026,0.991024,-0.00670738,-0.000797655,0.0978639,1,3.91082e-05,-2.79669e-07,1.97812e-05,0.00782163,-5.59338e-05,0.00395624,0,0,0,0,0.0185181,0.512201,-0.999291,34.1875,1,16443,48119176
54,1,-0.670736,-0.0789735,9.7864,0.0827053,-0.569026,0.991024,-0.00670738,-0.000797655,0.0978639,1,3.91082e-05,-2.79669e-07,1.97812e-05,0.00782163,-5.59338e-05,0.00395624,0,0,0,0,0.0185181,0.512201,-0.999291,34.1875,1,16443,48119176
54,2,-0.681418,-0.0820664,9.79493,0.0743035,-0.573077,1.00396,-0.00681613,-0.000832101,0.0979491,1,5.66469e-05,-1.02001e-05,2.49963e-05,0.0113294,-0.00204002,0.00499926,0,0,0,0,0.0191102,0.512116,-0.994751,34.1875,1,16444,48119276
55,1,-0.681418,-0.0820664,9.79493,0.0743035,-0.573077,1.00396,-0.00681613,-0.000832101,0.0979491,1,5.66469e-05,-1.02001e-05,2.49963e-05,0.0113294,-0.00204002,0.00499926,0,0,0,0,0.0191102,0.512116,-0.994751,34.1875,1,16444,48119276
55,2,-0.669702,-0.0801371,9.78943,0.0805492,-0.565281,0.995306,-0.006698,-0.00081275,0.0978941,1,5.72521e-05,-5.12217e-06,1.26662e-05,0.0114504,-0.00102443,0.00253324,0,0,0,0,0.0200691,0.51452,-0.993186,34.1875,1,16445,48119376
56,1,-0.669702,-0.0801371,9.78943,0.0805492,-0.565281,0.995306,-0.006698,-0.00081275,0.0978941,1,5.72521e-05,-5.12217e-06,1.26662e-05,0.0114504,-0.00102443,0.00253324,0,0,0,0,0.0200691,0.51452,-0.993186,34.1875,1,16445,48119376
56,2,-0.674228,-0.06828,9.78515,0.0769139,-0.556417,0.992358,-0.0067436,-0.000691328,0.0978514,1,4.25279e-05,-6.862e-06,1.52272e-05,0.00850557,-0.0013724,0.00304545,0,0,0,0,0.0195182,0.515057,-0.995697,34.1875,1,16446,48119476
57,1,-0.674228,-0.06828,9.78515,0.0769139,-0.556417,0.992358,-0.0067436,-0.000691328,0.0978514,1,4.25279e-05,-6.862e-06,1.52272e-05,0.00850557,-0.0013724,0.00304545,0,0,0,0,0.0195182,0.515057,-0.995697,34.1875,1,16446,48119476
57,2,-0.667003,-0.0771915,9.79384,0.0841819,-0.565241,0.992993,-0.00667026,-0.000781205,0.0979383,1,4.61302e-05,-1.35051e-06,1.90159e-05,0.00922604,-0.000270102,0.00380318,0,0,0,0,0.0184616,0.515615,-0.999215,34.1875,1,16447,48119576
58,1,-0.667003,-0.0771915,9.79384,0.0841819,-0.565241,0.992993,-0.00667026,-0.000781205,0.0979383,1,4.61302e-05,-1.35051e-06,1.90159e-05,0.00922604,-0.000270102,0.00380318,0,0,0,0,0.0184616,0.515615,-0.999215,34.1875,1,16447,48119576
58,2,-0.682294,-0.0820678,9.78611,0.0645281,-0.56973,0.989508,-0.00682426,-0.000829076,0.0978609,1,4.12984e-05,-6.9739e-06,2.31007e-05,0.00825968,-0.00139478,0.00462015,0,0,0,0,0.0184203,0.515164,-1.00125,34.1875,1,16448,48119676
59,1,-0.682294,-0.0820678,9.78611,0.0645281,-0.56973,0.989508,-0.00682426,-0.000829076,0.0978609,1,4.12984e-05,-6.9739e-06,2.31007e-05,0.00825968,-0.00139478,0.00462015,0,0,0,0,0.0184203,0.515164,-1.00125,34.1875,1,16448,48119676
59,2,-0.669319,-0.0730933,9.78984,0.0803213,-0.566478,0.994681,-0.00669636,-0.000740924,0.0978981,1,4.95519e-05,-1.63781e-05,2.16068e-05,0.00991039,-0.00327563,0.00432135,0,0,0,0,0.0194191,0.513683,-1.00078,34.1875,1,16449,48119776
60,1,-0.669319,-0.0730933,9.78984,0.0803213,-0.566478,0.994681,-0.00669636,-0.000740924,0.0978981,1,4.95519e-05,-1.63781e-05,2.16068e-05,0.00991039,-0.00327563,0.00432135,0,0,0,0,0.0194191,0.513683,-1.00078,34.1875,1,16449,48119776
60,2,-0.675036,-0.0856413,9.79179,0.0754166,-0.578698,0.998951,-0.00675187,-0.000866712,0.0979177,1,5.20404e-05,-7.82121e-06,7.92016e-06,0.0104081,-0.00156424,0.00158403,0,0,0,0,0.0195505,0.513106,-0.995741,34.1875,1,16450,48119876
61,1,-0.675036,-0.0856413,9.79179,0.0754166,-0.578698,0.998951,-0.00675187,-0.000866712,0.0979177,1,5.20404e-05,-7.82121e-06,7.92016e-06,0.0104081,-0.00156424,0.00158403,0,0,0,0,0.0195505,0.513106,-0.995741,34.1875,1,16450,48119876
61,2,-0.6734,-0.0700584,9.78785,0.079343,-0.559936,0.994658,-0.00673616,-0.00070854,0.0978783,1,3.92665e-05,-1.1187e-05,1.99488e-05,0.0078533,-0.0022374,0.00398976,0,0,0,0,0.0195714,0.514054,-0.994205,34.1875,1,16451,48119976
62,1,-0.6734,-0.0700584,9.78785,0.079343,-0.559936,0.994658,-0.00673616,-0.00070854,0.0978783,1,3.92665e-05,-1.1187e-05,1.99488e-05,0.0078533,-0.0022374,0.00398976,0,0,0,0,0.0195714,0.514054,-0.994205,34.1875,1,16451,48119976
62,2,-0.679145,-0.0772521,9.79258,0.0747321,-0.569876,0.995736,-0.00679297,-0.000780996,0.0979256,1,4.12297e-05,-7.98495e-06,2.94707e-05,0.00824594,-0.00159699,0.00589415,0,0,0,0,0.0204601,0.515545,-0.996196,34.1875,1,16452,48120076
63,1,-0.679145,-0.0772521,9.79258,0.0747321,-0.569876,0.995736,-0.00679297,-0.000780996,0.0979256,1,4.12297e-05,-7.98495e-06,2.94707e-05,0.00824594,-0.00159699,0.00589415,0,0,0,0,0.0204601,0.515545,-0.996196,34.1875,1,16452,48120076
63,2,-0.685029,-0.0769501,9.78854,0.0652967,-0.573366,0.993363,-0.00684968,-0.000778769,0.0978854,1,4.70747e-05,3.08998e-06,3.83688e-06,0.00941493,0.000617997,0.000767377,0,0,0,0,0.0194072,0.515138,-1.00024,34.1875,1,16453,48120176
64,1,-0.685029,-0.0769501,9.78854,0.0652967,-0.573366,0.993363,-0.00684968,-0.000778769,0.0978854,1,4.70747e-05,3.08998e-06,3.83688e-06,0.00941493,0.000617997,0.000767377,0,0,0,0,0.0194072,0.515138,-1.00024,34.1875,1,16453,48120176
64,2,-0.67689,-0.0760677,9.78408,0.076141,-0.574253,0.987299,-0.00677043,-0.000769533,0.0978407,1,4.51747e-05,-7.83257e-06,1.22403e-06,0.00903495,-0.00156651,0.000244806,0,0,0,0,0.0193821,0.51371,-1.00229,34.1875,1,16454,48120276
65,1,-0.67689,-0.0760677,9.78408,0.076141,-0.574253,0.987299,-0.00677043,-0.000769533,0.0978407,1,4.51747e-05,-7.83257e-06,1.22403e-06,0.00903495,-0.00156651,0.000244806,0,0,0,0,0.0193821,0.51371,-1.00229,34.1875,1,16454,48120276
65,2,-0.672251,-0.08072,9.78064,0.0801087,-0.579385,0.98519,-0.00672679,-0.000819253,0.097806,1,6.1581e-05,-2.18636e-05,5.06436e-07,0.0123162,-0.00437272,0.000101287,0,0,0,0,0.0179881,0.513686,-1.00027,34.1875,1,16455,48120376
66,1,-0.672251,-0.08072,9.78064,0.0801087,-0.579385,0.98519,-0.00672679,-0.000819253,0.097806,1,6.1581e-05,-2.18636e-05,5.06436e-07,0.0123162,-0.00437272,0.000101287,0,0,0,0,0.0179881,0.513686,-1.00027,34.1875,1,16455,48120376
66,2,-0.67737,-0.0753698,9.78241,0.0747003,-0.571423,0.9872,-0.00677791,-0.000764632,0.0978237,1,5.39592e-05,-2.17146e-05,2.77736e-05,0.0107918,-0.00434292,0.00555473,0,0,0,0,0.0181523,0.512603,-0.99423,34.1875,1,16456,48120476
67,1,-0.67737,-0.0753698,9.78241,0.0747003,-0.571423,0.9872,-0.00677791,-0.000764632,0.0978237,1,5.39592e-05,-2.17146e-05,2.77736e-05,0.0107918,-0.00434292,0.00555473,0,0,0,0,0.0181523,0.512603,-0.99423,34.1875,1,16456,48120476
67,2,-0.676761,-0.0764149,9.7946,0.0747341,-0.573814,0.997699,-0.00676876,-0.000776182,0.0979458,1,5.95432e-05,-6.07777e-06,2.72858e-05,0.0119086,-0.00121555,0.00545715,0,0,0,0,0.0196084,0.514027,-0.99269,34.1875,1,16457,48120576
68,1,-0.676761,-0.0764149,9.7946,0.0747341,-0.573814,0.997699,-0.00676876,-0.000776182,0.0979458,1,5.95432e-05,-6.07777e-06,2.72858e-05,0.0119086,-0.00121555,0.00545715,0,0,0,0,0.0196084,0.514027,-0.99269,34.1875,1,16457,48120576
68,2,-0.678203,-0.0783119,9.79459,0.0722981,-0.580066,0.997584,-0.00678227,-0.000792057,0.0979458,1,4.44036e-05,-1.36161e-06,1.76263e-05,0.00888071,-0.000272323,0.00352527,0,0,0,0,0.0204563,0.516512,-0.995669,34.1875,1,16458,48120676
69,1,-0.678203,-0.0783119,9.79459,0.0722981,-0.580066,0.997584,-0.00678227,-0.000792057,0.0979458,1,4.44036e-05,-1.36161e-06,1.76263e-05,0.00888071,-0.000272323,0.00352527,0,0,0,0,0.0204563,0.516512,-0.995669,34.1875,1,16458,48120676
69,2,-0.669282,-0.0837224,9.79279,0.0796564,-0.582578,0.997429,-0.00669277,-0.000847026,0.0979278,1,4.84326e-05,2.37473e-08,2.35996e-05,0.00968652,4.74945e-06,0.00471991,0,0,0,0,0.0203291,0.517569,-1.00019,34.1875,1,16459,48120776
70,1,-0.669282,-0.0837224,9.79279,0.0796564,-0.582578,0.997429,-0.00669277,-0.000847026,0.0979278,1,4.84326e-05,2.37473e-08,2.35996e-05,0.00968652,4.74945e-06,0.00471991,0,0,0,0,0.0203291,0.517569,-1.00019,34.1875,1,16459,48120776
70,2,-0.677159,-0.0761967,9.79019,0.0747727,-0.575807,0.992969,-0.00677253,-0.000770685,0.0979018,1,4.43142e-05,-4.84106e-06,2.97266e-06,0.00886284,-0.000968213,0.000594533,0,0,0,0,0.0202798,0.517605,-1.00221,34.1875,1,16460,48120876
71,1,-0.677159,-0.0761967,9.79019,0.0747727,-0.575807,0.992969,-0.00677253,-0.000770685,0.0979018,1,4.43142e-05,-4.84106e-06,2.97266e-06,0.00886284,-0.000968213,0.000594533,0,0,0,0,0.0202798,0.517605,-1.00221,34.1875,1,16460,48120876
71,2,-0.676487,-0.0767605,9.78375,0.0787774,-0.578821,0.988296,-0.00676609,-0.000778603,0.0978373,1,5.41192e-05,-6.44493e-06,3.01672e-05,0.0108238,-0.00128899,0.00603344,0,0,0,0,0.0194352,0.512708,-1.0008,34.1875,1,16461,48120976
72,1,-0.676487,-0.0767605,9.78375,0.0787774,-0.578821,0.988296,-0.00676609,-0.000778603,0.0978373,1,5.41192e-05,-6.44493e-06,3.01672e-05,0.0108238,-0.00128899,0.00603344,0,0,0,0,0.0194352,0.512708,-1.0008,34.1875,1,16461,48120976
72,2,-0.671336,-0.0852931,9.78329,0.077539,-0.591644,0.985531,-0.00671515,-0.000862588,0.0978327,1,4.91217e-05,-9.194e-06,3.32861e-06,0.00982434,-0.0018388,0.000665721,0,0,0,0,0.0181722,0.510661,-0.994779,34.1875,1,16462,48121076
73,1,-0.671336,-0.0852931,9.78329,0.077539,-0.591644,0.985531,-0.00671515,-0.000862588,0.0978327,1,4.91217e-05,-9.194e-06,3.32861e-06,0.00982434,-0.0018388,0.000665721,0,0,0,0,0.0181722,0.510661,-0.994779,34.1875,1,16462,48121076
73,2,-0.66588,-0.0794949,9.78772,0.0860244,-0.585124,0.991228,-0.00666154,-0.000803144,0.0978769,1,4.07267e-05,-1.4087e-05,1.67398e-05,0.00814534,-0.0028174,0.00334795,0,0,0,0,0.0177001,0.513067,-0.992703,34.1875,1,16463,48121176
74,1,-0.66588,-0.0794949,9.78772,0.0860244,-0.585124,0.991228,-0.00666154,-0.000803144,0.0978769,1,4.07267e-05,-1.4087e-05,1.67398e-05,0.00814534,-0.0028174,0.00334795,0,0,0,0,0.0177001,0.513067,-0.992703,34.1875,1,16463,48121176
74,2,-0.6748,-0.0776588,9.79016,0.0747207,-0.579996,0.994542,-0.00674915,-0.000785193,0.0979015,1,4.35803e-05,-5.9177e-06,5.33656e-06,0.00871606,-0.00118354,0.00106731,0,0,0,0,0.0190699,0.514555,-0.994696,34.1875,1,16464,48121276
75,1,-0.6748,-0.0776588,9.79016,0.0747207,-0.579996,0.994542,-0.00674915,-0.000785193,0.0979015,1,4.35803e-05,-5.9177e-06,5.33656e-06,0.00871606,-0.00118354,0.00106731,0,0,0,0,0.0190699,0.514555,-0.994696,34.1875,1,16464,48121276
75,2,-0.675044,-0.0840274,9.79045,0.0786747,-0.585809,0.994426,-0.0067521,-0.000848892,0.0979043,1,4.40534e-05,-8.47688e-06,-5.7917e-07,0.00881068,-0.00169538,-0.000115834,0,0,0,0,0.0199092,0.516082,-0.998707,34.1875,1,16465,48121376
76,1,-0.675044,-0.0840274,9.79045,0.0786747,-0.585809,0.994426,-0.0067521,-0.000848892,0.0979043,1,4.40534e-05,-8.47688e-06,-5.7917e-07,0.00881068,-0.00169538,-0.000115834,0,0,0,0,0.0199092,0.516082,-0.998707,34.1875,1,16465,48121376
76,2,-0.681189,-0.0775246,9.79089,0.0723689,-0.584112,0.990659,-0.00681358,-0.000784771,0.0979087,1,4.66091e-05,-8.83232e-06,2.921e-05,0.00932182,-0.00176646,0.00584199,0,0,0,0,0.0189299,0.514175,-1.00076,34.1875,1,16466,48121476
77,1,-0.681189,-0.0775246,9.79089,0.0723689,-0.584112,0.990659,-0.00681358,-0.000784771,0.0979087,1,4.66091e-05,-8.83232e-06,2.921e-05,0.00932182,-0.00176646,0.00584199,0,0,0,0,0.0189299,0.514175,-1.00076,34.1875,1,16466,48121476
77,2,-0.669356,-0.0824414,9.78025,0.084987,-0.589693,0.979735,-0.00669401,-0.000835749,0.0978024,1,5.6468e-05,-2.51109e-06,2.15954e-05,0.0112936,-0.000502217,0.00431908,0,0,0,0,0.0180246,0.512214,-0.999794,34.1875,1,16467,48121576
78,1,-0.669356,-0.0824414,9.78025,0.084987,-0.589693,0.979735,-0.00669401,-0.000835749,0.0978024,1,5.6468e-05,-2.51109e-06,2.15954e-05,0.0112936,-0.000502217,0.00431908,0,0,0,0,0.0180246,0.512214,-0.999794,34.1875,1,16467,48121576
78,2,-0.685527,-0.0816131,9.78953,0.0595744,-0.592171,0.994283,-0.00685788,-0.000826638,0.0978951,1,5.17184e-05,-1.35578e-05,2.77608e-05,0.0103437,-0.00271157,0.00555216,0,0,0,0,0.0186453,0.511144,-0.99477,34.1875,1,16468,48121676
79,1,-0.685527,-0.0816131,9.78953,0.0595744,-0.592171,0.994283,-0.00685788,-0.000826638,0.0978951,1,5.17184e-05,-1.35578e-05,2.77608e-05,0.0103437,-0.00271157,0.00555216,0,0,0,0,0.0186453,0.511144,-0.99477,34.1875,1,16468,48121676
79,2,-0.66916,-0.082681,9.80128,0.0838882,-0.595399,1.00364,-0.00669348,-0.000836263,0.0980126,1,4.68977e-05,-9.7658e-06,1.94478e-05,0.00937954,-0.00195316,0.00388956,0,0,0,0,0.0186424,0.515001,-0.992159,34.1875,1,16469,48121776
80,1,-0.66916,-0.082681,9.80128,0.0838882,-0.595399,1.00364,-0.00669348,-0.000836263,0.0980126,1,4.68977e-05,-9.7658e-06,1.94478e-05,0.00937954,-0.00195316,0.00388956,0,0,0,0,0.0186424,0.515001,-0.992159,34.1875,1,16469,48121776
80,2,-0.672834,-0.0706564,9.79292,0.0747155,-0.580768,0.996743,-0.00672885,-0.00071785,0.0979291,1,5.66765e-05,-2.71406e-06,1.37577e-05,0.0113353,-0.000542812,0.00275154,0,0,0,0,0.019486,0.517008,-0.995654,34.1875,1,16470,48121876
81,1,-0.672834,-0.0706564,9.79292,0.0747155,-0.580768,0.996743,-0.00672885,-0.00071785,0.0979291,1,5.66765e-05,-2.71406e-06,1.37577e-05,0.0113353,-0.000542812,0.00275154,0,0,0,0,0.019486,0.517008,-0.995654,34.1875,1,16470,48121876
81,2,-0.668996,-0.0749783,9.78575,0.0847763,-0.587175,0.982476,-0.00669122,-0.000759131,0.0978573,1,4.74117e-05,-6.45252e-06,5.15011e-06,0.00948235,-0.0012905,0.00103002,0,0,0,0,0.0194319,0.51512,-0.999231,34.1875,1,16471,48121976
82,1,-0.668996,-0.0749783,9.78575,0.0847763,-0.587175,0.982476,-0.00669122,-0.000759131,0.0978573,1,4.74117e-05,-6.45252e-06,5.15011e-06,0.00948235,-0.0012905,0.00103002,0,0,0,0,0.0194319,0.51512,-0.999231,34.1875,1,16471,48121976
82,2,-0.668327,-0.0800929,9.78909,0.0844944,-0.59033,0.991723,-0.00668425,-0.000806885,0.0978907,1,2.99234e-05,-5.04595e-06,7.26433e-06,0.00598468,-0.00100919,0.00145287,0,0,0,0,0.0189342,0.514654,-1.00025,34.1875,1,16472,48122076
83,1,-0.668327,-0.0800929,9.78909,0.0844944,-0.59033,0.991723,-0.00668425,-0.000806885,0.0978907,1,2.99234e-05,-5.04595e-06,7.26433e-06,0.00598468,-0.00100919,0.00145287,0,0,0,0,0.0189342,0.514654,-1.00025,34.1875,1,16472,48122076
83,2,-0.676257,-0.0732994,9.78648,0.0745615,-0.586242,0.988936,-0.00676337,-0.000743491,0.0978647,1,5.22564e-05,-4.2244e-06,1.98877e-05,0.0104513,-0.00084488,0.00397755,0,0,0,0,0.0170377,0.51224,-1.0008,34.1875,1,16473,48122176
84,1,-0.676257,-0.0732994,9.78648,0.0745615,-0.586242,0.988936,-0.00676337,-0.000743491,0.0978647,1,5.22564e-05,-4.2244e-06,1.98877e-05,0.0104513,-0.00084488,0.00397755,0,0,0,0,0.0170377,0.51224,-1.0008,34.1875,1,16473,48122176
84,2,-0.666262,-0.0769588,9.78503,0.083708,-0.592524,0.984395,-0.00666559,-0.000780359,0.09785,1,5.4324e-05,-1.52552e-05,1.05522e-05,0.0108648,-0.00305103,0.00211043,0,0,0,0,0.0171815,0.511653,-0.995257,34.1875,1,16474,48122276
85,1,-0.666262,-0.0769588,9.78503,0.083708,-0.592524,0.984395,-0.00666559,-0.000780359,0.09785,1,5.4324e-05,-1.52552e-05,1.05522e-05,0.0108648,-0.00305103,0.00211043,0,0,0,0,0.0171815,0.511653,-0.995257,34.1875,1,16474,48122276
85,2,-0.681494,-0.0783378,9.79835,0.0681361,-0.589226,1.00089,-0.00681633,-0.000792648,0.0979833,1,4.62718e-05,-7.2344e-06,1.48173e-05,0.00925437,-0.00144688,0.00296346,0,0,0,0,0.0191396,0.514022,-0.992183,34.1875,1,16475,48122376
86,1,-0.681494,-0.0783378,9.79835,0.0681361,-0.589226,1.00089,-0.00681633,-0.000792648,0.0979833,1,4.62718e-05,-7.2344e-06,1.48173e-05,0.00925437,-0.00144688,0.00296346,0,0,0,0,0.0191396,0.514022,-0.992183,34.1875,1,16475,48122376
86,2,-0.671344,-0.0839776,9.78432,0.0799121,-0.601549,0.986481,-0.00671482,-0.000849761,0.0978431,1,4.94253e-05,-7.26047e-06,2.3311e-05,0.00988506,-0.00145209,0.0046622,0,0,0,0,0.0204397,0.516042,-0.99669,34.1875,1,16476,48122476
87,1,-0.671344,-0.0839776,9.78432,0.0799121,-0.601549,0.986481,-0.00671482,-0.000849761,0.0978431,1,4.94253e-05,-7.26047e-06,2.3311e-05,0.00988506,-0.00145209,0.0046622,0,0,0,0,0.0204397,0.516042,-0.99669,34.1875,1,16476,48122476
87,2,-0.676337,-0.0723542,9.78583,0.0745612,-0.586025,0.988545,-0.00676669,-0.000732752,0.097858,1,4.55774e-05,-1.71416e-05,2.14461e-05,0.00911548,-0.00342832,0.00428922,0,0,0,0,0.0189019,0.516605,-1.00021,34.1875,1,16477,48122576
88,1,-0.676337,-0.0723542,9.78583,0.0745612,-0.586025,0.988545,-0.00676669,-0.000732752,0.097858,1,4.55774e-05,-1.71416e-05,2.14461e-05,0.00911548,-0.00342832,0.00428922,0,0,0,0,0.0189019,0.516605,-1.00021,34.1875,1,16477,48122576
88,2,-0.67826,-0.0722857,9.78413,0.0725966,-0.587103,0.986194,-0.0067843,-0.000734383,0.0978411,1,5.831e-05,-8.74557e-06,8.54405e-06,0.011662,-0.00174911,0.00170881,0,0,0,0,0.0174823,0.513708,-1.00127,34.1875,1,16478,48122676
89,1,-0.67826,-0.0722857,9.78413,0.0725966,-0.587103,0.986194,-0.0067843,-0.000734383,0.0978411,1,5.831e-05,-8.74557e-06,8.54405e-06,0.011662,-0.00174911,0.00170881,0,0,0,0,0.0174823,0.513708,-1.00127,34.1875,1,16478,48122676
89,2,-0.677502,-0.0771942,9.7868,0.0785404,-0.594975,0.986718,-0.00677681,-0.000781224,0.0978678,1,4.69666e-05,-9.2089e-06,6.53792e-06,0.00939332,-0.00184178,0.00130758,0,0,0,0,0.0156271,0.511746,-0.999793,34.1875,1,16479,48122776
90,1,-0.677502,-0.0771942,9.7868,0.0785404,-0.594975,0.986718,-0.00677681,-0.000781224,0.0978678,1,4.69666e-05,-9.2089e-06,6.53792e-06,0.00939332,-0.00184178,0.00130758,0,0,0,0,0.0156271,0.511746,-0.999793,34.1875,1,16479,48122776
90,2,-0.67707,-0.0763518,9.78579,0.0750505,-0.59804,0.990081,-0.00677246,-0.000774461,0.0978577,1,5.4341e-05,-9.15311e-06,2.27145e-05,0.0108682,-0.00183062,0.0045429,0,0,0,0,0.0176299,0.512155,-0.996258,34.1875,1,16480,48122876
91,1,-0.67707,-0.0763518,9.78579,0.0750505,-0.59804,0.990081,-0.00677246,-0.000774461,0.0978577,1,5.4341e-05,-9.15311e-06,2.27145e-05,0.0108682,-0.00183062,0.0045429,0,0,0,0,0.0176299,0.512155,-0.996258,34.1875,1,16480,48122876
91,2,-0.673022,-0.0819791,9.78605,0.0748122,-0.602165,0.990829,-0.00673305,-0.000828915,0.0978602,1,4.55584e-05,-1.46088e-05,1.54191e-05,0.00911168,-0.00292176,0.00308382,0,0,0,0,0.0185888,0.514559,-0.994694,34.1875,1,16481,48122976
92,1,-0.673022,-0.0819791,9.78605,0.0748122,-0.602165,0.990829,-0.00673305,-0.000828915,0.0978602,1,4.55584e-05,-1.46088e-05,1.54191e-05,0.00911168,-0.00292176,0.00308382,0,0,0,0,0.0185888,0.514559,-0.994694,34.1875,1,16481,48122976
92,2,-0.671631,-0.0769528,9.79253,0.0822111,-0.593206,0.993727,-0.0067194,-0.00077629,0.097925,1,3.31308e-05,-1.59273e-05,2.03458e-05,0.00662616,-0.00318546,0.00406917,0,0,0,0,0.0199505,0.516534,-0.996677,34.1875,1,16482,48123076
93,1,-0.671631,-0.0769528,9.79253,0.0822111,-0.593206,0.993727,-0.0067194,-0.00077629,0.097925,1,3.31308e-05,-1.59273e-05,2.03458e-05,0.00662616,-0.00318546,0.00406917,0,0,0,0,0.0199505,0.516534,-0.996677,34.1875,1,16482,48123076
93,2,-0.676471,-0.0858932,9.78298,0.0760491,-0.606936,0.986896,-0.00676611,-0.00087032,0.0978296,1,5.7064e-05,-7.33295e-06,1.64977e-05,0.0114128,-0.00146659,0.00329954,0,0,0,0,0.0188568,0.51712,-1.00171,34.1875,1,16483,48123176
94,1,-0.676471,-0.0858932,9.78298,0.0760491,-0.606936,0.986896,-0.00676611,-0.00087032,0.0978296,1,5.7064e-05,-7.33295e-06,1.64977e-05,0.0114128,-0.00146659,0.00329954,0,0,0,0,0.0188568,0.51712,-1.00171,34.1875,1,16483,48123176
94,2,-0.680289,-0.0758397,9.78174,0.0716917,-0.596334,0.982577,-0.00680394,-0.000767077,0.0978172,1,4.32935e-05,-5.48768e-06,1.54916e-05,0.00865869,-0.00109754,0.00309832,0,0,0,0,0.0169646,0.515185,-1.00174,34.1875,1,16484,48123276
95,1,-0.680289,-0.0758397,9.78174,0.0716917,-0.596334,0.982577,-0.00680394,-0.000767077,0.0978172,1,4.32935e-05,-5.48768e-06,1.54916e-05,0.00865869,-0.00109754,0.00309832,0,0,0,0,0.0169646,0.515185,-1.00174,34.1875,1,16484,48123276
95,2,-0.67518,-0.0741072,9.78715,0.0746546,-0.599863,0.990625,-0.00675325,-0.000751161,0.0978713,1,5.02244e-05,-7.55458e-06,1.91258e-05,0.0100449,-0.00151092,0.00382515,0,0,0,0,0.016084,0.513206,-0.999763,34.1875,1,16485,48123376
96,1,-0.67518,-0.0741072,9.78715,0.0746546,-0.599863,0.990625,-0.00675325,-0.000751161,0.0978713,1,5.02244e-05,-7.55458e-06,1.91258e-05,0.0100449,-0.00151092,0.00382515,0,0,0,0,0.016084,0.513206,-0.999763,34.1875,1,16485,48123376
96,2,-0.675837,-0.067269,9.79196,0.0783543,-0.593975,0.99433,-0.00675993,-0.000682337,0.0979194,1,4.81009e-05,-8.11569e-06,1.68458e-05,0.00962018,-0.00162314,0.00336916,0,0,0,0,0.0166762,0.51312,-0.995222,34.1875,1,16486,48123476
97,1,-0.675837,-0.067269,9.79196,0.0783543,-0.593975,0.99433,-0.00675993,-0.000682337,0.0979194,1,4.81009e-05,-8.11569e-06,1.68458e-05,0.00962018,-0.00162314,0.00336916,0,0,0,0,0.0166762,0.51312,-0.995222,34.1875,1,16486,48123476
97,2,-0.671008,-0.0749638,9.7922,0.0830867,-0.597801,0.992276,-0.00671179,-0.000759945,0.0979218,1,5.23925e-05,-8.76749e-06,3.4888e-06,0.0104785,-0.0017535,0.000697761,0,0,0,0,0.0176555,0.515027,-0.993164,34.1875,1,16487,48123576
98,1,-0.671008,-0.0749638,9.7922,0.0830867,-0.597801,0.992276,-0.00671179,-0.000759945,0.0979218,1,5.23925e-05,-8.76749e-06,3.4888e-06,0.0104785,-0.0017535,0.000697761,0,0,0,0,0.0176555,0.515027,-0.993164,34.1875,1,16487,48123576
98,2,-0.675491,-0.0828445,9.79284,0.0741567,-0.606854,0.993454,-0.00675513,-0.000835863,0.0979283,1,3.67313e-05,-1.2427e-06,1.65238e-05,0.00734625,-0.000248541,0.00330475,0,0,0,0,0.0185275,0.516049,-0.996176,34.1875,1,16488,48123676
99,1,-0.675491,-0.0828445,9.79284,0.0741567,-0.606854,0.993454,-0.00675513,-0.000835863,0.0979283,1,3.67313e-05,-1.2427e-06,1.65238e-05,0.00734625,-0.000248541,0.00330475,0,0,0,0,0.0185275,0.516049,-0.996176,34.1875,1,16488,48123676
99,2,-0.674854,-0.0686362,9.79194,0.0753275,-0.595788,0.994642,-0.00674913,-0.000695034,0.0979193,1,4.27533e-05,-3.16843e-06,2.21245e-05,0.00855065,-0.000633686,0.00442491,0,0,0,0,0.0188938,0.517093,-1.00019,34.1875,1,16489,48123776
100,1,-0.674854,-0.0686362,9.79194,0.0753275,-0.595788,0.994642,-0.00674913,-0.000695034,0.0979193,1,4.27533e-05,-3.16843e-06,2.21245e-05,0.00855065,-0.000633686,0.00442491,0,0,0,0,0.0188938,0.517093,-1.00019,34.1875,1,16489,48123776
100,2,-0.674371,-0.0801729,9.7837,0.0762036,-0.605007,0.987586,-0.00674732,-0.000811024,0.0978367,1,4.65102e-05,-1.85443e-05,1.44059e-05,0.00930205,-0.00370887,0.00288119,0,0,0,0,0.0194438,0.513665,-0.999768,34.1875,1,16490,48123876
101,1,-0.674371,-0.0801729,9.7837,0.0762036,-0.605007,0.987586,-0.00674732,-0.000811024,0.0978367,1,4.65102e-05,-1.85443e-05,1.44059e-05,0.00930205,-0.00370887,0.00288119,0,0,0,0,0.0194438,0.513665,-0.999768,34.1875,1,16490,48123876
101,2,-0.674474,-0.0716251,9.78513,0.0777072,-0.59669,0.988296,-0.00674694,-0.000726208,0.0978511,1,4.9239e-05,-1.14609e-05,2.37674e-05,0.0098478,-0.00229218,0.00475349,0,0,0,0,0.0199818,0.511692,-0.998805,34.1875,1,16491,48123976
102,1,-0.674474,-0.0716251,9.78513,0.0777072,-0.59669,0.988296,-0.00674694,-0.000726208,0.0978511,1,4.9239e-05,-1.14609e-05,2.37674e-05,0.0098478,-0.00229218,0.00475349,0,0,0,0,0.0199818,0.511692,-0.998805,34.1875,1,16491,48123976
102,2,-0.669516,-0.0734812,9.79221,0.0835822,-0.602203,0.993219,-0.00669893,-0.000743374,0.0979218,1,4.23735e-05,-1.94126e-05,1.9645e-05,0.00847469,-0.00388251,0.00392901,0,0,0,0,0.019106,0.511637,-0.995266,34.1875,1,16492,48124076
103,1,-0.669516,-0.0734812,9.79221,0.0835822,-0.602203,0.993219,-0.00669893,-0.000743374,0.0979218,1,4.23735e-05,-1.94126e-05,1.9645e-05,0.00847469,-0.00388251,0.00392901,0,0,0,0,0.019106,0.511637,-0.995266,34.1875,1,16492,48124076
103,2,-0.669919,-0.0794653,9.78944,0.080895,-0.608962,0.990175,-0.00670181,-0.000805483,0.0978941,1,5.40166e-05,-1.35176e-05,1.89952e-05,0.0108033,-0.00270352,0.00379903,0,0,0,0,0.0186504,0.514514,-0.99217,34.1875,1,16493,48124176
104,1,-0.669919,-0.0794653,9.78944,0.080895,-0.608962,0.990175,-0.00670181,-0.000805483,0.0978941,1,5.40166e-05,-1.35176e-05,1.89952e-05,0.0108033,-0.00270352,0.00379903,0,0,0,0,0.0186504,0.514514,-0.99217,34.1875,1,16493,48124176
104,2,-0.662844,-0.0619191,9.78752,0.084823,-0.589847,0.988279,-0.00663309,-0.000624104,0.0978749,1,2.42089e-05,-2.3799e-05,1.31186e-05,0.00484179,-0.0047598,0.00262371,0,0,0,0,0.0200083,0.517455,-0.993626,34.1875,1,16494,48124276
105,1,-0.662844,-0.0619191,9.78752,0.084823,-0.589847,0.988279,-0.00663309,-0.000624104,0.0978749,1,2.42089e-05,-2.3799e-05,1.31186e-05,0.00484179,-0.0047598,0.00262371,0,0,0,0,0.0200083,0.517455,-0.993626,34.1875,1,16494,48124276
105,2,-0.676385,-0.0843553,9.78605,0.0731051,-0.610035,0.98597,-0.00676665,-0.000852557,0.0978603,1,4.46681e-05,-1.44652e-05,1.93455e-05,0.00893361,-0.00289305,0.00386911,0,0,0,0,0.0193996,0.517071,-0.999187,34.1875,1,16495,48124376
106,1,-0.676385,-0.0843553,9.78605,0.0731051,-0.610035,0.98597,-0.00676665,-0.000852557,0.0978603,1,4.46681e-05,-1.44652e-05,1.93455e-05,0.00893361,-0.00289305,0.00386911,0,0,0,0,0.0193996,0.517071,-0.999187,34.1875,1,16495,48124376
106,2,-0.679583,-0.0666474,9.79029,0.0738856,-0.596535,0.991097,-0.00679785,-0.000675069,0.0979027,1,4.29973e-05,-1.04029e-05,1.29175e-05,0.00859946,-0.00208059,0.0025835,0,0,0,0,0.0184531,0.514658,-1.00025,34.1875,1,16496,48124476
107,1,-0.679583,-0.0666474,9.79029,0.0738856,-0.596535,0.991097,-0.00679785,-0.000675069,0.0979027,1,4.29973e-05,-1.04029e-05,1.29175e-05,0.00859946,-0.00208059,0.0025835,0,0,0,0,0.0184531,0.514658,-1.00025,34.1875,1,16496,48124476
107,2,-0.678078,-0.0781849,9.78782,0.0693221,-0.610762,0.986584,-0.00678351,-0.000791442,0.0978779,1,4.74976e-05,-1.41371e-05,2.18041e-05,0.00949953,-0.00282741,0.00436081,0,0,0,0,0.0171117,0.512186,-0.99777,34.1875,1,16497,48124576
108,1,-0.678078,-0.0781849,9.78782,0.0693221,-0.610762,0.986584,-0.00678351,-0.000791442,0.0978779,1,4.74976e-05,-1.41371e-05,2.18041e-05,0.00949953,-0.00282741,0.00436081,0,0,0,0,0.0171117,0.512186,-0.99777,34.1875,1,16497,48124576
108,2,-0.6802,-0.0782146,9.78884,0.0696439,-0.612313,0.990002,-0.00680412,-0.000792918,0.0978882,1,5.36348e-05,-1.1001e-05,1.99174e-05,0.010727,-0.00220019,0.00398348,0,0,0,0,0.016725,0.511639,-0.994245,34.1875,1,16498,48124676
109,1,-0.6802,-0.0782146,9.78884,0.0696439,-0.612313,0.990002,-0.00680412,-0.000792918,0.0978882,1,5.36348e-05,-1.1001e-05,1.99174e-05,0.010727,-0.00220019,0.00398348,0,0,0,0,0.016725,0.511639,-0.994245,34.1875,1,16498,48124676
109,2,-0.673143,-0.0838225,9.78195,0.079426,-0.61699,0.97878,-0.006732,-0.000849726,0.0978194,1,5.63989e-05,-3.21314e-06,3.46938e-05,0.0112798,-0.000642627,0.00693877,0,0,0,0,0.0186177,0.515019,-0.993169,34.1875,1,16499,48124776
110,1,-0.673143,-0.0838225,9.78195,0.079426,-0.61699,0.97878,-0.006732,-0.000849726,0.0978194,1,5.63989e-05,-3.21314e-06,3.46938e-05,0.0112798,-0.000642627,0.00693877,0,0,0,0,0.0186177,0.515019,-0.993169,34.1875,1,16499,48124776
110,2,-0.670508,-0.0838009,9.7823,0.0806801,-0.618143,0.982326,-0.00670925,-0.000849467,0.0978226,1,5.6822e-05,-2.1532e-05,2.54771e-05,0.0113644,-0.0043064,0.00509542,0,0,0,0,0.0214228,0.516983,-0.995158,34.1875,1,16500,48124876
111,1,-0.670508,-0.0838009,9.7823,0.0806801,-0.618143,0.982326,-0.00670925,-0.000849467,0.0978226,1,5.6822e-05,-2.1532e-05,2.54771e-05,0.0113644,-0.0043064,0.00509542,0,0,0,0,0.0214228,0.516983,-0.995158,34.1875,1,16500,48124876
111,2,-0.677979,-0.0769422,9.79834,0.0726618,-0.609939,0.996411,-0.00678347,-0.000779207,0.0979831,1,4.91274e-05,-1.88518e-05,1.16227e-05,0.00982547,-0.00377035,0.00232454,0,0,0,0,0.0194157,0.516095,-0.999209,34.1875,1,16501,48124976
112,1,-0.677979,-0.0769422,9.79834,0.0726618,-0.609939,0.996411,-0.00678347,-0.000779207,0.0979831,1,4.91274e-05,-1.88518e-05,1.16227e-05,0.00982547,-0.00377035,0.00232454,0,0,0,0,0.0194157,0.516095,-0.999209,34.1875,1,16501,48124976
112,2,-0.68257,-0.077632,9.79226,0.0653233,-0.613918,0.989256,-0.00682717,-0.000785611,0.0979224,1,4.59663e-05,-7.66866e-06,2.11877e-05,0.00919326,-0.00153373,0.00423753,0,0,0,0,0.0184365,0.514188,-1.00127,34.1875,1,16502,48125076
113,1,-0.68257,-0.077632,9.79226,0.0653233,-0.613918,0.989256,-0.00682717,-0.000785611,0.0979224,1,4.59663e-05,-7.66866e-06,2.11877e-05,0.00919326,-0.00153373,0.00423753,0,0,0,0,0.0184365,0.514188,-1.00127,34.1875,1,16502,48125076
113,2,-0.669616,-0.0795317,9.79486,0.0845062,-0.616474,0.995568,-0.00669816,-0.0008048,0.0979484,1,4.78551e-05,-1.02761e-05,8.08225e-06,0.00957102,-0.00205522,0.00161645,0,0,0,0,0.0175435,0.512218,-0.999792,34.1875,1,16503,48125176
114,1,-0.669616,-0.0795317,9.79486,0.0845062,-0.616474,0.995568,-0.00669816,-0.0008048,0.0979484,1,4.78551e-05,-1.02761e-05,8.08225e-06,0.00957102,-0.00205522,0.00161645,0,0,0,0,0.0175435,0.512218,-0.999792,34.1875,1,16503,48125176
114,2,-0.682102,-0.0920624,9.79586,0.0689121,-0.628036,0.997402,-0.00682214,-0.000929375,0.0979584,1,4.36697e-05,-5.873e-06,1.43498e-05,0.00873394,-0.0011746,0.00286995,0,0,0,0,0.0167004,0.511657,-0.995255,34.1875,1,16504,48125276
114,3,-0.682102,-0.0920624,9.79586,0.0689121,-0.628036,0.997402,-0.00682214,-0.000929375,0.0979584,1,4.36697e-05,-5.873e-06,1.43498e-05,0.00873394,-0.0011746,0.00286995,0,0,0,0,0.0167004,0.511657,-0.995255,34.1875,1,16504,48125276
114,4,-0.682935,-0.0779792,9.79056,0.068803,-0.614986,0.989813,-0.00683107,-0.000787653,0.0979054,1,3.90429e-05,-8.90897e-06,1.57992e-05,0.00780857,-0.00178179,0.00315984,0,0,0,0,0.0166685,0.515054,-0.994169,34.1875,1,16505,48125376
114,5,-0.682935,-0.0779792,9.79056,0.068803,-0.614986,0.989813,-0.00683107,-0.000787653,0.0979054,1,3.90429e-05,-8.90897e-06,1.57992e-05,0.00780857,-0.00178179,0.00315984,0,0,0,0,0.0166685,0.515054,-0.994169,34.1875,1,16505,48125376
114,6,-0.672278,-0.0867834,9.78465,0.0757814,-0.623622,0.988036,-0.00672561,-0.000875306,0.0978463,1,3.62675e-05,-1.47243e-05,2.78801e-05,0.00725351,-0.00294485,0.00557602,0,0,0,0,0.0190048,0.517012,-0.995651,34.1875,1,16506,48125476
115,1,-0.672278,-0.0867834,9.78465,0.0757814,-0.623622,0.988036,-0.00672561,-0.000875306,0.0978463,1,3.62675e-05,-1.47243e-05,2.78801e-05,0.00725351,-0.00294485,0.00557602,0,0,0,0,0.0190048,0.517012,-0.995651,34.1875,1,16506,48125476
115,2,-0.669789,-0.0713036,9.78408,0.0812953,-0.609106,0.98487,-0.00669939,-0.000722346,0.0978406,1,4.54614e-05,-7.88868e-06,3.09275e-05,0.00909228,-0.00157774,0.00618551,0,0,0,0,0.0189308,0.517066,-0.99868,34.1875,1,16507,48125576
115,3,-0.669789,-0.0713036,9.78408,0.0812953,-0.609106,0.98487,-0.00669939,-0.000722346,0.0978406,1,4.54614e-05,-7.88868e-06,3.09275e-05,0.00909228,-0.00157774,0.00618551,0,0,0,0,0.0189308,0.517066,-0.99868,34.1875,1,16507,48125576
115,4,-0.664116,-0.0733099,9.7898,0.0905254,-0.61188,0.984479,-0.00664521,-0.000742289,0.0978977,1,4.64991e-05,-2.0718e-05,6.45228e-06,0.00929983,-0.00414361,0.00129046,0,0,0,0,0.0193987,0.51418,-1.00127,34.1875,1,16508,48125676
116,1,-0.664116,-0.0733099,9.7898,0.0905254,-0.61188,0.984479,-0.00664521,-0.000742289,0.0978977,1,4.64991e-05,-2.0718e-05,6.45228e-06,0.00929983,-0.00414361,0.00129046,0,0,0,0,0.0193987,0.51418,-1.00127,34.1875,1,16508,48125676
116,2,-0.68319,-0.0697253,9.79335,0.069457,-0.610254,0.994619,-0.00683608,-0.000706678,0.0979332,1,4.66946e-05,-2.14875e-05,2.04315e-05,0.00933891,-0.0042975,0.00408631,0,0,0,0,0.0185466,0.511216,-0.998809,34.1875,1,16509,48125776
117,1,-0.68319,-0.0697253,9.79335,0.069457,-0.610254,0.994619,-0.00683608,-0.000706678,0.0979332,1,4.66946e-05,-2.14875e-05,2.04315e-05,0.00933891,-0.0042975,0.00408631,0,0,0,0,0.0185466,0.511216,-0.998809,34.1875,1,16509,48125776
117,2,-0.669775,-0.076323,9.78437,0.0753747,-0.616943,0.984867,-0.00669866,-0.000773645,0.0978436,1,5.2385e-05,-4.76662e-06,1.21838e-05,0.010477,-0.000953324,0.00243677,0,0,0,0,0.0171896,0.511165,-0.995268,34.1875,1,16510,48125876
118,1,-0.669775,-0.076323,9.78437,0.0753747,-0.616943,0.984867,-0.00669866,-0.000773645,0.0978436,1,5.2385e-05,-4.76662e-06,1.21838e-05,0.010477,-0.000953324,0.00243677,0,0,0,0,0.0171896,0.511165,-0.995268,34.1875,1,16510,48125876
118,2,-0.667957,-0.0807685,9.8006,0.0833052,-0.620613,0.99913,-0.00668011,-0.000815363,0.0980059,1,3.81302e-05,-2.84778e-06,1.52757e-05,0.00762604,-0.000569556,0.00305514,0,0,0,0,0.0186376,0.513077,-0.993717,34.1875,1,16511,48125976
118,3,-0.667957,-0.0807685,9.8006,0.0833052,-0.620613,0.99913,-0.00668011,-0.000815363,0.0980059,1,3.81302e-05,-2.84778e-06,1.52757e-05,0.00762604,-0.000569556,0.00305514,0,0,0,0,0.0186376,0.513077,-0.993717,34.1875,1,16511,48125976
118,4,-0.670874,-0.0767828,9.79728,0.0773339,-0.617254,1.00177,-0.00671005,-0.000777972,0.0979726,1,5.02748e-05,-6.84523e-06,2.18242e-05,0.010055,-0.00136905,0.00436483,0,0,0,0,0.0204933,0.516485,-0.994155,34.1875,1,16512,48126076
119,1,-0.670874,-0.0767828,9.79728,0.0773339,-0.617254,1.00177,-0.00671005,-0.000777972,0.0979726,1,5.02748e-05,-6.84523e-06,2.18242e-05,0.010055,-0.00136905,0.00436483,0,0,0,0,0.0204933,0.516485,-0.994155,34.1875,1,16512,48126076
119,2,-0.670732,-0.0739922,9.78135,0.0824451,-0.617583,0.979254,-0.00671006,-0.000748195,0.0978133,1,4.05273e-05,-1.41933e-05,2.56655e-05,0.00810547,-0.00283866,0.00513311,0,0,0,0,0.018919,0.51852,-0.998143,34.1875,1,16513,48126176
119,3,-0.670732,-0.0739922,9.78135,0.0824451,-0.617583,0.979254,-0.00671006,-0.000748195,0.0978133,1,4.05273e-05,-1.41933e-05,2.56655e-05,0.00810547,-0.00283866,0.00513311,0,0,0,0,0.018919,0.51852,-0.998143,34.1875,1,16513,48126176
119,4,-0.675286,-0.0719704,9.78479,0.0785073,-0.612332,0.979768,-0.00675189,-0.000729603,0.0978479,1,4.95315e-05,4.83004e-06,1.52885e-05,0.00990629,0.000966009,0.0030577,0,0,0,0,0.0184326,0.515155,-1.00074,34.1875,1,16514,48126276
120,1,-0.675286,-0.0719704,9.78479,0.0785073,-0.612332,0.979768,-0.00675189,-0.000729603,0.0978479,1,4.95315e-05,4.83004e-06,1.52885e-05,0.00990629,0.000966009,0.0030577,0,0,0,0,0.0184326,0.515155,-1.00074,34.1875,1,16514,48126276
120,2,-0.678196,-0.0768805,9.7868,0.0754185,-0.618295,0.984831,-0.00678265,-0.000776355,0.0978679,1,3.65787e-05,-3.72516e-06,2.87759e-05,0.00731575,-0.000745033,0.00575518,0,0,0,0,0.0170747,0.512213,-0.999285,34.1875,1,16515,48126376
120,3,-0.678196,-0.0768805,9.7868,0.0754185,-0.618295,0.984831,-0.00678265,-0.000776355,0.0978679,1,3.65787e-05,-3.72516e-06,2.87759e-05,0.00731575,-0.000745033,0.00575518,0,0,0,0,0.0170747,0.512213,-0.999285,34.1875,1,16515,48126376
120,4,-0.673825,-0.0767906,9.79118,0.0797936,-0.618407,0.992614,-0.00673773,-0.000779173,0.0979117,1,5.67697e-05,2.55603e-06,1.11591e-05,0.0113539,0.000511205,0.00223181,0,0,0,0,0.0186414,0.512111,-0.994243,34.1875,1,16516,48126476
120,5,-0.673825,-0.0767906,9.79118,0.0797936,-0.618407,0.992614,-0.00673773,-0.000779173,0.0979117,1,5.67697e-05,2.55603e-06,1.11591e-05,0.0113539,0.000511205,0.00223181,0,0,0,0,0.0186414,0.512111,-0.994243,34.1875,1,16516,48126476
120,6,-0.673038,-0.0711227,9.78886,0.0807858,-0.616592,0.98887,-0.00673295,-0.000718828,0.0978884,1,3.70891e-05,-1.33309e-05,2.52574e-05,0.00741781,-0.00266619,0.00505148,0,0,0,0,0.0195961,0.514036,-0.993195,34.1875,1,16517,48126576
121,1,-0.673038,-0.0711227,9.78886,0.0807858,-0.616592,0.98887,-0.00673295,-0.000718828,0.0978884,1,3.70891e-05,-1.33309e-05,2.52574e-05,0.00741781,-0.00266619,0.00505148,0,0,0,0,0.0195961,0.514036,-0.993195,34.1875,1,16517,48126576
121,2,-0.667263,-0.0790594,9.78434,0.084007,-0.620564,0.982023,-0.00667415,-0.000801075,0.0978432,1,5.16699e-05,-7.98311e-06,2.77122e-05,0.010334,-0.00159662,0.00554245,0,0,0,0,0.0199671,0.517004,-0.995656,34.1875,1,16518,48126676
121,3,-0.667263,-0.0790594,9.78434,0.084007,-0.620564,0.982023,-0.00667415,-0.000801075,0.0978432,1,5.16699e-05,-7.98311e-06,2.77122e-05,0.010334,-0.00159662,0.00554245,0,0,0,0,0.0199671,0.517004,-0.995656,34.1875,1,16518,48126676
121,4,-0.671497,-0.071321,9.78239,0.0804133,-0.614278,0.981325,-0.00671628,-0.000721757,0.0978238,1,4.28725e-05,-6.76881e-06,1.18782e-05,0.0085745,-0.00135376,0.00237564,0,0,0,0,0.0198561,0.517085,-1.0002,34.1875,1,16519,48126776
122,1,-0.671497,-0.071321,9.78239,0.0804133,-0.614278,0.981325,-0.00671628,-0.000721757,0.0978238,1,4.28725e-05,-6.76881e-06,1.18782e-05,0.0085745,-0.00135376,0.00237564,0,0,0,0,0.0198561,0.517085,-1.0002,34.1875,1,16519,48126776
122,2,-0.673513,-0.0765524,9.78813,0.0767762,-0.618622,0.986914,-0.00673563,-0.000774708,0.0978812,1,4.65177e-05,-2.58528e-06,5.75953e-06,0.00930354,-0.000517056,0.00115191,0,0,0,0,0.018416,0.514685,-1.00176,34.1875,1,16520,48126876
122,3,-0.673513,-0.0765524,9.78813,0.0767762,-0.618622,0.986914,-0.00673563,-0.000774708,0.0978812,1,4.65177e-05,-2.58528e-06,5.75953e-06,0.00930354,-0.000517056,0.00115191,0,0,0,0,0.018416,0.514685,-1.00176,34.1875,1,16520,48126876
122,4,-0.681352,-0.0808142,9.79799,0.0728835,-0.628016,0.999685,-0.00681641,-0.000815463,0.0979797,1,3.6532e-05,-1.48139e-05,1.18481e-05,0.0073064,-0.00296278,0.00236962,0,0,0,0,0.0175354,0.512706,-0.999781,34.1875,1,16521,48126976
123,1,-0.681352,-0.0808142,9.79799,0.0728835,-0.628016,0.999685,-0.00681641,-0.000815463,0.0979797,1,3.6532e-05,-1.48139e-05,1.18481e-05,0.0073064,-0.00296278,0.00236962,0,0,0,0,0.0175354,0.512706,-0.999781,34.1875,1,16521,48126976
123,2,-0.675819,-0.0735242,9.79597,0.0714898,-0.615379,0.996351,-0.00675858,-0.000743138,0.0979596,1,3.90839e-05,-2.13048e-06,1.76485e-05,0.00781678,-0.000426097,0.0035297,0,0,0,0,0.0171896,0.511165,-0.995268,34.1875,1,16522,48127076
123,3,-0.675819,-0.0735242,9.79597,0.0714898,-0.615379,0.996351,-0.00675858,-0.000743138,0.0979596,1,3.90839e-05,-2.13048e-06,1.76485e-05,0.00781678,-0.000426097,0.0035297,0,0,0,0,0.0171896,0.511165,-0.995268,34.1875,1,16522,48127076
123,4,-0.672666,-0.0750653,9.77831,0.0780362,-0.619735,0.977404,-0.0067309,-0.000759173,0.0977828,1,4.24237e-05,-2.18227e-05,1.66017e-05,0.00848474,-0.00436453,0.00332033,0,0,0,0,0.018593,0.515037,-0.994178,34.1875,1,16523,48127176
124,1,-0.672666,-0.0750653,9.77831,0.0780362,-0.619735,0.977404,-0.0067309,-0.000759173,0.0977828,1,4.24237e-05,-2.18227e-05,1.66017e-05,0.00848474,-0.00436453,0.00332033,0,0,0,0,0.018593,0.515037,-0.994178,34.1875,1,16523,48127176
124,2,-0.677226,-0.0748003,9.78614,0.0762382,-0.61927,0.986706,-0.00677233,-0.00075732,0.0978613,1,4.65475e-05,-4.47118e-07,1.52568e-05,0.00930951,-8.94236e-05,0.00305136,0,0,0,0,0.0204563,0.516512,-0.995669,34.1875,1,16524,48127276
124,3,-0.677226,-0.0748003,9.78614,0.0762382,-0.61927,0.986706,-0.00677233,-0.00075732,0.0978613,1,4.65475e-05,-4.47118e-07,1.52568e-05,0.00930951,-8.94236e-05,0.00305136,0,0,0,0,0.0204563,0.516512,-0.995669,34.1875,1,16524,48127276
124,4,-0.6761,-0.0712248,9.77532,0.0781429,-0.614605,0.972525,-0.00676467,-0.000721413,0.0977529,1,4.6283e-05,-1.885e-05,8.66667e-06,0.00925661,-0.00377,0.00173333,0,0,0,0,0.0198722,0.516109,-1.00022,34.1875,1,16525,48127376
124,5,-0.6761,-0.0712248,9.77532,0.0781429,-0.614605,0.972525,-0.00676467,-0.000721413,0.0977529,1,4.6283e-05,-1.885e-05,8.66667e-06,0.00925661,-0.00377,0.00173333,0,0,0,0,0.0198722,0.516109,-1.00022,34.1875,1,16525,48127376
124,6,-0.670021,-0.077658,9.78979,0.0872831,-0.623189,0.984546,-0.00670168,-0.000788078,0.0978977,1,5.76134e-05,-7.65196e-06,1.62461e-05,0.0115227,-0.00153039,0.00324923,0,0,0,0,0.0184649,0.513204,-1.00078,34.1875,1,16526,48127476
125,1,-0.670021,-0.077658,9.78979,0.0872831,-0.623189,0.984546,-0.00670168,-0.000788078,0.0978977,1,5.76134e-05,-7.65196e-06,1.62461e-05,0.0115227,-0.00153039,0.00324923,0,0,0,0,0.0184649,0.513204,-1.00078,34.1875,1,16526,48127476
125,2,-0.675878,-0.0870644,9.78333,0.0775918,-0.634253,0.979623,-0.00676331,-0.000881882,0.0978328,1,5.64473e-05,-2.32578e-05,1.42562e-05,0.0112895,-0.00465156,0.00285123,0,0,0,0,0.0166591,0.511205,-0.997285,34.1875,1,16527,48127576
125,3,-0.675878,-0.0870644,9.78333,0.0775918,-0.634253,0.979623,-0.00676331,-0.000881882,0.0978328,1,5.64473e-05,-2.32578e-05,1.42562e-05,0.0112895,-0.00465156,0.00285123,0,0,0,0,0.0166591,0.511205,-0.997285,34.1875,1,16527,48127576
125,4,-0.669985,-0.0867013,9.78937,0.0807008,-0.63304,0.988568,-0.00669959,-0.000877148,0.0978937,1,5.03418e-05,1.17567e-06,2.08299e-05,0.0100683,0.000235133,0.00416597,0,0,0,0,0.0167084,0.511169,-0.995266,34.1875,1,16528,48127676
126,1,-0.669985,-0.0867013,9.78937,0.0807008,-0.63304,0.988568,-0.00669959,-0.000877148,0.0978937,1,5.03418e-05,1.17567e-06,2.08299e-05,0.0100683,0.000235133,0.00416597,0,0,0,0,0.0167084,0.511169,-0.995266,34.1875,1,16528,48127676
126,2,-0.681934,-0.0764466,9.78548,0.076484,-0.620314,0.985508,-0.00682115,-0.000775598,0.0978546,1,5.57378e-05,-9.36373e-06,1.64118e-05,0.0111476,-0.00187275,0.00328235,0,0,0,0,0.0176593,0.514061,-0.993691,34.1875,1,16529,48127776
126,3,-0.681934,-0.0764466,9.78548,0.076484,-0.620314,0.985508,-0.00682115,-0.000775598,0.0978546,1,5.57378e-05,-9.36373e-06,1.64118e-05,0.0111476,-0.00187275,0.00328235,0,0,0,0,0.0176593,0.514061,-0.993691,34.1875,1,16529,48127776
126,4,-0.673232,-0.0819563,9.79014,0.0797809,-0.631704,0.988325,-0.00673384,-0.000829929,0.0979012,1,5.27669e-05,-7.79518e-06,2.50453e-06,0.0105534,-0.00155904,0.000500906,0,0,0,0,0.0190048,0.517012,-0.995651,34.1875,1,16530,48127876
127,1,-0.673232,-0.0819563,9.79014,0.0797809,-0.631704,0.988325,-0.00673384,-0.000829929,0.0979012,1,5.27669e-05,-7.79518e-06,2.50453e-06,0.0105534,-0.00155904,0.000500906,0,0,0,0,0.0190048,0.517012,-0.995651,34.1875,1,16530,48127876
127,2,-0.684613,-0.0744885,9.78314,0.0682735,-0.625542,0.97952,-0.00685013,-0.000754064,0.097831,1,4.51095e-05,-2.06325e-05,2.57624e-05,0.0090219,-0.00412649,0.00515248,0,0,0,0,0.0178908,0.518094,-1.00118,34.1875,1,16531,48127976
128,1,-0.684613,-0.0744885,9.78314,0.0682735,-0.625542,0.97952,-0.00685013,-0.000754064,0.097831,1,4.51095e-05,-2.06325e-05,2.57624e-05,0.0090219,-0.00412649,0.00515248,0,0,0,0,0.0178908,0.518094,-1.00118,34.1875,1,16531,48127976
128,2,-0.679529,-0.0757355,9.78852,0.0726307,-0.625783,0.986124,-0.00679762,-0.000767756,0.097885,1,5.14891e-05,-1.20884e-05,2.36018e-05,0.0102978,-0.00241768,0.00472037,0,0,0,0,0.01745,0.51566,-1.00123,34.1875,1,16532,48128076
129,1,-0.679529,-0.0757355,9.78852,0.0726307,-0.625783,0.986124,-0.00679762,-0.000767756,0.097885,1,5.14891e-05,-1.20884e-05,2.36018e-05,0.0102978,-0.00241768,0.00472037,0,0,0,0,0.01745,0.51566,-1.00123,34.1875,1,16532,48128076
129,2,-0.680307,-0.0793211,9.79868,0.0752846,-0.631869,0.997161,-0.00680667,-0.000802602,0.0979865,1,4.69668e-05,-1.84715e-05,1.36642e-05,0.00939335,-0.00369431,0.00273285,0,0,0,0,0.0171037,0.512674,-0.997759,34.1875,1,16533,48128176
129,3,-0.680307,-0.0793211,9.79868,0.0752846,-0.631869,0.997161,-0.00680667,-0.000802602,0.0979865,1,4.69668e-05,-1.84715e-05,1.36642e-05,0.00939335,-0.00369431,0.00273285,0,0,0,0,0.0171037,0.512674,-0.997759,34.1875,1,16533,48128176
129,4,-0.671916,-0.0853719,9.79077,0.0844668,-0.637336,0.989335,-0.00672079,-0.000863753,0.0979075,1,5.00531e-05,-8.51794e-06,1.7328e-05,0.0100106,-0.00170359,0.00346559,0,0,0,0,0.0166961,0.511178,-0.99577,34.1875,1,16534,48128276
130,1,-0.671916,-0.0853719,9.79077,0.0844668,-0.637336,0.989335,-0.00672079,-0.000863753,0.0979075,1,5.00531e-05,-8.51794e-06,1.7328e-05,0.0100106,-0.00170359,0.00346559,0,0,0,0,0.0166961,0.511178,-0.99577,34.1875,1,16534,48128276
130,2,-0.667814,-0.0728944,9.78642,0.0899396,-0.622216,0.987188,-0.00667816,-0.000738955,0.0978641,1,4.99318e-05,-2.66864e-07,1.78706e-05,0.00998636,-5.33728e-05,0.00357411,0,0,0,0,0.0171653,0.512629,-0.995235,34.1875,1,16535,48128376
130,3,-0.667814,-0.0728944,9.78642,0.0899396,-0.622216,0.987188,-0.00667816,-0.000738955,0.0978641,1,4.99318e-05,-2.66864e-07,1.78706e-05,0.00998636,-5.33728e-05,0.00357411,0,0,0,0,0.0171653,0.512629,-0.995235,34.1875,1,16535,48128376
130,4,-0.674608,-0.0665913,9.79399,0.080278,-0.61867,0.991432,-0.00674485,-0.000675504,0.0979399,1,4.74527e-05,6.0797e-06,2.19234e-05,0.00949055,0.00121594,0.00438467,0,0,0,0,0.0190409,0.514094,-0.996222,34.1875,1,16536,48128476
130,5,-0.674608,-0.0665913,9.79399,0.080278,-0.61867,0.991432,-0.00674485,-0.000675504,0.0979399,1,4.74527e-05,6.0797e-06,2.19234e-05,0.00949055,0.00121594,0.00438467,0,0,0,0,0.0190409,0.514094,-0.996222,34.1875,1,16536,48128476
130,6,-0.669433,-0.0702915,9.78917,0.0876005,-0.619196,0.984704,-0.00669546,-0.000712893,0.0978916,1,4.88217e-05,-6.00515e-06,3.1328e-05,0.00976434,-0.00120103,0.0062656,0,0,0,0,0.0194034,0.516104,-0.999714,34.1875,1,16537,48128576
130,7,-0.669433,-0.0702915,9.78917,0.0876005,-0.619196,0.984704,-0.00669546,-0.000712893,0.0978916,1,4.88217e-05,-6.00515e-06,3.1328e-05,0.00976434,-0.00120103,0.0062656,0,0,0,0,0.0194034,0.516104,-0.999714,34.1875,1,16537,48128576
130,8,-0.684273,-0.0772747,9.7882,0.0733491,-0.625214,0.988139,-0.00684468,-0.000780654,0.0978818,1,3.82959e-05,-1.0187e-05,2.99476e-05,0.00765919,-0.00203739,0.00598953,0,0,0,0,0.0193783,0.514677,-1.00177,34.1875,1,16538,48128676
131,1,-0.684273,-0.0772747,9.7882,0.0733491,-0.625214,0.988139,-0.00684468,-0.000780654,0.0978818,1,3.82959e-05,-1.0187e-05,2.99476e-05,0.00765919,-0.00203739,0.00598953,0,0,0,0,0.0193783,0.514677,-1.00177,34.1875,1,16538,48128676
131,2,-0.678165,-0.0792906,9.79424,0.0772185,-0.630954,0.994468,-0.00678344,-0.000803055,0.0979422,1,4.96877e-05,-9.38609e-06,3.06613e-05,0.00993754,-0.00187722,0.00613226,0,0,0,0,0.0170785,0.511247,-0.999811,34.1875,1,16539,48128776
132,1,-0.678165,-0.0792906,9.79424,0.0772185,-0.630954,0.994468,-0.00678344,-0.000803055,0.0979422,1,4.96877e-05,-9.38609e-06,3.06613e-05,0.00993754,-0.00187722,0.00613226,0,0,0,0,0.0170785,0.511247,-0.999811,34.1875,1,16539,48128776
132,2,-0.672801,-0.0737401,9.79798,0.0828714,-0.626273,0.997529,-0.00672781,-0.000747772,0.0979797,1,5.15151e-05,8.70187e-07,2.04948e-05,0.010303,0.000174037,0.00409896,0,0,0,0,0.017218,0.510181,-0.994785,34.1875,1,16540,48128876
132,3,-0.672801,-0.0737401,9.79798,0.0828714,-0.626273,0.997529,-0.00672781,-0.000747772,0.0979797,1,5.15151e-05,8.70187e-07,2.04948e-05,0.010303,0.000174037,0.00409896,0,0,0,0,0.017218,0.510181,-0.994785,34.1875,1,16540,48128876
132,4,-0.675779,-0.0717602,9.7909,0.0792338,-0.62174,0.991287,-0.0067583,-0.0007258,0.097909,1,4.07213e-05,-2.75301e-06,1.65754e-05,0.00814426,-0.000550601,0.00331507,0,0,0,0,0.0186381,0.514523,-0.992675,34.1875,1,16541,48128976
132,5,-0.675779,-0.0717602,9.7909,0.0792338,-0.62174,0.991287,-0.0067583,-0.0007258,0.097909,1,4.07213e-05,-2.75301e-06,1.65754e-05,0.00814426,-0.000550601,0.00331507,0,0,0,0,0.0186381,0.514523,-0.992675,34.1875,1,16541,48128976
132,6,-0.674755,-0.0727174,9.7936,0.0793794,-0.625443,0.995409,-0.00674941,-0.000736904,0.0979358,1,4.88981e-05,-9.62433e-06,1.12617e-05,0.00977962,-0.00192487,0.00225233,0,0,0,0,0.0204444,0.517966,-0.995132,34.1875,1,16542,48129076
132,7,-0.674755,-0.0727174,9.7936,0.0793794,-0.625443,0.995409,-0.00674941,-0.000736904,0.0979358,1,4.88981e-05,-9.62433e-06,1.12617e-05,0.00977962,-0.00192487,0.00225233,0,0,0,0,0.0204444,0.517966,-0.995132,34.1875,1,16542,48129076
132,8,-0.677907,-0.0707575,9.78618,0.07455,-0.626677,0.986417,-0.00678075,-0.000716105,0.0978616,1,4.22727e-05,-8.73962e-06,1.8904e-05,0.00845453,-0.00174792,0.0037808,0,0,0,0,0.0203538,0.517551,-0.999181,34.1875,1,16543,48129176
133,1,-0.677907,-0.0707575,9.78618,0.07455,-0.626677,0.986417,-0.00678075,-0.000716105,0.0978616,1,4.22727e-05,-8.73962e-06,1.8904e-05,0.00845453,-0.00174792,0.0037808,0,0,0,0,0.0203538,0.517551,-0.999181,34.1875,1,16543,48129176
133,2,-0.678282,-0.0675057,9.78179,0.0758865,-0.622709,0.980711,-0.00678416,-0.000684379,0.0978178,1,4.64022e-05,-7.00537e-06,1.80043e-05,0.00928045,-0.00140107,0.00360085,0,0,0,0,0.0184611,0.51417,-1.00026,34.1875,1,16544,48129276
133,3,-0.678282,-0.0675057,9.78179,0.0758865,-0.622709,0.980711,-0.00678416,-0.000684379,0.0978178,1,4.64022e-05,-7.00537e-06,1.80043e-05,0.00928045,-0.00140107,0.00360085,0,0,0,0,0.0184611,0.51417,-1.00026,34.1875,1,16544,48129276
133,4,-0.669655,-0.0791672,9.78707,0.086127,-0.634062,0.98449,-0.00669804,-0.000801482,0.0978705,1,4.82983e-05,-7.84405e-06,2.65799e-05,0.00965966,-0.00156881,0.00531598,0,0,0,0,0.0175559,0.512209,-0.999287,34.1875,1,16545,48129376
134,1,-0.669655,-0.0791672,9.78707,0.086127,-0.634062,0.98449,-0.00669804,-0.000801482,0.0978705,1,4.82983e-05,-7.84405e-06,2.65799e-05,0.00965966,-0.00156881,0.00531598,0,0,0,0,0.0175559,0.512209,-0.999287,34.1875,1,16545,48129376
134,2,-0.670799,-0.0613471,9.79808,0.0865226,-0.614156,0.995299,-0.00670768,-0.000624323,0.0979808,1,5.35474e-05,1.40469e-06,2.67828e-05,0.0107095,0.000280938,0.00535655,0,0,0,0,0.0176626,0.511649,-0.995259,34.1875,1,16546,48129476
134,3,-0.670799,-0.0613471,9.79808,0.0865226,-0.614156,0.995299,-0.00670768,-0.000624323,0.0979808,1,5.35474e-05,1.40469e-06,2.67828e-05,0.0107095,0.000280938,0.00535655,0,0,0,0,0.0176626,0.511649,-0.995259,34.1875,1,16546,48129476
134,4,-0.670076,-0.0891557,9.78734,0.0859946,-0.640899,0.986191,-0.00670649,-0.000898059,0.0978729,1,3.22908e-05,-2.94074e-05,1.35492e-05,0.00645815,-0.00588148,0.00270983,0,0,0,0,0.0186462,0.514035,-0.992685,34.1875,1,16547,48129576
134,5,-0.670076,-0.0891557,9.78734,0.0859946,-0.640899,0.986191,-0.00670649,-0.000898059,0.0978729,1,3.22908e-05,-2.94074e-05,1.35492e-05,0.00645815,-0.00588148,0.00270983,0,0,0,0,0.0186462,0.514035,-0.992685,34.1875,1,16547,48129576
134,6,-0.671852,-0.0809294,9.79115,0.0832134,-0.639563,0.99205,-0.00672249,-0.000819076,0.0979111,1,4.86114e-05,-2.04294e-05,1.9539e-05,0.00972228,-0.00408589,0.00390779,0,0,0,0,0.0190419,0.516985,-0.994137,34.1875,1,16548,48129676
135,1,-0.671852,-0.0809294,9.79115,0.0832134,-0.639563,0.99205,-0.00672249,-0.000819076,0.0979111,1,4.86114e-05,-2.04294e-05,1.9539e-05,0.00972228,-0.00408589,0.00390779,0,0,0,0,0.0190419,0.516985,-0.994137,34.1875,1,16548,48129676
135,2,-0.66467,-0.0649944,9.7841,0.0853981,-0.622908,0.979863,-0.00664899,-0.000659717,0.0978408,1,4.86858e-05,-1.18462e-05,1.85241e-05,0.00973717,-0.00236923,0.00370482,0,0,0,0,0.0179112,0.517598,-1.00068,34.1875,1,16549,48129776
135,3,-0.66467,-0.0649944,9.7841,0.0853981,-0.622908,0.979863,-0.00664899,-0.000659717,0.0978408,1,4.86858e-05,-1.18462e-05,1.85241e-05,0.00973717,-0.00236923,0.00370482,0,0,0,0,0.0179112,0.517598,-1.00068,34.1875,1,16549,48129776
135,4,-0.682905,-0.0816315,9.78544,0.0728035,-0.640277,0.983196,-0.00683013,-0.000825503,0.0978543,1,4.68157e-05,-5.56735e-06,1.89231e-06,0.00936315,-0.00111347,0.000378461,0,0,0,0,0.0179145,0.515186,-1.00225,34.1875,1,16550,48129876
136,1,-0.682905,-0.0816315,9.78544,0.0728035,-0.640277,0.983196,-0.00683013,-0.000825503,0.0978543,1,4.68157e-05,-5.56735e-06,1.89231e-06,0.00936315,-0.00111347,0.000378461,0,0,0,0,0.0179145,0.515186,-1.00225,34.1875,1,16550,48129876
136,2,-0.674666,-0.0830489,9.79012,0.0853115,-0.645568,0.989669,-0.00674915,-0.000839104,0.097901,1,4.26043e-05,-1.29081e-05,2.01855e-05,0.00852086,-0.00258161,0.0040371,0,0,0,0,0.0165447,0.513698,-1.00026,34.1875,1,16551,48129976
136,3,-0.674666,-0.0830489,9.79012,0.0853115,-0.645568,0.989669,-0.00674915,-0.000839104,0.097901,1,4.26043e-05,-1.29081e-05,2.01855e-05,0.00852086,-0.00258161,0.0040371,0,0,0,0,0.0165447,0.513698,-1.00026,34.1875,1,16551,48129976
136,4,-0.680432,-0.0813296,9.79492,0.0762563,-0.63585,0.992987,-0.00680667,-0.000822466,0.097949,1,4.46159e-05,-1.22173e-05,3.15607e-05,0.00892319,-0.00244345,0.00631214,0,0,0,0,0.0181314,0.511654,-0.995766,34.1875,1,16552,48130076
137,1,-0.680432,-0.0813296,9.79492,0.0762563,-0.63585,0.992987,-0.00680667,-0.000822466,0.097949,1,4.46159e-05,-1.22173e-05,3.15607e-05,0.00892319,-0.00244345,0.00631214,0,0,0,0,0.0181314,0.511654,-0.995766,34.1875,1,16552,48130076
137,2,-0.652096,-0.0654287,9.78808,0.100822,-0.620431,0.989274,-0.00652255,-0.000663102,0.0978807,1,4.28799e-05,-8.35976e-06,3.22256e-05,0.00857598,-0.00167195,0.00644513,0,0,0,0,0.019588,0.514524,-0.993184,34.1875,1,16553,48130176
138,1,-0.652096,-0.0654287,9.78808,0.100822,-0.620431,0.989274,-0.00652255,-0.000663102,0.0978807,1,4.28799e-05,-8.35976e-06,3.22256e-05,0.00857598,-0.00167195,0.00644513,0,0,0,0,0.019588,0.514524,-0.993184,34.1875,1,16553,48130176
138,2,-0.681244,-0.0833193,9.77998,0.0715651,-0.640271,0.979644,-0.00681435,-0.000842786,0.0977996,1,4.84455e-05,-9.81807e-06,8.57381e-06,0.0096891,-0.00196362,0.00171476,0,0,0,0,0.0194532,0.517513,-0.996652,34.1875,1,16554,48130276
139,1,-0.681244,-0.0833193,9.77998,0.0715651,-0.640271,0.979644,-0.00681435,-0.000842786,0.0977996,1,4.84455e-05,-9.81807e-06,8.57381e-06,0.0096891,-0.00196362,0.00171476,0,0,0,0,0.0194532,0.517513,-0.996652,34.1875,1,16554,48130276
139,2,-0.674356,-0.0813493,9.79556,0.0829334,-0.639953,0.993062,-0.00674492,-0.000822614,0.0979554,1,4.5795e-05,-7.03157e-06,1.10493e-05,0.00915899,-0.00140631,0.00220985,0,0,0,0,0.01942,0.516574,-0.998693,34.1875,1,16555,48130376
139,3,-0.674356,-0.0813493,9.79556,0.0829334,-0.639953,0.993062,-0.00674492,-0.000822614,0.0979554,1,4.5795e-05,-7.03157e-06,1.10493e-05,0.00915899,-0.00140631,0.00220985,0,0,0,0,0.01942,0.516574,-0.998693,34.1875,1,16555,48130376
139,4,-0.660887,-0.0673918,9.78813,0.0957244,-0.628662,0.983423,-0.0066093,-0.000684185,0.0978812,1,5.08429e-05,-2.35595e-06,2.37353e-05,0.0101686,-0.000471191,0.00474705,0,0,0,0,0.017478,0.51323,-1.00179,34.1875,1,16556,48130476
140,1,-0.660887,-0.0673918,9.78813,0.0957244,-0.628662,0.983423,-0.0066093,-0.000684185,0.0978812,1,5.08429e-05,-2.35595e-06,2.37353e-05,0.0101686,-0.000471191,0.00474705,0,0,0,0,0.017478,0.51323,-1.00179,34.1875,1,16556,48130476
140,2,-0.671987,-0.0764875,9.78474,0.0860586,-0.63669,0.981327,-0.00672218,-0.000772394,0.0978472,1,3.72511e-05,-1.19637e-05,1.70841e-05,0.00745023,-0.00239273,0.00341682,0,0,0,0,0.0156229,0.511268,-1.00031,34.1875,1,16557,48130576
140,3,-0.671987,-0.0764875,9.78474,0.0860586,-0.63669,0.981327,-0.00672218,-0.000772394,0.0978472,1,3.72511e-05,-1.19637e-05,1.70841e-05,0.00745023,-0.00239273,0.00341682,0,0,0,0,0.0156229,0.511268,-1.00031,34.1875,1,16557,48130576
140,4,-0.664141,-0.0869431,9.789,0.0908661,-0.645522,0.985816,-0.00664327,-0.000878764,0.0978898,1,4.54056e-05,-9.80463e-06,3.33601e-05,0.00908113,-0.00196093,0.00667203,0,0,0,0,0.0172555,0.511599,-0.992228,34.1875,1,16558,48130676
141,1,-0.664141,-0.0869431,9.789,0.0908661,-0.645522,0.985816,-0.00664327,-0.000878764,0.0978898,1,4.54056e-05,-9.80463e-06,3.33601e-05,0.00908113,-0.00196093,0.00667203,0,0,0,0,0.0172555,0.511599,-0.992228,34.1875,1,16558,48130676
141,2,-0.68447,-0.0848694,9.79323,0.0711997,-0.645116,0.989687,-0.00684637,-0.000857548,0.0979321,1,4.44764e-05,-8.63679e-06,1.04026e-05,0.00889527,-0.00172736,0.00208052,0,0,0,0,0.0176678,0.515018,-0.992659,34.1875,1,16559,48130776
141,3,-0.68447,-0.0848694,9.79323,0.0711997,-0.645116,0.989687,-0.00684637,-0.000857548,0.0979321,1,4.44764e-05,-8.63679e-06,1.04026e-05,0.00889527,-0.00172736,0.00208052,0,0,0,0,0.0176678,0.515018,-0.992659,34.1875,1,16559,48130776
141,4,-0.680391,-0.0874556,9.79589,0.0757386,-0.643899,0.994829,-0.00680636,-0.000886363,0.0979586,1,5.96382e-05,-1.25843e-05,9.01345e-06,0.0119276,-0.00251687,0.00180269,0,0,0,0,0.0209208,0.516038,-0.996692,34.1875,1,16560,48130876
141,5,-0.680391,-0.0874556,9.79589,0.0757386,-0.643899,0.994829,-0.00680636,-0.000886363,0.0979586,1,5.96382e-05,-1.25843e-05,9.01345e-06,0.0119276,-0.00251687,0.00180269,0,0,0,0,0.0209208,0.516038,-0.996692,34.1875,1,16560,48130876
141,6,-0.671363,-0.0775177,9.79625,0.0872443,-0.636701,0.995801,-0.00671468,-0.000785646,0.0979623,1,5.25321e-05,-5.45044e-06,1.31634e-05,0.0105064,-0.00109009,0.00263268,0,0,0,0,0.0203452,0.516593,-1.00021,34.1875,1,16561,48130976
142,1,-0.671363,-0.0775177,9.79625,0.0872443,-0.636701,0.995801,-0.00671468,-0.000785646,0.0979623,1,5.25321e-05,-5.45044e-06,1.31634e-05,0.0105064,-0.00109009,0.00263268,0,0,0,0,0.0203452,0.516593,-1.00021,34.1875,1,16561,48130976
142,2,-0.677404,-0.0846088,9.79183,0.0747055,-0.648864,0.988374,-0.00677475,-0.000852495,0.0979182,1,2.99812e-05,-3.94911e-06,3.94973e-05,0.00599624,-0.000789821,0.00789945,0,0,0,0,0.0179354,0.516134,-1.00072,34.1875,1,16562,48131076
143,1,-0.677404,-0.0846088,9.79183,0.0747055,-0.648864,0.988374,-0.00677475,-0.000852495,0.0979182,1,2.99812e-05,-3.94911e-06,3.94973e-05,0.00599624,-0.000789821,0.00789945,0,0,0,0,0.0179354,0.516134,-1.00072,34.1875,1,16562,48131076
143,2,-0.680231,-0.0688766,9.78452,0.0745859,-0.632599,0.982738,-0.00680505,-0.000694114,0.097845,1,2.61758e-05,-1.41338e-05,1.65365e-05,0.00523516,-0.00282676,0.0033073,0,0,0,0,0.017079,0.512692,-0.998769,34.1875,1,16563,48131176
143,3,-0.680231,-0.0688766,9.78452,0.0745859,-0.632599,0.982738,-0.00680505,-0.000694114,0.097845,1,2.61758e-05,-1.41338e-05,1.65365e-05,0.00523516,-0.00282676,0.0033073,0,0,0,0,0.017079,0.512692,-0.998769,34.1875,1,16563,48131176
143,4,-0.661911,-0.0703482,9.79692,0.0963403,-0.632588,0.997371,-0.00661969,-0.00071139,0.0979691,1,3.92739e-05,-3.05258e-06,1.60747e-05,0.00785478,-0.000610515,0.00321495,0,0,0,0,0.0177034,0.510656,-0.994271,34.1875,1,16564,48131276
144,1,-0.661911,-0.0703482,9.79692,0.0963403,-0.632588,0.997371,-0.00661969,-0.00071139,0.0979691,1,3.92739e-05,-3.05258e-06,1.60747e-05,0.00785478,-0.000610515,0.00321495,0,0,0,0,0.0177034,0.510656,-0.994271,34.1875,1,16564,48131276
144,2,-0.669484,-0.0722825,9.78712,0.0876408,-0.633787,0.982904,-0.00669495,-0.00073254,0.0978711,1,4.93359e-05,-5.90728e-07,4.28243e-06,0.00986718,-0.000118146,0.000856486,0,0,0,0,0.0186504,0.514514,-0.99217,34.1875,1,16565,48131376
144,3,-0.669484,-0.0722825,9.78712,0.0876408,-0.633787,0.982904,-0.00669495,-0.00073254,0.0978711,1,4.93359e-05,-5.90728e-07,4.28243e-06,0.00986718,-0.000118146,0.000856486,0,0,0,0,0.0186504,0.514514,-0.99217,34.1875,1,16565,48131376
144,4,-0.684447,-0.0876282,9.79286,0.0738111,-0.647325,0.987768,-0.00684705,-0.000884462,0.0979284,1,4.1062e-05,-1.32789e-05,1.00526e-05,0.0082124,-0.00265578,0.00201051,0,0,0,0,0.0199956,0.516019,-0.995173,34.1875,1,16566,48131476
145,1,-0.684447,-0.0876282,9.79286,0.0738111,-0.647325,0.987768,-0.00684705,-0.000884462,0.0979284,1,4.1062e-05,-1.32789e-05,1.00526e-05,0.0082124,-0.00265578,0.00201051,0,0,0,0,0.0199956,0.516019,-0.995173,34.1875,1,16566,48131476
145,2,-0.672777,-0.073867,9.78679,0.0893463,-0.633292,0.986614,-0.00672997,-0.000751451,0.0978676,1,6.36335e-05,-1.14083e-05,2.4224e-05,0.0127267,-0.00228166,0.00484481,0,0,0,0,0.0198395,0.516615,-1.00122,34.1875,1,16567,48131576
145,3,-0.672777,-0.073867,9.78679,0.0893463,-0.633292,0.986614,-0.00672997,-0.000751451,0.0978676,1,6.36335e-05,-1.14083e-05,2.4224e-05,0.0127267,-0.00228166,0.00484481,0,0,0,0,0.0198395,0.516615,-1.00122,34.1875,1,16567,48131576
145,4,-0.688031,-0.0797905,9.78515,0.0667088,-0.642043,0.982369,-0.00688262,-0.000805068,0.0978513,1,3.62265e-05,-1.18334e-05,5.31238e-06,0.00724531,-0.00236668,0.00106248,0,0,0,0,0.0184407,0.514667,-1.00075,34.1875,1,16568,48131676
146,1,-0.688031,-0.0797905,9.78515,0.0667088,-0.642043,0.982369,-0.00688262,-0.000805068,0.0978513,1,3.62265e-05,-1.18334e-05,5.31238e-06,0.00724531,-0.00236668,0.00106248,0,0,0,0,0.0184407,0.514667,-1.00075,34.1875,1,16568,48131676
146,2,-0.673151,-0.0718949,9.79428,0.0852007,-0.634365,0.989403,-0.0067309,-0.00073117,0.0979427,1,6.09216e-05,2.98194e-06,2.13885e-05,0.0121843,0.000596388,0.0042777,0,0,0,0,0.0171321,0.511689,-0.997276,34.1875,1,16569,48131776
146,3,-0.673151,-0.0718949,9.79428,0.0852007,-0.634365,0.989403,-0.0067309,-0.00073117,0.0979427,1,6.09216e-05,2.98194e-06,2.13885e-05,0.0121843,0.000596388,0.0042777,0,0,0,0,0.0171321,0.511689,-0.997276,34.1875,1,16569,48131776
146,4,-0.674789,-0.0773639,9.78678,0.0817685,-0.640874,0.986327,-0.00674919,-0.000779812,0.0978676,1,3.05455e-05,-6.74659e-06,1.43759e-05,0.0061091,-0.00134932,0.00287517,0,0,0,0,0.0172427,0.510163,-0.993775,34.1875,1,16570,48131876
147,1,-0.674789,-0.0773639,9.78678,0.0817685,-0.640874,0.986327,-0.00674919,-0.000779812,0.0978676,1,3.05455e-05,-6.74659e-06,1.43759e-05,0.0061091,-0.00134932,0.00287517,0,0,0,0,0.0172427,0.510163,-0.993775,34.1875,1,16570,48131876
147,2,-0.669692,-0.0763653,9.78506,0.0889227,-0.636943,0.980635,-0.00669866,-0.000772701,0.0978504,1,4.56199e-05,-8.96681e-06,8.99475e-06,0.00912398,-0.00179336,0.00179895,0,0,0,0,0.0191515,0.512568,-0.99272,34.1875,1,16571,48131976
147,3,-0.669692,-0.0763653,9.78506,0.0889227,-0.636943,0.980635,-0.00669866,-0.000772701,0.0978504,1,4.56199e-05,-8.96681e-06,8.99475e-06,0.00912398,-0.00179336,0.00179895,0,0,0,0,0.0191515,0.512568,-0.99272,34.1875,1,16571,48131976
147,4,-0.691475,-0.0815142,9.7821,0.0642969,-0.642274,0.979893,-0.00691535,-0.000827772,0.0978209,1,6.34007e-05,-3.21477e-06,1.63503e-05,0.0126801,-0.000642954,0.00327006,0,0,0,0,0.0214024,0.517479,-0.995652,34.1875,1,16572,48132076
147,5,-0.691475,-0.0815142,9.7821,0.0642969,-0.642274,0.979893,-0.00691535,-0.000827772,0.0978209,1,6.34007e-05,-3.21477e-06,1.63503e-05,0.0126801,-0.000642954,0.00327006,0,0,0,0,0.0214024,0.517479,-0.995652,34.1875,1,16572,48132076
147,6,-0.678608,-0.0822398,9.78574,0.0781571,-0.649424,0.981158,-0.0067862,-0.000833356,0.0978573,1,5.44729e-05,-7.78794e-07,2.18752e-05,0.0108946,-0.000155759,0.00437505,0,0,0,0,0.0188777,0.518068,-1.00017,34.1875,1,16573,48132176
148,1,-0.678608,-0.0822398,9.78574,0.0781571,-0.649424,0.981158,-0.0067862,-0.000833356,0.0978573,1,5.44729e-05,-7.78794e-07,2.18752e-05,0.0108946,-0.000155759,0.00437505,0,0,0,0,0.0188777,0.518068,-1.00017,34.1875,1,16573,48132176
148,2,-0.668888,-0.0798422,9.79045,0.0926579,-0.64619,0.986556,-0.00669092,-0.000808363,0.0979043,1,4.90491e-05,-1.06281e-05,2.51642e-05,0.00980983,-0.00212561,0.00503284,0,0,0,0,0.0165528,0.513211,-1.00027,34.1875,1,16574,48132276
148,3,-0.668888,-0.0798422,9.79045,0.0926579,-0.64619,0.986556,-0.00669092,-0.000808363,0.0979043,1,4.90491e-05,-1.06281e-05,2.51642e-05,0.00980983,-0.00212561,0.00503284,0,0,0,0,0.0165528,0.513211,-1.00027,34.1875,1,16574,48132276
148,4,-0.672789,-0.0722906,9.78783,0.0822616,-0.642554,0.986152,-0.00672971,-0.000733566,0.0978781,1,5.27761e-05,-9.46938e-06,2.44288e-05,0.0105552,-0.00189388,0.00488576,0,0,0,0,0.0166425,0.510736,-0.998305,34.1875,1,16575,48132376
149,1,-0.672789,-0.0722906,9.78783,0.0822616,-0.642554,0.986152,-0.00672971,-0.000733566,0.0978781,1,5.27761e-05,-9.46938e-06,2.44288e-05,0.0105552,-0.00189388,0.00488576,0,0,0,0,0.0166425,0.510736,-0.998305,34.1875,1,16575,48132376
149,2,-0.678682,-0.0768988,9.79258,0.0792803,-0.642082,0.990617,-0.00679047,-0.000778491,0.0979255,1,4.67768e-05,-1.88125e-05,2.51921e-05,0.00935536,-0.00376249,0.00503843,0,0,0,0,0.016725,0.511639,-0.994245,34.1875,1,16576,48132476
149,3,-0.678682,-0.0768988,9.79258,0.0792803,-0.642082,0.990617,-0.00679047,-0.000778491,0.0979255,1,4.67768e-05,-1.88125e-05,2.51921e-05,0.00935536,-0.00376249,0.00503843,0,0,0,0,0.016725,0.511639,-0.994245,34.1875,1,16576,48132476
149,4,-0.669631,-0.0774511,9.78302,0.0939523,-0.639251,0.981348,-0.00669841,-0.000784042,0.09783,1,4.78682e-05,-1.08199e-05,1.23285e-05,0.00957365,-0.00216398,0.0024657,0,0,0,0,0.0166771,0.516011,-0.993138,34.1875,1,16577,48132576
149,5,-0.669631,-0.0774511,9.78302,0.0939523,-0.639251,0.981348,-0.00669841,-0.000784042,0.09783,1,4.78682e-05,-1.08199e-05,1.23285e-05,0.00957365,-0.00216398,0.0024657,0,0,0,0,0.0166771,0.516011,-0.993138,34.1875,1,16577,48132576
149,6,-0.681007,-0.0795274,9.77899,0.0751128,-0.643873,0.972122,-0.00681053,-0.000804699,0.0977898,1,4.68716e-05,-2.51796e-06,1.89413e-05,0.00937432,-0.000503593,0.00378827,0,0,0,0,0.0185118,0.51847,-0.995112,34.1875,1,16578,48132676
150,1,-0.681007,-0.0795274,9.77899,0.0751128,-0.643873,0.972122,-0.00681053,-0.000804699,0.0977898,1,4.68716e-05,-2.51796e-06,1.89413e-05,0.00937432,-0.000503593,0.00378827,0,0,0,0,0.0185118,0.51847,-0.995112,34.1875,1,16578,48132676
150,2,-0.66961,-0.0697256,9.8058,0.0904817,-0.638211,0.999416,-0.00669764,-0.000707225,0.0980579,1,4.95091e-05,-8.01158e-06,1.93771e-05,0.00990182,-0.00160232,0.00387542,0,0,0,0,0.0193873,0.51708,-0.999692,34.1875,1,16579,48132776
151,1,-0.66961,-0.0697256,9.8058,0.0904817,-0.638211,0.999416,-0.00669764,-0.000707225,0.0980579,1,4.95091e-05,-8.01158e-06,1.93771e-05,0.00990182,-0.00160232,0.00387542,0,0,0,0,0.0193873,0.51708,-0.999692,34.1875,1,16579,48132776
151,2,-0.678593,-0.0757826,9.78648,0.0798522,-0.644373,0.981606,-0.00678596,-0.000767952,0.0978647,1,5.03249e-05,-3.25978e-07,2.03196e-05,0.010065,-6.51956e-05,0.00406391,0,0,0,0,0.0188929,0.514202,-1.00228,34.1875,1,16580,48132876
151,3,-0.678593,-0.0757826,9.78648,0.0798522,-0.644373,0.981606,-0.00678596,-0.000767952,0.0978647,1,5.03249e-05,-3.25978e-07,2.03196e-05,0.010065,-6.51956e-05,0.00406391,0,0,0,0,0.0188929,0.514202,-1.00228,34.1875,1,16580,48132876
151,4,-0.678511,-0.0755615,9.78784,0.0778345,-0.646644,0.985754,-0.00678655,-0.000763249,0.0978782,1,3.74373e-05,-7.53445e-06,2.25342e-05,0.00748747,-0.00150689,0.00450683,0,0,0,0,0.0165609,0.512723,-1.00028,34.1875,1,16581,48132976
152,1,-0.678511,-0.0755615,9.78784,0.0778345,-0.646644,0.985754,-0.00678655,-0.000763249,0.0978782,1,3.74373e-05,-7.53445e-06,2.25342e-05,0.00748747,-0.00150689,0.00450683,0,0,0,0,0.0165609,0.512723,-1.00028,34.1875,1,16581,48132976
152,2,-0.676542,-0.0666083,9.79332,0.0860431,-0.63606,0.99198,-0.00676702,-0.000674785,0.0979331,1,4.28463e-05,-8.30928e-06,2.29033e-05,0.00856926,-0.00166186,0.00458066,0,0,0,0,0.0171696,0.513107,-0.99472,34.1875,1,16582,48133076
152,3,-0.676542,-0.0666083,9.79332,0.0860431,-0.63606,0.99198,-0.00676702,-0.000674785,0.0979331,1,4.28463e-05,-8.30928e-06,2.29033e-05,0.00856926,-0.00166186,0.00458066,0,0,0,0,0.0171696,0.513107,-0.99472,34.1875,1,16582,48133076
152,4,-0.676237,-0.0807425,9.78203,0.0846471,-0.651531,0.981653,-0.00676774,-0.000814369,0.0978198,1,3.40549e-05,-2.76082e-05,2.08408e-05,0.00681098,-0.00552165,0.00416815,0,0,0,0,0.017635,0.515524,-0.993658,34.1875,1,16583,48133176
152,5,-0.676237,-0.0807425,9.78203,0.0846471,-0.651531,0.981653,-0.00676774,-0.000814369,0.0978198,1,3.40549e-05,-2.76082e-05,2.08408e-05,0.00681098,-0.00552165,0.00416815,0,0,0,0,0.017635,0.515524,-0.993658,34.1875,1,16583,48133176
152,6,-0.677077,-0.0798697,9.78237,0.0844613,-0.651016,0.978974,-0.00677403,-0.000807802,0.0978234,1,4.47389e-05,-1.68791e-05,2.60342e-05,0.00894778,-0.00337582,0.00520685,0,0,0,0,0.0194489,0.517035,-0.997168,34.1875,1,16584,48133276
153,1,-0.677077,-0.0798697,9.78237,0.0844613,-0.651016,0.978974,-0.00677403,-0.000807802,0.0978234,1,4.47389e-05,-1.68791e-05,2.60342e-05,0.00894778,-0.00337582,0.00520685,0,0,0,0,0.0194489,0.517035,-0.997168,34.1875,1,16584,48133276
153,2,-0.670877,-0.0797375,9.79691,0.0884253,-0.647217,0.994796,-0.0067117,-0.00081111,0.0979688,1,6.93499e-05,-1.5043e-05,1.093e-05,0.01387,-0.0030086,0.00218601,0,0,0,0,0.0208059,0.517086,-1.00071,34.1875,1,16585,48133376
153,3,-0.670877,-0.0797375,9.79691,0.0884253,-0.647217,0.994796,-0.0067117,-0.00081111,0.0979688,1,6.93499e-05,-1.5043e-05,1.093e-05,0.01387,-0.0030086,0.00218601,0,0,0,0,0.0208059,0.517086,-1.00071,34.1875,1,16585,48133376
153,4,-0.684408,-0.0669577,9.79337,0.0708857,-0.637266,0.992862,-0.00684483,-0.000680205,0.0979336,1,5.31115e-05,-3.92775e-06,1.64529e-05,0.0106223,-0.00078555,0.00329058,0,0,0,0,0.0198793,0.512731,-1.00232,34.1875,1,16586,48133476
153,5,-0.684408,-0.0669577,9.79337,0.0708857,-0.637266,0.992862,-0.00684483,-0.000680205,0.0979336,1,5.31115e-05,-3.92775e-06,1.64529e-05,0.0106223,-0.00078555,0.00329058,0,0,0,0,0.0198793,0.512731,-1.00232,34.1875,1,16586,48133476
153,6,-0.674172,-0.0772659,9.79764,0.0827742,-0.650235,0.995217,-0.00674641,-0.000780642,0.097976,1,3.90058e-05,-2.41192e-05,2.51793e-05,0.00780117,-0.00482384,0.00503585,0,0,0,0,0.0180612,0.510742,-0.999322,34.1875,1,16587,48133576
154,1,-0.674172,-0.0772659,9.79764,0.0827742,-0.650235,0.995217,-0.00674641,-0.000780642,0.097976,1,3.90058e-05,-2.41192e-05,2.51793e-05,0.00780117,-0.00482384,0.00503585,0,0,0,0,0.0180612,0.510742,-0.999322,34.1875,1,16587,48133576
154,2,-0.678258,-0.0721696,9.78955,0.0791812,-0.641382,0.989121,-0.00678419,-0.000729263,0.0978954,1,3.80557e-05,-8.27928e-06,8.52743e-06,0.00761114,-0.00165586,0.00170549,0,0,0,0,0.0181641,0.511148,-0.994768,34.1875,1,16588,48133676
155,1,-0.678258,-0.0721696,9.78955,0.0791812,-0.641382,0.989121,-0.00678419,-0.000729263,0.0978954,1,3.80557e-05,-8.27928e-06,8.52743e-06,0.00761114,-0.00165586,0.00170549,0,0,0,0,0.0181641,0.511148,-0.994768,34.1875,1,16588,48133676
155,2,-0.672555,-0.0633928,9.77773,0.0857195,-0.632408,0.972739,-0.006727,-0.000643264,0.0977771,1,4.7179e-05,-7.49097e-06,8.16572e-06,0.00943581,-0.00149819,0.00163314,0,0,0,0,0.0186134,0.514541,-0.993684,34.1875,1,16589,48133776
156,1,-0.672555,-0.0633928,9.77773,0.0857195,-0.632408,0.972739,-0.006727,-0.000643264,0.0977771,1,4.7179e-05,-7.49097e-06,8.16572e-06,0.00943581,-0.00149819,0.00163314,0,0,0,0,0.0186134,0.514541,-0.993684,34.1875,1,16589,48133776
156,2,-0.681187,-0.0707887,9.79468,0.080429,-0.639888,0.991236,-0.00681306,-0.000716206,0.0979467,1,4.14738e-05,-6.1743e-06,1.42564e-05,0.00829476,-0.00123486,0.00285129,0,0,0,0,0.0204235,0.517018,-0.996668,34.1875,1,16590,48133876
156,3,-0.681187,-0.0707887,9.79468,0.080429,-0.639888,0.991236,-0.00681306,-0.000716206,0.0979467,1,4.14738e-05,-6.1743e-06,1.42564e-05,0.00829476,-0.00123486,0.00285129,0,0,0,0,0.0204235,0.517018,-0.996668,34.1875,1,16590,48133876
156,4,-0.669706,-0.0770697,9.78743,0.0845556,-0.648369,0.984622,-0.00669767,-0.000781327,0.0978741,1,5.25173e-05,-3.32863e-06,2.61068e-05,0.0105035,-0.000665727,0.00522136,0,0,0,0,0.0207893,0.516616,-1.00173,34.1875,1,16591,48133976
157,1,-0.669706,-0.0770697,9.78743,0.0845556,-0.648369,0.984622,-0.00669767,-0.000781327,0.0978741,1,5.25173e-05,-3.32863e-06,2.61068e-05,0.0105035,-0.000665727,0.00522136,0,0,0,0,0.0207893,0.516616,-1.00173,34.1875,1,16591,48133976
157,2,-0.670318,-0.0777683,9.79658,0.0931182,-0.648875,0.995461,-0.00670343,-0.000788323,0.0979657,1,5.21802e-05,-1.48781e-06,3.1026e-05,0.010436,-0.000297562,0.00620519,0,0,0,0,0.0184279,0.513231,-1.0023,34.1875,1,16592,48134076
158,1,-0.670318,-0.0777683,9.79658,0.0931182,-0.648875,0.995461,-0.00670343,-0.000788323,0.0979657,1,5.21802e-05,-1.48781e-06,3.1026e-05,0.010436,-0.000297562,0.00620519,0,0,0,0,0.0184279,0.513231,-1.0023,34.1875,1,16592,48134076
158,2,-0.67049,-0.0771784,9.78742,0.0907963,-0.652723,0.988967,-0.00670387,-0.00078037,0.0978742,1,4.18052e-05,4.99396e-06,3.00464e-05,0.00836104,0.000998792,0.00600927,0,0,0,0,0.016606,0.512208,-0.998778,34.1875,3,16593,48134176
158,3,-0.67049,-0.0771784,9.78742,0.0907963,-0.652723,0.988967,-0.00670387,-0.00078037,0.0978742,1,4.18052e-05,4.99396e-06,3.00464e-05,0.00836104,0.000998792,0.00600927,0,0,0,0,0.016606,0.512208,-0.998778,34.1875,3,16593,48134176
158,4,-0.671597,-0.0842737,9.78569,0.0845114,-0.6568,0.985294,-0.00671811,-0.000851334,0.0978567,1,4.25802e-05,-1.11252e-05,1.96284e-05,0.00851604,-0.00222505,0.00392568,0,0,0,0,0.017182,0.513098,-0.994215,34.1875,3,16594,48134276
158,5,-0.671597,-0.0842737,9.78569,0.0845114,-0.6568,0.985294,-0.00671811,-0.000851334,0.0978567,1,4.25802e-05,-1.11252e-05,1.96284e-05,0.00851604,-0.00222505,0.00392568,0,0,0,0,0.017182,0.513098,-0.994215,34.1875,3,16594,48134276
158,6,-0.672522,-0.0720127,9.78782,0.0859258,-0.642881,0.988021,-0.00672445,-0.000729972,0.0978782,1,4.86244e-05,3.77188e-06,2.4287e-05,0.00972488,0.000754376,0.00485739,0,0,0,0,0.0176716,0.514052,-0.993186,34.1875,3,16595,48134376
159,1,-0.672522,-0.0720127,9.78782,0.0859258,-0.642881,0.988021,-0.00672445,-0.000729972,0.0978782,1,4.86244e-05,3.77188e-06,2.4287e-05,0.00972488,0.000754376,0.00485739,0,0,0,0,0.0176716,0.514052,-0.993186,34.1875,3,16595,48134376
159,2,-0.67768,-0.080652,9.79152,0.083838,-0.650116,0.99097,-0.00678093,-0.000815408,0.0979148,1,4.41222e-05,-2.12231e-05,1.82355e-05,0.00882443,-0.00424462,0.0036471,0,0,0,0,0.0199662,0.514113,-0.99774,34.1875,3,16596,48134476
159,3,-0.67768,-0.080652,9.79152,0.083838,-0.650116,0.99097,-0.00678093,-0.000815408,0.0979148,1,4.41222e-05,-2.12231e-05,1.82355e-05,0.00882443,-0.00424462,0.0036471,0,0,0,0,0.0199662,0.514113,-0.99774,34.1875,3,16596,48134476
159,4,-0.671371,-0.0674075,9.79329,0.0886931,-0.64216,0.98778,-0.00671472,-0.000682528,0.0979328,1,4.22915e-05,-5.27494e-06,1.26247e-05,0.0084583,-0.00105499,0.00252494,0,0,0,0,0.0188606,0.516153,-1.00224,34.1875,3,16597,48134576
160,1,-0.671371,-0.0674075,9.79329,0.0886931,-0.64216,0.98778,-0.00671472,-0.000682528,0.0979328,1,4.22915e-05,-5.27494e-06,1.26247e-05,0.0084583,-0.00105499,0.00252494,0,0,0,0,0.0188606,0.516153,-1.00224,34.1875,3,16597,48134576
160,2,-0.674691,-0.0767396,9.79391,0.0841054,-0.651745,0.993169,-0.00674922,-0.000779226,0.0979389,1,6.03703e-05,-1.18179e-05,3.42759e-07,0.0120741,-0.00236358,6.85517e-05,0,0,0,0,0.0178937,0.514237,-1.00379,34.1875,3,16598,48134676
160,3,-0.674691,-0.0767396,9.79391,0.0841054,-0.651745,0.993169,-0.00674922,-0.000779226,0.0979389,1,6.03703e-05,-1.18179e-05,3.42759e-07,0.0120741,-0.00236358,6.85517e-05,0,0,0,0,0.0178937,0.514237,-1.00379,34.1875,3,16598,48134676
160,4,-0.676495,-0.0692978,9.78991,0.0793914,-0.6432,0.989315,-0.00676667,-0.000703327,0.0978989,1,5.17927e-05,-8.87579e-06,1.53537e-05,0.0103585,-0.00177516,0.00307074,0,0,0,0,0.017572,0.511234,-0.999309,34.1875,3,16599,48134776
161,1,-0.676495,-0.0692978,9.78991,0.0793914,-0.6432,0.989315,-0.00676667,-0.000703327,0.0978989,1,5.17927e-05,-8.87579e-06,1.53537e-05,0.0103585,-0.00177516,0.00307074,0,0,0,0,0.017572,0.511234,-0.999309,34.1875,3,16599,48134776
161,2,-0.682874,-0.0796605,9.78512,0.0765986,-0.654219,0.982063,-0.0068316,-0.000805237,0.0978509,1,4.34164e-05,-1.47149e-05,9.86641e-06,0.00868328,-0.00294299,0.00197328,0,0,0,0,0.017712,0.511613,-0.99324,34.1875,3,16600,48134876
161,3,-0.682874,-0.0796605,9.78512,0.0765986,-0.654219,0.982063,-0.0068316,-0.000805237,0.0978509,1,4.34164e-05,-1.47149e-05,9.86641e-06,0.00868328,-0.00294299,0.00197328,0,0,0,0,0.017712,0.511613,-0.99324,34.1875,3,16600,48134876
161,4,-0.66806,-0.0701674,9.78239,0.0920562,-0.641914,0.98192,-0.00668163,-0.000711897,0.0978237,1,5.04982e-05,-5.43905e-06,2.56894e-05,0.0100996,-0.00108781,0.00513789,0,0,0,0,0.0186504,0.514514,-0.99217,34.1875,3,16601,48134976
162,1,-0.66806,-0.0701674,9.78239,0.0920562,-0.641914,0.98192,-0.00668163,-0.000711897,0.0978237,1,5.04982e-05,-5.43905e-06,2.56894e-05,0.0100996,-0.00108781,0.00513789,0,0,0,0,0.0186504,0.514514,-0.99217,34.1875,3,16601,48134976
162,2,-0.672353,-0.0702539,9.78242,0.0877773,-0.642489,0.978843,-0.0067271,-0.000711371,0.0978239,1,4.35374e-05,-1.84182e-05,2.33258e-05,0.00870748,-0.00368364,0.00466516,0,0,0,0,0.020424,0.518463,-0.995626,34.1875,3,16602,48135076
162,3,-0.672353,-0.0702539,9.78242,0.0877773,-0.642489,0.978843,-0.0067271,-0.000711371,0.0978239,1,4.35374e-05,-1.84182e-05,2.33258e-05,0.00870748,-0.00368364,0.00466516,0,0,0,0,0.020424,0.518463,-0.995626,34.1875,3,16602,48135076
162,4,-0.663592,-0.0780505,9.79043,0.0948546,-0.654057,0.983559,-0.00663635,-0.000791286,0.0979042,1,5.38825e-05,-2.30438e-06,1.73581e-05,0.0107765,-0.000460875,0.00347162,0,0,0,0,0.0197906,0.518096,-1.0022,34.1875,3,16603,48135176
162,5,-0.663592,-0.0780505,9.79043,0.0948546,-0.654057,0.983559,-0.00663635,-0.000791286,0.0979042,1,5.38825e-05,-2.30438e-06,1.73581e-05,0.0107765,-0.000460875,0.00347162,0,0,0,0,0.0197906,0.518096,-1.0022,34.1875,3,16603,48135176
162,6,-0.676992,-0.0853602,9.79046,0.0803881,-0.664102,0.983533,-0.00677222,-0.000864667,0.0979043,1,5.56839e-05,-1.18873e-05,1.19691e-05,0.0111368,-0.00237746,0.00239383,0,0,0,0,0.0174249,0.514232,-1.00328,34.1875,3,16604,48135276
163,1,-0.676992,-0.0853602,9.79046,0.0803881,-0.664102,0.983533,-0.00677222,-0.000864667,0.0979043,1,5.56839e-05,-1.18873e-05,1.19691e-05,0.0111368,-0.00237746,0.00239383,0,0,0,0,0.0174249,0.514232,-1.00328,34.1875,3,16604,48135276
163,2,-0.672132,-0.0755336,9.78643,0.0899794,-0.654204,0.983744,-0.00672166,-0.000761635,0.0978643,1,3.12123e-05,-1.8069e-06,1.41542e-05,0.00624247,-0.000361379,0.00283085,0,0,0,0,0.0156148,0.511755,-1.0003,34.1875,3,16605,48135376
163,3,-0.672132,-0.0755336,9.78643,0.0899794,-0.654204,0.983744,-0.00672166,-0.000761635,0.0978643,1,3.12123e-05,-1.8069e-06,1.41542e-05,0.00624247,-0.000361379,0.00283085,0,0,0,0,0.0156148,0.511755,-1.0003,34.1875,3,16605,48135376
163,4,-0.675049,-0.0799125,9.79253,0.0806477,-0.65864,0.992609,-0.00675295,-0.000809007,0.097925,1,4.93284e-05,-1.26922e-05,1.63281e-05,0.00986567,-0.00253844,0.00326562,0,0,0,0,0.0186329,0.511153,-0.995275,34.1875,3,16606,48135476
163,5,-0.675049,-0.0799125,9.79253,0.0806477,-0.65864,0.992609,-0.00675295,-0.000809007,0.097925,1,4.93284e-05,-1.26922e-05,1.63281e-05,0.00986567,-0.00253844,0.00326562,0,0,0,0,0.0186329,0.511153,-0.995275,34.1875,3,16606,48135476
163,6,-0.671999,-0.0863083,9.78295,0.0842865,-0.663551,0.97973,-0.00672236,-0.000872315,0.0978293,1,4.63836e-05,-1.21927e-05,1.16696e-05,0.00927672,-0.00243853,0.00233393,0,0,0,0,0.0191026,0.514049,-0.993698,34.1875,3,16607,48135576
164,1,-0.671999,-0.0863083,9.78295,0.0842865,-0.663551,0.97973,-0.00672236,-0.000872315,0.0978293,1,4.63836e-05,-1.21927e-05,1.16696e-05,0.00927672,-0.00243853,0.00233393,0,0,0,0,0.0191026,0.514049,-0.993698,34.1875,3,16607,48135576
164,2,-0.667435,-0.0722196,9.78474,0.097731,-0.651034,0.977256,-0.00667456,-0.000731793,0.0978473,1,4.71975e-05,-1.27243e-06,2.70308e-05,0.0094395,-0.000254485,0.00540616,0,0,0,0,0.0184829,0.518009,-0.996637,34.1875,3,16608,48135676
164,3,-0.667435,-0.0722196,9.78474,0.097731,-0.651034,0.977256,-0.00667456,-0.000731793,0.0978473,1,4.71975e-05,-1.27243e-06,2.70308e-05,0.0094395,-0.000254485,0.00540616,0,0,0,0,0.0184829,0.518009,-0.996637,34.1875,3,16608,48135676
164,4,-0.680419,-0.0766185,9.7987,0.0818849,-0.658587,0.996092,-0.0068063,-0.000776249,0.0979868,1,4.97364e-05,-1.09357e-05,2.3281e-05,0.00994729,-0.00218714,0.00465621,0,0,0,0,0.0188283,0.518104,-1.00219,34.1875,3,16609,48135776
164,5,-0.680419,-0.0766185,9.7987,0.0818849,-0.658587,0.996092,-0.0068063,-0.000776249,0.0979868,1,4.97364e-05,-1.09357e-05,2.3281e-05,0.00994729,-0.00218714,0.00465621,0,0,0,0,0.0188283,0.518104,-1.00219,34.1875,3,16609,48135776
164,6,-0.672064,-0.0788566,9.79183,0.0847155,-0.658661,0.992565,-0.0067214,-0.00079834,0.0979182,1,4.82722e-05,-4.07925e-06,2.38271e-05,0.00965445,-0.000815849,0.00476541,0,0,0,0,0.0193408,0.513259,-1.00432,34.1875,3,16610,48135876
165,1,-0.672064,-0.0788566,9.79183,0.0847155,-0.658661,0.992565,-0.0067214,-0.00079834,0.0979182,1,4.82722e-05,-4.07925e-06,2.38271e-05,0.00965445,-0.000815849,0.00476541,0,0,0,0,0.0193408,0.513259,-1.00432,34.1875,3,16610,48135876
165,2,-0.682504,-0.0837861,9.79118,0.0786657,-0.666216,0.988799,-0.00682782,-0.000846606,0.0979115,1,4.32412e-05,-1.43667e-05,2.03366e-05,0.00864824,-0.00287333,0.00406732,0,0,0,0,0.0180204,0.511735,-1.00031,34.1875,3,16611,48135976
165,3,-0.682504,-0.0837861,9.79118,0.0786657,-0.666216,0.988799,-0.00682782,-0.000846606,0.0979115,1,4.32412e-05,-1.43667e-05,2.03366e-05,0.00864824,-0.00287333,0.00406732,0,0,0,0,0.0180204,0.511735,-1.00031,34.1875,3,16611,48135976
165,4,-0.67179,-0.073754,9.79119,0.0898016,-0.652915,0.990345,-0.0067174,-0.000745554,0.0979119,1,4.01307e-05,2.47143e-06,1.15371e-05,0.00802615,0.000494286,0.00230742,0,0,0,0,0.0181769,0.512585,-0.993221,34.1875,3,16612,48136076
165,5,-0.67179,-0.073754,9.79119,0.0898016,-0.652915,0.990345,-0.0067174,-0.000745554,0.0979119,1,4.01307e-05,2.47143e-06,1.15371e-05,0.00802615,0.000494286,0.00230742,0,0,0,0,0.0181769,0.512585,-0.993221,34.1875,3,16612,48136076
165,6,-0.674281,-0.0741177,9.79427,0.086339,-0.655568,0.994094,-0.00674713,-0.000752175,0.0979424,1,5.43091e-05,-2.22459e-05,2.67046e-05,0.0108618,-0.00444918,0.00534092,0,0,0,0,0.0200653,0.515486,-0.99266,34.1875,3,16613,48136176
165,7,-0.674281,-0.0741177,9.79427,0.086339,-0.655568,0.994094,-0.00674713,-0.000752175,0.0979424,1,5.43091e-05,-2.22459e-05,2.67046e-05,0.0108618,-0.00444918,0.00534092,0,0,0,0,0.0200653,0.515486,-0.99266,34.1875,3,16613,48136176
165,8,-0.675188,-0.0719616,9.78987,0.086691,-0.649558,0.98646,-0.00675281,-0.00072883,0.0978986,1,4.67263e-05,-4.80962e-06,4.8541e-06,0.00934526,-0.000961925,0.00097082,0,0,0,0,0.0204401,0.517487,-0.995647,34.1875,3,16614,48136276
165,9,-0.675188,-0.0719616,9.78987,0.086691,-0.649558,0.98646,-0.00675281,-0.00072883,0.0978986,1,4.67263e-05,-4.80962e-06,4.8541e-06,0.00934526,-0.000961925,0.00097082,0,0,0,0,0.0204401,0.517487,-0.995647,34.1875,3,16614,48136276
165,10,-0.66882,-0.0668323,9.78309,0.0913662,-0.647789,0.973236,-0.00668758,-0.000677349,0.0978309,1,4.46179e-05,3.02104e-06,2.21615e-05,0.00892359,0.000604207,0.00443231,0,0,0,0,0.0193583,0.516619,-1.00122,34.1875,3,16615,48136376
166,1,-0.66882,-0.0668323,9.78309,0.0913662,-0.647789,0.973236,-0.00668758,-0.000677349,0.0978309,1,4.46179e-05,3.02104e-06,2.21615e-05,0.00892359,0.000604207,0.00443231,0,0,0,0,0.0193583,0.516619,-1.00122,34.1875,3,16615,48136376
166,2,-0.681925,-0.0727925,9.79297,0.0743211,-0.650484,0.990927,-0.00682052,-0.000736952,0.0979295,1,4.4601e-05,-6.67383e-06,2.13608e-05,0.00892021,-0.00133477,0.00427217,0,0,0,0,0.0183833,0.515191,-1.00276,34.1875,3,16616,48136476
166,3,-0.681925,-0.0727925,9.79297,0.0743211,-0.650484,0.990927,-0.00682052,-0.000736952,0.0979295,1,4.4601e-05,-6.67383e-06,2.13608e-05,0.00892021,-0.00133477,0.00427217,0,0,0,0,0.0183833,0.515191,-1.00276,34.1875,3,16616,48136476
166,4,-0.672343,-0.0773643,9.78541,0.0869762,-0.66134,0.981333,-0.00672666,-0.000784681,0.0978537,1,5.51678e-05,-1.66165e-05,1.79915e-05,0.0110336,-0.00332329,0.00359829,0,0,0,0,0.0170956,0.513162,-0.997748,34.1875,3,16617,48136576
166,5,-0.672343,-0.0773643,9.78541,0.0869762,-0.66134,0.981333,-0.00672666,-0.000784681,0.0978537,1,5.51678e-05,-1.66165e-05,1.79915e-05,0.0110336,-0.00332329,0.00359829,0,0,0,0,0.0170956,0.513162,-0.997748,34.1875,3,16617,48136576
166,6,-0.679597,-0.0784809,9.78917,0.075783,-0.663358,0.984529,-0.00679547,-0.000794989,0.0978917,1,5.09303e-05,2.45097e-06,1.53574e-05,0.0101861,0.000490195,0.00307149,0,0,0,0,0.0191472,0.512089,-0.993236,34.1875,3,16618,48136676
166,7,-0.679597,-0.0784809,9.78917,0.075783,-0.663358,0.984529,-0.00679547,-0.000794989,0.0978917,1,5.09303e-05,2.45097e-06,1.53574e-05,0.0101861,0.000490195,0.00307149,0,0,0,0,0.0191472,0.512089,-0.993236,34.1875,3,16618,48136676
166,8,-0.665299,-0.0736384,9.78776,0.0920878,-0.655373,0.984855,-0.00665405,-0.000745992,0.0978775,1,4.72311e-05,-5.63625e-06,2.72635e-05,0.00944623,-0.00112725,0.0054527,0,0,0,0,0.0205298,0.515013,-0.993683,34.1875,3,16619,48136776
166,9,-0.665299,-0.0736384,9.78776,0.0920878,-0.655373,0.984855,-0.00665405,-0.000745992,0.0978775,1,4.72311e-05,-5.63625e-06,2.72635e-05,0.00944623,-0.00112725,0.0054527,0,0,0,0,0.0205298,0.515013,-0.993683,34.1875,3,16619,48136776
166,10,-0.676129,-0.0788478,9.79186,0.0846354,-0.662194,0.98704,-0.00676058,-0.000798902,0.0979186,1,5.15843e-05,3.38785e-06,2.37875e-05,0.0103169,0.00067757,0.00475749,0,0,0,0,0.0204809,0.516494,-0.99466,34.1875,3,16620,48136876
166,11,-0.676129,-0.0788478,9.79186,0.0846354,-0.662194,0.98704,-0.00676058,-0.000798902,0.0979186,1,5.15843e-05,3.38785e-06,2.37875e-05,0.0103169,0.00067757,0.00475749,0,0,0,0,0.0204809,0.516494,-0.99466,34.1875,3,16620,48136876
166,12,-0.676579,-0.0700584,9.78685,0.0834276,-0.652753,0.97943,-0.00676688,-0.000709375,0.0978683,1,4.36846e-05,-5.69588e-06,1.77697e-05,0.00873692,-0.00113918,0.00355394,0,0,0,0,0.0198684,0.517076,-0.999694,34.1875,3,16621,48136976
166,13,-0.676579,-0.0700584,9.78685,0.0834276,-0.652753,0.97943,-0.00676688,-0.000709375,0.0978683,1,4.36846e-05,-5.69588e-06,1.77697e-05,0.00873692,-0.00113918,0.00355394,0,0,0,0,0.0198684,0.517076,-0.999694,34.1875,3,16621,48136976
166,14,-0.673124,-0.0761106,9.79593,0.0892188,-0.66151,0.989169,-0.00673013,-0.000771708,0.0979593,1,5.32903e-05,5.57105e-06,1.19412e-05,0.0106581,0.00111421,0.00238825,0,0,0,0,0.0184279,0.513231,-1.0023,34.1875,3,16622,48137076
167,1,-0.673124,-0.0761106,9.79593,0.0892188,-0.66151,0.989169,-0.00673013,-0.000771708,0.0979593,1,5.32903e-05,5.57105e-06,1.19412e-05,0.0106581,0.00111421,0.00238825,0,0,0,0,0.0184279,0.513231,-1.0023,34.1875,3,16622,48137076
167,2,-0.676316,-0.0817458,9.79727,0.0867802,-0.666499,0.992604,-0.00676621,-0.000824919,0.0979724,1,3.70201e-05,-1.5687e-05,1.53446e-05,0.00740402,-0.00313739,0.00306893,0,0,0,0,0.0166302,0.510745,-0.99881,34.1875,3,16623,48137176
167,3,-0.676316,-0.0817458,9.79727,0.0867802,-0.666499,0.992604,-0.00676621,-0.000824919,0.0979724,1,3.70201e-05,-1.5687e-05,1.53446e-05,0.00740402,-0.00313739,0.00306893,0,0,0,0,0.0166302,0.510745,-0.99881,34.1875,3,16623,48137176
167,4,-0.67071,-0.0747329,9.78745,0.094851,-0.658281,0.979515,-0.00670853,-0.000756963,0.0978743,1,4.76763e-05,-7.47662e-06,2.24877e-05,0.00953525,-0.00149532,0.00449754,0,0,0,0,0.01721,0.510669,-0.994774,34.1875,3,16624,48137276
167,5,-0.67071,-0.0747329,9.78745,0.094851,-0.658281,0.979515,-0.00670853,-0.000756963,0.0978743,1,4.76763e-05,-7.47662e-06,2.24877e-05,0.00953525,-0.00149532,0.00449754,0,0,0,0,0.01721,0.510669,-0.994774,34.1875,3,16624,48137276
167,6,-0.669769,-0.0772692,9.79219,0.0900334,-0.662215,0.986233,-0.00670217,-0.000780896,0.0979215,1,4.14885e-05,-2.28883e-05,5.87251e-06,0.00829771,-0.00457765,0.0011745,0,0,0,0,0.0195757,0.514533,-0.993689,34.1875,3,16625,48137376
168,1,-0.669769,-0.0772692,9.79219,0.0900334,-0.662215,0.986233,-0.00670217,-0.000780896,0.0979215,1,4.14885e-05,-2.28883e-05,5.87251e-06,0.00829771,-0.00457765,0.0011745,0,0,0,0,0.0195757,0.514533,-0.993689,34.1875,3,16625,48137376
168,2,-0.672494,-0.0794779,9.79083,0.0917533,-0.662319,0.984718,-0.00672915,-0.000800638,0.097908,1,2.88039e-05,-2.16405e-05,1.62252e-05,0.00576079,-0.0043281,0.00324504,0,0,0,0,0.0199505,0.516534,-0.996677,34.1875,3,16626,48137476
168,3,-0.672494,-0.0794779,9.79083,0.0917533,-0.662319,0.984718,-0.00672915,-0.000800638,0.097908,1,2.88039e-05,-2.16405e-05,1.62252e-05,0.00576079,-0.0043281,0.00324504,0,0,0,0,0.0199505,0.516534,-0.996677,34.1875,3,16626,48137476
168,4,-0.677836,-0.0733105,9.78751,0.0844038,-0.653973,0.978451,-0.00678039,-0.000743579,0.0978749,1,5.17722e-05,-1.05257e-05,2.50787e-05,0.0103544,-0.00210515,0.00501574,0,0,0,0,0.0183714,0.516645,-1.00222,34.1875,3,16627,48137576
169,1,-0.677836,-0.0733105,9.78751,0.0844038,-0.653973,0.978451,-0.00678039,-0.000743579,0.0978749,1,5.17722e-05,-1.05257e-05,2.50787e-05,0.0103544,-0.00210515,0.00501574,0,0,0,0,0.0183714,0.516645,-1.00222,34.1875,3,16627,48137576
169,2,-0.676668,-0.0789994,9.78983,0.0841909,-0.667857,0.983843,-0.0067697,-0.000798476,0.0978981,1,4.19208e-05,-1.55867e-05,2.02449e-05,0.00838416,-0.00311733,0.00404897,0,0,0,0,0.0179022,0.515195,-1.00276,34.1875,3,16628,48137676
169,3,-0.676668,-0.0789994,9.78983,0.0841909,-0.667857,0.983843,-0.0067697,-0.000798476,0.0978981,1,4.19208e-05,-1.55867e-05,2.02449e-05,0.00838416,-0.00311733,0.00404897,0,0,0,0,0.0179022,0.515195,-1.00276,34.1875,3,16628,48137676
169,4,-0.678197,-0.085195,9.79385,0.082603,-0.671154,0.990907,-0.00678098,-0.000859237,0.0979385,1,3.45018e-05,4.74057e-06,3.89926e-05,0.00690035,0.000948114,0.00779852,0,0,0,0,0.0161206,0.511733,-0.999291,34.1875,3,16629,48137776
169,5,-0.678197,-0.085195,9.79385,0.082603,-0.671154,0.990907,-0.00678098,-0.000859237,0.0979385,1,3.45018e-05,4.74057e-06,3.89926e-05,0.00690035,0.000948114,0.00779852,0,0,0,0,0.0161206,0.511733,-0.999291,34.1875,3,16629,48137776
169,6,-0.675841,-0.0686023,9.78551,0.0830507,-0.656761,0.981796,-0.00675954,-0.000695494,0.0978549,1,4.72629e-05,-5.90451e-06,1.63649e-05,0.00945257,-0.0011809,0.00327298,0,0,0,0,0.01721,0.510669,-0.994774,34.1875,3,16630,48137876
170,1,-0.675841,-0.0686023,9.78551,0.0830507,-0.656761,0.981796,-0.00675954,-0.000695494,0.0978549,1,4.72629e-05,-5.90451e-06,1.63649e-05,0.00945257,-0.0011809,0.00327298,0,0,0,0,0.01721,0.510669,-0.994774,34.1875,3,16630,48137876
170,2,-0.669137,-0.0865128,9.79074,0.0946039,-0.674914,0.98622,-0.00669405,-0.000871719,0.0979072,1,3.22388e-05,-1.38654e-05,2.07777e-05,0.00644776,-0.00277309,0.00415554,0,0,0,0,0.0191273,0.514031,-0.992688,34.1875,3,16631,48137976
170,3,-0.669137,-0.0865128,9.79074,0.0946039,-0.674914,0.98622,-0.00669405,-0.000871719,0.0979072,1,3.22388e-05,-1.38654e-05,2.07777e-05,0.00644776,-0.00277309,0.00415554,0,0,0,0,0.0191273,0.514031,-0.992688,34.1875,3,16631,48137976
170,4,-0.670364,-0.083303,9.78737,0.0890104,-0.669122,0.983251,-0.00670313,-0.000842141,0.0978737,1,4.55324e-05,2.48885e-06,1.48004e-05,0.00910648,0.00049777,0.00296008,0,0,0,0,0.0209212,0.517483,-0.99565,34.1875,3,16632,48138076
170,5,-0.670364,-0.083303,9.78737,0.0890104,-0.669122,0.983251,-0.00670313,-0.000842141,0.0978737,1,4.55324e-05,2.48885e-06,1.48004e-05,0.00910648,0.00049777,0.00296008,0,0,0,0,0.0209212,0.517483,-0.99565,34.1875,3,16632,48138076
170,6,-0.670387,-0.0819582,9.78942,0.087711,-0.668977,0.982464,-0.00670346,-0.000827854,0.0978942,1,4.04548e-05,1.8552e-06,2.62688e-05,0.00809096,0.000371041,0.00525377,0,0,0,0,0.0198518,0.516606,-1.00071,34.1875,3,16633,48138176
170,7,-0.670387,-0.0819582,9.78942,0.087711,-0.668977,0.982464,-0.00670346,-0.000827854,0.0978942,1,4.04548e-05,1.8552e-06,2.62688e-05,0.00809096,0.000371041,0.00525377,0,0,0,0,0.0198518,0.516606,-1.00071,34.1875,3,16633,48138176
170,8,-0.67505,-0.0800785,9.78947,0.0852716,-0.662303,0.983945,-0.00675274,-0.00081304,0.0978944,1,6.12437e-05,-1.16491e-05,1.95635e-05,0.0122487,-0.00232982,0.0039127,0,0,0,0,0.0184279,0.513231,-1.0023,34.1875,3,16634,48138276
170,9,-0.67505,-0.0800785,9.78947,0.0852716,-0.662303,0.983945,-0.00675274,-0.00081304,0.0978944,1,6.12437e-05,-1.16491e-05,1.95635e-05,0.0122487,-0.00232982,0.0039127,0,0,0,0,0.0184279,0.513231,-1.0023,34.1875,3,16634,48138276
170,10,-0.669078,-0.0763829,9.78776,0.0930588,-0.663074,0.983267,-0.00669092,-0.000774031,0.0978775,1,5.09042e-05,-8.81158e-07,1.77026e-05,0.0101808,-0.000176232,0.00354052,0,0,0,0,0.0175677,0.510755,-0.999824,34.1875,3,16635,48138376
171,1,-0.669078,-0.0763829,9.78776,0.0930588,-0.663074,0.983267,-0.00669092,-0.000774031,0.0978775,1,5.09042e-05,-8.81158e-07,1.77026e-05,0.0101808,-0.000176232,0.00354052,0,0,0,0,0.0175677,0.510755,-0.999824,34.1875,3,16635,48138376
171,2,-0.672399,-0.0719019,9.78376,0.08933,-0.662549,0.981255,-0.00672726,-0.000729454,0.0978373,1,5.13363e-05,-1.69332e-05,2.89606e-05,0.0102673,-0.00338664,0.00579212,0,0,0,0,0.0176911,0.510665,-0.994776,34.1875,3,16636,48138476
172,1,-0.672399,-0.0719019,9.78376,0.08933,-0.662549,0.981255,-0.00672726,-0.000729454,0.0978373,1,5.13363e-05,-1.69332e-05,2.89606e-05,0.0102673,-0.00338664,0.00579212,0,0,0,0,0.0176911,0.510665,-0.994776,34.1875,3,16636,48138476
172,2,-0.672515,-0.0667598,9.79295,0.0841765,-0.655578,0.992222,-0.00672503,-0.000679363,0.0979295,1,5.98598e-05,6.33597e-07,3.04532e-06,0.011972,0.00012672,0.000609063,0,0,0,0,0.0190865,0.515024,-0.993676,34.1875,3,16637,48138576
172,3,-0.672515,-0.0667598,9.79295,0.0841765,-0.655578,0.992222,-0.00672503,-0.000679363,0.0979295,1,5.98598e-05,6.33597e-07,3.04532e-06,0.011972,0.00012672,0.000609063,0,0,0,0,0.0190865,0.515024,-0.993676,34.1875,3,16637,48138576
172,4,-0.677768,-0.0746908,9.7892,0.0859811,-0.661447,0.981866,-0.00677967,-0.000758344,0.0978917,1,5.73621e-05,-1.02743e-05,1.51635e-05,0.0114724,-0.00205486,0.00303271,0,0,0,0,0.0208804,0.518477,-0.996638,34.1875,3,16638,48138676
173,1,-0.677768,-0.0746908,9.7892,0.0859811,-0.661447,0.981866,-0.00677967,-0.000758344,0.0978917,1,5.73621e-05,-1.02743e-05,1.51635e-05,0.0114724,-0.00205486,0.00303271,0,0,0,0,0.0208804,0.518477,-0.996638,34.1875,3,16638,48138676
173,2,-0.668647,-0.0725757,9.77898,0.0914371,-0.662235,0.973783,-0.00668784,-0.000735592,0.0977897,1,4.9485e-05,-7.084e-06,1.17639e-05,0.009897,-0.0014168,0.00235279,0,0,0,0,0.0203006,0.518553,-1.00067,34.1875,3,16639,48138776
173,3,-0.668647,-0.0725757,9.77898,0.0914371,-0.662235,0.973783,-0.00668784,-0.000735592,0.0977897,1,4.9485e-05,-7.084e-06,1.17639e-05,0.009897,-0.0014168,0.00235279,0,0,0,0,0.0203006,0.518553,-1.00067,34.1875,3,16639,48138776
173,4,-0.680537,-0.0737686,9.79092,0.0798991,-0.665964,0.986015,-0.00680775,-0.000747529,0.097909,1,4.85815e-05,-1.23083e-05,2.41754e-05,0.0097163,-0.00246166,0.00483508,0,0,0,0,0.0188848,0.51469,-1.00227,34.1875,3,16640,48138876
174,1,-0.680537,-0.0737686,9.79092,0.0798991,-0.665964,0.986015,-0.00680775,-0.000747529,0.097909,1,4.85815e-05,-1.23083e-05,2.41754e-05,0.0097163,-0.00246166,0.00483508,0,0,0,0,0.0188848,0.51469,-1.00227,34.1875,3,16640,48138876
174,2,-0.676798,-0.0809946,9.79083,0.0842219,-0.676521,0.986125,-0.00676797,-0.000818947,0.0979082,1,4.4413e-05,-1.3202e-07,2.24671e-05,0.0088826,-2.6404e-05,0.00449341,0,0,0,0,0.0175843,0.511225,-0.998804,34.1875,3,16641,48138976
174,3,-0.676798,-0.0809946,9.79083,0.0842219,-0.676521,0.986125,-0.00676797,-0.000818947,0.0979082,1,4.4413e-05,-1.3202e-07,2.24671e-05,0.0088826,-2.6404e-05,0.00449341,0,0,0,0,0.0175843,0.511225,-0.998804,34.1875,3,16641,48138976
174,4,-0.667975,-0.0714194,9.78645,0.0937419,-0.663053,0.982797,-0.00668139,-0.000722317,0.0978643,1,4.06673e-05,-8.43774e-06,1.21981e-05,0.00813346,-0.00168755,0.00243963,0,0,0,0,0.0177243,0.511604,-0.992735,34.1875,3,16642,48139076
175,1,-0.667975,-0.0714194,9.78645,0.0937419,-0.663053,0.982797,-0.00668139,-0.000722317,0.0978643,1,4.06673e-05,-8.43774e-06,1.21981e-05,0.00813346,-0.00168755,0.00243963,0,0,0,0,0.0177243,0.511604,-0.992735,34.1875,3,16642,48139076
175,2,-0.663934,-0.0685801,9.79492,0.0983678,-0.663488,0.993088,-0.00664085,-0.000695759,0.097949,1,4.88497e-05,-7.90339e-06,2.92696e-05,0.00976993,-0.00158068,0.00585393,0,0,0,0,0.0191273,0.514031,-0.992688,34.1875,3,16643,48139176
175,3,-0.663934,-0.0685801,9.79492,0.0983678,-0.663488,0.993088,-0.00664085,-0.000695759,0.097949,1,4.88497e-05,-7.90339e-06,2.92696e-05,0.00976993,-0.00158068,0.00585393,0,0,0,0,0.0191273,0.514031,-0.992688,34.1875,3,16643,48139176
175,4,-0.676107,-0.077956,9.78543,0.0837734,-0.672166,0.97844,-0.00676362,-0.000788268,0.097854,1,4.3342e-05,-1.31315e-05,1.66613e-05,0.00866839,-0.0026263,0.00333226,0,0,0,0,0.0218583,0.516048,-0.997706,34.1875,3,16644,48139276
175,5,-0.676107,-0.077956,9.78543,0.0837734,-0.672166,0.97844,-0.00676362,-0.000788268,0.097854,1,4.3342e-05,-1.31315e-05,1.66613e-05,0.00866839,-0.0026263,0.00333226,0,0,0,0,0.0218583,0.516048,-0.997706,34.1875,3,16644,48139276
175,6,-0.676996,-0.079922,9.79255,0.0819962,-0.677591,0.986331,-0.00677365,-0.000808381,0.0979251,1,4.52492e-05,-1.90457e-05,2.20967e-05,0.00904983,-0.00380913,0.00441933,0,0,0,0,0.0213032,0.516106,-1.00073,34.1875,3,16645,48139376
176,1,-0.676996,-0.079922,9.79255,0.0819962,-0.677591,0.986331,-0.00677365,-0.000808381,0.0979251,1,4.52492e-05,-1.90457e-05,2.20967e-05,0.00904983,-0.00380913,0.00441933,0,0,0,0,0.0213032,0.516106,-1.00073,34.1875,3,16645,48139376
176,2,-0.663289,-0.0768559,9.7928,0.0989169,-0.669426,0.984083,-0.006633,-0.000775656,0.0979279,1,3.47289e-05,-7.65501e-07,2.22532e-05,0.00694579,-0.0001531,0.00445063,0,0,0,0,0.0184403,0.513222,-1.00179,34.1875,3,16646,48139476
176,3,-0.663289,-0.0768559,9.7928,0.0989169,-0.669426,0.984083,-0.006633,-0.000775656,0.0979279,1,3.47289e-05,-7.65501e-07,2.22532e-05,0.00694579,-0.0001531,0.00445063,0,0,0,0,0.0184403,0.513222,-1.00179,34.1875,3,16646,48139476
176,4,-0.664843,-0.0716396,9.79117,0.0955468,-0.665636,0.986922,-0.00665078,-0.000726667,0.0979115,1,5.13644e-05,-1.21055e-05,1.59886e-05,0.0102729,-0.00242109,0.00319772,0,0,0,0,0.0170747,0.512213,-0.999285,34.1875,3,16647,48139576
177,1,-0.664843,-0.0716396,9.79117,0.0955468,-0.665636,0.986922,-0.00665078,-0.000726667,0.0979115,1,5.13644e-05,-1.21055e-05,1.59886e-05,0.0102729,-0.00242109,0.00319772,0,0,0,0,0.0170747,0.512213,-0.999285,34.1875,3,16647,48139576
177,2,-0.686281,-0.0939517,9.78332,0.0711049,-0.687721,0.978491,-0.00686252,-0.000948852,0.0978331,1,4.665e-05,1.37653e-06,1.51171e-05,0.00933,0.000275306,0.00302341,0,0,0,0,0.0181603,0.512115,-0.994241,34.1875,3,16648,48139676
177,3,-0.686281,-0.0939517,9.78332,0.0711049,-0.687721,0.978491,-0.00686252,-0.000948852,0.0978331,1,4.665e-05,1.37653e-06,1.51171e-05,0.00933,0.000275306,0.00302341,0,0,0,0,0.0181603,0.512115,-0.994241,34.1875,3,16648,48139676
177,4,-0.675466,-0.077824,9.78813,0.0846997,-0.670977,0.984602,-0.00675528,-0.000788946,0.0978812,1,5.31693e-05,-3.30966e-06,2.20182e-05,0.0106339,-0.000661932,0.00440364,0,0,0,0,0.0186504,0.514514,-0.99217,34.1875,3,16649,48139776
177,5,-0.675466,-0.077824,9.78813,0.0846997,-0.670977,0.984602,-0.00675528,-0.000788946,0.0978812,1,5.31693e-05,-3.30966e-06,2.20182e-05,0.0106339,-0.000661932,0.00440364,0,0,0,0,0.0186504,0.514514,-0.99217,34.1875,3,16649,48139776
177,6,-0.678544,-0.0790151,9.78916,0.0809363,-0.677052,0.983744,-0.0067885,-0.000797431,0.0978913,1,3.57438e-05,-1.57692e-05,2.07597e-05,0.00714877,-0.00315385,0.00415194,0,0,0,0,0.0194779,0.517495,-0.995643,34.1875,3,16650,48139876
177,7,-0.678544,-0.0790151,9.78916,0.0809363,-0.677052,0.983744,-0.0067885,-0.000797431,0.0978913,1,3.57438e-05,-1.57692e-05,2.07597e-05,0.00714877,-0.00315385,0.00415194,0,0,0,0,0.0194779,0.517495,-0.995643,34.1875,3,16650,48139876
177,8,-0.673294,-0.0697046,9.78784,0.086409,-0.66319,0.978016,-0.0067316,-0.000704627,0.0978784,1,3.68766e-05,6.65903e-06,2.6878e-05,0.00737531,0.00133181,0.00537561,0,0,0,0,0.0203087,0.518065,-1.00068,34.1875,3,16651,48139976
178,1,-0.673294,-0.0697046,9.78784,0.086409,-0.66319,0.978016,-0.0067316,-0.000704627,0.0978784,1,3.68766e-05,6.65903e-06,2.6878e-05,0.00737531,0.00133181,0.00537561,0,0,0,0,0.0203087,0.518065,-1.00068,34.1875,3,16651,48139976
