frame_id,imu_idx,quat_w,quat_x,quat_y,quat_z,accel_x,accel_y,accel_z,free_accel_x,free_accel_y,free_accel_z,delta_v_x,delta_v_y,delta_v_z,delta_q_w,delta_q_x,delta_q_y,delta_q_z,rate_x,rate_y,rate_z,quat_w,quat_x,quat_y,quat_z,mag_x,mag_y,mag_z,temperature,status_byte,packet_counter,time_fine
1,1,0.999476,-0.0044645,0.0320652,1.91353e-05,-0.649299,-0.1065,9.78688,0.0561383,-0.519314,0.985853,-0.00649429,-0.00107646,0.0978686,1,5.79115e-05,-6.78781e-06,9.29458e-06,0.0115823,-0.00135756,0.00185892,0.999476,-0.0044645,0.0320652,1.91353e-05,0.0481945,0.522318,-0.978496,31.6875,1,55611,5621760
1,2,0.999476,-0.0044645,0.0320652,1.91353e-05,-0.48621,-0.0661135,7.34348,0.0561383,-0.519314,0.985853,-0.00486437,-0.000670144,0.0734345,1,6.09606e-05,-1.55531e-05,5.81892e-06,0.0121921,-0.00311063,0.00116378,0.999476,-0.0044645,0.0320652,1.91353e-05,0.0453286,0.523291,-0.976946,31.8125,1,57439,5806067
1,3,0.999476,-0.0044645,0.0320652,1.91353e-05,-0.48621,-0.0661135,7.34348,0.0561383,-0.519314,0.985853,-0.00486437,-0.000670144,0.0734345,1,6.09606e-05,-1.55531e-05,5.81892e-06,0.0121921,-0.00311063,0.00116378,0.999476,-0.0044645,0.0320652,1.91353e-05,0.0453286,0.523291,-0.976946,31.8125,1,57439,5806067
1,4,0.999476,-0.0044645,0.0320652,1.91353e-05,-0.48621,-0.0661135,7.34348,0.0561383,-0.519314,0.985853,-0.00486437,-0.000670144,0.0734345,1,6.09606e-05,-1.55531e-05,5.81892e-06,0.0121921,-0.00311063,0.00116378,0.999476,-0.0044645,0.0320652,1.91353e-05,0.0453286,0.523291,-0.976946,31.8125,1,57439,5806067
1,5,0.999443,-0.00449369,0.0330671,-0.000134694,-0.655945,-0.0986911,9.79024,0.0768774,-0.516272,0.983688,-0.00655917,-0.000998112,0.0979023,1,5.60209e-05,1.27414e-06,1.77157e-05,0.0112042,0.000254829,0.00354313,0.999443,-0.00449369,0.0330671,-0.000134694,0.0453533,0.523273,-0.975936,31.8125,1,57440,5806167
1,6,0.999443,-0.00449369,0.0330671,-0.000134694,-0.655945,-0.0986911,9.79024,0.0768774,-0.516272,0.983688,-0.00655917,-0.000998112,0.0979023,1,5.60209e-05,1.27414e-06,1.77157e-05,0.0112042,0.000254829,0.00354313,0.999443,-0.00449369,0.0330671,-0.000134694,0.0453533,0.523273,-0.975936,31.8125,1,57440,5806167
1,7,0.999443,-0.00449369,0.0330671,-0.000134694,-0.655945,-0.0986911,9.79024,0.0768774,-0.516272,0.983688,-0.00655917,-0.000998112,0.0979023,1,5.60209e-05,1.27414e-06,1.77157e-05,0.0112042,0.000254829,0.00354313,0.999443,-0.00449369,0.0330671,-0.000134694,0.0453533,0.523273,-0.975936,31.8125,1,57440,5806167
1,8,0.999444,-0.00444719,0.0330561,-0.000130579,-0.634698,-0.101636,9.79008,0.0931883,-0.521543,0.983938,-0.00634919,-0.00102611,0.0979005,1,4.94272e-05,-1.13155e-05,5.62142e-06,0.00988543,-0.00226311,0.00112428,0.999444,-0.00444719,0.0330561,-0.000130579,0.046344,0.52228,-0.975458,31.8125,1,57441,5806267
1,9,0.999444,-0.00444719,0.0330561,-0.000130579,-0.634698,-0.101636,9.79008,0.0931883,-0.521543,0.983938,-0.00634919,-0.00102611,0.0979005,1,4.94272e-05,-1.13155e-05,5.62142e-06,0.00988543,-0.00226311,0.00112428,0.999444,-0.00444719,0.0330561,-0.000130579,0.046344,0.52228,-0.975458,31.8125,1,57441,5806267
1,10,0.999444,-0.00444719,0.0330561,-0.000130579,-0.634698,-0.101636,9.79008,0.0931883,-0.521543,0.983938,-0.00634919,-0.00102611,0.0979005,1,4.94272e-05,-1.13155e-05,5.62142e-06,0.00988543,-0.00226311,0.00112428,0.999444,-0.00444719,0.0330561,-0.000130579,0.046344,0.52228,-0.975458,31.8125,1,57441,5806267
2,1,0.999444,-0.00440628,0.0330633,-0.000124334,-0.649074,-0.110793,9.79212,0.0866277,-0.530056,0.982271,-0.0064893,-0.00111593,0.0979212,1,4.03468e-05,7.26427e-06,7.92003e-06,0.00806936,0.00145285,0.00158401,0.999444,-0.00440628,0.0330633,-0.000124334,0.0477627,0.522286,-0.976475,31.8125,1,57442,5806367
2,2,0.999444,-0.00440628,0.0330633,-0.000124334,-0.649074,-0.110793,9.79212,0.0866277,-0.530056,0.982271,-0.0064893,-0.00111593,0.0979212,1,4.03468e-05,7.26427e-06,7.92003e-06,0.00806936,0.00145285,0.00158401,0.999444,-0.00440628,0.0330633,-0.000124334,0.0477627,0.522286,-0.976475,31.8125,1,57442,5806367
2,3,0.999444,-0.00440628,0.0330633,-0.000124334,-0.649074,-0.110793,9.79212,0.0866277,-0.530056,0.982271,-0.0064893,-0.00111593,0.0979212,1,4.03468e-05,7.26427e-06,7.92003e-06,0.00806936,0.00145285,0.00158401,0.999444,-0.00440628,0.0330633,-0.000124334,0.0477627,0.522286,-0.976475,31.8125,1,57442,5806367
2,4,0.999444,-0.0043619,0.0330596,-0.000110869,-0.647407,-0.0966752,9.78817,0.0830033,-0.519353,0.981033,-0.00647481,-0.000975579,0.0978816,1,4.41038e-05,-3.87967e-06,1.49383e-05,0.00882076,-0.000775933,0.00298766,0.999444,-0.0043619,0.0330596,-0.000110869,0.0482277,0.523258,-0.976455,31.8125,1,57443,5806467
2,5,0.999444,-0.0043619,0.0330596,-0.000110869,-0.647407,-0.0966752,9.78817,0.0830033,-0.519353,0.981033,-0.00647481,-0.000975579,0.0978816,1,4.41038e-05,-3.87967e-06,1.49383e-05,0.00882076,-0.000775933,0.00298766,0.999444,-0.0043619,0.0330596,-0.000110869,0.0482277,0.523258,-0.976455,31.8125,1,57443,5806467
2,6,0.999444,-0.0043619,0.0330596,-0.000110869,-0.647407,-0.0966752,9.78817,0.0830033,-0.519353,0.981033,-0.00647481,-0.000975579,0.0978816,1,4.41038e-05,-3.87967e-06,1.49383e-05,0.00882076,-0.000775933,0.00298766,0.999444,-0.0043619,0.0330596,-0.000110869,0.0482277,0.523258,-0.976455,31.8125,1,57443,5806467
2,7,0.999444,-0.00432607,0.0330613,-9.71233e-05,-0.645675,-0.106539,9.78467,0.0817122,-0.52726,0.975575,-0.00645634,-0.00107259,0.0978467,1,3.57368e-05,1.95391e-06,1.57429e-05,0.00714736,0.000390781,0.00314858,0.999444,-0.00432607,0.0330613,-9.71233e-05,0.0462458,0.523798,-0.978454,31.8125,1,57444,5806567
2,8,0.999444,-0.00432607,0.0330613,-9.71233e-05,-0.645675,-0.106539,9.78467,0.0817122,-0.52726,0.975575,-0.00645634,-0.00107259,0.0978467,1,3.57368e-05,1.95391e-06,1.57429e-05,0.00714736,0.000390781,0.00314858,0.999444,-0.00432607,0.0330613,-9.71233e-05,0.0462458,0.523798,-0.978454,31.8125,1,57444,5806567
2,9,0.999444,-0.00432607,0.0330613,-9.71233e-05,-0.645675,-0.106539,9.78467,0.0817122,-0.52726,0.975575,-0.00645634,-0.00107259,0.0978467,1,3.57368e-05,1.95391e-06,1.57429e-05,0.00714736,0.000390781,0.00314858,0.999444,-0.00432607,0.0330613,-9.71233e-05,0.0462458,0.523798,-0.978454,31.8125,1,57444,5806567
2,10,0.999444,-0.00427394,0.0330524,-7.47302e-05,-0.630363,-0.0960606,9.78976,0.1001,-0.519756,0.979989,-0.00630536,-0.000970962,0.0978973,1,5.13494e-05,-9.0446e-06,2.39425e-05,0.0102699,-0.00180892,0.0047885,0.999444,-0.00427394,0.0330524,-7.47302e-05,0.0472076,0.522344,-0.979501,31.8125,1,57445,5806667
2,11,0.999444,-0.00427394,0.0330524,-7.47302e-05,-0.630363,-0.0960606,9.78976,0.1001,-0.519756,0.979989,-0.00630536,-0.000970962,0.0978973,1,5.13494e-05,-9.0446e-06,2.39425e-05,0.0102699,-0.00180892,0.0047885,0.999444,-0.00427394,0.0330524,-7.47302e-05,0.0472076,0.522344,-0.979501,31.8125,1,57445,5806667
2,12,0.999444,-0.00427394,0.0330524,-7.47302e-05,-0.630363,-0.0960606,9.78976,0.1001,-0.519756,0.979989,-0.00630536,-0.000970962,0.0978973,1,5.13494e-05,-9.0446e-06,2.39425e-05,0.0102699,-0.00180892,0.0047885,0.999444,-0.00427394,0.0330524,-7.47302e-05,0.0472076,0.522344,-0.979501,31.8125,1,57445,5806667
2,13,0.999445,-0.00423466,0.0330521,-6.52287e-05,-0.64597,-0.100813,9.7905,0.0858938,-0.525828,0.98723,-0.00645992,-0.00101597,0.0979049,1,3.9408e-05,-1.22964e-06,8.99632e-06,0.0078816,-0.000245928,0.00179926,0.999445,-0.00423466,0.0330521,-6.52287e-05,0.0472773,0.521811,-0.976988,31.8125,1,57446,5806767
2,14,0.999445,-0.00423466,0.0330521,-6.52287e-05,-0.64597,-0.100813,9.7905,0.0858938,-0.525828,0.98723,-0.00645992,-0.00101597,0.0979049,1,3.9408e-05,-1.22964e-06,8.99632e-06,0.0078816,-0.000245928,0.00179926,0.999445,-0.00423466,0.0330521,-6.52287e-05,0.0472773,0.521811,-0.976988,31.8125,1,57446,5806767
2,15,0.999445,-0.00423466,0.0330521,-6.52287e-05,-0.64597,-0.100813,9.7905,0.0858938,-0.525828,0.98723,-0.00645992,-0.00101597,0.0979049,1,3.9408e-05,-1.22964e-06,8.99632e-06,0.0078816,-0.000245928,0.00179926,0.999445,-0.00423466,0.0330521,-6.52287e-05,0.0472773,0.521811,-0.976988,31.8125,1,57446,5806767
2,16,0.999445,-0.0041974,0.0330439,-5.03022e-05,-0.636676,-0.107964,9.79411,0.097188,-0.528571,0.987079,-0.00636836,-0.00108706,0.0979409,1,3.6817e-05,-8.30382e-06,1.59963e-05,0.00736341,-0.00166077,0.00319926,0.999445,-0.0041974,0.0330439,-5.03022e-05,0.0463971,0.521278,-0.973965,31.8125,1,57447,5806867
2,17,0.999445,-0.0041974,0.0330439,-5.03022e-05,-0.636676,-0.107964,9.79411,0.097188,-0.528571,0.987079,-0.00636836,-0.00108706,0.0979409,1,3.6817e-05,-8.30382e-06,1.59963e-05,0.00736341,-0.00166077,0.00319926,0.999445,-0.0041974,0.0330439,-5.03022e-05,0.0463971,0.521278,-0.973965,31.8125,1,57447,5806867
2,18,0.999445,-0.0041974,0.0330439,-5.03022e-05,-0.636676,-0.107964,9.79411,0.097188,-0.528571,0.987079,-0.00636836,-0.00108706,0.0979409,1,3.6817e-05,-8.30382e-06,1.59963e-05,0.00736341,-0.00166077,0.00319926,0.999445,-0.0041974,0.0330439,-5.03022e-05,0.0463971,0.521278,-0.973965,31.8125,1,57447,5806867
3,1,0.999445,-0.00415953,0.0330423,-2.58974e-05,-0.642239,-0.0988466,9.79626,0.0902395,-0.523404,0.986026,-0.00642266,-0.000996059,0.0979625,1,3.70685e-05,-1.6469e-06,2.57454e-05,0.0074137,-0.00032938,0.00514909,0.999445,-0.00415953,0.0330423,-2.58974e-05,0.0467886,0.523749,-0.975933,31.8125,1,57448,5806967
3,2,0.999445,-0.00415953,0.0330423,-2.58974e-05,-0.642239,-0.0988466,9.79626,0.0902395,-0.523404,0.986026,-0.00642266,-0.000996059,0.0979625,1,3.70685e-05,-1.6469e-06,2.57454e-05,0.0074137,-0.00032938,0.00514909,0.999445,-0.00415953,0.0330423,-2.58974e-05,0.0467886,0.523749,-0.975933,31.8125,1,57448,5806967
3,3,0.999445,-0.00415953,0.0330423,-2.58974e-05,-0.642239,-0.0988466,9.79626,0.0902395,-0.523404,0.986026,-0.00642266,-0.000996059,0.0979625,1,3.70685e-05,-1.6469e-06,2.57454e-05,0.0074137,-0.00032938,0.00514909,0.999445,-0.00415953,0.0330423,-2.58974e-05,0.0467886,0.523749,-0.975933,31.8125,1,57448,5806967
3,4,0.999446,-0.0041204,0.0330296,-9.08978e-06,-0.65126,-0.116626,9.79956,0.0828628,-0.540543,0.988559,-0.00651504,-0.00117402,0.0979953,1,3.84318e-05,-1.26509e-05,1.80029e-05,0.00768637,-0.00253019,0.00360057,0.999446,-0.0041204,0.0330296,-9.08978e-06,0.0471753,0.524295,-0.979458,31.8125,1,57449,5807067
3,5,0.999446,-0.0041204,0.0330296,-9.08978e-06,-0.65126,-0.116626,9.79956,0.0828628,-0.540543,0.988559,-0.00651504,-0.00117402,0.0979953,1,3.84318e-05,-1.26509e-05,1.80029e-05,0.00768637,-0.00253019,0.00360057,0.999446,-0.0041204,0.0330296,-9.08978e-06,0.0471753,0.524295,-0.979458,31.8125,1,57449,5807067
3,6,0.999446,-0.0041204,0.0330296,-9.08978e-06,-0.65126,-0.116626,9.79956,0.0828628,-0.540543,0.988559,-0.00651504,-0.00117402,0.0979953,1,3.84318e-05,-1.26509e-05,1.80029e-05,0.00768637,-0.00253019,0.00360057,0.999446,-0.0041204,0.0330296,-9.08978e-06,0.0471753,0.524295,-0.979458,31.8125,1,57449,5807067
3,7,0.999446,-0.00407378,0.0330223,1.56811e-05,-0.638136,-0.10198,9.78637,0.0884549,-0.527631,0.977314,-0.00638276,-0.00102903,0.0978635,1,4.54374e-05,-7.4023e-06,2.61849e-05,0.00908748,-0.00148046,0.00523698,0.999446,-0.00407378,0.0330223,1.56811e-05,0.0466937,0.522854,-0.980498,31.8125,1,57450,5807167
3,8,0.999446,-0.00407378,0.0330223,1.56811e-05,-0.638136,-0.10198,9.78637,0.0884549,-0.527631,0.977314,-0.00638276,-0.00102903,0.0978635,1,4.54374e-05,-7.4023e-06,2.61849e-05,0.00908748,-0.00148046,0.00523698,0.999446,-0.00407378,0.0330223,1.56811e-05,0.0466937,0.522854,-0.980498,31.8125,1,57450,5807167
3,9,0.999446,-0.00407378,0.0330223,1.56811e-05,-0.638136,-0.10198,9.78637,0.0884549,-0.527631,0.977314,-0.00638276,-0.00102903,0.0978635,1,4.54374e-05,-7.4023e-06,2.61849e-05,0.00908748,-0.00148046,0.00523698,0.999446,-0.00407378,0.0330223,1.56811e-05,0.0466937,0.522854,-0.980498,31.8125,1,57450,5807167
3,10,0.999447,-0.00402453,0.0330121,2.20257e-05,-0.649396,-0.0997255,9.79358,0.0824423,-0.531341,0.989135,-0.00649594,-0.00100706,0.0979356,1,4.9511e-05,-1.0196e-05,8.01155e-06,0.00990219,-0.00203919,0.00160231,0.999447,-0.00402453,0.0330121,2.20257e-05,0.0458007,0.520884,-0.979022,31.8125,1,57451,5807267
4,1,0.999447,-0.00402453,0.0330121,2.20257e-05,-0.649396,-0.0997255,9.79358,0.0824423,-0.531341,0.989135,-0.00649594,-0.00100706,0.0979356,1,4.9511e-05,-1.0196e-05,8.01155e-06,0.00990219,-0.00203919,0.00160231,0.999447,-0.00402453,0.0330121,2.20257e-05,0.0458007,0.520884,-0.979022,31.8125,1,57451,5807267
4,2,0.999447,-0.00402453,0.0330121,2.20257e-05,-0.649396,-0.0997255,9.79358,0.0824423,-0.531341,0.989135,-0.00649594,-0.00100706,0.0979356,1,4.9511e-05,-1.0196e-05,8.01155e-06,0.00990219,-0.00203919,0.00160231,0.999447,-0.00402453,0.0330121,2.20257e-05,0.0458007,0.520884,-0.979022,31.8125,1,57451,5807267
4,3,0.999447,-0.00396731,0.033008,3.15914e-05,-0.648364,-0.106089,9.78809,0.0814674,-0.533032,0.982647,-0.00648441,-0.00107214,0.0978807,1,5.67566e-05,-4.01596e-06,1.14684e-05,0.0113513,-0.000803191,0.00229367,0.999447,-0.00396731,0.033008,3.15914e-05,0.045377,0.520364,-0.977011,31.8125,1,57452,5807367
4,4,0.999447,-0.00396731,0.033008,3.15914e-05,-0.648364,-0.106089,9.78809,0.0814674,-0.533032,0.982647,-0.00648441,-0.00107214,0.0978807,1,5.67566e-05,-4.01596e-06,1.14684e-05,0.0113513,-0.000803191,0.00229367,0.999447,-0.00396731,0.033008,3.15914e-05,0.045377,0.520364,-0.977011,31.8125,1,57452,5807367
4,5,0.999447,-0.00396731,0.033008,3.15914e-05,-0.648364,-0.106089,9.78809,0.0814674,-0.533032,0.982647,-0.00648441,-0.00107214,0.0978807,1,5.67566e-05,-4.01596e-06,1.14684e-05,0.0113513,-0.000803191,0.00229367,0.999447,-0.00396731,0.033008,3.15914e-05,0.045377,0.520364,-0.977011,31.8125,1,57452,5807367
4,6,0.999448,-0.0039103,0.0329909,4.91178e-05,-0.643226,-0.10161,9.78471,0.0879715,-0.533042,0.975082,-0.00643557,-0.00102725,0.0978468,1,5.57153e-05,-1.71404e-05,1.93064e-05,0.0111431,-0.00342809,0.00386129,0.999448,-0.0039103,0.0329909,4.91178e-05,0.046372,0.51985,-0.976017,31.8125,1,57453,5807467
4,7,0.999448,-0.0039103,0.0329909,4.91178e-05,-0.643226,-0.10161,9.78471,0.0879715,-0.533042,0.975082,-0.00643557,-0.00102725,0.0978468,1,5.57153e-05,-1.71404e-05,1.93064e-05,0.0111431,-0.00342809,0.00386129,0.999448,-0.0039103,0.0329909,4.91178e-05,0.046372,0.51985,-0.976017,31.8125,1,57453,5807467
4,8,0.999448,-0.0039103,0.0329909,4.91178e-05,-0.643226,-0.10161,9.78471,0.0879715,-0.533042,0.975082,-0.00643557,-0.00102725,0.0978468,1,5.57153e-05,-1.71404e-05,1.93064e-05,0.0111431,-0.00342809,0.00386129,0.999448,-0.0039103,0.0329909,4.91178e-05,0.046372,0.51985,-0.976017,31.8125,1,57453,5807467
4,9,0.999448,-0.00388019,0.032984,7.29026e-05,-0.643576,-0.100203,9.79049,0.0858429,-0.532317,0.981271,-0.00643709,-0.00100813,0.0979048,1,2.95099e-05,-7.01493e-06,2.46874e-05,0.00590198,-0.00140299,0.00493748,0.999448,-0.00388019,0.032984,7.29026e-05,0.0457846,0.52186,-0.979,31.8125,1,57454,5807567
4,10,0.999448,-0.00388019,0.032984,7.29026e-05,-0.643576,-0.100203,9.79049,0.0858429,-0.532317,0.981271,-0.00643709,-0.00100813,0.0979048,1,2.95099e-05,-7.01493e-06,2.46874e-05,0.00590198,-0.00140299,0.00493748,0.999448,-0.00388019,0.032984,7.29026e-05,0.0457846,0.52186,-0.979,31.8125,1,57454,5807567
4,11,0.999448,-0.00388019,0.032984,7.29026e-05,-0.643576,-0.100203,9.79049,0.0858429,-0.532317,0.981271,-0.00643709,-0.00100813,0.0979048,1,2.95099e-05,-7.01493e-06,2.46874e-05,0.00590198,-0.00140299,0.00493748,0.999448,-0.00388019,0.032984,7.29026e-05,0.0457846,0.52186,-0.979,31.8125,1,57454,5807567
4,12,0.999449,-0.00383537,0.0329616,7.87286e-05,-0.651541,-0.110298,9.78877,0.0770762,-0.54213,0.977646,-0.00651976,-0.00111181,0.0978873,1,4.46123e-05,-2.23291e-05,7.36877e-06,0.00892246,-0.00446582,0.00147375,0.999449,-0.00383537,0.0329616,7.87286e-05,0.0467103,0.523324,-0.979477,31.8125,1,57455,5807667
4,13,0.999449,-0.00383537,0.0329616,7.87286e-05,-0.651541,-0.110298,9.78877,0.0770762,-0.54213,0.977646,-0.00651976,-0.00111181,0.0978873,1,4.46123e-05,-2.23291e-05,7.36877e-06,0.00892246,-0.00446582,0.00147375,0.999449,-0.00383537,0.0329616,7.87286e-05,0.0467103,0.523324,-0.979477,31.8125,1,57455,5807667
4,14,0.999449,-0.00383537,0.0329616,7.87286e-05,-0.651541,-0.110298,9.78877,0.0770762,-0.54213,0.977646,-0.00651976,-0.00111181,0.0978873,1,4.46123e-05,-2.23291e-05,7.36877e-06,0.00892246,-0.00446582,0.00147375,0.999449,-0.00383537,0.0329616,7.87286e-05,0.0467103,0.523324,-0.979477,31.8125,1,57455,5807667
5,1,0.99945,-0.00377751,0.0329507,9.75451e-05,-0.640824,-0.104311,9.7884,0.0927689,-0.533845,0.98243,-0.00641032,-0.00105472,0.0978837,1,5.7945e-05,-1.085e-05,2.08934e-05,0.011589,-0.00217,0.00417867,0.99945,-0.00377751,0.0329507,9.75451e-05,0.0457519,0.522365,-0.979999,31.8125,1,57456,5807767
5,2,0.99945,-0.00377751,0.0329507,9.75451e-05,-0.640824,-0.104311,9.7884,0.0927689,-0.533845,0.98243,-0.00641032,-0.00105472,0.0978837,1,5.7945e-05,-1.085e-05,2.08934e-05,0.011589,-0.00217,0.00417867,0.99945,-0.00377751,0.0329507,9.75451e-05,0.0457519,0.522365,-0.979999,31.8125,1,57456,5807767
5,3,0.99945,-0.00377751,0.0329507,9.75451e-05,-0.640824,-0.104311,9.7884,0.0927689,-0.533845,0.98243,-0.00641032,-0.00105472,0.0978837,1,5.7945e-05,-1.085e-05,2.08934e-05,0.011589,-0.00217,0.00417867,0.99945,-0.00377751,0.0329507,9.75451e-05,0.0457519,0.522365,-0.979999,31.8125,1,57456,5807767
5,4,0.99945,-0.00372985,0.0329403,0.000113652,-0.640781,-0.110565,9.7897,0.0857963,-0.545982,0.983675,-0.00640983,-0.00111519,0.0978968,1,4.75292e-05,-1.05013e-05,1.79076e-05,0.00950583,-0.00210026,0.00358151,0.99945,-0.00372985,0.0329403,0.000113652,0.0467345,0.521861,-0.97951,31.8125,1,57457,5807867
5,5,0.99945,-0.00372985,0.0329403,0.000113652,-0.640781,-0.110565,9.7897,0.0857963,-0.545982,0.983675,-0.00640983,-0.00111519,0.0978968,1,4.75292e-05,-1.05013e-05,1.79076e-05,0.00950583,-0.00210026,0.00358151,0.99945,-0.00372985,0.0329403,0.000113652,0.0467345,0.521861,-0.97951,31.8125,1,57457,5807867
5,6,0.99945,-0.00372985,0.0329403,0.000113652,-0.640781,-0.110565,9.7897,0.0857963,-0.545982,0.983675,-0.00640983,-0.00111519,0.0978968,1,4.75292e-05,-1.05013e-05,1.79076e-05,0.00950583,-0.00210026,0.00358151,0.99945,-0.00372985,0.0329403,0.000113652,0.0467345,0.521861,-0.97951,31.8125,1,57457,5807867
5,7,0.999451,-0.00368996,0.0329303,0.00013154,-0.646007,-0.0990443,9.7956,0.0850008,-0.534275,0.989384,-0.00646201,-0.000998542,0.0979558,1,4.0069e-05,-1.00677e-05,1.92397e-05,0.0080138,-0.00201353,0.00384794,0.999451,-0.00368996,0.0329303,0.00013154,0.0487207,0.5218,-0.976995,31.8125,1,57458,5807967
5,8,0.999451,-0.00368996,0.0329303,0.00013154,-0.646007,-0.0990443,9.7956,0.0850008,-0.534275,0.989384,-0.00646201,-0.000998542,0.0979558,1,4.0069e-05,-1.00677e-05,1.92397e-05,0.0080138,-0.00201353,0.00384794,0.999451,-0.00368996,0.0329303,0.00013154,0.0487207,0.5218,-0.976995,31.8125,1,57458,5807967
6,1,0.999451,-0.00368996,0.0329303,0.00013154,-0.646007,-0.0990443,9.7956,0.0850008,-0.534275,0.989384,-0.00646201,-0.000998542,0.0979558,1,4.0069e-05,-1.00677e-05,1.92397e-05,0.0080138,-0.00201353,0.00384794,0.999451,-0.00368996,0.0329303,0.00013154,0.0487207,0.5218,-0.976995,31.8125,1,57458,5807967
6,2,0.999451,-0.00365199,0.0329301,0.000143309,-0.647435,-0.097676,9.78748,0.080645,-0.531461,0.983267,-0.00647434,-0.000984475,0.0978747,1,3.85195e-05,-1.17187e-07,1.3493e-05,0.0077039,-2.34374e-05,0.0026986,0.999451,-0.00365199,0.0329301,0.000143309,0.049243,0.522247,-0.974967,31.8125,1,57459,5808067
6,3,0.999451,-0.00365199,0.0329301,0.000143309,-0.647435,-0.097676,9.78748,0.080645,-0.531461,0.983267,-0.00647434,-0.000984475,0.0978747,1,3.85195e-05,-1.17187e-07,1.3493e-05,0.0077039,-2.34374e-05,0.0026986,0.999451,-0.00365199,0.0329301,0.000143309,0.049243,0.522247,-0.974967,31.8125,1,57459,5808067
6,4,0.999451,-0.00365199,0.0329301,0.000143309,-0.647435,-0.097676,9.78748,0.080645,-0.531461,0.983267,-0.00647434,-0.000984475,0.0978747,1,3.85195e-05,-1.17187e-07,1.3493e-05,0.0077039,-2.34374e-05,0.0026986,0.999451,-0.00365199,0.0329301,0.000143309,0.049243,0.522247,-0.974967,31.8125,1,57459,5808067
6,5,0.999452,-0.00361268,0.0329124,0.0001648,-0.646183,-0.100109,9.79391,0.0793864,-0.538927,0.985621,-0.00646524,-0.00100909,0.0979387,1,3.93186e-05,-1.76782e-05,2.29404e-05,0.00786372,-0.00353565,0.00458807,0.999452,-0.00361268,0.0329124,0.0001648,0.0477793,0.522756,-0.975454,31.8125,1,57460,5808167
6,6,0.999452,-0.00361268,0.0329124,0.0001648,-0.646183,-0.100109,9.79391,0.0793864,-0.538927,0.985621,-0.00646524,-0.00100909,0.0979387,1,3.93186e-05,-1.76782e-05,2.29404e-05,0.00786372,-0.00353565,0.00458807,0.999452,-0.00361268,0.0329124,0.0001648,0.0477793,0.522756,-0.975454,31.8125,1,57460,5808167
6,7,0.999452,-0.00361268,0.0329124,0.0001648,-0.646183,-0.100109,9.79391,0.0793864,-0.538927,0.985621,-0.00646524,-0.00100909,0.0979387,1,3.93186e-05,-1.76782e-05,2.29404e-05,0.00786372,-0.00353565,0.00458807,0.999452,-0.00361268,0.0329124,0.0001648,0.0477793,0.522756,-0.975454,31.8125,1,57460,5808167
6,8,0.999452,-0.00356763,0.0329069,0.000180382,-0.638822,-0.0989694,9.79522,0.0860393,-0.538407,0.984668,-0.00638928,-0.000998822,0.097952,1,4.54727e-05,-5.58051e-06,1.72034e-05,0.00909454,-0.0011161,0.00344069,0.999452,-0.00356763,0.0329069,0.000180382,0.0477337,0.521826,-0.978,31.8125,1,57461,5808267
6,9,0.999452,-0.00356763,0.0329069,0.000180382,-0.638822,-0.0989694,9.79522,0.0860393,-0.538407,0.984668,-0.00638928,-0.000998822,0.097952,1,4.54727e-05,-5.58051e-06,1.72034e-05,0.00909454,-0.0011161,0.00344069,0.999452,-0.00356763,0.0329069,0.000180382,0.0477337,0.521826,-0.978,31.8125,1,57461,5808267
6,10,0.999452,-0.00356763,0.0329069,0.000180382,-0.638822,-0.0989694,9.79522,0.0860393,-0.538407,0.984668,-0.00638928,-0.000998822,0.097952,1,4.54727e-05,-5.58051e-06,1.72034e-05,0.00909454,-0.0011161,0.00344069,0.999452,-0.00356763,0.0329069,0.000180382,0.0477337,0.521826,-0.978,31.8125,1,57461,5808267
12,1,0.999452,-0.00351644,0.0329013,0.000217586,-0.649799,-0.099918,9.77832,0.078053,-0.540763,0.967215,-0.00649901,-0.00100953,0.097783,1,5.03399e-05,-5.64756e-06,3.90968e-05,0.010068,-0.00112951,0.00781936,0.999452,-0.00351644,0.0329013,0.000217586,0.0476801,0.521383,-0.980535,31.8125,1,57462,5808367
12,2,0.999452,-0.00351644,0.0329013,0.000217586,-0.649799,-0.099918,9.77832,0.078053,-0.540763,0.967215,-0.00649901,-0.00100953,0.097783,1,5.03399e-05,-5.64756e-06,3.90968e-05,0.010068,-0.00112951,0.00781936,0.999452,-0.00351644,0.0329013,0.000217586,0.0476801,0.521383,-0.980535,31.8125,1,57462,5808367
12,3,0.999452,-0.00351644,0.0329013,0.000217586,-0.649799,-0.099918,9.77832,0.078053,-0.540763,0.967215,-0.00649901,-0.00100953,0.097783,1,5.03399e-05,-5.64756e-06,3.90968e-05,0.010068,-0.00112951,0.00781936,0.999452,-0.00351644,0.0329013,0.000217586,0.0476801,0.521383,-0.980535,31.8125,1,57462,5808367
12,4,0.999453,-0.00347346,0.0328932,0.000218147,-0.650089,-0.107,9.78606,0.0750291,-0.548337,0.978581,-0.00650246,-0.00107861,0.0978604,1,4.38244e-05,-8.02211e-06,2.24468e-06,0.00876488,-0.00160442,0.000448936,0.999453,-0.00347346,0.0328932,0.000218147,0.0462695,0.520889,-0.979529,31.8125,1,57463,5808467
12,5,0.999453,-0.00347346,0.0328932,0.000218147,-0.650089,-0.107,9.78606,0.0750291,-0.548337,0.978581,-0.00650246,-0.00107861,0.0978604,1,4.38244e-05,-8.02211e-06,2.24468e-06,0.00876488,-0.00160442,0.000448936,0.999453,-0.00347346,0.0328932,0.000218147,0.0462695,0.520889,-0.979529,31.8125,1,57463,5808467
12,6,0.999453,-0.00347346,0.0328932,0.000218147,-0.650089,-0.107,9.78606,0.0750291,-0.548337,0.978581,-0.00650246,-0.00107861,0.0978604,1,4.38244e-05,-8.02211e-06,2.24468e-06,0.00876488,-0.00160442,0.000448936,0.999453,-0.00347346,0.0328932,0.000218147,0.0462695,0.520889,-0.979529,31.8125,1,57463,5808467
12,7,0.999453,-0.00342028,0.0328831,0.00022927,-0.645185,-0.103776,9.79387,0.0795923,-0.54957,0.990559,-0.0064538,-0.00104859,0.0979384,1,5.44134e-05,-1.00958e-05,1.31464e-05,0.0108827,-0.00201916,0.00262928,0.999453,-0.00342028,0.0328831,0.00022927,0.0458662,0.519872,-0.977025,31.8125,1,57464,5808567
12,8,0.999453,-0.00342028,0.0328831,0.00022927,-0.645185,-0.103776,9.79387,0.0795923,-0.54957,0.990559,-0.0064538,-0.00104859,0.0979384,1,5.44134e-05,-1.00958e-05,1.31464e-05,0.0108827,-0.00201916,0.00262928,0.999453,-0.00342028,0.0328831,0.00022927,0.0458662,0.519872,-0.977025,31.8125,1,57464,5808567
12,9,0.999453,-0.00342028,0.0328831,0.00022927,-0.645185,-0.103776,9.79387,0.0795923,-0.54957,0.990559,-0.0064538,-0.00104859,0.0979384,1,5.44134e-05,-1.00958e-05,1.31464e-05,0.0108827,-0.00201916,0.00262928,0.999453,-0.00342028,0.0328831,0.00022927,0.0458662,0.519872,-0.977025,31.8125,1,57464,5808567
12,10,0.999454,-0.00337489,0.032879,0.000256117,-0.636775,-0.108819,9.78426,0.0928171,-0.551191,0.974774,-0.00636851,-0.00109748,0.0978424,1,4.55957e-05,-4.18357e-06,2.85822e-05,0.00911915,-0.000836714,0.00571643,0.999454,-0.00337489,0.032879,0.000256117,0.0463521,0.521792,-0.975469,31.8125,1,57465,5808667
10,1,0.999454,-0.00337489,0.032879,0.000256117,-0.636775,-0.108819,9.78426,0.0928171,-0.551191,0.974774,-0.00636851,-0.00109748,0.0978424,1,4.55957e-05,-4.18357e-06,2.85822e-05,0.00911915,-0.000836714,0.00571643,0.999454,-0.00337489,0.032879,0.000256117,0.0463521,0.521792,-0.975469,31.8125,1,57465,5808667
10,2,0.999454,-0.00337489,0.032879,0.000256117,-0.636775,-0.108819,9.78426,0.0928171,-0.551191,0.974774,-0.00636851,-0.00109748,0.0978424,1,4.55957e-05,-4.18357e-06,2.85822e-05,0.00911915,-0.000836714,0.00571643,0.999454,-0.00337489,0.032879,0.000256117,0.0463521,0.521792,-0.975469,31.8125,1,57465,5808667
10,3,0.999454,-0.00332633,0.0328664,0.000257132,-0.651978,-0.101776,9.79359,0.0728371,-0.545984,0.985659,-0.00652222,-0.00102761,0.0979356,1,5.00977e-05,-1.2506e-05,2.92418e-06,0.0100195,-0.0025012,0.000584835,0.999454,-0.00332633,0.0328664,0.000257132,0.046287,0.524249,-0.976424,31.8125,1,57466,5808767
10,4,0.999454,-0.00332633,0.0328664,0.000257132,-0.651978,-0.101776,9.79359,0.0728371,-0.545984,0.985659,-0.00652222,-0.00102761,0.0979356,1,5.00977e-05,-1.2506e-05,2.92418e-06,0.0100195,-0.0025012,0.000584835,0.999454,-0.00332633,0.0328664,0.000257132,0.046287,0.524249,-0.976424,31.8125,1,57466,5808767
10,5,0.999454,-0.00332633,0.0328664,0.000257132,-0.651978,-0.101776,9.79359,0.0728371,-0.545984,0.985659,-0.00652222,-0.00102761,0.0979356,1,5.00977e-05,-1.2506e-05,2.92418e-06,0.0100195,-0.0025012,0.000584835,0.999454,-0.00332633,0.0328664,0.000257132,0.046287,0.524249,-0.976424,31.8125,1,57466,5808767
10,6,0.999455,-0.00327397,0.0328605,0.000276618,-0.637734,-0.11256,9.79034,0.0894611,-0.55599,0.979943,-0.00637846,-0.00113621,0.0979032,1,5.27687e-05,-5.95293e-06,2.15974e-05,0.0105537,-0.00119059,0.00431949,0.999455,-0.00327397,0.0328605,0.000276618,0.0472446,0.522317,-0.977987,31.8125,1,57467,5808867
10,7,0.999455,-0.00327397,0.0328605,0.000276618,-0.637734,-0.11256,9.79034,0.0894611,-0.55599,0.979943,-0.00637846,-0.00113621,0.0979032,1,5.27687e-05,-5.95293e-06,2.15974e-05,0.0105537,-0.00119059,0.00431949,0.999455,-0.00327397,0.0328605,0.000276618,0.0472446,0.522317,-0.977987,31.8125,1,57467,5808867
10,8,0.999455,-0.00327397,0.0328605,0.000276618,-0.637734,-0.11256,9.79034,0.0894611,-0.55599,0.979943,-0.00637846,-0.00113621,0.0979032,1,5.27687e-05,-5.95293e-06,2.15974e-05,0.0105537,-0.00119059,0.00431949,0.999455,-0.00327397,0.0328605,0.000276618,0.0472446,0.522317,-0.977987,31.8125,1,57467,5808867
10,9,0.999455,-0.00322161,0.0328422,0.000292456,-0.641802,-0.0988562,9.78541,0.0824003,-0.544933,0.974786,-0.00642158,-0.000999309,0.0978538,1,5.37561e-05,-1.83542e-05,1.76596e-05,0.0107512,-0.00367083,0.00353192,0.999455,-0.00322161,0.0328422,0.000292456,0.0477086,0.520398,-0.980052,31.8125,1,57468,5808967
10,10,0.999455,-0.00322161,0.0328422,0.000292456,-0.641802,-0.0988562,9.78541,0.0824003,-0.544933,0.974786,-0.00642158,-0.000999309,0.0978538,1,5.37561e-05,-1.83542e-05,1.76596e-05,0.0107512,-0.00367083,0.00353192,0.999455,-0.00322161,0.0328422,0.000292456,0.0477086,0.520398,-0.980052,31.8125,1,57468,5808967
14,1,0.999455,-0.00322161,0.0328422,0.000292456,-0.641802,-0.0988562,9.78541,0.0824003,-0.544933,0.974786,-0.00642158,-0.000999309,0.0978538,1,5.37561e-05,-1.83542e-05,1.76596e-05,0.0107512,-0.00367083,0.00353192,0.999455,-0.00322161,0.0328422,0.000292456,0.0477086,0.520398,-0.980052,31.8125,1,57468,5808967
14,2,0.999455,-0.00317935,0.0328506,0.000304508,-0.640774,-0.0890447,9.79157,0.0871618,-0.53839,0.984055,-0.00640606,-0.000899152,0.0979157,1,4.35392e-05,8.45691e-06,1.39549e-05,0.00870784,0.00169138,0.00279097,0.999455,-0.00317935,0.0328506,0.000304508,0.0472887,0.518912,-0.978568,31.8125,1,57469,5809067
14,3,0.999455,-0.00317935,0.0328506,0.000304508,-0.640774,-0.0890447,9.79157,0.0871618,-0.53839,0.984055,-0.00640606,-0.000899152,0.0979157,1,4.35392e-05,8.45691e-06,1.39549e-05,0.00870784,0.00169138,0.00279097,0.999455,-0.00317935,0.0328506,0.000304508,0.0472887,0.518912,-0.978568,31.8125,1,57469,5809067
14,4,0.999455,-0.00317935,0.0328506,0.000304508,-0.640774,-0.0890447,9.79157,0.0871618,-0.53839,0.984055,-0.00640606,-0.000899152,0.0979157,1,4.35392e-05,8.45691e-06,1.39549e-05,0.00870784,0.00169138,0.00279097,0.999455,-0.00317935,0.0328506,0.000304508,0.0472887,0.518912,-0.978568,31.8125,1,57469,5809067
14,5,0.999456,-0.00311708,0.0328415,0.000321643,-0.650988,-0.0996549,9.7953,0.0789801,-0.547301,0.985582,-0.00651161,-0.00100916,0.0979527,1,6.3058e-05,-9.02282e-06,1.96692e-05,0.0126116,-0.00180456,0.00393384,0.999456,-0.00311708,0.0328415,0.000321643,0.046335,0.519877,-0.977532,31.8125,1,57470,5809167
14,6,0.999456,-0.00311708,0.0328415,0.000321643,-0.650988,-0.0996549,9.7953,0.0789801,-0.547301,0.985582,-0.00651161,-0.00100916,0.0979527,1,6.3058e-05,-9.02282e-06,1.96692e-05,0.0126116,-0.00180456,0.00393384,0.999456,-0.00311708,0.0328415,0.000321643,0.046335,0.519877,-0.977532,31.8125,1,57470,5809167
14,7,0.999456,-0.00311708,0.0328415,0.000321643,-0.650988,-0.0996549,9.7953,0.0789801,-0.547301,0.985582,-0.00651161,-0.00100916,0.0979527,1,6.3058e-05,-9.02282e-06,1.96692e-05,0.0126116,-0.00180456,0.00393384,0.999456,-0.00311708,0.0328415,0.000321643,0.046335,0.519877,-0.977532,31.8125,1,57470,5809167
14,8,0.999456,-0.00307506,0.032829,0.000339621,-0.640307,-0.0934421,9.78543,0.0863771,-0.539983,0.97904,-0.00640547,-0.000943241,0.0978541,1,4.37683e-05,-1.24741e-05,1.98468e-05,0.00875366,-0.00249482,0.00396936,0.999456,-0.00307506,0.032829,0.000339621,0.0477874,0.522268,-0.975465,31.8125,1,57471,5809267
14,9,0.999456,-0.00307506,0.032829,0.000339621,-0.640307,-0.0934421,9.78543,0.0863771,-0.539983,0.97904,-0.00640547,-0.000943241,0.0978541,1,4.37683e-05,-1.24741e-05,1.98468e-05,0.00875366,-0.00249482,0.00396936,0.999456,-0.00307506,0.032829,0.000339621,0.0477874,0.522268,-0.975465,31.8125,1,57471,5809267
14,10,0.999456,-0.00307506,0.032829,0.000339621,-0.640307,-0.0934421,9.78543,0.0863771,-0.539983,0.97904,-0.00640547,-0.000943241,0.0978541,1,4.37683e-05,-1.24741e-05,1.98468e-05,0.00875366,-0.00249482,0.00396936,0.999456,-0.00307506,0.032829,0.000339621,0.0477874,0.522268,-0.975465,31.8125,1,57471,5809267
15,1,0.999457,-0.00303603,0.032816,0.000347183,-0.652612,-0.111297,9.80097,0.0743421,-0.561689,0.990176,-0.00652865,-0.00112095,0.0980094,1,4.00505e-05,-1.30053e-05,9.41395e-06,0.0080101,-0.00260105,0.00188279,0.999457,-0.00303603,0.032816,0.000347183,0.0482566,0.523719,-0.97493,31.8125,1,57472,5809367
15,2,0.999457,-0.00303603,0.032816,0.000347183,-0.652612,-0.111297,9.80097,0.0743421,-0.561689,0.990176,-0.00652865,-0.00112095,0.0980094,1,4.00505e-05,-1.30053e-05,9.41395e-06,0.0080101,-0.00260105,0.00188279,0.999457,-0.00303603,0.032816,0.000347183,0.0482566,0.523719,-0.97493,31.8125,1,57472,5809367
15,3,0.999457,-0.00303603,0.032816,0.000347183,-0.652612,-0.111297,9.80097,0.0743421,-0.561689,0.990176,-0.00652865,-0.00112095,0.0980094,1,4.00505e-05,-1.30053e-05,9.41395e-06,0.0080101,-0.00260105,0.00188279,0.999457,-0.00303603,0.032816,0.000347183,0.0482566,0.523719,-0.97493,31.8125,1,57472,5809367
15,4,0.999457,-0.00298345,0.0328125,0.000361892,-0.636777,-0.101963,9.79212,0.0860158,-0.555024,0.983085,-0.00636841,-0.00103029,0.0979211,1,5.33127e-05,-3.43106e-06,1.68698e-05,0.0106625,-0.000686212,0.00337396,0.999457,-0.00298345,0.0328125,0.000361892,0.0481826,0.523773,-0.977959,31.8125,1,57473,5809467
15,5,0.999457,-0.00298345,0.0328125,0.000361892,-0.636777,-0.101963,9.79212,0.0860158,-0.555024,0.983085,-0.00636841,-0.00103029,0.0979211,1,5.33127e-05,-3.43106e-06,1.68698e-05,0.0106625,-0.000686212,0.00337396,0.999457,-0.00298345,0.0328125,0.000361892,0.0481826,0.523773,-0.977959,31.8125,1,57473,5809467
15,6,0.999457,-0.00298345,0.0328125,0.000361892,-0.636777,-0.101963,9.79212,0.0860158,-0.555024,0.983085,-0.00636841,-0.00103029,0.0979211,1,5.33127e-05,-3.43106e-06,1.68698e-05,0.0106625,-0.000686212,0.00337396,0.999457,-0.00298345,0.0328125,0.000361892,0.0481826,0.523773,-0.977959,31.8125,1,57473,5809467
15,7,0.999457,-0.00294312,0.0328079,0.000368087,-0.637446,-0.100098,9.79248,0.0889912,-0.555635,0.98017,-0.00637532,-0.00100931,0.0979246,1,4.19953e-05,-4.51295e-06,8.06508e-06,0.00839905,-0.00090259,0.00161301,0.999457,-0.00294312,0.0328079,0.000368087,0.0457276,0.523829,-0.979966,31.8125,1,57474,5809567
15,8,0.999457,-0.00294312,0.0328079,0.000368087,-0.637446,-0.100098,9.79248,0.0889912,-0.555635,0.98017,-0.00637532,-0.00100931,0.0979246,1,4.19953e-05,-4.51295e-06,8.06508e-06,0.00839905,-0.00090259,0.00161301,0.999457,-0.00294312,0.0328079,0.000368087,0.0457276,0.523829,-0.979966,31.8125,1,57474,5809567
15,9,0.999457,-0.00294312,0.0328079,0.000368087,-0.637446,-0.100098,9.79248,0.0889912,-0.555635,0.98017,-0.00637532,-0.00100931,0.0979246,1,4.19953e-05,-4.51295e-06,8.06508e-06,0.00839905,-0.00090259,0.00161301,0.999457,-0.00294312,0.0328079,0.000368087,0.0457276,0.523829,-0.979966,31.8125,1,57474,5809567
15,10,0.999458,-0.00288554,0.0327975,0.000380915,-0.642178,-0.10703,9.78974,0.0850228,-0.562398,0.980665,-0.00642378,-0.0010821,0.0978972,1,5.92657e-05,-1.04006e-05,1.50988e-05,0.0118531,-0.00208013,0.00301975,0.999458,-0.00288554,0.0327975,0.000380915,0.0453728,0.519885,-0.977527,31.8125,1,57475,5809667
15,11,0.999458,-0.00288554,0.0327975,0.000380915,-0.642178,-0.10703,9.78974,0.0850228,-0.562398,0.980665,-0.00642378,-0.0010821,0.0978972,1,5.92657e-05,-1.04006e-05,1.50988e-05,0.0118531,-0.00208013,0.00301975,0.999458,-0.00288554,0.0327975,0.000380915,0.0453728,0.519885,-0.977527,31.8125,1,57475,5809667
15,12,0.999458,-0.00288554,0.0327975,0.000380915,-0.642178,-0.10703,9.78974,0.0850228,-0.562398,0.980665,-0.00642378,-0.0010821,0.0978972,1,5.92657e-05,-1.04006e-05,1.50988e-05,0.0118531,-0.00208013,0.00301975,0.999458,-0.00288554,0.0327975,0.000380915,0.0453728,0.519885,-0.977527,31.8125,1,57475,5809667
15,13,0.999458,-0.00282401,0.0327881,0.000407654,-0.638198,-0.0972794,9.77895,0.0895015,-0.552208,0.970822,-0.00638374,-0.000985512,0.0977892,1,6.31083e-05,-9.31141e-06,2.93775e-05,0.0126217,-0.00186228,0.0058755,0.999458,-0.00282401,0.0327881,0.000407654,0.0454013,0.518901,-0.977044,31.8125,1,57476,5809767
15,14,0.999458,-0.00282401,0.0327881,0.000407654,-0.638198,-0.0972794,9.77895,0.0895015,-0.552208,0.970822,-0.00638374,-0.000985512,0.0977892,1,6.31083e-05,-9.31141e-06,2.93775e-05,0.0126217,-0.00186228,0.0058755,0.999458,-0.00282401,0.0327881,0.000407654,0.0454013,0.518901,-0.977044,31.8125,1,57476,5809767
15,15,0.999458,-0.00282401,0.0327881,0.000407654,-0.638198,-0.0972794,9.77895,0.0895015,-0.552208,0.970822,-0.00638374,-0.000985512,0.0977892,1,6.31083e-05,-9.31141e-06,2.93775e-05,0.0126217,-0.00186228,0.0058755,0.999458,-0.00282401,0.0327881,0.000407654,0.0454013,0.518901,-0.977044,31.8125,1,57476,5809767
15,16,0.999459,-0.00277648,0.0327823,0.000416731,-0.639852,-0.10367,9.78908,0.0850425,-0.5638,0.979709,-0.0063996,-0.00104665,0.0978906,1,5.00642e-05,-5.67727e-06,1.13044e-05,0.0100128,-0.00113545,0.00226088,0.999459,-0.00277648,0.0327823,0.000416731,0.0453609,0.52134,-0.97699,31.8125,1,57477,5809867
16,1,0.999459,-0.00277648,0.0327823,0.000416731,-0.639852,-0.10367,9.78908,0.0850425,-0.5638,0.979709,-0.0063996,-0.00104665,0.0978906,1,5.00642e-05,-5.67727e-06,1.13044e-05,0.0100128,-0.00113545,0.00226088,0.999459,-0.00277648,0.0327823,0.000416731,0.0453609,0.52134,-0.97699,31.8125,1,57477,5809867
16,2,0.999459,-0.00277648,0.0327823,0.000416731,-0.639852,-0.10367,9.78908,0.0850425,-0.5638,0.979709,-0.0063996,-0.00104665,0.0978906,1,5.00642e-05,-5.67727e-06,1.13044e-05,0.0100128,-0.00113545,0.00226088,0.999459,-0.00277648,0.0327823,0.000416731,0.0453609,0.52134,-0.97699,31.8125,1,57477,5809867
16,3,0.999459,-0.00272976,0.0327781,0.000431425,-0.648945,-0.101412,9.79357,0.0778145,-0.559519,0.982556,-0.00649022,-0.00102393,0.0979355,1,4.89653e-05,-4.10512e-06,1.69516e-05,0.00979307,-0.000821024,0.00339031,0.999459,-0.00272976,0.0327781,0.000431425,0.0467682,0.524245,-0.976426,31.8125,1,57478,5809967
16,4,0.999459,-0.00272976,0.0327781,0.000431425,-0.648945,-0.101412,9.79357,0.0778145,-0.559519,0.982556,-0.00649022,-0.00102393,0.0979355,1,4.89653e-05,-4.10512e-06,1.69516e-05,0.00979307,-0.000821024,0.00339031,0.999459,-0.00272976,0.0327781,0.000431425,0.0467682,0.524245,-0.976426,31.8125,1,57478,5809967
16,5,0.999459,-0.00272976,0.0327781,0.000431425,-0.648945,-0.101412,9.79357,0.0778145,-0.559519,0.982556,-0.00649022,-0.00102393,0.0979355,1,4.89653e-05,-4.10512e-06,1.69516e-05,0.00979307,-0.000821024,0.00339031,0.999459,-0.00272976,0.0327781,0.000431425,0.0467682,0.524245,-0.976426,31.8125,1,57478,5809967
16,6,0.99946,-0.00267285,0.0327618,0.000438068,-0.644459,-0.107093,9.79485,0.0835003,-0.567496,0.98084,-0.00644777,-0.0010828,0.0979481,1,5.99493e-05,-1.63371e-05,9.4102e-06,0.0119899,-0.00326741,0.00188204,0.99946,-0.00267285,0.0327618,0.000438068,0.0486836,0.521827,-0.978509,31.8125,1,57479,5810067
16,7,0.99946,-0.00267285,0.0327618,0.000438068,-0.644459,-0.107093,9.79485,0.0835003,-0.567496,0.98084,-0.00644777,-0.0010828,0.0979481,1,5.99493e-05,-1.63371e-05,9.4102e-06,0.0119899,-0.00326741,0.00188204,0.99946,-0.00267285,0.0327618,0.000438068,0.0486836,0.521827,-0.978509,31.8125,1,57479,5810067
16,8,0.99946,-0.00267285,0.0327618,0.000438068,-0.644459,-0.107093,9.79485,0.0835003,-0.567496,0.98084,-0.00644777,-0.0010828,0.0979481,1,5.99493e-05,-1.63371e-05,9.4102e-06,0.0119899,-0.00326741,0.00188204,0.99946,-0.00267285,0.0327618,0.000438068,0.0486836,0.521827,-0.978509,31.8125,1,57479,5810067
16,9,0.99946,-0.00263427,0.0327483,0.000437159,-0.639111,-0.0918262,9.79325,0.0861806,-0.552163,0.982756,-0.00639371,-0.000926559,0.0979323,1,4.22896e-05,-1.32749e-05,1.12299e-06,0.00845791,-0.00265498,0.000224598,0.99946,-0.00263427,0.0327483,0.000437159,0.0477043,0.51992,-0.980567,31.8125,1,57480,5810167
16,10,0.99946,-0.00263427,0.0327483,0.000437159,-0.639111,-0.0918262,9.79325,0.0861806,-0.552163,0.982756,-0.00639371,-0.000926559,0.0979323,1,4.22896e-05,-1.32749e-05,1.12299e-06,0.00845791,-0.00265498,0.000224598,0.99946,-0.00263427,0.0327483,0.000437159,0.0477043,0.51992,-0.980567,31.8125,1,57480,5810167
17,1,0.99946,-0.00263427,0.0327483,0.000437159,-0.639111,-0.0918262,9.79325,0.0861806,-0.552163,0.982756,-0.00639371,-0.000926559,0.0979323,1,4.22896e-05,-1.32749e-05,1.12299e-06,0.00845791,-0.00265498,0.000224598,0.99946,-0.00263427,0.0327483,0.000437159,0.0477043,0.51992,-0.980567,31.8125,1,57480,5810167
17,2,0.99946,-0.00258905,0.032741,0.000450675,-0.658878,-0.100244,9.79703,0.0607635,-0.55949,0.990904,-0.00659017,-0.00101214,0.0979701,1,4.84157e-05,-7.24781e-06,1.62199e-05,0.00968314,-0.00144956,0.00324399,0.99946,-0.00258905,0.032741,0.000450675,0.0467915,0.519892,-0.978544,31.8125,1,57481,5810267
17,3,0.99946,-0.00258905,0.032741,0.000450675,-0.658878,-0.100244,9.79703,0.0607635,-0.55949,0.990904,-0.00659017,-0.00101214,0.0979701,1,4.84157e-05,-7.24781e-06,1.62199e-05,0.00968314,-0.00144956,0.00324399,0.99946,-0.00258905,0.032741,0.000450675,0.0467915,0.519892,-0.978544,31.8125,1,57481,5810267
17,4,0.99946,-0.00258905,0.032741,0.000450675,-0.658878,-0.100244,9.79703,0.0607635,-0.55949,0.990904,-0.00659017,-0.00101214,0.0979701,1,4.84157e-05,-7.24781e-06,1.62199e-05,0.00968314,-0.00144956,0.00324399,0.99946,-0.00258905,0.032741,0.000450675,0.0467915,0.519892,-0.978544,31.8125,1,57481,5810267
17,5,0.999461,-0.00255256,0.0327375,0.000469662,-0.649966,-0.108745,9.79588,0.0710181,-0.566393,0.988383,-0.00650031,-0.00109545,0.0979587,1,3.94229e-05,-3.53919e-06,2.10068e-05,0.00788459,-0.000707839,0.00420136,0.999461,-0.00255256,0.0327375,0.000469662,0.0463393,0.520356,-0.977016,31.8125,1,57482,5810367
17,6,0.999461,-0.00255256,0.0327375,0.000469662,-0.649966,-0.108745,9.79588,0.0710181,-0.566393,0.988383,-0.00650031,-0.00109545,0.0979587,1,3.94229e-05,-3.53919e-06,2.10068e-05,0.00788459,-0.000707839,0.00420136,0.999461,-0.00255256,0.0327375,0.000469662,0.0463393,0.520356,-0.977016,31.8125,1,57482,5810367
17,7,0.999461,-0.00255256,0.0327375,0.000469662,-0.649966,-0.108745,9.79588,0.0710181,-0.566393,0.988383,-0.00650031,-0.00109545,0.0979587,1,3.94229e-05,-3.53919e-06,2.10068e-05,0.00788459,-0.000707839,0.00420136,0.999461,-0.00255256,0.0327375,0.000469662,0.0463393,0.520356,-0.977016,31.8125,1,57482,5810367
17,8,0.999461,-0.00251115,0.0327313,0.000497188,-0.651514,-0.0946214,9.78584,0.0746433,-0.557065,0.975413,-0.0065163,-0.000955106,0.0978582,1,4.34444e-05,-6.21189e-06,2.98842e-05,0.00868887,-0.00124238,0.00597685,0.999461,-0.00251115,0.0327313,0.000497188,0.0487662,0.52273,-0.974449,31.8125,1,57483,5810467
17,9,0.999461,-0.00251115,0.0327313,0.000497188,-0.651514,-0.0946214,9.78584,0.0746433,-0.557065,0.975413,-0.0065163,-0.000955106,0.0978582,1,4.34444e-05,-6.21189e-06,2.98842e-05,0.00868887,-0.00124238,0.00597685,0.999461,-0.00251115,0.0327313,0.000497188,0.0487662,0.52273,-0.974449,31.8125,1,57483,5810467
17,10,0.999461,-0.00251115,0.0327313,0.000497188,-0.651514,-0.0946214,9.78584,0.0746433,-0.557065,0.975413,-0.0065163,-0.000955106,0.0978582,1,4.34444e-05,-6.21189e-06,2.98842e-05,0.00868887,-0.00124238,0.00597685,0.999461,-0.00251115,0.0327313,0.000497188,0.0487662,0.52273,-0.974449,31.8125,1,57483,5810467
18,1,0.999462,-0.00246564,0.0327174,0.000512593,-0.651401,-0.0955618,9.78787,0.0706029,-0.558259,0.975045,-0.0065167,-0.000965386,0.0978784,1,4.87212e-05,-1.38787e-05,1.771e-05,0.00974424,-0.00277573,0.00354201,0.999462,-0.00246564,0.0327174,0.000512593,0.0482689,0.52371,-0.974425,31.8125,1,57484,5810567
18,2,0.999462,-0.00246564,0.0327174,0.000512593,-0.651401,-0.0955618,9.78787,0.0706029,-0.558259,0.975045,-0.0065167,-0.000965386,0.0978784,1,4.87212e-05,-1.38787e-05,1.771e-05,0.00974424,-0.00277573,0.00354201,0.999462,-0.00246564,0.0327174,0.000512593,0.0482689,0.52371,-0.974425,31.8125,1,57484,5810567
18,3,0.999462,-0.00246564,0.0327174,0.000512593,-0.651401,-0.0955618,9.78787,0.0706029,-0.558259,0.975045,-0.0065167,-0.000965386,0.0978784,1,4.87212e-05,-1.38787e-05,1.771e-05,0.00974424,-0.00277573,0.00354201,0.999462,-0.00246564,0.0327174,0.000512593,0.0482689,0.52371,-0.974425,31.8125,1,57484,5810567
18,4,0.999462,-0.00244182,0.0326994,0.000516989,-0.638366,-0.107605,9.78293,0.086375,-0.573011,0.968738,-0.00638722,-0.00108162,0.097829,1,2.80403e-05,-1.82446e-05,6.05914e-06,0.00560806,-0.00364892,0.00121183,0.999462,-0.00244182,0.0326994,0.000516989,0.048166,0.523303,-0.978979,31.8125,1,57485,5810667
18,5,0.999462,-0.00244182,0.0326994,0.000516989,-0.638366,-0.107605,9.78293,0.086375,-0.573011,0.968738,-0.00638722,-0.00108162,0.097829,1,2.80403e-05,-1.82446e-05,6.05914e-06,0.00560806,-0.00364892,0.00121183,0.999462,-0.00244182,0.0326994,0.000516989,0.048166,0.523303,-0.978979,31.8125,1,57485,5810667
18,6,0.999462,-0.00244182,0.0326994,0.000516989,-0.638366,-0.107605,9.78293,0.086375,-0.573011,0.968738,-0.00638722,-0.00108162,0.097829,1,2.80403e-05,-1.82446e-05,6.05914e-06,0.00560806,-0.00364892,0.00121183,0.999462,-0.00244182,0.0326994,0.000516989,0.048166,0.523303,-0.978979,31.8125,1,57485,5810667
18,7,0.999462,-0.00240151,0.0326943,0.000535109,-0.629759,-0.095038,9.78467,0.0910617,-0.560115,0.9684,-0.00629857,-0.000959319,0.0978465,1,4.43421e-05,-5.19289e-06,2.08002e-05,0.00886843,-0.00103858,0.00416003,0.999462,-0.00240151,0.0326943,0.000535109,0.0476389,0.520931,-0.982565,31.8125,1,57486,5810767
18,8,0.999462,-0.00240151,0.0326943,0.000535109,-0.629759,-0.095038,9.78467,0.0910617,-0.560115,0.9684,-0.00629857,-0.000959319,0.0978465,1,4.43421e-05,-5.19289e-06,2.08002e-05,0.00886843,-0.00103858,0.00416003,0.999462,-0.00240151,0.0326943,0.000535109,0.0476389,0.520931,-0.982565,31.8125,1,57486,5810767
18,9,0.999462,-0.00240151,0.0326943,0.000535109,-0.629759,-0.095038,9.78467,0.0910617,-0.560115,0.9684,-0.00629857,-0.000959319,0.0978465,1,4.43421e-05,-5.19289e-06,2.08002e-05,0.00886843,-0.00103858,0.00416003,0.999462,-0.00240151,0.0326943,0.000535109,0.0476389,0.520931,-0.982565,31.8125,1,57486,5810767
18,10,0.999463,-0.00236852,0.0326818,0.000543256,-0.635314,-0.102399,9.79347,0.0889663,-0.57084,0.983463,-0.00635561,-0.00103145,0.0979345,1,3.74206e-05,-1.27088e-05,1.03917e-05,0.00748411,-0.00254177,0.00207833,0.999463,-0.00236852,0.0326818,0.000543256,0.0472517,0.518939,-0.980082,31.8125,1,57487,5810867
19,1,0.999463,-0.00236852,0.0326818,0.000543256,-0.635314,-0.102399,9.79347,0.0889663,-0.57084,0.983463,-0.00635561,-0.00103145,0.0979345,1,3.74206e-05,-1.27088e-05,1.03917e-05,0.00748411,-0.00254177,0.00207833,0.999463,-0.00236852,0.0326818,0.000543256,0.0472517,0.518939,-0.980082,31.8125,1,57487,5810867
19,2,0.999463,-0.00236852,0.0326818,0.000543256,-0.635314,-0.102399,9.79347,0.0889663,-0.57084,0.983463,-0.00635561,-0.00103145,0.0979345,1,3.74206e-05,-1.27088e-05,1.03917e-05,0.00748411,-0.00254177,0.00207833,0.999463,-0.00236852,0.0326818,0.000543256,0.0472517,0.518939,-0.980082,31.8125,1,57487,5810867
19,3,0.999463,-0.00234222,0.0326795,0.000558279,-0.639946,-0.096372,9.79253,0.0837869,-0.565335,0.988035,-0.00639992,-0.000969987,0.0979252,1,3.0877e-05,-2.5256e-06,1.71811e-05,0.0061754,-0.000505121,0.00343623,0.999463,-0.00234222,0.0326795,0.000558279,0.0458828,0.520342,-0.976004,31.8125,1,57488,5810967
19,4,0.999463,-0.00234222,0.0326795,0.000558279,-0.639946,-0.096372,9.79253,0.0837869,-0.565335,0.988035,-0.00639992,-0.000969987,0.0979252,1,3.0877e-05,-2.5256e-06,1.71811e-05,0.0061754,-0.000505121,0.00343623,0.999463,-0.00234222,0.0326795,0.000558279,0.0458828,0.520342,-0.976004,31.8125,1,57488,5810967
19,5,0.999463,-0.00234222,0.0326795,0.000558279,-0.639946,-0.096372,9.79253,0.0837869,-0.565335,0.988035,-0.00639992,-0.000969987,0.0979252,1,3.0877e-05,-2.5256e-06,1.71811e-05,0.0061754,-0.000505121,0.00343623,0.999463,-0.00234222,0.0326795,0.000558279,0.0458828,0.520342,-0.976004,31.8125,1,57488,5810967
19,6,0.999463,-0.00229693,0.0326785,0.00056216,-0.656075,-0.116504,9.79281,0.0676798,-0.582959,0.983173,-0.0065609,-0.00117492,0.0979279,1,4.99841e-05,-8.13707e-07,7.01457e-06,0.00999682,-0.000162741,0.00140291,0.999463,-0.00229693,0.0326785,0.00056216,0.0473062,0.522272,-0.975463,31.8125,1,57489,5811067
19,7,0.999463,-0.00229693,0.0326785,0.00056216,-0.656075,-0.116504,9.79281,0.0676798,-0.582959,0.983173,-0.0065609,-0.00117492,0.0979279,1,4.99841e-05,-8.13707e-07,7.01457e-06,0.00999682,-0.000162741,0.00140291,0.999463,-0.00229693,0.0326785,0.00056216,0.0473062,0.522272,-0.975463,31.8125,1,57489,5811067
19,8,0.999463,-0.00229693,0.0326785,0.00056216,-0.656075,-0.116504,9.79281,0.0676798,-0.582959,0.983173,-0.0065609,-0.00117492,0.0979279,1,4.99841e-05,-8.13707e-07,7.01457e-06,0.00999682,-0.000162741,0.00140291,0.999463,-0.00229693,0.0326785,0.00056216,0.0473062,0.522272,-0.975463,31.8125,1,57489,5811067
19,9,0.999463,-0.00224598,0.0326724,0.000573752,-0.642201,-0.103056,9.79181,0.0788307,-0.576079,0.981884,-0.00642324,-0.00104177,0.0979179,1,5.62202e-05,-6.47685e-06,1.56927e-05,0.011244,-0.00129537,0.00313854,0.999463,-0.00224598,0.0326724,0.000573752,0.0491367,0.524252,-0.977952,31.8125,1,57490,5811167
19,10,0.999463,-0.00224598,0.0326724,0.000573752,-0.642201,-0.103056,9.79181,0.0788307,-0.576079,0.981884,-0.00642324,-0.00104177,0.0979179,1,5.62202e-05,-6.47685e-06,1.56927e-05,0.011244,-0.00129537,0.00313854,0.999463,-0.00224598,0.0326724,0.000573752,0.0491367,0.524252,-0.977952,31.8125,1,57490,5811167
20,1,0.999463,-0.00224598,0.0326724,0.000573752,-0.642201,-0.103056,9.79181,0.0788307,-0.576079,0.981884,-0.00642324,-0.00104177,0.0979179,1,5.62202e-05,-6.47685e-06,1.56927e-05,0.011244,-0.00129537,0.00313854,0.999463,-0.00224598,0.0326724,0.000573752,0.0491367,0.524252,-0.977952,31.8125,1,57490,5811167
20,2,0.999464,-0.00221539,0.0326577,0.000574907,-0.648578,-0.101793,9.78712,0.0708865,-0.575631,0.973074,-0.00648863,-0.00102529,0.097871,1,3.72194e-05,-1.4618e-05,5.80203e-06,0.00744388,-0.00292359,0.00116041,0.999464,-0.00221539,0.0326577,0.000574907,0.0476725,0.523316,-0.979482,31.8125,1,57491,5811267
20,3,0.999464,-0.00221539,0.0326577,0.000574907,-0.648578,-0.101793,9.78712,0.0708865,-0.575631,0.973074,-0.00648863,-0.00102529,0.097871,1,3.72194e-05,-1.4618e-05,5.80203e-06,0.00744388,-0.00292359,0.00116041,0.999464,-0.00221539,0.0326577,0.000574907,0.0476725,0.523316,-0.979482,31.8125,1,57491,5811267
20,4,0.999464,-0.00221539,0.0326577,0.000574907,-0.648578,-0.101793,9.78712,0.0708865,-0.575631,0.973074,-0.00648863,-0.00102529,0.097871,1,3.72194e-05,-1.4618e-05,5.80203e-06,0.00744388,-0.00292359,0.00116041,0.999464,-0.00221539,0.0326577,0.000574907,0.0476725,0.523316,-0.979482,31.8125,1,57491,5811267
20,5,0.999465,-0.00218914,0.0326398,0.000585392,-0.636704,-0.0991135,9.79046,0.0840271,-0.567527,0.975793,-0.0063706,-0.000997816,0.0979043,1,3.32109e-05,-1.8323e-05,1.39641e-05,0.00664218,-0.0036646,0.00279283,0.999465,-0.00218914,0.0326398,0.000585392,0.0442758,0.522883,-0.980991,31.8125,1,57492,5811367
20,6,0.999465,-0.00218914,0.0326398,0.000585392,-0.636704,-0.0991135,9.79046,0.0840271,-0.567527,0.975793,-0.0063706,-0.000997816,0.0979043,1,3.32109e-05,-1.8323e-05,1.39641e-05,0.00664218,-0.0036646,0.00279283,0.999465,-0.00218914,0.0326398,0.000585392,0.0442758,0.522883,-0.980991,31.8125,1,57492,5811367
20,7,0.999465,-0.00218914,0.0326398,0.000585392,-0.636704,-0.0991135,9.79046,0.0840271,-0.567527,0.975793,-0.0063706,-0.000997816,0.0979043,1,3.32109e-05,-1.8323e-05,1.39641e-05,0.00664218,-0.0036646,0.00279283,0.999465,-0.00218914,0.0326398,0.000585392,0.0442758,0.522883,-0.980991,31.8125,1,57492,5811367
20,8,0.999465,-0.00215903,0.0326424,0.000587805,-0.64639,-0.103956,9.79691,0.0783264,-0.578171,0.989526,-0.00646336,-0.00104692,0.0979691,1,3.74876e-05,2.74559e-06,1.35434e-06,0.00749752,0.000549117,0.000270868,0.999465,-0.00215903,0.0326424,0.000587805,0.0448096,0.520431,-0.980543,31.8125,1,57493,5811467
20,9,0.999465,-0.00215903,0.0326424,0.000587805,-0.64639,-0.103956,9.79691,0.0783264,-0.578171,0.989526,-0.00646336,-0.00104692,0.0979691,1,3.74876e-05,2.74559e-06,1.35434e-06,0.00749752,0.000549117,0.000270868,0.999465,-0.00215903,0.0326424,0.000587805,0.0448096,0.520431,-0.980543,31.8125,1,57493,5811467
20,10,0.999465,-0.00215903,0.0326424,0.000587805,-0.64639,-0.103956,9.79691,0.0783264,-0.578171,0.989526,-0.00646336,-0.00104692,0.0979691,1,3.74876e-05,2.74559e-06,1.35434e-06,0.00749752,0.000549117,0.000270868,0.999465,-0.00215903,0.0326424,0.000587805,0.0448096,0.520431,-0.980543,31.8125,1,57493,5811467
21,1,0.999465,-0.00212772,0.0326382,0.000586631,-0.636521,-0.0986051,9.78536,0.0842081,-0.572103,0.97539,-0.00636609,-0.000993464,0.0978535,1,3.7916e-05,-4.49812e-06,-5.8861e-07,0.0075832,-0.000899624,-0.000117722,0.999465,-0.00212772,0.0326382,0.000586631,0.0463065,0.520862,-0.978015,31.8125,1,57494,5811567
21,2,0.999465,-0.00212772,0.0326382,0.000586631,-0.636521,-0.0986051,9.78536,0.0842081,-0.572103,0.97539,-0.00636609,-0.000993464,0.0978535,1,3.7916e-05,-4.49812e-06,-5.8861e-07,0.0075832,-0.000899624,-0.000117722,0.999465,-0.00212772,0.0326382,0.000586631,0.0463065,0.520862,-0.978015,31.8125,1,57494,5811567
21,3,0.999465,-0.00212772,0.0326382,0.000586631,-0.636521,-0.0986051,9.78536,0.0842081,-0.572103,0.97539,-0.00636609,-0.000993464,0.0978535,1,3.7916e-05,-4.49812e-06,-5.8861e-07,0.0075832,-0.000899624,-0.000117722,0.999465,-0.00212772,0.0326382,0.000586631,0.0463065,0.520862,-0.978015,31.8125,1,57494,5811567
21,4,0.999465,-0.002081,0.0326349,0.000590845,-0.646369,-0.1013,9.78609,0.0770605,-0.577721,0.976512,-0.00646428,-0.00102338,0.0978607,1,5.25601e-05,-3.07738e-06,7.3984e-06,0.010512,-0.000615475,0.00147968,0.999465,-0.002081,0.0326349,0.000590845,0.0467554,0.522809,-0.977974,31.8125,1,57495,5811667
21,5,0.999465,-0.002081,0.0326349,0.000590845,-0.646369,-0.1013,9.78609,0.0770605,-0.577721,0.976512,-0.00646428,-0.00102338,0.0978607,1,5.25601e-05,-3.07738e-06,7.3984e-06,0.010512,-0.000615475,0.00147968,0.999465,-0.002081,0.0326349,0.000590845,0.0467554,0.522809,-0.977974,31.8125,1,57495,5811667
21,6,0.999465,-0.002081,0.0326349,0.000590845,-0.646369,-0.1013,9.78609,0.0770605,-0.577721,0.976512,-0.00646428,-0.00102338,0.0978607,1,5.25601e-05,-3.07738e-06,7.3984e-06,0.010512,-0.000615475,0.00147968,0.999465,-0.002081,0.0326349,0.000590845,0.0467554,0.522809,-0.977974,31.8125,1,57495,5811667
21,7,0.999466,-0.0020501,0.0326136,0.000596334,-0.637388,-0.0997874,9.79012,0.0861761,-0.574511,0.980924,-0.00637804,-0.00100525,0.0979008,1,3.69345e-05,-2.13569e-05,1.09914e-05,0.0073869,-0.00427139,0.00219828,0.999466,-0.0020501,0.0326136,0.000596334,0.0476849,0.523307,-0.978977,31.8125,1,57496,5811767
21,8,0.999466,-0.0020501,0.0326136,0.000596334,-0.637388,-0.0997874,9.79012,0.0861761,-0.574511,0.980924,-0.00637804,-0.00100525,0.0979008,1,3.69345e-05,-2.13569e-05,1.09914e-05,0.0073869,-0.00427139,0.00219828,0.999466,-0.0020501,0.0326136,0.000596334,0.0476849,0.523307,-0.978977,31.8125,1,57496,5811767
21,9,0.999466,-0.0020501,0.0326136,0.000596334,-0.637388,-0.0997874,9.79012,0.0861761,-0.574511,0.980924,-0.00637804,-0.00100525,0.0979008,1,3.69345e-05,-2.13569e-05,1.09914e-05,0.0073869,-0.00427139,0.00219828,0.999466,-0.0020501,0.0326136,0.000596334,0.0476849,0.523307,-0.978977,31.8125,1,57496,5811767
21,10,0.999466,-0.00200855,0.0326124,0.000612205,-0.633469,-0.104632,9.78359,0.0859383,-0.579547,0.974659,-0.00633487,-0.00105638,0.0978357,1,5.00139e-05,-1.13623e-06,2.18786e-05,0.0100028,-0.000227246,0.00437572,0.999466,-0.00200855,0.0326124,0.000612205,0.0486756,0.522314,-0.978498,31.8125,1,57497,5811867
22,1,0.999466,-0.00200855,0.0326124,0.000612205,-0.633469,-0.104632,9.78359,0.0859383,-0.579547,0.974659,-0.00633487,-0.00105638,0.0978357,1,5.00139e-05,-1.13623e-06,2.18786e-05,0.0100028,-0.000227246,0.00437572,0.999466,-0.00200855,0.0326124,0.000612205,0.0486756,0.522314,-0.978498,31.8125,1,57497,5811867
22,2,0.999466,-0.00200855,0.0326124,0.000612205,-0.633469,-0.104632,9.78359,0.0859383,-0.579547,0.974659,-0.00633487,-0.00105638,0.0978357,1,5.00139e-05,-1.13623e-06,2.18786e-05,0.0100028,-0.000227246,0.00437572,0.999466,-0.00200855,0.0326124,0.000612205,0.0486756,0.522314,-0.978498,31.8125,1,57497,5811867
22,3,0.999466,-0.0019706,0.0326051,0.00061473,-0.64663,-0.101768,9.79117,0.0763061,-0.577141,0.978543,-0.00646786,-0.00102684,0.0979115,1,4.61601e-05,-8.04479e-06,9.83102e-06,0.00923201,-0.00160896,0.0019662,0.999466,-0.0019706,0.0326051,0.00061473,0.0476678,0.521392,-0.98104,31.8125,1,57498,5811967
22,4,0.999466,-0.0019706,0.0326051,0.00061473,-0.64663,-0.101768,9.79117,0.0763061,-0.577141,0.978543,-0.00646786,-0.00102684,0.0979115,1,4.61601e-05,-8.04479e-06,9.83102e-06,0.00923201,-0.00160896,0.0019662,0.999466,-0.0019706,0.0326051,0.00061473,0.0476678,0.521392,-0.98104,31.8125,1,57498,5811967
22,5,0.999466,-0.0019706,0.0326051,0.00061473,-0.64663,-0.101768,9.79117,0.0763061,-0.577141,0.978543,-0.00646786,-0.00102684,0.0979115,1,4.61601e-05,-8.04479e-06,9.83102e-06,0.00923201,-0.00160896,0.0019662,0.999466,-0.0019706,0.0326051,0.00061473,0.0476678,0.521392,-0.98104,31.8125,1,57498,5811967
22,6,0.999467,-0.00192115,0.0325856,0.000607655,-0.63492,-0.101464,9.7884,0.087291,-0.582141,0.980062,-0.00635311,-0.00102656,0.0978836,1,6.07949e-05,-2.00197e-05,1.28317e-06,0.012159,-0.00400394,0.000256633,0.999467,-0.00192115,0.0325856,0.000607655,0.0467587,0.520397,-0.979542,31.8125,1,57499,5812067
22,7,0.999467,-0.00192115,0.0325856,0.000607655,-0.63492,-0.101464,9.7884,0.087291,-0.582141,0.980062,-0.00635311,-0.00102656,0.0978836,1,6.07949e-05,-2.00197e-05,1.28317e-06,0.012159,-0.00400394,0.000256633,0.999467,-0.00192115,0.0325856,0.000607655,0.0467587,0.520397,-0.979542,31.8125,1,57499,5812067
22,8,0.999467,-0.00192115,0.0325856,0.000607655,-0.63492,-0.101464,9.7884,0.087291,-0.582141,0.980062,-0.00635311,-0.00102656,0.0978836,1,6.07949e-05,-2.00197e-05,1.28317e-06,0.012159,-0.00400394,0.000256633,0.999467,-0.00192115,0.0325856,0.000607655,0.0467587,0.520397,-0.979542,31.8125,1,57499,5812067
22,9,0.999467,-0.00188513,0.0325687,0.000637813,-0.640409,-0.106618,9.78872,0.0830305,-0.584273,0.979573,-0.00640742,-0.00107499,0.0978869,1,4.28614e-05,-1.73731e-05,3.25775e-05,0.00857227,-0.00347462,0.0065155,0.999467,-0.00188513,0.0325687,0.000637813,0.0458582,0.52036,-0.977014,31.8125,1,57500,5812167
22,10,0.999467,-0.00188513,0.0325687,0.000637813,-0.640409,-0.106618,9.78872,0.0830305,-0.584273,0.979573,-0.00640742,-0.00107499,0.0978869,1,4.28614e-05,-1.73731e-05,3.25775e-05,0.00857227,-0.00347462,0.0065155,0.999467,-0.00188513,0.0325687,0.000637813,0.0458582,0.52036,-0.977014,31.8125,1,57500,5812167
23,1,0.999467,-0.00188513,0.0325687,0.000637813,-0.640409,-0.106618,9.78872,0.0830305,-0.584273,0.979573,-0.00640742,-0.00107499,0.0978869,1,4.28614e-05,-1.73731e-05,3.25775e-05,0.00857227,-0.00347462,0.0065155,0.999467,-0.00188513,0.0325687,0.000637813,0.0458582,0.52036,-0.977014,31.8125,1,57500,5812167
23,2,0.999468,-0.0018315,0.0325495,0.000657023,-0.642005,-0.11387,9.79444,0.0789466,-0.590882,0.985244,-0.0064238,-0.00114988,0.097944,1,5.59296e-05,-1.93154e-05,1.73359e-05,0.0111859,-0.00386307,0.00346719,0.999468,-0.0018315,0.0325495,0.000657023,0.0473509,0.520312,-0.975001,31.8125,1,57501,5812267
23,3,0.999468,-0.0018315,0.0325495,0.000657023,-0.642005,-0.11387,9.79444,0.0789466,-0.590882,0.985244,-0.0064238,-0.00114988,0.097944,1,5.59296e-05,-1.93154e-05,1.73359e-05,0.0111859,-0.00386307,0.00346719,0.999468,-0.0018315,0.0325495,0.000657023,0.0473509,0.520312,-0.975001,31.8125,1,57501,5812267
23,4,0.999468,-0.0018315,0.0325495,0.000657023,-0.642005,-0.11387,9.79444,0.0789466,-0.590882,0.985244,-0.0064238,-0.00114988,0.097944,1,5.59296e-05,-1.93154e-05,1.73359e-05,0.0111859,-0.00386307,0.00346719,0.999468,-0.0018315,0.0325495,0.000657023,0.0473509,0.520312,-0.975001,31.8125,1,57501,5812267
23,5,0.999469,-0.00178872,0.0325328,0.000661266,-0.633117,-0.109316,9.79883,0.0868426,-0.585869,0.987139,-0.00633447,-0.00110168,0.097988,1,4.28221e-05,-1.69616e-05,1.07603e-05,0.00856442,-0.00339232,0.00215205,0.999469,-0.00178872,0.0325328,0.000661266,0.0482234,0.522779,-0.976971,31.8125,1,57502,5812367
23,6,0.999469,-0.00178872,0.0325328,0.000661266,-0.633117,-0.109316,9.79883,0.0868426,-0.585869,0.987139,-0.00633447,-0.00110168,0.097988,1,4.28221e-05,-1.69616e-05,1.07603e-05,0.00856442,-0.00339232,0.00215205,0.999469,-0.00178872,0.0325328,0.000661266,0.0482234,0.522779,-0.976971,31.8125,1,57502,5812367
23,7,0.999469,-0.00178872,0.0325328,0.000661266,-0.633117,-0.109316,9.79883,0.0868426,-0.585869,0.987139,-0.00633447,-0.00110168,0.097988,1,4.28221e-05,-1.69616e-05,1.07603e-05,0.00856442,-0.00339232,0.00215205,0.999469,-0.00178872,0.0325328,0.000661266,0.0482234,0.522779,-0.976971,31.8125,1,57502,5812367
23,8,0.999469,-0.00175015,0.0325184,0.000661593,-0.639117,-0.10346,9.79586,0.0844699,-0.584617,0.983067,-0.00639405,-0.001044,0.0979583,1,4.71285e-05,-1.48398e-05,1.32922e-05,0.0094257,-0.00296797,0.00265843,0.999469,-0.00175015,0.0325184,0.000661593,0.0486348,0.523308,-0.979486,31.8125,1,57503,5812467
23,9,0.999469,-0.00175015,0.0325184,0.000661593,-0.639117,-0.10346,9.79586,0.0844699,-0.584617,0.983067,-0.00639405,-0.001044,0.0979583,1,4.71285e-05,-1.48398e-05,1.32922e-05,0.0094257,-0.00296797,0.00265843,0.999469,-0.00175015,0.0325184,0.000661593,0.0486348,0.523308,-0.979486,31.8125,1,57503,5812467
23,10,0.999469,-0.00175015,0.0325184,0.000661593,-0.639117,-0.10346,9.79586,0.0844699,-0.584617,0.983067,-0.00639405,-0.001044,0.0979583,1,4.71285e-05,-1.48398e-05,1.32922e-05,0.0094257,-0.00296797,0.00265843,0.999469,-0.00175015,0.0325184,0.000661593,0.0486348,0.523308,-0.979486,31.8125,1,57503,5812467
24,1,0.99947,-0.00171999,0.0325104,0.000661138,-0.639772,-0.103129,9.79213,0.0779403,-0.581419,0.982146,-0.00639913,-0.00104034,0.0979211,1,4.52177e-05,-7.35169e-06,1.49885e-05,0.00904354,-0.00147034,0.00299769,0.99947,-0.00171999,0.0325104,0.000661138,0.0481285,0.521885,-0.981536,31.8125,1,57504,5812567
24,2,0.99947,-0.00171999,0.0325104,0.000661138,-0.639772,-0.103129,9.79213,0.0779403,-0.581419,0.982146,-0.00639913,-0.00104034,0.0979211,1,4.52177e-05,-7.35169e-06,1.49885e-05,0.00904354,-0.00147034,0.00299769,0.99947,-0.00171999,0.0325104,0.000661138,0.0481285,0.521885,-0.981536,31.8125,1,57504,5812567
24,3,0.99947,-0.00171999,0.0325104,0.000661138,-0.639772,-0.103129,9.79213,0.0779403,-0.581419,0.982146,-0.00639913,-0.00104034,0.0979211,1,4.52177e-05,-7.35169e-06,1.49885e-05,0.00904354,-0.00147034,0.00299769,0.99947,-0.00171999,0.0325104,0.000661138,0.0481285,0.521885,-0.981536,31.8125,1,57504,5812567
24,4,0.99947,-0.00168431,0.0325072,0.000662672,-0.644544,-0.10689,9.80096,0.0833656,-0.588673,0.987408,-0.00644581,-0.00107963,0.0980094,1,5.4013e-05,-2.02471e-06,1.16564e-05,0.0108026,-0.000404943,0.00233128,0.99947,-0.00168431,0.0325072,0.000662672,0.0477129,0.520877,-0.979536,31.8125,1,57505,5812667
24,5,0.99947,-0.00168431,0.0325072,0.000662672,-0.644544,-0.10689,9.80096,0.0833656,-0.588673,0.987408,-0.00644581,-0.00107963,0.0980094,1,5.4013e-05,-2.02471e-06,1.16564e-05,0.0108026,-0.000404943,0.00233128,0.99947,-0.00168431,0.0325072,0.000662672,0.0477129,0.520877,-0.979536,31.8125,1,57505,5812667
24,6,0.99947,-0.00168431,0.0325072,0.000662672,-0.644544,-0.10689,9.80096,0.0833656,-0.588673,0.987408,-0.00644581,-0.00107963,0.0980094,1,5.4013e-05,-2.02471e-06,1.16564e-05,0.0108026,-0.000404943,0.00233128,0.99947,-0.00168431,0.0325072,0.000662672,0.0477129,0.520877,-0.979536,31.8125,1,57505,5812667
24,7,0.99947,-0.00164599,0.0324997,0.000655555,-0.648339,-0.102757,9.7905,0.0748423,-0.585304,0.976022,-0.00648488,-0.00103756,0.0979048,1,5.08297e-05,-7.65749e-06,2.2948e-06,0.0101659,-0.0015315,0.00045896,0.99947,-0.00164599,0.0324997,0.000655555,0.047795,0.520335,-0.976518,31.8125,1,57506,5812767
24,8,0.99947,-0.00164599,0.0324997,0.000655555,-0.648339,-0.102757,9.7905,0.0748423,-0.585304,0.976022,-0.00648488,-0.00103756,0.0979048,1,5.08297e-05,-7.65749e-06,2.2948e-06,0.0101659,-0.0015315,0.00045896,0.99947,-0.00164599,0.0324997,0.000655555,0.047795,0.520335,-0.976518,31.8125,1,57506,5812767
24,9,0.99947,-0.00164599,0.0324997,0.000655555,-0.648339,-0.102757,9.7905,0.0748423,-0.585304,0.976022,-0.00648488,-0.00103756,0.0979048,1,5.08297e-05,-7.65749e-06,2.2948e-06,0.0101659,-0.0015315,0.00045896,0.99947,-0.00164599,0.0324997,0.000655555,0.047795,0.520335,-0.976518,31.8125,1,57506,5812767
24,10,0.999471,-0.00159882,0.0324818,0.00068052,-0.64503,-0.114783,9.79344,0.0708195,-0.59885,0.984065,-0.00645396,-0.00115768,0.097934,1,4.84361e-05,-1.90199e-05,2.86176e-05,0.00968722,-0.00380398,0.00572352,0.999471,-0.00159882,0.0324818,0.00068052,0.0477954,0.52178,-0.975476,31.8125,1,57507,5812867
25,1,0.999471,-0.00159882,0.0324818,0.00068052,-0.64503,-0.114783,9.79344,0.0708195,-0.59885,0.984065,-0.00645396,-0.00115768,0.097934,1,4.84361e-05,-1.90199e-05,2.86176e-05,0.00968722,-0.00380398,0.00572352,0.999471,-0.00159882,0.0324818,0.00068052,0.0477954,0.52178,-0.975476,31.8125,1,57507,5812867
25,2,0.999471,-0.00159882,0.0324818,0.00068052,-0.64503,-0.114783,9.79344,0.0708195,-0.59885,0.984065,-0.00645396,-0.00115768,0.097934,1,4.84361e-05,-1.90199e-05,2.86176e-05,0.00968722,-0.00380398,0.00572352,0.999471,-0.00159882,0.0324818,0.00068052,0.0477954,0.52178,-0.975476,31.8125,1,57507,5812867
25,3,0.999471,-0.00155916,0.0324842,0.000689652,-0.642321,-0.0982948,9.78371,0.0764914,-0.585532,0.973208,-0.00642305,-0.000991323,0.097837,1,4.13527e-05,5.77202e-07,2.20777e-05,0.00827054,0.00011544,0.00441553,0.999471,-0.00155916,0.0324842,0.000689652,0.0472042,0.524756,-0.977932,31.8125,1,57508,5812967
25,4,0.999471,-0.00155916,0.0324842,0.000689652,-0.642321,-0.0982948,9.78371,0.0764914,-0.585532,0.973208,-0.00642305,-0.000991323,0.097837,1,4.13527e-05,5.77202e-07,2.20777e-05,0.00827054,0.00011544,0.00441553,0.999471,-0.00155916,0.0324842,0.000689652,0.0472042,0.524756,-0.977932,31.8125,1,57508,5812967
25,5,0.999471,-0.00155916,0.0324842,0.000689652,-0.642321,-0.0982948,9.78371,0.0764914,-0.585532,0.973208,-0.00642305,-0.000991323,0.097837,1,4.13527e-05,5.77202e-07,2.20777e-05,0.00827054,0.00011544,0.00441553,0.999471,-0.00155916,0.0324842,0.000689652,0.0472042,0.524756,-0.977932,31.8125,1,57508,5812967
25,6,0.999471,-0.00151989,0.0324771,0.000674071,-0.640718,-0.0964795,9.78133,0.074455,-0.580036,0.967105,-0.00640775,-0.000975164,0.0978132,1,5.26961e-05,-2.96877e-06,4.69779e-06,0.0105392,-0.000593755,0.000939559,0.999471,-0.00151989,0.0324771,0.000674071,0.0481294,0.524775,-0.979451,31.8125,1,57509,5813067
25,7,0.999471,-0.00151989,0.0324771,0.000674071,-0.640718,-0.0964795,9.78133,0.074455,-0.580036,0.967105,-0.00640775,-0.000975164,0.0978132,1,5.26961e-05,-2.96877e-06,4.69779e-06,0.0105392,-0.000593755,0.000939559,0.999471,-0.00151989,0.0324771,0.000674071,0.0481294,0.524775,-0.979451,31.8125,1,57509,5813067
25,8,0.999471,-0.00151989,0.0324771,0.000674071,-0.640718,-0.0964795,9.78133,0.074455,-0.580036,0.967105,-0.00640775,-0.000975164,0.0978132,1,5.26961e-05,-2.96877e-06,4.69779e-06,0.0105392,-0.000593755,0.000939559,0.999471,-0.00151989,0.0324771,0.000674071,0.0481294,0.524775,-0.979451,31.8125,1,57509,5813067
25,9,0.999472,-0.00149597,0.0324593,0.000658037,-0.638493,-0.0954543,9.78303,0.0788286,-0.58092,0.972253,-0.00638744,-0.000963897,0.0978301,1,4.66221e-05,-1.3005e-05,1.82053e-05,0.00932442,-0.002601,0.00364107,0.999472,-0.00149597,0.0324593,0.000658037,0.0471829,0.522362,-0.980511,31.8125,1,57510,5813167
25,10,0.999472,-0.00149597,0.0324593,0.000658037,-0.638493,-0.0954543,9.78303,0.0788286,-0.58092,0.972253,-0.00638744,-0.000963897,0.0978301,1,4.66221e-05,-1.3005e-05,1.82053e-05,0.00932442,-0.002601,0.00364107,0.999472,-0.00149597,0.0324593,0.000658037,0.0471829,0.522362,-0.980511,31.8125,1,57510,5813167
26,1,0.999472,-0.00147475,0.0324565,0.000659005,-0.656923,-0.101496,9.79056,0.0644158,-0.584077,0.976211,-0.00656883,-0.00102344,0.0979055,1,4.20865e-05,1.80865e-06,1.87363e-05,0.0084173,0.00036173,0.00374725,0.999472,-0.00147475,0.0324565,0.000659005,0.046298,0.519905,-0.979046,31.8125,1,57511,5813267
26,2,0.999472,-0.00147475,0.0324565,0.000659005,-0.656923,-0.101496,9.79056,0.0644158,-0.584077,0.976211,-0.00656883,-0.00102344,0.0979055,1,4.20865e-05,1.80865e-06,1.87363e-05,0.0084173,0.00036173,0.00374725,0.999472,-0.00147475,0.0324565,0.000659005,0.046298,0.519905,-0.979046,31.8125,1,57511,5813267
26,3,0.999472,-0.00147475,0.0324565,0.000659005,-0.656923,-0.101496,9.79056,0.0644158,-0.584077,0.976211,-0.00656883,-0.00102344,0.0979055,1,4.20865e-05,1.80865e-06,1.87363e-05,0.0084173,0.00036173,0.00374725,0.999472,-0.00147475,0.0324565,0.000659005,0.046298,0.519905,-0.979046,31.8125,1,57511,5813267
26,4,0.999472,-0.00144365,0.032438,0.000685034,-0.644126,-0.104519,9.78876,0.0711967,-0.593137,0.979697,-0.00644517,-0.00105256,0.0978873,1,3.72529e-05,-2.00328e-05,6.01831e-06,0.00745057,-0.00400655,0.00120366,0.999472,-0.00144365,0.032438,0.000685034,0.0453609,0.52134,-0.97699,31.8125,1,57512,5813367
26,5,0.999472,-0.00144365,0.032438,0.000685034,-0.644126,-0.104519,9.78876,0.0711967,-0.593137,0.979697,-0.00644517,-0.00105256,0.0978873,1,3.72529e-05,-2.00328e-05,6.01831e-06,0.00745057,-0.00400655,0.00120366,0.999472,-0.00144365,0.032438,0.000685034,0.0453609,0.52134,-0.97699,31.8125,1,57512,5813367
26,6,0.999472,-0.00144365,0.032438,0.000685034,-0.644126,-0.104519,9.78876,0.0711967,-0.593137,0.979697,-0.00644517,-0.00105256,0.0978873,1,3.72529e-05,-2.00328e-05,6.01831e-06,0.00745057,-0.00400655,0.00120366,0.999472,-0.00144365,0.032438,0.000685034,0.0453609,0.52134,-0.97699,31.8125,1,57512,5813367
26,7,0.999473,-0.00139374,0.032431,0.000715272,-0.64396,-0.0996477,9.79219,0.0724942,-0.588775,0.984133,-0.00644105,-0.00100637,0.0979217,1,4.95165e-05,-7.56785e-06,1.55477e-05,0.0099033,-0.00151357,0.00310954,0.999473,-0.00139374,0.032431,0.000715272,0.0472982,0.52276,-0.975452,31.8125,1,57513,5813467
26,8,0.999473,-0.00139374,0.032431,0.000715272,-0.64396,-0.0996477,9.79219,0.0724942,-0.588775,0.984133,-0.00644105,-0.00100637,0.0979217,1,4.95165e-05,-7.56785e-06,1.55477e-05,0.0099033,-0.00151357,0.00310954,0.999473,-0.00139374,0.032431,0.000715272,0.0472982,0.52276,-0.975452,31.8125,1,57513,5813467
26,9,0.999473,-0.00139374,0.032431,0.000715272,-0.64396,-0.0996477,9.79219,0.0724942,-0.588775,0.984133,-0.00644105,-0.00100637,0.0979217,1,4.95165e-05,-7.56785e-06,1.55477e-05,0.0099033,-0.00151357,0.00310954,0.999473,-0.00139374,0.032431,0.000715272,0.0472982,0.52276,-0.975452,31.8125,1,57513,5813467
26,10,0.999473,-0.00133731,0.032427,0.000717149,-0.64354,-0.102259,9.79387,0.0759168,-0.588878,0.981743,-0.0064363,-0.00103399,0.0979385,1,5.70734e-05,-4.77916e-06,1.68512e-05,0.0114147,-0.000955831,0.00337024,0.999473,-0.00133731,0.032427,0.000717149,0.0477304,0.524237,-0.976431,31.8125,1,57514,5813567
27,1,0.999473,-0.00133731,0.032427,0.000717149,-0.64354,-0.102259,9.79387,0.0759168,-0.588878,0.981743,-0.0064363,-0.00103399,0.0979385,1,5.70734e-05,-4.77916e-06,1.68512e-05,0.0114147,-0.000955831,0.00337024,0.999473,-0.00133731,0.032427,0.000717149,0.0477304,0.524237,-0.976431,31.8125,1,57514,5813567
27,2,0.999473,-0.00133731,0.032427,0.000717149,-0.64354,-0.102259,9.79387,0.0759168,-0.588878,0.981743,-0.0064363,-0.00103399,0.0979385,1,5.70734e-05,-4.77916e-06,1.68512e-05,0.0114147,-0.000955831,0.00337024,0.999473,-0.00133731,0.032427,0.000717149,0.0477304,0.524237,-0.976431,31.8125,1,57514,5813567
27,3,0.999474,-0.00130556,0.0324047,0.000688274,-0.650944,-0.0980785,9.78955,0.0678269,-0.587906,0.977919,-0.00651343,-0.000989107,0.0978951,1,4.2094e-05,-2.03996e-05,6.16153e-06,0.00841879,-0.00407993,0.00123231,0.999474,-0.00130556,0.0324047,0.000688274,0.0471914,0.52332,-0.979479,31.8125,1,57515,5813667
27,4,0.999474,-0.00130556,0.0324047,0.000688274,-0.650944,-0.0980785,9.78955,0.0678269,-0.587906,0.977919,-0.00651343,-0.000989107,0.0978951,1,4.2094e-05,-2.03996e-05,6.16153e-06,0.00841879,-0.00407993,0.00123231,0.999474,-0.00130556,0.0324047,0.000688274,0.0471914,0.52332,-0.979479,31.8125,1,57515,5813667
27,5,0.999474,-0.00130556,0.0324047,0.000688274,-0.650944,-0.0980785,9.78955,0.0678269,-0.587906,0.977919,-0.00651343,-0.000989107,0.0978951,1,4.2094e-05,-2.03996e-05,6.16153e-06,0.00841879,-0.00407993,0.00123231,0.999474,-0.00130556,0.0324047,0.000688274,0.0471914,0.52332,-0.979479,31.8125,1,57515,5813667
27,6,0.999474,-0.0012791,0.0323945,0.000667863,-0.648704,-0.106605,9.79283,0.0656172,-0.599945,0.985856,-0.00648791,-0.00107583,0.0979282,1,4.91961e-05,-4.55998e-06,1.09116e-05,0.00983922,-0.000911997,0.00218231,0.999474,-0.0012791,0.0323945,0.000667863,0.047199,0.521387,-0.980532,31.8125,1,57516,5813767
27,7,0.999474,-0.0012791,0.0323945,0.000667863,-0.648704,-0.106605,9.79283,0.0656172,-0.599945,0.985856,-0.00648791,-0.00107583,0.0979282,1,4.91961e-05,-4.55998e-06,1.09116e-05,0.00983922,-0.000911997,0.00218231,0.999474,-0.0012791,0.0323945,0.000667863,0.047199,0.521387,-0.980532,31.8125,1,57516,5813767
27,8,0.999474,-0.0012791,0.0323945,0.000667863,-0.648704,-0.106605,9.79283,0.0656172,-0.599945,0.985856,-0.00648791,-0.00107583,0.0979282,1,4.91961e-05,-4.55998e-06,1.09116e-05,0.00983922,-0.000911997,0.00218231,0.999474,-0.0012791,0.0323945,0.000667863,0.047199,0.521387,-0.980532,31.8125,1,57516,5813767
27,9,0.999475,-0.00124793,0.0323798,0.000658308,-0.644198,-0.0961902,9.79325,0.068486,-0.58697,0.977346,-0.00644411,-0.000972858,0.0979322,1,5.57062e-05,-1.09372e-05,3.48656e-06,0.0111412,-0.00218744,0.000697311,0.999475,-0.00124793,0.0323798,0.000658308,0.0467749,0.519422,-0.979564,31.8125,1,57517,5813867
27,10,0.999475,-0.00124793,0.0323798,0.000658308,-0.644198,-0.0961902,9.79325,0.068486,-0.58697,0.977346,-0.00644411,-0.000972858,0.0979322,1,5.57062e-05,-1.09372e-05,3.48656e-06,0.0111412,-0.00218744,0.000697311,0.999475,-0.00124793,0.0323798,0.000658308,0.0467749,0.519422,-0.979564,31.8125,1,57517,5813867
28,1,0.999475,-0.00124793,0.0323798,0.000658308,-0.644198,-0.0961902,9.79325,0.068486,-0.58697,0.977346,-0.00644411,-0.000972858,0.0979322,1,5.57062e-05,-1.09372e-05,3.48656e-06,0.0111412,-0.00218744,0.000697311,0.999475,-0.00124793,0.0323798,0.000658308,0.0467749,0.519422,-0.979564,31.8125,1,57517,5813867
28,2,0.999475,-0.00121578,0.0323707,0.000697649,-0.645199,-0.106258,9.79452,0.0719997,-0.598841,0.98658,-0.00645436,-0.0010711,0.0979449,1,4.22522e-05,-1.23139e-05,1.83974e-05,0.00845044,-0.00246278,0.00367949,0.999475,-0.00121578,0.0323707,0.000697649,0.0448793,0.519899,-0.97803,31.8125,1,57518,5813967
28,3,0.999475,-0.00121578,0.0323707,0.000697649,-0.645199,-0.106258,9.79452,0.0719997,-0.598841,0.98658,-0.00645436,-0.0010711,0.0979449,1,4.22522e-05,-1.23139e-05,1.83974e-05,0.00845044,-0.00246278,0.00367949,0.999475,-0.00121578,0.0323707,0.000697649,0.0448793,0.519899,-0.97803,31.8125,1,57518,5813967
28,4,0.999475,-0.00121578,0.0323707,0.000697649,-0.645199,-0.106258,9.79452,0.0719997,-0.598841,0.98658,-0.00645436,-0.0010711,0.0979449,1,4.22522e-05,-1.23139e-05,1.83974e-05,0.00845044,-0.00246278,0.00367949,0.999475,-0.00121578,0.0323707,0.000697649,0.0448793,0.519899,-0.97803,31.8125,1,57518,5813967
28,5,0.999475,-0.00117655,0.0323607,0.000750635,-0.640763,-0.106212,9.79144,0.0760076,-0.60168,0.974263,-0.00640977,-0.00106964,0.0979142,1,3.79663e-05,-1.09949e-05,6.64959e-06,0.00759327,-0.00219899,0.00132992,0.999475,-0.00117655,0.0323607,0.000750635,0.0462989,0.522795,-0.976962,31.8125,1,57519,5814067
28,6,0.999475,-0.00117655,0.0323607,0.000750635,-0.640763,-0.106212,9.79144,0.0760076,-0.60168,0.974263,-0.00640977,-0.00106964,0.0979142,1,3.79663e-05,-1.09949e-05,6.64959e-06,0.00759327,-0.00219899,0.00132992,0.999475,-0.00117655,0.0323607,0.000750635,0.0462989,0.522795,-0.976962,31.8125,1,57519,5814067
28,7,0.999475,-0.00117655,0.0323607,0.000750635,-0.640763,-0.106212,9.79144,0.0760076,-0.60168,0.974263,-0.00640977,-0.00106964,0.0979142,1,3.79663e-05,-1.09949e-05,6.64959e-06,0.00759327,-0.00219899,0.00132992,0.999475,-0.00117655,0.0323607,0.000750635,0.0462989,0.522795,-0.976962,31.8125,1,57519,5814067
28,8,0.999476,-0.0011401,0.0323494,0.000761177,-0.633634,-0.106837,9.79477,0.0879663,-0.597301,0.980947,-0.0063387,-0.0010772,0.0979475,1,4.41037e-05,-1.21928e-05,1.50279e-05,0.00882074,-0.00243857,0.00300559,0.999476,-0.0011401,0.0323494,0.000761177,0.0467188,0.524281,-0.978446,31.8125,1,57520,5814167
28,9,0.999476,-0.0011401,0.0323494,0.000761177,-0.633634,-0.106837,9.79477,0.0879663,-0.597301,0.980947,-0.0063387,-0.0010772,0.0979475,1,4.41037e-05,-1.21928e-05,1.50279e-05,0.00882074,-0.00243857,0.00300559,0.999476,-0.0011401,0.0323494,0.000761177,0.0467188,0.524281,-0.978446,31.8125,1,57520,5814167
28,10,0.999476,-0.0011401,0.0323494,0.000761177,-0.633634,-0.106837,9.79477,0.0879663,-0.597301,0.980947,-0.0063387,-0.0010772,0.0979475,1,4.41037e-05,-1.21928e-05,1.50279e-05,0.00882074,-0.00243857,0.00300559,0.999476,-0.0011401,0.0323494,0.000761177,0.0467188,0.524281,-0.978446,31.8125,1,57520,5814167
28,11,0.999476,-0.00111977,0.0323467,0.000728045,-0.648176,-0.0972534,9.78341,0.0713479,-0.590631,0.971698,-0.0064819,-0.000981372,0.097834,1,4.5659e-05,-6.27919e-07,-7.43371e-06,0.0091318,-0.000125584,-0.00148674,0.999476,-0.00111977,0.0323467,0.000728045,0.0467022,0.523812,-0.979466,31.8125,1,57521,5814267
28,12,0.999476,-0.00111977,0.0323467,0.000728045,-0.648176,-0.0972534,9.78341,0.0713479,-0.590631,0.971698,-0.0064819,-0.000981372,0.097834,1,4.5659e-05,-6.27919e-07,-7.43371e-06,0.0091318,-0.000125584,-0.00148674,0.999476,-0.00111977,0.0323467,0.000728045,0.0467022,0.523812,-0.979466,31.8125,1,57521,5814267
28,13,0.999476,-0.00111977,0.0323467,0.000728045,-0.648176,-0.0972534,9.78341,0.0713479,-0.590631,0.971698,-0.0064819,-0.000981372,0.097834,1,4.5659e-05,-6.27919e-07,-7.43371e-06,0.0091318,-0.000125584,-0.00148674,0.999476,-0.00111977,0.0323467,0.000728045,0.0467022,0.523812,-0.979466,31.8125,1,57521,5814267
28,14,0.999476,-0.00110248,0.0323326,0.000718215,-0.641513,-0.105126,9.78365,0.0743535,-0.606935,0.973135,-0.00641723,-0.00106062,0.0978362,1,4.62179e-05,-1.10158e-05,2.43595e-05,0.00924357,-0.00220316,0.0048719,0.999476,-0.00110248,0.0323326,0.000718215,0.0471952,0.522353,-0.980006,31.8125,1,57522,5814367
28,15,0.999476,-0.00110248,0.0323326,0.000718215,-0.641513,-0.105126,9.78365,0.0743535,-0.606935,0.973135,-0.00641723,-0.00106062,0.0978362,1,4.62179e-05,-1.10158e-05,2.43595e-05,0.00924357,-0.00220316,0.0048719,0.999476,-0.00110248,0.0323326,0.000718215,0.0471952,0.522353,-0.980006,31.8125,1,57522,5814367
28,16,0.999476,-0.00110248,0.0323326,0.000718215,-0.641513,-0.105126,9.78365,0.0743535,-0.606935,0.973135,-0.00641723,-0.00106062,0.0978362,1,4.62179e-05,-1.10158e-05,2.43595e-05,0.00924357,-0.00220316,0.0048719,0.999476,-0.00110248,0.0323326,0.000718215,0.0471952,0.522353,-0.980006,31.8125,1,57522,5814367
29,1,0.999477,-0.00109072,0.0323109,0.000711178,-0.642378,-0.100416,9.79659,0.0750026,-0.595105,0.988661,-0.00642736,-0.00101258,0.0979656,1,4.1498e-05,-1.84718e-05,2.26031e-05,0.00829959,-0.00369436,0.00452062,0.999477,-0.00109072,0.0323109,0.000711178,0.0467834,0.520379,-0.978533,31.8125,1,57523,5814467
29,2,0.999477,-0.00109072,0.0323109,0.000711178,-0.642378,-0.100416,9.79659,0.0750026,-0.595105,0.988661,-0.00642736,-0.00101258,0.0979656,1,4.1498e-05,-1.84718e-05,2.26031e-05,0.00829959,-0.00369436,0.00452062,0.999477,-0.00109072,0.0323109,0.000711178,0.0467834,0.520379,-0.978533,31.8125,1,57523,5814467
29,3,0.999477,-0.00109072,0.0323109,0.000711178,-0.642378,-0.100416,9.79659,0.0750026,-0.595105,0.988661,-0.00642736,-0.00101258,0.0979656,1,4.1498e-05,-1.84718e-05,2.26031e-05,0.00829959,-0.00369436,0.00452062,0.999477,-0.00109072,0.0323109,0.000711178,0.0467834,0.520379,-0.978533,31.8125,1,57523,5814467
29,4,0.999477,-0.00105683,0.0323013,0.000735932,-0.644593,-0.0989905,9.78915,0.073451,-0.593699,0.980451,-0.00644839,-0.000998355,0.0978912,1,4.17587e-05,-1.27978e-05,2.13367e-05,0.00835174,-0.00255957,0.00426734,0.999477,-0.00105683,0.0323013,0.000735932,0.0453813,0.520843,-0.976496,31.8125,1,57524,5814567
29,5,0.999477,-0.00105683,0.0323013,0.000735932,-0.644593,-0.0989905,9.78915,0.073451,-0.593699,0.980451,-0.00644839,-0.000998355,0.0978912,1,4.17587e-05,-1.27978e-05,2.13367e-05,0.00835174,-0.00255957,0.00426734,0.999477,-0.00105683,0.0323013,0.000735932,0.0453813,0.520843,-0.976496,31.8125,1,57524,5814567
29,6,0.999477,-0.00105683,0.0323013,0.000735932,-0.644593,-0.0989905,9.78915,0.073451,-0.593699,0.980451,-0.00644839,-0.000998355,0.0978912,1,4.17587e-05,-1.27978e-05,2.13367e-05,0.00835174,-0.00255957,0.00426734,0.999477,-0.00105683,0.0323013,0.000735932,0.0453813,0.520843,-0.976496,31.8125,1,57524,5814567
29,7,0.999477,-0.00101177,0.0323011,0.000774699,-0.637867,-0.0996814,9.78434,0.0766043,-0.598649,0.970752,-0.00637948,-0.00100405,0.0978433,1,3.60105e-05,-4.2617e-06,1.45323e-05,0.00720211,-0.00085234,0.00290646,0.999477,-0.00101177,0.0323011,0.000774699,0.0473062,0.522272,-0.975463,31.8125,1,57525,5814667
29,8,0.999477,-0.00101177,0.0323011,0.000774699,-0.637867,-0.0996814,9.78434,0.0766043,-0.598649,0.970752,-0.00637948,-0.00100405,0.0978433,1,3.60105e-05,-4.2617e-06,1.45323e-05,0.00720211,-0.00085234,0.00290646,0.999477,-0.00101177,0.0323011,0.000774699,0.0473062,0.522272,-0.975463,31.8125,1,57525,5814667
29,9,0.999477,-0.00101177,0.0323011,0.000774699,-0.637867,-0.0996814,9.78434,0.0766043,-0.598649,0.970752,-0.00637948,-0.00100405,0.0978433,1,3.60105e-05,-4.2617e-06,1.45323e-05,0.00720211,-0.00085234,0.00290646,0.999477,-0.00101177,0.0323011,0.000774699,0.0473062,0.522272,-0.975463,31.8125,1,57525,5814667
29,10,0.999478,-0.000969196,0.0322827,0.000778544,-0.643736,-0.108247,9.78466,0.0672945,-0.605376,0.968866,-0.00644166,-0.00109079,0.0978463,1,4.04681e-05,-2.23087e-05,3.15773e-05,0.00809361,-0.00446175,0.00631545,0.999478,-0.000969196,0.0322827,0.000778544,0.0486594,0.52329,-0.978477,31.8125,1,57526,5814767
30,1,0.999478,-0.000969196,0.0322827,0.000778544,-0.643736,-0.108247,9.78466,0.0672945,-0.605376,0.968866,-0.00644166,-0.00109079,0.0978463,1,4.04681e-05,-2.23087e-05,3.15773e-05,0.00809361,-0.00446175,0.00631545,0.999478,-0.000969196,0.0322827,0.000778544,0.0486594,0.52329,-0.978477,31.8125,1,57526,5814767
30,2,0.999478,-0.000969196,0.0322827,0.000778544,-0.643736,-0.108247,9.78466,0.0672945,-0.605376,0.968866,-0.00644166,-0.00109079,0.0978463,1,4.04681e-05,-2.23087e-05,3.15773e-05,0.00809361,-0.00446175,0.00631545,0.999478,-0.000969196,0.0322827,0.000778544,0.0486594,0.52329,-0.978477,31.8125,1,57526,5814767
30,3,0.999478,-0.000942617,0.0322731,0.000735484,-0.636775,-0.0991465,9.79113,0.0762354,-0.595174,0.974493,-0.00636953,-0.00100234,0.0979111,1,5.41862e-05,-9.24943e-06,2.05058e-05,0.0108372,-0.00184989,0.00410117,0.999478,-0.000942617,0.0322731,0.000735484,0.0471791,0.523329,-0.979984,31.8125,1,57527,5814867
30,4,0.999478,-0.000942617,0.0322731,0.000735484,-0.636775,-0.0991465,9.79113,0.0762354,-0.595174,0.974493,-0.00636953,-0.00100234,0.0979111,1,5.41862e-05,-9.24943e-06,2.05058e-05,0.0108372,-0.00184989,0.00410117,0.999478,-0.000942617,0.0322731,0.000735484,0.0471791,0.523329,-0.979984,31.8125,1,57527,5814867
30,5,0.999478,-0.000942617,0.0322731,0.000735484,-0.636775,-0.0991465,9.79113,0.0762354,-0.595174,0.974493,-0.00636953,-0.00100234,0.0979111,1,5.41862e-05,-9.24943e-06,2.05058e-05,0.0108372,-0.00184989,0.00410117,0.999478,-0.000942617,0.0322731,0.000735484,0.0471791,0.523329,-0.979984,31.8125,1,57527,5814867
30,6,0.999479,-0.000941952,0.0322494,0.000697856,-0.644739,-0.115472,9.79444,0.0668957,-0.613305,0.983357,-0.00645046,-0.00116261,0.0979441,1,3.90206e-05,-1.58825e-05,1.90345e-05,0.00780412,-0.00317651,0.0038069,0.999479,-0.000941952,0.0322494,0.000697856,0.0466899,0.523821,-0.979971,31.8125,1,57528,5814967
30,7,0.999479,-0.000941952,0.0322494,0.000697856,-0.644739,-0.115472,9.79444,0.0668957,-0.613305,0.983357,-0.00645046,-0.00116261,0.0979441,1,3.90206e-05,-1.58825e-05,1.90345e-05,0.00780412,-0.00317651,0.0038069,0.999479,-0.000941952,0.0322494,0.000697856,0.0466899,0.523821,-0.979971,31.8125,1,57528,5814967
30,8,0.999479,-0.000941952,0.0322494,0.000697856,-0.644739,-0.115472,9.79444,0.0668957,-0.613305,0.983357,-0.00645046,-0.00116261,0.0979441,1,3.90206e-05,-1.58825e-05,1.90345e-05,0.00780412,-0.00317651,0.0038069,0.999479,-0.000941952,0.0322494,0.000697856,0.0466899,0.523821,-0.979971,31.8125,1,57528,5814967
30,9,0.99948,-0.000937232,0.0322241,0.000647239,-0.635095,-0.098259,9.78773,0.0809527,-0.596044,0.974693,-0.00635326,-0.0009912,0.0978771,1,4.28651e-05,-1.19729e-05,1.71699e-05,0.00857302,-0.00239459,0.00343398,0.99948,-0.000937232,0.0322241,0.000647239,0.0462534,0.521865,-0.979507,31.8125,1,57529,5815067
30,10,0.99948,-0.000937232,0.0322241,0.000647239,-0.635095,-0.098259,9.78773,0.0809527,-0.596044,0.974693,-0.00635326,-0.0009912,0.0978771,1,4.28651e-05,-1.19729e-05,1.71699e-05,0.00857302,-0.00239459,0.00343398,0.99948,-0.000937232,0.0322241,0.000647239,0.0462534,0.521865,-0.979507,31.8125,1,57529,5815067
31,1,0.99948,-0.000937232,0.0322241,0.000647239,-0.635095,-0.098259,9.78773,0.0809527,-0.596044,0.974693,-0.00635326,-0.0009912,0.0978771,1,4.28651e-05,-1.19729e-05,1.71699e-05,0.00857302,-0.00239459,0.00343398,0.99948,-0.000937232,0.0322241,0.000647239,0.0462534,0.521865,-0.979507,31.8125,1,57529,5815067
31,2,0.99948,-0.000904285,0.032214,0.000635915,-0.646785,-0.0876145,9.79197,0.0663657,-0.589189,0.980908,-0.0064686,-0.000887424,0.0979196,1,5.67101e-05,-3.94672e-06,1.34241e-05,0.011342,-0.000789345,0.00268482,0.99948,-0.000904285,0.032214,0.000635915,0.045842,0.521336,-0.976992,31.8125,1,57530,5815167
31,3,0.99948,-0.000904285,0.032214,0.000635915,-0.646785,-0.0876145,9.79197,0.0663657,-0.589189,0.980908,-0.0064686,-0.000887424,0.0979196,1,5.67101e-05,-3.94672e-06,1.34241e-05,0.011342,-0.000789345,0.00268482,0.99948,-0.000904285,0.032214,0.000635915,0.045842,0.521336,-0.976992,31.8125,1,57530,5815167
31,4,0.99948,-0.000904285,0.032214,0.000635915,-0.646785,-0.0876145,9.79197,0.0663657,-0.589189,0.980908,-0.0064686,-0.000887424,0.0979196,1,5.67101e-05,-3.94672e-06,1.34241e-05,0.011342,-0.000789345,0.00268482,0.99948,-0.000904285,0.032214,0.000635915,0.045842,0.521336,-0.976992,31.8125,1,57530,5815167
31,5,0.99948,-0.000865741,0.0322118,0.000663165,-0.643036,-0.109102,9.79686,0.0727652,-0.609995,0.984963,-0.00643178,-0.00109751,0.0979684,1,3.18086e-05,-7.46542e-06,2.03417e-05,0.00636172,-0.00149308,0.00406833,0.99948,-0.000865741,0.0322118,0.000663165,0.0468455,0.521779,-0.974966,31.8125,1,57531,5815267
31,6,0.99948,-0.000865741,0.0322118,0.000663165,-0.643036,-0.109102,9.79686,0.0727652,-0.609995,0.984963,-0.00643178,-0.00109751,0.0979684,1,3.18086e-05,-7.46542e-06,2.03417e-05,0.00636172,-0.00149308,0.00406833,0.99948,-0.000865741,0.0322118,0.000663165,0.0468455,0.521779,-0.974966,31.8125,1,57531,5815267
31,7,0.99948,-0.000865741,0.0322118,0.000663165,-0.643036,-0.109102,9.79686,0.0727652,-0.609995,0.984963,-0.00643178,-0.00109751,0.0979684,1,3.18086e-05,-7.46542e-06,2.03417e-05,0.00636172,-0.00149308,0.00406833,0.99948,-0.000865741,0.0322118,0.000663165,0.0468455,0.521779,-0.974966,31.8125,1,57531,5815267
31,8,0.999481,-0.00079907,0.0322117,0.000631295,-0.652348,-0.101478,9.79529,0.0649477,-0.602991,0.982867,-0.00652557,-0.00102494,0.0979526,1,5.17014e-05,-1.07216e-05,2.68581e-06,0.0103403,-0.00214431,0.000537163,0.999481,-0.00079907,0.0322117,0.000631295,0.047738,0.522304,-0.977484,31.8125,1,57532,5815367
31,9,0.999481,-0.00079907,0.0322117,0.000631295,-0.652348,-0.101478,9.79529,0.0649477,-0.602991,0.982867,-0.00652557,-0.00102494,0.0979526,1,5.17014e-05,-1.07216e-05,2.68581e-06,0.0103403,-0.00214431,0.000537163,0.999481,-0.00079907,0.0322117,0.000631295,0.047738,0.522304,-0.977484,31.8125,1,57532,5815367
31,10,0.999481,-0.00079907,0.0322117,0.000631295,-0.652348,-0.101478,9.79529,0.0649477,-0.602991,0.982867,-0.00652557,-0.00102494,0.0979526,1,5.17014e-05,-1.07216e-05,2.68581e-06,0.0103403,-0.00214431,0.000537163,0.999481,-0.00079907,0.0322117,0.000631295,0.047738,0.522304,-0.977484,31.8125,1,57532,5815367
32,1,0.999481,-0.000769374,0.0321976,0.000582719,-0.638463,-0.101652,9.78976,0.0728464,-0.603913,0.981017,-0.00638711,-0.00102646,0.0978974,1,4.92557e-05,-1.2927e-05,2.2866e-05,0.00985114,-0.00258541,0.00457319,0.999481,-0.000769374,0.0321976,0.000582719,0.0481451,0.522354,-0.980515,31.8125,1,57533,5815467
32,2,0.999481,-0.000769374,0.0321976,0.000582719,-0.638463,-0.101652,9.78976,0.0728464,-0.603913,0.981017,-0.00638711,-0.00102646,0.0978974,1,4.92557e-05,-1.2927e-05,2.2866e-05,0.00985114,-0.00258541,0.00457319,0.999481,-0.000769374,0.0321976,0.000582719,0.0481451,0.522354,-0.980515,31.8125,1,57533,5815467
32,3,0.999481,-0.000769374,0.0321976,0.000582719,-0.638463,-0.101652,9.78976,0.0728464,-0.603913,0.981017,-0.00638711,-0.00102646,0.0978974,1,4.92557e-05,-1.2927e-05,2.2866e-05,0.00985114,-0.00258541,0.00457319,0.999481,-0.000769374,0.0321976,0.000582719,0.0481451,0.522354,-0.980515,31.8125,1,57533,5815467
32,4,0.999481,-0.000790059,0.0321867,0.000512445,-0.644263,-0.108394,9.79177,0.0704348,-0.610419,0.979597,-0.00644242,-0.00108999,0.0979177,1,2.9482e-05,8.34406e-07,2.14762e-05,0.0058964,0.000166881,0.00429525,0.999481,-0.000790059,0.0321867,0.000512445,0.0471625,0.522859,-0.981005,31.8125,1,57534,5815567
32,5,0.999481,-0.000790059,0.0321867,0.000512445,-0.644263,-0.108394,9.79177,0.0704348,-0.610419,0.979597,-0.00644242,-0.00108999,0.0979177,1,2.9482e-05,8.34406e-07,2.14762e-05,0.0058964,0.000166881,0.00429525,0.999481,-0.000790059,0.0321867,0.000512445,0.0471625,0.522859,-0.981005,31.8125,1,57534,5815567
32,6,0.999481,-0.000790059,0.0321867,0.000512445,-0.644263,-0.108394,9.79177,0.0704348,-0.610419,0.979597,-0.00644242,-0.00108999,0.0979177,1,2.9482e-05,8.34406e-07,2.14762e-05,0.0058964,0.000166881,0.00429525,0.999481,-0.000790059,0.0321867,0.000512445,0.0471625,0.522859,-0.981005,31.8125,1,57534,5815567
32,7,0.999483,-0.000808851,0.032153,0.000424775,-0.653433,-0.099494,9.78751,0.0584995,-0.604743,0.975095,-0.00653614,-0.00100174,0.0978749,1,3.3185e-05,-9.48242e-06,2.30986e-05,0.006637,-0.00189648,0.00461971,0.999483,-0.000808851,0.032153,0.000424775,0.0467506,0.520885,-0.979531,31.8125,1,57535,5815667
32,8,0.999483,-0.000808851,0.032153,0.000424775,-0.653433,-0.099494,9.78751,0.0584995,-0.604743,0.975095,-0.00653614,-0.00100174,0.0978749,1,3.3185e-05,-9.48242e-06,2.30986e-05,0.006637,-0.00189648,0.00461971,0.999483,-0.000808851,0.032153,0.000424775,0.0467506,0.520885,-0.979531,31.8125,1,57535,5815667
32,9,0.999483,-0.000808851,0.032153,0.000424775,-0.653433,-0.099494,9.78751,0.0584995,-0.604743,0.975095,-0.00653614,-0.00100174,0.0978749,1,3.3185e-05,-9.48242e-06,2.30986e-05,0.006637,-0.00189648,0.00461971,0.999483,-0.000808851,0.032153,0.000424775,0.0467506,0.520885,-0.979531,31.8125,1,57535,5815667
32,10,0.999483,-0.00078767,0.0321495,0.000419864,-0.64838,-0.103822,9.78743,0.0622601,-0.607769,0.972176,-0.00648444,-0.00104688,0.0978742,1,4.38467e-05,-3.366e-06,6.51554e-06,0.00876933,-0.0006732,0.00130311,0.999483,-0.00078767,0.0321495,0.000419864,0.0467834,0.520379,-0.978533,31.8125,1,57536,5815767
33,1,0.999483,-0.00078767,0.0321495,0.000419864,-0.64838,-0.103822,9.78743,0.0622601,-0.607769,0.972176,-0.00648444,-0.00104688,0.0978742,1,4.38467e-05,-3.366e-06,6.51554e-06,0.00876933,-0.0006732,0.00130311,0.999483,-0.00078767,0.0321495,0.000419864,0.0467834,0.520379,-0.978533,31.8125,1,57536,5815767
33,2,0.999483,-0.00078767,0.0321495,0.000419864,-0.64838,-0.103822,9.78743,0.0622601,-0.607769,0.972176,-0.00648444,-0.00104688,0.0978742,1,4.38467e-05,-3.366e-06,6.51554e-06,0.00876933,-0.0006732,0.00130311,0.999483,-0.00078767,0.0321495,0.000419864,0.0467834,0.520379,-0.978533,31.8125,1,57536,5815767
33,3,0.999483,-0.000751254,0.032151,0.000447977,-0.647718,-0.0970184,9.78511,0.0610352,-0.598198,0.974092,-0.00647883,-0.000979204,0.0978509,1,4.5199e-05,-8.54947e-06,1.35134e-05,0.0090398,-0.00170989,0.00270267,0.999483,-0.000751254,0.032151,0.000447977,0.0467838,0.521825,-0.97749,31.8125,1,57537,5815867
33,4,0.999483,-0.000751254,0.032151,0.000447977,-0.647718,-0.0970184,9.78511,0.0610352,-0.598198,0.974092,-0.00647883,-0.000979204,0.0978509,1,4.5199e-05,-8.54947e-06,1.35134e-05,0.0090398,-0.00170989,0.00270267,0.999483,-0.000751254,0.032151,0.000447977,0.0467838,0.521825,-0.97749,31.8125,1,57537,5815867
33,5,0.999483,-0.000751254,0.032151,0.000447977,-0.647718,-0.0970184,9.78511,0.0610352,-0.598198,0.974092,-0.00647883,-0.000979204,0.0978509,1,4.5199e-05,-8.54947e-06,1.35134e-05,0.0090398,-0.00170989,0.00270267,0.999483,-0.000751254,0.032151,0.000447977,0.0467838,0.521825,-0.97749,31.8125,1,57537,5815867
33,6,0.999483,-0.000730692,0.0321529,0.000394901,-0.640311,-0.101463,9.78774,0.0706235,-0.608406,0.974641,-0.00640311,-0.00102041,0.0978773,1,2.90796e-05,-8.18474e-08,6.25299e-06,0.00581592,-1.63695e-05,0.0012506,0.999483,-0.000730692,0.0321529,0.000394901,0.0462742,0.522813,-0.977971,31.8125,1,57538,5815967
33,7,0.999483,-0.000730692,0.0321529,0.000394901,-0.640311,-0.101463,9.78774,0.0706235,-0.608406,0.974641,-0.00640311,-0.00102041,0.0978773,1,2.90796e-05,-8.18474e-08,6.25299e-06,0.00581592,-1.63695e-05,0.0012506,0.999483,-0.000730692,0.0321529,0.000394901,0.0462742,0.522813,-0.977971,31.8125,1,57538,5815967
33,8,0.999483,-0.000730692,0.0321529,0.000394901,-0.640311,-0.101463,9.78774,0.0706235,-0.608406,0.974641,-0.00640311,-0.00102041,0.0978773,1,2.90796e-05,-8.18474e-08,6.25299e-06,0.00581592,-1.63695e-05,0.0012506,0.999483,-0.000730692,0.0321529,0.000394901,0.0462742,0.522813,-0.977971,31.8125,1,57538,5815967
33,9,0.999484,-0.000701478,0.032127,0.000305384,-0.642871,-0.0942327,9.78647,0.0689438,-0.599342,0.976039,-0.0064316,-0.00095158,0.0978644,1,4.68138e-05,-1.48083e-05,6.99212e-06,0.00936276,-0.00296167,0.00139842,0.999484,-0.000701478,0.032127,0.000305384,0.0462211,0.523816,-0.979464,31.8125,1,57539,5816067
33,10,0.999484,-0.000701478,0.032127,0.000305384,-0.642871,-0.0942327,9.78647,0.0689438,-0.599342,0.976039,-0.0064316,-0.00095158,0.0978644,1,4.68138e-05,-1.48083e-05,6.99212e-06,0.00936276,-0.00296167,0.00139842,0.999484,-0.000701478,0.032127,0.000305384,0.0462211,0.523816,-0.979464,31.8125,1,57539,5816067
34,1,0.999484,-0.000701478,0.032127,0.000305384,-0.642871,-0.0942327,9.78647,0.0689438,-0.599342,0.976039,-0.0064316,-0.00095158,0.0978644,1,4.68138e-05,-1.48083e-05,6.99212e-06,0.00936276,-0.00296167,0.00139842,0.999484,-0.000701478,0.032127,0.000305384,0.0462211,0.523816,-0.979464,31.8125,1,57539,5816067
34,2,0.999485,-0.00068675,0.0320872,0.000156779,-0.643131,-0.109886,9.79244,0.0661121,-0.618323,0.984343,-0.00643278,-0.00110964,0.0979242,1,5.35735e-05,-7.73149e-06,2.23236e-05,0.0107147,-0.0015463,0.00446472,0.999485,-0.00068675,0.0320872,0.000156779,0.0457191,0.522871,-0.980998,31.8125,1,57540,5816167
34,3,0.999485,-0.00068675,0.0320872,0.000156779,-0.643131,-0.109886,9.79244,0.0661121,-0.618323,0.984343,-0.00643278,-0.00110964,0.0979242,1,5.35735e-05,-7.73149e-06,2.23236e-05,0.0107147,-0.0015463,0.00446472,0.999485,-0.00068675,0.0320872,0.000156779,0.0457191,0.522871,-0.980998,31.8125,1,57540,5816167
34,4,0.999485,-0.00068675,0.0320872,0.000156779,-0.643131,-0.109886,9.79244,0.0661121,-0.618323,0.984343,-0.00643278,-0.00110964,0.0979242,1,5.35735e-05,-7.73149e-06,2.23236e-05,0.0107147,-0.0015463,0.00446472,0.999485,-0.00068675,0.0320872,0.000156779,0.0457191,0.522871,-0.980998,31.8125,1,57540,5816167
34,5,0.999486,-0.000682997,0.0320442,3.54906e-05,-0.64096,-0.103007,9.7901,0.0657448,-0.610804,0.979756,-0.00640962,-0.00103935,0.0979009,1,4.60185e-05,-3.46316e-07,2.04315e-05,0.00920369,-6.92632e-05,0.00408629,0.999486,-0.000682997,0.0320442,3.54906e-05,0.045805,0.521363,-0.978506,31.8125,1,57541,5816267
34,6,0.999486,-0.000682997,0.0320442,3.54906e-05,-0.64096,-0.103007,9.7901,0.0657448,-0.610804,0.979756,-0.00640962,-0.00103935,0.0979009,1,4.60185e-05,-3.46316e-07,2.04315e-05,0.00920369,-6.92632e-05,0.00408629,0.999486,-0.000682997,0.0320442,3.54906e-05,0.045805,0.521363,-0.978506,31.8125,1,57541,5816267
34,7,0.999486,-0.000682997,0.0320442,3.54906e-05,-0.64096,-0.103007,9.7901,0.0657448,-0.610804,0.979756,-0.00640962,-0.00103935,0.0979009,1,4.60185e-05,-3.46316e-07,2.04315e-05,0.00920369,-6.92632e-05,0.00408629,0.999486,-0.000682997,0.0320442,3.54906e-05,0.045805,0.521363,-0.978506,31.8125,1,57541,5816267
34,8,0.999486,-0.000637257,0.0320439,1.37232e-05,-0.637432,-0.105795,9.7921,0.0658003,-0.607116,0.980993,-0.00637467,-0.00106743,0.0979208,1,4.80265e-05,-1.87556e-06,5.70879e-06,0.00960529,-0.000375111,0.00114176,0.999486,-0.000637257,0.0320439,1.37232e-05,0.044876,0.52231,-0.976461,31.8125,1,57542,5816367
34,9,0.999486,-0.000637257,0.0320439,1.37232e-05,-0.637432,-0.105795,9.7921,0.0658003,-0.607116,0.980993,-0.00637467,-0.00106743,0.0979208,1,4.80265e-05,-1.87556e-06,5.70879e-06,0.00960529,-0.000375111,0.00114176,0.999486,-0.000637257,0.0320439,1.37232e-05,0.044876,0.52231,-0.976461,31.8125,1,57542,5816367
34,10,0.999486,-0.000637257,0.0320439,1.37232e-05,-0.637432,-0.105795,9.7921,0.0658003,-0.607116,0.980993,-0.00637467,-0.00106743,0.0979208,1,4.80265e-05,-1.87556e-06,5.70879e-06,0.00960529,-0.000375111,0.00114176,0.999486,-0.000637257,0.0320439,1.37232e-05,0.044876,0.52231,-0.976461,31.8125,1,57542,5816367
35,1,0.999486,-0.000562233,0.0320486,-4.00429e-05,-0.636695,-0.0906927,9.78407,0.0688143,-0.595322,0.970503,-0.00636735,-0.000917068,0.0978406,1,5.04794e-05,-2.24684e-06,2.06384e-05,0.0100959,-0.000449369,0.00412768,0.999486,-0.000562233,0.0320486,-4.00429e-05,0.045871,0.521796,-0.975467,31.8125,1,57543,5816467
35,2,0.999486,-0.000562233,0.0320486,-4.00429e-05,-0.636695,-0.0906927,9.78407,0.0688143,-0.595322,0.970503,-0.00636735,-0.000917068,0.0978406,1,5.04794e-05,-2.24684e-06,2.06384e-05,0.0100959,-0.000449369,0.00412768,0.999486,-0.000562233,0.0320486,-4.00429e-05,0.045871,0.521796,-0.975467,31.8125,1,57543,5816467
35,3,0.999486,-0.000562233,0.0320486,-4.00429e-05,-0.636695,-0.0906927,9.78407,0.0688143,-0.595322,0.970503,-0.00636735,-0.000917068,0.0978406,1,5.04794e-05,-2.24684e-06,2.06384e-05,0.0100959,-0.000449369,0.00412768,0.999486,-0.000562233,0.0320486,-4.00429e-05,0.045871,0.521796,-0.975467,31.8125,1,57543,5816467
35,4,0.999486,-0.000496681,0.0320629,-0.000104905,-0.648237,-0.104122,9.78947,0.0580218,-0.609902,0.976672,-0.00648448,-0.00105095,0.0978945,1,4.92669e-05,-1.08336e-05,6.77413e-06,0.00985338,-0.00216672,0.00135483,0.999486,-0.000496681,0.0320629,-0.000104905,0.0467639,0.523767,-0.976942,31.8125,1,57544,5816567
35,5,0.999486,-0.000496681,0.0320629,-0.000104905,-0.648237,-0.104122,9.78947,0.0580218,-0.609902,0.976672,-0.00648448,-0.00105095,0.0978945,1,4.92669e-05,-1.08336e-05,6.77413e-06,0.00985338,-0.00216672,0.00135483,0.999486,-0.000496681,0.0320629,-0.000104905,0.0467639,0.523767,-0.976942,31.8125,1,57544,5816567
35,6,0.999486,-0.000496681,0.0320629,-0.000104905,-0.648237,-0.104122,9.78947,0.0580218,-0.609902,0.976672,-0.00648448,-0.00105095,0.0978945,1,4.92669e-05,-1.08336e-05,6.77413e-06,0.00985338,-0.00216672,0.00135483,0.999486,-0.000496681,0.0320629,-0.000104905,0.0467639,0.523767,-0.976942,31.8125,1,57544,5816567
35,7,0.999487,-0.000477209,0.0320289,-0.000366691,-0.642969,-0.0944462,9.77934,0.0626118,-0.60198,0.964063,-0.00643224,-0.000953205,0.0977931,1,4.34425e-05,-1.31873e-05,1.912e-05,0.0086885,-0.00263745,0.003824,0.999487,-0.000477209,0.0320289,-0.000366691,0.0481171,0.524784,-0.979956,31.8125,1,57545,5816667
35,8,0.999487,-0.000477209,0.0320289,-0.000366691,-0.642969,-0.0944462,9.77934,0.0626118,-0.60198,0.964063,-0.00643224,-0.000953205,0.0977931,1,4.34425e-05,-1.31873e-05,1.912e-05,0.0086885,-0.00263745,0.003824,0.999487,-0.000477209,0.0320289,-0.000366691,0.0481171,0.524784,-0.979956,31.8125,1,57545,5816667
35,9,0.999487,-0.000477209,0.0320289,-0.000366691,-0.642969,-0.0944462,9.77934,0.0626118,-0.60198,0.964063,-0.00643224,-0.000953205,0.0977931,1,4.34425e-05,-1.31873e-05,1.912e-05,0.0086885,-0.00263745,0.003824,0.999487,-0.000477209,0.0320289,-0.000366691,0.0481171,0.524784,-0.979956,31.8125,1,57545,5816667
35,10,0.999489,-0.000523857,0.0319417,-0.000865409,-0.642589,-0.104914,9.78806,0.064018,-0.615845,0.975806,-0.00642815,-0.00105586,0.0978804,1,3.41851e-05,-1.15688e-05,2.40862e-06,0.00683702,-0.00231377,0.000481724,0.999489,-0.000523857,0.0319417,-0.000865409,0.0485854,0.523344,-0.981506,31.8125,1,57546,5816767
36,1,0.999489,-0.000523857,0.0319417,-0.000865409,-0.642589,-0.104914,9.78806,0.064018,-0.615845,0.975806,-0.00642815,-0.00105586,0.0978804,1,3.41851e-05,-1.15688e-05,2.40862e-06,0.00683702,-0.00231377,0.000481724,0.999489,-0.000523857,0.0319417,-0.000865409,0.0485854,0.523344,-0.981506,31.8125,1,57546,5816767
36,2,0.999489,-0.000523857,0.0319417,-0.000865409,-0.642589,-0.104914,9.78806,0.064018,-0.615845,0.975806,-0.00642815,-0.00105586,0.0978804,1,3.41851e-05,-1.15688e-05,2.40862e-06,0.00683702,-0.00231377,0.000481724,0.999489,-0.000523857,0.0319417,-0.000865409,0.0485854,0.523344,-0.981506,31.8125,1,57546,5816767
36,3,0.999491,-0.000587234,0.0318544,-0.00131528,-0.647091,-0.0980112,9.79358,0.0570935,-0.608191,0.97955,-0.00647038,-0.00098882,0.0979357,1,4.3828e-05,2.59648e-06,9.49764e-06,0.00876561,0.000519297,0.00189953,0.999491,-0.000587234,0.0318544,-0.00131528,0.0477456,0.520371,-0.978537,31.8125,1,57547,5816867
36,4,0.999491,-0.000587234,0.0318544,-0.00131528,-0.647091,-0.0980112,9.79358,0.0570935,-0.608191,0.97955,-0.00647038,-0.00098882,0.0979357,1,4.3828e-05,2.59648e-06,9.49764e-06,0.00876561,0.000519297,0.00189953,0.999491,-0.000587234,0.0318544,-0.00131528,0.0477456,0.520371,-0.978537,31.8125,1,57547,5816867
36,5,0.999491,-0.000587234,0.0318544,-0.00131528,-0.647091,-0.0980112,9.79358,0.0570935,-0.608191,0.97955,-0.00647038,-0.00098882,0.0979357,1,4.3828e-05,2.59648e-06,9.49764e-06,0.00876561,0.000519297,0.00189953,0.999491,-0.000587234,0.0318544,-0.00131528,0.0477456,0.520371,-0.978537,31.8125,1,57547,5816867
36,6,0.999491,-0.000567992,0.0318758,-0.00118782,-0.64278,-0.104792,9.7891,0.0589536,-0.609908,0.977431,-0.0064332,-0.00105762,0.0978905,1,4.76538e-05,-2.78912e-05,2.90633e-05,0.00953075,-0.00557824,0.00581266,0.999491,-0.000567992,0.0318758,-0.00118782,0.0459194,0.51887,-0.975532,31.8125,1,57548,5816967
36,7,0.999491,-0.000567992,0.0318758,-0.00118782,-0.64278,-0.104792,9.7891,0.0589536,-0.609908,0.977431,-0.0064332,-0.00105762,0.0978905,1,4.76538e-05,-2.78912e-05,2.90633e-05,0.00953075,-0.00557824,0.00581266,0.999491,-0.000567992,0.0318758,-0.00118782,0.0459194,0.51887,-0.975532,31.8125,1,57548,5816967
36,8,0.999491,-0.000567992,0.0318758,-0.00118782,-0.64278,-0.104792,9.7891,0.0589536,-0.609908,0.977431,-0.0064332,-0.00105762,0.0978905,1,4.76538e-05,-2.78912e-05,2.90633e-05,0.00953075,-0.00557824,0.00581266,0.999491,-0.000567992,0.0318758,-0.00118782,0.0459194,0.51887,-0.975532,31.8125,1,57548,5816967
36,9,0.999488,-0.000477717,0.0319821,-0.000788487,-0.640802,-0.107303,9.78973,0.0593144,-0.615367,0.974368,-0.00641026,-0.0010788,0.0978971,1,2.7906e-05,-1.17163e-05,2.44045e-05,0.0055812,-0.00234325,0.00488089,0.999488,-0.000477717,0.0319821,-0.000788487,0.0454387,0.520319,-0.974487,31.8125,1,57549,5817067
36,10,0.999488,-0.000477717,0.0319821,-0.000788487,-0.640802,-0.107303,9.78973,0.0593144,-0.615367,0.974368,-0.00641026,-0.0010788,0.0978971,1,2.7906e-05,-1.17163e-05,2.44045e-05,0.0055812,-0.00234325,0.00488089,0.999488,-0.000477717,0.0319821,-0.000788487,0.0454387,0.520319,-0.974487,31.8125,1,57549,5817067
37,1,0.999488,-0.000477717,0.0319821,-0.000788487,-0.640802,-0.107303,9.78973,0.0593144,-0.615367,0.974368,-0.00641026,-0.0010788,0.0978971,1,2.7906e-05,-1.17163e-05,2.44045e-05,0.0055812,-0.00234325,0.00488089,0.999488,-0.000477717,0.0319821,-0.000788487,0.0454387,0.520319,-0.974487,31.8125,1,57549,5817067
37,2,0.999487,-0.000396578,0.0320165,-0.000712872,-0.643148,-0.106516,9.7884,0.0616792,-0.619179,0.973361,-0.00643338,-0.00107376,0.0978838,1,4.30961e-05,-9.85879e-06,1.24479e-05,0.00861922,-0.00197176,0.00248958,0.999487,-0.000396578,0.0320165,-0.000712872,0.0457974,0.523296,-0.977453,31.8125,1,57550,5817167
37,3,0.999487,-0.000396578,0.0320165,-0.000712872,-0.643148,-0.106516,9.7884,0.0616792,-0.619179,0.973361,-0.00643338,-0.00107376,0.0978838,1,4.30961e-05,-9.85879e-06,1.24479e-05,0.00861922,-0.00197176,0.00248958,0.999487,-0.000396578,0.0320165,-0.000712872,0.0457974,0.523296,-0.977453,31.8125,1,57550,5817167
37,4,0.999487,-0.000396578,0.0320165,-0.000712872,-0.643148,-0.106516,9.7884,0.0616792,-0.619179,0.973361,-0.00643338,-0.00107376,0.0978838,1,4.30961e-05,-9.85879e-06,1.24479e-05,0.00861922,-0.00197176,0.00248958,0.999487,-0.000396578,0.0320165,-0.000712872,0.0457974,0.523296,-0.977453,31.8125,1,57550,5817167
37,5,0.999488,-0.000376505,0.0319649,-0.000886318,-0.634955,-0.101349,9.78296,0.071169,-0.616264,0.969819,-0.00635445,-0.00102118,0.0978292,1,3.83315e-05,-2.52388e-05,1.48005e-05,0.00766629,-0.00504775,0.0029601,0.999488,-0.000376505,0.0319649,-0.000886318,0.0471421,0.523356,-0.981499,31.8125,1,57551,5817267
37,6,0.999488,-0.000376505,0.0319649,-0.000886318,-0.634955,-0.101349,9.78296,0.071169,-0.616264,0.969819,-0.00635445,-0.00102118,0.0978292,1,3.83315e-05,-2.52388e-05,1.48005e-05,0.00766629,-0.00504775,0.0029601,0.999488,-0.000376505,0.0319649,-0.000886318,0.0471421,0.523356,-0.981499,31.8125,1,57551,5817267
37,7,0.999488,-0.000376505,0.0319649,-0.000886318,-0.634955,-0.101349,9.78296,0.071169,-0.616264,0.969819,-0.00635445,-0.00102118,0.0978292,1,3.83315e-05,-2.52388e-05,1.48005e-05,0.00766629,-0.00504775,0.0029601,0.999488,-0.000376505,0.0319649,-0.000886318,0.0471421,0.523356,-0.981499,31.8125,1,57551,5817267
37,8,0.99949,-0.000395015,0.0319047,-0.00110479,-0.640888,-0.0982333,9.78167,0.0622659,-0.613868,0.964985,-0.00641046,-0.00099109,0.0978165,1,4.37443e-05,-8.25504e-06,1.5551e-05,0.00874886,-0.00165101,0.0031102,0.99949,-0.000395015,0.0319047,-0.00110479,0.0471582,0.52238,-0.98152,31.8125,1,57552,5817367
37,9,0.99949,-0.000395015,0.0319047,-0.00110479,-0.640888,-0.0982333,9.78167,0.0622659,-0.613868,0.964985,-0.00641046,-0.00099109,0.0978165,1,4.37443e-05,-8.25504e-06,1.5551e-05,0.00874886,-0.00165101,0.0031102,0.99949,-0.000395015,0.0319047,-0.00110479,0.0471582,0.52238,-0.98152,31.8125,1,57552,5817367
37,10,0.99949,-0.000395015,0.0319047,-0.00110479,-0.640888,-0.0982333,9.78167,0.0622659,-0.613868,0.964985,-0.00641046,-0.00099109,0.0978165,1,4.37443e-05,-8.25504e-06,1.5551e-05,0.00874886,-0.00165101,0.0031102,0.99949,-0.000395015,0.0319047,-0.00110479,0.0471582,0.52238,-0.98152,31.8125,1,57552,5817367
37,11,0.999492,-0.000397707,0.0318425,-0.00125577,-0.637407,-0.0994656,9.78774,0.061556,-0.610338,0.975079,-0.00637822,-0.00100567,0.0978771,1,5.55478e-05,-2.13141e-05,1.08502e-05,0.0111096,-0.00426281,0.00217005,0.999492,-0.000397707,0.0318425,-0.00125577,0.0462781,0.521847,-0.978498,31.8125,1,57553,5817467
37,12,0.999492,-0.000397707,0.0318425,-0.00125577,-0.637407,-0.0994656,9.78774,0.061556,-0.610338,0.975079,-0.00637822,-0.00100567,0.0978771,1,5.55478e-05,-2.13141e-05,1.08502e-05,0.0111096,-0.00426281,0.00217005,0.999492,-0.000397707,0.0318425,-0.00125577,0.0462781,0.521847,-0.978498,31.8125,1,57553,5817467
37,13,0.999492,-0.000397707,0.0318425,-0.00125577,-0.637407,-0.0994656,9.78774,0.061556,-0.610338,0.975079,-0.00637822,-0.00100567,0.0978771,1,5.55478e-05,-2.13141e-05,1.08502e-05,0.0111096,-0.00426281,0.00217005,0.999492,-0.000397707,0.0318425,-0.00125577,0.0462781,0.521847,-0.978498,31.8125,1,57553,5817467
37,14,0.999492,-0.000373137,0.0318332,-0.00132251,-0.652416,-0.104241,9.78746,0.0492585,-0.613185,0.973003,-0.00652598,-0.0010508,0.0978744,1,4.23342e-05,-9.35418e-06,8.03551e-06,0.00846684,-0.00187084,0.0016071,0.999492,-0.000373137,0.0318332,-0.00132251,0.0463236,0.522777,-0.975952,31.8125,1,57554,5817567
37,15,0.999492,-0.000373137,0.0318332,-0.00132251,-0.652416,-0.104241,9.78746,0.0492585,-0.613185,0.973003,-0.00652598,-0.0010508,0.0978744,1,4.23342e-05,-9.35418e-06,8.03551e-06,0.00846684,-0.00187084,0.0016071,0.999492,-0.000373137,0.0318332,-0.00132251,0.0463236,0.522777,-0.975952,31.8125,1,57554,5817567
37,16,0.999492,-0.000373137,0.0318332,-0.00132251,-0.652416,-0.104241,9.78746,0.0492585,-0.613185,0.973003,-0.00652598,-0.0010508,0.0978744,1,4.23342e-05,-9.35418e-06,8.03551e-06,0.00846684,-0.00187084,0.0016071,0.999492,-0.000373137,0.0318332,-0.00132251,0.0463236,0.522777,-0.975952,31.8125,1,57554,5817567
38,1,0.999492,-0.000330143,0.0318418,-0.00146381,-0.636769,-0.110846,9.78662,0.062219,-0.625516,0.976713,-0.00636832,-0.00111825,0.097866,1,4.92744e-05,-3.3527e-06,1.13248e-05,0.00985489,-0.00067054,0.00226497,0.999492,-0.000330143,0.0318418,-0.00146381,0.0473352,0.522733,-0.973937,31.8125,1,57555,5817667
38,2,0.999492,-0.000330143,0.0318418,-0.00146381,-0.636769,-0.110846,9.78662,0.062219,-0.625516,0.976713,-0.00636832,-0.00111825,0.097866,1,4.92744e-05,-3.3527e-06,1.13248e-05,0.00985489,-0.00067054,0.00226497,0.999492,-0.000330143,0.0318418,-0.00146381,0.0473352,0.522733,-0.973937,31.8125,1,57555,5817667
38,3,0.999492,-0.000330143,0.0318418,-0.00146381,-0.636769,-0.110846,9.78662,0.062219,-0.625516,0.976713,-0.00636832,-0.00111825,0.097866,1,4.92744e-05,-3.3527e-06,1.13248e-05,0.00985489,-0.00067054,0.00226497,0.999492,-0.000330143,0.0318418,-0.00146381,0.0473352,0.522733,-0.973937,31.8125,1,57555,5817667
38,4,0.999491,-0.000303637,0.0318681,-0.00161109,-0.637888,-0.0931793,9.78644,0.0625277,-0.603773,0.971493,-0.00637937,-0.000939681,0.0978643,1,3.97266e-05,-2.6e-06,8.73744e-06,0.00794532,-0.00052,0.00174749,0.999491,-0.000303637,0.0318681,-0.00161109,0.0477299,0.522792,-0.977473,31.8125,1,57556,5817767
38,5,0.999491,-0.000303637,0.0318681,-0.00161109,-0.637888,-0.0931793,9.78644,0.0625277,-0.603773,0.971493,-0.00637937,-0.000939681,0.0978643,1,3.97266e-05,-2.6e-06,8.73744e-06,0.00794532,-0.00052,0.00174749,0.999491,-0.000303637,0.0318681,-0.00161109,0.0477299,0.522792,-0.977473,31.8125,1,57556,5817767
38,6,0.999491,-0.000303637,0.0318681,-0.00161109,-0.637888,-0.0931793,9.78644,0.0625277,-0.603773,0.971493,-0.00637937,-0.000939681,0.0978643,1,3.97266e-05,-2.6e-06,8.73744e-06,0.00794532,-0.00052,0.00174749,0.999491,-0.000303637,0.0318681,-0.00161109,0.0477299,0.522792,-0.977473,31.8125,1,57556,5817767
38,7,0.999491,-0.000296119,0.0318556,-0.00174513,-0.641825,-0.106086,9.79585,0.0569863,-0.61692,0.981727,-0.00641908,-0.00107077,0.0979583,1,4.95594e-05,-4.40724e-06,1.54934e-05,0.00991188,-0.000881448,0.00309868,0.999491,-0.000296119,0.0318556,-0.00174513,0.0481204,0.522372,-0.981525,31.8125,1,57557,5817867
38,8,0.999491,-0.000296119,0.0318556,-0.00174513,-0.641825,-0.106086,9.79585,0.0569863,-0.61692,0.981727,-0.00641908,-0.00107077,0.0979583,1,4.95594e-05,-4.40724e-06,1.54934e-05,0.00991188,-0.000881448,0.00309868,0.999491,-0.000296119,0.0318556,-0.00174513,0.0481204,0.522372,-0.981525,31.8125,1,57557,5817867
38,9,0.999492,-0.000304724,0.031807,-0.00184358,-0.637949,-0.105009,9.79042,0.062279,-0.621707,0.976982,-0.00638316,-0.00106092,0.0979038,1,5.49295e-05,-1.87903e-05,5.72365e-06,0.0109859,-0.00375805,0.00114473,0.999492,-0.000304724,0.031807,-0.00184358,0.046196,0.522388,-0.981516,31.8125,1,57558,5817967
38,10,0.999492,-0.000304724,0.031807,-0.00184358,-0.637949,-0.105009,9.79042,0.062279,-0.621707,0.976982,-0.00638316,-0.00106092,0.0979038,1,5.49295e-05,-1.87903e-05,5.72365e-06,0.0109859,-0.00375805,0.00114473,0.999492,-0.000304724,0.031807,-0.00184358,0.046196,0.522388,-0.981516,31.8125,1,57558,5817967
39,1,0.999492,-0.000304724,0.031807,-0.00184358,-0.637949,-0.105009,9.79042,0.062279,-0.621707,0.976982,-0.00638316,-0.00106092,0.0979038,1,5.49295e-05,-1.87903e-05,5.72365e-06,0.0109859,-0.00375805,0.00114473,0.999492,-0.000304724,0.031807,-0.00184358,0.046196,0.522388,-0.981516,31.8125,1,57558,5817967
39,2,0.999493,-0.000306093,0.0317778,-0.0018833,-0.647458,-0.103829,9.78233,0.0491903,-0.61949,0.967713,-0.00647534,-0.00104505,0.0978232,1,3.35126e-05,-4.03254e-06,1.53763e-05,0.00670252,-0.000806508,0.00307527,0.999493,-0.000306093,0.0317778,-0.0018833,0.0462776,0.520401,-0.97954,31.8125,1,57559,5818067
39,3,0.999493,-0.000306093,0.0317778,-0.0018833,-0.647458,-0.103829,9.78233,0.0491903,-0.61949,0.967713,-0.00647534,-0.00104505,0.0978232,1,3.35126e-05,-4.03254e-06,1.53763e-05,0.00670252,-0.000806508,0.00307527,0.999493,-0.000306093,0.0317778,-0.0018833,0.0462776,0.520401,-0.97954,31.8125,1,57559,5818067
39,4,0.999493,-0.000306093,0.0317778,-0.0018833,-0.647458,-0.103829,9.78233,0.0491903,-0.61949,0.967713,-0.00647534,-0.00104505,0.0978232,1,3.35126e-05,-4.03254e-06,1.53763e-05,0.00670252,-0.000806508,0.00307527,0.999493,-0.000306093,0.0317778,-0.0018833,0.0462776,0.520401,-0.97954,31.8125,1,57559,5818067
39,5,0.999493,-0.000278257,0.0317782,-0.00177001,-0.644538,-0.103165,9.78844,0.0480502,-0.620179,0.976501,-0.00644833,-0.00104061,0.0978841,1,4.44018e-05,-1.52904e-05,2.02469e-05,0.00888035,-0.00305808,0.00404939,0.999493,-0.000278257,0.0317782,-0.00177001,0.0458335,0.520378,-0.978023,31.8125,1,57560,5818167
39,6,0.999493,-0.000278257,0.0317782,-0.00177001,-0.644538,-0.103165,9.78844,0.0480502,-0.620179,0.976501,-0.00644833,-0.00104061,0.0978841,1,4.44018e-05,-1.52904e-05,2.02469e-05,0.00888035,-0.00305808,0.00404939,0.999493,-0.000278257,0.0317782,-0.00177001,0.0458335,0.520378,-0.978023,31.8125,1,57560,5818167
39,7,0.999493,-0.000278257,0.0317782,-0.00177001,-0.644538,-0.103165,9.78844,0.0480502,-0.620179,0.976501,-0.00644833,-0.00104061,0.0978841,1,4.44018e-05,-1.52904e-05,2.02469e-05,0.00888035,-0.00305808,0.00404939,0.999493,-0.000278257,0.0317782,-0.00177001,0.0458335,0.520378,-0.978023,31.8125,1,57560,5818167
39,8,0.999494,-0.000249451,0.0317708,-0.00169094,-0.64885,-0.103572,9.79017,0.0461343,-0.62328,0.975961,-0.00649324,-0.00104362,0.0979013,1,3.89517e-05,-2.44472e-05,2.10255e-05,0.00779033,-0.00488944,0.00420511,0.999494,-0.000249451,0.0317708,-0.00169094,0.0468128,0.522285,-0.975965,31.8125,1,57561,5818267
39,9,0.999494,-0.000249451,0.0317708,-0.00169094,-0.64885,-0.103572,9.79017,0.0461343,-0.62328,0.975961,-0.00649324,-0.00104362,0.0979013,1,3.89517e-05,-2.44472e-05,2.10255e-05,0.00779033,-0.00488944,0.00420511,0.999494,-0.000249451,0.0317708,-0.00169094,0.0468128,0.522285,-0.975965,31.8125,1,57561,5818267
39,10,0.999494,-0.000249451,0.0317708,-0.00169094,-0.64885,-0.103572,9.79017,0.0461343,-0.62328,0.975961,-0.00649324,-0.00104362,0.0979013,1,3.89517e-05,-2.44472e-05,2.10255e-05,0.00779033,-0.00488944,0.00420511,0.999494,-0.000249451,0.0317708,-0.00169094,0.0468128,0.522285,-0.975965,31.8125,1,57561,5818267
40,1,0.999494,-0.000211964,0.0317593,-0.00172595,-0.652181,-0.114799,9.79552,0.0415492,-0.630063,0.979923,-0.00652585,-0.00115884,0.0979548,1,5.44302e-05,-2.07535e-05,1.41394e-05,0.010886,-0.0041507,0.00282788,0.999494,-0.000211964,0.0317593,-0.00172595,0.0486765,0.525205,-0.976414,31.8125,1,57562,5818367
40,2,0.999494,-0.000211964,0.0317593,-0.00172595,-0.652181,-0.114799,9.79552,0.0415492,-0.630063,0.979923,-0.00652585,-0.00115884,0.0979548,1,5.44302e-05,-2.07535e-05,1.41394e-05,0.010886,-0.0041507,0.00282788,0.999494,-0.000211964,0.0317593,-0.00172595,0.0486765,0.525205,-0.976414,31.8125,1,57562,5818367
40,3,0.999494,-0.000211964,0.0317593,-0.00172595,-0.652181,-0.114799,9.79552,0.0415492,-0.630063,0.979923,-0.00652585,-0.00115884,0.0979548,1,5.44302e-05,-2.07535e-05,1.41394e-05,0.010886,-0.0041507,0.00282788,0.999494,-0.000211964,0.0317593,-0.00172595,0.0486765,0.525205,-0.976414,31.8125,1,57562,5818367
40,4,0.999494,-0.000192591,0.0317444,-0.00185858,-0.642845,-0.0999355,9.79015,0.0464889,-0.617087,0.978113,-0.00643045,-0.00101054,0.0979012,1,5.56988e-05,-1.0455e-05,2.1802e-05,0.0111398,-0.002091,0.00436039,0.999494,-0.000192591,0.0317444,-0.00185858,0.0481418,0.524766,-0.978947,31.8125,1,57563,5818467
40,5,0.999494,-0.000192591,0.0317444,-0.00185858,-0.642845,-0.0999355,9.79015,0.0464889,-0.617087,0.978113,-0.00643045,-0.00101054,0.0979012,1,5.56988e-05,-1.0455e-05,2.1802e-05,0.0111398,-0.002091,0.00436039,0.999494,-0.000192591,0.0317444,-0.00185858,0.0481418,0.524766,-0.978947,31.8125,1,57563,5818467
40,6,0.999494,-0.000192591,0.0317444,-0.00185858,-0.642845,-0.0999355,9.79015,0.0464889,-0.617087,0.978113,-0.00643045,-0.00101054,0.0979012,1,5.56988e-05,-1.0455e-05,2.1802e-05,0.0111398,-0.002091,0.00436039,0.999494,-0.000192591,0.0317444,-0.00185858,0.0481418,0.524766,-0.978947,31.8125,1,57563,5818467
40,7,0.999495,-0.000202069,0.0317231,-0.00197129,-0.640538,-0.0960686,9.79423,0.0499561,-0.612513,0.978986,-0.00640782,-0.000967165,0.0979421,1,3.26838e-05,-1.24722e-05,5.99776e-06,0.00653676,-0.00249445,0.00119955,0.999495,-0.000202069,0.0317231,-0.00197129,0.0447896,0.522373,-0.979994,31.8125,1,57564,5818567
40,8,0.999495,-0.000202069,0.0317231,-0.00197129,-0.640538,-0.0960686,9.79423,0.0499561,-0.612513,0.978986,-0.00640782,-0.000967165,0.0979421,1,3.26838e-05,-1.24722e-05,5.99776e-06,0.00653676,-0.00249445,0.00119955,0.999495,-0.000202069,0.0317231,-0.00197129,0.0447896,0.522373,-0.979994,31.8125,1,57564,5818567
40,9,0.999495,-0.000202069,0.0317231,-0.00197129,-0.640538,-0.0960686,9.79423,0.0499561,-0.612513,0.978986,-0.00640782,-0.000967165,0.0979421,1,3.26838e-05,-1.24722e-05,5.99776e-06,0.00653676,-0.00249445,0.00119955,0.999495,-0.000202069,0.0317231,-0.00197129,0.0447896,0.522373,-0.979994,31.8125,1,57564,5818567
40,10,0.999495,-0.000182098,0.031719,-0.00191361,-0.641592,-0.0969571,9.78847,0.0541674,-0.61418,0.974764,-0.00641677,-0.000977644,0.0978846,1,3.95049e-05,-4.61004e-06,2.63824e-05,0.00790099,-0.000922008,0.00527648,0.999495,-0.000182098,0.031719,-0.00191361,0.0458169,0.519909,-0.979044,31.8125,1,57565,5818667
41,1,0.999495,-0.000182098,0.031719,-0.00191361,-0.641592,-0.0969571,9.78847,0.0541674,-0.61418,0.974764,-0.00641677,-0.000977644,0.0978846,1,3.95049e-05,-4.61004e-06,2.63824e-05,0.00790099,-0.000922008,0.00527648,0.999495,-0.000182098,0.031719,-0.00191361,0.0458169,0.519909,-0.979044,31.8125,1,57565,5818667
41,2,0.999495,-0.000182098,0.031719,-0.00191361,-0.641592,-0.0969571,9.78847,0.0541674,-0.61418,0.974764,-0.00641677,-0.000977644,0.0978846,1,3.95049e-05,-4.61004e-06,2.63824e-05,0.00790099,-0.000922008,0.00527648,0.999495,-0.000182098,0.031719,-0.00191361,0.0458169,0.519909,-0.979044,31.8125,1,57565,5818667
41,3,0.999495,-0.000171269,0.0317142,-0.00183305,-0.634212,-0.106008,9.79648,0.062279,-0.624136,0.981488,-0.00634572,-0.00106641,0.0979645,1,3.1233e-05,-1.85816e-05,1.69909e-05,0.0062466,-0.00371632,0.00339818,0.999495,-0.000171269,0.0317142,-0.00183305,0.0463397,0.521802,-0.975974,31.8125,1,57566,5818767
41,4,0.999495,-0.000171269,0.0317142,-0.00183305,-0.634212,-0.106008,9.79648,0.062279,-0.624136,0.981488,-0.00634572,-0.00106641,0.0979645,1,3.1233e-05,-1.85816e-05,1.69909e-05,0.0062466,-0.00371632,0.00339818,0.999495,-0.000171269,0.0317142,-0.00183305,0.0463397,0.521802,-0.975974,31.8125,1,57566,5818767
41,5,0.999495,-0.000171269,0.0317142,-0.00183305,-0.634212,-0.106008,9.79648,0.062279,-0.624136,0.981488,-0.00634572,-0.00106641,0.0979645,1,3.1233e-05,-1.85816e-05,1.69909e-05,0.0062466,-0.00371632,0.00339818,0.999495,-0.000171269,0.0317142,-0.00183305,0.0463397,0.521802,-0.975974,31.8125,1,57566,5818767
41,6,0.999495,-0.000150183,0.0317142,-0.00182771,-0.639595,-0.0904854,9.78919,0.0560435,-0.61057,0.974918,-0.00639756,-0.00091278,0.0978917,1,3.96054e-05,-8.35216e-06,1.34372e-05,0.00792108,-0.00167043,0.00268743,0.999495,-0.000150183,0.0317142,-0.00182771,0.0459165,0.522727,-0.972921,31.8125,1,57567,5818867
41,7,0.999495,-0.000150183,0.0317142,-0.00182771,-0.639595,-0.0904854,9.78919,0.0560435,-0.61057,0.974918,-0.00639756,-0.00091278,0.0978917,1,3.96054e-05,-8.35216e-06,1.34372e-05,0.00792108,-0.00167043,0.00268743,0.999495,-0.000150183,0.0317142,-0.00182771,0.0459165,0.522727,-0.972921,31.8125,1,57567,5818867
41,8,0.999495,-0.000150183,0.0317142,-0.00182771,-0.639595,-0.0904854,9.78919,0.0560435,-0.61057,0.974918,-0.00639756,-0.00091278,0.0978917,1,3.96054e-05,-8.35216e-06,1.34372e-05,0.00792108,-0.00167043,0.00268743,0.999495,-0.000150183,0.0317142,-0.00182771,0.0459165,0.522727,-0.972921,31.8125,1,57567,5818867
41,9,0.999495,-0.000117515,0.031717,-0.00183168,-0.643535,-0.107951,9.79347,0.0549463,-0.62387,0.976141,-0.00643603,-0.001089,0.0979346,1,4.76502e-05,-3.60061e-06,1.22375e-05,0.00953004,-0.000720123,0.0024475,0.999495,-0.000117515,0.031717,-0.00183168,0.0486846,0.524717,-0.976425,31.8125,1,57568,5818967
41,10,0.999495,-0.000117515,0.031717,-0.00183168,-0.643535,-0.107951,9.79347,0.0549463,-0.62387,0.976141,-0.00643603,-0.001089,0.0979346,1,4.76502e-05,-3.60061e-06,1.22375e-05,0.00953004,-0.000720123,0.0024475,0.999495,-0.000117515,0.031717,-0.00183168,0.0486846,0.524717,-0.976425,31.8125,1,57568,5818967
42,1,0.999495,-0.000117515,0.031717,-0.00183168,-0.643535,-0.107951,9.79347,0.0549463,-0.62387,0.976141,-0.00643603,-0.001089,0.0979346,1,4.76502e-05,-3.60061e-06,1.22375e-05,0.00953004,-0.000720123,0.0024475,0.999495,-0.000117515,0.031717,-0.00183168,0.0486846,0.524717,-0.976425,31.8125,1,57568,5818967
42,2,0.999495,-0.00010618,0.0317113,-0.00186994,-0.651384,-0.101792,9.78781,0.0418009,-0.622506,0.970825,-0.00651573,-0.00102689,0.0978779,1,4.5294e-05,-9.73575e-06,7.86772e-06,0.0090588,-0.00194715,0.00157354,0.999495,-0.00010618,0.0317113,-0.00186994,0.0485901,0.525268,-0.979948,31.8125,1,57569,5819067
