frame_id,imu_idx,accel_x,accel_y,accel_z,free_accel_x,free_accel_y,free_accel_z,delta_v_x,delta_v_y,delta_v_z,delta_q_w,delta_q_x,delta_q_y,delta_q_z,rate_x,rate_y,rate_z,quat_w,quat_x,quat_y,quat_z,mag_x,mag_y,mag_z,temperature,status_byte,packet_counter,time_fine
5167,1,-0.721914,-0.0446026,9.77601,0.472483,-0.353241,0.89445,-0.00721734,-0.000454028,0.0977602,1,3.88286e-05,9.0691e-06,2.8359e-05,0.00776572,0.00181382,0.00567179,0,0,0,0,-0.383714,0.0658452,-0.977557,25.5625,3,6204,664582
5167,2,-0.498316,-0.0584257,7.33587,0.472483,-0.353241,0.89445,-0.00498266,-0.000587809,0.0733587,1,2.1903e-05,3.14791e-06,3.40043e-05,0.0043806,0.000629582,0.00680087,0,0,0,0,0.0605029,0.512242,-0.993929,28.9375,1,22874,2333063
5167,3,-0.498316,-0.0584257,7.33587,0.472483,-0.353241,0.89445,-0.00498266,-0.000587809,0.0733587,1,2.1903e-05,3.14791e-06,3.40043e-05,0.0043806,0.000629582,0.00680087,0,0,0,0,0.0605029,0.512242,-0.993929,28.9375,1,22874,2333063
5167,4,-0.67952,-0.0797685,9.78431,0.0597204,-0.498818,0.996498,-0.00679597,-0.000806489,0.097843,1,4.4074e-05,-4.06027e-06,1.32358e-05,0.00881479,-0.000812054,0.00264715,0,0,0,0,0.0624397,0.512217,-0.993433,28.9375,1,22875,2333163
5167,5,-0.67952,-0.0797685,9.78431,0.0597204,-0.498818,0.996498,-0.00679597,-0.000806489,0.097843,1,4.4074e-05,-4.06027e-06,1.32358e-05,0.00881479,-0.000812054,0.00264715,0,0,0,0,0.0624397,0.512217,-0.993433,28.9375,1,22875,2333163
5167,6,-0.672914,-0.086383,9.78829,0.0660124,-0.502562,0.999006,-0.0067325,-0.0008703,0.0978826,1,3.14041e-05,-1.74084e-05,2.39518e-05,0.00628083,-0.00348167,0.00479036,0,0,0,0,0.0643272,0.512228,-0.994957,28.9375,1,22876,2333263
5167,7,-0.672914,-0.086383,9.78829,0.0660124,-0.502562,0.999006,-0.0067325,-0.0008703,0.0978826,1,3.14041e-05,-1.74084e-05,2.39518e-05,0.00628083,-0.00348167,0.00479036,0,0,0,0,0.0643272,0.512228,-0.994957,28.9375,1,22876,2333263
5167,8,-0.684799,-0.0875556,9.79752,0.0514275,-0.51198,1.00856,-0.00684929,-0.000882601,0.097975,1,3.46843e-05,-6.80992e-06,1.81365e-05,0.00693687,-0.00136198,0.0036273,0,0,0,0,0.0643386,0.509328,-0.996537,28.9375,1,22877,2333363
1,1,-0.684799,-0.0875556,9.79752,0.0514275,-0.51198,1.00856,-0.00684929,-0.000882601,0.097975,1,3.46843e-05,-6.80992e-06,1.81365e-05,0.00693687,-0.00136198,0.0036273,0,0,0,0,0.0643386,0.509328,-0.996537,28.9375,1,22877,2333363
1,2,-0.684578,-0.0805337,9.78977,0.0487206,-0.499057,1.00322,-0.00684785,-0.000815276,0.0978975,1,4.95481e-05,-1.07197e-05,1.73469e-05,0.00990963,-0.00214394,0.00346938,0,0,0,0,0.063356,0.509833,-0.997026,28.9375,1,22878,2333463
2,1,-0.684578,-0.0805337,9.78977,0.0487206,-0.499057,1.00322,-0.00684785,-0.000815276,0.0978975,1,4.95481e-05,-1.07197e-05,1.73469e-05,0.00990963,-0.00214394,0.00346938,0,0,0,0,0.063356,0.509833,-0.997026,28.9375,1,22878,2333463
2,2,-0.671171,-0.0844613,9.79135,0.0660114,-0.501425,1.00419,-0.00671419,-0.000855151,0.0979132,1,5.19474e-05,-1.29287e-05,2.71851e-05,0.0103895,-0.00258574,0.00543702,0,0,0,0,0.0633977,0.51173,-0.993954,28.9375,1,22879,2333563
3,1,-0.671171,-0.0844613,9.79135,0.0660114,-0.501425,1.00419,-0.00671419,-0.000855151,0.0979132,1,5.19474e-05,-1.29287e-05,2.71851e-05,0.0103895,-0.00258574,0.00543702,0,0,0,0,0.0633977,0.51173,-0.993954,28.9375,1,22879,2333563
3,2,-0.666448,-0.0808027,9.7866,0.0694307,-0.506321,1.00288,-0.00666835,-0.000814675,0.0978657,1,3.22927e-05,-1.99806e-05,2.45721e-05,0.00645853,-0.00399612,0.00491441,0,0,0,0,0.0643884,0.510737,-0.993475,28.9375,1,22880,2333663
7,1,-0.666448,-0.0808027,9.7866,0.0694307,-0.506321,1.00288,-0.00666835,-0.000814675,0.0978657,1,3.22927e-05,-1.99806e-05,2.45721e-05,0.00645853,-0.00399612,0.00491441,0,0,0,0,0.0643884,0.510737,-0.993475,28.9375,1,22880,2333663
7,2,-0.673677,-0.0811861,9.79308,0.0604614,-0.505895,1.00403,-0.00673908,-0.000819904,0.0979306,1,4.04995e-05,-1.18798e-05,8.21079e-06,0.0080999,-0.00237595,0.00164216,0,0,0,0,0.0653464,0.510251,-0.993995,28.9375,1,22881,2333763
8,1,-0.673677,-0.0811861,9.79308,0.0604614,-0.505895,1.00403,-0.00673908,-0.000819904,0.0979306,1,4.04995e-05,-1.18798e-05,8.21079e-06,0.0080999,-0.00237595,0.00164216,0,0,0,0,0.0653464,0.510251,-0.993995,28.9375,1,22881,2333763
8,2,-0.673698,-0.07641,9.78566,0.0652781,-0.502878,0.998143,-0.00673962,-0.000770633,0.0978564,1,3.28738e-05,-1.35415e-05,7.40961e-06,0.00657476,-0.0027083,0.00148192,0,0,0,0,0.0643433,0.511252,-0.994979,28.9375,1,22882,2333863
9,1,-0.673698,-0.07641,9.78566,0.0652781,-0.502878,0.998143,-0.00673962,-0.000770633,0.0978564,1,3.28738e-05,-1.35415e-05,7.40961e-06,0.00657476,-0.0027083,0.00148192,0,0,0,0,0.0643433,0.511252,-0.994979,28.9375,1,22882,2333863
9,2,-0.665429,-0.0801909,9.78386,0.0661592,-0.508449,0.995165,-0.00665274,-0.000811232,0.0978386,1,4.66517e-05,7.77112e-06,1.46163e-05,0.00933035,0.00155422,0.00292326,0,0,0,0,0.0643837,0.508813,-0.995033,28.9375,1,22883,2333963
10,1,-0.665429,-0.0801909,9.78386,0.0661592,-0.508449,0.995165,-0.00665274,-0.000811232,0.0978386,1,4.66517e-05,7.77112e-06,1.46163e-05,0.00933035,0.00155422,0.00292326,0,0,0,0,0.0643837,0.508813,-0.995033,28.9375,1,22883,2333963
10,2,-0.669268,-0.0827901,9.78863,0.0657937,-0.510065,1.00005,-0.00669457,-0.000836801,0.0978861,1,4.4398e-05,-9.80114e-06,1.55477e-05,0.00887959,-0.00196023,0.00310954,0,0,0,0,0.0639272,0.508799,-0.994021,28.9375,1,22884,2334063
10,3,-0.669268,-0.0827901,9.78863,0.0657937,-0.510065,1.00005,-0.00669457,-0.000836801,0.0978861,1,4.4398e-05,-9.80114e-06,1.55477e-05,0.00887959,-0.00196023,0.00310954,0,0,0,0,0.0639272,0.508799,-0.994021,28.9375,1,22884,2334063
10,4,-0.678028,-0.0900674,9.7832,0.0580697,-0.517257,0.99686,-0.00678351,-0.000908661,0.0978317,1,3.95029e-05,-1.66857e-05,1.90345e-05,0.00790057,-0.00333714,0.0038069,0,0,0,0,0.0639116,0.51122,-0.992957,28.9375,1,22885,2334163
11,1,-0.678028,-0.0900674,9.7832,0.0580697,-0.517257,0.99686,-0.00678351,-0.000908661,0.0978317,1,3.95029e-05,-1.66857e-05,1.90345e-05,0.00790057,-0.00333714,0.0038069,0,0,0,0,0.0639116,0.51122,-0.992957,28.9375,1,22885,2334163
11,2,-0.671967,-0.086288,9.79574,0.0573298,-0.512797,1.00507,-0.00672025,-0.000871474,0.0979573,1,4.28464e-05,-3.12135e-06,1.48789e-05,0.00856928,-0.00062427,0.00297578,0,0,0,0,0.0629413,0.511716,-0.992941,28.9375,1,22886,2334263
12,1,-0.671967,-0.086288,9.79574,0.0573298,-0.512797,1.00507,-0.00672025,-0.000871474,0.0979573,1,4.28464e-05,-3.12135e-06,1.48789e-05,0.00856928,-0.00062427,0.00297578,0,0,0,0,0.0629413,0.511716,-0.992941,28.9375,1,22886,2334263
12,2,-0.66993,-0.0889398,9.79265,0.0666365,-0.520401,1.00406,-0.00670077,-0.000899964,0.0979263,1,5.31859e-05,-7.62756e-06,1.11371e-05,0.0106372,-0.00152551,0.00222743,0,0,0,0,0.0634181,0.511233,-0.99346,28.9375,1,22887,2334363
10,1,-0.66993,-0.0889398,9.79265,0.0666365,-0.520401,1.00406,-0.00670077,-0.000899964,0.0979263,1,5.31859e-05,-7.62756e-06,1.11371e-05,0.0106372,-0.00152551,0.00222743,0,0,0,0,0.0634181,0.511233,-0.99346,28.9375,1,22887,2334363
10,2,-0.671403,-0.0732245,9.78262,0.0626257,-0.505192,0.992311,-0.00671473,-0.000739246,0.0978261,1,3.3714e-05,-3.81282e-06,3.01542e-05,0.00674281,-0.000762563,0.00603084,0,0,0,0,0.0638252,0.511283,-0.996491,28.9375,1,22888,2334463
14,1,-0.671403,-0.0732245,9.78262,0.0626257,-0.505192,0.992311,-0.00671473,-0.000739246,0.0978261,1,3.3714e-05,-3.81282e-06,3.01542e-05,0.00674281,-0.000762563,0.00603084,0,0,0,0,0.0638252,0.511283,-0.996491,28.9375,1,22888,2334463
14,2,-0.668708,-0.0780106,9.78628,0.0650151,-0.510768,1.00057,-0.00668817,-0.000787924,0.0978627,1,3.89739e-05,-5.70898e-06,1.42159e-05,0.00779478,-0.0011418,0.00284318,0,0,0,0,0.0638086,0.510813,-0.997511,28.9375,1,22889,2334563
15,1,-0.668708,-0.0780106,9.78628,0.0650151,-0.510768,1.00057,-0.00668817,-0.000787924,0.0978627,1,3.89739e-05,-5.70898e-06,1.42159e-05,0.00779478,-0.0011418,0.00284318,0,0,0,0,0.0638086,0.510813,-0.997511,28.9375,1,22889,2334563
15,2,-0.687902,-0.0802394,9.79285,0.0447248,-0.511676,1.00447,-0.00688209,-0.000811262,0.0979282,1,4.40626e-05,-1.58437e-05,1.73171e-05,0.00881253,-0.00316875,0.00346343,0,0,0,0,0.0624189,0.511268,-0.994969,28.9375,1,22890,2334663
16,1,-0.687902,-0.0802394,9.79285,0.0447248,-0.511676,1.00447,-0.00688209,-0.000811262,0.0979282,1,4.40626e-05,-1.58437e-05,1.73171e-05,0.00881253,-0.00316875,0.00346343,0,0,0,0,0.0624189,0.511268,-0.994969,28.9375,1,22890,2334663
16,2,-0.681696,-0.0687753,9.77865,0.0488806,-0.499408,0.990404,-0.00681815,-0.000697018,0.0977864,1,4.68157e-05,-6.11148e-06,7.99435e-06,0.00936314,-0.0012223,0.00159887,0,0,0,0,0.0639562,0.50926,-0.992496,28.9375,1,22891,2334763
17,1,-0.681696,-0.0687753,9.77865,0.0488806,-0.499408,0.990404,-0.00681815,-0.000697018,0.0977864,1,4.68157e-05,-6.11148e-06,7.99435e-06,0.00936314,-0.0012223,0.00159887,0,0,0,0,0.0639562,0.50926,-0.992496,28.9375,1,22891,2334763
17,2,-0.671965,-0.0826614,9.79238,0.0617099,-0.518766,1.00489,-0.00672101,-0.000832268,0.0979237,1,2.82582e-05,-6.98116e-06,8.93139e-06,0.00565164,-0.00139623,0.00178628,0,0,0,0,0.0634342,0.510258,-0.993481,28.9375,1,22892,2334863
18,1,-0.671965,-0.0826614,9.79238,0.0617099,-0.518766,1.00489,-0.00672101,-0.000832268,0.0979237,1,2.82582e-05,-6.98116e-06,8.93139e-06,0.00565164,-0.00139623,0.00178628,0,0,0,0,0.0634342,0.510258,-0.993481,28.9375,1,22892,2334863
18,2,-0.672661,-0.0856271,9.79609,0.0673197,-0.52051,1.00546,-0.00672649,-0.000864413,0.0979608,1,3.99649e-05,4.41483e-07,2.31582e-05,0.00799299,8.82967e-05,0.00463165,0,0,0,0,0.0638499,0.511265,-0.995481,28.9375,1,22893,2334963
19,1,-0.672661,-0.0856271,9.79609,0.0673197,-0.52051,1.00546,-0.00672649,-0.000864413,0.0979608,1,3.99649e-05,4.41483e-07,2.31582e-05,0.00799299,8.82967e-05,0.00463165,0,0,0,0,0.0638499,0.511265,-0.995481,28.9375,1,22893,2334963
19,2,-0.674925,-0.0808787,9.79378,0.0592335,-0.52216,1.00288,-0.00675186,-0.00081557,0.0979376,1,3.28125e-05,-1.35393e-05,2.63378e-05,0.0065625,-0.00270786,0.00526756,0,0,0,0,0.0647998,0.511266,-0.995991,28.9375,1,22894,2335063
20,1,-0.674925,-0.0808787,9.79378,0.0592335,-0.52216,1.00288,-0.00675186,-0.00081557,0.0979376,1,3.28125e-05,-1.35393e-05,2.63378e-05,0.0065625,-0.00270786,0.00526756,0,0,0,0,0.0647998,0.511266,-0.995991,28.9375,1,22894,2335063
20,2,-0.673583,-0.0821581,9.78867,0.0623806,-0.518312,1.00225,-0.00673942,-0.000831193,0.0978864,1,4.76316e-05,-1.84943e-05,2.12843e-05,0.00952632,-0.00369886,0.00425686,0,0,0,0,0.0638418,0.511753,-0.99547,28.9375,1,22895,2335163
21,1,-0.673583,-0.0821581,9.78867,0.0623806,-0.518312,1.00225,-0.00673942,-0.000831193,0.0978864,1,4.76316e-05,-1.84943e-05,2.12843e-05,0.00952632,-0.00369886,0.00425686,0,0,0,0,0.0638418,0.511753,-0.99547,28.9375,1,22895,2335163
21,2,-0.668636,-0.0768768,9.78969,0.060585,-0.513683,1.00283,-0.00668801,-0.000778467,0.0978967,1,4.82947e-05,-8.57155e-06,1.8174e-05,0.00965894,-0.00171431,0.0036348,0,0,0,0,0.0624108,0.511756,-0.994959,28.9375,1,22896,2335263
22,1,-0.668636,-0.0768768,9.78969,0.060585,-0.513683,1.00283,-0.00668801,-0.000778467,0.0978967,1,4.82947e-05,-8.57155e-06,1.8174e-05,0.00965894,-0.00171431,0.0036348,0,0,0,0,0.0624108,0.511756,-0.994959,28.9375,1,22896,2335263
22,2,-0.671337,-0.0827557,9.78525,0.063868,-0.526835,0.997029,-0.00671495,-0.000836191,0.0978523,1,4.28519e-05,-8.20325e-06,1.8431e-05,0.00857039,-0.00164065,0.00368619,0,0,0,0,0.0629778,0.510244,-0.992469,28.9375,1,22897,2335363
22,3,-0.671337,-0.0827557,9.78525,0.063868,-0.526835,0.997029,-0.00671495,-0.000836191,0.0978523,1,4.28519e-05,-8.20325e-06,1.8431e-05,0.00857039,-0.00164065,0.00368619,0,0,0,0,0.0629778,0.510244,-0.992469,28.9375,1,22897,2335363
22,4,-0.674899,-0.0826286,9.79071,0.0588675,-0.517721,0.999662,-0.00675262,-0.000832668,0.0979068,1,3.16725e-05,-1.8645e-05,1.33328e-05,0.0063345,-0.003729,0.00266655,0,0,0,0,0.064405,0.511207,-0.992455,28.9375,1,22898,2335463
23,1,-0.674899,-0.0826286,9.79071,0.0588675,-0.517721,0.999662,-0.00675262,-0.000832668,0.0979068,1,3.16725e-05,-1.8645e-05,1.33328e-05,0.0063345,-0.003729,0.00266655,0,0,0,0,0.064405,0.511207,-0.992455,28.9375,1,22898,2335463
23,2,-0.674634,-0.0792158,9.78463,0.0555027,-0.522091,0.994082,-0.00674839,-0.00079698,0.0978462,1,2.36241e-05,-1.05817e-05,1.47203e-05,0.00472481,-0.00211634,0.00294406,0,0,0,0,0.0648453,0.512197,-0.993445,28.9375,1,22899,2335563
24,1,-0.674634,-0.0792158,9.78463,0.0555027,-0.522091,0.994082,-0.00674839,-0.00079698,0.0978462,1,2.36241e-05,-1.05817e-05,1.47203e-05,0.00472481,-0.00211634,0.00294406,0,0,0,0,0.0648453,0.512197,-0.993445,28.9375,1,22899,2335563
24,2,-0.680137,-0.0770524,9.79079,0.0490061,-0.517232,1.00175,-0.00680362,-0.000780368,0.0979076,1,4.88181e-05,-1.16359e-05,2.09249e-05,0.00976362,-0.00232719,0.00418498,0,0,0,0,0.0637925,0.511789,-0.997489,28.9375,1,22900,2335663
25,1,-0.680137,-0.0770524,9.79079,0.0490061,-0.517232,1.00175,-0.00680362,-0.000780368,0.0979076,1,4.88181e-05,-1.16359e-05,2.09249e-05,0.00976362,-0.00232719,0.00418498,0,0,0,0,0.0637925,0.511789,-0.997489,28.9375,1,22900,2335663
25,2,-0.665754,-0.0800699,9.78897,0.0658885,-0.524163,0.996969,-0.00666166,-0.000808599,0.0978894,1,3.86088e-05,-2.12286e-05,2.56152e-05,0.00772177,-0.00424572,0.00512303,0,0,0,0,0.0643263,0.509337,-0.997041,28.9375,1,22901,2335763
26,1,-0.665754,-0.0800699,9.78897,0.0658885,-0.524163,0.996969,-0.00666166,-0.000808599,0.0978894,1,3.86088e-05,-2.12286e-05,2.56152e-05,0.00772177,-0.00424572,0.00512303,0,0,0,0,0.0643263,0.509337,-0.997041,28.9375,1,22901,2335763
26,2,-0.665866,-0.0721233,9.78735,0.0676889,-0.515605,0.999528,-0.00666095,-0.000731232,0.0978732,1,4.97513e-05,-1.18668e-05,1.96022e-05,0.00995027,-0.00237337,0.00392045,0,0,0,0,0.0658479,0.50975,-0.993504,28.9375,1,22902,2335863
27,1,-0.665866,-0.0721233,9.78735,0.0676889,-0.515605,0.999528,-0.00666095,-0.000731232,0.0978732,1,4.97513e-05,-1.18668e-05,1.96022e-05,0.00995027,-0.00237337,0.00392045,0,0,0,0,0.0658479,0.50975,-0.993504,28.9375,1,22902,2335863
27,2,-0.668722,-0.0854306,9.78929,0.0632549,-0.527838,0.999014,-0.00669171,-0.000863933,0.0978925,1,4.80061e-05,-2.30556e-05,1.70042e-05,0.00960121,-0.00461111,0.00340083,0,0,0,0,0.0654038,0.509727,-0.991987,28.9375,1,22903,2335963
28,1,-0.668722,-0.0854306,9.78929,0.0632549,-0.527838,0.999014,-0.00669171,-0.000863933,0.0978925,1,4.80061e-05,-2.30556e-05,1.70042e-05,0.00960121,-0.00461111,0.00340083,0,0,0,0,0.0654038,0.509727,-0.991987,28.9375,1,22903,2335963
28,2,-0.671637,-0.0811451,9.78832,0.0555988,-0.524278,0.996258,-0.00671909,-0.000818567,0.0978829,1,3.50456e-05,-1.40593e-05,1.90607e-05,0.00700911,-0.00281187,0.00381213,0,0,0,0,0.0649023,0.510228,-0.992479,28.9375,1,22904,2336063
29,1,-0.671637,-0.0811451,9.78832,0.0555988,-0.524278,0.996258,-0.00671909,-0.000818567,0.0978829,1,3.50456e-05,-1.40593e-05,1.90607e-05,0.00700911,-0.00281187,0.00381213,0,0,0,0,0.0649023,0.510228,-0.992479,28.9375,1,22904,2336063
29,2,-0.676784,-0.0942635,9.79163,0.0506545,-0.541683,1.00175,-0.00676833,-0.000950043,0.0979162,1,3.66567e-05,-2.67863e-06,1.69448e-05,0.00733133,-0.000535725,0.00338897,0,0,0,0,0.0653302,0.511226,-0.993974,28.9375,1,22905,2336163
30,1,-0.676784,-0.0942635,9.79163,0.0506545,-0.541683,1.00175,-0.00676833,-0.000950043,0.0979162,1,3.66567e-05,-2.67863e-06,1.69448e-05,0.00733133,-0.000535725,0.00338897,0,0,0,0,0.0653302,0.511226,-0.993974,28.9375,1,22905,2336163
30,2,-0.674737,-0.0827429,9.78968,0.0583966,-0.535556,0.99658,-0.00674752,-0.000837093,0.0978967,1,4.82072e-05,-9.07163e-07,1.66724e-05,0.00964143,-0.000181433,0.00333449,0,0,0,0,0.0633726,0.510303,-0.996005,28.9375,1,22906,2336263
31,1,-0.674737,-0.0827429,9.78968,0.0583966,-0.535556,0.99658,-0.00674752,-0.000837093,0.0978967,1,4.82072e-05,-9.07163e-07,1.66724e-05,0.00964143,-0.000181433,0.00333449,0,0,0,0,0.0633726,0.510303,-0.996005,28.9375,1,22906,2336263
31,2,-0.674048,-0.0834175,9.7856,0.0534721,-0.530213,0.995417,-0.00674173,-0.000845596,0.0978558,1,5.63487e-05,-6.62753e-06,2.90946e-05,0.0112697,-0.00132551,0.00581892,0,0,0,0,0.0619738,0.508355,-0.995537,28.9375,1,22907,2336363
32,1,-0.674048,-0.0834175,9.7856,0.0534721,-0.530213,0.995417,-0.00674173,-0.000845596,0.0978558,1,5.63487e-05,-6.62753e-06,2.90946e-05,0.0112697,-0.00132551,0.00581892,0,0,0,0,0.0619738,0.508355,-0.995537,28.9375,1,22907,2336363
32,2,-0.686314,-0.0773247,9.79286,0.0462994,-0.525999,1.00268,-0.00686399,-0.000780011,0.0979284,1,3.2993e-05,-4.50213e-06,2.20053e-05,0.00659861,-0.000900426,0.00440106,0,0,0,0,0.0629569,0.509295,-0.994006,28.9375,1,22908,2336463
33,1,-0.686314,-0.0773247,9.79286,0.0462994,-0.525999,1.00268,-0.00686399,-0.000780011,0.0979284,1,3.2993e-05,-4.50213e-06,2.20053e-05,0.00659861,-0.000900426,0.00440106,0,0,0,0,0.0629569,0.509295,-0.994006,28.9375,1,22908,2336463
33,2,-0.682563,-0.0822247,9.78397,0.0490874,-0.530343,0.995958,-0.00682733,-0.000830619,0.0978395,1,4.22001e-05,-8.71874e-06,8.39124e-06,0.00844002,-0.00174375,0.00167825,0,0,0,0,0.0629735,0.509765,-0.992985,28.9375,1,22909,2336563
34,1,-0.682563,-0.0822247,9.78397,0.0490874,-0.530343,0.995958,-0.00682733,-0.000830619,0.0978395,1,4.22001e-05,-8.71874e-06,8.39124e-06,0.00844002,-0.00174375,0.00167825,0,0,0,0,0.0629735,0.509765,-0.992985,28.9375,1,22909,2336563
34,2,-0.677441,-0.0703049,9.79355,0.0531855,-0.523555,1.00785,-0.00677703,-0.000710529,0.0979353,1,3.60626e-05,-1.36233e-05,3.07281e-05,0.00721253,-0.00272466,0.00614563,0,0,0,0,0.0629246,0.511246,-0.993962,28.9375,1,22910,2336663
35,1,-0.677441,-0.0703049,9.79355,0.0531855,-0.523555,1.00785,-0.00677703,-0.000710529,0.0979353,1,3.60626e-05,-1.36233e-05,3.07281e-05,0.00721253,-0.00272466,0.00614563,0,0,0,0,0.0629246,0.511246,-0.993962,28.9375,1,22910,2336663
35,2,-0.679136,-0.0869053,9.77984,0.0462794,-0.543049,0.983884,-0.00679262,-0.000877299,0.0977982,1,4.03077e-05,-6.72771e-06,2.66953e-05,0.00806154,-0.00134554,0.00533907,0,0,0,0,0.0653383,0.510738,-0.993985,28.9375,1,22911,2336763
36,1,-0.679136,-0.0869053,9.77984,0.0462794,-0.543049,0.983884,-0.00679262,-0.000877299,0.0977982,1,4.03077e-05,-6.72771e-06,2.66953e-05,0.00806154,-0.00134554,0.00533907,0,0,0,0,0.0653383,0.510738,-0.993985,28.9375,1,22911,2336763
36,2,-0.678279,-0.0753145,9.78874,0.0520303,-0.52923,0.996277,-0.00678153,-0.000762684,0.0978875,1,4.80079e-05,6.35512e-06,1.02724e-05,0.00960157,0.00127103,0.00205447,0,0,0,0,0.0653051,0.509799,-0.996025,28.9375,1,22912,2336863
37,1,-0.678279,-0.0753145,9.78874,0.0520303,-0.52923,0.996277,-0.00678153,-0.000762684,0.0978875,1,4.80079e-05,6.35512e-06,1.02724e-05,0.00960157,0.00127103,0.00205447,0,0,0,0,0.0653051,0.509799,-0.996025,28.9375,1,22912,2336863
37,2,-0.677822,-0.0679778,9.78474,0.0498389,-0.522235,0.990528,-0.00677998,-0.00069135,0.0978472,1,5.77477e-05,-9.1475e-06,2.00045e-05,0.0115495,-0.0018295,0.00400089,0,0,0,0,0.0643386,0.509328,-0.996537,28.9375,1,22913,2336963
38,1,-0.677822,-0.0679778,9.78474,0.0498389,-0.522235,0.990528,-0.00677998,-0.00069135,0.0978472,1,5.77477e-05,-9.1475e-06,2.00045e-05,0.0115495,-0.0018295,0.00400089,0,0,0,0,0.0643386,0.509328,-0.996537,28.9375,1,22913,2336963
38,2,-0.681552,-0.0855216,9.78868,0.0448223,-0.539843,1.00018,-0.00681634,-0.000866421,0.0978867,1,5.6032e-05,-4.32667e-06,1.72856e-05,0.0112064,-0.000865334,0.00345711,0,0,0,0,0.0648444,0.509306,-0.995529,28.9375,1,22914,2337063
39,1,-0.681552,-0.0855216,9.78868,0.0448223,-0.539843,1.00018,-0.00681634,-0.000866421,0.0978867,1,5.6032e-05,-4.32667e-06,1.72856e-05,0.0112064,-0.000865334,0.00345711,0,0,0,0,0.0648444,0.509306,-0.995529,28.9375,1,22914,2337063
39,2,-0.665241,-0.0784061,9.79474,0.0623642,-0.531752,1.00558,-0.00665147,-0.000792426,0.0979474,1,4.20362e-05,4.70488e-06,9.78983e-06,0.00840725,0.000940977,0.00195797,0,0,0,0,0.0648776,0.510246,-0.993488,28.9375,1,22915,2337163
40,1,-0.665241,-0.0784061,9.79474,0.0623642,-0.531752,1.00558,-0.00665147,-0.000792426,0.0979474,1,4.20362e-05,4.70488e-06,9.78983e-06,0.00840725,0.000940977,0.00195797,0,0,0,0,0.0648776,0.510246,-0.993488,28.9375,1,22915,2337163
40,2,-0.673614,-0.091288,9.78757,0.0568652,-0.549527,0.999027,-0.0067379,-0.000921993,0.0978755,1,4.51412e-05,-9.17562e-06,2.05413e-05,0.00902823,-0.00183512,0.00410826,0,0,0,0,0.0638949,0.51075,-0.993978,28.9375,1,22916,2337263
41,1,-0.673614,-0.091288,9.78757,0.0568652,-0.549527,0.999027,-0.0067379,-0.000921993,0.0978755,1,4.51412e-05,-9.17562e-06,2.05413e-05,0.00902823,-0.00183512,0.00410826,0,0,0,0,0.0638949,0.51075,-0.993978,28.9375,1,22916,2337263
41,2,-0.684894,-0.0883225,9.79208,0.0430369,-0.54953,1.00305,-0.00685032,-0.000893204,0.0979206,1,4.9429e-05,-7.28624e-06,2.18492e-05,0.00988579,-0.00145725,0.00436984,0,0,0,0,0.0648325,0.51076,-0.994992,28.9375,1,22917,2337363
42,1,-0.684894,-0.0883225,9.79208,0.0430369,-0.54953,1.00305,-0.00685032,-0.000893204,0.0979206,1,4.9429e-05,-7.28624e-06,2.18492e-05,0.00988579,-0.00145725,0.00436984,0,0,0,0,0.0648325,0.51076,-0.994992,28.9375,1,22917,2337363
42,2,-0.667617,-0.0738181,9.78361,0.0633975,-0.53105,0.989435,-0.00667834,-0.000747035,0.0978359,1,4.30457e-05,-1.13326e-05,3.22908e-05,0.00860914,-0.00226652,0.00645815,0,0,0,0,0.0652847,0.510296,-0.996519,28.9375,1,22918,2337463
43,1,-0.667617,-0.0738181,9.78361,0.0633975,-0.53105,0.989435,-0.00667834,-0.000747035,0.0978359,1,4.30457e-05,-1.13326e-05,3.22908e-05,0.00860914,-0.00226652,0.00645815,0,0,0,0,0.0652847,0.510296,-0.996519,28.9375,1,22918,2337463
43,2,-0.669184,-0.0912679,9.79093,0.0581447,-0.550413,1.00155,-0.00669281,-0.000922252,0.0979091,1,4.66034e-05,-5.26916e-06,3.33823e-05,0.00932068,-0.00105383,0.00667646,0,0,0,0,0.0648401,0.508827,-0.996045,28.9375,1,22919,2337563
44,1,-0.669184,-0.0912679,9.79093,0.0581447,-0.550413,1.00155,-0.00669281,-0.000922252,0.0979091,1,4.66034e-05,-5.26916e-06,3.33823e-05,0.00932068,-0.00105383,0.00667646,0,0,0,0,0.0648401,0.508827,-0.996045,28.9375,1,22919,2337563
44,2,-0.67918,-0.0790847,9.78194,0.046265,-0.542145,0.993249,-0.00679499,-0.00080027,0.0978191,1,4.59624e-05,-1.65349e-05,3.17508e-05,0.00919249,-0.00330697,0.00635017,0,0,0,0,0.0648321,0.509315,-0.996034,28.9375,1,22920,2337663
45,1,-0.67918,-0.0790847,9.78194,0.046265,-0.542145,0.993249,-0.00679499,-0.00080027,0.0978191,1,4.59624e-05,-1.65349e-05,3.17508e-05,0.00919249,-0.00330697,0.00635017,0,0,0,0,0.0648321,0.509315,-0.996034,28.9375,1,22920,2337663
45,2,-0.679319,-0.0777056,9.79317,0.046866,-0.540019,1.00303,-0.00679776,-0.000788235,0.0979313,1,5.56056e-05,-2.3514e-05,2.11373e-05,0.0111211,-0.0047028,0.00422746,0,0,0,0,0.0643761,0.510746,-0.99398,28.9375,1,22921,2337763
46,1,-0.679319,-0.0777056,9.79317,0.046866,-0.540019,1.00303,-0.00679776,-0.000788235,0.0979313,1,5.56056e-05,-2.3514e-05,2.11373e-05,0.0111211,-0.0047028,0.00422746,0,0,0,0,0.0643761,0.510746,-0.99398,28.9375,1,22921,2337763
46,2,-0.672973,-0.0860701,9.79235,0.0551612,-0.550064,1.0047,-0.00673064,-0.00086808,0.0979234,1,3.65153e-05,-4.78159e-06,1.69258e-05,0.00730306,-0.000956318,0.00338515,0,0,0,0,0.0629531,0.510262,-0.993479,28.9375,1,22922,2337863
46,3,-0.672973,-0.0860701,9.79235,0.0551612,-0.550064,1.0047,-0.00673064,-0.00086808,0.0979234,1,3.65153e-05,-4.78159e-06,1.69258e-05,0.00730306,-0.000956318,0.00338515,0,0,0,0,0.0629531,0.510262,-0.993479,28.9375,1,22922,2337863
46,4,-0.667796,-0.0818164,9.79203,0.0610538,-0.548537,1.00121,-0.00667969,-0.000827693,0.0979201,1,4.75702e-05,-8.9744e-06,1.59513e-05,0.00951404,-0.00179488,0.00319026,0,0,0,0,0.062435,0.510293,-0.994991,28.9375,1,22923,2337963
47,1,-0.667796,-0.0818164,9.79203,0.0610538,-0.548537,1.00121,-0.00667969,-0.000827693,0.0979201,1,4.75702e-05,-8.9744e-06,1.59513e-05,0.00951404,-0.00179488,0.00319026,0,0,0,0,0.062435,0.510293,-0.994991,28.9375,1,22923,2337963
47,2,-0.674892,-0.0968592,9.78957,0.0522644,-0.562744,0.997752,-0.00675168,-0.00097818,0.0978954,1,4.73912e-05,-1.43146e-05,2.29516e-05,0.00947823,-0.00286291,0.00459033,0,0,0,0,0.0623984,0.511765,-0.995463,28.9375,1,22924,2338063
48,1,-0.674892,-0.0968592,9.78957,0.0522644,-0.562744,0.997752,-0.00675168,-0.00097818,0.0978954,1,4.73912e-05,-1.43146e-05,2.29516e-05,0.00947823,-0.00286291,0.00459033,0,0,0,0,0.0623984,0.511765,-0.995463,28.9375,1,22924,2338063
48,2,-0.687399,-0.083942,9.78602,0.0420581,-0.553527,0.995621,-0.00687349,-0.000848374,0.0978602,1,4.42266e-05,2.34161e-06,2.16905e-05,0.00884533,0.000468323,0.00433811,0,0,0,0,0.0639068,0.509296,-0.994515,28.9375,1,22925,2338163
49,1,-0.687399,-0.083942,9.78602,0.0420581,-0.553527,0.995621,-0.00687349,-0.000848374,0.0978602,1,4.42266e-05,2.34161e-06,2.16905e-05,0.00884533,0.000468323,0.00433811,0,0,0,0,0.0639068,0.509296,-0.994515,28.9375,1,22925,2338163
49,2,-0.668066,-0.0762408,9.78257,0.0620266,-0.54823,0.989495,-0.00668146,-0.000770678,0.0978255,1,4.05739e-05,-4.3064e-06,2.47473e-05,0.00811478,-0.00086128,0.00494945,0,0,0,0,0.0649014,0.507337,-0.994563,28.9375,1,22926,2338263
50,1,-0.668066,-0.0762408,9.78257,0.0620266,-0.54823,0.989495,-0.00668146,-0.000770678,0.0978255,1,4.05739e-05,-4.3064e-06,2.47473e-05,0.00811478,-0.00086128,0.00494945,0,0,0,0,0.0649014,0.507337,-0.994563,28.9375,1,22926,2338263
50,2,-0.677997,-0.090616,9.78591,0.0494863,-0.560382,0.997722,-0.00678282,-0.00091681,0.0978588,1,5.25005e-05,-1.48601e-05,2.75896e-05,0.0105001,-0.00297202,0.00551791,0,0,0,0,0.0644041,0.508317,-0.994539,28.9375,1,22927,2338363
51,1,-0.677997,-0.090616,9.78591,0.0494863,-0.560382,0.997722,-0.00678282,-0.00091681,0.0978588,1,5.25005e-05,-1.48601e-05,2.75896e-05,0.0105001,-0.00297202,0.00551791,0,0,0,0,0.0644041,0.508317,-0.994539,28.9375,1,22927,2338363
51,2,-0.673381,-0.0894069,9.78826,0.0515229,-0.560338,0.999089,-0.00673242,-0.000901643,0.0978826,1,3.73237e-05,6.88439e-06,1.98575e-05,0.00746475,0.00137688,0.0039715,0,0,0,0,0.0638949,0.51075,-0.993978,28.9375,1,22928,2338463
52,1,-0.673381,-0.0894069,9.78826,0.0515229,-0.560338,0.999089,-0.00673242,-0.000901643,0.0978826,1,3.73237e-05,6.88439e-06,1.98575e-05,0.00746475,0.00137688,0.0039715,0,0,0,0,0.0638949,0.51075,-0.993978,28.9375,1,22928,2338463
52,2,-0.675398,-0.0754106,9.78297,0.0520906,-0.545862,0.991442,-0.00675816,-0.000763192,0.0978293,1,4.59254e-05,-2.14205e-05,7.39452e-06,0.00918507,-0.0042841,0.0014789,0,0,0,0,0.0653141,0.512202,-0.993952,28.9375,1,22929,2338563
53,1,-0.675398,-0.0754106,9.78297,0.0520906,-0.545862,0.991442,-0.00675816,-0.000763192,0.0978293,1,4.59254e-05,-2.14205e-05,7.39452e-06,0.00918507,-0.0042841,0.0014789,0,0,0,0,0.0653141,0.512202,-0.993952,28.9375,1,22929,2338563
53,2,-0.680085,-0.0887308,9.77881,0.0438411,-0.562913,0.983591,-0.00680332,-0.000894178,0.0977879,1,3.42019e-05,-1.27442e-05,1.32787e-05,0.00684039,-0.00254883,0.00265574,0,0,0,0,0.0657216,0.513697,-0.995941,28.9375,1,22930,2338663
54,1,-0.680085,-0.0887308,9.77881,0.0438411,-0.562913,0.983591,-0.00680332,-0.000894178,0.0977879,1,3.42019e-05,-1.27442e-05,1.32787e-05,0.00684039,-0.00254883,0.00265574,0,0,0,0,0.0657216,0.513697,-0.995941,28.9375,1,22930,2338663
54,2,-0.672224,-0.0816034,9.79477,0.0563667,-0.558251,1.00195,-0.00672527,-0.000822676,0.0979474,1,3.28441e-05,-1.5592e-05,1.54637e-05,0.00656882,-0.0031184,0.00309275,0,0,0,0,0.0643305,0.509816,-0.996526,28.9375,1,22931,2338763
55,1,-0.672224,-0.0816034,9.79477,0.0563667,-0.558251,1.00195,-0.00672527,-0.000822676,0.0979474,1,3.28441e-05,-1.5592e-05,1.54637e-05,0.00656882,-0.0031184,0.00309275,0,0,0,0,0.0643305,0.509816,-0.996526,28.9375,1,22931,2338763
55,2,-0.672948,-0.072084,9.78842,0.0543258,-0.541893,1.00084,-0.00673411,-0.000726354,0.0978838,1,2.64198e-05,-2.38121e-05,2.53804e-05,0.00528395,-0.00476243,0.00507607,0,0,0,0,0.0619862,0.508346,-0.995032,28.9375,1,22932,2338863
56,1,-0.672948,-0.072084,9.78842,0.0543258,-0.541893,1.00084,-0.00673411,-0.000726354,0.0978838,1,2.64198e-05,-2.38121e-05,2.53804e-05,0.00528395,-0.00476243,0.00507607,0,0,0,0,0.0619862,0.508346,-0.995032,28.9375,1,22932,2338863
56,2,-0.677434,-0.0781415,9.78941,0.0479217,-0.54923,0.995586,-0.00677544,-0.000790321,0.0978939,1,4.37666e-05,-5.81362e-06,2.48158e-05,0.00875333,-0.00116272,0.00496316,0,0,0,0,0.0625418,0.509733,-0.990964,28.9375,1,22933,2338963
57,1,-0.677434,-0.0781415,9.78941,0.0479217,-0.54923,0.995586,-0.00677544,-0.000790321,0.0978939,1,4.37666e-05,-5.81362e-06,2.48158e-05,0.00875333,-0.00116272,0.00496316,0,0,0,0,0.0625418,0.509733,-0.990964,28.9375,1,22933,2338963
57,2,-0.670583,-0.0798881,9.78324,0.0553399,-0.555381,0.990161,-0.00670785,-0.000811088,0.0978321,1,6.02847e-05,-1.05597e-05,3.06922e-05,0.0120569,-0.00211195,0.00613843,0,0,0,0,0.0634836,0.510222,-0.991462,28.9375,1,22934,2339063
58,1,-0.670583,-0.0798881,9.78324,0.0553399,-0.555381,0.990161,-0.00670785,-0.000811088,0.0978321,1,6.02847e-05,-1.05597e-05,3.06922e-05,0.0120569,-0.00211195,0.00613843,0,0,0,0,0.0634836,0.510222,-0.991462,28.9375,1,22934,2339063
58,2,-0.671753,-0.0927837,9.79468,0.0560159,-0.573642,0.996043,-0.00672077,-0.000935511,0.0979465,1,3.82625e-05,-1.66761e-05,1.33217e-05,0.00765251,-0.00333522,0.00266434,0,0,0,0,0.0648776,0.510246,-0.993488,28.9375,1,22935,2339163
59,1,-0.671753,-0.0927837,9.79468,0.0560159,-0.573642,0.996043,-0.00672077,-0.000935511,0.0979465,1,3.82625e-05,-1.66761e-05,1.33217e-05,0.00765251,-0.00333522,0.00266434,0,0,0,0,0.0648776,0.510246,-0.993488,28.9375,1,22935,2339163
59,2,-0.676346,-0.0795335,9.78532,0.049554,-0.554327,0.99353,-0.00676614,-0.000803511,0.0978529,1,4.04269e-05,-1.38583e-05,1.95389e-05,0.00808538,-0.00277167,0.00390778,0,0,0,0,0.0643267,0.510782,-0.995999,28.9375,1,22936,2339263
60,1,-0.676346,-0.0795335,9.78532,0.049554,-0.554327,0.99353,-0.00676614,-0.000803511,0.0978529,1,4.04269e-05,-1.38583e-05,1.95389e-05,0.00808538,-0.00277167,0.00390778,0,0,0,0,0.0643267,0.510782,-0.995999,28.9375,1,22936,2339263
60,2,-0.679415,-0.0845365,9.78767,0.0494673,-0.561194,0.996418,-0.00679622,-0.000854979,0.0978764,1,4.68605e-05,-1.08966e-05,3.24453e-05,0.00937209,-0.00217932,0.00648907,0,0,0,0,0.0643471,0.510286,-0.995505,28.9375,1,22937,2339363
61,1,-0.679415,-0.0845365,9.78767,0.0494673,-0.561194,0.996418,-0.00679622,-0.000854979,0.0978764,1,4.68605e-05,-1.08966e-05,3.24453e-05,0.00937209,-0.00217932,0.00648907,0,0,0,0,0.0643471,0.510286,-0.995505,28.9375,1,22937,2339363
61,2,-0.671122,-0.0934163,9.78889,0.0513827,-0.572949,0.996995,-0.00671461,-0.00094375,0.0978886,1,4.71454e-05,-1.75499e-05,2.66023e-05,0.00942908,-0.00350999,0.00532045,0,0,0,0,0.0643799,0.50978,-0.994506,28.9375,1,22938,2339463
62,1,-0.671122,-0.0934163,9.78889,0.0513827,-0.572949,0.996995,-0.00671461,-0.00094375,0.0978886,1,4.71454e-05,-1.75499e-05,2.66023e-05,0.00942908,-0.00350999,0.00532045,0,0,0,0,0.0643799,0.50978,-0.994506,28.9375,1,22938,2339463
62,2,-0.675813,-0.0841726,9.79001,0.0481772,-0.561865,0.997607,-0.00675773,-0.000851123,0.0979,1,4.68064e-05,1.89226e-06,1.7196e-05,0.00936128,0.000378451,0.00343921,0,0,0,0,0.0648776,0.510246,-0.993488,28.9375,1,22939,2339563
63,1,-0.675813,-0.0841726,9.79001,0.0481772,-0.561865,0.997607,-0.00675773,-0.000851123,0.0979,1,4.68064e-05,1.89226e-06,1.7196e-05,0.00936128,0.000378451,0.00343921,0,0,0,0,0.0648776,0.510246,-0.993488,28.9375,1,22939,2339563
63,2,-0.66685,-0.0793975,9.78457,0.0593373,-0.56413,0.992608,-0.00667188,-0.000802142,0.0978454,1,3.97898e-05,-1.75295e-05,2.8571e-05,0.00795796,-0.00350589,0.00571421,0,0,0,0,0.0648577,0.512188,-0.99294,28.9375,1,22940,2339663
64,1,-0.66685,-0.0793975,9.78457,0.0593373,-0.56413,0.992608,-0.00667188,-0.000802142,0.0978454,1,3.97898e-05,-1.75295e-05,2.8571e-05,0.00795796,-0.00350589,0.00571421,0,0,0,0,0.0648577,0.512188,-0.99294,28.9375,1,22940,2339663
64,2,-0.671406,-0.0941331,9.78618,0.0550183,-0.576268,0.99519,-0.00671796,-0.000948059,0.0978615,1,3.35295e-05,-2.00737e-05,1.23382e-05,0.0067059,-0.00401474,0.00246763,0,0,0,0,0.0653222,0.511714,-0.993963,28.9375,1,22941,2339763
65,1,-0.671406,-0.0941331,9.78618,0.0550183,-0.576268,0.99519,-0.00671796,-0.000948059,0.0978615,1,3.35295e-05,-2.00737e-05,1.23382e-05,0.0067059,-0.00401474,0.00246763,0,0,0,0,0.0653222,0.511714,-0.993963,28.9375,1,22941,2339763
65,2,-0.682098,-0.0875043,9.79343,0.0386061,-0.568808,1.00286,-0.00682259,-0.000882037,0.0979341,1,3.44533e-05,-8.33728e-06,1.79652e-05,0.00689067,-0.00166746,0.00359305,0,0,0,0,0.0657905,0.510274,-0.995512,28.9375,1,22942,2339863
66,1,-0.682098,-0.0875043,9.79343,0.0386061,-0.568808,1.00286,-0.00682259,-0.000882037,0.0979341,1,3.44533e-05,-8.33728e-06,1.79652e-05,0.00689067,-0.00166746,0.00359305,0,0,0,0,0.0657905,0.510274,-0.995512,28.9375,1,22942,2339863
66,2,-0.670853,-0.0769495,9.78971,0.0530003,-0.564087,0.994372,-0.00671246,-0.00077894,0.0978968,1,4.70579e-05,-2.01632e-05,1.71921e-05,0.00941158,-0.00403263,0.00343842,0,0,0,0,0.0648444,0.509306,-0.995529,28.9375,1,22943,2339963
67,1,-0.670853,-0.0769495,9.78971,0.0530003,-0.564087,0.994372,-0.00671246,-0.00077894,0.0978968,1,4.70579e-05,-2.01632e-05,1.71921e-05,0.00941158,-0.00403263,0.00343842,0,0,0,0,0.0648444,0.509306,-0.995529,28.9375,1,22943,2339963
67,2,-0.674274,-0.0800677,9.79005,0.0527605,-0.563016,0.991457,-0.00674509,-0.00081118,0.0979002,1,5.17147e-05,-1.22207e-05,2.79245e-05,0.0103429,-0.00244415,0.00558489,0,0,0,0,0.0629403,0.508825,-0.995026,28.9375,1,22944,2340063
68,1,-0.674274,-0.0800677,9.79005,0.0527605,-0.563016,0.991457,-0.00674509,-0.00081118,0.0979002,1,5.17147e-05,-1.22207e-05,2.79245e-05,0.0103429,-0.00244415,0.00558489,0,0,0,0,0.0629403,0.508825,-0.995026,28.9375,1,22944,2340063
68,2,-0.679368,-0.091855,9.79914,0.0450421,-0.578324,1.00751,-0.00679546,-0.000927078,0.0979912,1,4.21683e-05,-9.26837e-06,1.94035e-05,0.00843367,-0.00185367,0.0038807,0,0,0,0,0.0639481,0.509748,-0.992485,28.9375,1,22945,2340163
69,1,-0.679368,-0.091855,9.79914,0.0450421,-0.578324,1.00751,-0.00679546,-0.000927078,0.0979912,1,4.21683e-05,-9.26837e-06,1.94035e-05,0.00843367,-0.00185367,0.0038807,0,0,0,0,0.0639481,0.509748,-0.992485,28.9375,1,22945,2340163
69,2,-0.666983,-0.0802831,9.78422,0.0589746,-0.566639,0.991192,-0.00667056,-0.000813055,0.0978421,1,5.13792e-05,-3.8521e-06,1.27164e-05,0.0102758,-0.00077042,0.00254327,0,0,0,0,0.0639116,0.51122,-0.992957,28.9375,1,22946,2340263
70,1,-0.666983,-0.0802831,9.78422,0.0589746,-0.566639,0.991192,-0.00667056,-0.000813055,0.0978421,1,5.13792e-05,-3.8521e-06,1.27164e-05,0.0102758,-0.00077042,0.00254327,0,0,0,0,0.0639116,0.51122,-0.992957,28.9375,1,22946,2340263
70,2,-0.67531,-0.0867164,9.78084,0.0464186,-0.573664,0.986287,-0.00675654,-0.000872438,0.0978081,1,2.55313e-05,-1.77584e-05,2.06977e-05,0.00510625,-0.00355169,0.00413954,0,0,0,0,0.065326,0.510747,-0.994489,28.9375,1,22947,2340363
71,1,-0.67531,-0.0867164,9.78084,0.0464186,-0.573664,0.986287,-0.00675654,-0.000872438,0.0978081,1,2.55313e-05,-1.77584e-05,2.06977e-05,0.00510625,-0.00355169,0.00413954,0,0,0,0,0.065326,0.510747,-0.994489,28.9375,1,22947,2340363
71,2,-0.674415,-0.0886864,9.78589,0.0490194,-0.576397,0.99473,-0.006744,-0.000895191,0.0978588,1,4.18909e-05,6.92655e-07,9.52552e-06,0.00837819,0.000138531,0.0019051,0,0,0,0,0.0657459,0.512234,-0.995973,28.9375,1,22948,2340463
72,1,-0.674415,-0.0886864,9.78589,0.0490194,-0.576397,0.99473,-0.006744,-0.000895191,0.0978588,1,4.18909e-05,6.92655e-07,9.52552e-06,0.00837819,0.000138531,0.0019051,0,0,0,0,0.0657459,0.512234,-0.995973,28.9375,1,22948,2340463
72,2,-0.667298,-0.0881268,9.78653,0.0540671,-0.577543,0.993847,-0.00667334,-0.00089098,0.0978652,1,4.85311e-05,-1.96131e-06,1.6006e-05,0.00970622,-0.000392262,0.00320119,0,0,0,0,0.0643514,0.510764,-0.99499,28.9375,1,22949,2340563
73,1,-0.667298,-0.0881268,9.78653,0.0540671,-0.577543,0.993847,-0.00667334,-0.00089098,0.0978652,1,4.85311e-05,-1.96131e-06,1.6006e-05,0.00970622,-0.000392262,0.00320119,0,0,0,0,0.0643514,0.510764,-0.99499,28.9375,1,22949,2340563
73,2,-0.666518,-0.0827583,9.78861,0.0604287,-0.567501,0.993327,-0.0066678,-0.00083596,0.0978859,1,4.11123e-05,-1.35541e-05,2.4602e-05,0.00822246,-0.00271082,0.0049204,0,0,0,0,0.062965,0.508807,-0.994017,28.9375,1,22950,2340663
74,1,-0.666518,-0.0827583,9.78861,0.0604287,-0.567501,0.993327,-0.0066678,-0.00083596,0.0978859,1,4.11123e-05,-1.35541e-05,2.4602e-05,0.00822246,-0.00271082,0.0049204,0,0,0,0,0.062965,0.508807,-0.994017,28.9375,1,22950,2340663
74,2,-0.668258,-0.0795493,9.78899,0.0516253,-0.567061,0.993668,-0.00668515,-0.000806458,0.0978896,1,5.51156e-05,-1.32566e-05,1.30482e-05,0.0110231,-0.00265132,0.00260963,0,0,0,0,0.0624801,0.509778,-0.993488,28.9375,1,22951,2340763
75,1,-0.668258,-0.0795493,9.78899,0.0516253,-0.567061,0.993668,-0.00668515,-0.000806458,0.0978896,1,5.51156e-05,-1.32566e-05,1.30482e-05,0.0110231,-0.00265132,0.00260963,0,0,0,0,0.0624801,0.509778,-0.993488,28.9375,1,22951,2340763
75,2,-0.68521,-0.0855737,9.786,0.0402556,-0.574617,0.991555,-0.00685338,-0.000864473,0.0978598,1,4.31762e-05,-6.76509e-06,2.08187e-05,0.00863524,-0.00135302,0.00416373,0,0,0,0,0.061999,0.509782,-0.993485,28.9375,1,22952,2340863
76,1,-0.68521,-0.0855737,9.786,0.0402556,-0.574617,0.991555,-0.00685338,-0.000864473,0.0978598,1,4.31762e-05,-6.76509e-06,2.08187e-05,0.00863524,-0.00135302,0.00416373,0,0,0,0,0.061999,0.509782,-0.993485,28.9375,1,22952,2340863
76,2,-0.661833,-0.0806708,9.78486,0.0631534,-0.571756,0.992239,-0.00661968,-0.000815096,0.0978485,1,4.16562e-05,-7.00917e-06,1.77976e-05,0.00833124,-0.00140183,0.00355952,0,0,0,0,0.0624312,0.511259,-0.994465,28.9375,1,22953,2340963
77,1,-0.661833,-0.0806708,9.78486,0.0631534,-0.571756,0.992239,-0.00661968,-0.000815096,0.0978485,1,4.16562e-05,-7.00917e-06,1.77976e-05,0.00833124,-0.00140183,0.00355952,0,0,0,0,0.0624312,0.511259,-0.994465,28.9375,1,22953,2340963
77,2,-0.674486,-0.075844,9.78262,0.0499602,-0.568276,0.989137,-0.00674551,-0.000769246,0.097826,1,5.38789e-05,-3.46984e-06,1.96454e-05,0.0107758,-0.000693968,0.00392907,0,0,0,0,0.0633526,0.512245,-0.995457,28.9375,1,22954,2341063
78,1,-0.674486,-0.075844,9.78262,0.0499602,-0.568276,0.989137,-0.00674551,-0.000769246,0.097826,1,5.38789e-05,-3.46984e-06,1.96454e-05,0.0107758,-0.000693968,0.00392907,0,0,0,0,0.0633526,0.512245,-0.995457,28.9375,1,22954,2341063
78,2,-0.672111,-0.0719646,9.78399,0.0546773,-0.56457,0.990838,-0.00672293,-0.000725754,0.0978397,1,3.0879e-05,-9.33543e-06,4.83547e-06,0.00617579,-0.00186709,0.000967094,0,0,0,0,0.0638864,0.509793,-0.995009,28.9375,1,22955,2341163
79,1,-0.672111,-0.0719646,9.78399,0.0546773,-0.56457,0.990838,-0.00672293,-0.000725754,0.0978397,1,3.0879e-05,-9.33543e-06,4.83547e-06,0.00617579,-0.00186709,0.000967094,0,0,0,0,0.0638864,0.509793,-0.995009,28.9375,1,22955,2341163
79,2,-0.677368,-0.0750694,9.79656,0.0433737,-0.567469,1.00434,-0.00677659,-0.000759499,0.0979654,1,4.3871e-05,-1.49456e-05,1.54488e-05,0.0087742,-0.00298912,0.00308975,0,0,0,0,0.0629569,0.509295,-0.994006,28.9375,1,22956,2341263
80,1,-0.677368,-0.0750694,9.79656,0.0433737,-0.567469,1.00434,-0.00677659,-0.000759499,0.0979654,1,4.3871e-05,-1.49456e-05,1.54488e-05,0.0087742,-0.00298912,0.00308975,0,0,0,0,0.0629569,0.509295,-0.994006,28.9375,1,22956,2341263
80,2,-0.675453,-0.0803584,9.78292,0.0482288,-0.573435,0.990649,-0.00675458,-0.000812587,0.0978291,1,4.50612e-05,-3.5606e-07,1.3828e-05,0.00901224,-7.1212e-05,0.0027656,0,0,0,0,0.0648937,0.50927,-0.99351,28.9375,1,22957,2341363
81,1,-0.675453,-0.0803584,9.78292,0.0482288,-0.573435,0.990649,-0.00675458,-0.000812587,0.0978291,1,4.50612e-05,-3.5606e-07,1.3828e-05,0.00901224,-7.1212e-05,0.0027656,0,0,0,0,0.0648937,0.50927,-0.99351,28.9375,1,22957,2341363
81,2,-0.671424,-0.0747936,9.79007,0.0568133,-0.568598,0.99348,-0.00671494,-0.000752713,0.0979006,1,2.34693e-05,-3.63971e-06,1.35415e-05,0.00469386,-0.000727942,0.0027083,0,0,0,0,0.0643718,0.510268,-0.994496,28.9375,1,22958,2341463
82,1,-0.671424,-0.0747936,9.79007,0.0568133,-0.568598,0.99348,-0.00671494,-0.000752713,0.0979006,1,2.34693e-05,-3.63971e-06,1.35415e-05,0.00469386,-0.000727942,0.0027083,0,0,0,0,0.0643718,0.510268,-0.994496,28.9375,1,22958,2341463
82,2,-0.67509,-0.0815961,9.79173,0.0485762,-0.57394,0.997473,-0.00675034,-0.000823812,0.0979173,1,3.88772e-05,2.71768e-06,1.7613e-05,0.00777544,0.000543537,0.00352261,0,0,0,0,0.0634138,0.510754,-0.993975,28.9375,1,22959,2341563
83,1,-0.67509,-0.0815961,9.79173,0.0485762,-0.57394,0.997473,-0.00675034,-0.000823812,0.0979173,1,3.88772e-05,2.71768e-06,1.7613e-05,0.00777544,0.000543537,0.00352261,0,0,0,0,0.0634138,0.510754,-0.993975,28.9375,1,22959,2341563
83,2,-0.67977,-0.0887896,9.79102,0.04438,-0.586582,1.00123,-0.00679853,-0.000895591,0.0979101,1,3.86033e-05,-4.34361e-06,9.9838e-06,0.00772067,-0.000868721,0.00199676,0,0,0,0,0.0633526,0.512245,-0.995457,28.9375,1,22960,2341663
84,1,-0.67977,-0.0887896,9.79102,0.04438,-0.586582,1.00123,-0.00679853,-0.000895591,0.0979101,1,3.86033e-05,-4.34361e-06,9.9838e-06,0.00772067,-0.000868721,0.00199676,0,0,0,0,0.0633526,0.512245,-0.995457,28.9375,1,22960,2341663
84,2,-0.681434,-0.0801072,9.78942,0.0452679,-0.57652,0.998384,-0.00681745,-0.000810702,0.0978939,1,4.71008e-05,-1.61135e-05,2.99551e-05,0.00942016,-0.00322271,0.00599101,0,0,0,0,0.0628838,0.51224,-0.99495,28.9375,1,22961,2341763
85,1,-0.681434,-0.0801072,9.78942,0.0452679,-0.57652,0.998384,-0.00681745,-0.000810702,0.0978939,1,4.71008e-05,-1.61135e-05,2.99551e-05,0.00942016,-0.00322271,0.00599101,0,0,0,0,0.0628838,0.51224,-0.99495,28.9375,1,22961,2341763
85,2,-0.676146,-0.0911235,9.78826,0.0505291,-0.591169,0.992581,-0.00676051,-0.000919066,0.0978825,1,3.81916e-05,4.60992e-06,2.62131e-05,0.00763832,0.000921984,0.00524263,0,0,0,0,0.0634181,0.511233,-0.99346,28.9375,1,22962,2341863
86,1,-0.676146,-0.0911235,9.78826,0.0505291,-0.591169,0.992581,-0.00676051,-0.000919066,0.0978825,1,3.81916e-05,4.60992e-06,2.62131e-05,0.00763832,0.000921984,0.00524263,0,0,0,0,0.0634181,0.511233,-0.99346,28.9375,1,22962,2341863
86,2,-0.672315,-0.08653,9.7876,0.0512027,-0.584228,0.99615,-0.00672498,-0.000873141,0.0978758,1,3.80966e-05,-9.57202e-06,2.84744e-05,0.00761931,-0.00191441,0.00569489,0,0,0,0,0.0649023,0.510228,-0.992479,28.9375,1,22963,2341963
87,1,-0.672315,-0.08653,9.7876,0.0512027,-0.584228,0.99615,-0.00672498,-0.000873141,0.0978758,1,3.80966e-05,-9.57202e-06,2.84744e-05,0.00761931,-0.00191441,0.00569489,0,0,0,0,0.0649023,0.510228,-0.992479,28.9375,1,22963,2341963
87,2,-0.670646,-0.0814836,9.78491,0.0580245,-0.572845,0.987789,-0.00670859,-0.000822443,0.0978489,1,3.75266e-05,-1.10568e-05,1.95709e-05,0.00750533,-0.00221137,0.00391417,0,0,0,0,0.065828,0.511692,-0.992955,28.9375,1,22964,2342063
88,1,-0.670646,-0.0814836,9.78491,0.0580245,-0.572845,0.987789,-0.00670859,-0.000822443,0.0978489,1,3.75266e-05,-1.10568e-05,1.95709e-05,0.00750533,-0.00221137,0.00391417,0,0,0,0,0.065828,0.511692,-0.992955,28.9375,1,22964,2342063
88,2,-0.673342,-0.0742718,9.78365,0.0518486,-0.572887,0.991478,-0.00673704,-0.000750999,0.0978361,1,4.09353e-05,-1.86193e-05,2.00719e-05,0.00818705,-0.00372385,0.00401438,0,0,0,0,0.0667617,0.512668,-0.993443,28.9375,1,22965,2342163
89,1,-0.673342,-0.0742718,9.78365,0.0518486,-0.572887,0.991478,-0.00673704,-0.000750999,0.0978361,1,4.09353e-05,-1.86193e-05,2.00719e-05,0.00818705,-0.00372385,0.00401438,0,0,0,0,0.0667617,0.512668,-0.993443,28.9375,1,22965,2342163
89,2,-0.678848,-0.0822159,9.79175,0.0397567,-0.580256,0.997299,-0.00678994,-0.000831475,0.0979173,1,4.63388e-05,-7.61646e-06,1.77719e-05,0.00926775,-0.00152329,0.00355437,0,0,0,0,0.0648287,0.511727,-0.994465,28.9375,1,22966,2342263
90,1,-0.678848,-0.0822159,9.79175,0.0397567,-0.580256,0.997299,-0.00678994,-0.000831475,0.0979173,1,4.63388e-05,-7.61646e-06,1.77719e-05,0.00926775,-0.00152329,0.00355437,0,0,0,0,0.0648287,0.511727,-0.994465,28.9375,1,22966,2342263
90,2,-0.672723,-0.0753491,9.79448,0.0540573,-0.573699,0.998642,-0.00672845,-0.000761554,0.0979447,1,4.00841e-05,-6.36449e-06,1.56761e-05,0.00801683,-0.0012729,0.00313522,0,0,0,0,0.0633806,0.509815,-0.996016,28.9375,1,22967,2342363
91,1,-0.672723,-0.0753491,9.79448,0.0540573,-0.573699,0.998642,-0.00672845,-0.000761554,0.0979447,1,4.00841e-05,-6.36449e-06,1.56761e-05,0.00801683,-0.0012729,0.00313522,0,0,0,0,0.0633806,0.509815,-0.996016,28.9375,1,22967,2342363
91,2,-0.670494,-0.0840788,9.78796,0.0546046,-0.584186,0.991155,-0.00670752,-0.000849187,0.0978793,1,4.11255e-05,-1.34106e-05,2.59801e-05,0.0082251,-0.00268211,0.00519602,0,0,0,0,0.0639149,0.508808,-0.994526,28.9375,1,22968,2342463
92,1,-0.670494,-0.0840788,9.78796,0.0546046,-0.584186,0.991155,-0.00670752,-0.000849187,0.0978793,1,4.11255e-05,-1.34106e-05,2.59801e-05,0.0082251,-0.00268211,0.00519602,0,0,0,0,0.0639149,0.508808,-0.994526,28.9375,1,22968,2342463
92,2,-0.684619,-0.0796603,9.79011,0.0403618,-0.580961,0.99686,-0.00684732,-0.000803922,0.097901,1,3.60123e-05,-5.91598e-06,1.95336e-05,0.00720246,-0.0011832,0.00390672,0,0,0,0,0.063997,0.508266,-0.991508,28.9375,1,22969,2342563
93,1,-0.684619,-0.0796603,9.79011,0.0403618,-0.580961,0.99686,-0.00684732,-0.000803922,0.097901,1,3.60123e-05,-5.91598e-06,1.95336e-05,0.00720246,-0.0011832,0.00390672,0,0,0,0,0.063997,0.508266,-0.991508,28.9375,1,22969,2342563
93,2,-0.672823,-0.0887741,9.79268,0.0512554,-0.588144,0.995874,-0.00673187,-0.000895349,0.0979265,1,3.73069e-05,-1.88091e-05,2.23722e-05,0.00746137,-0.00376182,0.00447445,0,0,0,0,0.0634224,0.511712,-0.992944,28.9375,1,22970,2342663
94,1,-0.672823,-0.0887741,9.79268,0.0512554,-0.588144,0.995874,-0.00673187,-0.000895349,0.0979265,1,3.73069e-05,-1.88091e-05,2.23722e-05,0.00746137,-0.00376182,0.00447445,0,0,0,0,0.0634224,0.511712,-0.992944,28.9375,1,22970,2342663
94,2,-0.671062,-0.0755721,9.7826,0.0525971,-0.58104,0.987905,-0.00671169,-0.000764539,0.0978258,1,4.44223e-05,-5.49654e-06,9.46957e-06,0.00888445,-0.00109931,0.00189391,0,0,0,0,0.065269,0.512716,-0.995455,28.9375,1,22971,2342763
95,1,-0.671062,-0.0755721,9.7826,0.0525971,-0.58104,0.987905,-0.00671169,-0.000764539,0.0978258,1,4.44223e-05,-5.49654e-06,9.46957e-06,0.00888445,-0.00109931,0.00189391,0,0,0,0,0.065269,0.512716,-0.995455,28.9375,1,22971,2342763
95,2,-0.682931,-0.0788357,9.78434,0.045501,-0.578947,0.990517,-0.00683027,-0.000794731,0.0978433,1,3.09759e-05,-5.09038e-06,2.28937e-05,0.00619517,-0.00101808,0.00457874,0,0,0,0,0.0643391,0.510773,-0.995494,28.9375,1,22972,2342863
96,1,-0.682931,-0.0788357,9.78434,0.045501,-0.578947,0.990517,-0.00683027,-0.000794731,0.0978433,1,3.09759e-05,-5.09038e-06,2.28937e-05,0.00619517,-0.00101808,0.00457874,0,0,0,0,0.0643391,0.510773,-0.995494,28.9375,1,22972,2342863
96,2,-0.687296,-0.0823116,9.78367,0.0386988,-0.581652,0.989874,-0.00687678,-0.000831935,0.0978363,1,4.50445e-05,-1.95351e-05,3.98817e-07,0.0090089,-0.00390701,7.97634e-05,0,0,0,0,0.0634053,0.509797,-0.995007,28.9375,1,22973,2342963
97,1,-0.687296,-0.0823116,9.78367,0.0386988,-0.581652,0.989874,-0.00687678,-0.000831935,0.0978363,1,4.50445e-05,-1.95351e-05,3.98817e-07,0.0090089,-0.00390701,7.97634e-05,0,0,0,0,0.0634053,0.509797,-0.995007,28.9375,1,22973,2342963
97,2,-0.669519,-0.0803779,9.79205,0.0525947,-0.587335,0.994744,-0.00669775,-0.000813717,0.0979203,1,5.00846e-05,-1.31934e-05,9.64097e-06,0.0100169,-0.00263868,0.00192819,0,0,0,0,0.063438,0.509291,-0.994008,28.9375,1,22974,2343063
98,1,-0.669519,-0.0803779,9.79205,0.0525947,-0.587335,0.994744,-0.00669775,-0.000813717,0.0979203,1,5.00846e-05,-1.31934e-05,9.64097e-06,0.0100169,-0.00263868,0.00192819,0,0,0,0,0.063438,0.509291,-0.994008,28.9375,1,22974,2343063
98,2,-0.667828,-0.0775435,9.78901,0.0597893,-0.582876,0.991738,-0.00668192,-0.000787056,0.0978898,1,5.81592e-05,-1.87384e-05,1.75703e-05,0.0116318,-0.00374768,0.00351406,0,0,0,0,0.0639685,0.509251,-0.991991,28.9375,1,22975,2343163
98,3,-0.667828,-0.0775435,9.78901,0.0597893,-0.582876,0.991738,-0.00668192,-0.000787056,0.0978898,1,5.81592e-05,-1.87384e-05,1.75703e-05,0.0116318,-0.00374768,0.00351406,0,0,0,0,0.0639685,0.509251,-0.991991,28.9375,1,22975,2343163
98,4,-0.67192,-0.0813708,9.78154,0.0506592,-0.588969,0.988277,-0.00672415,-0.000822151,0.097815,1,4.1969e-05,-2.54363e-05,1.72466e-05,0.0083938,-0.00508726,0.00344932,0,0,0,0,0.0653426,0.511217,-0.993469,28.9375,1,22976,2343263
99,1,-0.67192,-0.0813708,9.78154,0.0506592,-0.588969,0.988277,-0.00672415,-0.000822151,0.097815,1,4.1969e-05,-2.54363e-05,1.72466e-05,0.0083938,-0.00508726,0.00344932,0,0,0,0,0.0653426,0.511217,-0.993469,28.9375,1,22976,2343263
99,2,-0.662522,-0.0769015,9.78422,0.0605711,-0.583535,0.990432,-0.00662723,-0.000776539,0.097842,1,3.75993e-05,-1.03918e-05,1.25524e-05,0.00751986,-0.00207836,0.00251049,0,0,0,0,0.0643433,0.511252,-0.994979,28.9375,1,22977,2343363
100,1,-0.662522,-0.0769015,9.78422,0.0605711,-0.583535,0.990432,-0.00662723,-0.000776539,0.097842,1,3.75993e-05,-1.03918e-05,1.25524e-05,0.00751986,-0.00207836,0.00251049,0,0,0,0,0.0643433,0.511252,-0.994979,28.9375,1,22977,2343363
100,2,-0.673679,-0.0837392,9.7822,0.0542348,-0.593867,0.985134,-0.00673868,-0.00084736,0.0978218,1,4.89728e-05,-9.90522e-06,2.87014e-05,0.00979455,-0.00198104,0.00574029,0,0,0,0,0.0638703,0.510768,-0.994987,28.9375,1,22978,2343463
100,3,-0.673679,-0.0837392,9.7822,0.0542348,-0.593867,0.985134,-0.00673868,-0.00084736,0.0978218,1,4.89728e-05,-9.90522e-06,2.87014e-05,0.00979455,-0.00198104,0.00574029,0,0,0,0,0.0638703,0.510768,-0.994987,28.9375,1,22978,2343463
100,4,-0.668176,-0.0843195,9.79607,0.0557094,-0.592903,0.998791,-0.00668282,-0.000850918,0.0979606,1,3.75696e-05,-5.62902e-06,2.70474e-05,0.00751392,-0.0011258,0.00540947,0,0,0,0,0.0653583,0.508796,-0.994533,28.9375,1,22979,2343563
101,1,-0.668176,-0.0843195,9.79607,0.0557094,-0.592903,0.998791,-0.00668282,-0.000850918,0.0979606,1,3.75696e-05,-5.62902e-06,2.70474e-05,0.00751392,-0.0011258,0.00540947,0,0,0,0,0.0653583,0.508796,-0.994533,28.9375,1,22979,2343563
101,2,-0.672932,-0.0819932,9.7907,0.0525644,-0.590972,0.997669,-0.00673273,-0.000831061,0.0979067,1,5.55925e-05,-1.75346e-05,1.80829e-05,0.0111185,-0.00350693,0.00361658,0,0,0,0,0.0634172,0.508343,-0.995544,28.9375,1,22980,2343663
101,3,-0.672932,-0.0819932,9.7907,0.0525644,-0.590972,0.997669,-0.00673273,-0.000831061,0.0979067,1,5.55925e-05,-1.75346e-05,1.80829e-05,0.0111185,-0.00350693,0.00361658,0,0,0,0,0.0634172,0.508343,-0.995544,28.9375,1,22980,2343663
101,4,-0.678379,-0.0828327,9.78937,0.0441673,-0.592643,0.995861,-0.00678527,-0.000837047,0.0978936,1,4.3247e-05,-7.71707e-06,1.85908e-05,0.0086494,-0.00154341,0.00371816,0,0,0,0,0.0639681,0.507806,-0.993033,28.9375,1,22981,2343763
102,1,-0.678379,-0.0828327,9.78937,0.0441673,-0.592643,0.995861,-0.00678527,-0.000837047,0.0978936,1,4.3247e-05,-7.71707e-06,1.85908e-05,0.0086494,-0.00154341,0.00371816,0,0,0,0,0.0639681,0.507806,-0.993033,28.9375,1,22981,2343763
102,2,-0.670737,-0.0776516,9.78902,0.0536462,-0.587854,0.992355,-0.00670793,-0.000787479,0.0978901,1,5.50374e-05,-2.94093e-06,1.39458e-05,0.0110075,-0.000588186,0.00278916,0,0,0,0,0.0663456,0.510216,-0.992486,28.9375,1,22982,2343863
102,3,-0.670737,-0.0776516,9.78902,0.0536462,-0.587854,0.992355,-0.00670793,-0.000787479,0.0978901,1,5.50374e-05,-2.94093e-06,1.39458e-05,0.0110075,-0.000588186,0.00278916,0,0,0,0,0.0663456,0.510216,-0.992486,28.9375,1,22982,2343863
102,4,-0.674938,-0.0830989,9.79037,0.0493494,-0.591282,0.993804,-0.00675183,-0.000841542,0.0979034,1,5.18282e-05,-1.27869e-05,2.99568e-05,0.0103656,-0.00255738,0.00599135,0,0,0,0,0.0653302,0.511226,-0.993974,28.9375,1,22983,2343963
102,5,-0.674938,-0.0830989,9.79037,0.0493494,-0.591282,0.993804,-0.00675183,-0.000841542,0.0979034,1,5.18282e-05,-1.27869e-05,2.99568e-05,0.0103656,-0.00255738,0.00599135,0,0,0,0,0.0653302,0.511226,-0.993974,28.9375,1,22983,2343963
102,6,-0.669196,-0.0841911,9.78285,0.0565149,-0.599755,0.986753,-0.0066941,-0.000850303,0.0978283,1,4.12465e-05,-1.11443e-05,2.40465e-05,0.00824931,-0.00222886,0.00480929,0,0,0,0,0.063401,0.509318,-0.995522,28.9375,1,22984,2344063
103,1,-0.669196,-0.0841911,9.78285,0.0565149,-0.599755,0.986753,-0.0066941,-0.000850303,0.0978283,1,4.12465e-05,-1.11443e-05,2.40465e-05,0.00824931,-0.00222886,0.00480929,0,0,0,0,0.063401,0.509318,-0.995522,28.9375,1,22984,2344063
103,2,-0.672414,-0.0831826,9.78966,0.0542431,-0.5941,0.992086,-0.00672347,-0.00083938,0.0978965,1,3.73963e-05,3.27271e-06,1.72146e-05,0.00747927,0.000654542,0.00344291,0,0,0,0,0.063886,0.508348,-0.996051,28.9375,1,22985,2344163
103,3,-0.672414,-0.0831826,9.78966,0.0542431,-0.5941,0.992086,-0.00672347,-0.00083938,0.0978965,1,3.73963e-05,3.27271e-06,1.72146e-05,0.00747927,0.000654542,0.00344291,0,0,0,0,0.063886,0.508348,-0.996051,28.9375,1,22985,2344163
103,4,-0.670655,-0.0781075,9.788,0.055734,-0.59163,0.99028,-0.00670885,-0.000788811,0.0978798,1,3.88026e-05,-1.18221e-05,1.04961e-05,0.00776053,-0.00236442,0.00209922,0,0,0,0,0.0624673,0.508342,-0.995035,28.9375,1,22986,2344263
104,1,-0.670655,-0.0781075,9.788,0.055734,-0.59163,0.99028,-0.00670885,-0.000788811,0.0978798,1,3.88026e-05,-1.18221e-05,1.04961e-05,0.00776053,-0.00236442,0.00209922,0,0,0,0,0.0624673,0.508342,-0.995035,28.9375,1,22986,2344263
104,2,-0.680246,-0.0902303,9.79137,0.048701,-0.603455,0.998078,-0.00680725,-0.000908011,0.0979133,1,2.83495e-05,-2.45273e-05,1.15131e-05,0.00566989,-0.00490546,0.00230261,0,0,0,0,0.0634547,0.509761,-0.992987,28.9375,1,22987,2344363
104,3,-0.680246,-0.0902303,9.79137,0.048701,-0.603455,0.998078,-0.00680725,-0.000908011,0.0979133,1,2.83495e-05,-2.45273e-05,1.15131e-05,0.00566989,-0.00490546,0.00230261,0,0,0,0,0.0634547,0.509761,-0.992987,28.9375,1,22987,2344363
104,4,-0.680719,-0.0777355,9.79351,0.042149,-0.59367,0.999094,-0.00681087,-0.00078707,0.0979347,1,4.82331e-05,-1.8964e-05,1.96453e-05,0.00964661,-0.0037928,0.00392907,0,0,0,0,0.063903,0.510263,-0.993988,28.9375,1,22988,2344463
105,1,-0.680719,-0.0777355,9.79351,0.042149,-0.59367,0.999094,-0.00681087,-0.00078707,0.0979347,1,4.82331e-05,-1.8964e-05,1.96453e-05,0.00964661,-0.0037928,0.00392907,0,0,0,0,0.063903,0.510263,-0.993988,28.9375,1,22988,2344463
105,2,-0.676366,-0.0800506,9.79108,0.0469596,-0.596826,0.997991,-0.00676587,-0.000811024,0.0979106,1,5.28376e-05,-1.1409e-05,1.26714e-05,0.0105675,-0.0022818,0.00253429,0,0,0,0,0.0629,0.511264,-0.994972,28.9375,1,22989,2344563
106,1,-0.676366,-0.0800506,9.79108,0.0469596,-0.596826,0.997991,-0.00676587,-0.000811024,0.0979106,1,5.28376e-05,-1.1409e-05,1.26714e-05,0.0105675,-0.0022818,0.00253429,0,0,0,0,0.0629,0.511264,-0.994972,28.9375,1,22989,2344563
106,2,-0.668536,-0.0810824,9.78254,0.0567326,-0.595357,0.982886,-0.00668839,-0.000819582,0.0978251,1,4.44446e-05,-1.55493e-05,4.66018e-06,0.00888892,-0.00310986,0.000932036,0,0,0,0,0.0628796,0.511761,-0.995466,28.9375,1,22990,2344663
107,1,-0.668536,-0.0810824,9.78254,0.0567326,-0.595357,0.982886,-0.00668839,-0.000819582,0.0978251,1,4.44446e-05,-1.55493e-05,4.66018e-06,0.00888892,-0.00310986,0.000932036,0,0,0,0,0.0628796,0.511761,-0.995466,28.9375,1,22990,2344663
107,2,-0.678809,-0.0851341,9.77951,0.0477514,-0.600576,0.98316,-0.00679091,-0.000859936,0.0977949,1,4.22687e-05,-1.46033e-05,2.41813e-05,0.00845375,-0.00292066,0.00483625,0,0,0,0,0.0638579,0.510777,-0.995492,28.9375,1,22991,2344763
107,3,-0.678809,-0.0851341,9.77951,0.0477514,-0.600576,0.98316,-0.00679091,-0.000859936,0.0977949,1,4.22687e-05,-1.46033e-05,2.41813e-05,0.00845375,-0.00292066,0.00483625,0,0,0,0,0.0638579,0.510777,-0.995492,28.9375,1,22991,2344763
107,4,-0.670966,-0.0834663,9.78151,0.0559269,-0.595817,0.985637,-0.00671183,-0.000843358,0.0978149,1,4.29171e-05,-1.12788e-05,2.22455e-05,0.00858341,-0.00225576,0.0044491,0,0,0,0,0.0633773,0.512227,-0.994447,28.9375,1,22992,2344863
108,1,-0.670966,-0.0834663,9.78151,0.0559269,-0.595817,0.985637,-0.00671183,-0.000843358,0.0978149,1,4.29171e-05,-1.12788e-05,2.22455e-05,0.00858341,-0.00225576,0.0044491,0,0,0,0,0.0633773,0.512227,-0.994447,28.9375,1,22992,2344863
108,2,-0.671905,-0.0832526,9.79204,0.0589507,-0.602944,0.998638,-0.00672264,-0.000840539,0.0979201,1,3.92031e-05,-1.85612e-05,2.49819e-05,0.00784062,-0.00371224,0.00499638,0,0,0,0,0.0629332,0.512204,-0.992931,28.9375,1,22993,2344963
109,1,-0.671905,-0.0832526,9.79204,0.0589507,-0.602944,0.998638,-0.00672264,-0.000840539,0.0979201,1,3.92031e-05,-1.85612e-05,2.49819e-05,0.00784062,-0.00371224,0.00499638,0,0,0,0,0.0629332,0.512204,-0.992931,28.9375,1,22993,2344963
109,2,-0.676407,-0.0872706,9.7883,0.0544727,-0.606755,0.995686,-0.00676456,-0.000882995,0.0978829,1,5.1802e-05,-2.56116e-06,1.09373e-05,0.0103604,-0.000512233,0.00218747,0,0,0,0,0.0633896,0.512218,-0.993943,28.9375,1,22994,2345063
109,3,-0.676407,-0.0872706,9.7883,0.0544727,-0.606755,0.995686,-0.00676456,-0.000882995,0.0978829,1,5.1802e-05,-2.56116e-06,1.09373e-05,0.0103604,-0.000512233,0.00218747,0,0,0,0,0.0633896,0.512218,-0.993943,28.9375,1,22994,2345063
109,4,-0.671354,-0.0875444,9.78181,0.0595159,-0.602625,0.985546,-0.00671517,-0.00088473,0.0978179,1,4.62643e-05,-8.50476e-06,1.75296e-05,0.00925286,-0.00170095,0.00350591,0,0,0,0,0.0638788,0.511726,-0.993956,28.9375,1,22995,2345163
109,5,-0.671354,-0.0875444,9.78181,0.0595159,-0.602625,0.985546,-0.00671517,-0.00088473,0.0978179,1,4.62643e-05,-8.50476e-06,1.75296e-05,0.00925286,-0.00170095,0.00350591,0,0,0,0,0.0638788,0.511726,-0.993956,28.9375,1,22995,2345163
109,6,-0.675751,-0.0782911,9.79041,0.061997,-0.595637,0.995112,-0.00675846,-0.000794458,0.0979039,1,5.80065e-05,-4.94349e-06,1.39194e-05,0.0116013,-0.000988697,0.00278388,0,0,0,0,0.0643595,0.510277,-0.995,28.9375,1,22996,2345263
110,1,-0.675751,-0.0782911,9.79041,0.061997,-0.595637,0.995112,-0.00675846,-0.000794458,0.0979039,1,5.80065e-05,-4.94349e-06,1.39194e-05,0.0116013,-0.000988697,0.00278388,0,0,0,0,0.0643595,0.510277,-0.995,28.9375,1,22996,2345263
110,2,-0.686549,-0.0810689,9.79181,0.0575163,-0.598914,0.992016,-0.0068685,-0.000822944,0.0979178,1,6.10686e-05,-1.55774e-05,2.15249e-05,0.0122137,-0.00311548,0.00430497,0,0,0,0,0.0634219,0.510267,-0.993986,28.9375,1,22997,2345363
110,3,-0.686549,-0.0810689,9.79181,0.0575163,-0.598914,0.992016,-0.0068685,-0.000822944,0.0979178,1,6.10686e-05,-1.55774e-05,2.15249e-05,0.0122137,-0.00311548,0.00430497,0,0,0,0,0.0634219,0.510267,-0.993986,28.9375,1,22997,2345363
110,4,-0.678828,-0.0809488,9.78736,0.0616952,-0.595981,0.993734,-0.006789,-0.000816672,0.0978735,1,3.55057e-05,-3.81103e-06,1.72518e-05,0.00710115,-0.000762206,0.00345036,0,0,0,0,0.0629655,0.510253,-0.992974,28.9375,1,22998,2345463
111,1,-0.678828,-0.0809488,9.78736,0.0616952,-0.595981,0.993734,-0.006789,-0.000816672,0.0978735,1,3.55057e-05,-3.81103e-06,1.72518e-05,0.00710115,-0.000762206,0.00345036,0,0,0,0,0.0629655,0.510253,-0.992974,28.9375,1,22998,2345463
111,2,-0.663826,-0.0889238,9.777,0.0774234,-0.611603,0.980213,-0.00664031,-0.000900087,0.0977697,1,5.45438e-05,-1.06022e-05,1.38173e-05,0.0109088,-0.00212044,0.00276346,0,0,0,0,0.0639476,0.508302,-0.993527,28.9375,1,22999,2345563
111,3,-0.663826,-0.0889238,9.777,0.0774234,-0.611603,0.980213,-0.00664031,-0.000900087,0.0977697,1,5.45438e-05,-1.06022e-05,1.38173e-05,0.0109088,-0.00212044,0.00276346,0,0,0,0,0.0639476,0.508302,-0.993527,28.9375,1,22999,2345563
111,4,-0.664304,-0.0793838,9.78454,0.0784833,-0.600056,0.986931,-0.00664325,-0.000801376,0.0978454,1,3.6614e-05,-1.2874e-06,2.80515e-05,0.00732279,-0.00025748,0.00561031,0,0,0,0,0.0639154,0.510254,-0.993484,28.9375,1,23000,2345663
112,1,-0.664304,-0.0793838,9.78454,0.0784833,-0.600056,0.986931,-0.00664325,-0.000801376,0.0978454,1,3.6614e-05,-1.2874e-06,2.80515e-05,0.00732279,-0.00025748,0.00561031,0,0,0,0,0.0639154,0.510254,-0.993484,28.9375,1,23000,2345663
112,2,-0.670648,-0.0860918,9.78589,0.0738363,-0.60543,0.98623,-0.00670789,-0.000871754,0.0978587,1,5.43836e-05,-7.30544e-06,1.4324e-05,0.0108767,-0.00146109,0.0028648,0,0,0,0,0.0653464,0.510251,-0.993995,28.9375,1,23001,2345763
112,3,-0.670648,-0.0860918,9.78589,0.0738363,-0.60543,0.98623,-0.00670789,-0.000871754,0.0978587,1,5.43836e-05,-7.30544e-06,1.4324e-05,0.0108767,-0.00146109,0.0028648,0,0,0,0,0.0653464,0.510251,-0.993995,28.9375,1,23001,2345763
112,4,-0.693355,-0.0914825,9.78939,0.0463983,-0.61064,0.993339,-0.00693504,-0.00092444,0.0978938,1,4.80171e-05,-7.74292e-06,1.54135e-05,0.00960342,-0.00154859,0.0030827,0,0,0,0,0.0643552,0.509798,-0.995516,28.9375,1,23002,2345863
112,5,-0.693355,-0.0914825,9.78939,0.0463983,-0.61064,0.993339,-0.00693504,-0.00092444,0.0978938,1,4.80171e-05,-7.74292e-06,1.54135e-05,0.00960342,-0.00154859,0.0030827,0,0,0,0,0.0643552,0.509798,-0.995516,28.9375,1,23002,2345863
112,6,-0.672963,-0.0851985,9.7866,0.0661687,-0.612306,0.988768,-0.00673274,-0.00086008,0.0978657,1,4.0695e-05,-1.59928e-05,9.658e-06,0.008139,-0.00319856,0.0019316,0,0,0,0,0.0634096,0.510276,-0.994491,28.9375,1,23003,2345963
113,1,-0.672963,-0.0851985,9.7866,0.0661687,-0.612306,0.988768,-0.00673274,-0.00086008,0.0978657,1,4.0695e-05,-1.59928e-05,9.658e-06,0.008139,-0.00319856,0.0019316,0,0,0,0,0.0634096,0.510276,-0.994491,28.9375,1,23003,2345963
113,2,-0.666613,-0.0694996,9.79347,0.07531,-0.590895,0.994576,-0.00666885,-0.000703389,0.0979345,1,4.17715e-05,-1.40073e-05,1.58588e-05,0.0083543,-0.00280147,0.00317176,0,0,0,0,0.0619747,0.511245,-0.993453,28.9375,1,23004,2346063
114,1,-0.666613,-0.0694996,9.79347,0.07531,-0.590895,0.994576,-0.00666885,-0.000703389,0.0979345,1,4.17715e-05,-1.40073e-05,1.58588e-05,0.0083543,-0.00280147,0.00317176,0,0,0,0,0.0619747,0.511245,-0.993453,28.9375,1,23004,2346063
114,2,-0.67006,-0.0830765,9.78116,0.0737832,-0.606967,0.98466,-0.00670182,-0.000838787,0.0978114,1,3.91415e-05,-6.49854e-06,2.71893e-05,0.00782829,-0.00129971,0.00543786,0,0,0,0,0.0629327,0.510758,-0.993973,28.9375,1,23005,2346163
114,3,-0.67006,-0.0830765,9.78116,0.0737832,-0.606967,0.98466,-0.00670182,-0.000838787,0.0978114,1,3.91415e-05,-6.49854e-06,2.71893e-05,0.00782829,-0.00129971,0.00543786,0,0,0,0,0.0629327,0.510758,-0.993973,28.9375,1,23005,2346163
114,4,-0.681181,-0.0795302,9.79044,0.0637095,-0.601327,0.992386,-0.00681182,-0.000803062,0.0979043,1,3.86258e-05,-1.60221e-07,1.44241e-05,0.00772515,-3.20442e-05,0.00288481,0,0,0,0,0.0638992,0.511229,-0.993462,28.9375,1,23006,2346263
115,1,-0.681181,-0.0795302,9.79044,0.0637095,-0.601327,0.992386,-0.00681182,-0.000803062,0.0979043,1,3.86258e-05,-1.60221e-07,1.44241e-05,0.00772515,-3.20442e-05,0.00288481,0,0,0,0,0.0638992,0.511229,-0.993462,28.9375,1,23006,2346263
115,2,-0.682851,-0.0846743,9.78803,0.064998,-0.612406,0.991119,-0.00683001,-0.00085507,0.0978801,1,4.12837e-05,-7.81011e-06,1.79633e-05,0.00825673,-0.00156202,0.00359266,0,0,0,0,0.0658688,0.510698,-0.991968,28.9375,1,23007,2346363
116,1,-0.682851,-0.0846743,9.78803,0.064998,-0.612406,0.991119,-0.00683001,-0.00085507,0.0978801,1,4.12837e-05,-7.81011e-06,1.79633e-05,0.00825673,-0.00156202,0.00359266,0,0,0,0,0.0658688,0.510698,-0.991968,28.9375,1,23007,2346363
116,2,-0.672778,-0.0753079,9.79177,0.0766305,-0.601583,0.990595,-0.00672738,-0.000762372,0.0979176,1,4.59348e-05,1.86038e-06,2.20816e-05,0.00918695,0.000372076,0.00441632,0,0,0,0,0.0643353,0.51174,-0.994968,28.9375,1,23008,2346463
116,3,-0.672778,-0.0753079,9.79177,0.0766305,-0.601583,0.990595,-0.00672738,-0.000762372,0.0979176,1,4.59348e-05,1.86038e-06,2.20816e-05,0.00918695,0.000372076,0.00441632,0,0,0,0,0.0643353,0.51174,-0.994968,28.9375,1,23008,2346463
116,4,-0.683684,-0.0809337,9.79077,0.0599135,-0.606229,0.991151,-0.00683652,-0.00081799,0.0979077,1,4.28687e-05,1.46021e-06,1.89061e-05,0.00857374,0.000292043,0.00378121,0,0,0,0,0.062398,0.51032,-0.996506,28.9375,1,23009,2346563
116,5,-0.683684,-0.0809337,9.79077,0.0599135,-0.606229,0.991151,-0.00683652,-0.00081799,0.0979077,1,4.28687e-05,1.46021e-06,1.89061e-05,0.00857374,0.000292043,0.00378121,0,0,0,0,0.062398,0.51032,-0.996506,28.9375,1,23009,2346563
116,6,-0.673337,-0.0852751,9.78253,0.0741119,-0.610651,0.984572,-0.00673485,-0.00086008,0.0978251,1,3.64967e-05,-7.66849e-06,1.39642e-05,0.00729934,-0.0015337,0.00279283,0,0,0,0,0.0629365,0.509792,-0.994499,28.9375,1,23010,2346663
117,1,-0.673337,-0.0852751,9.78253,0.0741119,-0.610651,0.984572,-0.00673485,-0.00086008,0.0978251,1,3.64967e-05,-7.66849e-06,1.39642e-05,0.00729934,-0.0015337,0.00279283,0,0,0,0,0.0629365,0.509792,-0.994499,28.9375,1,23010,2346663
117,2,-0.670961,-0.081553,9.79612,0.0784161,-0.608579,0.99613,-0.00670937,-0.000824169,0.0979611,1,4.24647e-05,1.02444e-06,2.38044e-05,0.00849293,0.000204887,0.00476089,0,0,0,0,0.0644335,0.510223,-0.991971,28.9375,1,23011,2346763
118,1,-0.670961,-0.081553,9.79612,0.0784161,-0.608579,0.99613,-0.00670937,-0.000824169,0.0979611,1,4.24647e-05,1.02444e-06,2.38044e-05,0.00849293,0.000204887,0.00476089,0,0,0,0,0.0644335,0.510223,-0.991971,28.9375,1,23011,2346763
118,2,-0.680065,-0.0864369,9.7924,0.0640441,-0.613295,0.996484,-0.00680293,-0.000870074,0.0979238,1,2.85358e-05,-1.17196e-05,8.57383e-06,0.00570716,-0.00234393,0.00171477,0,0,0,0,0.0639116,0.51122,-0.992957,28.9375,1,23012,2346863
119,1,-0.680065,-0.0864369,9.7924,0.0640441,-0.613295,0.996484,-0.00680293,-0.000870074,0.0979238,1,2.85358e-05,-1.17196e-05,8.57383e-06,0.00570716,-0.00234393,0.00171477,0,0,0,0,0.0639116,0.51122,-0.992957,28.9375,1,23012,2346863
119,2,-0.672656,-0.0846081,9.79441,0.0752311,-0.610027,0.996692,-0.00672586,-0.000854319,0.097944,1,4.03637e-05,3.33777e-06,2.46389e-05,0.00807274,0.000667554,0.00492777,0,0,0,0,0.0648287,0.511727,-0.994465,28.9375,1,23013,2346963
120,1,-0.672656,-0.0846081,9.79441,0.0752311,-0.610027,0.996692,-0.00672586,-0.000854319,0.097944,1,4.03637e-05,3.33777e-06,2.46389e-05,0.00807274,0.000667554,0.00492777,0,0,0,0,0.0648287,0.511727,-0.994465,28.9375,1,23013,2346963
120,2,-0.672945,-0.0855359,9.79135,0.0738983,-0.615657,0.990405,-0.00673111,-0.00086377,0.0979133,1,4.20212e-05,-8.59245e-06,1.35266e-05,0.00840425,-0.00171849,0.00270532,0,0,0,0,0.065326,0.510747,-0.994489,28.9375,1,23014,2347063
121,1,-0.672945,-0.0855359,9.79135,0.0738983,-0.615657,0.990405,-0.00673111,-0.00086377,0.0979133,1,4.20212e-05,-8.59245e-06,1.35266e-05,0.00840425,-0.00171849,0.00270532,0,0,0,0,0.065326,0.510747,-0.994489,28.9375,1,23014,2347063
121,2,-0.667468,-0.0801447,9.79814,0.0762158,-0.608083,0.998859,-0.00667714,-0.000809351,0.0979812,1,3.96017e-05,-1.26175e-05,1.07345e-05,0.00792034,-0.0025235,0.00214689,0,0,0,0,0.0639026,0.508817,-0.995031,28.9375,1,23015,2347163
122,1,-0.667468,-0.0801447,9.79814,0.0762158,-0.608083,0.998859,-0.00667714,-0.000809351,0.0979812,1,3.96017e-05,-1.26175e-05,1.07345e-05,0.00792034,-0.0025235,0.00214689,0,0,0,0,0.0639026,0.508817,-0.995031,28.9375,1,23015,2347163
122,2,-0.659782,-0.080015,9.79435,0.0863475,-0.612626,0.995013,-0.00659801,-0.000810838,0.0979434,1,5.36926e-05,-1.10492e-06,1.29006e-05,0.0107385,-0.000220983,0.00258012,0,0,0,0,0.0624179,0.508378,-0.997054,28.9375,1,23016,2347263
123,1,-0.659782,-0.080015,9.79435,0.0863475,-0.612626,0.995013,-0.00659801,-0.000810838,0.0979434,1,5.36926e-05,-1.10492e-06,1.29006e-05,0.0107385,-0.000220983,0.00258012,0,0,0,0,0.0624179,0.508378,-0.997054,28.9375,1,23016,2347263
123,2,-0.671413,-0.0849637,9.80221,0.0760051,-0.611863,1.00295,-0.00671725,-0.000858022,0.0980218,1,4.11868e-05,-1.61342e-05,2.31191e-05,0.00823737,-0.00322685,0.00462382,0,0,0,0,0.0648729,0.508322,-0.995046,28.9375,1,23017,2347363
123,3,-0.671413,-0.0849637,9.80221,0.0760051,-0.611863,1.00295,-0.00671725,-0.000858022,0.0980218,1,4.11868e-05,-1.61342e-05,2.31191e-05,0.00823737,-0.00322685,0.00462382,0,0,0,0,0.0648729,0.508322,-0.995046,28.9375,1,23017,2347363
123,4,-0.681103,-0.0814957,9.77855,0.065054,-0.61033,0.979009,-0.00681537,-0.00082433,0.0977851,1,4.6879e-05,-2.23333e-05,1.49811e-05,0.00937581,-0.00446667,0.00299621,0,0,0,0,0.0658275,0.510247,-0.993998,28.9375,1,23018,2347463
124,1,-0.681103,-0.0814957,9.77855,0.065054,-0.61033,0.979009,-0.00681537,-0.00082433,0.0977851,1,4.6879e-05,-2.23333e-05,1.49811e-05,0.00937581,-0.00446667,0.00299621,0,0,0,0,0.0658275,0.510247,-0.993998,28.9375,1,23018,2347463
124,2,-0.677706,-0.0787097,9.78635,0.0667847,-0.607691,0.990882,-0.00677966,-0.000796095,0.0978633,1,4.40255e-05,-1.34707e-05,2.80997e-05,0.00880511,-0.00269415,0.00561994,0,0,0,0,0.0658237,0.511213,-0.993471,28.9375,1,23019,2347563
125,1,-0.677706,-0.0787097,9.78635,0.0667847,-0.607691,0.990882,-0.00677966,-0.000796095,0.0978633,1,4.40255e-05,-1.34707e-05,2.80997e-05,0.00880511,-0.00269415,0.00561994,0,0,0,0,0.0658237,0.511213,-0.993471,28.9375,1,23019,2347563
125,2,-0.680207,-0.0946361,9.79573,0.0675365,-0.625463,0.99773,-0.00680595,-0.0009546,0.097957,1,4.07007e-05,-1.99806e-05,1.95074e-05,0.00814013,-0.00399613,0.00390148,0,0,0,0,0.0633564,0.511278,-0.995984,28.9375,1,23020,2347663
125,3,-0.680207,-0.0946361,9.79573,0.0675365,-0.625463,0.99773,-0.00680595,-0.0009546,0.097957,1,4.07007e-05,-1.99806e-05,1.95074e-05,0.00814013,-0.00399613,0.00390148,0,0,0,0,0.0633564,0.511278,-0.995984,28.9375,1,23020,2347663
125,4,-0.678708,-0.0879717,9.78797,0.0661673,-0.619143,0.988568,-0.00678889,-0.00088911,0.0978795,1,4.62104e-05,-9.50317e-06,2.55126e-05,0.00924208,-0.00190063,0.00510252,0,0,0,0,0.0633436,0.509842,-0.997531,28.9375,1,23021,2347763
125,5,-0.678708,-0.0879717,9.78797,0.0661673,-0.619143,0.988568,-0.00678889,-0.00088911,0.0978795,1,4.62104e-05,-9.50317e-06,2.55126e-05,0.00924208,-0.00190063,0.00510252,0,0,0,0,0.0633436,0.509842,-0.997531,28.9375,1,23021,2347763
125,6,-0.674066,-0.0894289,9.78181,0.0719103,-0.617643,0.979661,-0.00674128,-0.000901169,0.097818,1,3.36933e-05,-3.3753e-06,2.14261e-05,0.00673867,-0.000675059,0.00428521,0,0,0,0,0.0638864,0.509793,-0.995009,28.9375,1,23022,2347863
126,1,-0.674066,-0.0894289,9.78181,0.0719103,-0.617643,0.979661,-0.00674128,-0.000901169,0.097818,1,3.36933e-05,-3.3753e-06,2.14261e-05,0.00673867,-0.000675059,0.00428521,0,0,0,0,0.0638864,0.509793,-0.995009,28.9375,1,23022,2347863
126,2,-0.673013,-0.0789049,9.79445,0.0776715,-0.609975,0.997934,-0.00673159,-0.000796803,0.0979443,1,3.95123e-05,-7.50446e-06,1.05611e-06,0.00790246,-0.00150089,0.000211223,0,0,0,0,0.0634627,0.509273,-0.992998,28.9375,1,23023,2347963
127,1,-0.673013,-0.0789049,9.79445,0.0776715,-0.609975,0.997934,-0.00673159,-0.000796803,0.0979443,1,3.95123e-05,-7.50446e-06,1.05611e-06,0.00790246,-0.00150089,0.000211223,0,0,0,0,0.0634627,0.509273,-0.992998,28.9375,1,23023,2347963
127,2,-0.674624,-0.0877763,9.78862,0.0743481,-0.62031,0.990796,-0.00674775,-0.00088408,0.0978861,1,3.09647e-05,-7.88458e-06,1.88797e-05,0.00619294,-0.00157692,0.00377593,0,0,0,0,0.0643841,0.510259,-0.993991,28.9375,1,23024,2348063
127,3,-0.674624,-0.0877763,9.78862,0.0743481,-0.62031,0.990796,-0.00674775,-0.00088408,0.0978861,1,3.09647e-05,-7.88458e-06,1.88797e-05,0.00619294,-0.00157692,0.00377593,0,0,0,0,0.0643841,0.510259,-0.993991,28.9375,1,23024,2348063
127,4,-0.668713,-0.0914451,9.78856,0.0802902,-0.621719,0.98862,-0.0066905,-0.000920889,0.0978853,1,3.15737e-05,-1.73842e-05,1.92224e-05,0.00631475,-0.00347684,0.00384447,0,0,0,0,0.0658152,0.510256,-0.994502,28.9375,1,23025,2348163
128,1,-0.668713,-0.0914451,9.78856,0.0802902,-0.621719,0.98862,-0.0066905,-0.000920889,0.0978853,1,3.15737e-05,-1.73842e-05,1.92224e-05,0.00631475,-0.00347684,0.00384447,0,0,0,0,0.0658152,0.510256,-0.994502,28.9375,1,23025,2348163
128,2,-0.676442,-0.078573,9.78736,0.0687214,-0.611491,0.988688,-0.00676669,-0.000796283,0.0978733,1,5.17479e-05,-1.18314e-05,3.12759e-05,0.0103496,-0.00236627,0.00625519,0,0,0,0,0.064824,0.509803,-0.996023,28.9375,1,23026,2348263
128,3,-0.676442,-0.078573,9.78736,0.0687214,-0.611491,0.988688,-0.00676669,-0.000796283,0.0978733,1,5.17479e-05,-1.18314e-05,3.12759e-05,0.0103496,-0.00236627,0.00625519,0,0,0,0,0.064824,0.509803,-0.996023,28.9375,1,23026,2348263
128,4,-0.682421,-0.0838419,9.79448,0.0669203,-0.616777,0.998147,-0.00682614,-0.000850088,0.0979446,1,5.78055e-05,-1.00672e-05,2.53169e-05,0.0115611,-0.00201345,0.00506338,0,0,0,0,0.0638656,0.508844,-0.996545,28.9375,1,23027,2348363
129,1,-0.682421,-0.0838419,9.79448,0.0669203,-0.616777,0.998147,-0.00682614,-0.000850088,0.0979446,1,5.78055e-05,-1.00672e-05,2.53169e-05,0.0115611,-0.00201345,0.00506338,0,0,0,0,0.0638656,0.508844,-0.996545,28.9375,1,23027,2348363
129,2,-0.676933,-0.078115,9.786,0.0662852,-0.610119,0.989084,-0.00676836,-0.000788285,0.09786,1,3.49544e-05,4.76454e-06,2.17259e-05,0.00699088,0.000952908,0.00434519,0,0,0,0,0.0628995,0.509819,-0.996014,28.9375,1,23028,2348463
129,3,-0.676933,-0.078115,9.786,0.0662852,-0.610119,0.989084,-0.00676836,-0.000788285,0.09786,1,3.49544e-05,4.76454e-06,2.17259e-05,0.00699088,0.000952908,0.00434519,0,0,0,0,0.0628995,0.509819,-0.996014,28.9375,1,23028,2348463
129,4,-0.666606,-0.0772609,9.79205,0.0786384,-0.611161,0.99512,-0.00666631,-0.000784069,0.0979204,1,5.72074e-05,-1.42899e-06,1.92504e-05,0.0114415,-0.000285797,0.00385008,0,0,0,0,0.0629693,0.509286,-0.993501,28.9375,1,23029,2348563
130,1,-0.666606,-0.0772609,9.79205,0.0786384,-0.611161,0.99512,-0.00666631,-0.000784069,0.0979204,1,5.72074e-05,-1.42899e-06,1.92504e-05,0.0114415,-0.000285797,0.00385008,0,0,0,0,0.0629693,0.509286,-0.993501,28.9375,1,23029,2348563
130,2,-0.674716,-0.0763886,9.78906,0.0716728,-0.606869,0.994144,-0.00675065,-0.000771892,0.0978903,1,3.93278e-05,-1.79931e-05,2.27003e-05,0.00786555,-0.00359862,0.00454006,0,0,0,0,0.0653383,0.510738,-0.993985,28.9375,1,23030,2348663
130,3,-0.674716,-0.0763886,9.78906,0.0716728,-0.606869,0.994144,-0.00675065,-0.000771892,0.0978903,1,3.93278e-05,-1.79931e-05,2.27003e-05,0.00786555,-0.00359862,0.00454006,0,0,0,0,0.0653383,0.510738,-0.993985,28.9375,1,23030,2348663
130,4,-0.671699,-0.0712432,9.784,0.074138,-0.601693,0.988145,-0.00671828,-0.000717997,0.0978399,1,2.7666e-05,-6.66272e-06,1.12204e-05,0.0055332,-0.00133255,0.00224407,0,0,0,0,0.0652647,0.512238,-0.995971,28.9375,1,23031,2348763
131,1,-0.671699,-0.0712432,9.784,0.074138,-0.601693,0.988145,-0.00671828,-0.000717997,0.0978399,1,2.7666e-05,-6.66272e-06,1.12204e-05,0.0055332,-0.00133255,0.00224407,0,0,0,0,0.0652647,0.512238,-0.995971,28.9375,1,23031,2348763
131,2,-0.678397,-0.0788351,9.78636,0.0659635,-0.612411,0.990801,-0.00678752,-0.000796057,0.0978632,1,3.80353e-05,-1.8306e-05,1.92765e-05,0.00760705,-0.0036612,0.0038553,0,0,0,0,0.0632748,0.513265,-0.997959,28.9375,1,23032,2348863
131,3,-0.678397,-0.0788351,9.78636,0.0659635,-0.612411,0.990801,-0.00678752,-0.000796057,0.0978632,1,3.80353e-05,-1.8306e-05,1.92765e-05,0.00760705,-0.0036612,0.0038553,0,0,0,0,0.0632748,0.513265,-0.997959,28.9375,1,23032,2348863
131,4,-0.68149,-0.084731,9.78836,0.0623219,-0.616209,0.990023,-0.00681644,-0.000854993,0.0978834,1,3.77558e-05,-8.02246e-06,2.13869e-05,0.00755116,-0.00160449,0.00427738,0,0,0,0,0.063801,0.512747,-0.996458,28.9375,1,23033,2348963
132,1,-0.68149,-0.084731,9.78836,0.0623219,-0.616209,0.990023,-0.00681644,-0.000854993,0.0978834,1,3.77558e-05,-8.02246e-06,2.13869e-05,0.00755116,-0.00160449,0.00427738,0,0,0,0,0.063801,0.512747,-0.996458,28.9375,1,23033,2348963
132,2,-0.676227,-0.0725965,9.78198,0.0690582,-0.607301,0.987397,-0.00676146,-0.000733562,0.0978198,1,3.76162e-05,4.01228e-06,1.75514e-05,0.00752324,0.000802456,0.00351029,0,0,0,0,0.0628957,0.510785,-0.995487,28.9375,1,23034,2349063
132,3,-0.676227,-0.0725965,9.78198,0.0690582,-0.607301,0.987397,-0.00676146,-0.000733562,0.0978198,1,3.76162e-05,4.01228e-06,1.75514e-05,0.00752324,0.000802456,0.00351029,0,0,0,0,0.0628957,0.510785,-0.995487,28.9375,1,23034,2349063
132,4,-0.686321,-0.079367,9.79047,0.0586996,-0.620362,0.994937,-0.00686362,-0.000800358,0.0979046,1,3.31886e-05,-2.20362e-06,1.37686e-05,0.00663772,-0.000440725,0.00275371,0,0,0,0,0.0638949,0.51075,-0.993978,28.9375,1,23035,2349163
132,5,-0.686321,-0.079367,9.79047,0.0586996,-0.620362,0.994937,-0.00686362,-0.000800358,0.0979046,1,3.31886e-05,-2.20362e-06,1.37686e-05,0.00663772,-0.000440725,0.00275371,0,0,0,0,0.0638949,0.51075,-0.993978,28.9375,1,23035,2349163
132,6,-0.677547,-0.0790838,9.79414,0.0670491,-0.614205,0.998955,-0.00677388,-0.00080015,0.0979414,1,4.66295e-05,8.02968e-06,1.31464e-05,0.0093259,0.00160594,0.00262928,0,0,0,0,0.0638707,0.512214,-0.993945,28.9375,1,23036,2349263
133,1,-0.677547,-0.0790838,9.79414,0.0670491,-0.614205,0.998955,-0.00677388,-0.00080015,0.0979414,1,4.66295e-05,8.02968e-06,1.31464e-05,0.0093259,0.00160594,0.00262928,0,0,0,0,0.0638707,0.512214,-0.993945,28.9375,1,23036,2349263
133,2,-0.669271,-0.0796764,9.77882,0.0775676,-0.615271,0.981353,-0.00669466,-0.000805093,0.097788,1,4.1185e-05,-1.01589e-05,2.04646e-05,0.00823701,-0.00203178,0.00409293,0,0,0,0,0.0638295,0.511762,-0.995975,28.9375,1,23037,2349363
133,3,-0.669271,-0.0796764,9.77882,0.0775676,-0.615271,0.981353,-0.00669466,-0.000805093,0.097788,1,4.1185e-05,-1.01589e-05,2.04646e-05,0.00823701,-0.00203178,0.00409293,0,0,0,0,0.0638295,0.511762,-0.995975,28.9375,1,23037,2349363
133,4,-0.673596,-0.0814598,9.78969,0.0717361,-0.618061,0.987932,-0.00674006,-0.000824285,0.0978966,1,4.82928e-05,-2.1048e-05,1.71848e-05,0.00965855,-0.00420959,0.00343696,0,0,0,0,0.0652562,0.51128,-0.997002,28.9375,1,23038,2349463
134,1,-0.673596,-0.0814598,9.78969,0.0717361,-0.618061,0.987932,-0.00674006,-0.000824285,0.0978966,1,4.82928e-05,-2.1048e-05,1.71848e-05,0.00965855,-0.00420959,0.00343696,0,0,0,0,0.0652562,0.51128,-0.997002,28.9375,1,23038,2349463
134,2,-0.669211,-0.0841539,9.7798,0.0730917,-0.620924,0.984553,-0.00669509,-0.000849262,0.0977977,1,3.79831e-05,-1.54208e-05,2.19885e-05,0.00759663,-0.00308415,0.00439769,0,0,0,0,0.0643467,0.50884,-0.996547,28.9375,1,23039,2349563
135,1,-0.669211,-0.0841539,9.7798,0.0730917,-0.620924,0.984553,-0.00669509,-0.000849262,0.0977977,1,3.79831e-05,-1.54208e-05,2.19885e-05,0.00759663,-0.00308415,0.00439769,0,0,0,0,0.0643467,0.50884,-0.996547,28.9375,1,23039,2349563
135,2,-0.680769,-0.085348,9.79038,0.0614496,-0.624735,0.993034,-0.00681001,-0.00086078,0.0979036,1,3.57703e-05,-1.20473e-05,2.16944e-05,0.00715405,-0.00240945,0.00433887,0,0,0,0,0.0619534,0.508851,-0.996031,28.9375,1,23040,2349663
136,1,-0.680769,-0.085348,9.79038,0.0614496,-0.624735,0.993034,-0.00681001,-0.00086078,0.0979036,1,3.57703e-05,-1.20473e-05,2.16944e-05,0.00715405,-0.00240945,0.00433887,0,0,0,0,0.0619534,0.508851,-0.996031,28.9375,1,23040,2349663
136,2,-0.673352,-0.0890011,9.79301,0.0712441,-0.623972,0.998568,-0.00673321,-0.000899221,0.09793,1,4.5741e-05,1.40428e-06,1.86562e-05,0.0091482,0.000280857,0.00373125,0,0,0,0,0.0643799,0.50978,-0.994506,28.9375,1,23041,2349763
136,3,-0.673352,-0.0890011,9.79301,0.0712441,-0.623972,0.998568,-0.00673321,-0.000899221,0.09793,1,4.5741e-05,1.40428e-06,1.86562e-05,0.0091482,0.000280857,0.00373125,0,0,0,0,0.0643799,0.50978,-0.994506,28.9375,1,23041,2349763
136,4,-0.675369,-0.0840551,9.78899,0.0720711,-0.620148,0.992204,-0.00675511,-0.000846118,0.0978898,1,2.75261e-05,-7.38368e-06,1.31745e-05,0.00550522,-0.00147674,0.0026349,0,0,0,0,0.0657786,0.511728,-0.994975,29,1,23042,2349863
137,1,-0.675369,-0.0840551,9.78899,0.0720711,-0.620148,0.992204,-0.00675511,-0.000846118,0.0978898,1,2.75261e-05,-7.38368e-06,1.31745e-05,0.00550522,-0.00147674,0.0026349,0,0,0,0,0.0657786,0.511728,-0.994975,29,1,23042,2349863
137,2,-0.678333,-0.0901297,9.79094,0.0681274,-0.627553,0.991715,-0.00678599,-0.000911347,0.0979091,1,5.08335e-05,-1.36494e-05,7.11538e-06,0.0101667,-0.00272988,0.00142308,0,0,0,0,0.0657625,0.512703,-0.994953,29,1,23043,2349963
137,3,-0.678333,-0.0901297,9.79094,0.0681274,-0.627553,0.991715,-0.00678599,-0.000911347,0.0979091,1,5.08335e-05,-1.36494e-05,7.11538e-06,0.0101667,-0.00272988,0.00142308,0,0,0,0,0.0657625,0.512703,-0.994953,29,1,23043,2349963
137,4,-0.679088,-0.0827414,9.78727,0.0643919,-0.61834,0.989599,-0.00679363,-0.000839028,0.0978724,1,5.68628e-05,-1.43776e-05,3.55935e-05,0.0113726,-0.00287552,0.00711869,0,0,0,0,0.0647751,0.511284,-0.997,29,1,23044,2350063
138,1,-0.679088,-0.0827414,9.78727,0.0643919,-0.61834,0.989599,-0.00679363,-0.000839028,0.0978724,1,5.68628e-05,-1.43776e-05,3.55935e-05,0.0113726,-0.00287552,0.00711869,0,0,0,0,0.0647751,0.511284,-0.997,29,1,23044,2350063
138,2,-0.674376,-0.0784838,9.79134,0.0740212,-0.612563,0.9927,-0.00674612,-0.000794013,0.0979132,1,4.53405e-05,-1.22224e-05,2.19924e-05,0.0090681,-0.00244449,0.00439848,0,0,0,0,0.062891,0.508861,-0.997045,29,1,23045,2350163
138,3,-0.674376,-0.0784838,9.79134,0.0740212,-0.612563,0.9927,-0.00674612,-0.000794013,0.0979132,1,4.53405e-05,-1.22224e-05,2.19924e-05,0.0090681,-0.00244449,0.00439848,0,0,0,0,0.062891,0.508861,-0.997045,29,1,23045,2350163
138,4,-0.675399,-0.0894583,9.79193,0.0716831,-0.624901,0.994443,-0.00675289,-0.000904237,0.0979193,1,4.79651e-05,5.44443e-06,1.92595e-05,0.00959303,0.00108889,0.00385189,0,0,0,0,0.0624635,0.509308,-0.994508,29,1,23046,2350263
138,5,-0.675399,-0.0894583,9.79193,0.0716831,-0.624901,0.994443,-0.00675289,-0.000904237,0.0979193,1,4.79651e-05,5.44443e-06,1.92595e-05,0.00959303,0.00108889,0.00385189,0,0,0,0,0.0624635,0.509308,-0.994508,29,1,23046,2350263
138,6,-0.667606,-0.0747161,9.78557,0.0744763,-0.613469,0.990076,-0.00667867,-0.000756424,0.0978554,1,4.54784e-05,-1.35266e-05,2.71368e-05,0.00909568,-0.00270532,0.00542735,0,0,0,0,0.0644454,0.508768,-0.992509,29,1,23047,2350363
139,1,-0.667606,-0.0747161,9.78557,0.0744763,-0.613469,0.990076,-0.00667867,-0.000756424,0.0978554,1,4.54784e-05,-1.35266e-05,2.71368e-05,0.00909568,-0.00270532,0.00542735,0,0,0,0,0.0644454,0.508768,-0.992509,29,1,23047,2350363
139,2,-0.676874,-0.0805512,9.78184,0.0666035,-0.619636,0.984886,-0.00677069,-0.000813149,0.0978182,1,3.70051e-05,-1.0222e-05,2.93872e-05,0.00740102,-0.0020444,0.00587744,0,0,0,0,0.0639073,0.510741,-0.993473,29,1,23048,2350463
139,3,-0.676874,-0.0805512,9.78184,0.0666035,-0.619636,0.984886,-0.00677069,-0.000813149,0.0978182,1,3.70051e-05,-1.0222e-05,2.93872e-05,0.00740102,-0.0020444,0.00587744,0,0,0,0,0.0639073,0.510741,-0.993473,29,1,23048,2350463
139,4,-0.68041,-0.0833731,9.79678,0.0652989,-0.622059,0.998414,-0.00680529,-0.000842643,0.0979676,1,4.37034e-05,-6.28991e-06,2.56298e-05,0.00874067,-0.00125798,0.00512597,0,0,0,0,0.0638745,0.511247,-0.994471,29,1,23049,2350563
140,1,-0.68041,-0.0833731,9.79678,0.0652989,-0.622059,0.998414,-0.00680529,-0.000842643,0.0979676,1,4.37034e-05,-6.28991e-06,2.56298e-05,0.00874067,-0.00125798,0.00512597,0,0,0,0,0.0638745,0.511247,-0.994471,29,1,23049,2350563
140,2,-0.672046,-0.0850264,9.78686,0.0733653,-0.619775,0.986568,-0.00672043,-0.000858329,0.0978686,1,4.01121e-05,1.49236e-08,1.58938e-05,0.00802242,2.98472e-06,0.00317876,0,0,0,0,0.0643433,0.511252,-0.994979,29,1,23050,2350663
140,3,-0.672046,-0.0850264,9.78686,0.0733653,-0.619775,0.986568,-0.00672043,-0.000858329,0.0978686,1,4.01121e-05,1.49236e-08,1.58938e-05,0.00802242,2.98472e-06,0.00317876,0,0,0,0,0.0643433,0.511252,-0.994979,29,1,23050,2350663
140,4,-0.667741,-0.0813656,9.79025,0.0751198,-0.622045,0.990056,-0.00667739,-0.000820138,0.0979024,1,2.94648e-05,-3.16869e-07,5.33855e-05,0.00589296,-6.33737e-05,0.0106771,0,0,0,0,0.065334,0.51026,-0.9945,29,1,23051,2350763
141,1,-0.667741,-0.0813656,9.79025,0.0751198,-0.622045,0.990056,-0.00667739,-0.000820138,0.0979024,1,2.94648e-05,-3.16869e-07,5.33855e-05,0.00589296,-6.33737e-05,0.0106771,0,0,0,0,0.065334,0.51026,-0.9945,29,1,23051,2350763
141,2,-0.680414,-0.0842607,9.79202,0.0645759,-0.622867,0.992748,-0.00680786,-0.000848383,0.0979199,1,2.80234e-05,-1.91779e-05,2.1102e-05,0.00560467,-0.00383558,0.0042204,0,0,0,0,0.0658232,0.509768,-0.994513,29,1,23052,2350863
141,3,-0.680414,-0.0842607,9.79202,0.0645759,-0.622867,0.992748,-0.00680786,-0.000848383,0.0979199,1,2.80234e-05,-1.91779e-05,2.1102e-05,0.00560467,-0.00383558,0.0042204,0,0,0,0,0.0658232,0.509768,-0.994513,29,1,23052,2350863
141,4,-0.673458,-0.0749923,9.79103,0.0696868,-0.613405,0.994231,-0.00673501,-0.000761709,0.0979102,1,5.83753e-05,-2.41046e-06,2.63527e-05,0.0116751,-0.000482091,0.00527053,0,0,0,0,0.0644088,0.510241,-0.992981,29,1,23053,2350963
142,1,-0.673458,-0.0749923,9.79103,0.0696868,-0.613405,0.994231,-0.00673501,-0.000761709,0.0979102,1,5.83753e-05,-2.41046e-06,2.63527e-05,0.0116751,-0.000482091,0.00527053,0,0,0,0,0.0644088,0.510241,-0.992981,29,1,23053,2350963
142,2,-0.675961,-0.0967027,9.78815,0.0725147,-0.63582,0.991645,-0.00676143,-0.000974712,0.0978813,1,3.77036e-05,-9.53673e-06,2.2525e-05,0.00754073,-0.00190735,0.004505,0,0,0,0,0.0633934,0.511251,-0.994469,29,1,23054,2351063
142,3,-0.675961,-0.0967027,9.78815,0.0725147,-0.63582,0.991645,-0.00676143,-0.000974712,0.0978813,1,3.77036e-05,-9.53673e-06,2.2525e-05,0.00754073,-0.00190735,0.004505,0,0,0,0,0.0633934,0.511251,-0.994469,29,1,23054,2351063
142,4,-0.682542,-0.0816377,9.78798,0.0590091,-0.623989,0.98859,-0.00682636,-0.000825808,0.0978797,1,4.64098e-05,-5.05701e-06,2.5395e-05,0.00928197,-0.0010114,0.00507901,0,0,0,0,0.0638414,0.510308,-0.996512,29,1,23055,2351163
143,1,-0.682542,-0.0816377,9.78798,0.0590091,-0.623989,0.98859,-0.00682636,-0.000825808,0.0978797,1,4.64098e-05,-5.05701e-06,2.5395e-05,0.00928197,-0.0010114,0.00507901,0,0,0,0,0.0638414,0.510308,-0.996512,29,1,23055,2351163
143,2,-0.675733,-0.079549,9.78694,0.0699469,-0.616887,0.989149,-0.00675967,-0.000804559,0.0978691,1,4.49214e-05,-1.21389e-05,2.04387e-05,0.00898428,-0.00242778,0.00408775,0,0,0,0,0.0628872,0.509828,-0.996519,29,1,23056,2351263
144,1,-0.675733,-0.079549,9.78694,0.0699469,-0.616887,0.989149,-0.00675967,-0.000804559,0.0978691,1,4.49214e-05,-1.21389e-05,2.04387e-05,0.00898428,-0.00242778,0.00408775,0,0,0,0,0.0628872,0.509828,-0.996519,29,1,23056,2351263
144,2,-0.673399,-0.0788105,9.77743,0.067553,-0.621152,0.976238,-0.00673801,-0.000795959,0.0977739,1,3.87597e-05,-2.07071e-05,2.03253e-05,0.00775193,-0.00414142,0.00406507,0,0,0,0,0.0624269,0.51078,-0.99498,29,1,23057,2351363
144,3,-0.673399,-0.0788105,9.77743,0.067553,-0.621152,0.976238,-0.00673801,-0.000795959,0.0977739,1,3.87597e-05,-2.07071e-05,2.03253e-05,0.00775193,-0.00414142,0.00406507,0,0,0,0,0.0624269,0.51078,-0.99498,29,1,23057,2351363
144,4,-0.681282,-0.0788979,9.79105,0.0648542,-0.621973,0.995431,-0.00681282,-0.000798136,0.0979104,1,4.56329e-05,-1.13625e-07,1.6205e-05,0.00912659,-2.27251e-05,0.003241,0,0,0,0,0.0629408,0.510271,-0.993984,29,1,23058,2351463
145,1,-0.681282,-0.0788979,9.79105,0.0648542,-0.621973,0.995431,-0.00681282,-0.000798136,0.0979104,1,4.56329e-05,-1.13625e-07,1.6205e-05,0.00912659,-2.27251e-05,0.003241,0,0,0,0,0.0629408,0.510271,-0.993984,29,1,23058,2351463
145,2,-0.672575,-0.0870805,9.77973,0.0689139,-0.631285,0.978373,-0.00672935,-0.000878082,0.097797,1,3.58598e-05,-1.85555e-05,1.95297e-05,0.00717196,-0.0037111,0.00390594,0,0,0,0,0.0643922,0.509771,-0.994002,29,1,23059,2351563
145,3,-0.672575,-0.0870805,9.77973,0.0689139,-0.631285,0.978373,-0.00672935,-0.000878082,0.097797,1,3.58598e-05,-1.85555e-05,1.95297e-05,0.00717196,-0.0037111,0.00390594,0,0,0,0,0.0643922,0.509771,-0.994002,29,1,23059,2351563
145,4,-0.667256,-0.0784701,9.78824,0.0771874,-0.621994,0.991815,-0.00667529,-0.000792629,0.0978822,1,3.90409e-05,-1.41171e-05,2.13349e-05,0.00780818,-0.00282341,0.00426698,0,0,0,0,0.0643471,0.510286,-0.995505,29,1,23060,2351663
146,1,-0.667256,-0.0784701,9.78824,0.0771874,-0.621994,0.991815,-0.00667529,-0.000792629,0.0978822,1,3.90409e-05,-1.41171e-05,2.13349e-05,0.00780818,-0.00282341,0.00426698,0,0,0,0,0.0643471,0.510286,-0.995505,29,1,23060,2351663
146,2,-0.682457,-0.0838176,9.78661,0.0599433,-0.625951,0.986692,-0.006828,-0.00084572,0.0978658,1,3.63179e-05,-1.77996e-05,3.19517e-05,0.00726357,-0.00355992,0.00639034,0,0,0,0,0.0643433,0.511252,-0.994979,29,1,23061,2351763
146,3,-0.682457,-0.0838176,9.78661,0.0599433,-0.625951,0.986692,-0.006828,-0.00084572,0.0978658,1,3.63179e-05,-1.77996e-05,3.19517e-05,0.00726357,-0.00355992,0.00639034,0,0,0,0,0.0643433,0.511252,-0.994979,29,1,23061,2351763
146,4,-0.663767,-0.0735158,9.78963,0.0812716,-0.617055,0.985507,-0.00664133,-0.000740794,0.097896,1,2.79844e-05,-1.88184e-05,1.17866e-05,0.00559688,-0.00376367,0.00235732,0,0,0,0,0.0652809,0.511262,-0.995993,29,1,23062,2351863
146,5,-0.663767,-0.0735158,9.78963,0.0812716,-0.617055,0.985507,-0.00664133,-0.000740794,0.097896,1,2.79844e-05,-1.88184e-05,1.17866e-05,0.00559688,-0.00376367,0.00235732,0,0,0,0,0.0652809,0.511262,-0.995993,29,1,23062,2351863
146,6,-0.670338,-0.0753075,9.7883,0.068844,-0.617202,0.988541,-0.0067059,-0.000763619,0.0978827,1,5.22788e-05,-1.30649e-05,2.31099e-05,0.0104558,-0.00261299,0.00462198,0,0,0,0,0.0634172,0.508343,-0.995544,29,1,23063,2351963
147,1,-0.670338,-0.0753075,9.7883,0.068844,-0.617202,0.988541,-0.0067059,-0.000763619,0.0978827,1,5.22788e-05,-1.30649e-05,2.31099e-05,0.0104558,-0.00261299,0.00462198,0,0,0,0,0.0634172,0.508343,-0.995544,29,1,23063,2351963
147,2,-0.667077,-0.0790428,9.78927,0.0750673,-0.621637,0.987172,-0.0066748,-0.000799782,0.0978923,1,4.61157e-05,-2.0766e-05,2.43857e-05,0.00922314,-0.00415319,0.00487713,0,0,0,0,0.0620151,0.508806,-0.993507,29,1,23064,2352063
147,3,-0.667077,-0.0790428,9.78927,0.0750673,-0.621637,0.987172,-0.0066748,-0.000799782,0.0978923,1,4.61157e-05,-2.0766e-05,2.43857e-05,0.00922314,-0.00415319,0.00487713,0,0,0,0,0.0620151,0.508806,-0.993507,29,1,23064,2352063
147,4,-0.666779,-0.0696877,9.78729,0.0781786,-0.61323,0.990157,-0.00666794,-0.000703983,0.0978729,1,3.53492e-05,-8.99717e-07,1.40184e-05,0.00706985,-0.000179943,0.00280367,0,0,0,0,0.0639073,0.510741,-0.993473,29,1,23065,2352163
147,5,-0.666779,-0.0696877,9.78729,0.0781786,-0.61323,0.990157,-0.00666794,-0.000703983,0.0978729,1,3.53492e-05,-8.99717e-07,1.40184e-05,0.00706985,-0.000179943,0.00280367,0,0,0,0,0.0639073,0.510741,-0.993473,29,1,23065,2352163
147,6,-0.662242,-0.0809572,9.79429,0.0797016,-0.618762,0.995365,-0.00662183,-0.000816627,0.0979429,1,3.46303e-05,2.84958e-06,2.04985e-05,0.00692607,0.000569916,0.00409969,0,0,0,0,0.0643395,0.512219,-0.994452,29,1,23066,2352263
148,1,-0.662242,-0.0809572,9.79429,0.0797016,-0.618762,0.995365,-0.00662183,-0.000816627,0.0979429,1,3.46303e-05,2.84958e-06,2.04985e-05,0.00692607,0.000569916,0.00409969,0,0,0,0,0.0643395,0.512219,-0.994452,29,1,23066,2352263
148,2,-0.675405,-0.0876806,9.7872,0.0681502,-0.631827,0.987923,-0.00675364,-0.000880787,0.097872,1,1.94424e-05,1.97444e-06,1.30328e-05,0.00388847,0.000394887,0.00260657,0,0,0,0,0.064841,0.511718,-0.99396,29,1,23067,2352363
148,3,-0.675405,-0.0876806,9.7872,0.0681502,-0.631827,0.987923,-0.00675364,-0.000880787,0.097872,1,1.94424e-05,1.97444e-06,1.30328e-05,0.00388847,0.000394887,0.00260657,0,0,0,0,0.064841,0.511718,-0.99396,29,1,23067,2352363
148,4,-0.678178,-0.0840376,9.78386,0.0656631,-0.62768,0.987596,-0.00678273,-0.000848525,0.0978384,1,4.01363e-05,-5.00852e-06,2.17464e-05,0.00802726,-0.0010017,0.00434927,0,0,0,0,0.0652766,0.510783,-0.996509,29,1,23068,2352463
149,1,-0.678178,-0.0840376,9.78386,0.0656631,-0.62768,0.987596,-0.00678273,-0.000848525,0.0978384,1,4.01363e-05,-5.00852e-06,2.17464e-05,0.00802726,-0.0010017,0.00434927,0,0,0,0,0.0652766,0.510783,-0.996509,29,1,23068,2352463
149,2,-0.674954,-0.0815841,9.79269,0.0700367,-0.621389,0.98994,-0.00675272,-0.000823454,0.0979266,1,3.75435e-05,-1.63687e-05,1.92208e-05,0.0075087,-0.00327374,0.00384416,0,0,0,0,0.0638409,0.508862,-0.997555,29,1,23069,2352563
149,3,-0.674954,-0.0815841,9.79269,0.0700367,-0.621389,0.98994,-0.00675272,-0.000823454,0.0979266,1,3.75435e-05,-1.63687e-05,1.92208e-05,0.0075087,-0.00327374,0.00384416,0,0,0,0,0.0638409,0.508862,-0.997555,29,1,23069,2352563
149,4,-0.676111,-0.0840203,9.79233,0.0680951,-0.631215,0.993617,-0.00676177,-0.000849036,0.0979231,1,4.42844e-05,-3.48109e-06,1.17794e-05,0.00885688,-0.000696218,0.00235588,0,0,0,0,0.0624184,0.509823,-0.996012,29,1,23070,2352663
149,5,-0.676111,-0.0840203,9.79233,0.0680951,-0.631215,0.993617,-0.00676177,-0.000849036,0.0979231,1,4.42844e-05,-3.48109e-06,1.17794e-05,0.00885688,-0.000696218,0.00235588,0,0,0,0,0.0624184,0.509823,-0.996012,29,1,23070,2352663
149,6,-0.68261,-0.0894667,9.78892,0.0633046,-0.63295,0.990906,-0.00682616,-0.000904468,0.0978891,1,4.84417e-05,-5.27165e-07,2.32237e-05,0.00968834,-0.000105433,0.00464473,0,0,0,0,0.0643557,0.511243,-0.994474,29,1,23071,2352763
149,7,-0.68261,-0.0894667,9.78892,0.0633046,-0.63295,0.990906,-0.00682616,-0.000904468,0.0978891,1,4.84417e-05,-5.27165e-07,2.32237e-05,0.00968834,-0.000105433,0.00464473,0,0,0,0,0.0643557,0.511243,-0.994474,29,1,23071,2352763
149,8,-0.658831,-0.0784055,9.78615,0.0866896,-0.625591,0.988192,-0.00658946,-0.00079145,0.0978613,1,3.5815e-05,-6.11651e-06,2.92473e-05,0.00716299,-0.0012233,0.00584946,0,0,0,0,0.065326,0.510747,-0.994489,29,1,23072,2352863
149,9,-0.658831,-0.0784055,9.78615,0.0866896,-0.625591,0.988192,-0.00658946,-0.00079145,0.0978613,1,3.5815e-05,-6.11651e-06,2.92473e-05,0.00716299,-0.0012233,0.00584946,0,0,0,0,0.065326,0.510747,-0.994489,29,1,23072,2352863
149,10,-0.675788,-0.0843941,9.78723,0.0709102,-0.627605,0.987202,-0.00675901,-0.000853339,0.0978721,1,4.67803e-05,-5.91585e-06,1.78014e-05,0.00935606,-0.00118317,0.00356027,0,0,0,0,0.0667446,0.510753,-0.995506,29,1,23073,2352963
149,11,-0.675788,-0.0843941,9.78723,0.0709102,-0.627605,0.987202,-0.00675901,-0.000853339,0.0978721,1,4.67803e-05,-5.91585e-06,1.78014e-05,0.00935606,-0.00118317,0.00356027,0,0,0,0,0.0667446,0.510753,-0.995506,29,1,23073,2352963
149,12,-0.676486,-0.0793823,9.78185,0.0678385,-0.624791,0.983545,-0.00676683,-0.000804421,0.0978182,1,5.26923e-05,-1.02412e-05,2.14186e-05,0.0105385,-0.00204825,0.00428373,0,0,0,0,0.0666915,0.511756,-0.996998,29,3,23074,2353063
150,1,-0.676486,-0.0793823,9.78185,0.0678385,-0.624791,0.983545,-0.00676683,-0.000804421,0.0978182,1,5.26923e-05,-1.02412e-05,2.14186e-05,0.0105385,-0.00204825,0.00428373,0,0,0,0,0.0666915,0.511756,-0.996998,29,3,23074,2353063
150,2,-0.667513,-0.0723264,9.77811,0.0771655,-0.621141,0.980445,-0.00667513,-0.000730993,0.0977811,1,3.74241e-05,-2.36574e-07,3.0663e-05,0.00748483,-4.73147e-05,0.00613261,0,0,0,0,0.0657577,0.510779,-0.996511,29,3,23075,2353163
150,3,-0.667513,-0.0723264,9.77811,0.0771655,-0.621141,0.980445,-0.00667513,-0.000730993,0.0977811,1,3.74241e-05,-2.36574e-07,3.0663e-05,0.00748483,-4.73147e-05,0.00613261,0,0,0,0,0.0657577,0.510779,-0.996511,29,3,23075,2353163
150,4,-0.675333,-0.0819325,9.79268,0.0674775,-0.627759,0.997331,-0.00675681,-0.000828418,0.0979265,1,4.52304e-05,-1.79209e-05,1.73918e-05,0.00904608,-0.00358418,0.00347835,0,0,0,0,0.0633768,0.510781,-0.99549,29,3,23076,2353263
150,5,-0.675333,-0.0819325,9.79268,0.0674775,-0.627759,0.997331,-0.00675681,-0.000828418,0.0979265,1,4.52304e-05,-1.79209e-05,1.73918e-05,0.00904608,-0.00358418,0.00347835,0,0,0,0,0.0633768,0.510781,-0.99549,29,3,23076,2353263
150,6,-0.665271,-0.0796529,9.77906,0.0740251,-0.631423,0.983642,-0.00665397,-0.000806221,0.0977904,1,4.86132e-05,-6.54003e-06,1.38542e-05,0.00972264,-0.00130801,0.00277083,0,0,0,0,0.0648695,0.510733,-0.993477,29,3,23077,2353363
151,1,-0.665271,-0.0796529,9.77906,0.0740251,-0.631423,0.983642,-0.00665397,-0.000806221,0.0977904,1,4.86132e-05,-6.54003e-06,1.38542e-05,0.00972264,-0.00130801,0.00277083,0,0,0,0,0.0648695,0.510733,-0.993477,29,3,23077,2353363
151,2,-0.679471,-0.0879069,9.79062,0.0644429,-0.633578,0.991729,-0.00679637,-0.000887577,0.097906,1,4.14884e-05,-8.73029e-06,2.82434e-05,0.00829769,-0.00174606,0.00564868,0,0,0,0,0.0667902,0.511684,-0.99296,29,3,23078,2353463
152,1,-0.679471,-0.0879069,9.79062,0.0644429,-0.633578,0.991729,-0.00679637,-0.000887577,0.097906,1,4.14884e-05,-8.73029e-06,2.82434e-05,0.00829769,-0.00174606,0.00564868,0,0,0,0,0.0667902,0.511684,-0.99296,29,3,23078,2353463
152,2,-0.684454,-0.0907594,9.79708,0.0583445,-0.638591,1.00104,-0.00684665,-0.000915233,0.0979706,1,3.73329e-05,-1.09898e-05,2.36668e-05,0.00746658,-0.00219796,0.00473335,0,0,0,0,0.066264,0.512203,-0.994461,29,3,23079,2353563
153,1,-0.684454,-0.0907594,9.79708,0.0583445,-0.638591,1.00104,-0.00684665,-0.000915233,0.0979706,1,3.73329e-05,-1.09898e-05,2.36668e-05,0.00746658,-0.00219796,0.00473335,0,0,0,0,0.066264,0.512203,-0.994461,29,3,23079,2353563
153,2,-0.676011,-0.0786242,9.78831,0.0626028,-0.627226,0.987319,-0.00676373,-0.000793824,0.0978828,1,3.74149e-05,-1.86193e-05,1.90194e-05,0.00748297,-0.00372385,0.00380388,0,0,0,0,0.0652809,0.511262,-0.995993,29,3,23080,2353663
153,3,-0.676011,-0.0786242,9.78831,0.0626028,-0.627226,0.987319,-0.00676373,-0.000793824,0.0978828,1,3.74149e-05,-1.86193e-05,1.90194e-05,0.00748297,-0.00372385,0.00380388,0,0,0,0,0.0652809,0.511262,-0.995993,29,3,23080,2353663
153,4,-0.672174,-0.0933931,9.79901,0.0699517,-0.640908,0.99922,-0.00672376,-0.000941956,0.0979899,1,3.97358e-05,-1.04702e-05,1.77082e-05,0.00794715,-0.00209403,0.00354163,0,0,0,0,0.0638945,0.509305,-0.99502,29,3,23081,2353763
153,5,-0.672174,-0.0933931,9.79901,0.0699517,-0.640908,0.99922,-0.00672376,-0.000941956,0.0979899,1,3.97358e-05,-1.04702e-05,1.77082e-05,0.00794715,-0.00209403,0.00354163,0,0,0,0,0.0638945,0.509305,-0.99502,29,3,23081,2353763
153,6,-0.676391,-0.0852308,9.78418,0.0651909,-0.633835,0.9825,-0.00676626,-0.000857435,0.0978416,1,2.47099e-05,-1.21911e-05,2.14967e-05,0.00494197,-0.00243823,0.00429934,0,0,0,0,0.0619947,0.509303,-0.994001,29,3,23082,2353863
153,7,-0.676391,-0.0852308,9.78418,0.0651909,-0.633835,0.9825,-0.00676626,-0.000857435,0.0978416,1,2.47099e-05,-1.21911e-05,2.14967e-05,0.00494197,-0.00243823,0.00429934,0,0,0,0,0.0619947,0.509303,-0.994001,29,3,23082,2353863
153,8,-0.674346,-0.082089,9.78827,0.0696023,-0.629558,0.989935,-0.00674544,-0.000828805,0.0978825,1,3.8933e-05,-1.03289e-05,2.17089e-05,0.0077866,-0.00206578,0.00434178,0,0,0,0,0.0629289,0.511725,-0.993446,29,3,23083,2353963
154,1,-0.674346,-0.082089,9.78827,0.0696023,-0.629558,0.989935,-0.00674544,-0.000828805,0.0978825,1,3.8933e-05,-1.03289e-05,2.17089e-05,0.0077866,-0.00206578,0.00434178,0,0,0,0,0.0629289,0.511725,-0.993446,29,3,23083,2353963
154,2,-0.670348,-0.0849425,9.78447,0.0723997,-0.637163,0.984971,-0.00670474,-0.000858856,0.0978445,1,4.66239e-05,-6.66069e-06,2.28565e-05,0.00932478,-0.00133214,0.00457131,0,0,0,0,0.0629251,0.512691,-0.99292,29,3,23084,2354063
154,3,-0.670348,-0.0849425,9.78447,0.0723997,-0.637163,0.984971,-0.00670474,-0.000858856,0.0978445,1,4.66239e-05,-6.66069e-06,2.28565e-05,0.00932478,-0.00133214,0.00457131,0,0,0,0,0.0629251,0.512691,-0.99292,29,3,23084,2354063
154,4,-0.667176,-0.0849518,9.78446,0.0720697,-0.636888,0.985932,-0.00667484,-0.000858019,0.0978443,1,4.17417e-05,-1.59613e-05,2.49147e-05,0.00834834,-0.00319226,0.00498295,0,0,0,0,0.064804,0.511745,-0.995475,29,3,23085,2354163
155,1,-0.667176,-0.0849518,9.78446,0.0720697,-0.636888,0.985932,-0.00667484,-0.000858019,0.0978443,1,4.17417e-05,-1.59613e-05,2.49147e-05,0.00834834,-0.00319226,0.00498295,0,0,0,0,0.064804,0.511745,-0.995475,29,3,23085,2354163
155,2,-0.673646,-0.0737466,9.78969,0.0718268,-0.6252,0.9867,-0.00674013,-0.000747399,0.0978966,1,4.91944e-05,-1.88834e-05,2.23516e-05,0.00983889,-0.00377669,0.00447031,0,0,0,0,0.064767,0.511772,-0.996989,29,3,23086,2354263
155,3,-0.673646,-0.0737466,9.78969,0.0718268,-0.6252,0.9867,-0.00674013,-0.000747399,0.0978966,1,4.91944e-05,-1.88834e-05,2.23516e-05,0.00983889,-0.00377669,0.00447031,0,0,0,0,0.064767,0.511772,-0.996989,29,3,23086,2354263
155,4,-0.680134,-0.0951716,9.79395,0.0660557,-0.648705,0.995364,-0.0068015,-0.000957988,0.0979394,1,3.15327e-05,-8.97771e-07,7.01853e-06,0.00630654,-0.000179554,0.00140371,0,0,0,0,0.0634096,0.510276,-0.994491,29,3,23087,2354363
156,1,-0.680134,-0.0951716,9.79395,0.0660557,-0.648705,0.995364,-0.0068015,-0.000957988,0.0979394,1,3.15327e-05,-8.97771e-07,7.01853e-06,0.00630654,-0.000179554,0.00140371,0,0,0,0,0.0634096,0.510276,-0.994491,29,3,23087,2354363
156,2,-0.682973,-0.083357,9.79068,0.0581884,-0.632848,0.994115,-0.00682899,-0.000842465,0.0979068,1,4.36902e-05,3.53914e-06,2.48942e-05,0.00873804,0.000707829,0.00497884,0,0,0,0,0.0634708,0.508785,-0.993009,29,3,23088,2354463
156,3,-0.682973,-0.083357,9.79068,0.0581884,-0.632848,0.994115,-0.00682899,-0.000842465,0.0979068,1,4.36902e-05,3.53914e-06,2.48942e-05,0.00873804,0.000707829,0.00497884,0,0,0,0,0.0634708,0.508785,-0.993009,29,3,23088,2354463
156,4,-0.671002,-0.0763996,9.78083,0.074441,-0.627778,0.979553,-0.00671265,-0.000772738,0.097808,1,4.33567e-05,-1.35958e-05,1.94644e-05,0.00867135,-0.00271916,0.00389288,0,0,0,0,0.0639519,0.508781,-0.993011,29,3,23089,2354563
156,5,-0.671002,-0.0763996,9.78083,0.074441,-0.627778,0.979553,-0.00671265,-0.000772738,0.097808,1,4.33567e-05,-1.35958e-05,1.94644e-05,0.00867135,-0.00271916,0.00389288,0,0,0,0,0.0639519,0.508781,-0.993011,29,3,23089,2354563
156,6,-0.671905,-0.0850552,9.78449,0.0690944,-0.63346,0.983612,-0.00672201,-0.000857683,0.0978447,1,3.56511e-05,-1.52288e-05,1.14756e-05,0.00713022,-0.00304576,0.00229511,0,0,0,0,0.0639154,0.510254,-0.993484,29,3,23090,2354663
157,1,-0.671905,-0.0850552,9.78449,0.0690944,-0.63346,0.983612,-0.00672201,-0.000857683,0.0978447,1,3.56511e-05,-1.52288e-05,1.14756e-05,0.00713022,-0.00304576,0.00229511,0,0,0,0,0.0639154,0.510254,-0.993484,29,3,23090,2354663
157,2,-0.681085,-0.0904961,9.78485,0.0568813,-0.640978,0.984126,-0.00681332,-0.000913921,0.0978482,1,4.41149e-05,-1.28728e-05,2.39629e-05,0.00882298,-0.00257455,0.00479258,0,0,0,0,0.065289,0.510774,-0.996004,29,3,23091,2354763
157,3,-0.681085,-0.0904961,9.78485,0.0568813,-0.640978,0.984126,-0.00681332,-0.000913921,0.0978482,1,4.41149e-05,-1.28728e-05,2.39629e-05,0.00882298,-0.00257455,0.00479258,0,0,0,0,0.065289,0.510774,-0.996004,29,3,23091,2354763
157,4,-0.677693,-0.0903226,9.7933,0.0613676,-0.644123,0.992701,-0.0067782,-0.000911167,0.0979329,1,3.99724e-05,-6.56401e-06,8.25326e-06,0.00799448,-0.0013128,0.00165065,0,0,0,0,0.0642978,0.510322,-0.997524,29,3,23092,2354863
157,5,-0.677693,-0.0903226,9.7933,0.0613676,-0.644123,0.992701,-0.0067782,-0.000911167,0.0979329,1,3.99724e-05,-6.56401e-06,8.25326e-06,0.00799448,-0.0013128,0.00165065,0,0,0,0,0.0642978,0.510322,-0.997524,29,3,23092,2354863
157,6,-0.679562,-0.0760692,9.7836,0.056686,-0.626819,0.987627,-0.00679738,-0.00077104,0.0978358,1,5.13047e-05,-9.19815e-06,2.27391e-05,0.0102609,-0.00183963,0.00454782,0,0,0,0,0.0629237,0.508356,-0.996047,29,3,23093,2354963
157,7,-0.679562,-0.0760692,9.7836,0.056686,-0.626819,0.987627,-0.00679738,-0.00077104,0.0978358,1,5.13047e-05,-9.19815e-06,2.27391e-05,0.0102609,-0.00183963,0.00454782,0,0,0,0,0.0629237,0.508356,-0.996047,29,3,23093,2354963
157,8,-0.67596,-0.0882679,9.79127,0.0662439,-0.641791,0.988995,-0.00676217,-0.00088846,0.0979125,1,2.76175e-05,-1.34128e-05,2.75877e-05,0.00552349,-0.00268257,0.00551753,0,0,0,0,0.0620028,0.508815,-0.994012,29,3,23094,2355063
158,1,-0.67596,-0.0882679,9.79127,0.0662439,-0.641791,0.988995,-0.00676217,-0.00088846,0.0979125,1,2.76175e-05,-1.34128e-05,2.75877e-05,0.00552349,-0.00268257,0.00551753,0,0,0,0,0.0620028,0.508815,-0.994012,29,3,23094,2355063
158,2,-0.669593,-0.0854611,9.78718,0.0740847,-0.633699,0.985466,-0.00669803,-0.000860527,0.0978716,1,2.86251e-05,-1.09728e-05,2.33539e-05,0.00572502,-0.00219456,0.00467078,0,0,0,0,0.063467,0.509752,-0.992483,29,3,23095,2355163
159,1,-0.669593,-0.0854611,9.78718,0.0740847,-0.633699,0.985466,-0.00669803,-0.000860527,0.0978716,1,2.86251e-05,-1.09728e-05,2.33539e-05,0.00572502,-0.00219456,0.00467078,0,0,0,0,0.063467,0.509752,-0.992483,29,3,23095,2355163
159,2,-0.673426,-0.0792275,9.78624,0.0653905,-0.630672,0.984432,-0.0067359,-0.000799529,0.0978622,1,3.55784e-05,-8.57352e-06,2.15658e-05,0.00711568,-0.00171471,0.00431316,0,0,0,0,0.0648572,0.510742,-0.993982,29,3,23096,2355263
159,3,-0.673426,-0.0792275,9.78624,0.0653905,-0.630672,0.984432,-0.0067359,-0.000799529,0.0978622,1,3.55784e-05,-8.57352e-06,2.15658e-05,0.00711568,-0.00171471,0.00431316,0,0,0,0,0.0648572,0.510742,-0.993982,29,3,23096,2355263
159,4,-0.678157,-0.0920131,9.78413,0.0586473,-0.642748,0.988578,-0.0067819,-0.000925177,0.0978412,1,2.48477e-05,-1.77318e-06,1.35657e-05,0.00496953,-0.000354636,0.00271313,0,0,0,0,0.0653094,0.510278,-0.99551,29,3,23097,2355363
159,5,-0.678157,-0.0920131,9.78413,0.0586473,-0.642748,0.988578,-0.0067819,-0.000925177,0.0978412,1,2.48477e-05,-1.77318e-06,1.35657e-05,0.00496953,-0.000354636,0.00271313,0,0,0,0,0.0653094,0.510278,-0.99551,29,3,23097,2355363
159,6,-0.675297,-0.0907741,9.78446,0.0661355,-0.646353,0.985658,-0.00675467,-0.000917615,0.0978444,1,4.91516e-05,-8.87749e-06,1.89111e-05,0.00983032,-0.0017755,0.00378222,0,0,0,0,0.0643139,0.509346,-0.997546,29,3,23098,2355463
159,7,-0.675297,-0.0907741,9.78446,0.0661355,-0.646353,0.985658,-0.00675467,-0.000917615,0.0978444,1,4.91516e-05,-8.87749e-06,1.89111e-05,0.00983032,-0.0017755,0.00378222,0,0,0,0,0.0643139,0.509346,-0.997546,29,3,23098,2355463
159,8,-0.673739,-0.0809768,9.78861,0.0670558,-0.63627,0.988783,-0.00673724,-0.00081754,0.097886,1,3.80987e-05,6.01401e-07,2.32456e-05,0.00761974,0.00012028,0.00464911,0,0,0,0,0.0629318,0.507868,-0.996057,29,3,23099,2355563
160,1,-0.673739,-0.0809768,9.78861,0.0670558,-0.63627,0.988783,-0.00673724,-0.00081754,0.097886,1,3.80987e-05,6.01401e-07,2.32456e-05,0.00761974,0.00012028,0.00464911,0,0,0,0,0.0629318,0.507868,-0.996057,29,3,23099,2355563
160,2,-0.671075,-0.0714887,9.7958,0.0727815,-0.620518,0.996593,-0.00671089,-0.000722597,0.0979579,1,3.79272e-05,-8.32589e-07,2.08597e-05,0.00758544,-0.000166518,0.00417194,0,0,0,0,0.0629897,0.508789,-0.993007,29,3,23100,2355663
160,3,-0.671075,-0.0714887,9.7958,0.0727815,-0.620518,0.996593,-0.00671089,-0.000722597,0.0979579,1,3.79272e-05,-8.32589e-07,2.08597e-05,0.00758544,-0.000166518,0.00417194,0,0,0,0,0.0629897,0.508789,-0.993007,29,3,23100,2355663
160,4,-0.673409,-0.081505,9.78961,0.0675091,-0.632984,0.990164,-0.00673516,-0.000826325,0.097896,1,5.65443e-05,-5.59525e-06,1.51582e-05,0.0113089,-0.00111905,0.00303165,0,0,0,0,0.0644866,0.50922,-0.990479,29,3,23101,2355763
160,5,-0.673409,-0.081505,9.78961,0.0675091,-0.632984,0.990164,-0.00673516,-0.000826325,0.097896,1,5.65443e-05,-5.59525e-06,1.51582e-05,0.0113089,-0.00111905,0.00303165,0,0,0,0,0.0644866,0.50922,-0.990479,29,3,23101,2355763
160,6,-0.681634,-0.0765984,9.78564,0.0626625,-0.628081,0.988965,-0.00681684,-0.000774114,0.0978563,1,4.07659e-05,-2.6245e-06,1.1131e-05,0.00815318,-0.000524901,0.00222621,0,0,0,0,0.0644539,0.509726,-0.991478,29,3,23102,2355863
161,1,-0.681634,-0.0765984,9.78564,0.0626625,-0.628081,0.988965,-0.00681684,-0.000774114,0.0978563,1,4.07659e-05,-2.6245e-06,1.1131e-05,0.00815318,-0.000524901,0.00222621,0,0,0,0,0.0644539,0.509726,-0.991478,29,3,23102,2355863
161,2,-0.667405,-0.0698827,9.78356,0.0736757,-0.624056,0.979362,-0.0066755,-0.000707769,0.0978355,1,4.41354e-05,-7.56588e-06,2.29292e-05,0.00882707,-0.00151318,0.00458585,0,0,0,0,0.063903,0.510263,-0.993988,29,3,23103,2355963
161,3,-0.667405,-0.0698827,9.78356,0.0736757,-0.624056,0.979362,-0.0066755,-0.000707769,0.0978355,1,4.41354e-05,-7.56588e-06,2.29292e-05,0.00882707,-0.00151318,0.00458585,0,0,0,0,0.063903,0.510263,-0.993988,29,3,23103,2355963
161,4,-0.682852,-0.0879061,9.78963,0.060003,-0.642796,0.988103,-0.00682912,-0.000886948,0.0978962,1,3.92664e-05,-3.20377e-06,1.45676e-05,0.00785329,-0.000640755,0.00291352,0,0,0,0,0.0633688,0.511269,-0.995479,29,3,23104,2356063
162,1,-0.682852,-0.0879061,9.78963,0.060003,-0.642796,0.988103,-0.00682912,-0.000886948,0.0978962,1,3.92664e-05,-3.20377e-06,1.45676e-05,0.00785329,-0.000640755,0.00291352,0,0,0,0,0.0633688,0.511269,-0.995479,29,3,23104,2356063
162,2,-0.674115,-0.0747259,9.78595,0.0666423,-0.629014,0.985942,-0.00674368,-0.000756694,0.0978592,1,4.67989e-05,-1.30889e-05,2.04389e-05,0.00935977,-0.00261778,0.00408779,0,0,0,0,0.0643225,0.510304,-0.996515,29,3,23105,2356163
162,3,-0.674115,-0.0747259,9.78595,0.0666423,-0.629014,0.985942,-0.00674368,-0.000756694,0.0978592,1,4.67989e-05,-1.30889e-05,2.04389e-05,0.00935977,-0.00261778,0.00408779,0,0,0,0,0.0643225,0.510304,-0.996515,29,3,23105,2356163
162,4,-0.673263,-0.0847951,9.7879,0.0685563,-0.635362,0.986348,-0.00673475,-0.000854945,0.0978787,1,3.4528e-05,-1.09823e-05,1.7395e-05,0.0069056,-0.00219645,0.003479,0,0,0,0,0.0638703,0.510768,-0.994987,29,3,23106,2356263
162,5,-0.673263,-0.0847951,9.7879,0.0685563,-0.635362,0.986348,-0.00673475,-0.000854945,0.0978787,1,3.4528e-05,-1.09823e-05,1.7395e-05,0.0069056,-0.00219645,0.003479,0,0,0,0,0.0638703,0.510768,-0.994987,29,3,23106,2356263
162,6,-0.675646,-0.0813872,9.80049,0.0690313,-0.633186,0.998753,-0.00675789,-0.000821844,0.0980047,1,3.87673e-05,-7.53981e-06,2.76751e-05,0.00775347,-0.00150796,0.00553502,0,0,0,0,0.0649227,0.509731,-0.991985,29,3,23107,2356363
162,7,-0.675646,-0.0813872,9.80049,0.0690313,-0.633186,0.998753,-0.00675789,-0.000821844,0.0980047,1,3.87673e-05,-7.53981e-06,2.76751e-05,0.00775347,-0.00150796,0.00553502,0,0,0,0,0.0649227,0.509731,-0.991985,29,3,23107,2356363
162,8,-0.680139,-0.0792106,9.7829,0.059986,-0.634692,0.98634,-0.00680438,-0.000801196,0.0978287,1,4.55547e-05,-1.53892e-05,1.29955e-05,0.00911095,-0.00307785,0.0025991,0,0,0,0,0.0638788,0.511726,-0.993956,29,3,23108,2356463
162,9,-0.680139,-0.0792106,9.7829,0.059986,-0.634692,0.98634,-0.00680438,-0.000801196,0.0978287,1,4.55547e-05,-1.53892e-05,1.29955e-05,0.00911095,-0.00307785,0.0025991,0,0,0,0,0.0638788,0.511726,-0.993956,29,3,23108,2356463
162,10,-0.675317,-0.0870508,9.79332,0.0659252,-0.639873,0.995792,-0.00675625,-0.000880502,0.0979329,1,4.89558e-05,-1.6013e-05,3.00504e-05,0.00979115,-0.00320259,0.00601007,0,0,0,0,0.0628388,0.512754,-0.996453,29,3,23109,2356563
162,11,-0.675317,-0.0870508,9.79332,0.0659252,-0.639873,0.995792,-0.00675625,-0.000880502,0.0979329,1,4.89558e-05,-1.6013e-05,3.00504e-05,0.00979115,-0.00320259,0.00601007,0,0,0,0,0.0628388,0.512754,-0.996453,29,3,23109,2356563
162,12,-0.677399,-0.0921152,9.79023,0.0603354,-0.64824,0.986604,-0.00677539,-0.000926885,0.0979021,1,2.79172e-05,-7.3335e-06,1.96473e-05,0.00558345,-0.0014667,0.00392945,0,0,0,0,0.0637882,0.51131,-0.998005,29,3,23110,2356663
163,1,-0.677399,-0.0921152,9.79023,0.0603354,-0.64824,0.986604,-0.00677539,-0.000926885,0.0979021,1,2.79172e-05,-7.3335e-06,1.96473e-05,0.00558345,-0.0014667,0.00392945,0,0,0,0,0.0637882,0.51131,-0.998005,29,3,23110,2356663
163,2,-0.674838,-0.0793371,9.78354,0.0677375,-0.633244,0.985888,-0.00674906,-0.00079902,0.0978353,1,2.82228e-05,-3.58555e-06,9.36353e-06,0.00564456,-0.000717109,0.00187271,0,0,0,0,0.063356,0.509833,-0.997026,29,3,23111,2356763
163,3,-0.674838,-0.0793371,9.78354,0.0677375,-0.633244,0.985888,-0.00674906,-0.00079902,0.0978353,1,2.82228e-05,-3.58555e-06,9.36353e-06,0.00564456,-0.000717109,0.00187271,0,0,0,0,0.063356,0.509833,-0.997026,29,3,23111,2356763
163,4,-0.68008,-0.0836561,9.78863,0.0607216,-0.639756,0.989699,-0.0068034,-0.000846592,0.0978861,1,4.92987e-05,-1.35023e-05,2.79451e-05,0.00985975,-0.00270045,0.00558901,0,0,0,0,0.0629527,0.508816,-0.994521,29,3,23112,2356863
164,1,-0.68008,-0.0836561,9.78863,0.0607216,-0.639756,0.989699,-0.0068034,-0.000846592,0.0978861,1,4.92987e-05,-1.35023e-05,2.79451e-05,0.00985975,-0.00270045,0.00558901,0,0,0,0,0.0629527,0.508816,-0.994521,29,3,23112,2356863
164,2,-0.67734,-0.0761516,9.79784,0.0649417,-0.634527,0.994938,-0.00677664,-0.000771794,0.0979781,1,5.10905e-05,-1.66799e-05,1.96621e-05,0.0102181,-0.00333598,0.00393241,0,0,0,0,0.0644582,0.510204,-0.990962,29,3,23113,2356963
164,3,-0.67734,-0.0761516,9.79784,0.0649417,-0.634527,0.994938,-0.00677664,-0.000771794,0.0979781,1,5.10905e-05,-1.66799e-05,1.96621e-05,0.0102181,-0.00333598,0.00393241,0,0,0,0,0.0644582,0.510204,-0.990962,29,3,23113,2356963
164,4,-0.680455,-0.085399,9.78862,0.0639904,-0.642164,0.988591,-0.00680764,-0.00086169,0.0978859,1,3.80033e-05,-1.59594e-05,1.91464e-05,0.00760067,-0.00319188,0.00382928,0,0,0,0,0.0643931,0.512661,-0.991917,29,3,23114,2357063
165,1,-0.680455,-0.085399,9.78862,0.0639904,-0.642164,0.988591,-0.00680764,-0.00086169,0.0978859,1,3.80033e-05,-1.59594e-05,1.91464e-05,0.00760067,-0.00319188,0.00382928,0,0,0,0,0.0643931,0.512661,-0.991917,29,3,23114,2357063
165,2,-0.670429,-0.0768786,9.78353,0.0681638,-0.635093,0.98427,-0.0067049,-0.000776312,0.0978351,1,3.76031e-05,-3.21474e-06,1.25355e-05,0.00752062,-0.000642949,0.0025071,0,0,0,0,0.0657544,0.513191,-0.994942,29,3,23115,2357163
165,3,-0.670429,-0.0768786,9.78353,0.0681638,-0.635093,0.98427,-0.0067049,-0.000776312,0.0978351,1,3.76031e-05,-3.21474e-06,1.25355e-05,0.00752062,-0.000642949,0.0025071,0,0,0,0,0.0657544,0.513191,-0.994942,29,3,23115,2357163
165,4,-0.677725,-0.0820481,9.79609,0.0611541,-0.641378,0.994894,-0.00677838,-0.000828744,0.0979607,1,4.16171e-05,-5.82104e-06,8.09303e-06,0.00832342,-0.00116421,0.00161861,0,0,0,0,0.0642902,0.512255,-0.996471,29,3,23116,2357263
165,5,-0.677725,-0.0820481,9.79609,0.0611541,-0.641378,0.994894,-0.00677838,-0.000828744,0.0979607,1,4.16171e-05,-5.82104e-06,8.09303e-06,0.00832342,-0.00116421,0.00161861,0,0,0,0,0.0642902,0.512255,-0.996471,29,3,23116,2357263
165,6,-0.685395,-0.0852494,9.79271,0.0548974,-0.645227,0.99394,-0.00685301,-0.000859819,0.0979271,1,3.59415e-05,4.63423e-06,2.08431e-05,0.00718831,0.000926846,0.00416863,0,0,0,0,0.0634134,0.509309,-0.995018,29,3,23117,2357363
165,7,-0.685395,-0.0852494,9.79271,0.0548974,-0.645227,0.99394,-0.00685301,-0.000859819,0.0979271,1,3.59415e-05,4.63423e-06,2.08431e-05,0.00718831,0.000926846,0.00416863,0,0,0,0,0.0634134,0.509309,-0.995018,29,3,23117,2357363
165,8,-0.678697,-0.0772174,9.78766,0.0630813,-0.640673,0.990969,-0.00679091,-0.000779634,0.0978763,1,3.61411e-05,-2.03658e-05,2.83326e-05,0.00722823,-0.00407317,0.00566653,0,0,0,0,0.0634708,0.508785,-0.993009,29,3,23118,2357463
166,1,-0.678697,-0.0772174,9.78766,0.0630813,-0.640673,0.990969,-0.00679091,-0.000779634,0.0978763,1,3.61411e-05,-2.03658e-05,2.83326e-05,0.00722823,-0.00407317,0.00566653,0,0,0,0,0.0634708,0.508785,-0.993009,29,3,23118,2357463
166,2,-0.678081,-0.0864655,9.79775,0.0601208,-0.652429,0.99992,-0.006781,-0.000873504,0.0979774,1,4.39473e-05,-1.09888e-06,1.75088e-05,0.00878946,-0.000219775,0.00350175,0,0,0,0,0.0639396,0.50879,-0.993516,29,3,23119,2357563
166,3,-0.678081,-0.0864655,9.79775,0.0601208,-0.652429,0.99992,-0.006781,-0.000873504,0.0979774,1,4.39473e-05,-1.09888e-06,1.75088e-05,0.00878946,-0.000219775,0.00350175,0,0,0,0,0.0639396,0.50879,-0.993516,29,3,23119,2357563
166,4,-0.663958,-0.0749388,9.78181,0.0780537,-0.634896,0.978988,-0.00664123,-0.000757716,0.0978179,1,4.16301e-05,-8.50116e-06,1.38675e-05,0.00832601,-0.00170023,0.0027735,0,0,0,0,0.0638784,0.510281,-0.994998,29,3,23120,2357663
167,1,-0.663958,-0.0749388,9.78181,0.0780537,-0.634896,0.978988,-0.00664123,-0.000757716,0.0978179,1,4.16301e-05,-8.50116e-06,1.38675e-05,0.00832601,-0.00170023,0.0027735,0,0,0,0,0.0638784,0.510281,-0.994998,29,3,23120,2357663
167,2,-0.687092,-0.0788756,9.78566,0.0505697,-0.637993,0.98481,-0.00687186,-0.000798914,0.0978564,1,5.02671e-05,-5.02362e-06,2.32628e-05,0.0100534,-0.00100472,0.00465255,0,0,0,0,0.0662925,0.511218,-0.993978,29,3,23121,2357763
168,1,-0.687092,-0.0788756,9.78566,0.0505697,-0.637993,0.98481,-0.00687186,-0.000798914,0.0978564,1,5.02671e-05,-5.02362e-06,2.32628e-05,0.0100534,-0.00100472,0.00465255,0,0,0,0,0.0662925,0.511218,-0.993978,29,3,23121,2357763
168,2,-0.673058,-0.0836619,9.794,0.0668674,-0.644586,0.99328,-0.00673069,-0.000846119,0.0979399,1,4.6555e-05,-8.06691e-07,2.82917e-05,0.009311,-0.000161338,0.00565834,0,0,0,0,0.0663209,0.510234,-0.993495,29,3,23122,2357863
168,3,-0.673058,-0.0836619,9.794,0.0668674,-0.644586,0.99328,-0.00673069,-0.000846119,0.0979399,1,4.6555e-05,-8.06691e-07,2.82917e-05,0.009311,-0.000161338,0.00565834,0,0,0,0,0.0663209,0.510234,-0.993495,29,3,23122,2357863
168,4,-0.664356,-0.0900427,9.78508,0.0759706,-0.649765,0.981372,-0.00664779,-0.000909016,0.0978504,1,4.25057e-05,-2.1815e-05,2.0383e-05,0.00850114,-0.004363,0.00407661,0,0,0,0,0.063438,0.509291,-0.994008,29,3,23123,2357963
168,5,-0.664356,-0.0900427,9.78508,0.0759706,-0.649765,0.981372,-0.00664779,-0.000909016,0.0978504,1,4.25057e-05,-2.1815e-05,2.0383e-05,0.00850114,-0.004363,0.00407661,0,0,0,0,0.063438,0.509291,-0.994008,29,3,23123,2357963
168,6,-0.663165,-0.0897591,9.78472,0.0781524,-0.650587,0.983686,-0.0066333,-0.000905199,0.0978471,1,3.7372e-05,-8.65017e-06,2.2201e-05,0.0074744,-0.00173003,0.0044402,0,0,0,0,0.0619786,0.510279,-0.993979,29,3,23124,2358063
169,1,-0.663165,-0.0897591,9.78472,0.0781524,-0.650587,0.983686,-0.0066333,-0.000905199,0.0978471,1,3.7372e-05,-8.65017e-06,2.2201e-05,0.0074744,-0.00173003,0.0044402,0,0,0,0,0.0619786,0.510279,-0.993979,29,3,23124,2358063
169,2,-0.68173,-0.086907,9.79167,0.0573495,-0.652838,0.9909,-0.00682004,-0.000877441,0.0979164,1,4.15464e-05,-1.41541e-05,1.7261e-05,0.00830928,-0.00283081,0.00345219,0,0,0,0,0.0644662,0.509717,-0.990973,29,3,23125,2358163
170,1,-0.68173,-0.086907,9.79167,0.0573495,-0.652838,0.9909,-0.00682004,-0.000877441,0.0979164,1,4.15464e-05,-1.41541e-05,1.7261e-05,0.00830928,-0.00283081,0.00345219,0,0,0,0,0.0644662,0.509717,-0.990973,29,3,23125,2358163
170,2,-0.674134,-0.0861364,9.795,0.0666046,-0.646862,0.990557,-0.00674122,-0.000869738,0.0979499,1,4.21106e-05,5.28941e-07,9.20173e-06,0.00842213,0.000105788,0.00184035,0,0,0,0,0.0648985,0.511194,-0.991952,29,3,23126,2358263
171,1,-0.674134,-0.0861364,9.795,0.0666046,-0.646862,0.990557,-0.00674122,-0.000869738,0.0979499,1,4.21106e-05,5.28941e-07,9.20173e-06,0.00842213,0.000105788,0.00184035,0,0,0,0,0.0648985,0.511194,-0.991952,29,3,23126,2358263
171,2,-0.674286,-0.0870849,9.79399,0.0702807,-0.646537,0.991103,-0.00674436,-0.00088063,0.0979397,1,4.80135e-05,-7.88268e-06,2.7906e-05,0.0096027,-0.00157654,0.0055812,0,0,0,0,0.0648083,0.512224,-0.994959,29,3,23127,2358363
172,1,-0.674286,-0.0870849,9.79399,0.0702807,-0.646537,0.991103,-0.00674436,-0.00088063,0.0979397,1,4.80135e-05,-7.88268e-06,2.7906e-05,0.0096027,-0.00157654,0.0055812,0,0,0,0,0.0648083,0.512224,-0.994959,29,3,23127,2358363
172,2,-0.667465,-0.0823589,9.79874,0.0718356,-0.643702,0.998524,-0.00667655,-0.000831876,0.0979872,1,4.06727e-05,-9.93001e-06,2.36554e-05,0.00813455,-0.001986,0.00473109,0,0,0,0,0.0638333,0.510795,-0.996502,29,3,23128,2358463
172,3,-0.667465,-0.0823589,9.79874,0.0718356,-0.643702,0.998524,-0.00667655,-0.000831876,0.0979872,1,4.06727e-05,-9.93001e-06,2.36554e-05,0.00813455,-0.001986,0.00473109,0,0,0,0,0.0638333,0.510795,-0.996502,29,3,23128,2358463
172,4,-0.663897,-0.0835776,9.78953,0.0720309,-0.648143,0.989187,-0.00664045,-0.000845194,0.0978951,1,4.6417e-05,-7.79683e-06,2.48033e-05,0.0092834,-0.00155937,0.00496065,0,0,0,0,0.0634091,0.50883,-0.995533,29,3,23129,2358563
172,5,-0.663897,-0.0835776,9.78953,0.0720309,-0.648143,0.989187,-0.00664045,-0.000845194,0.0978951,1,4.6417e-05,-7.79683e-06,2.48033e-05,0.0092834,-0.00155937,0.00496065,0,0,0,0,0.0634091,0.50883,-0.995533,29,3,23129,2358563
172,6,-0.675277,-0.0873949,9.7906,0.063431,-0.652122,0.989264,-0.00675481,-0.000884313,0.0979058,1,5.13253e-05,-1.06581e-05,2.33014e-05,0.0102651,-0.00213161,0.00466028,0,0,0,0,0.0634751,0.509264,-0.992494,29,3,23130,2358663
173,1,-0.675277,-0.0873949,9.7906,0.063431,-0.652122,0.989264,-0.00675481,-0.000884313,0.0979058,1,5.13253e-05,-1.06581e-05,2.33014e-05,0.0102651,-0.00213161,0.00466028,0,0,0,0,0.0634751,0.509264,-0.992494,29,3,23130,2358663
173,2,-0.67065,-0.0812162,9.79266,0.068102,-0.646016,0.992616,-0.0067083,-0.000821287,0.0979264,1,4.54782e-05,-9.30428e-06,1.62946e-05,0.00909565,-0.00186086,0.00325892,0,0,0,0,0.0644377,0.510701,-0.991456,29,3,23131,2358763
173,3,-0.67065,-0.0812162,9.79266,0.068102,-0.646016,0.992616,-0.0067083,-0.000821287,0.0979264,1,4.54782e-05,-9.30428e-06,1.62946e-05,0.00909565,-0.00186086,0.00325892,0,0,0,0,0.0644377,0.510701,-0.991456,29,3,23131,2358763
173,4,-0.67773,-0.0781149,9.78866,0.0631406,-0.641953,0.983933,-0.00678013,-0.000791352,0.0978863,1,4.99134e-05,-1.47296e-05,3.18363e-05,0.00998268,-0.00294592,0.00636726,0,0,0,0,0.0638788,0.511726,-0.993956,29,3,23132,2358863
174,1,-0.67773,-0.0781149,9.78866,0.0631406,-0.641953,0.983933,-0.00678013,-0.000791352,0.0978863,1,4.99134e-05,-1.47296e-05,3.18363e-05,0.00998268,-0.00294592,0.00636726,0,0,0,0,0.0638788,0.511726,-0.993956,29,3,23132,2358863
174,2,-0.681751,-0.0807449,9.79546,0.0594954,-0.643676,0.992533,-0.00681992,-0.000816976,0.0979543,1,4.72498e-05,-1.24351e-05,1.9876e-05,0.00944996,-0.00248702,0.0039752,0,0,0,0,0.0638091,0.512259,-0.996469,29,3,23133,2358963
175,1,-0.681751,-0.0807449,9.79546,0.0594954,-0.643676,0.992533,-0.00681992,-0.000816976,0.0979543,1,4.72498e-05,-1.24351e-05,1.9876e-05,0.00944996,-0.00248702,0.0039752,0,0,0,0,0.0638091,0.512259,-0.996469,29,3,23133,2358963
175,2,-0.673446,-0.0819819,9.78791,0.0688394,-0.646604,0.983381,-0.00673532,-0.000827625,0.0978789,1,3.86088e-05,-4.52069e-06,1.83956e-05,0.00772177,-0.000904138,0.00367913,0,0,0,0,0.0633033,0.512281,-0.997476,29,3,23134,2359063
176,1,-0.673446,-0.0819819,9.78791,0.0688394,-0.646604,0.983381,-0.00673532,-0.000827625,0.0978789,1,3.86088e-05,-4.52069e-06,1.83956e-05,0.00772177,-0.000904138,0.00367913,0,0,0,0,0.0633033,0.512281,-0.997476,29,3,23134,2359063
