frame_id,accel_x,accel_y,accel_z,free_accel_x,free_accel_y,free_accel_z,delta_v_x,delta_v_y,delta_v_z,delta_q_w,delta_q_x,delta_q_y,delta_q_z,rate_x,rate_y,rate_z,quat_w,quat_x,quat_y,quat_z,mag_x,mag_y,mag_z,temperature,status_byte,packet_counter,time_fine
15,-0.809446,-0.0540727,9.78442,-0.0201185,-0.603885,0.983947,-0.00809192,-0.000549279,0.0978443,1,4.25912e-05,1.2938e-05,1.33702e-05,0.00851824,0.0025876,0.00267403,0,0,0,0,0.124992,0.507971,-0.976139,34.8125,1,49803,5034815
16,-0.868885,0.0129587,9.76945,-0.0870668,-0.553345,0.970984,-0.00868648,0.000120353,0.0976947,1,4.50891e-05,1.21852e-05,2.44118e-05,0.00901783,0.00243705,0.00488235,0,0,0,0,0.127509,0.509315,-0.970565,34.8125,1,49806,5035115
17,-0.846283,-0.0342875,9.7784,-0.0593502,-0.602238,0.979983,-0.00846175,-0.000350061,0.0977841,1,3.58168e-05,5.47241e-06,1.07233e-05,0.00716336,0.00109448,0.00214465,0,0,0,0,0.123129,0.507942,-0.973606,34.8125,1,49810,5035515
18,-0.911047,0.0134766,9.76706,-0.129041,-0.555698,0.970355,-0.00911477,0.000128938,0.0976702,1,2.81539e-05,-2.19606e-05,1.80079e-05,0.00563078,-0.00439212,0.00360158,0,0,0,0,0.126848,0.511378,-0.976577,34.8125,1,49813,5035815
19,-0.670676,-0.0325971,9.78301,0.112938,-0.59391,0.971905,-0.00670744,-0.000329742,0.09783,1,1.763e-05,-3.58199e-06,2.39927e-05,0.003526,-0.000716398,0.00479854,0,0,0,0,0.124626,0.506927,-0.97212,34.8125,1,49816,5036115
20,-0.802992,-0.0758775,9.79607,-0.0255309,-0.657437,0.987431,-0.0080273,-0.00076751,0.0979608,1,4.41261e-05,1.33107e-05,5.59123e-06,0.00882521,0.00266214,0.00111825,0,0,0,0,0.125424,0.509448,-0.977118,34.8125,1,49820,5036515
21,-0.733146,-0.0893071,9.77617,0.0394243,-0.607442,0.97845,-0.00733311,-0.000904982,0.0977615,1,5.92471e-05,-8.60398e-06,2.22528e-05,0.0118494,-0.0017208,0.00445056,0,0,0,0,0.127998,0.508823,-0.970578,34.8125,1,49823,5036815
22,-0.618634,-0.0937532,9.79027,0.145878,-0.699279,0.98006,-0.00618405,-0.000944415,0.0979027,1,3.29446e-05,1.13515e-05,3.49337e-05,0.00658893,0.00227029,0.00698674,0,0,0,0,0.124495,0.510396,-0.975073,34.8125,1,49827,5037215
23,-0.715829,-0.0361694,9.79479,0.0750025,-0.59538,0.985347,-0.00715086,-0.000372724,0.0979484,1,5.41698e-05,3.78448e-05,2.92621e-05,0.010834,0.00756896,0.00585243,0,0,0,0,0.128427,0.511267,-0.971031,34.8125,1,49830,5037515
24,-0.732762,0.00856131,9.80749,0.057473,-0.561422,0.998616,-0.00732242,7.90136e-05,0.0980753,1,3.12587e-05,2.65073e-05,3.195e-05,0.00625174,0.00530146,0.00639,0,0,0,0,0.124988,0.507492,-0.976655,34.8125,1,49833,5037815
25,-0.713496,-0.0171471,9.80274,0.0892107,-0.62024,0.989471,-0.00712941,-0.000178532,0.0980278,1,3.43322e-05,2.82622e-05,2.31226e-05,0.00686644,0.00565245,0.00462452,0,0,0,0,0.127485,0.509333,-0.971575,34.8125,1,49836,5038115
26,-0.739454,-0.0302424,9.80447,0.0613501,-0.602799,0.990189,-0.00738585,-0.000307607,0.0980454,1,2.27388e-05,4.41818e-05,4.89674e-05,0.00454777,0.00883635,0.00979348,0,0,0,0,0.127065,0.507847,-0.970091,34.8125,1,49840,5038515
27,-0.859046,-0.117724,9.80151,-0.0673575,-0.701007,0.991482,-0.0085888,-0.00118388,0.0980152,1,2.99683e-05,7.94756e-06,4.41019e-05,0.00599365,0.00158951,0.00882037,0,0,0,0,0.12878,0.510874,-0.976597,34.8125,1,49843,5038815
28,-0.772681,-0.0241929,9.77936,-0.0014588,-0.60135,0.995235,-0.00772886,-0.000251732,0.0977935,1,4.75443e-05,-1.05217e-05,3.26445e-05,0.00950886,-0.00210434,0.00652891,0,0,0,0,0.126595,0.506396,-0.970626,34.8125,1,49846,5039115
29,-0.828466,-0.00651634,9.72428,-0.0515087,-0.603778,0.892951,-0.00829063,-7.2929e-05,0.0972423,1,3.69384e-05,-3.07241e-05,3.50921e-05,0.00738769,-0.00614481,0.00701842,0,0,0,0,0.128291,0.511366,-0.976584,34.8125,1,49850,5039515
30,-0.8965,0.00285006,9.75194,-0.103751,-0.578647,0.927352,-0.00896778,2.01584e-05,0.0975191,1,4.05108e-05,-1.4218e-05,2.45922e-05,0.00810216,-0.00284359,0.00491844,0,0,0,0,0.127032,0.509798,-0.970047,34.8125,1,49853,5039815
31,-0.847749,-0.0207735,9.71883,-0.0756191,-0.630184,0.953999,-0.00847762,-0.000213849,0.0971883,1,2.86234e-05,-7.39514e-07,3.24081e-05,0.00572467,-0.000147903,0.00648161,0,0,0,0,0.128336,0.509406,-0.976123,34.8125,1,49856,5040115
32,-0.979939,0.0131728,9.75666,-0.204125,-0.557622,0.941993,-0.00980049,0.000129384,0.0975665,1,9.32091e-06,-5.5898e-06,2.68015e-05,0.00186418,-0.00111796,0.0053603,0,0,0,0,0.128406,0.511764,-0.971525,34.8125,1,49860,5040515
33,-0.927602,-0.045798,9.76972,-0.148779,-0.657836,0.972241,-0.00927913,-0.000456563,0.0976969,1,-9.47345e-06,-1.60018e-05,2.34285e-05,-0.00189469,-0.00320037,0.0046857,0,0,0,0,0.128368,0.5089,-0.975124,34.8125,1,49863,5040815
34,-0.838021,-0.0765482,9.78585,-0.0415822,-0.658856,0.971694,-0.00839249,-0.000768499,0.0978574,1,1.33775e-05,-6.29557e-05,2.37446e-05,0.0026755,-0.0125911,0.00474892,0,0,0,0,0.128908,0.512708,-0.969991,34.8125,1,49866,5041115
35,-0.557923,-0.0904422,9.80758,0.216751,-0.660794,0.981204,-0.00559303,-0.000903793,0.0980751,1,-2.87475e-06,-7.03042e-05,-5.82455e-06,-0.00057495,-0.0140608,-0.00116491,0,0,0,0,0.126588,0.508329,-0.969573,34.8125,1,49870,5041515
36,-0.43829,-0.286713,9.82576,0.369371,-0.810022,0.980695,-0.00439473,-0.00287258,0.0982569,1,2.79581e-05,-6.00852e-05,-4.34602e-06,0.00559162,-0.012017,-0.000869204,0,0,0,0,0.129768,0.512294,-0.97455,34.8125,1,49873,5041815
37,-0.936243,0.00278272,9.73221,-0.137996,-0.593859,0.934316,-0.00937059,2.01386e-05,0.0973213,1,3.75454e-05,-4.1954e-05,2.03182e-05,0.00750908,-0.0083908,0.00406363,0,0,0,0,0.124643,0.508842,-0.970057,34.8125,1,49876,5042115
38,-0.887707,-0.167605,9.73859,-0.111397,-0.767606,0.946374,-0.00888919,-0.00168218,0.0973847,1,2.96254e-05,-6.25734e-05,2.03967e-05,0.00592508,-0.0125147,0.00407934,0,0,0,0,0.12688,0.509427,-0.976621,34.8125,1,49880,5042515
39,-0.86247,0.0255081,9.74717,-0.0870148,-0.531589,0.947204,-0.00863404,0.000245956,0.0974709,1,4.56999e-05,-4.78794e-05,1.25244e-05,0.00913999,-0.00957587,0.00250488,0,0,0,0,0.126111,0.508812,-0.969055,34.8125,1,49883,5042815
40,-0.806876,-0.482938,9.81886,-0.0651146,-1.20496,1.00772,-0.00808407,-0.00484408,0.0981866,1,7.41904e-05,-7.83585e-05,7.9508e-06,0.0148381,-0.0156717,0.00159016,0,0,0,0,0.125906,0.510889,-0.976079,34.8125,1,49886,5043115
41,-0.67963,0.253973,9.7686,0.000284323,-0.489235,0.964686,-0.00680696,0.00251954,0.0976857,1,0.000104025,-5.47916e-05,-9.60853e-06,0.020805,-0.0109583,-0.0019217,0,0,0,0,0.126576,0.509784,-0.969035,34.8125,1,49890,5043515
42,0.536488,-0.0252818,9.71603,1.30302,-1.5972,0.957022,0.0053563,-0.000270635,0.0971608,1,9.13295e-05,-4.41321e-05,-6.51725e-06,0.0182659,-0.00882642,-0.00130345,0,0,0,0,0.123541,0.50847,-0.976121,34.8125,1,49893,5043815
43,-1.39618,-0.325412,9.75318,-0.529313,-1.21455,1.01467,-0.0139367,-0.0032732,0.0975348,1,8.2248e-05,0.000125001,0.000108711,0.0164496,0.0250002,0.0217421,0,0,0,0,0.126543,0.510289,-0.970034,34.8125,1,49896,5044115
44,-0.916989,-0.190726,9.72427,-0.149033,-0.719626,0.9144,-0.00916214,-0.00192247,0.0972431,1,7.96244e-05,4.01305e-05,-1.51639e-05,0.0159249,0.00802611,-0.00303277,0,0,0,0,0.12375,0.506872,-0.968582,34.8125,1,49900,5044515
45,-0.705601,0.191361,9.72846,0.0709755,-0.466443,0.920188,-0.00704165,0.00190846,0.0972857,1,2.33963e-05,7.46266e-05,4.23166e-05,0.00467926,0.0149253,0.00846332,0,0,0,0,0.125475,0.512303,-0.973015,34.8125,1,49903,5044815
46,-0.680659,-0.158621,9.78331,0.142267,-0.794398,0.964669,-0.00679235,-0.00159572,0.0978339,1,4.87791e-05,7.28163e-05,-2.84367e-06,0.00975582,0.0145633,-0.000568734,0,0,0,0,0.125152,0.507854,-0.969577,34.8125,1,49906,5045115
47,-1.28017,-0.0324709,9.77528,-0.519764,-0.626657,0.99753,-0.0128066,-0.00033427,0.0977521,1,4.34651e-05,-2.50215e-05,4.15011e-05,0.00869303,-0.00500429,0.00830022,0,0,0,0,0.12728,0.51141,-0.978599,34.8125,1,49910,5045515
48,-1.1603,-0.0623135,9.7243,-0.373529,-0.679725,0.937222,-0.0116023,-0.000632064,0.097243,1,3.94096e-05,3.51848e-06,5.44639e-05,0.00788192,0.000703696,0.0108928,0,0,0,0,0.126617,0.510235,-0.967005,34.8125,1,49913,5045815
49,-1.24121,-0.337938,9.5759,-0.36265,-0.797017,0.774633,-0.0124006,-0.00338204,0.0957604,1,6.52885e-06,5.79383e-05,5.68816e-05,0.00130577,0.0115877,0.0113763,0,0,0,0,0.126342,0.512845,-0.976542,34.8125,1,49916,5046115
50,-0.398748,0.186922,9.83432,0.365411,-0.63833,1.02465,-0.00399679,0.0018625,0.098343,1,3.40551e-05,-4.73032e-05,2.10087e-06,0.00681102,-0.00946064,0.000420174,0,0,0,0,0.126988,0.511758,-0.970509,34.8125,1,49920,5046515
51,-0.532287,-0.267167,9.77872,0.252964,-0.854142,0.925956,-0.00532637,-0.00266944,0.0977871,1,-1.07422e-05,-1.75625e-05,-1.18473e-05,-0.00214845,-0.00351249,-0.00236945,0,0,0,0,0.124939,0.510419,-0.97659,34.8125,1,49923,5046815
52,-0.646627,0.219042,9.79036,0.089882,-0.516524,0.967929,-0.00647072,0.00219165,0.0979033,1,-9.85198e-06,-2.14792e-05,5.40282e-05,-0.0019704,-0.00429584,0.0108056,0,0,0,0,0.127359,0.514725,-0.97297,34.8125,1,49926,5047115
53,-0.852277,-0.160537,9.80769,-0.109497,-0.539812,0.956652,-0.00853126,-0.00162719,0.0980759,1,0.000112118,-4.31182e-05,-1.02499e-05,0.0224236,-0.00862363,-0.00204999,0,0,0,0,0.124594,0.510323,-0.971034,34.8125,1,49930,5047515
54,-0.472975,0.127414,9.80923,0.323598,-0.635191,0.984798,-0.00472835,0.00127014,0.0980924,1,1.79726e-05,7.81271e-06,5.01131e-05,0.00359451,0.00156254,0.0100226,0,0,0,0,0.128227,0.515268,-0.976497,34.8125,1,49933,5047815
55,-0.763704,-0.309301,9.82484,0.0141851,-0.460629,0.982842,-0.00763526,-0.00309323,0.0982485,1,3.57997e-07,8.78121e-06,9.60866e-06,7.15994e-05,0.00175624,0.00192173,0,0,0,0,0.126967,0.512255,-0.971002,34.8125,1,49937,5048215
56,-0.81217,0.057774,9.75538,-0.0639117,-0.149597,0.877243,-0.00812467,0.000564295,0.0975537,1,6.96372e-05,-1.52685e-05,-8.68878e-06,0.0139274,-0.0030537,-0.00173776,0,0,0,0,0.127333,0.511853,-0.976064,34.8125,1,49940,5048515
57,-0.729008,0.0518961,9.82189,0.11129,-0.538089,0.960971,-0.00729221,0.000509053,0.0982188,1,4.98367e-05,-1.08016e-05,8.11159e-06,0.00996734,-0.00216032,0.00162232,0,0,0,0,0.126519,0.511753,-0.970001,34.8125,1,49943,5048815
58,-0.642101,-0.104141,9.77964,0.278067,-0.829642,0.897931,-0.00642448,-0.00104999,0.0977961,1,4.32962e-05,-1.78401e-05,8.45474e-06,0.00865924,-0.00356801,0.00169095,0,0,0,0,0.126343,0.514291,-0.9755,34.8125,1,49946,5049115
59,-0.801969,-0.0993333,9.81488,-0.0204072,-0.564495,1.06581,-0.0080205,-0.00100867,0.0981486,1,7.76759e-05,-4.20119e-06,5.54709e-06,0.0155352,-0.000840237,0.00110942,0,0,0,0,0.125023,0.514213,-0.970445,34.8125,1,49950,5049515
60,-0.847018,-0.0421965,9.76307,-0.0576499,-0.622455,0.965874,-0.00846861,-0.000431614,0.0976308,1,4.82537e-05,7.96468e-06,1.34148e-05,0.00965073,0.00159294,0.00268297,0,0,0,0,0.125857,0.512371,-0.977056,34.8125,1,49953,5049815
61,-0.860528,-0.101271,9.78472,-0.0594236,-0.685933,0.987101,-0.00860638,-0.00102257,0.097847,1,4.84493e-05,-5.86886e-06,2.19233e-05,0.00968987,-0.00117377,0.00438466,0,0,0,0,0.128386,0.513706,-0.970977,34.8125,1,49956,5050115
62,-0.860171,-0.0831181,9.76828,-0.066914,-0.689226,0.962713,-0.0086084,-0.000839069,0.0976821,1,3.92608e-05,-3.43696e-05,1.26678e-05,0.00785215,-0.00687393,0.00253355,0,0,0,0,0.125046,0.509859,-0.972562,34.8125,1,49960,5050515
63,-0.860506,-0.0811715,9.77267,-0.0747059,-0.686683,0.970791,-0.00860477,-0.000824115,0.0977266,1,6.0428e-05,1.19606e-06,3.4213e-05,0.0120856,0.000239212,0.0068426,0,0,0,0,0.12925,0.51377,-0.97502,34.8125,1,49963,5050815
64,-0.838023,-0.077233,9.77968,-0.0485391,-0.670299,0.9788,-0.00838033,-0.000780593,0.0977967,1,4.03785e-05,-6.68455e-07,2.18096e-05,0.00807569,-0.000133691,0.00436193,0,0,0,0,0.126033,0.509833,-0.971557,34.8125,1,49966,5051115
65,-0.747619,-0.0581527,9.79619,0.0448481,-0.662292,0.986311,-0.00747765,-0.00059429,0.0979617,1,6.46841e-05,-7.49318e-06,6.01121e-06,0.0129368,-0.00149864,0.00120224,0,0,0,0,0.127835,0.511352,-0.975572,34.8125,1,49970,5051515
66,-0.928904,-0.118284,9.66498,-0.0898216,-0.714604,0.87951,-0.00929396,-0.00119253,0.0966492,1,4.90624e-05,-2.56166e-05,1.12721e-05,0.00981248,-0.00512331,0.00225441,0,0,0,0,0.124615,0.511272,-0.969498,34.8125,1,49973,5051815
67,0.0275655,-0.0283857,10.0012,0.82639,-0.637152,1.14898,0.000258356,-0.000286972,0.100012,1,1.56778e-05,-8.65977e-05,3.85091e-05,0.00313555,-0.0173195,0.00770181,0,0,0,0,0.125886,0.511386,-0.976572,34.8125,1,49976,5052115
68,-0.0559666,-0.0485833,9.91548,0.697324,-0.646479,1.04991,-0.000578921,-0.00048833,0.0991547,1,1.26828e-05,-9.70168e-05,-1.65894e-05,0.00253657,-0.0194034,-0.00331789,0,0,0,0,0.128456,0.511728,-0.969506,34.8125,1,49980,5052515
69,0.292632,-0.115214,9.85012,1.00595,-0.599002,0.987994,0.00290192,-0.00116758,0.0985017,1,7.86341e-05,-0.000123966,9.52875e-06,0.0157268,-0.0247933,0.00190575,0,0,0,0,0.126501,0.508392,-0.973106,34.8125,1,49983,5052815
70,-0.383849,-0.115304,9.80961,0.303019,-0.671462,0.955469,-0.00385182,-0.0011682,0.0980954,1,7.92584e-05,-6.73598e-05,-5.01971e-05,0.0158517,-0.013472,-0.0100394,0,0,0,0,0.124953,0.514745,-0.972958,34.8125,1,49987,5053215
71,0.0479576,-0.0540475,9.88869,0.763992,-0.802252,0.994167,0.000441828,-0.000547702,0.0988871,1,3.64034e-05,-0.000190695,-3.05194e-05,0.00728068,-0.038139,-0.00610387,0,0,0,0,0.122287,0.510271,-0.966985,34.8125,3,49990,5053515
72,0.4242,-0.138267,10.1743,1.1456,-0.673997,1.31734,0.00421196,-0.00140942,0.101744,1,0.000128351,-0.000146612,-7.43959e-05,0.0256703,-0.0293224,-0.0148792,0,0,0,0,0.123262,0.5117,-0.965442,34.8125,3,49993,5053815
73,0.768853,-0.469055,10.065,1.44669,-1.19147,1.22844,0.00765963,-0.00469043,0.100652,1,-7.50525e-06,-0.000139373,-9.07978e-05,-0.00150105,-0.0278746,-0.0181596,0,0,0,0,0.116695,0.511151,-0.958858,34.8125,3,49996,5054115
74,1.17924,-0.306298,9.858,1.82148,-0.73212,0.884166,0.0117719,-0.00307692,0.098582,1,5.05407e-05,-9.8885e-05,-0.000168695,0.0101081,-0.019777,-0.0337391,0,0,0,0,0.119834,0.516108,-0.964823,34.8125,3,50000,5054515
75,0.850717,0.0244962,9.65106,1.52683,-0.634814,0.741287,0.00849367,0.000224006,0.0965119,1,9.10564e-05,-7.03901e-05,-0.000198852,0.0182113,-0.014078,-0.0397705,0,0,0,0,0.119019,0.514563,-0.959803,34.8125,3,50003,5054815
76,0.973356,0.00349926,9.93711,1.61782,-0.724129,0.976925,0.00972894,2.92558e-05,0.0993715,1,-5.56873e-07,-2.33463e-05,-0.000300448,-0.000111375,-0.00466925,-0.0600896,0,0,0,0,0.117022,0.518969,-0.959696,34.8125,3,50006,5055115
77,0.399567,-0.0801053,9.91314,1.09837,-0.456337,0.890711,0.00399531,-0.000820152,0.0991313,1,8.07828e-05,1.33445e-06,-0.000385771,0.0161566,0.000266889,-0.0771543,0,0,0,0,0.11796,0.520424,-0.959668,34.8125,3,50010,5055515
78,1.29611,-0.0380024,10.1336,2.01849,-0.642885,1.06719,0.0129409,-0.000399553,0.101339,1,4.75192e-05,-9.81592e-05,-0.000382156,0.00950385,-0.0196318,-0.0764312,0,0,0,0,0.114473,0.521021,-0.964184,34.8125,3,50013,5055815
79,0.604335,-0.111727,10.341,1.32616,-0.763309,1.51211,0.00604453,-0.00113878,0.103409,1,7.9023e-05,1.03859e-05,-0.00042731,0.0158046,0.00207718,-0.085462,0,0,0,0,0.112245,0.522839,-0.955547,34.8125,3,50016,5056115
80,0.189789,0.292269,10.4139,0.767156,-0.38709,1.40052,0.00190925,0.00289304,0.10414,1,0.000133412,4.08416e-05,-0.000489657,0.0266824,0.00816832,-0.0979314,0,0,0,0,0.108779,0.524384,-0.958528,34.8125,3,50020,5056515
81,0.456912,-0.790164,10.1747,0.974388,-1.40748,1.17545,0.00456536,-0.00793669,0.101745,1,0.000148793,2.21905e-05,-0.000522279,0.0297587,0.00443809,-0.104456,0,0,0,0,0.110138,0.528771,-0.958941,34.8125,3,50023,5056815
82,0.136166,-0.10725,9.97199,0.723311,-0.822299,1.00499,0.00134956,-0.00110094,0.0997198,1,0.000135071,-5.46184e-05,-0.000554704,0.0270142,-0.0109237,-0.110941,0,0,0,0,0.106383,0.529698,-0.954358,34.8125,3,50027,5057215
83,0.513448,-0.416725,9.78431,1.31882,-1.07327,0.851543,0.00511349,-0.00419113,0.0978431,1,9.16746e-05,-8.24884e-05,-0.000580087,0.0183349,-0.0164977,-0.116017,0,0,0,0,0.105245,0.532244,-0.959852,34.8125,3,50030,5057515
84,-0.3561,-0.173139,9.51077,0.237816,-0.976833,0.700066,-0.00356923,-0.00174727,0.0951071,1,0.000105878,-3.23192e-05,-0.000597968,0.0211755,-0.00646384,-0.119594,0,0,0,0,0.100668,0.532112,-0.950237,34.8125,3,50033,5057815
85,0.0105931,-0.383428,10.1442,0.733637,-1.19263,1.36182,9.12282e-05,-0.00384366,0.101442,1,4.56292e-05,-4.98599e-05,-0.000597482,0.00912583,-0.00997198,-0.119496,0,0,0,0,0.0966548,0.531783,-0.957297,34.8125,3,50037,5058215
86,-0.271,-0.512596,9.32867,0.290767,-1.2248,0.572786,-0.00271249,-0.00516634,0.0932844,1,0.000234091,2.01973e-05,-0.000608207,0.0468182,0.00403946,-0.121641,0,0,0,0,0.0967629,0.535559,-0.950143,34.8125,3,50040,5058515
87,0.130524,-0.0117517,9.50823,0.370143,-0.908514,0.692651,0.00131848,-0.000152951,0.0950821,1,0.000177821,7.04884e-05,-0.000616851,0.0355643,0.0140977,-0.12337,0,0,0,0,0.0903969,0.534247,-0.955698,34.8125,3,50043,5058815
88,0.374502,-0.871528,10.5477,0.52394,-1.55292,1.47394,0.00373437,-0.00871508,0.105477,1,-2.54085e-05,6.41785e-06,-0.000688794,-0.00508169,0.00128357,-0.137759,0,0,0,0,0.0918085,0.537631,-0.954619,34.8125,3,50047,5059215
89,-0.559824,-0.269447,9.81091,0.406518,-0.759333,1.09258,-0.00561101,-0.00271611,0.0981078,1,0.000151066,-4.53813e-05,-0.000713589,0.0302131,-0.00907626,-0.142718,0,0,0,0,0.0862477,0.533669,-0.948621,34.8125,3,50050,5059515
90,-0.295527,-0.612299,9.60986,-0.0150874,-1.23585,0.69606,-0.00296831,-0.0061356,0.0960974,1,8.72836e-05,-2.29529e-05,-0.000704118,0.0174567,-0.00459058,-0.140824,0,0,0,0,0.0842007,0.536665,-0.951575,34.8125,3,50053,5059815
91,-0.628282,-0.165746,9.97335,0.204946,-0.820895,1.20075,-0.00627374,-0.00165282,0.0997342,1,2.17948e-05,5.74141e-05,-0.000715721,0.00435896,0.0114828,-0.143144,0,0,0,0,0.0814526,0.532733,-0.94862,34.8125,3,50057,5060215
92,-1.38694,-0.57658,8.60165,-1.22729,-0.965373,-0.101663,-0.0138889,-0.00575445,0.0860142,1,4.78965e-05,-6.60491e-05,-0.000705876,0.00957929,-0.0132098,-0.141175,0,0,0,0,0.0803718,0.534755,-0.952105,34.8125,3,50060,5060515
93,0.012395,-0.689256,9.45788,0.00782733,-1.21029,0.341718,0.000100115,-0.00690097,0.0945782,1,4.36598e-05,-7.59431e-05,-0.000686491,0.00873197,-0.0151886,-0.137298,0,0,0,0,0.0752351,0.532758,-0.947075,34.8125,3,50063,5060815
94,0.677828,0.268395,10.8118,0.936803,-0.540292,1.76422,0.00676728,0.00264845,0.10812,1,0.000116554,-6.9646e-05,-0.000760157,0.0233107,-0.0139292,-0.152031,0,0,0,0,0.0727674,0.531378,-0.95063,34.8125,3,50067,5061215
95,-0.170578,-0.172367,10.5439,0.291583,-0.466435,1.59106,-0.00173094,-0.00172792,0.105439,1,3.25456e-05,-0.000106883,-0.000760161,0.00650913,-0.0213765,-0.152032,0,0,0,0,0.0733685,0.533696,-0.944015,34.8125,3,50070,5061515
96,-0.33294,-0.65769,9.54184,-0.311869,-1.41067,0.623019,-0.00335674,-0.00659954,0.0954159,1,0.000143432,-9.44121e-05,-0.000707598,0.0286864,-0.0188824,-0.14152,0,0,0,0,0.0700083,0.53179,-0.945052,34.8125,3,50073,5061815
97,-1.37374,-0.0299296,8.95603,-0.542311,-0.449063,-0.154624,-0.0137792,-0.000307983,0.0895539,1,0.000148352,-0.000231298,-0.000649959,0.0296703,-0.0462595,-0.129992,0,0,0,0,0.0704989,0.535635,-0.941939,34.8125,3,50077,5062215
98,-0.0109191,0.783974,9.9552,0.517966,0.106897,0.908123,-0.000140449,0.00785089,0.0995511,1,-5.52674e-05,-0.000204998,-0.000609136,-0.0110535,-0.0409995,-0.121827,0,0,0,0,0.0663771,0.531181,-0.936463,34.8125,3,50080,5062515
99,-0.845175,-1.9253,10.0562,-0.720268,-2.79294,1.69389,-0.00839432,-0.0193239,0.100553,1,0.000394985,0.000382953,-0.000507698,0.0789969,0.0765906,-0.10154,0,0,0,0,0.0676335,0.538052,-0.939346,34.8125,3,50083,5062815
100,0.368622,-0.0944658,10.2517,0.470102,-0.860966,1.14291,0.00365415,-0.000991423,0.102518,1,0.000207295,-0.000150958,-0.000580656,0.0414589,-0.0301916,-0.116131,0,0,0,0,0.0654979,0.533538,-0.931356,34.8125,3,50087,5063215
101,0.0756992,-0.217727,9.92718,0.159903,-0.902933,0.97606,0.000779342,-0.00219334,0.0992713,1,7.62505e-05,0.00012588,-0.000604739,0.0152501,0.0251759,-0.120948,0,0,0,0,0.0648701,0.537986,-0.934285,34.8125,3,50090,5063515
102,-1.62043,0.160613,9.25666,-0.782444,-0.265115,0.374794,-0.0161882,0.00161718,0.0925692,1,4.77153e-05,7.64458e-05,-0.000613759,0.00954305,0.0152892,-0.122752,0,0,0,0,0.0627122,0.540716,-0.922092,34.8125,3,50093,5063815
103,0.646248,1.05313,9.79508,0.812803,0.52015,0.867412,0.00643558,0.010506,0.0979552,1,9.00243e-05,-0.000200544,-0.000588991,0.0180049,-0.0401088,-0.117798,0,0,0,0,0.0593937,0.540708,-0.920057,34.8125,3,50097,5064215
104,0.16349,-1.30875,10.5287,0.496885,-1.98791,1.57927,0.00166877,-0.0131065,0.105284,1,8.06088e-05,0.000235596,-0.000600903,0.0161218,0.0471192,-0.120181,0,0,0,0,0.0574706,0.54506,-0.916921,34.8125,3,50100,5064515
105,0.0316498,0.170208,10.1645,0.168538,-0.674965,1.38258,0.000306643,0.00167611,0.101646,1,0.000125889,-5.85717e-05,-0.000607404,0.0251779,-0.0117143,-0.121481,0,0,0,0,0.0541275,0.54507,-0.915895,34.8125,3,50103,5064815
106,-1.25618,-0.692333,9.97698,-0.682167,-1.42618,1.31003,-0.0125546,-0.00690582,0.0997719,1,-4.64401e-06,8.17281e-05,-0.000660039,-0.000928801,0.0163456,-0.132008,0,0,0,0,0.055092,0.552289,-0.910689,34.8125,3,50107,5065215
107,0.858387,-0.187986,10.0927,0.958426,-1.26435,1.19538,0.00856822,-0.00191609,0.100927,1,0.000123892,-6.52192e-05,-0.000654242,0.0247783,-0.0130438,-0.130848,0,0,0,0,0.049581,0.549735,-0.901629,34.8125,3,50110,5065515
108,-0.343504,-0.665745,10.4356,-0.294947,-1.21651,1.5845,-0.00346176,-0.00666016,0.104355,1,3.35088e-05,-8.8319e-05,-0.000621668,0.00670176,-0.0176638,-0.124334,0,0,0,0,0.0514788,0.556485,-0.897952,34.8125,3,50113,5065815
109,0.318677,0.290533,9.71166,0.65068,-0.368452,0.892997,0.00319488,0.00290177,0.0971165,1,-3.83156e-06,2.16285e-05,-0.000674307,-0.000766312,0.00432571,-0.134861,0,0,0,0,0.0450103,0.555864,-0.88733,34.8125,3,50117,5066215
110,-0.556136,-0.808772,9.99719,-0.324807,-1.67519,1.17721,-0.0055443,-0.00810487,0.0999715,1,0.000123617,0.000140496,-0.000681356,0.0247234,0.0280993,-0.136271,0,0,0,0,0.0430664,0.559267,-0.88573,34.8125,3,50120,5066515
111,-0.211509,-0.417233,10.2208,-0.0168268,-1.15677,1.14591,-0.00213338,-0.0042022,0.102207,1,0.00015912,-6.38479e-05,-0.000625245,0.0318241,-0.0127696,-0.125049,0,0,0,0,0.0403566,0.559644,-0.878133,34.8125,3,50123,5066815
112,0.180315,-0.496257,9.89606,0.398073,-1.31365,0.780326,0.00176668,-0.00496601,0.0989611,1,5.482e-06,-0.000151231,-0.000658717,0.0010964,-0.0302463,-0.131743,0,0,0,0,0.0371815,0.557604,-0.871598,34.8125,3,50127,5067215
113,0.579078,-0.184396,10.2994,0.765631,-1.10525,1.47177,0.00578838,-0.00187352,0.102994,1,0.00011108,-1.24361e-06,-0.000577013,0.0222161,-0.000248723,-0.115403,0,0,0,0,0.0372967,0.558001,-0.866539,34.8125,3,50130,5067515
114,-0.249187,-0.352411,9.43489,-0.139939,-1.08886,0.462706,-0.00248318,-0.00353616,0.0943487,1,7.86257e-05,6.70274e-05,-0.000559539,0.0157251,0.0134055,-0.111908,0,0,0,0,0.0335456,0.555071,-0.864567,34.8125,3,50133,5067815
115,-0.418819,0.754182,9.54246,-0.0814363,0.334356,0.700914,-0.00416362,0.00752663,0.0954269,1,0.000103719,8.52387e-05,-0.00055136,0.0207437,0.0170477,-0.110272,0,0,0,0,0.0374605,0.555472,-0.861546,34.8125,3,50137,5068215
116,-0.641267,-0.0226219,10.8966,-0.175634,-1.22097,2.27881,-0.00630883,-0.000251935,0.108972,1,0.000144101,0.000477468,-0.000447227,0.0288202,0.0954937,-0.0894454,0,0,0,0,0.0391933,0.547539,-0.855164,34.8125,3,50140,5068515
117,-1.7384,-1.75368,8.21976,-1.96392,-1.95639,-0.665232,-0.017408,-0.0175447,0.0821908,1,0.000128208,-6.57273e-05,-0.000376328,0.0256416,-0.0131455,-0.0752657,0,0,0,0,0.0434418,0.54949,-0.857161,34.8125,3,50143,5068815
118,-0.0426312,-1.2969,9.33982,0.0692816,-2.48997,0.499455,-0.000453282,-0.0130128,0.093392,1,0.000236085,-8.53115e-05,-0.000424719,0.0472169,-0.0170623,-0.0849438,0,0,0,0,0.0452904,0.543399,-0.844678,34.8125,3,50147,5069215
119,0.867841,-0.704048,10.6635,0.441495,-0.85663,1.26855,0.00866733,-0.00701891,0.106638,1,-0.000134302,-2.50412e-05,-0.000407866,-0.0268604,-0.00500824,-0.0815732,0,0,0,0,0.0490976,0.54147,-0.847769,34.8125,3,50150,5069515
120,-1.0609,0.0491644,9.08591,-1.21613,-0.510146,-0.464336,-0.0106424,0.000478623,0.0908552,1,0.000115234,-0.000185914,-0.000372606,0.0230468,-0.0371828,-0.0745211,0,0,0,0,0.0518837,0.53539,-0.836301,34.8125,3,50153,5069815
121,-0.0331174,-0.0282687,9.97263,0.0512181,-0.196898,0.702819,-0.000340237,-0.000276814,0.0997263,1,-2.85628e-05,-4.47059e-05,-0.000261899,-0.00571255,-0.00894119,-0.0523799,0,0,0,0,0.0580591,0.532022,-0.84196,34.8125,3,50157,5070215
122,-0.499756,0.925532,9.52112,-0.563174,0.167766,0.101188,-0.00501611,0.00921482,0.0952142,1,0.000225136,-0.000120396,-0.000236953,0.0450272,-0.0240793,-0.0473905,0,0,0,0,0.0653949,0.531394,-0.837462,34.8125,3,50160,5070515
123,-1.87868,0.507911,7.84032,-1.83711,0.115477,-1.12968,-0.0187954,0.00509408,0.0784002,1,-3.23078e-05,-7.20185e-05,-0.000263506,-0.00646157,-0.0144037,-0.0527012,0,0,0,0,0.0707024,0.527483,-0.839594,34.8125,3,50163,5070815
124,0.49192,-0.673486,11.5649,0.281077,-1.47199,2.47999,0.0048872,-0.00678312,0.115648,1,0.000203112,-0.000130725,-0.000130635,0.0406224,-0.026145,-0.0261271,0,0,0,0,0.0789117,0.532212,-0.834981,34.8125,3,50167,5071215
125,-0.242803,0.292562,10.4172,-0.232195,-0.487638,1.14074,-0.00244711,0.00287711,0.104173,1,0.000235493,-9.47317e-05,-0.000112152,0.0470987,-0.0189463,-0.0224303,0,0,0,0,0.0824955,0.525762,-0.830595,34.8125,3,50170,5071515
126,-0.648225,0.304914,9.77305,-0.947542,-0.379342,0.30867,-0.00649866,0.00304,0.0977297,1,5.93809e-05,-8.99091e-05,-0.000190446,0.0118762,-0.0179818,-0.0380891,0,0,0,0,0.0890394,0.530665,-0.835062,34.8125,3,50173,5071815
127,-1.0958,-1.03969,9.48691,-1.13471,-1.40272,0.342847,-0.0109617,-0.0103877,0.0948697,1,-2.60631e-05,2.21747e-06,-0.000194866,-0.00521263,0.000443495,-0.0389731,0,0,0,0,0.0905397,0.528684,-0.834103,34.8125,3,50176,5072115
128,-0.637089,0.34905,9.25285,-0.778667,-0.0476713,-0.168071,-0.00639404,0.00348107,0.0925272,1,5.78687e-05,-0.000128895,-0.000100377,0.0115737,-0.025779,-0.0200754,0,0,0,0,0.0964697,0.529832,-0.846731,34.8125,3,50180,5072515
129,-1.24652,-0.329921,9.09327,-1.37922,-0.751793,-0.114056,-0.0124714,-0.00333015,0.0909308,1,0.000182006,-3.11835e-05,-8.67921e-05,0.0364013,-0.0062367,-0.0173584,0,0,0,0,0.0990513,0.527274,-0.841244,34.8125,3,50183,5072815
130,0.359699,0.0558795,10.53,0.948742,-0.912404,1.67112,0.00361325,0.00054152,0.1053,1,7.6179e-05,7.63198e-05,-0.000170863,0.0152358,0.015264,-0.0341726,0,0,0,0,0.0984336,0.524487,-0.848879,34.8125,3,50187,5073215
131,-0.897814,-1.67803,9.34581,-1.05572,-1.90313,0.0232933,-0.00897096,-0.0167754,0.0934597,1,-2.04536e-05,4.9449e-05,-6.1337e-05,-0.00409073,0.00988979,-0.0122674,0,0,0,0,0.101218,0.525502,-0.852405,34.8125,3,50190,5073515
132,-0.734121,1.00762,9.96512,-0.527878,0.627867,0.885124,-0.0073513,0.010064,0.0996517,1,6.85853e-05,-6.03379e-05,-9.63027e-05,0.0137171,-0.0120676,-0.0192605,0,0,0,0,0.098772,0.515432,-0.861204,34.8125,3,50193,5073815
133,-0.489997,-0.698726,10.0028,-0.331473,-1.16105,1.44049,-0.00489854,-0.00699869,0.100027,1,6.4964e-05,1.83507e-05,-0.000159965,0.0129928,0.00367013,-0.0319929,0,0,0,0,0.101115,0.512566,-0.865824,34.8125,3,50197,5074215
134,1.38319,0.110621,12.9091,2.08031,-1.40494,4.13362,0.013867,0.00105667,0.129088,1,0.000175217,0.000134645,-0.000155544,0.0350435,0.0269289,-0.0311089,0,0,0,0,0.0992618,0.503857,-0.869039,34.8125,3,50200,5074515
135,-1.20342,-0.319765,9.83154,-1.119,-1.1917,1.09205,-0.0120647,-0.00321599,0.0983111,1,0.000111544,-0.000150382,-0.000149096,0.0223088,-0.0300765,-0.0298192,0,0,0,0,0.0984804,0.503598,-0.881668,34.8125,3,50203,5074815
136,-0.741319,0.378933,8.67939,-0.808749,-0.190246,-0.526591,-0.00743369,0.00376575,0.0867932,1,0.000146169,-0.000123374,-0.000120613,0.0292339,-0.0246748,-0.0241226,0,0,0,0,0.095738,0.491952,-0.883934,34.8125,3,50207,5075215
137,-1.59823,0.931599,8.81105,-1.2302,0.632893,0.0142548,-0.015951,0.00931796,0.0881159,1,1.8445e-05,0.000160196,-0.00016344,0.00368899,0.0320392,-0.032688,0,0,0,0,0.0974362,0.491619,-0.893545,34.8125,3,50210,5075515
138,-0.426772,-0.403733,9.65526,-0.447215,-1.00583,0.849178,-0.00429585,-0.00405702,0.0965505,1,0.000104774,-0.000143008,-6.36933e-05,0.0209548,-0.0286017,-0.0127387,0,0,0,0,0.0938198,0.485699,-0.888105,34.8125,3,50213,5075815
139,-0.712964,-0.760489,9.80868,-0.653942,-1.62349,1.01659,-0.00715246,-0.00764421,0.0980821,1,0.000205025,-0.000111524,-6.2401e-05,0.0410051,-0.0223048,-0.0124802,0,0,0,0,0.0950606,0.482462,-0.898789,34.8125,3,50217,5076215
140,-1.31337,-0.422663,8.21371,-1.25529,-0.876723,-0.371587,-0.0131091,-0.00422167,0.0821413,1,-1.64015e-05,0.000153979,-8.62928e-05,-0.0032803,0.0307958,-0.0172586,0,0,0,0,0.093128,0.482966,-0.898769,34.8125,3,50220,5076515
141,0.252351,-0.956486,10.7217,0.213661,-1.68562,1.79616,0.00253157,-0.00954465,0.107218,1,-9.5816e-05,4.34656e-05,-6.6305e-05,-0.0191632,0.00869311,-0.013261,0,0,0,0,0.089755,0.479624,-0.901353,34.8125,3,50223,5076815
142,0.330295,0.828663,11.2082,0.268596,0.444752,1.84367,0.00328357,0.00830248,0.112082,1,-6.58279e-05,-7.42211e-05,0.00016545,-0.0131656,-0.0148442,0.03309,0,0,0,0,0.0877086,0.484066,-0.903265,34.8125,3,50227,5077215
143,-0.307019,0.592382,10.4403,-0.907529,0.0313603,0.602891,-0.00309828,0.00592676,0.104402,1,-1.62601e-05,-0.000130384,7.37444e-05,-0.00325201,-0.0260767,0.0147489,0,0,0,0,0.0864204,0.480592,-0.899295,34.8125,3,50230,5077515
144,-0.203554,-2.29606,10.1611,-1.15176,-2.62559,0.405158,-0.00200421,-0.0229416,0.101616,1,-9.52308e-05,0.000133543,9.14006e-05,-0.0190462,0.0267086,0.0182801,0,0,0,0,0.0852792,0.486995,-0.902178,34.8125,3,50233,5077815
145,0.0204045,2.3546,9.63719,0.681666,1.63983,1.0377,0.000180983,0.0235164,0.0963792,1,0.000153578,-6.75671e-05,0.000213309,0.0307157,-0.0135134,0.0426617,0,0,0,0,0.0795917,0.485534,-0.899659,34.8125,3,50237,5078215
146,-0.742848,-0.244168,9.98578,-0.360888,-1.18808,1.31443,-0.00742676,-0.00249043,0.0998567,1,0.000234844,5.56517e-06,0.000124061,0.0469687,0.00111303,0.0248122,0,0,0,0,0.078518,0.484178,-0.90524,34.8125,3,50240,5078515
147,0.184525,-0.307515,10.0838,0.537526,-1.24683,1.26965,0.0018648,-0.00311295,0.100837,1,0.000189862,9.28579e-05,0.000131826,0.0379723,0.0185716,0.0263651,0,0,0,0,0.0714735,0.482667,-0.89918,34.8125,3,50243,5078815
148,0.134564,0.243085,9.93795,0.26511,-0.950244,1.19896,0.00134066,0.00240829,0.0993801,1,0.000115316,-2.17459e-05,0.000135257,0.0230631,-0.00434918,0.0270514,0,0,0,0,0.0674305,0.480431,-0.908807,34.8125,3,50247,5079215
149,-1.04374,-0.783805,9.46889,-0.870121,-1.79985,0.445569,-0.0104306,-0.00789717,0.0946848,1,0.000294177,2.21665e-05,0.000163783,0.0588354,0.00443331,0.0327565,0,0,0,0,0.0636713,0.477988,-0.906824,34.8125,3,50250,5079515
150,-0.415463,0.723378,8.99956,0.0248086,0.329978,0.306989,-0.00417517,0.00722136,0.0899957,1,6.40854e-05,-0.000105522,0.000106911,0.0128171,-0.0211045,0.0213822,0,0,0,0,0.0602693,0.474186,-0.910933,34.8125,3,50253,5079815
151,-0.953833,0.332362,9.84205,-0.649322,-0.35782,0.802257,-0.00953785,0.00334235,0.0984199,1,-0.000108045,6.94433e-06,0.000133162,-0.0216091,0.00138887,0.0266324,0,0,0,0,0.0607163,0.470352,-0.915061,34.8125,3,50257,5080215
152,-0.263407,-0.683024,9.70899,0.0252841,-1.36725,0.979709,-0.00264445,-0.00683425,0.0970893,1,1.7711e-05,-6.10166e-05,0.000107463,0.00354221,-0.0122033,0.0214927,0,0,0,0,0.0580949,0.463918,-0.908626,34.8125,3,50260,5080515
153,-0.231606,-0.359335,10.6454,0.40529,-1.15005,2.17817,-0.00227758,-0.00360494,0.106454,1,5.19275e-05,0.000176819,0.000115381,0.0103855,0.0353638,0.0230763,0,0,0,0,0.05696,0.464052,-0.915689,34.8125,3,50263,5080815
154,-1.42811,0.685809,9.42943,-1.05217,0.427189,0.210291,-0.0142708,0.00685236,0.0942963,1,1.16485e-05,6.40092e-05,0.00012374,0.00232969,0.0128018,0.024748,0,0,0,0,0.0557292,0.460054,-0.909711,34.8125,3,50267,5081215
155,-0.991917,-0.120704,9.85019,-1.07391,-0.652362,0.464593,-0.00990803,-0.00122377,0.0985028,1,6.44359e-05,5.40768e-05,0.000203186,0.0128872,0.0108154,0.0406371,0,0,0,0,0.0565107,0.46066,-0.916772,34.8125,3,50270,5081515
156,-0.80829,-0.236669,10.0054,-0.51491,-0.626452,1.05693,-0.00807713,-0.00235874,0.100055,1,-5.48606e-05,2.44183e-05,0.000187247,-0.0109721,0.00488365,0.0374493,0,0,0,0,0.0548249,0.460983,-0.906656,34.8125,3,50273,5081815
157,-0.465019,-2.57909,10.5062,-0.916925,-3.39923,1.257,-0.0046249,-0.0258215,0.105055,1,0.000137879,7.77053e-05,0.000173595,0.0275758,0.0155411,0.034719,0,0,0,0,0.0528268,0.462499,-0.908634,34.8125,3,50277,5082215
158,0.0669299,2.30772,10.7034,0.810197,2.26047,1.57332,0.000659231,0.0230618,0.107038,1,7.33873e-05,2.31667e-07,0.000219288,0.0146775,4.63334e-05,0.0438576,0,0,0,0,0.0528733,0.46632,-0.904003,34.8125,3,50280,5082515
159,0.0951397,0.0239461,11.1266,0.259684,-0.378064,2.27256,0.000951423,0.000283711,0.111266,1,-0.000197848,3.92261e-07,0.000116923,-0.0395696,7.84523e-05,0.0233846,0,0,0,0,0.0532937,0.469251,-0.904445,34.8125,3,50283,5082815
160,-2.11274,0.623123,7.96902,-2.06568,0.212508,-1.13497,-0.0211509,0.00621869,0.0796849,1,6.19817e-05,-0.000142399,6.29764e-05,0.0123963,-0.0284798,0.0125953,0,0,0,0,0.0541799,0.476045,-0.902783,34.8125,3,50287,5083215
161,0.716588,-0.251172,11.4731,0.55193,-0.431619,2.28666,0.00710806,-0.00247659,0.114735,1,-0.000143514,-0.000255287,0.000153732,-0.0287027,-0.0510575,0.0307464,0,0,0,0,0.0510906,0.472497,-0.893757,34.8125,3,50290,5083515
162,0.0300378,0.194451,11.247,0.455067,-0.769915,2.21426,0.000294141,0.00190126,0.112471,1,0.000192629,-2.54351e-05,0.000134225,0.0385257,-0.00508702,0.026845,0,0,0,0,0.0483951,0.478993,-0.901176,34.8125,3,50293,5083815
163,-0.172074,-0.77988,9.49679,-0.499546,-1.0753,0.601478,-0.00175306,-0.00775733,0.0949707,1,-0.000219978,-0.000177541,8.97093e-05,-0.0439957,-0.0355082,0.0179419,0,0,0,0,0.0451829,0.47698,-0.896155,34.8125,3,50297,5084215
164,0.283787,0.218625,11.5116,0.451474,-0.418448,2.87311,0.00284937,0.00222687,0.115115,1,-0.000172855,5.27179e-05,0.000144115,-0.0345711,0.0105436,0.0288229,0,0,0,0,0.0445822,0.476107,-0.901727,34.8125,3,50300,5084515
165,0.0243584,-0.62962,10.3283,0.343191,-0.901408,1.93565,0.000232329,-0.00629568,0.103283,1,-2.2556e-06,-6.19276e-05,0.000122034,-0.00045112,-0.0123855,0.0244068,0,0,0,0,0.0418474,0.475056,-0.896182,34.8125,3,50303,5084815
166,-1.26601,2.49764,10.4371,-0.176013,2.3461,1.55786,-0.0126231,0.0250124,0.104366,1,-0.000184602,0.000202002,0.000101438,-0.0369203,0.0404003,0.0202875,0,0,0,0,0.0389303,0.470284,-0.90082,34.8125,3,50307,5085215
167,-0.134244,-2.17102,10.0287,-0.340807,-2.64371,0.744746,-0.00138256,-0.0217084,0.100287,1,-1.10016e-05,-0.000229043,0.000134052,-0.00220032,-0.0458087,0.0268105,0,0,0,0,0.0403495,0.471735,-0.900795,34.8125,3,50310,5085515
168,1.04807,0.527341,11.6411,1.68622,-0.785827,3.39851,0.0105298,0.00527698,0.116406,1,3.32448e-06,0.000219981,0.000206765,0.000664896,0.0439963,0.041353,0,0,0,0,0.0404387,0.467815,-0.899872,34.8125,3,50313,5085815
169,0.375797,0.0501418,11.5526,0.776779,-1.05913,2.46226,0.0037744,0.000492678,0.115526,1,4.4016e-05,7.19187e-05,0.000189897,0.00880321,0.0143837,0.0379794,0,0,0,0,0.0404226,0.468791,-0.89985,34.8125,3,50317,5086215
170,-1.45598,-0.139074,9.84748,-1.31663,-0.67757,0.624915,-0.0145385,-0.00143193,0.0984773,1,0.000181254,0.000105474,0.000188921,0.0362509,0.0210948,0.0377842,0,0,0,0,0.0435427,0.465705,-0.892358,34.8125,3,50320,5086515
171,-0.22642,0.703033,10.6304,0.315669,0.0425001,1.58824,-0.00227077,0.0070242,0.106305,1,2.66869e-05,-2.42095e-05,0.000100895,0.00533739,-0.00484189,0.0201789,0,0,0,0,0.0448859,0.473958,-0.890665,34.8125,3,50323,5086815
172,0.345554,-1.25195,11.6529,0.597953,-1.98849,2.84467,0.00350373,-0.0124519,0.116535,1,-0.000288804,0.000201233,5.17472e-05,-0.0577607,0.0402465,0.0103494,0,0,0,0,0.0428295,0.472759,-0.877046,34.8125,3,50327,5087215
173,-0.251067,0.00552027,11.3995,-0.225154,-1.47308,1.92392,-0.00253991,-2.86819e-05,0.113994,1,0.000364628,-0.000128267,0.00014917,0.0729256,-0.0256534,0.029834,0,0,0,0,0.0475842,0.476133,-0.876993,34.8125,3,50330,5087515
174,-0.0930189,2.19091,10.2496,0.465165,1.49121,1.41482,-0.000925552,0.0219465,0.102488,1,-0.000183454,4.2527e-05,9.30397e-05,-0.0366907,0.0085054,0.0186079,0,0,0,0,0.0497559,0.477382,-0.865864,34.8125,3,50333,5087815
175,-0.731112,-1.50799,9.99086,-0.651452,-2.48502,1.06514,-0.00730859,-0.015092,0.099907,1,5.24325e-05,-3.96223e-06,0.000110131,0.0104865,-0.000792447,0.0220262,0,0,0,0,0.0532361,0.481609,-0.85821,34.8125,3,50337,5088215
176,-0.530801,2.11028,9.52273,0.0409791,1.35704,0.843336,-0.00532487,0.0211222,0.0952221,1,-0.000112351,-4.70101e-05,0.000187212,-0.0224702,-0.00940203,0.0374425,0,0,0,0,0.0567002,0.486811,-0.850534,34.8125,3,50340,5088515
177,-0.74585,0.0118931,9.62072,-0.387278,-0.706489,0.833138,-0.00744352,0.000105854,0.0962084,1,5.88623e-05,7.80054e-05,0.000117526,0.0117725,0.0156011,0.0235052,0,0,0,0,0.0573042,0.485272,-0.846531,34.8125,3,50343,5088815
178,-2.15742,0.634307,7.96291,-1.81612,0.106873,-1.28586,-0.0215977,0.00633535,0.0796233,1,2.45709e-05,-0.000140249,8.80706e-05,0.00491419,-0.0280498,0.0176141,0,0,0,0,0.0635966,0.488083,-0.842962,34.8125,3,50347,5089215
179,-0.709879,0.24765,9.52233,-0.281872,-0.208049,0.735069,-0.00709928,0.00250806,0.0952224,1,-0.000179994,2.40983e-06,0.000191323,-0.0359988,0.000481966,0.0382646,0,0,0,0,0.0681469,0.482104,-0.838065,34.8125,3,50350,5089515
180,-0.540035,-0.450773,10.0991,-0.433467,-0.996844,1.51024,-0.00540244,-0.00454128,0.10099,1,0.000155003,-1.96688e-05,0.000208054,0.0310005,-0.00393377,0.0416108,0,0,0,0,0.0748209,0.482093,-0.840621,34.8125,3,50353,5089815
181,-1.27949,1.0093,10.2213,-0.501513,0.61646,1.62234,-0.0127449,0.0101094,0.102218,1,-9.50861e-05,0.000256232,0.000119517,-0.0190172,0.0512464,0.0239035,0,0,0,0,0.080814,0.474656,-0.836774,34.8125,3,50357,5090215
182,-0.555021,-0.824775,10.6106,-0.437881,-0.662359,1.66246,-0.00552361,-0.00825136,0.106107,1,5.89836e-06,0.000108839,0.000212635,0.00117967,0.0217679,0.042527,0,0,0,0,0.0888445,0.473251,-0.843913,34.8125,3,50360,5090515
183,-0.933363,0.685732,9.79002,-0.661735,0.0619533,0.907118,-0.00933038,0.00685932,0.0979004,1,-2.55519e-05,2.78944e-05,0.000161179,-0.00511039,0.00557888,0.0322359,0,0,0,0,0.0972637,0.465298,-0.839583,34.8125,3,50363,5090815
184,-0.986913,1.27511,9.79016,-0.815112,1.14679,0.45637,-0.00989939,0.012772,0.0978958,1,-0.000114159,-0.000144678,7.58257e-05,-0.0228317,-0.0289357,0.0151651,0,0,0,0,0.107284,0.46142,-0.845776,34.8125,3,50367,5091215
185,-0.111914,-0.47141,9.54037,-0.566519,-1.04865,0.366119,-0.00115999,-0.00472158,0.0954029,1,3.774e-05,-0.000220121,0.000121453,0.007548,-0.0440241,0.0242906,0,0,0,0,0.113099,0.463269,-0.842732,34.8125,3,50370,5091515
186,-0.975698,-0.741004,10.2186,-0.992996,-1.37154,1.31009,-0.00973112,-0.0074082,0.102188,1,-2.12206e-05,0.000117242,0.000128347,-0.00424413,0.0234485,0.0256694,0,0,0,0,0.120297,0.456958,-0.847956,34.8125,3,50373,5091815
187,0.129281,-0.917622,10.2078,0.338479,-1.34117,1.28754,0.00127814,-0.00910739,0.102085,1,-0.000336205,-7.85806e-05,7.51676e-05,-0.067241,-0.0157161,0.0150335,0,0,0,0,0.129292,0.461326,-0.850931,34.8125,3,50377,5092215
188,-0.508095,0.661048,11.0895,-0.362718,-0.487007,2.39507,-0.00506995,0.00657092,0.110898,1,0.000171491,5.8515e-05,0.000150559,0.0342981,0.011703,0.0301118,0,0,0,0,0.132794,0.456863,-0.848521,34.8125,3,50380,5092515
189,0.391649,1.35284,11.0568,0.866754,0.823797,2.06715,0.00390889,0.0135889,0.110561,1,-0.000270016,-2.11499e-05,0.000108052,-0.0540032,-0.00422997,0.0216103,0,0,0,0,0.138347,0.462758,-0.853466,34.8125,3,50383,5092815
190,-0.950283,0.117039,9.75088,-0.897985,-1.02859,0.917295,-0.00950677,0.00115001,0.0975086,1,9.38158e-05,-1.88841e-05,0.000109888,0.0187632,-0.00377683,0.0219776,0,0,0,0,0.143729,0.461685,-0.850484,34.8125,3,50387,5093215
191,-0.269808,0.232718,9.71143,0.391127,-0.770903,1.21875,-0.00269838,0.00232292,0.0971144,1,1.72512e-05,2.45452e-06,0.000168341,0.00345024,0.000490904,0.0336683,0,0,0,0,0.148319,0.463252,-0.858552,34.8125,3,50390,5093515
192,-1.52113,-0.829979,9.28772,-1.19812,-1.57429,0.458671,-0.0151783,-0.00831922,0.0928808,1,7.42277e-05,0.000160546,0.000185731,0.0148455,0.0321091,0.0371462,0,0,0,0,0.147944,0.459806,-0.856606,34.8125,3,50393,5093815
193,-0.320445,-0.403427,9.944,-0.0548836,-0.386718,0.619088,-0.00321546,-0.0040021,0.0994409,1,-0.000165356,-5.98421e-05,0.000111321,-0.0330713,-0.0119684,0.0222641,0,0,0,0,0.150208,0.453625,-0.866855,34.8125,3,50397,5094215
194,-1.9929,-0.460587,8.90071,-1.82143,-1.09458,0.206834,-0.0198932,-0.00464111,0.0890133,1,0.000151125,0.00019075,0.000209348,0.030225,0.03815,0.0418695,0,0,0,0,0.15399,0.451714,-0.870956,34.8125,3,50400,5094515
195,-0.74555,-1.58542,9.32395,-1.1032,-2.1718,0.4694,-0.00746051,-0.0158432,0.093241,1,-7.32135e-05,-5.74685e-05,0.000180139,-0.0146427,-0.0114937,0.0360279,0,0,0,0,0.154901,0.444516,-0.878191,34.8125,3,50403,5094815
196,-2.16676,1.52173,8.809,-1.82158,1.60318,0.130748,-0.02164,0.0152215,0.088096,1,-3.98194e-05,0.000167921,6.46748e-05,-0.00796388,0.0335843,0.012935,0,0,0,0,0.159102,0.441201,-0.88586,34.8125,3,50407,5095215
197,1.21879,-0.691541,10.988,1.09634,-1.2335,1.74882,0.0121474,-0.00690866,0.109885,1,-1.68919e-05,-0.000192393,0.000124748,-0.00337838,-0.0384785,0.0249496,0,0,0,0,0.161641,0.43241,-0.886572,34.8125,3,50410,5095515
198,-1.59642,0.397733,8.71396,-1.58702,0.38363,-0.663312,-0.0159982,0.00398869,0.0871328,1,-7.73456e-05,-0.000192214,6.61013e-05,-0.0154691,-0.0384427,0.0132203,0,0,0,0,0.164284,0.428709,-0.899293,34.8125,3,50414,5095915
199,-0.152325,0.130924,10.6215,-0.311327,-0.519235,1.09986,-0.0015794,0.00131485,0.106214,1,-2.7719e-05,-0.000263198,8.86413e-05,-0.0055438,-0.0526397,0.0177283,0,0,0,0,0.165873,0.422808,-0.897411,34.8125,3,50417,5096215
200,-0.846219,-0.980644,9.62865,-1.02396,-2.01612,0.543458,-0.00847888,-0.00983608,0.096282,1,0.000143053,-9.92098e-05,0.000123373,0.0286107,-0.019842,0.0246746,0,0,0,0,0.168497,0.423939,-0.907499,34.8125,3,50420,5096515
201,-0.970698,-1.27854,10.3119,-0.591028,-2.22016,1.83663,-0.0096956,-0.0127865,0.10312,1,-5.69663e-06,4.03459e-05,0.000119664,-0.00113933,0.00806918,0.0239327,0,0,0,0,0.170565,0.421891,-0.903009,34.8125,3,50423,5096815
202,-1.22792,0.094111,9.02681,-1.15662,-0.101572,0.0455005,-0.012312,0.000959027,0.0902634,1,-0.000111566,-0.000180934,9.04448e-05,-0.0223132,-0.0361868,0.018089,0,0,0,0,0.170392,0.422018,-0.910076,34.8125,3,50427,5097215
203,0.0575811,0.297374,11.0835,0.536864,-0.627037,2.50852,0.000564536,0.00295289,0.110836,1,9.48027e-05,-4.68558e-05,0.000149865,0.0189605,-0.00937115,0.029973,0,0,0,0,0.171248,0.42546,-0.912024,34.8125,3,50430,5097515
204,-0.582419,0.30546,10.2267,-0.121761,-0.397141,1.94563,-0.00580627,0.00307298,0.102267,1,-9.80769e-05,9.1934e-05,0.000144744,-0.0196154,0.0183868,0.0289488,0,0,0,0,0.170767,0.425464,-0.912021,34.8125,3,50433,5097815
205,-0.369812,-1.1779,10.7545,0.00310636,-1.91254,2.31529,-0.00367231,-0.0118163,0.107542,1,0.000168624,0.000105615,0.000131103,0.0337249,0.0211229,0.0262206,0,0,0,0,0.173878,0.432852,-0.917427,34.8125,3,50437,5098215
206,-1.50011,0.372797,8.81302,-0.826655,-0.527539,0.765632,-0.0149718,0.00370517,0.0881361,1,9.36837e-05,0.00017477,0.000209534,0.0187367,0.034954,0.0419069,0,0,0,0,0.173585,0.427418,-0.913506,34.8125,3,50440,5098515
207,-0.964374,-0.739829,9.58306,-0.966499,-1.20279,0.810688,-0.00964798,-0.0073774,0.0958317,1,-0.000122553,-3.24868e-05,0.000134711,-0.0245105,-0.00649736,0.0269423,0,0,0,0,0.174253,0.433408,-0.921457,34.8125,3,50443,5098815
208,-0.709272,-0.416015,10.7307,-0.163539,-1.51107,2.43875,-0.00708873,-0.00420748,0.107305,1,0.000216458,1.61889e-05,6.21446e-05,0.0432915,0.00323777,0.0124289,0,0,0,0,0.171957,0.429011,-0.920029,34.8125,3,50447,5099215
209,-0.688585,0.0425213,11.4767,-0.0904229,-1.13954,3.39055,-0.00684259,0.000388575,0.11477,1,0.000152316,0.000188903,0.000122076,0.0304631,0.0377806,0.0244152,0,0,0,0,0.17085,0.426715,-0.927651,34.8125,3,50450,5099515
210,0.0346287,-1.99347,10.7697,0.248113,-2.78325,2.31636,0.000348638,-0.0199592,0.107692,1,0.000114128,-1.43135e-05,0.000136206,0.0228256,-0.00286269,0.0272413,0,0,0,0,0.172904,0.421785,-0.92575,34.8125,3,50453,5099815
211,-0.13916,-0.553881,12.3237,0.489647,-1.12491,3.32446,-0.00138576,-0.0055051,0.123239,1,-0.000138137,1.82851e-05,0.000121008,-0.0276274,0.00365703,0.0242015,0,0,0,0,0.173737,0.414162,-0.936529,34.8125,3,50457,5100215
212,-1.53734,0.0372969,9.1181,-1.13395,-0.400439,0.390294,-0.0154017,0.000373315,0.0911763,1,-2.2719e-05,-0.000154514,0.000123396,-0.00454381,-0.0309028,0.0246791,0,0,0,0,0.177166,0.412644,-0.935064,34.8125,3,50460,5100515
213,-1.47647,0.0323464,9.78513,-0.973316,-0.157041,0.899865,-0.0147618,0.000337646,0.0978517,1,-9.23041e-05,1.55698e-05,0.00013149,-0.0184608,0.00311396,0.026298,0,0,0,0,0.177173,0.40782,-0.938201,34.8125,3,50463,5100815
214,-0.961491,-0.696216,10.7971,-0.747701,-1.45741,1.08889,-0.00962699,-0.0069975,0.107968,1,0.000149984,-6.58643e-05,0.000153424,0.0299969,-0.0131729,0.0306847,0,0,0,0,0.181864,0.405459,-0.944841,34.8125,3,50467,5101215
215,-0.955785,0.303653,10.5606,-0.511385,-0.132501,1.66104,-0.00954384,0.00304328,0.105607,1,-4.4168e-05,7.02306e-05,0.00013458,-0.00883359,0.0140461,0.026916,0,0,0,0,0.18544,0.400942,-0.939402,34.8125,3,50470,5101515
216,-1.09373,-0.362925,9.67445,-0.788995,-1.07896,0.117778,-0.0109203,-0.00362905,0.0967465,1,-1.79492e-05,8.25008e-05,0.000149361,-0.00358984,0.0165002,0.0298722,0,0,0,0,0.189141,0.402463,-0.944436,34.8125,3,50474,5101915
217,-0.51462,0.190055,9.80731,-0.512199,-0.549989,0.999754,-0.00514477,0.00188711,0.0980735,1,6.02393e-05,1.03204e-05,0.000157708,0.0120479,0.00206408,0.0315416,0,0,0,0,0.192681,0.400863,-0.938428,34.8125,3,50477,5102215
218,-0.0379097,-1.09261,9.90106,-0.360225,-1.72355,0.914506,-0.000371861,-0.0109455,0.0990085,1,9.71951e-05,2.09423e-05,0.000141216,0.019439,0.00418846,0.0282433,0,0,0,0,0.197785,0.403367,-0.944456,34.8125,3,50480,5102515
219,-1.54361,0.642941,8.62795,-1.42546,-0.0384914,0.123858,-0.0153846,0.00639648,0.0862911,1,0.000148428,0.000315863,0.000237373,0.0296855,0.0631727,0.0474746,0,0,0,0,0.198944,0.400324,-0.938468,34.8125,3,50483,5102815
220,-0.0804586,-1.2303,10.2324,-0.22862,-1.80296,0.789007,-0.000812788,-0.0122942,0.102325,1,-4.40966e-05,-5.20676e-05,9.97474e-05,-0.00881933,-0.0104135,0.0199495,0,0,0,0,0.204945,0.40383,-0.946499,34.8125,3,50487,5103215
221,-0.774695,-0.139339,9.54751,-0.794721,-1.10409,0.441154,-0.00776843,-0.00144654,0.0954726,1,0.000268284,-0.000114353,0.000123858,0.0536567,-0.0228706,0.0247715,0,0,0,0,0.206906,0.405233,-0.943952,34.8125,3,50490,5103515
222,0.066062,0.9265,9.74075,0.206289,0.468951,0.718198,0.000621676,0.00927261,0.097407,1,-3.80225e-05,-0.000184798,0.000158746,-0.00760451,-0.0369596,0.0317493,0,0,0,0,0.206856,0.402378,-0.948055,34.8125,3,50493,5103815
223,-0.587683,-0.516737,9.5873,-0.511886,-1.61828,1.15624,-0.00587504,-0.00521186,0.0958707,1,0.000224056,2.30837e-06,0.000129958,0.0448112,0.000461674,0.0259916,0,0,0,0,0.210994,0.40441,-0.954595,34.8125,3,50497,5104215
224,-0.510949,0.396093,9.39642,-0.383635,-0.173355,0.460302,-0.00514679,0.00396369,0.0939621,1,-2.02056e-05,-0.00019418,0.000101053,-0.00404111,-0.0388361,0.0202106,0,0,0,0,0.210576,0.396176,-0.957807,34.8125,3,50500,5104515
225,-1.85116,-0.416099,8.22856,-1.5387,-1.14854,-0.166458,-0.018504,-0.00418595,0.082286,1,0.000101686,3.48542e-05,0.000222281,0.0203371,0.00697085,0.0444563,0,0,0,0,0.215107,0.396823,-0.968924,34.8125,3,50503,5104815
226,0.0442009,-0.0173529,11.323,0.231149,-1.20821,2.38198,0.000432194,-0.000240162,0.11323,1,0.000294779,-4.35994e-05,0.000140157,0.0589558,-0.00871988,0.0280315,0,0,0,0,0.215232,0.387094,-0.970657,34.8125,3,50507,5105215
227,-2.52697,0.194548,8.46879,-2.29958,-0.0293363,-0.361213,-0.0252645,0.00194992,0.0846893,1,-6.73957e-05,3.38537e-05,0.000138086,-0.0134791,0.00677075,0.0276172,0,0,0,0,0.218306,0.383425,-0.985399,34.8125,3,50510,5105515
228,-0.202332,-1.24258,10.226,-0.0589275,-1.73796,1.23665,-0.00203519,-0.0124186,0.10226,1,-3.9211e-05,-8.19656e-05,0.000197029,-0.00784221,-0.0163931,0.0394058,0,0,0,0,0.219908,0.37607,-0.984055,34.8125,3,50513,5105815
229,-1.46646,-0.414592,9.2879,-1.12614,-1.25866,0.929565,-0.0146513,-0.00417631,0.0928798,1,0.000129756,6.16412e-05,0.000214356,0.0259512,0.0123282,0.0428711,0,0,0,0,0.225511,0.3694,-0.995845,34.8125,3,50517,5106215
230,-0.437977,1.00168,10.8757,0.0410567,0.689488,2.23881,-0.00436411,0.0100254,0.108757,1,-4.77455e-05,9.08344e-05,0.000204242,-0.0095491,0.0181669,0.0408483,0,0,0,0,0.230227,0.369911,-0.999391,34.8125,3,50520,5106515
231,-1.20425,-0.840513,9.92491,-1.12006,-1.17456,1.22955,-0.0120349,-0.00841527,0.0992491,1,2.65554e-05,2.09882e-05,0.000202395,0.00531108,0.00419765,0.040479,0,0,0,0,0.230188,0.362712,-1.00612,34.8125,3,50523,5106815
232,0.131182,-0.30284,10.452,0.374587,-1.63735,1.82367,0.001303,-0.00307322,0.104518,1,0.000216227,-4.64967e-05,0.000148048,0.0432454,-0.00929935,0.0296096,0,0,0,0,0.234273,0.367192,-1.01311,34.8125,3,50527,5107215
233,-1.90391,0.471475,9.2154,-1.2755,-0.20939,0.972293,-0.0190455,0.00472127,0.0921524,1,-4.64211e-05,-3.17526e-05,5.33847e-05,-0.00928422,-0.00635053,0.0106769,0,0,0,0,0.235813,0.362772,-1.0122,34.8125,3,50530,5107515
234,-0.897204,1.30608,10.4043,-0.620414,0.25611,2.05926,-0.00894118,0.0130299,0.10405,1,0.000139801,0.000160477,9.71808e-05,0.0279602,0.0320953,0.0194362,0,0,0,0,0.236603,0.364336,-1.01823,34.8125,3,50533,5107815
235,-1.9174,-0.750498,8.76513,-1.77935,-1.11161,0.368096,-0.0191595,-0.00749073,0.0876557,1,-5.82984e-05,9.11968e-05,-0.000105227,-0.0116597,0.0182394,-0.0210454,0,0,0,0,0.235152,0.364835,-1.01821,34.8125,3,50537,5108215
236,-1.49814,-1.17751,8.97692,-1.71909,-1.69923,-0.365152,-0.0150241,-0.0118015,0.0897586,1,0.000189413,-0.00020434,-0.000253567,0.0378827,-0.040868,-0.0507133,0,0,0,0,0.23491,0.36694,-1.02675,34.8125,3,50540,5108515
237,-1.19023,0.815368,9.96706,-0.980159,-0.142288,1.20002,-0.0119061,0.00812583,0.0996724,1,0.000180009,-4.63323e-05,-0.000337683,0.0360018,-0.00926647,-0.0675365,0,0,0,0,0.233043,0.366432,-1.02473,34.8125,3,50543,5108815
238,-1.38463,0.197602,9.23552,-1.3951,0.207615,0.18146,-0.0138429,0.00201752,0.0923548,1,-0.000139872,6.44621e-06,-0.000565928,-0.0279744,0.00128924,-0.113186,0,0,0,0,0.23141,0.3661,-1.03282,34.8125,3,50547,5109215
239,-1.15086,0.213567,8.99252,-0.922693,0.0159589,0.610367,-0.011511,0.00217102,0.089924,1,-0.000113289,-2.88861e-05,-0.000650529,-0.0226578,-0.00577721,-0.130106,0,0,0,0,0.22799,0.368576,-1.03325,34.8125,3,50550,5109515
240,-0.476412,0.21116,10.9945,-0.518865,-0.39019,1.77908,-0.00478729,0.00205945,0.109945,1,0.000262949,-0.000116629,-0.000593399,0.0525898,-0.0233258,-0.11868,0,0,0,0,0.224624,0.361857,-1.03793,34.8125,3,50553,5109815
241,0.192879,-0.742726,10.9093,0.908924,-2.31602,2.49648,0.00192669,-0.00749506,0.109089,1,0.000300367,3.04148e-05,-0.000585638,0.0600734,0.00608296,-0.117128,0,0,0,0,0.223859,0.363513,-1.04849,34.8125,3,50557,5110215
242,-1.00744,-2.49256,9.90488,-1.0182,-3.1794,1.1319,-0.010098,-0.0249313,0.099045,1,8.45977e-05,1.98739e-05,-0.000551079,0.0169195,0.00397478,-0.110216,0,0,0,0,0.220588,0.356243,-1.04965,34.8125,3,50560,5110515
243,-1.05898,0.669431,10.1942,-0.617715,0.0724388,2.00463,-0.0105191,0.00670663,0.101949,1,5.08736e-06,0.000305426,-0.000632455,0.00101747,0.0610852,-0.126491,0,0,0,0,0.223187,0.357393,-1.06075,34.8125,3,50563,5110815
244,-1.1766,-0.599143,9.03281,-1.09982,-1.48039,0.31629,-0.0117297,-0.00602261,0.0903308,1,0.000242331,0.000236543,-0.00053607,0.0484662,0.0473086,-0.107214,0,0,0,0,0.220039,0.348587,-1.0579,34.8125,3,50567,5111215
245,-1.14079,-0.515371,9.33837,-1.19384,-1.31322,0.426652,-0.0114285,-0.00517382,0.0933801,1,0.000184778,-7.52253e-05,-0.000630675,0.0369555,-0.0150451,-0.126135,0,0,0,0,0.221227,0.347798,-1.06903,34.8125,3,50570,5111515
246,-0.689411,-1.59953,9.45986,-0.864206,-2.40059,0.866683,-0.00691602,-0.0160194,0.0945929,1,0.0001677,-2.24766e-05,-0.000551347,0.03354,-0.00449533,-0.110269,0,0,0,0,0.218463,0.344841,-1.06606,34.8125,3,50573,5111815
247,-1.02487,0.794422,9.94149,-0.625307,0.367508,1.14866,-0.0102358,0.00795941,0.099415,1,-3.10382e-05,2.96132e-05,-0.000440014,-0.00620763,0.00592264,-0.0880028,0,0,0,0,0.218182,0.342636,-1.07924,34.8125,3,50577,5112215
248,-1.18984,-1.06874,9.99797,-1.32459,-1.2635,0.878065,-0.0119191,-0.0106792,0.0999781,1,-1.66851e-07,-6.70125e-05,-0.000339373,-3.33701e-05,-0.0134025,-0.0678746,0,0,0,0,0.21908,0.346531,-1.07915,34.8125,3,50580,5112515
249,-1.61909,-0.643073,8.79609,-1.54757,-0.760256,0.113891,-0.0162071,-0.00642838,0.0879581,1,2.40023e-05,-7.74823e-05,-0.000203119,0.00480047,-0.0154965,-0.0406239,0,0,0,0,0.217553,0.341303,-1.08633,34.8125,3,50583,5112815
250,-1.09463,-0.852202,9.20134,-1.02745,-1.17625,0.324941,-0.0109736,-0.00849544,0.0920126,1,-0.000134375,-0.000140761,-8.46937e-05,-0.0268751,-0.0281521,-0.0169387,0,0,0,0,0.217871,0.346719,-1.08925,34.8125,3,50587,5113215
251,-1.55027,-0.338998,9.32352,-1.5684,-0.658602,0.523491,-0.0155131,-0.00340802,0.0932328,1,8.1591e-05,-5.93162e-05,9.09168e-05,0.0163182,-0.0118632,0.0181834,0,0,0,0,0.214678,0.341318,-1.08582,34.8125,3,50590,5113515
252,-2.14392,0.419497,8.14783,-1.9046,-0.0247716,-0.610249,-0.0214464,0.00417625,0.0814774,1,8.66056e-05,-3.85876e-05,0.000107393,0.0173211,-0.00771752,0.0214785,0,0,0,0,0.213878,0.347338,-1.09477,34.8125,3,50593,5113815
253,-1.23266,-0.706367,9.35569,-1.26487,-1.06009,0.364907,-0.0123268,-0.00707948,0.0935557,1,5.69895e-05,-1.69087e-05,0.00020878,0.0113979,-0.00338175,0.0417561,0,0,0,0,0.213002,0.347283,-1.09123,34.8125,3,50597,5114215
254,-1.85874,0.492045,8.64192,-1.55201,0.0607893,0.218251,-0.0185905,0.00488864,0.0864203,1,0.000112558,8.49065e-07,0.000332123,0.0225116,0.000169813,0.0664246,0,0,0,0,0.213702,0.349876,-1.10027,34.8125,3,50600,5114515
255,-0.889654,1.02552,9.64032,-0.203873,0.306195,1.25061,-0.00890912,0.0102504,0.0964026,1,-3.95322e-06,-3.20046e-05,0.000312926,-0.000790645,-0.00640091,0.0625852,0,0,0,0,0.209487,0.348864,-1.09623,34.8125,3,50603,5114815
256,-2.12244,-0.613913,8.5836,-1.875,-1.25076,-0.00621438,-0.0212025,-0.00617462,0.0858388,1,0.000114718,0.000100771,0.000372392,0.0229437,0.0201542,0.0744784,0,0,0,0,0.206414,0.344687,-1.10691,34.8125,3,50607,5115215
257,-1.29294,-0.472387,9.31976,-0.822914,-1.09645,0.870044,-0.0129104,-0.00473448,0.0931997,1,7.23064e-06,8.37726e-05,0.000358502,0.00144613,0.0167545,0.0717004,0,0,0,0,0.207833,0.346139,-1.10689,34.8125,3,50610,5115515
258,-0.650723,-0.245067,10.0566,-0.593376,-1.09051,1.29989,-0.00648287,-0.00247742,0.100567,1,0.000110983,0.000112762,0.000340655,0.0221966,0.0225524,0.068131,0,0,0,0,0.201051,0.342374,-1.11149,34.8125,3,50614,5115915
259,-1.11438,0.182138,10.0623,-0.775545,-0.125934,1.3926,-0.0111382,0.00181335,0.100624,1,-2.30672e-07,3.48253e-05,0.000362164,-4.61344e-05,0.00696506,0.0724328,0,0,0,0,0.202309,0.341052,-1.12011,34.8125,3,50617,5116215
260,-1.38133,-0.655728,9.13148,-1.34615,-1.29862,0.185599,-0.0138269,-0.00659445,0.0913101,1,0.000152735,-9.9081e-05,0.000335784,0.030547,-0.0198162,0.0671569,0,0,0,0,0.198055,0.334286,-1.12175,34.8125,3,50620,5116515
261,-0.233371,1.01828,10.8484,0.0946144,0.395505,2.28393,-0.00231724,0.0101601,0.108486,1,9.92978e-05,9.87408e-05,0.000243871,0.0198596,0.0197482,0.0487741,0,0,0,0,0.199329,0.331988,-1.1304,34.8125,3,50623,5116815
262,-2.29185,0.126363,7.98163,-2.32308,-0.559516,-0.746521,-0.0229523,0.0012433,0.0798068,1,5.97153e-05,-0.000208594,0.000235227,0.0119431,-0.0417188,0.0470454,0,0,0,0,0.194165,0.324228,-1.13055,34.8125,3,50627,5117215
263,-0.686998,-1.14229,10.1842,-0.0206506,-1.90787,1.71803,-0.00686056,-0.0114505,0.10184,1,0.000116375,1.42789e-05,0.000284631,0.0232751,0.00285578,0.0569261,0,0,0,0,0.191525,0.324419,-1.14013,34.8125,3,50630,5117515
264,-1.35445,0.451296,9.75473,-1.04494,-0.17455,0.938884,-0.0135458,0.00449004,0.0975482,1,8.02392e-05,5.97723e-06,0.000268064,0.0160478,0.00119545,0.0536129,0,0,0,0,0.189743,0.318067,-1.13874,34.8125,3,50633,5117815
265,-2.06143,0.128176,8.69998,-1.85449,-0.307579,-0.109516,-0.0206252,0.00124748,0.0869978,1,0.000141152,-5.9193e-05,0.000235813,0.0282303,-0.0118386,0.0471627,0,0,0,0,0.184305,0.314362,-1.14739,34.8125,3,50637,5118215
266,-1.5417,-0.08959,10.1678,-1.36771,-0.945945,1.45915,-0.015393,-0.000900431,0.101682,1,-1.41194e-05,0.000115464,0.000240262,-0.00282389,0.0230927,0.0480524,0,0,0,0,0.185137,0.316378,-1.15139,34.8125,3,50640,5118515
267,-2.10651,-0.202587,9.78529,-1.86242,-0.595345,1.00582,-0.0210493,-0.00202785,0.0978563,1,-4.82155e-05,7.50284e-05,0.000271217,-0.00964311,0.0150057,0.0542434,0,0,0,0,0.1813,0.314955,-1.1519,34.8125,3,50643,5118815
268,-2.95179,0.0871399,9.7091,-2.52906,-0.403789,1.11344,-0.0294871,0.000841803,0.0971006,1,8.09227e-05,0.000160851,0.000235256,0.0161845,0.0321702,0.0470511,0,0,0,0,0.179713,0.317,-1.1564,34.8125,3,50647,5119215
266,-2.85103,-0.278243,9.82235,-2.70782,-0.725022,0.986331,-0.0285195,-0.00279678,0.0982204,1,4.47291e-06,-5.35566e-05,0.000236079,0.000894582,-0.0107113,0.0472159,0,0,0,0,0.176533,0.31159,-1.15246,34.8125,3,50650,5119515
270,-1.77677,-0.867447,10.144,-1.45363,-1.31855,1.10668,-0.0178088,-0.00869023,0.101432,1,4.18059e-05,-0.000220152,0.000204513,0.00836119,-0.0440304,0.0409026,0,0,0,0,0.174555,0.312609,-1.15395,34.8125,3,50653,5119815
271,-0.542042,0.564794,11.1062,-1.4226,-0.668877,2.32365,-0.00545804,0.00561484,0.111061,1,0.000139772,-0.000159799,0.000188766,0.0279544,-0.0319598,0.0377532,0,0,0,0,0.168428,0.311604,-1.14939,34.8125,3,50657,5120215
272,-3.70609,-0.437674,9.6844,-1.51371,-0.360742,1.44168,-0.0370964,-0.0044269,0.0968282,1,0.00018504,-0.000191923,0.000193138,0.0370079,-0.0383845,0.0386275,0,0,0,0,0.169075,0.31809,-1.15784,34.8125,3,50660,5120515
273,-2.66261,0.45393,9.15425,-3.03094,-1.0616,0.219907,-0.0266067,0.00452981,0.0915486,1,-1.17397e-05,0.000117149,0.000218761,-0.00234794,0.0234298,0.0437521,0,0,0,0,0.162658,0.310685,-1.14989,34.8125,3,50663,5120815
274,-2.60088,0.236295,9.43568,-2.47062,-0.413883,0.815986,-0.0260041,0.00235079,0.0943584,1,2.0125e-05,2.91155e-05,0.000160892,0.00402499,0.0058231,0.0321784,0,0,0,0,0.160041,0.317606,-1.15377,34.8125,3,50667,5121215
275,-2.69664,-0.180744,9.25553,-2.03824,-0.700618,0.644425,-0.0269675,-0.00182981,0.0925546,1,8.20899e-05,-8.2009e-06,0.000133143,0.016418,-0.00164018,0.0266285,0,0,0,0,0.15636,0.317033,-1.1472,34.8125,3,50670,5121515
276,-2.53369,0.0686666,9.89101,-2.35016,-0.415063,1.13451,-0.0253556,0.000676685,0.0989054,1,8.04224e-06,-9.31573e-05,0.000165507,0.00160845,-0.0186315,0.0331015,0,0,0,0,0.155283,0.316644,-1.15225,34.8125,3,50673,5121815
277,-2.62464,-0.0735254,9.3541,-2.26261,-0.672873,0.418541,-0.0262516,-0.000755494,0.0935394,1,7.07386e-05,-2.90986e-05,0.000133448,0.0141477,-0.00581972,0.0266895,0,0,0,0,0.150041,0.319542,-1.14812,34.8125,3,50677,5122215
278,-3.0375,-0.0585407,9.19255,-2.45968,-0.423588,0.800738,-0.0303928,-0.000603874,0.0919195,1,5.246e-05,-9.76232e-05,0.000145188,0.010492,-0.0195246,0.0290376,0,0,0,0,0.148687,0.317079,-1.14615,34.8125,3,50680,5122515
279,-1.63847,0.268452,10.1458,-1.50447,-0.623619,1.39039,-0.0163796,0.00266643,0.101459,1,7.22445e-05,2.82016e-05,0.000104568,0.0144489,0.00564032,0.0209135,0,0,0,0,0.147998,0.323018,-1.15056,34.8125,3,50683,5122815
280,-2.99599,-0.164572,9.65346,-2.36388,-0.758159,1.12581,-0.0299556,-0.00166347,0.0965357,1,6.16926e-05,2.05243e-05,9.74608e-05,0.0123385,0.00410485,0.0194922,0,0,0,0,0.142527,0.318026,-1.14156,34.8125,3,50687,5123215
281,-2.25616,0.207356,9.86868,-1.39209,-0.572575,1.30418,-0.0225654,0.00206065,0.0986862,1,4.29735e-05,-1.75149e-05,9.82977e-05,0.0085947,-0.00350299,0.0196595,0,0,0,0,0.141397,0.318639,-1.1481,34.8125,3,50690,5123515
282,-1.6583,0.0363274,10.074,-0.950355,-0.796608,1.52044,-0.0166021,0.000365424,0.100737,1,-2.36055e-05,-9.43496e-05,7.8537e-05,-0.00472111,-0.0188699,0.0157074,0,0,0,0,0.140583,0.319984,-1.141,34.8125,3,50693,5123815
283,-0.467511,-0.546345,9.89504,-0.237809,-0.532131,1.08907,-0.0047012,-0.00546708,0.098949,1,1.54177e-05,-0.000135183,6.09659e-05,0.00308353,-0.0270366,0.0121932,0,0,0,0,0.141352,0.320599,-1.14856,34.8125,3,50696,5124115
284,-3.26772,0.0142983,9.41364,-3.01003,-0.496273,0.670645,-0.0326764,0.00012801,0.0941367,1,4.19472e-05,4.41459e-06,0.000108269,0.00838944,0.000882917,0.0216537,0,0,0,0,0.140885,0.32493,-1.14493,34.8125,3,50700,5124515
285,-2.16368,0.491441,9.50872,-1.55042,-0.282305,0.972533,-0.0216579,0.00490111,0.0950831,1,6.41253e-05,-0.000109846,2.54798e-05,0.0128251,-0.0219692,0.00509595,0,0,0,0,0.137598,0.32008,-1.14502,34.8125,3,50703,5124815
286,-2.0187,0.00280937,9.60638,-1.54363,-0.725486,0.995286,-0.0202007,2.01963e-05,0.0960609,1,3.6534e-05,-7.13767e-05,2.17473e-05,0.00730681,-0.0142753,0.00434947,0,0,0,0,0.136101,0.321094,-1.14651,34.8125,3,50707,5125215
287,-1.57854,-0.0408903,9.72462,-1.07838,-0.737322,1.09201,-0.0157879,-0.000417049,0.0972458,1,4.06336e-05,-1.29159e-05,7.6833e-06,0.00812672,-0.00258318,0.00153666,0,0,0,0,0.136765,0.315174,-1.14311,34.8125,3,50710,5125515
288,-1.72316,-0.0140603,9.68879,-1.19526,-0.784317,1.05482,-0.0172251,-0.000152132,0.096889,1,5.62521e-05,3.35575e-05,1.82385e-05,0.0112504,0.0067115,0.00364771,0,0,0,0,0.137989,0.322551,-1.14699,34.8125,3,50713,5125815
289,-1.54527,-0.054376,9.61109,-1.05606,-0.841171,0.995821,-0.0154647,-0.000552661,0.0961089,1,4.38771e-05,-6.25267e-05,1.50931e-05,0.00877543,-0.0125053,0.00301861,0,0,0,0,0.13529,0.317137,-1.14306,34.8125,3,50716,5126115
290,-1.72106,-0.0729162,9.48265,-1.11407,-0.78926,0.903514,-0.0172324,-0.000733685,0.0948225,1,1.76097e-05,-0.000115173,3.43519e-05,0.00352193,-0.0230346,0.00687039,0,0,0,0,0.137018,0.321601,-1.14802,34.8125,3,50720,5126515
291,-1.15101,-0.0184064,9.67494,-0.637733,-0.835247,1.00074,-0.0115354,-0.00019075,0.0967464,1,3.43175e-05,-0.0001307,1.96016e-06,0.00686351,-0.02614,0.000392032,0,0,0,0,0.138573,0.321508,-1.14348,34.8125,3,50723,5126815
292,-0.174535,0.165697,10.1725,0.446403,-0.6617,1.47182,-0.00175704,0.00163802,0.101725,1,9.33428e-05,-5.76878e-05,-1.24223e-05,0.0186686,-0.0115376,-0.00248445,0,0,0,0,0.13502,0.321671,-1.15104,34.8125,3,50726,5127115
293,-1.28363,0.0151246,9.73334,-0.740117,-0.651181,1.07928,-0.0128392,0.000137626,0.097333,1,6.96463e-05,-1.46319e-05,2.45429e-06,0.0139293,-0.00292639,0.000490858,0,0,0,0,0.139432,0.322539,-1.147,34.8125,3,50730,5127515
294,-0.378564,-0.00963866,9.78905,0.146739,-0.851472,1.09489,-0.00378984,-0.000102478,0.0978903,1,3.20952e-05,-2.14003e-05,-2.53071e-05,0.00641904,-0.00428006,-0.00506143,0,0,0,0,0.139949,0.318172,-1.14861,34.8125,3,50733,5127815
295,-0.391981,-0.196859,9.77497,0.174226,-1.0256,1.08486,-0.00391926,-0.00198064,0.0977495,1,6.20409e-05,3.01726e-06,-1.09155e-05,0.0124082,0.000603451,-0.00218309,0,0,0,0,0.139045,0.320547,-1.14451,34.8125,3,50736,5128115
296,-0.695386,0.0708333,9.7868,-0.154733,-0.787782,1.11495,-0.00695878,0.000698883,0.0978677,1,4.55196e-05,-2.48308e-05,3.88768e-05,0.00910391,-0.00496615,0.00777537,0,0,0,0,0.136664,0.320549,-1.14349,34.8125,3,50740,5128515
297,-0.611539,-0.0444173,9.80015,-0.0409466,-0.82556,1.12472,-0.00611946,-0.000459111,0.0980012,1,7.58264e-05,-2.07759e-05,6.25474e-06,0.0151653,-0.00415517,0.00125095,0,0,0,0,0.139877,0.324007,-1.14747,34.8125,3,50743,5128815
298,-0.461213,-0.0231857,9.82782,0.123431,-0.828662,1.15115,-0.00461735,-0.000239458,0.0982779,1,3.90728e-05,-2.65073e-05,-8.55487e-06,0.00781455,-0.00530146,-0.00171097,0,0,0,0,0.138604,0.318112,-1.14457,34.8125,3,50746,5129115
299,-0.642442,-0.0328125,9.78587,-0.0695766,-0.901615,1.10941,-0.0064256,-0.000338048,0.0978586,1,4.96097e-05,-6.10538e-06,1.6589e-05,0.00992194,-0.00122108,0.0033178,0,0,0,0,0.140333,0.321131,-1.15057,34.8125,3,50750,5129515
300,-0.58896,0.000362408,9.79294,-0.00231633,-0.872081,1.11556,-0.00589695,-7.22954e-06,0.0979289,1,5.45177e-05,-3.75546e-05,1.49222e-05,0.0109035,-0.00751091,0.00298444,0,0,0,0,0.140027,0.318597,-1.14507,34.8125,3,50753,5129815
301,-0.538652,-0.0925896,9.79756,0.0382754,-0.922724,1.10387,-0.005392,-0.000935408,0.0979752,1,4.75625e-05,-2.81079e-05,1.7816e-05,0.00951249,-0.00562157,0.0035632,0,0,0,0,0.139012,0.318162,-1.1476,34.8125,3,50756,5130115
302,-0.581136,-0.00934813,9.79108,0.00450859,-0.840056,1.1124,-0.00581024,-0.000102303,0.0979108,1,4.38989e-05,5.69968e-06,1.93564e-05,0.00877978,0.00113994,0.00387128,0,0,0,0,0.141018,0.317604,-1.14459,34.8125,3,50760,5130515
303,-0.615627,-0.0500534,9.80249,-0.0271556,-0.874709,1.1207,-0.00615885,-0.000512126,0.0980247,1,5.8271e-05,-1.31968e-05,1.36383e-05,0.0116542,-0.00263936,0.00272767,0,0,0,0,0.137576,0.316241,-1.14864,34.8125,3,50763,5130815
304,-0.595418,-0.0437857,9.80953,0.00715246,-0.89542,1.12953,-0.0059526,-0.000447948,0.0980953,1,5.06733e-05,8.0317e-06,1.24965e-05,0.0101347,0.00160634,0.00249929,0,0,0,0,0.138588,0.317642,-1.14559,34.8125,3,50766,5131115
305,-0.608967,-0.0230829,9.80574,-0.00855089,-0.870524,1.12634,-0.00609441,-0.000239129,0.0980571,1,4.09631e-05,-2.41902e-05,2.1864e-05,0.00819263,-0.00483803,0.00437281,0,0,0,0,0.137642,0.316674,-1.1456,34.8125,3,50770,5131515
306,-0.687898,-0.049731,9.77619,-0.0790139,-0.893418,1.09928,-0.00688137,-0.000507401,0.0977617,1,4.88776e-05,-1.2381e-05,3.88326e-05,0.00977552,-0.00247619,0.00776651,0,0,0,0,0.141384,0.318648,-1.14861,34.8125,3,50773,5131815
307,-0.743471,-0.0292059,9.78658,-0.13193,-0.873162,1.12269,-0.00743456,-0.000301256,0.0978658,1,4.51097e-05,6.96535e-07,2.47766e-05,0.00902193,0.000139307,0.00495533,0,0,0,0,0.139579,0.316649,-1.14511,34.8125,3,50776,5132115
308,-0.729354,-0.0573451,9.7781,-0.111677,-0.900276,1.10543,-0.00729478,-0.000583068,0.0977808,1,4.74043e-05,-6.486e-06,2.37432e-05,0.00948085,-0.0012972,0.00474864,0,0,0,0,0.141315,0.319181,-1.15112,34.8125,3,50780,5132515
309,-0.792158,-0.0296086,9.78011,-0.163201,-0.868034,1.10728,-0.00792214,-0.000304604,0.097801,1,4.09912e-05,-2.99332e-06,3.15793e-05,0.00819825,-0.000598664,0.00631586,0,0,0,0,0.140537,0.317608,-1.14459,34.8125,3,50783,5132815
310,-0.774558,-0.00660694,9.79647,-0.1523,-0.85576,1.12815,-0.00774672,-7.54831e-05,0.0979646,1,4.72422e-05,-5.84314e-06,1.01721e-05,0.00944845,-0.00116863,0.00203442,0,0,0,0,0.140838,0.321109,-1.14956,34.8125,3,50786,5133115
311,-0.819873,-0.0518528,9.79062,-0.189156,-0.896892,1.11524,-0.00819781,-0.000526845,0.0979062,1,4.02592e-05,4.55568e-06,2.64944e-05,0.00805184,0.000911136,0.00529887,0,0,0,0,0.140476,0.319098,-1.14607,34.8125,3,50790,5133515
312,-0.802097,0.0250439,9.77082,-0.167717,-0.830606,1.1084,-0.008023,0.000242779,0.097708,1,3.70778e-05,-1.02708e-05,2.58031e-05,0.00741557,-0.00205416,0.00516062,0,0,0,0,0.138514,0.319141,-1.14757,34.8125,3,50793,5133815
313,-0.816837,-0.108342,9.764,-0.171106,-0.970621,1.0934,-0.00816697,-0.00109026,0.0976401,1,3.30099e-05,6.86585e-06,2.38528e-05,0.00660198,0.00137317,0.00477057,0,0,0,0,0.141455,0.321005,-1.14401,34.8125,3,50796,5134115
314,-0.805704,0.0063211,9.78288,-0.159766,-0.858309,1.11747,-0.00805888,5.15065e-05,0.0978287,1,5.8718e-05,-9.41539e-06,1.33966e-05,0.0117436,-0.00188308,0.00267931,0,0,0,0,0.139526,0.319097,-1.14556,34.8125,3,50800,5134515
315,-0.855717,-0.102947,9.78806,-0.199613,-0.973586,1.11694,-0.00855813,-0.00103918,0.0978804,1,4.73336e-05,-5.17039e-06,2.58646e-05,0.00946673,-0.00103408,0.00517292,0,0,0,0,0.140358,0.322558,-1.14852,34.8125,3,50803,5134815
316,-0.865966,-0.038199,9.76731,-0.210802,-0.905501,1.10594,-0.00866055,-0.000394391,0.097673,1,5.99361e-05,-4.74454e-06,3.99707e-05,0.0119872,-0.000948907,0.00799413,0,0,0,0,0.138621,0.318581,-1.14355,34.8125,3,50806,5135115
317,-0.827614,-0.0730371,9.78065,-0.177932,-0.943876,1.11163,-0.00827469,-0.000738485,0.0978065,1,3.98271e-05,7.26787e-06,1.9569e-05,0.00796542,0.00145357,0.00391381,0,0,0,0,0.141849,0.319619,-1.14859,34.8125,3,50810,5135515
318,-0.876014,-0.0328602,9.77253,-0.210592,-0.891763,1.10292,-0.00876401,-0.000340494,0.0977249,1,5.95656e-05,-1.98369e-05,1.42604e-05,0.0119131,-0.00396739,0.00285207,0,0,0,0,0.138186,0.319516,-1.141,34.8125,3,50813,5135815
319,-0.873758,-0.0621987,9.77463,-0.209369,-0.939732,1.11089,-0.00874087,-0.00063368,0.0977459,1,5.77755e-05,-1.69741e-05,2.27953e-05,0.0115551,-0.00339483,0.00455905,0,0,0,0,0.138021,0.3206,-1.14703,34.8125,3,50817,5136215
320,-0.872448,-0.0380589,9.74938,-0.19545,-0.906572,1.07888,-0.00872672,-0.000391429,0.0974936,1,5.2834e-05,-1.1617e-05,3.08715e-05,0.0105668,-0.00232339,0.0061743,0,0,0,0,0.140456,0.32104,-1.14552,34.8125,3,50820,5136515
321,-0.882138,-0.0861034,9.75617,-0.222182,-0.990128,1.11138,-0.00882589,-0.000870417,0.0975612,1,4.65046e-05,-2.32512e-05,1.74906e-05,0.00930093,-0.00465024,0.00349811,0,0,0,0,0.139465,0.320588,-1.14704,34.8125,3,50823,5136815
322,-0.707366,-0.041857,9.81273,-0.04174,-0.926196,1.14423,-0.00708339,-0.000428617,0.0981265,1,4.97272e-05,-4.96787e-05,2.03934e-05,0.00994544,-0.00993574,0.00407867,0,0,0,0,0.141981,0.320487,-1.14251,34.8125,3,50826,5137115
323,-0.783779,-0.0578706,9.791,-0.10048,-0.950705,1.11806,-0.00783824,-0.000588426,0.0979099,1,4.95296e-05,-2.31152e-06,1.29126e-06,0.00990593,-0.000462305,0.000258251,0,0,0,0,0.139118,0.317602,-1.14357,34.8125,3,50830,5137515
324,-1.07013,-0.0891277,9.78317,-0.382466,-0.964295,1.12027,-0.0107022,-0.000900498,0.0978315,1,4.43626e-05,-4.88995e-06,2.52836e-05,0.00887252,-0.00097799,0.00505673,0,0,0,0,0.139926,0.322526,-1.1465,34.8125,3,50833,5137815
325,-1.17877,0.090465,9.74379,-0.529177,-0.786594,1.10843,-0.0117979,0.000895549,0.0974368,1,4.61302e-05,-5.24149e-05,4.72299e-06,0.00922603,-0.010483,0.000944598,0,0,0,0,0.139134,0.316626,-1.14359,34.8125,3,50836,5138115
326,-0.315826,1.68863,10.1984,0.0356041,-0.327445,1.48983,-0.0031922,0.0168511,0.101989,1,0.000174319,-0.000173753,-4.4578e-05,0.0348639,-0.0347507,-0.00891561,0,0,0,0,0.139428,0.320615,-1.14856,34.8125,3,50840,5138515
327,0.526753,-0.702375,10.1389,1.58384,-2.05847,1.29055,0.0052721,-0.00701702,0.101389,1,-3.10242e-05,1.96362e-05,4.18776e-05,-0.00620485,0.00392723,0.00837552,0,0,0,0,0.140027,0.318597,-1.14507,34.8125,3,50843,5138815
328,-1.24722,0.119029,9.96446,-0.549255,-0.574074,1.34684,-0.0124697,0.00117513,0.0996451,1,7.01996e-05,1.30164e-05,4.70114e-05,0.0140399,0.00260328,0.00940229,0,0,0,0,0.139905,0.321577,-1.14803,34.8125,3,50846,5139115
329,-0.642423,-0.090372,9.74261,0.0958375,-1.01106,1.06164,-0.00641774,-0.000913632,0.0974264,1,4.93543e-05,3.30939e-05,2.29406e-05,0.00987086,0.00661878,0.00458813,0,0,0,0,0.13997,0.320566,-1.14603,34.8125,3,50850,5139515
330,0.00294961,0.0725389,9.83026,0.713909,-0.672905,1.14873,2.99932e-05,0.000722523,0.0983026,1,1.45845e-05,2.62059e-06,1.25356e-05,0.0029169,0.000524118,0.00250713,0,0,0,0,0.13997,0.320566,-1.14603,34.8125,3,50853,5139815
331,-1.03663,-0.315395,9.7684,-0.240863,-1.16995,1.10602,-0.0103581,-0.00315779,0.0976848,1,1.73244e-05,4.13637e-05,2.20798e-05,0.00346488,0.00827275,0.00441597,0,0,0,0,0.138039,0.32396,-1.14393,34.8125,3,50856,5140115
332,-2.51989,0.950775,9.76076,-1.93631,-0.219567,1.32349,-0.0252217,0.00949329,0.0976031,1,7.29982e-05,-0.000116393,4.15113e-06,0.0145996,-0.0232786,0.000830227,0,0,0,0,0.139078,0.320041,-1.14352,34.8125,3,50860,5140515
333,-1.16109,0.641273,9.70503,-0.525996,-0.571573,1.08806,-0.0116443,0.00642221,0.0970457,1,-5.02054e-05,-0.000171014,1.17526e-05,-0.0100411,-0.0342028,0.00235051,0,0,0,0,0.14035,0.324491,-1.14746,34.8125,3,50863,5140815
334,0.284341,1.14707,10.1345,0.59824,-0.420063,1.31128,0.00281696,0.0114422,0.101349,1,0.000139085,-0.000137203,-5.91985e-05,0.027817,-0.0274406,-0.0118397,0,0,0,0,0.1386,0.317633,-1.14508,34.8125,3,50866,5141115
335,-0.993585,-1.00765,9.97832,-0.110243,-2.02538,1.29023,-0.00990186,-0.0100858,0.0997857,1,4.2665e-05,0.000166446,3.82389e-05,0.00853301,0.0332891,0.00764779,0,0,0,0,0.139424,0.323027,-1.14699,34.8125,3,50870,5141515
336,-0.999032,0.367787,9.82877,-0.2759,-0.415874,1.19331,-0.0100035,0.00365833,0.0982871,1,9.45283e-05,-6.53838e-05,4.77747e-05,0.0189057,-0.0130767,0.00955494,0,0,0,0,0.138588,0.319087,-1.14454,34.8125,3,50873,5141815
337,-0.424791,-0.0790553,9.77661,0.289169,-1.10085,1.05162,-0.00425744,-0.000800213,0.0977656,1,4.75926e-05,-4.90747e-05,4.15893e-05,0.00951851,-0.00981495,0.00831786,0,0,0,0,0.138482,0.321092,-1.14753,34.8125,3,50876,5142115
338,-0.4606,-0.164147,9.88086,0.311995,-1.01598,1.13686,-0.00459291,-0.00165699,0.0988089,1,7.85943e-05,6.62468e-05,-1.67701e-06,0.0157189,0.0132494,-0.000335403,0,0,0,0,0.140937,0.322482,-1.14448,34.8125,3,50880,5142515
339,-1.64552,-0.0771404,9.72108,-0.936287,-0.615976,1.13261,-0.0164356,-0.000791175,0.097214,1,9.40582e-05,0.000100192,4.50948e-05,0.0188116,0.0200383,0.00901895,0,0,0,0,0.138515,0.320587,-1.14653,34.8125,3,50883,5142815
340,-0.94503,0.192881,9.82621,-0.242044,-0.839364,1.15369,-0.00946271,0.00192693,0.0982609,1,6.07478e-06,-6.24678e-05,3.6472e-05,0.00121496,-0.0124936,0.0072944,0,0,0,0,0.140897,0.323475,-1.14547,34.8125,3,50887,5143215
341,-0.599445,0.0104856,9.6937,0.141532,-0.850502,1.00626,-0.0059987,9.75476e-05,0.0969367,1,3.79196e-05,-2.19498e-05,-3.63594e-06,0.00758393,-0.00438996,-0.000727187,0,0,0,0,0.139057,0.319092,-1.14505,34.8125,3,50890,5143515
342,-0.662947,-0.121843,9.82456,0.0773001,-1.0364,1.13017,-0.00662129,-0.00122787,0.0982461,1,4.65272e-05,4.13824e-05,2.26887e-05,0.00930544,0.00827648,0.00453773,0,0,0,0,0.141842,0.322998,-1.14649,34.8125,3,50893,5143815
343,-0.946994,0.00492799,9.7689,-0.215196,-0.905573,1.10358,-0.00946622,4.32242e-05,0.0976893,1,2.79903e-05,1.90306e-05,3.10035e-05,0.00559806,0.00380611,0.00620071,0,0,0,0,0.138585,0.320054,-1.14402,34.8125,3,50896,5144115
344,-0.762845,-0.0625578,9.79662,-0.0051621,-0.941486,1.10834,-0.00763681,-0.000631364,0.0979656,1,2.87274e-05,-4.27368e-05,1.03074e-05,0.00574548,-0.00854737,0.00206148,0,0,0,0,0.140361,0.321591,-1.14904,34.8125,3,50900,5144515
345,-0.747785,0.0295532,9.76984,-0.0426223,-0.865737,1.0859,-0.00748521,0.000284378,0.0976979,1,5.47267e-05,-3.75599e-05,3.07694e-05,0.0109453,-0.00751197,0.00615387,0,0,0,0,0.137655,0.319556,-1.14302,34.8125,3,50903,5144815
346,-0.652032,-0.0821725,9.77093,0.0850624,-1.06207,1.07825,-0.00652118,-0.00082852,0.0977092,1,3.29427e-05,-4.6129e-06,2.73959e-05,0.00658855,-0.000922581,0.00547919,0,0,0,0,0.140374,0.321582,-1.14854,34.8125,3,50906,5145115
347,-0.792322,-0.0566519,9.80194,-0.0485743,-0.986533,1.12095,-0.00792609,-0.000578605,0.0980191,1,6.08508e-05,-1.46761e-05,9.92021e-06,0.0121702,-0.00293521,0.00198404,0,0,0,0,0.140978,0.320043,-1.14453,34.8125,3,50910,5145515
348,-0.779087,-0.0478409,9.79651,-0.0398386,-0.988898,1.12086,-0.00779581,-0.000485748,0.0979647,1,3.45539e-05,-2.54122e-05,3.65152e-05,0.00691079,-0.00508244,0.00730303,0,0,0,0,0.140447,0.320083,-1.14655,34.8125,3,50913,5145815
349,-0.760401,-0.0220296,9.7732,-0.0181371,-0.949596,1.09002,-0.00760976,-0.000230569,0.0977315,1,5.11426e-05,-2.94318e-05,1.81756e-05,0.0102285,-0.00588635,0.00363512,0,0,0,0,0.140016,0.320051,-1.14453,34.8125,3,50916,5146115
350,-0.769746,-0.0148887,9.79197,-0.0270247,-0.956568,1.10664,-0.00769927,-0.000156296,0.0979195,1,3.69306e-05,-9.27058e-06,1.14796e-05,0.00738611,-0.00185412,0.00229593,0,0,0,0,0.139094,0.31762,-1.14458,34.8125,3,50920,5146515
351,-0.845397,-0.0591458,9.77038,-0.0952809,-0.999239,1.08962,-0.00845401,-0.000597903,0.0977037,1,3.05753e-05,-3.72666e-07,2.7813e-05,0.00611506,-7.45332e-05,0.0055626,0,0,0,0,0.140925,0.322491,-1.14499,34.8125,3,50923,5146815
352,-0.825752,-0.0350926,9.79996,-0.0903522,-0.984389,1.11916,-0.0082561,-0.000361195,0.0979996,1,5.10793e-05,7.17329e-06,1.5596e-05,0.0102159,0.00143466,0.00311921,0,0,0,0,0.139106,0.317611,-1.14408,34.8125,3,50926,5147115
353,-1.77558,0.0111432,9.35254,-1.0943,-0.938037,0.721225,-0.0177485,0.000103034,0.0935268,1,4.14928e-05,3.92495e-05,1.79381e-05,0.00829857,0.0078499,0.00358762,0,0,0,0,0.141764,0.322573,-1.15004,34.8125,3,50930,5147515
354,-0.604576,-0.0525388,9.99976,0.211349,-1.0037,1.33058,-0.00603386,-0.000536873,0.0999983,1,5.66971e-05,5.94257e-05,1.2091e-05,0.0113394,0.0118851,0.00241821,0,0,0,0,0.139066,0.32005,-1.14402,34.8125,3,50933,5147815
355,-1.77384,0.021281,9.69003,-1.01014,-0.956764,1.07844,-0.0177229,0.000204421,0.0969031,1,4.21161e-05,7.98369e-05,6.39883e-06,0.00842323,0.0159674,0.00127977,0,0,0,0,0.144712,0.321059,-1.14857,34.8125,3,50936,5148115
356,-1.20778,-0.159459,9.8608,-0.329864,-1.08925,1.24629,-0.0120651,-0.00159919,0.0986095,1,1.97971e-05,6.38836e-05,2.87099e-05,0.00395941,0.0127767,0.00574199,0,0,0,0,0.141968,0.317605,-1.1451,34.8125,3,50940,5148515
357,-1.30405,0.167023,9.81822,-0.501909,-0.784308,1.18231,-0.0130521,0.00165622,0.0981809,1,6.8985e-05,-5.92636e-05,1.77158e-05,0.013797,-0.0118527,0.00354316,0,0,0,0,0.13953,0.318131,-1.14609,34.8125,3,50943,5148815
358,-1.66824,-0.017805,9.65289,-0.993115,-1.12862,1.07545,-0.0166816,-0.00019003,0.096529,1,7.1865e-05,3.91037e-06,-5.67699e-05,0.014373,0.000782073,-0.011354,0,0,0,0,0.140036,0.318109,-1.14508,34.8125,3,50946,5149115
359,-1.77767,-0.219736,9.24404,-1.24205,-1.24123,0.508701,-0.0177869,-0.00220813,0.0924382,1,5.08875e-05,-5.57604e-05,3.80337e-05,0.0101775,-0.0111521,0.00760673,0,0,0,0,0.140073,0.318082,-1.14356,34.8125,3,50950,5149515
360,-1.4921,0.062766,9.56393,-0.717746,-0.756288,0.893509,-0.0149327,0.000623697,0.0956375,1,2.68845e-05,-6.13334e-05,-3.9496e-05,0.00537691,-0.0122667,-0.0078992,0,0,0,0,0.142343,0.321051,-1.14704,34.8125,3,50953,5149815
361,-1.93183,0.190856,9.52623,-1.1944,-0.832934,0.928717,-0.0193271,0.00188902,0.0952609,1,0.000106432,-4.65897e-05,-1.92836e-05,0.0212863,-0.00931793,-0.00385671,0,0,0,0,0.143979,0.317526,-1.14157,34.8125,3,50957,5150215
362,-1.91924,-0.226044,9.66827,-1.0351,-1.26276,1.03849,-0.0191821,-0.00225929,0.0966848,1,-7.35017e-06,5.30781e-05,7.08656e-06,-0.00147003,0.0106156,0.00141731,0,0,0,0,0.147012,0.324489,-1.15052,34.8125,3,50960,5150515
363,-1.81403,0.0301711,9.62168,-0.950605,-0.953958,1.05312,-0.0181419,0.00030294,0.0962165,1,-7.50632e-06,-8.10433e-06,5.94368e-06,-0.00150126,-0.00162087,0.00118874,0,0,0,0,0.145389,0.31802,-1.14258,34.8125,3,50963,5150815
364,-1.8087,0.1087,9.76883,-0.966083,-0.851921,1.20871,-0.0180862,0.00108523,0.0976885,1,1.17308e-05,3.67319e-06,-1.42872e-05,0.00234615,0.000734639,-0.00285744,0,0,0,0,0.149478,0.320088,-1.15114,34.8125,3,50966,5151115
365,-2.09747,-0.196221,9.5092,-1.18387,-1.24045,1.02111,-0.0209627,-0.00196849,0.0950945,1,3.74843e-05,6.32803e-05,-2.03154e-05,0.00749686,0.0126561,-0.00406308,0,0,0,0,0.147318,0.317037,-1.14312,34.8125,3,50970,5151515
366,-1.06742,0.0262129,9.75344,-0.533409,-1.18561,1.13016,-0.0106827,0.000259644,0.0975335,1,1.71944e-05,-4.37848e-05,-4.07305e-05,0.00343888,-0.00875696,-0.0081461,0,0,0,0,0.147704,0.314694,-1.14873,34.8125,3,50973,5151815
367,-1.59268,0.038852,9.96833,-1.12189,-0.960446,1.31249,-0.015929,0.000382418,0.099683,1,4.01972e-05,-1.12082e-05,-6.00315e-05,0.00803944,-0.00224164,-0.0120063,0,0,0,0,0.153841,0.320992,-1.14912,34.8125,3,50977,5152215
368,-2.43953,0.0085796,9.61922,-1.96378,-1.12488,1.01611,-0.0243832,7.61116e-05,0.0961953,1,6.83074e-05,6.25974e-05,-7.0873e-05,0.0136615,0.0125195,-0.0141746,0,0,0,0,0.154135,0.313549,-1.14221,34.8125,3,50980,5152515
369,-2.48712,-0.113497,9.28859,-1.75203,-1.00342,0.768743,-0.0248511,-0.00113678,0.0928912,1,1.51e-05,0.000108398,-1.99532e-05,0.00301999,0.0216796,-0.00399064,0,0,0,0,0.153605,0.317925,-1.1411,34.8125,3,50983,5152815
370,-2.48438,0.0341384,9.5935,-1.66226,-1.0839,0.844704,-0.0248683,0.000336257,0.0959286,1,4.56575e-05,-0.000128033,-7.30896e-05,0.0091315,-0.0256065,-0.0146179,0,0,0,0,0.159912,0.312534,-1.14277,34.8125,3,50987,5153215
371,-2.88013,-0.595396,9.45967,-1.8306,-1.6134,0.87505,-0.0288221,-0.00595723,0.0945902,1,4.89797e-05,-0.000103388,-0.00010406,0.00979594,-0.0206775,-0.0208119,0,0,0,0,0.16071,0.315055,-1.14777,34.8125,3,50990,5153515
372,-1.89599,-0.148335,9.64388,-1.02108,-1.10606,0.922935,-0.0189867,-0.00147395,0.0964336,1,-2.84731e-05,-0.000137293,-0.000102878,-0.00569462,-0.0274585,-0.0205756,0,0,0,0,0.160841,0.313032,-1.14377,34.8125,3,50993,5153815
373,-1.60097,-0.169758,9.6254,-0.668612,-1.14831,1.01736,-0.0160161,-0.00169311,0.096253,1,-1.08718e-05,-3.20293e-05,-7.41667e-05,-0.00217436,-0.00640586,-0.0148333,0,0,0,0,0.16318,0.311133,-1.14787,34.8125,3,50997,5154215
374,-1.272,0.177523,9.52136,-0.348413,-0.784073,0.927906,-0.012728,0.00177853,0.0952124,1,-4.51118e-06,-4.40956e-05,-9.59074e-05,-0.000902235,-0.00881911,-0.0191815,0,0,0,0,0.167488,0.316896,-1.14473,34.8125,3,51000,5154515
375,-1.27348,-0.0941019,9.45763,-0.767138,-1.13745,0.886044,-0.0127441,-0.000961009,0.0945748,1,0.000116099,-4.80526e-05,-7.72958e-05,0.0232197,-0.00961053,-0.0154592,0,0,0,0,0.167877,0.312141,-1.15191,34.8125,3,51003,5154815
376,-1.29073,0.677482,9.33748,-0.41174,-0.245818,0.848663,-0.0129129,0.00678066,0.0933736,1,-2.00284e-05,-3.61506e-05,-8.14811e-05,-0.00400569,-0.00723011,-0.0162962,0,0,0,0,0.173561,0.316013,-1.15286,34.8125,3,51007,5155215
377,-1.54476,-0.0629441,9.48942,-0.418087,-0.928191,1.0391,-0.0154442,-0.000627096,0.0948948,1,-1.76796e-06,1.84894e-05,-6.50452e-05,-0.000353593,0.00369788,-0.013009,0,0,0,0,0.172363,0.310064,-1.14692,34.8125,3,51010,5155515
378,-0.803846,0.337801,10.2146,0.363491,-0.617172,1.66147,-0.00805749,0.00337512,0.102145,1,2.15507e-05,-9.62918e-05,-9.3986e-05,0.00431015,-0.0192584,-0.0187972,0,0,0,0,0.179351,0.31788,-1.15082,34.8125,3,51013,5155815
379,-1.1159,-0.468008,9.82486,-0.481983,-1.59288,1.13926,-0.0111706,-0.00468173,0.0982472,1,2.03622e-05,-5.44628e-05,-0.000105453,0.00407244,-0.0108926,-0.0210905,0,0,0,0,0.177623,0.313416,-1.14586,34.8125,3,51017,5156215
380,-1.12805,-0.127172,9.73959,-0.430664,-0.844129,1.01367,-0.0112803,-0.00127358,0.0973959,1,1.74881e-05,1.76728e-06,-6.816e-05,0.00349761,0.000353455,-0.013632,0,0,0,0,0.181275,0.316419,-1.15187,34.8125,3,51020,5156515
381,-1.07917,-0.190651,9.81795,-0.411256,-0.732982,1.041,-0.0108131,-0.0019201,0.0981768,1,7.99561e-05,-0.000107256,-9.76049e-05,0.0159912,-0.0214511,-0.019521,0,0,0,0,0.183923,0.314294,-1.14335,34.8125,3,51023,5156815
382,-1.12869,0.370859,9.61223,-0.519216,-0.958466,1.01945,-0.0112841,0.00370328,0.0961228,1,4.16158e-05,1.04062e-05,-0.000119133,0.00832316,0.00208123,-0.0238266,0,0,0,0,0.184803,0.314828,-1.14637,34.8125,3,51027,5157215
383,-1.22543,-0.178406,9.31985,-0.513484,-1.03311,0.579824,-0.0122524,-0.00179023,0.0931987,1,5.40979e-05,1.34211e-05,-0.000159704,0.0108196,0.00268423,-0.0319408,0,0,0,0,0.188189,0.321051,-1.14119,34.8125,3,51030,5157515
384,-0.857293,-0.0641994,9.9846,-0.341141,-1.02505,1.25247,-0.00856866,-0.000672665,0.0998461,1,0.000163821,2.21564e-05,-0.000119136,0.0327642,0.00443128,-0.0238272,0,0,0,0,0.188209,0.319109,-1.14174,34.8125,3,51033,5157815
385,-0.732571,0.0257319,9.98818,0.206267,-0.801409,1.45071,-0.00732586,0.000266007,0.0998817,1,-3.49944e-05,-1.07793e-06,-0.000115855,-0.00699887,-0.000215587,-0.0231711,0,0,0,0,0.190551,0.325882,-1.13958,34.8125,3,51037,5158215
386,-1.01775,-0.0819131,9.86826,-0.0960647,-1.03863,1.05723,-0.0101944,-0.000832157,0.0986808,1,7.70423e-05,-8.44475e-05,-0.000106978,0.0154085,-0.0168895,-0.0213955,0,0,0,0,0.19213,0.324325,-1.13508,34.8125,3,51040,5158515
387,-0.54204,-0.0406765,9.77443,-0.09411,-1.12071,0.966879,-0.00542044,-0.000412365,0.0977442,1,3.51185e-05,2.53503e-07,-0.000116746,0.00702369,5.07005e-05,-0.0233492,0,0,0,0,0.191971,0.330224,-1.13747,34.8125,3,51043,5158815
388,-0.396383,0.232371,9.95821,0.508963,-0.815968,1.05784,-0.00396821,0.00229011,0.0995827,1,0.000172914,-2.44146e-05,-0.000105378,0.0345828,-0.00488291,-0.0210756,0,0,0,0,0.195622,0.328543,-1.12692,34.8125,3,51047,5159215
389,-1.11707,-0.230074,9.46471,-0.880401,-1.23083,0.501264,-0.0111803,-0.00227386,0.0946466,1,-0.000131271,-4.80843e-05,-9.05164e-05,-0.0262542,-0.00961685,-0.0181033,0,0,0,0,0.199276,0.335882,-1.12981,34.8125,3,51050,5159515
390,-0.783382,-0.77265,10.0593,0.189348,-1.41031,1.36922,-0.00785677,-0.00771712,0.100592,1,-3.75138e-05,-0.000105063,-0.00011723,-0.00750275,-0.0210125,-0.0234461,0,0,0,0,0.197199,0.332289,-1.11876,34.8125,3,51053,5159815
391,-0.230828,0.159759,10.0812,0.101367,-1.0521,1.29319,-0.00230665,0.00159373,0.100812,1,2.10768e-05,6.7612e-06,-8.52246e-05,0.00421537,0.00135224,-0.0170449,0,0,0,0,0.200395,0.336723,-1.12272,34.8125,3,51057,5160215
392,-1.23192,0.179515,9.75215,-0.0696462,-0.728063,1.32446,-0.0123209,0.00176232,0.0975219,1,0.000186295,-1.12366e-05,-0.000142389,0.037259,-0.00224731,-0.0284778,0,0,0,0,0.2024,0.342913,-1.11502,34.8125,3,51060,5160515
393,-0.292937,0.388371,10.1371,0.207077,-1.03314,1.27515,-0.00291955,0.00388532,0.101372,1,-5.8597e-06,4.5694e-05,-7.1997e-05,-0.00117194,0.0091388,-0.0143994,0,0,0,0,0.201453,0.3405,-1.11608,34.8125,3,51063,5160815
394,-1.28493,-0.145889,9.33125,-0.379601,-0.758951,0.818689,-0.0128725,-0.00146463,0.0933092,1,4.51409e-05,-0.000122451,-0.000104702,0.00902819,-0.0244902,-0.0209404,0,0,0,0,0.206707,0.348676,-1.11188,34.8125,3,51067,5161215
395,-0.771674,0.101622,9.41766,-0.0931765,-1.13133,0.663499,-0.00773639,0.00101476,0.094175,1,1.32309e-05,-0.000105024,-6.71074e-05,0.00264618,-0.0210049,-0.0134215,0,0,0,0,0.205554,0.342212,-1.10444,34.8125,3,51070,5161515
396,-1.01097,0.472493,8.93651,-0.645352,-0.317924,0.320182,-0.0101194,0.00472571,0.0893639,1,6.27041e-06,-5.93601e-05,-9.36043e-05,0.00125408,-0.011872,-0.0187209,0,0,0,0,0.207217,0.350578,-1.10931,34.8125,3,51073,5161815
397,-0.51918,-0.35702,10.0491,0.0335614,-1.76172,1.38542,-0.00519169,-0.00358251,0.10049,1,6.69691e-05,4.50526e-06,-0.000111088,0.0133938,0.000901052,-0.0222176,0,0,0,0,0.209412,0.347473,-1.1003,34.8125,3,51077,5162215
398,-0.414606,-0.36224,10.5838,0.512499,-1.20722,1.85143,-0.00413968,-0.00363061,0.105838,1,4.33064e-05,3.41e-05,-0.00011549,0.00866129,0.00682001,-0.023098,0,0,0,0,0.210268,0.348025,-1.10433,34.8125,3,51080,5162515
399,-0.336106,0.331365,10.3132,0.223081,-0.648457,1.40176,-0.00339723,0.0033094,0.103131,1,2.37041e-05,-0.000178396,-9.39929e-05,0.00474082,-0.0356792,-0.0187986,0,0,0,0,0.211879,0.345963,-1.09883,34.8125,3,51083,5162815
400,-0.876512,-0.559812,9.18421,-0.108101,-1.47538,0.586797,-0.00876894,-0.00558863,0.0918423,1,-3.89337e-05,-1.26928e-05,-0.000133585,-0.00778675,-0.00253857,-0.0267169,0,0,0,0,0.212352,0.346446,-1.09882,34.8125,3,51087,5163215
401,-0.498512,-0.327633,10.0439,0.212827,-1.23258,1.21172,-0.00496446,-0.00327351,0.10044,1,-6.80627e-06,0.000107589,-0.000146407,-0.00136125,0.0215177,-0.0292814,0,0,0,0,0.213903,0.34732,-1.09376,34.8125,3,51090,5163515
402,-1.12671,-0.195486,9.29382,-0.384524,-1.04044,0.741314,-0.0112569,-0.00195744,0.0929394,1,2.91524e-05,5.72181e-05,-0.000125917,0.00583047,0.0114436,-0.0251833,0,0,0,0,0.213389,0.346384,-1.0958,34.8125,3,51093,5163815
403,-0.812163,0.154043,9.60516,-0.664632,-1.00208,0.3995,-0.00814787,0.00153739,0.0960495,1,2.3734e-05,-0.000138085,-9.38404e-05,0.0047468,-0.0276171,-0.0187681,0,0,0,0,0.214841,0.348775,-1.09373,34.8125,3,51097,5164215
404,-0.865486,0.29832,9.38381,-0.413719,-0.377537,0.632153,-0.00867207,0.00297315,0.0938369,1,6.51769e-05,-9.57013e-05,-0.000125755,0.0130354,-0.0191403,-0.025151,0,0,0,0,0.215994,0.340918,-1.09139,34.8125,3,51100,5164515
405,-0.550459,0.747007,9.99285,0.123455,-0.567696,0.948982,-0.00552769,0.00746323,0.0999277,1,3.90592e-05,-0.000122162,-8.81299e-05,0.00781183,-0.0244323,-0.017626,0,0,0,0,0.216823,0.348235,-1.09173,34.8125,3,51103,5164815
406,-0.80077,-0.41027,10.1149,-0.128578,-1.0503,1.43866,-0.00799638,-0.00409032,0.10115,1,-5.11854e-05,6.10948e-05,-0.000126934,-0.0102371,0.012219,-0.0253867,0,0,0,0,0.212812,0.342256,-1.08276,34.8125,3,51107,5165215
407,-0.71855,0.224365,10.0875,0.323668,-0.956779,1.40833,-0.00718217,0.00222118,0.100876,1,0.000120335,1.37259e-05,-0.000126302,0.0240671,0.00274518,-0.0252604,0,0,0,0,0.215432,0.344354,-1.09232,34.8125,3,51110,5165515
408,-0.822827,-0.108511,9.56802,-0.20969,-1.14928,0.957978,-0.00821358,-0.00109638,0.0956813,1,7.19235e-05,7.84959e-05,-0.000151664,0.0143847,0.0156992,-0.0303328,0,0,0,0,0.214785,0.342204,-1.08075,34.8125,3,51113,5165815
409,-0.905233,-0.00768255,9.26793,-0.324515,-1.29988,0.515647,-0.0090489,-9.36557e-05,0.0926796,1,0.000106575,1.86752e-05,-0.000161561,0.021315,0.00373504,-0.0323122,0,0,0,0,0.212302,0.341799,-1.08428,34.8125,3,51117,5166215
410,-1.20749,-0.235711,9.421,-0.521137,-1.14298,0.575401,-0.0120778,-0.00236594,0.0942094,1,6.36614e-05,-1.16134e-05,-0.000131039,0.0127323,-0.00232268,-0.0262078,0,0,0,0,0.217139,0.346077,-1.08017,34.8125,3,51120,5166515
411,-0.862424,0.173559,9.57075,-0.447554,-0.694148,0.707818,-0.00862226,0.0017385,0.0957076,1,-3.84942e-06,8.03603e-06,-0.000125929,-0.000769884,0.00160721,-0.0251859,0,0,0,0,0.214268,0.34368,-1.08122,34.8125,3,51123,5166815
412,-0.615655,-0.0471689,10.2551,0.309094,-0.950093,1.45263,-0.00616922,-0.000484395,0.10255,1,6.99489e-05,-6.11417e-05,-0.000133094,0.0139898,-0.0122283,-0.0266187,0,0,0,0,0.214257,0.348025,-1.07859,34.8125,3,51127,5167215
413,-0.347196,0.274862,10.2455,0.157516,-0.69655,1.54519,-0.00345157,0.00275696,0.102456,1,-3.57394e-05,9.56164e-05,-0.000146032,-0.00714787,0.0191233,-0.0292063,0,0,0,0,0.214045,0.342049,-1.07165,34.8125,3,51130,5167515
414,-0.947148,-0.426829,9.71316,0.243802,-1.28378,1.12057,-0.00946878,-0.00428108,0.0971313,1,8.07546e-05,2.0627e-05,-0.000152954,0.0161509,0.0041254,-0.0305908,0,0,0,0,0.212012,0.350818,-1.06993,34.8125,3,51133,5167815
415,-0.941559,-0.691006,9.48781,-0.447456,-1.83468,0.624979,-0.00940915,-0.00692313,0.0948778,1,8.36931e-05,4.4854e-05,-0.000149571,0.0167386,0.00897081,-0.0299142,0,0,0,0,0.211132,0.350284,-1.06691,34.8125,3,51137,5168215
416,-1.25887,0.310936,9.27519,-0.220168,-0.486604,0.71877,-0.0125989,0.00308237,0.0927515,1,0.000165712,-6.01065e-05,-0.000148954,0.0331424,-0.0120213,-0.0297908,0,0,0,0,0.211503,0.353252,-1.06937,34.8125,3,51140,5168515
417,-0.768399,-0.0627833,9.3053,-0.47489,-1.4222,0.402321,-0.00768785,-0.000633466,0.0930527,1,3.97185e-05,-1.99795e-05,-0.000114422,0.00794369,-0.0039959,-0.0228845,0,0,0,0,0.209879,0.352085,-1.05778,34.8125,3,51143,5168815
418,-1.61291,0.345913,9.08885,-0.717613,-0.442803,0.44921,-0.0161344,0.00344156,0.0908882,1,0.000123744,-3.50978e-05,-0.000152522,0.0247488,-0.00701955,-0.0305045,0,0,0,0,0.211142,0.354132,-1.0638,34.8125,3,51147,5169215
419,-0.832614,0.0746749,9.41209,-0.410615,-1.05279,0.578352,-0.0083195,0.000747457,0.0941215,1,4.70517e-06,3.4495e-05,-9.56972e-05,0.000941034,0.00689899,-0.0191394,0,0,0,0,0.208934,0.356899,-1.05362,34.8125,3,51150,5169515
420,-0.722713,0.377811,9.91287,0.0690557,-0.437243,1.24511,-0.00725676,0.00375298,0.0991275,1,0.000135769,-0.000154142,-0.000123052,0.0271539,-0.0308284,-0.0246103,0,0,0,0,0.20831,0.358935,-1.05812,34.8125,3,51153,5169815
421,-0.406834,-0.525112,10.2487,0.21997,-1.86311,1.26973,-0.00408502,-0.00524416,0.102486,1,-2.81724e-05,-7.39082e-05,-0.000146126,-0.00563448,-0.0147816,-0.0292253,0,0,0,0,0.208292,0.366658,-1.0534,34.8125,3,51157,5170215
422,-0.49521,-1.22932,10.0987,0.118327,-2.10195,1.1657,-0.00495757,-0.0123215,0.100983,1,0.000146672,-1.03213e-05,-0.000137335,0.0293345,-0.00206427,-0.027467,0,0,0,0,0.208097,0.362598,-1.0444,34.8125,3,51160,5170515
423,-0.716943,0.577605,10.2037,0.141827,-0.572537,1.65706,-0.00714572,0.00577316,0.102038,1,2.08856e-05,0.000110783,-9.58933e-05,0.00417713,0.0221565,-0.0191787,0,0,0,0,0.209308,0.368538,-1.04983,34.8125,3,51163,5170815
424,-0.281169,-0.46054,10.1706,0.336922,-1.19597,1.18901,-0.00283061,-0.00460094,0.101706,1,-1.87666e-05,-8.78435e-05,-0.000113598,-0.00375331,-0.0175687,-0.0227196,0,0,0,0,0.209147,0.365417,-1.03879,34.8125,3,51167,5171215
425,-0.626987,0.87236,9.87643,-0.270908,-0.109649,1.13248,-0.00627346,0.00872416,0.098764,1,3.76145e-06,-2.73412e-05,-0.000103809,0.000752291,-0.00546824,-0.0207617,0,0,0,0,0.209942,0.37035,-1.04222,34.8125,3,51170,5171515
426,-1.00015,-0.0656351,9.24391,0.00523729,-0.996183,0.464333,-0.00999424,-0.000669331,0.0924398,1,8.7206e-05,4.06149e-05,-0.00015712,0.0174412,0.00812299,-0.031424,0,0,0,0,0.208239,0.368758,-1.03416,34.8125,3,51173,5171815
427,-0.650611,-0.338982,9.89022,-0.336662,-1.34334,0.918593,-0.00648795,-0.00339791,0.0989031,1,4.77225e-05,9.53954e-05,-0.000103966,0.00954451,0.0190791,-0.0207933,0,0,0,0,0.209059,0.372228,-1.03763,34.8125,3,51177,5172215
428,-1.04413,-0.195927,9.77462,-0.205632,-1.17355,1.00646,-0.010469,-0.00198172,0.0977428,1,0.000127977,-0.000139188,-0.000122519,0.0255955,-0.0278376,-0.0245038,0,0,0,0,0.209224,0.374035,-1.02951,34.8125,3,51180,5172515
429,-0.884958,0.36927,9.59487,-0.498515,-0.659801,0.561355,-0.00886113,0.00368818,0.0959479,1,3.2876e-05,-6.40532e-05,-0.000100673,0.00657521,-0.0128106,-0.0201346,0,0,0,0,0.209667,0.371167,-1.03311,34.8125,3,51183,5172815
430,-1.18675,-0.0220237,9.86635,-0.0201721,-1.02326,1.2757,-0.0118601,-0.00023902,0.0986643,1,0.000105819,3.78222e-05,-8.84281e-05,0.0211638,0.00756445,-0.0176856,0,0,0,0,0.2126,0.374964,-1.02849,34.8125,3,51187,5173215
431,-0.633954,1.14742,9.73297,-0.357605,-0.0614826,0.960647,-0.00631637,0.0114969,0.0973285,1,-0.0001124,0.000111533,-6.32792e-05,-0.0224801,0.0223066,-0.0126558,0,0,0,0,0.211316,0.370523,-1.02505,34.8125,3,51190,5173515
432,-0.893578,0.567875,9.97484,0.186384,-0.152616,1.54286,-0.00891955,0.00566942,0.0997504,1,5.75011e-05,7.45549e-05,-0.000119842,0.0115002,0.014911,-0.0239684,0,0,0,0,0.212592,0.375452,-1.02848,34.8125,3,51193,5173815
433,-0.329679,-0.535564,9.71726,0.0416775,-1.76746,0.936567,-0.00327279,-0.00533479,0.0971746,1,-0.000103577,0.000129576,-0.000110371,-0.0207153,0.0259153,-0.0220741,0,0,0,0,0.211414,0.370451,-1.02101,34.8125,3,51197,5174215
434,-1.03103,-0.0499357,9.31262,-0.39291,-0.651846,0.431459,-0.0103201,-0.000516432,0.093125,1,0.000109226,-5.17079e-05,-0.000158429,0.0218452,-0.0103416,-0.0316858,0,0,0,0,0.21315,0.371537,-1.02806,34.8125,3,51200,5174515
435,-1.36505,0.167204,9.34709,-0.740083,-1.02164,0.485529,-0.0136325,0.00167532,0.0934734,1,-8.54456e-07,9.42734e-05,-0.000114633,-0.000170891,0.0188547,-0.0229267,0,0,0,0,0.211072,0.367944,-1.01702,34.8125,3,51203,5174815
436,0.0755104,-0.0437961,10.933,0.80432,-1.16252,1.88283,0.000763421,-0.00045283,0.109329,1,6.72659e-05,3.84673e-05,-0.00010611,0.0134532,0.00769346,-0.021222,0,0,0,0,0.210521,0.368481,-1.01953,34.8125,3,51207,5175215
437,-0.558988,0.14148,10.3256,0.224261,-1.30843,1.57935,-0.00558106,0.00141853,0.103257,1,-1.17188e-05,4.10954e-05,-0.000117475,-0.00234376,0.00821909,-0.023495,0,0,0,0,0.210527,0.37185,-1.01693,34.8125,3,51210,5175515
438,-0.688394,-0.533465,9.85261,-0.308774,-1.49299,0.776452,-0.00689377,-0.00534607,0.0985248,1,6.67183e-05,-4.30777e-05,-0.000125185,0.0133437,-0.00861554,-0.0250371,0,0,0,0,0.207708,0.367005,-1.01753,34.8125,3,51213,5175815
439,-1.13102,0.236251,9.43502,-0.0534808,-0.692062,0.981847,-0.0112977,0.00234676,0.0943521,1,9.47272e-05,6.41754e-05,-9.38627e-05,0.0189454,0.0128351,-0.0187725,0,0,0,0,0.20762,0.373816,-1.01637,34.8125,3,51217,5176215
440,-0.725309,0.414069,9.16379,-0.593941,-0.637826,0.190457,-0.00726251,0.0041298,0.0916377,1,6.56857e-05,-5.49672e-05,-7.9473e-05,0.0131371,-0.0109934,-0.0158946,0,0,0,0,0.20592,0.368368,-1.01093,34.8125,3,51220,5176515
441,-0.665782,0.0448215,9.53843,0.206049,-0.979913,0.893232,-0.0066516,0.000426036,0.0953848,1,0.000121968,3.22106e-05,-8.18065e-05,0.0243935,0.00644212,-0.0163613,0,0,0,0,0.206251,0.373774,-1.01334,34.8125,3,51223,5176815
442,-0.528067,0.597642,9.71525,-0.632296,-0.736976,0.571047,-0.00528146,0.00596828,0.0971529,1,4.57896e-05,-8.44948e-06,-7.1404e-05,0.00915792,-0.0016899,-0.0142808,0,0,0,0,0.20173,0.370228,-1.0038,34.8125,3,51227,5177215
443,-0.637006,-0.132812,9.58417,0.298134,-1.18436,1.05569,-0.00636873,-0.00133669,0.0958416,1,5.16416e-05,8.36554e-06,-0.000103891,0.0103283,0.00167311,-0.0207783,0,0,0,0,0.201506,0.375693,-1.00923,34.8125,3,51230,5177515
444,-0.192713,0.310764,10.368,0.149535,-0.717241,1.31024,-0.00191945,0.00311952,0.10368,1,-5.60604e-05,3.50466e-05,-6.65434e-05,-0.0112121,0.00700931,-0.0133087,0,0,0,0,0.202298,0.371607,-0.999224,34.8125,3,51233,5177815
445,-0.843146,-0.435772,9.23027,0.213471,-1.27858,0.760622,-0.00843151,-0.00436917,0.0923022,1,7.00824e-05,3.88665e-06,-8.81265e-05,0.0140165,0.00077733,-0.0176253,0,0,0,0,0.199766,0.375574,-1.00165,34.8125,3,51237,5178215
446,-0.58243,0.0506144,9.69274,0.241404,-1.2592,0.865175,-0.00584288,0.000504791,0.0969263,1,1.24974e-05,-9.62913e-05,-9.16701e-05,0.00249949,-0.0192583,-0.018334,0,0,0,0,0.19647,0.379405,-0.995994,34.8125,3,51240,5178515
447,-0.232375,0.0673641,9.66473,0.218947,-1.2719,0.83954,-0.00230708,0.000674173,0.0966477,1,-1.39564e-06,8.5852e-05,-5.6772e-05,-0.000279128,0.0171704,-0.0113544,0,0,0,0,0.195047,0.380365,-0.994451,34.8125,3,51243,5178815
448,-0.81207,0.0740513,9.6439,-0.184058,-1.05209,0.842284,-0.00814086,0.000723632,0.0964374,1,9.72377e-05,-0.000105419,-0.000115227,0.0194475,-0.0210838,-0.0230455,0,0,0,0,0.194963,0.38621,-0.993815,34.8125,3,51247,5179215
449,-1.08308,0.453912,9.54656,-0.412221,-0.937761,0.597232,-0.0108346,0.00454097,0.0954651,1,-2.14873e-06,-2.28114e-05,-6.6584e-05,-0.000429747,-0.00456227,-0.0133168,0,0,0,0,0.190385,0.383188,-0.986286,34.8125,3,51250,5179515
450,-1.19295,-0.929371,9.0203,-0.848795,-1.54934,0.261231,-0.0119387,-0.00932001,0.090199,1,0.000167342,-3.43265e-05,-0.000162901,0.0334683,-0.00686531,-0.0325801,0,0,0,0,0.191671,0.391965,-0.986601,34.8125,3,51253,5179815
451,-0.531948,0.341947,9.97607,-0.194305,-1.28809,1.1253,-0.00532695,0.00338784,0.0997614,1,0.00016448,-4.11963e-05,-0.000111111,0.0328959,-0.00823925,-0.0222223,0,0,0,0,0.187118,0.388925,-0.978062,34.8125,3,51257,5180215
452,-0.57872,-0.551193,10.3406,0.115858,-1.49966,1.48936,-0.00576797,-0.00548218,0.103409,1,-0.000140374,9.62742e-05,-6.17372e-05,-0.0280748,0.0192549,-0.0123474,0,0,0,0,0.188369,0.393872,-0.982503,34.8125,3,51260,5180515
453,-0.718027,0.0466711,9.6189,-0.376138,-1.06732,0.657882,-0.00717959,0.000461645,0.0961891,1,3.09921e-05,3.23295e-06,-6.23903e-05,0.00619842,0.00064659,-0.0124781,0,0,0,0,0.18712,0.396151,-0.972851,34.8125,3,51263,5180815
454,-0.55431,0.162749,9.90842,0.135538,-0.974945,1.09305,-0.00554441,0.0016239,0.0990842,1,2.24014e-05,-7.90288e-06,-7.64872e-05,0.00448027,-0.00158058,-0.0152974,0,0,0,0,0.182293,0.398612,-0.971764,34.8125,3,51267,5181215
455,-0.957137,-0.115567,9.68662,-0.383181,-1.29081,0.720867,-0.00956527,-0.00118037,0.0968665,1,0.000133466,3.22239e-05,-6.08095e-05,0.0266933,0.00644477,-0.0121619,0,0,0,0,0.185662,0.40292,-0.968653,34.8125,3,51270,5181515
456,-0.783918,0.171691,9.90049,0.00849279,-0.96892,1.18002,-0.00781817,0.00170764,0.0990067,1,4.74711e-05,0.000105955,-8.74212e-06,0.00949422,0.021191,-0.00174843,0,0,0,0,0.1828,0.402926,-0.96763,34.8125,3,51273,5181815
457,-0.893318,0.0893972,9.32739,-0.446099,-0.998037,0.458964,-0.00892554,0.000898022,0.0932746,1,-1.9885e-05,4.07957e-05,-1.90378e-05,-0.003977,0.00815915,-0.00380756,0,0,0,0,0.181338,0.40777,-0.96499,34.8125,3,51277,5182215
458,-0.784423,0.151051,9.70419,-0.141644,-0.845582,0.873431,-0.00782898,0.00148004,0.0970436,1,0.000155085,7.8941e-05,2.38217e-05,0.031017,0.0157882,0.00476434,0,0,0,0,0.182027,0.403277,-0.959537,34.8125,3,51280,5182515
459,-1.07652,0.166034,9.51956,-0.416982,-0.849979,0.566943,-0.0107762,0.00166107,0.0951944,1,-4.54836e-06,-5.78332e-05,6.27458e-06,-0.000909672,-0.0115666,0.00125492,0,0,0,0,0.181918,0.409139,-0.959911,34.8125,3,51283,5182815
460,-0.544601,-0.751299,10.2255,-0.115154,-1.85203,1.2882,-0.00545109,-0.00749681,0.102256,1,-7.85336e-05,-2.40295e-05,-1.09836e-05,-0.0157067,-0.0048059,-0.00219672,0,0,0,0,0.183073,0.405618,-0.954439,34.8125,3,51287,5183215
461,-0.876729,0.225894,9.89218,0.144178,-0.714837,1.18212,-0.00876467,0.00225805,0.098922,1,4.9466e-06,1.31729e-05,-4.61394e-06,0.000989321,0.00263458,-0.000922789,0,0,0,0,0.18191,0.408182,-0.960943,34.8125,3,51290,5183515
462,-0.00399186,-0.219252,10.6056,0.560388,-1.94296,1.70289,-1.43094e-05,-0.00222114,0.106055,1,0.000134953,0.000120958,-1.07139e-05,0.0269907,0.0241916,-0.00214277,0,0,0,0,0.177858,0.404641,-0.951912,34.8125,3,51293,5183815
463,-1.15442,-0.150931,9.45569,-0.117351,-0.943297,0.776468,-0.0115389,-0.0015236,0.0945573,1,7.76703e-05,2.82347e-05,-1.75241e-05,0.0155341,0.00564694,-0.00350482,0,0,0,0,0.179179,0.406165,-0.955924,34.8125,3,51297,5184215
464,-1.1513,0.197852,8.85448,-0.749102,-0.94793,-0.125052,-0.0115272,0.00197034,0.0885431,1,4.85118e-05,-8.06779e-05,-1.77577e-05,0.00970236,-0.0161356,-0.00355154,0,0,0,0,0.176827,0.406627,-0.953378,34.8125,3,51300,5184515
465,-1.73527,-0.170405,8.78264,-1.18243,-1.09295,0.0120296,-0.017342,-0.00171171,0.0878284,1,3.97772e-05,6.06981e-05,1.93685e-05,0.00795543,0.0121396,0.0038737,0,0,0,0,0.176842,0.404207,-0.954442,34.8125,3,51303,5184815
466,-0.322432,0.325439,10.6068,0.278108,-1.1377,1.37746,-0.00325427,0.00322616,0.106068,1,0.000132199,-0.000140374,2.74115e-05,0.0264397,-0.0280748,0.0054823,0,0,0,0,0.175807,0.408605,-0.95434,34.8125,3,51307,5185215
467,-0.940305,0.167331,9.5119,-0.756155,-0.842773,0.408604,-0.00942206,0.0016652,0.0951173,1,3.76281e-05,-9.90564e-05,5.05269e-05,0.00752561,-0.0198113,0.0101054,0,0,0,0,0.170287,0.402203,-0.948396,34.8125,3,51310,5185515
468,-0.728814,0.216851,10.1312,0.159812,-0.577257,1.11042,-0.00731321,0.00217827,0.10131,1,-5.28369e-05,-0.000122315,6.45618e-05,-0.0105674,-0.024463,0.0129124,0,0,0,0,0.170095,0.407162,-0.95283,34.8125,3,51313,5185815
469,-0.588364,-0.473519,9.9984,-0.218819,-2.03326,1.19476,-0.00587513,-0.00474398,0.0999841,1,3.93492e-05,3.88419e-05,7.82385e-05,0.00786985,0.00776837,0.0156477,0,0,0,0,0.168861,0.40413,-0.946326,34.8125,3,51317,5186215
470,-0.888457,-0.643006,9.69392,0.0080514,-1.47834,1.09857,-0.00888884,-0.00644608,0.0969377,1,7.35803e-05,-2.85788e-05,9.91322e-05,0.0147161,-0.00571576,0.0198264,0,0,0,0,0.167224,0.404765,-0.95388,34.8125,3,51320,5186515
471,-0.749844,0.130371,9.63576,-0.297336,-1.44176,0.758492,-0.00749993,0.00128656,0.0963577,1,7.59781e-05,-5.48802e-06,0.00016671,0.0151956,-0.0010976,0.033342,0,0,0,0,0.165965,0.403197,-0.947343,34.8125,3,51323,5186815
472,-1.02709,-0.0196355,9.20966,-0.458622,-1.02832,0.475626,-0.0102838,-0.000224507,0.0920951,1,0.000136026,-7.05643e-05,0.00015067,0.0272053,-0.0141129,0.0301341,0,0,0,0,0.16245,0.404778,-0.952343,34.8125,3,51327,5187215
473,-0.581676,0.277592,9.67778,-0.175409,-0.982526,0.800031,-0.00583829,0.00276008,0.0967769,1,7.0895e-05,-0.000105988,0.000182232,0.014179,-0.0211976,0.0364464,0,0,0,0,0.161578,0.403757,-0.949331,34.8125,3,51330,5187515
474,-0.939954,0.122653,9.22174,-0.431454,-0.903398,0.358618,-0.00938556,0.00121427,0.092219,1,4.49669e-05,7.86081e-05,0.000211392,0.00899339,0.0157216,0.0422783,0,0,0,0,0.160628,0.40231,-0.949864,34.8125,3,51333,5187815
475,-0.458346,-0.146828,10.1737,0.0818077,-1.22792,1.23413,-0.00458019,-0.00149,0.101737,1,9.62769e-05,1.26468e-05,0.000233357,0.0192554,0.00252936,0.0466714,0,0,0,0,0.160066,0.407192,-0.949753,34.8125,3,51337,5188215
476,-0.828953,0.3668,9.81936,-0.192243,-0.897967,1.1407,-0.00828581,0.0036519,0.0981945,1,6.63132e-05,2.58233e-05,0.000185256,0.0132626,0.00516467,0.0370513,0,0,0,0,0.155912,0.40469,-0.944233,34.8125,3,51340,5188515
477,-0.518976,-0.155618,10.2168,0.0869492,-1.25438,1.20374,-0.00518108,-0.00155052,0.102169,1,-3.43642e-05,4.0481e-05,0.00013225,-0.00687284,0.0080962,0.0264499,0,0,0,0,0.157702,0.409109,-0.946669,34.8125,3,51343,5188815
478,-1.46616,-0.091295,8.79987,-0.719194,-0.968898,-0.0851145,-0.0146644,-0.000928777,0.0879981,1,6.57229e-05,-1.7291e-05,0.000145255,0.0131446,-0.0034582,0.029051,0,0,0,0,0.153964,0.40906,-0.942107,34.8125,3,51347,5189215
479,-0.837739,0.0849471,9.52715,-0.497741,-1.22099,0.537012,-0.0083614,0.000848524,0.0952729,1,-1.05902e-05,8.5496e-05,0.000177087,-0.00211803,0.0170992,0.0354174,0,0,0,0,0.153829,0.41205,-0.945575,34.8125,3,51350,5189515
480,-1.49586,-0.194316,9.07776,-0.969341,-0.948495,0.321933,-0.0149647,-0.00195937,0.0907763,1,6.23774e-05,-3.7419e-05,0.000163305,0.0124755,-0.00748379,0.0326609,0,0,0,0,0.154434,0.411956,-0.94053,34.8125,3,51353,5189815
481,-0.111334,0.0200515,10.6822,0.193697,-1.58214,1.52751,-0.00113094,0.000200341,0.106822,1,-8.88511e-07,-8.20972e-05,0.000162355,-0.000177702,-0.0164194,0.032471,0,0,0,0,0.152452,0.412495,-0.942529,34.8125,3,51357,5190215
482,-0.790463,-0.37779,9.75162,-0.161409,-1.41537,0.953821,-0.00789755,-0.00379788,0.097516,1,8.90275e-05,2.98831e-05,0.000165486,0.0178055,0.00597663,0.0330972,0,0,0,0,0.153889,0.420197,-0.937314,34.8125,3,51360,5190515
483,-0.729141,0.533034,9.9106,-0.0156349,-0.678201,0.669364,-0.00731292,0.00531149,0.0991055,1,8.3916e-05,-0.000100361,0.000151709,0.0167832,-0.0200721,0.0303418,0,0,0,0,0.15395,0.417262,-0.936874,34.8125,3,51363,5190815
484,-1.5751,-0.15854,9.23806,-0.827381,-0.843874,0.609718,-0.0157219,-0.0015854,0.0923856,1,-2.75985e-05,0.000154693,0.000161924,-0.00551971,0.0309387,0.0323848,0,0,0,0,0.150922,0.423654,-0.938233,34.8125,3,51367,5191215
485,-0.387939,0.20961,9.72497,0.175387,-0.934216,0.616934,-0.0038965,0.00210135,0.0972489,1,-3.23407e-05,-8.5052e-05,0.000134009,-0.00646814,-0.0170104,0.0268017,0,0,0,0,0.153561,0.422017,-0.929696,34.8125,3,51370,5191515
486,-0.914043,-0.18447,9.83597,-0.413028,-1.39221,0.866633,-0.00912475,-0.00183261,0.0983614,1,-7.44061e-05,7.70839e-05,0.000138959,-0.0148812,0.0154168,0.0277919,0,0,0,0,0.152949,0.42549,-0.932646,34.8125,3,51373,5191815
487,-0.984954,-0.473777,9.465,-0.20442,-1.58774,0.484878,-0.00985507,-0.00476282,0.0946482,1,0.000118633,-3.58563e-05,0.000131852,0.0237267,-0.00717126,0.0263705,0,0,0,0,0.15309,0.427315,-0.925535,34.8125,3,51377,5192215
488,-0.533499,0.127577,9.73915,-0.36164,-1.38337,0.739946,-0.00532591,0.00125977,0.0973922,1,7.32758e-05,4.86859e-05,0.000162136,0.0146552,0.00973718,0.0324273,0,0,0,0,0.155784,0.430804,-0.931026,34.8125,3,51380,5192515
489,-1.25556,-0.462479,9.97566,-0.620704,-1.28248,0.90427,-0.0125572,-0.0046043,0.0997573,1,-0.000120704,-1.46845e-05,0.000143078,-0.0241408,-0.0029369,0.0286157,0,0,0,0,0.153658,0.430138,-0.91992,34.8125,3,51383,5192815
490,-0.831162,0.0119388,9.59122,-0.345624,-1.21794,0.543916,-0.0083262,0.000122869,0.095911,1,-3.10584e-05,-7.58424e-05,0.000148814,-0.00621169,-0.0151685,0.0297628,0,0,0,0,0.154008,0.430712,-0.924959,34.8125,3,51387,5193215
491,-0.302644,-0.356412,10.3175,0.229045,-1.86282,1.30505,-0.00302528,-0.0035762,0.103175,1,5.5178e-05,1.65637e-06,0.000115163,0.0110356,0.000331274,0.0230326,0,0,0,0,0.157377,0.433575,-0.922891,34.8125,3,51390,5193515
492,-0.90698,-0.0647975,10.2508,-0.34335,-1.12559,1.38312,-0.00907019,-0.000670534,0.102508,1,9.79427e-05,-2.77144e-06,0.00013666,0.0195885,-0.000554287,0.0273321,0,0,0,0,0.155998,0.43113,-0.921929,34.8125,3,51393,5193815
493,-0.904462,0.221978,9.42597,-0.279499,-1.10941,0.5452,-0.00905654,0.00222192,0.0942585,1,-2.75657e-05,-5.92183e-05,0.000169166,-0.00551314,-0.0118437,0.0338332,0,0,0,0,0.158339,0.435012,-0.921853,34.8125,3,51397,5194215
494,-0.76213,0.295775,9.28421,-0.309933,-0.583945,0.483006,-0.00761385,0.00296387,0.0928425,1,-4.7473e-05,4.57574e-05,0.000177098,-0.00949459,0.00915148,0.0354196,0,0,0,0,0.159497,0.429079,-0.91795,34.8125,3,51400,5194515
495,-1.06852,0.0217832,9.16625,-0.421954,-0.949379,0.268182,-0.0106933,0.000213529,0.0916615,1,2.21358e-06,-4.39617e-05,0.000182272,0.000442716,-0.00879234,0.0364544,0,0,0,0,0.158332,0.436945,-0.9208,34.8125,3,51403,5194815
496,-0.388698,-0.666386,10.315,-0.370344,-1.99728,1.0854,-0.003909,-0.00667399,0.103149,1,4.16728e-05,-0.000119431,0.000196444,0.00833455,-0.0238862,0.0392888,0,0,0,0,0.16002,0.430972,-0.91488,34.8125,3,51407,5195215
497,-1.53848,-0.144718,8.9725,-1.06515,-0.948199,0.169635,-0.0154017,-0.00149961,0.0897212,1,0.000262469,-9.70068e-05,0.000173171,0.0524938,-0.0194014,0.0346341,0,0,0,0,0.15895,0.428649,-0.920987,34.8125,3,51410,5195515
498,-0.167897,-0.557325,10.2825,0.383046,-2.29435,1.2036,-0.00168729,-0.00561841,0.102822,1,0.000216799,-4.98595e-05,0.000172321,0.0433599,-0.00997189,0.0344643,0,0,0,0,0.159151,0.427538,-0.913437,34.8125,3,51413,5195815
499,-0.493577,-0.0141743,9.59122,-0.275279,-1.22772,0.695084,-0.00493235,-0.000164559,0.0959123,1,0.000109041,1.75213e-05,0.000192454,0.0218081,0.00350427,0.0384908,0,0,0,0,0.158571,0.426169,-0.918515,34.8125,3,51417,5196215
500,-1.04658,0.59532,10.0158,-0.0983818,-0.643573,1.18444,-0.0104733,0.00593193,0.100158,1,8.67155e-05,-2.63839e-05,0.000186731,0.0173431,-0.00527678,0.0373463,0,0,0,0,0.159649,0.428004,-0.912419,34.8125,3,51420,5196515
501,-0.564578,0.236944,9.73666,-0.608066,-1.35041,0.835472,-0.00564551,0.00235499,0.097367,1,6.41525e-05,5.61107e-06,0.000173402,0.0128305,0.00112221,0.0346804,0,0,0,0,0.15716,0.425675,-0.91751,34.8125,3,51423,5196815
502,-0.785845,-0.283447,9.53602,-0.0889451,-1.19571,0.797904,-0.00784325,-0.00286,0.0953607,1,0.000120761,7.49745e-05,0.000159015,0.0241522,0.0149949,0.031803,0,0,0,0,0.159509,0.427624,-0.918487,34.8125,3,51427,5197215
503,-0.400851,0.114956,9.94706,-0.148663,-1.17547,0.799064,-0.00400055,0.00114004,0.0994711,1,4.1895e-05,4.16921e-05,0.000148365,0.008379,0.00833841,0.029673,0,0,0,0,0.155967,0.42165,-0.910018,34.8125,3,51430,5197515
504,-1.19935,-0.779508,9.41411,-0.805033,-1.65504,0.428694,-0.011989,-0.0077956,0.0941416,1,-2.06198e-05,8.64245e-06,0.000183506,-0.00412397,0.00172849,0.0367013,0,0,0,0,0.158115,0.4276,-0.916461,34.8125,3,51433,5197815
505,-0.304017,0.0536872,10.5201,0.137278,-1.43065,1.51292,-0.00304642,0.00051292,0.105201,1,0.000108781,-2.88427e-05,0.000174932,0.0217562,-0.00576853,0.0349863,0,0,0,0,0.155963,0.422616,-0.909491,34.8125,3,51437,5198215
506,-0.942232,0.0957133,9.68158,-0.511523,-1.1349,0.750274,-0.00943759,0.000943587,0.0968145,1,5.54549e-05,-7.74248e-05,0.000148881,0.011091,-0.015485,0.0297762,0,0,0,0,0.15392,0.426092,-0.91193,34.8125,3,51440,5198515
507,-0.431728,-0.020545,9.93927,-0.00930738,-1.18957,1.12368,-0.00431979,-0.00023582,0.0993925,1,0.00014623,-1.2967e-05,0.000150615,0.0292459,-0.0025934,0.0301229,0,0,0,0,0.153542,0.426502,-0.907373,34.8125,3,51443,5198815
508,-0.70692,0.142439,9.89497,-0.222341,-1.13865,1.13892,-0.00705875,0.00142785,0.0989504,1,-2.81834e-05,5.49664e-05,0.000149598,-0.00563668,0.0109933,0.0299195,0,0,0,0,0.150639,0.426057,-0.90838,34.8125,3,51447,5199215
509,-1.01379,-0.223143,9.3594,-0.622176,-1.16003,0.456096,-0.0101339,-0.00222393,0.0935946,1,-5.53167e-05,1.76189e-05,0.000140863,-0.0110633,0.00352378,0.0281725,0,0,0,0,0.15541,0.431346,-0.906264,34.8125,3,51450,5199515
510,-0.456148,0.271986,9.91786,0.156121,-0.857315,0.973826,-0.00457253,0.00269325,0.0991788,1,0.00012869,-5.25056e-05,0.000118524,0.025738,-0.0105011,0.0237048,0,0,0,0,0.15168,0.429364,-0.902756,34.8125,3,51453,5199815
511,-0.602984,-0.1386,9.99422,-0.50353,-1.59544,0.893439,-0.00602029,-0.00139807,0.0999426,1,5.37865e-05,4.62468e-05,0.000109393,0.0107573,0.00924937,0.0218787,0,0,0,0,0.151599,0.434242,-0.902647,34.8125,3,51457,5200215
512,-1.20198,-0.51154,9.60999,-0.604179,-1.13767,0.741542,-0.0120208,-0.00511674,0.0960997,1,-4.65725e-06,-1.03023e-05,9.2934e-05,-0.000931451,-0.00206045,0.0185868,0,0,0,0,0.14988,0.43218,-0.895614,34.8125,3,51460,5200515
513,-0.711089,-0.260159,9.6948,-0.499535,-1.81024,0.735601,-0.00710658,-0.00262265,0.0969478,1,0.000100797,1.93569e-05,0.000106243,0.0201593,0.00387138,0.0212487,0,0,0,0,0.149114,0.44203,-0.900442,34.8125,3,51463,5200815
514,-1.2435,0.0295802,9.4489,-0.626216,-0.68493,0.539874,-0.0124478,0.00027295,0.0944874,1,0.000110682,-6.74528e-05,7.78041e-05,0.0221363,-0.0134906,0.0155608,0,0,0,0,0.147037,0.439882,-0.888359,34.8125,3,51467,5201215
515,-0.863474,0.464645,9.7943,-0.432489,-0.949791,0.732933,-0.00865182,0.00462682,0.0979424,1,9.55233e-05,-8.47147e-05,5.27715e-05,0.0191047,-0.0169429,0.0105543,0,0,0,0,0.145853,0.441498,-0.896398,34.8125,3,51470,5201515
516,-1.12395,0.119259,9.55032,-0.886647,-0.878659,0.61022,-0.0112093,0.00121566,0.0955065,1,-0.000129783,0.000159573,7.68565e-05,-0.0259566,0.0319146,0.0153713,0,0,0,0,0.145041,0.447179,-0.886167,34.8125,3,51473,5201815
517,-0.380142,0.0048497,9.72618,-0.0100397,-1.43133,0.720679,-0.00381053,5.33161e-05,0.0972614,1,-2.66714e-05,-4.68053e-05,4.84818e-05,-0.00533428,-0.00936106,0.00969636,0,0,0,0,0.144086,0.446699,-0.886173,34.8125,3,51477,5202215
518,-0.422051,-0.196002,9.91593,-0.377346,-1.63921,0.852484,-0.0042181,-0.00194362,0.0991598,1,-8.55266e-05,1.08959e-05,6.58234e-05,-0.0171053,0.00217918,0.0131647,0,0,0,0,0.146396,0.453978,-0.885012,34.8125,3,51480,5202515
519,-0.808795,-0.530835,9.72289,0.00994121,-1.34885,0.776481,-0.00809216,-0.00533207,0.0972273,1,0.000117303,-2.4719e-05,5.64123e-05,0.0234607,-0.0049438,0.0112825,0,0,0,0,0.143656,0.451003,-0.881025,34.8125,3,51483,5202815
520,-0.902027,0.0427331,9.63255,-0.954857,-1.30805,0.403769,-0.00901154,0.000440246,0.0963263,1,-7.41975e-05,4.56322e-05,7.64823e-05,-0.0148395,0.00912644,0.0152965,0,0,0,0,0.143588,0.455871,-0.880411,34.8125,3,51487,5203215
521,-1.19214,-0.357101,9.19003,-0.760014,-1.26644,0.454146,-0.0119385,-0.00360352,0.0918968,1,0.00016952,-9.49555e-05,5.6662e-05,0.0339041,-0.0189911,0.0113324,0,0,0,0,0.141918,0.453774,-0.871359,34.8125,3,51490,5203515
522,-0.696365,-0.0213516,9.53433,-0.362841,-1.60022,0.415306,-0.00698217,-0.00023586,0.0953419,1,0.00011088,-9.73156e-05,8.60768e-05,0.022176,-0.0194631,0.0172154,0,0,0,0,0.141681,0.459248,-0.877297,34.8125,3,51493,5203815
523,-0.86737,-0.114363,9.88057,-0.362429,-0.986534,0.953673,-0.00867479,-0.00115351,0.0988055,1,4.27963e-05,-6.47601e-06,8.21346e-05,0.00855926,-0.0012952,0.0164269,0,0,0,0,0.14182,0.458182,-0.872271,34.8125,3,51497,5204215
524,-0.46047,0.03833,10.2851,0.0123775,-1.17518,1.19882,-0.00462487,0.000363065,0.10285,1,9.57816e-05,-9.78205e-05,5.76924e-05,0.0191563,-0.0195641,0.0115385,0,0,0,0,0.139875,0.458695,-0.872756,34.8125,3,51500,5204515
522,-0.362315,-0.137955,10.3025,-0.488865,-1.68848,1.13305,-0.00361769,-0.00138084,0.103025,1,3.72081e-06,2.55183e-05,7.18779e-05,0.000744162,0.00510367,0.0143756,0,0,0,0,0.139595,0.457588,-0.865203,34.8125,3,51503,5204815
526,-1.23017,-0.224661,9.65273,-0.408967,-1.22195,0.835653,-0.0123219,-0.00226263,0.0965243,1,7.68517e-05,-0.000105584,4.79983e-05,0.0153703,-0.0211168,0.00959965,0,0,0,0,0.139052,0.454747,-0.869809,34.8125,3,51507,5205215
527,-0.766472,0.15757,9.53081,-0.784338,-1.18234,0.617686,-0.00766287,0.001572,0.0953083,1,1.67418e-05,1.02547e-05,3.29897e-05,0.00334836,0.00205093,0.00659793,0,0,0,0,0.137561,0.462021,-0.86661,34.8125,3,51510,5205515
528,-0.645102,-0.808757,9.82918,-0.371494,-1.69334,0.879428,-0.00643596,-0.00809991,0.0982917,1,6.86369e-05,8.40296e-05,-8.9613e-05,0.0137274,0.0168059,-0.0179226,0,0,0,0,0.133344,0.455228,-0.866742,34.8125,3,51513,5205815
529,-0.385544,0.262271,10.2529,-0.232796,-1.22681,0.945662,-0.00385774,0.00261299,0.102529,1,5.20065e-05,-1.4367e-05,-0.00012309,0.0104013,-0.00287339,-0.024618,0,0,0,0,0.134196,0.458192,-0.869205,34.8125,3,51517,5206215
530,-1.35808,-0.103289,9.32726,-0.978105,-0.93533,0.43727,-0.0135774,-0.00106106,0.0932728,1,0.000167482,1.92461e-05,-0.000113035,0.0334963,0.00384923,-0.0226071,0,0,0,0,0.130605,0.453699,-0.861713,34.8125,3,51520,5206515
531,-1.22178,0.414152,9.53333,-0.494469,-0.700611,0.442336,-0.0122494,0.00410857,0.0953306,1,0.000192537,-0.000172262,-0.000153661,0.0385075,-0.0344524,-0.0307321,0,0,0,0,0.131301,0.457258,-0.870223,34.8125,3,51523,5206815
532,-0.703191,-0.109775,9.9948,-0.374656,-1.16285,0.916836,-0.00704041,-0.00110439,0.0999473,1,4.30388e-05,-4.10108e-05,-0.000139756,0.00860776,-0.00820216,-0.0279512,0,0,0,0,0.124277,0.45525,-0.863669,34.8125,3,51527,5207215
533,-0.53512,-0.113563,9.61744,-0.217239,-1.26688,0.653117,-0.0053551,-0.00113432,0.0961742,1,3.6053e-06,-1.80492e-05,-0.000186535,0.00072106,-0.00360984,-0.037307,0,0,0,0,0.12139,0.453829,-0.864697,34.8125,3,51530,5207515
534,-0.891436,-0.291478,9.56446,-0.640452,-1.61494,0.454048,-0.00890255,-0.00294,0.095645,1,0.000151106,6.80514e-05,-0.000207107,0.0302211,0.0136103,-0.0414214,0,0,0,0,0.119074,0.452819,-0.861679,34.8125,3,51533,5207815
535,-0.725382,0.651663,9.69522,-0.539347,-0.551433,0.691504,-0.00724936,0.00648146,0.0969549,1,0.000198724,7.48834e-06,-0.000231631,0.0397447,0.00149767,-0.0463261,0,0,0,0,0.113301,0.451422,-0.862693,34.8125,3,51537,5208215
536,-0.630583,-0.213479,9.89801,-0.187713,-1.57072,0.923055,-0.00632039,-0.00216689,0.0989784,1,0.000180639,-6.72476e-05,-0.000289473,0.0361278,-0.0134495,-0.0578945,0,0,0,0,0.112273,0.453887,-0.863644,34.8125,3,51540,5208515
537,-0.337959,0.588334,10.3122,0.0033207,-0.997604,1.18748,-0.00336651,0.00585249,0.103124,1,0.000158848,4.7287e-05,-0.00028364,0.0317697,0.00945739,-0.056728,0,0,0,0,0.106043,0.452476,-0.863647,34.8125,3,51543,5208815
538,-1.2181,-0.470126,9.56339,-0.372638,-1.332,0.944725,-0.0121814,-0.00470087,0.0956339,1,3.4601e-05,1.19626e-05,-0.000287458,0.00692021,0.00239252,-0.0574916,0,0,0,0,0.104038,0.457369,-0.863529,34.8125,3,51547,5209215
539,-0.832038,0.655072,9.46734,-0.808669,-0.636826,0.359798,-0.0083217,0.00654745,0.0946735,1,3.97503e-05,-2.46678e-05,-0.000255824,0.00795006,-0.00493357,-0.0511648,0,0,0,0,0.0998877,0.453901,-0.858536,34.8125,3,51550,5209515
540,-0.879852,0.299326,9.57926,-0.287356,-0.424105,0.807768,-0.00879354,0.00300445,0.0957927,1,-3.3556e-05,1.75197e-05,-0.000270712,-0.00671119,0.00350394,-0.0541424,0,0,0,0,0.0949009,0.457924,-0.862969,34.8125,3,51553,5209815
541,-0.757843,-0.383268,9.72919,-0.720317,-1.76541,0.485692,-0.00757566,-0.00382068,0.0972926,1,-4.07588e-05,2.47959e-05,-0.000268646,-0.00815177,0.00495918,-0.0537292,0,0,0,0,0.0897894,0.457354,-0.855887,34.8125,3,51557,5210215
542,-0.75746,-0.20903,9.96626,-0.453524,-1.13755,0.852889,-0.00759248,-0.00210798,0.0996608,1,0.000111961,-8.32778e-05,-0.000305786,0.0223923,-0.0166556,-0.0611571,0,0,0,0,0.087138,0.460445,-0.863887,34.8125,3,51560,5210515
543,-1.16495,0.0279155,9.45748,-1.28702,-0.814149,0.321311,-0.0116552,0.000279808,0.0945741,1,2.94349e-05,-3.08188e-05,-0.000266923,0.00588697,-0.00616377,-0.0533846,0,0,0,0,0.0800982,0.460857,-0.85627,34.8125,3,51563,5210815
544,-0.521837,0.271159,9.8862,-0.0483804,-1.19469,0.76679,-0.00523565,0.00269812,0.0988614,1,8.28049e-05,-9.50244e-05,-0.00027757,0.016561,-0.0190049,-0.055514,0,0,0,0,0.0767095,0.459937,-0.85779,34.8125,3,51567,5211215
545,-0.452551,-0.473341,9.96446,-0.406807,-1.67991,0.880673,-0.00451337,-0.00472762,0.0996454,1,-1.66998e-05,7.38843e-05,-0.000272762,-0.00333996,0.0147769,-0.0545524,0,0,0,0,0.0736528,0.468759,-0.85859,34.8125,3,51570,5211515
546,-0.773922,-0.245408,10.119,-0.0260385,-0.941304,1.18193,-0.00775797,-0.00247896,0.101188,1,0.000143424,-8.60839e-05,-0.000267446,0.0286848,-0.0172168,-0.0534892,0,0,0,0,0.0694244,0.464866,-0.857141,34.8125,3,51573,5211815
547,-0.574535,0.408293,9.84701,-0.30705,-0.959535,0.87467,-0.00574536,0.00410073,0.0984693,1,-7.31779e-05,-1.23094e-05,-0.000295128,-0.0146356,-0.00246187,-0.0590255,0,0,0,0,0.0668688,0.471741,-0.858492,34.8125,3,51577,5212215
548,-1.21039,-0.085177,9.42822,-0.968186,-0.934672,0.241546,-0.0121259,-0.00085353,0.0942794,1,5.38479e-05,-0.000113533,-0.000346426,0.0107696,-0.0227067,-0.0692852,0,0,0,0,0.0603377,0.468275,-0.852478,34.8125,3,51580,5212515
549,-0.735747,0.135,9.45397,-0.566628,-1.19053,0.527074,-0.00737321,0.0013468,0.0945385,1,4.47787e-05,-8.83452e-05,-0.000357339,0.00895574,-0.017669,-0.0714679,0,0,0,0,0.0599988,0.476232,-0.860886,34.8125,3,51583,5212815
550,-0.361975,-0.0396,10.0225,-0.216092,-1.20671,0.887932,-0.00362089,-0.000417762,0.100225,1,0.000123193,-4.06594e-06,-0.000404895,0.0246385,-0.000813187,-0.080979,0,0,0,0,0.0538919,0.474731,-0.85584,34.8125,3,51587,5213215
551,-0.107866,0.125389,10.3665,0.0859267,-1.14556,1.44669,-0.00106522,0.00124873,0.103665,1,2.89208e-05,6.0061e-05,-0.000392426,0.00578416,0.0120122,-0.0784852,0,0,0,0,0.0513791,0.473866,-0.860899,34.8125,3,51590,5213515
552,-1.12525,0.421391,9.7334,-0.482057,-0.787318,0.821847,-0.0112534,0.00421321,0.097334,1,5.61478e-05,-2.44076e-05,-0.000454544,0.0112296,-0.00488152,-0.0909088,0,0,0,0,0.0504386,0.477713,-0.857273,34.8125,3,51593,5213815
553,-0.779812,-0.721227,9.56273,-0.406848,-1.95352,0.651222,-0.00780706,-0.00724486,0.0956241,1,0.000212233,-7.97357e-06,-0.000513156,0.0424466,-0.00159471,-0.102631,0,0,0,0,0.0447127,0.471943,-0.859395,34.8125,3,51597,5214215
