frame_id,imu_idx,accel_x,accel_y,accel_z,free_accel_x,free_accel_y,free_accel_z,delta_v_x,delta_v_y,delta_v_z,delta_q_w,delta_q_x,delta_q_y,delta_q_z,rate_x,rate_y,rate_z,quat_w,quat_x,quat_y,quat_z,mag_x,mag_y,mag_z,temperature,status_byte,packet_counter,time_fine
1,1,-0.68284,-0.0280038,9.78783,-0.133443,-1.96145,0.879789,-0.00683246,-0.000290194,0.097878,1,5.11983e-05,-2.07802e-05,9.73424e-06,0.0102397,-0.00415604,0.00194685,0,0,0,0,0.0700334,0.313003,-1.09891,36.5625,3,14878,34313267
1,2,-0.510285,-0.0604043,7.34538,-0.133443,-1.96145,0.879789,-0.00510238,-0.000610218,0.0734537,1,4.01605e-05,3.00631e-06,2.69543e-05,0.00803211,0.000601262,0.00539086,0,0,0,0,0.0458743,0.519732,-0.996725,36.4375,1,20710,34897986
2,1,-0.510285,-0.0604043,7.34538,-0.133443,-1.96145,0.879789,-0.00510238,-0.000610218,0.0734537,1,4.01605e-05,3.00631e-06,2.69543e-05,0.00803211,0.000601262,0.00539086,0,0,0,0,0.0458743,0.519732,-0.996725,36.4375,1,20710,34897986
2,2,-0.661956,-0.0824994,9.79245,0.110457,-0.505332,1.00437,-0.00662283,-0.000832525,0.0979242,1,3.77725e-05,-1.679e-05,1.00526e-05,0.00755451,-0.00335799,0.00201052,0,0,0,0,0.0448955,0.519271,-0.997741,36.4375,1,20711,34898086
3,1,-0.661956,-0.0824994,9.79245,0.110457,-0.505332,1.00437,-0.00662283,-0.000832525,0.0979242,1,3.77725e-05,-1.679e-05,1.00526e-05,0.00755451,-0.00335799,0.00201052,0,0,0,0,0.0448955,0.519271,-0.997741,36.4375,1,20711,34898086
3,2,-0.667372,-0.0855366,9.79518,0.104015,-0.505556,1.00492,-0.0066774,-0.000864403,0.0979515,1,4.53889e-05,-1.88443e-05,1.09208e-05,0.00907779,-0.00376885,0.00218417,0,0,0,0,0.0431053,0.514852,-0.995306,36.4375,1,20712,34898186
4,1,-0.667372,-0.0855366,9.79518,0.104015,-0.505556,1.00492,-0.0066774,-0.000864403,0.0979515,1,4.53889e-05,-1.88443e-05,1.09208e-05,0.00907779,-0.00376885,0.00218417,0,0,0,0,0.0431053,0.514852,-0.995306,36.4375,1,20712,34898186
4,2,-0.664452,-0.0800576,9.78673,0.106602,-0.502533,0.998808,-0.00664621,-0.000809081,0.0978671,1,4.23304e-05,-8.76959e-06,1.6475e-05,0.00846609,-0.00175392,0.00329499,0,0,0,0,0.0427305,0.51285,-0.992318,36.4375,1,20713,34898286
7,1,-0.664452,-0.0800576,9.78673,0.106602,-0.502533,0.998808,-0.00664621,-0.000809081,0.0978671,1,4.23304e-05,-8.76959e-06,1.6475e-05,0.00846609,-0.00175392,0.00329499,0,0,0,0,0.0427305,0.51285,-0.992318,36.4375,1,20713,34898286
7,2,-0.657979,-0.0797913,9.78397,0.114876,-0.501009,0.997728,-0.0065824,-0.000807549,0.0978395,1,4.92019e-05,-1.33457e-05,6.18448e-07,0.00984037,-0.00266914,0.00012369,0,0,0,0,0.0455897,0.516701,-0.99073,36.4375,1,20714,34898386
8,1,-0.657979,-0.0797913,9.78397,0.114876,-0.501009,0.997728,-0.0065824,-0.000807549,0.0978395,1,4.92019e-05,-1.33457e-05,6.18448e-07,0.00984037,-0.00266914,0.00012369,0,0,0,0,0.0455897,0.516701,-0.99073,36.4375,1,20714,34898386
8,2,-0.651518,-0.0897869,9.78927,0.119613,-0.514453,0.992593,-0.00651564,-0.000907422,0.0978925,1,4.72274e-05,-2.60395e-06,2.35532e-05,0.00944547,-0.00052079,0.00471063,0,0,0,0,0.0464745,0.519159,-0.992195,36.4375,1,20715,34898486
9,1,-0.651518,-0.0897869,9.78927,0.119613,-0.514453,0.992593,-0.00651564,-0.000907422,0.0978925,1,4.72274e-05,-2.60395e-06,2.35532e-05,0.00944547,-0.00052079,0.00471063,0,0,0,0,0.0464745,0.519159,-0.992195,36.4375,1,20715,34898486
9,2,-0.663667,-0.0856531,9.79583,0.108914,-0.510852,0.999368,-0.00663866,-0.000868834,0.097958,1,6.28475e-05,-1.01683e-05,-7.82358e-07,0.0125695,-0.00203366,-0.000156472,0,0,0,0,0.0459189,0.517772,-0.996264,36.4375,1,20716,34898586
10,1,-0.663667,-0.0856531,9.79583,0.108914,-0.510852,0.999368,-0.00663866,-0.000868834,0.097958,1,6.28475e-05,-1.01683e-05,-7.82358e-07,0.0125695,-0.00203366,-0.000156472,0,0,0,0,0.0459189,0.517772,-0.996264,36.4375,1,20716,34898586
10,2,-0.662664,-0.0863423,9.79276,0.106082,-0.511701,0.998164,-0.00662853,-0.000874121,0.0979274,1,5.45774e-05,-9.64996e-06,6.33408e-07,0.0109155,-0.00192999,0.000126682,0,0,0,0,0.0444547,0.516836,-0.997793,36.4375,1,20717,34898686
11,1,-0.662664,-0.0863423,9.79276,0.106082,-0.511701,0.998164,-0.00662853,-0.000874121,0.0979274,1,5.45774e-05,-9.64996e-06,6.33408e-07,0.0109155,-0.00192999,0.000126682,0,0,0,0,0.0444547,0.516836,-0.997793,36.4375,1,20717,34898686
11,2,-0.658567,-0.0771759,9.78943,0.108821,-0.506857,0.995912,-0.00658972,-0.000780726,0.0978939,1,4.58694e-05,-2.0668e-05,-1.0561e-06,0.00917389,-0.0041336,-0.00021122,0,0,0,0,0.0436031,0.515317,-0.994287,36.4375,1,20718,34898786
12,1,-0.658567,-0.0771759,9.78943,0.108821,-0.506857,0.995912,-0.00658972,-0.000780726,0.0978939,1,4.58694e-05,-2.0668e-05,-1.0561e-06,0.00917389,-0.0041336,-0.00021122,0,0,0,0,0.0436031,0.515317,-0.994287,36.4375,1,20718,34898786
12,2,-0.677507,-0.085661,9.79457,0.0940659,-0.514601,1.00719,-0.00677802,-0.000865315,0.0979454,1,4.41838e-05,-1.50948e-05,3.65795e-06,0.00883677,-0.00301896,0.00073159,0,0,0,0,0.0441582,0.515259,-0.991261,36.4375,1,20719,34898886
10,1,-0.677507,-0.085661,9.79457,0.0940659,-0.514601,1.00719,-0.00677802,-0.000865315,0.0979454,1,4.41838e-05,-1.50948e-05,3.65795e-06,0.00883677,-0.00301896,0.00073159,0,0,0,0,0.0441582,0.515259,-0.991261,36.4375,1,20719,34898886
10,2,-0.660312,-0.0837189,9.78938,0.106771,-0.509724,0.993248,-0.00660543,-0.000847244,0.0978935,1,5.03753e-05,-1.19394e-05,1.45565e-05,0.0100751,-0.00238789,0.0029113,0,0,0,0,0.0460993,0.515713,-0.99025,36.4375,1,20720,34898986
14,1,-0.660312,-0.0837189,9.78938,0.106771,-0.509724,0.993248,-0.00660543,-0.000847244,0.0978935,1,5.03753e-05,-1.19394e-05,1.45565e-05,0.0100751,-0.00238789,0.0029113,0,0,0,0,0.0460993,0.515713,-0.99025,36.4375,1,20720,34898986
14,2,-0.667403,-0.0831132,9.79791,0.10816,-0.512124,1.0029,-0.00667622,-0.000841061,0.0979789,1,4.97569e-05,-1.12854e-05,1.3318e-05,0.00995138,-0.00225707,0.0026636,0,0,0,0,0.0454834,0.518707,-0.993716,36.4375,1,20721,34899086
15,1,-0.667403,-0.0831132,9.79791,0.10816,-0.512124,1.0029,-0.00667622,-0.000841061,0.0979789,1,4.97569e-05,-1.12854e-05,1.3318e-05,0.00995138,-0.00225707,0.0026636,0,0,0,0,0.0454834,0.518707,-0.993716,36.4375,1,20721,34899086
15,2,-0.654344,-0.0763906,9.78567,0.112309,-0.512042,0.987719,-0.00654427,-0.000774082,0.0978565,1,5.14835e-05,-4.29546e-06,7.63497e-06,0.0102967,-0.000859092,0.00152699,0,0,0,0,0.0458905,0.518757,-0.996747,36.4375,1,20722,34899186
15,3,-0.654344,-0.0763906,9.78567,0.112309,-0.512042,0.987719,-0.00654427,-0.000774082,0.0978565,1,5.14835e-05,-4.29546e-06,7.63497e-06,0.0102967,-0.000859092,0.00152699,0,0,0,0,0.0458905,0.518757,-0.996747,36.4375,1,20722,34899186
15,4,-0.657216,-0.0771502,9.79281,0.110926,-0.515911,1.00136,-0.00657481,-0.00078104,0.0979279,1,4.76111e-05,-1.36589e-05,1.61787e-05,0.00952223,-0.00273178,0.00323574,0,0,0,0,0.0449192,0.516362,-0.998816,36.4375,1,20723,34899286
16,1,-0.657216,-0.0771502,9.79281,0.110926,-0.515911,1.00136,-0.00657481,-0.00078104,0.0979279,1,4.76111e-05,-1.36589e-05,1.61787e-05,0.00952223,-0.00273178,0.00323574,0,0,0,0,0.0449192,0.516362,-0.998816,36.4375,1,20723,34899286
16,2,-0.664676,-0.0863173,9.77956,0.102759,-0.526791,0.993145,-0.00665033,-0.000873522,0.0977952,1,5.09304e-05,-1.84866e-05,2.91615e-05,0.0101861,-0.00369733,0.00583229,0,0,0,0,0.044051,0.514374,-0.996331,36.4375,1,20724,34899386
17,1,-0.664676,-0.0863173,9.77956,0.102759,-0.526791,0.993145,-0.00665033,-0.000873522,0.0977952,1,5.09304e-05,-1.84866e-05,2.91615e-05,0.0101861,-0.00369733,0.00583229,0,0,0,0,0.044051,0.514374,-0.996331,36.4375,1,20724,34899386
17,2,-0.663095,-0.0803305,9.7901,0.104972,-0.51676,1.00176,-0.00663378,-0.000813376,0.0979007,1,5.00156e-05,-1.46365e-05,2.09123e-05,0.0100031,-0.00292731,0.00418245,0,0,0,0,0.0432164,0.51477,-0.990762,36.4375,1,20725,34899486
17,3,-0.663095,-0.0803305,9.7901,0.104972,-0.51676,1.00176,-0.00663378,-0.000813376,0.0979007,1,5.00156e-05,-1.46365e-05,2.09123e-05,0.0100031,-0.00292731,0.00418245,0,0,0,0,0.0432164,0.51477,-0.990762,36.4375,1,20725,34899486
17,4,-0.655959,-0.0730266,9.79182,0.114231,-0.509283,0.998739,-0.00656146,-0.000740973,0.097918,1,5.32046e-05,-9.67831e-06,2.19195e-05,0.0106409,-0.00193566,0.0043839,0,0,0,0,0.044171,0.516695,-0.989714,36.4375,1,20726,34899586
18,1,-0.655959,-0.0730266,9.79182,0.114231,-0.509283,0.998739,-0.00656146,-0.000740973,0.097918,1,5.32046e-05,-9.67831e-06,2.19195e-05,0.0106409,-0.00193566,0.0043839,0,0,0,0,0.044171,0.516695,-0.989714,36.4375,1,20726,34899586
18,2,-0.660905,-0.0779025,9.79283,0.104449,-0.514919,0.997201,-0.00661259,-0.000788626,0.097928,1,4.84791e-05,-1.8157e-05,8.0464e-06,0.00969582,-0.0036314,0.00160928,0,0,0,0,0.045973,0.51966,-0.992687,36.4375,1,20727,34899686
19,1,-0.660905,-0.0779025,9.79283,0.104449,-0.514919,0.997201,-0.00661259,-0.000788626,0.097928,1,4.84791e-05,-1.8157e-05,8.0464e-06,0.00969582,-0.0036314,0.00160928,0,0,0,0,0.045973,0.51966,-0.992687,36.4375,1,20727,34899686
19,2,-0.655153,-0.0836674,9.78698,0.111695,-0.526699,0.99104,-0.00655519,-0.00084518,0.0978695,1,4.29227e-05,-1.87682e-05,7.97396e-06,0.00858454,-0.00375364,0.00159479,0,0,0,0,0.0473751,0.519196,-0.994724,36.4375,1,20728,34899786
20,1,-0.655153,-0.0836674,9.78698,0.111695,-0.526699,0.99104,-0.00655519,-0.00084518,0.0978695,1,4.29227e-05,-1.87682e-05,7.97396e-06,0.00858454,-0.00375364,0.00159479,0,0,0,0,0.0473751,0.519196,-0.994724,36.4375,1,20728,34899786
20,2,-0.649167,-0.0803379,9.78763,0.115003,-0.522918,0.992347,-0.00649263,-0.000816127,0.0978761,1,6.50193e-05,-4.89727e-06,1.61281e-06,0.0130039,-0.000979454,0.000322563,0,0,0,0,0.0459227,0.516806,-0.99679,36.4375,1,20729,34899886
21,1,-0.649167,-0.0803379,9.78763,0.115003,-0.522918,0.992347,-0.00649263,-0.000816127,0.0978761,1,6.50193e-05,-4.89727e-06,1.61281e-06,0.0130039,-0.000979454,0.000322563,0,0,0,0,0.0459227,0.516806,-0.99679,36.4375,1,20729,34899886
21,2,-0.662632,-0.0803522,9.79689,0.103283,-0.526158,1.00566,-0.00662859,-0.000812471,0.0979687,1,4.48786e-05,-1.17142e-05,1.17066e-05,0.00897572,-0.00234283,0.00234132,0,0,0,0,0.0441003,0.514338,-0.994311,36.4375,1,20730,34899986
22,1,-0.662632,-0.0803522,9.79689,0.103283,-0.526158,1.00566,-0.00662859,-0.000812471,0.0979687,1,4.48786e-05,-1.17142e-05,1.17066e-05,0.00897572,-0.00234283,0.00234132,0,0,0,0,0.0441003,0.514338,-0.994311,36.4375,1,20730,34899986
22,2,-0.644059,-0.0824643,9.78013,0.117659,-0.525612,0.9875,-0.00644174,-0.000833477,0.0978011,1,4.4372e-05,-5.98483e-06,1.19878e-05,0.0088744,-0.00119697,0.00239755,0,0,0,0,0.0441786,0.514762,-0.990767,36.4375,1,20731,34900086
22,3,-0.644059,-0.0824643,9.78013,0.117659,-0.525612,0.9875,-0.00644174,-0.000833477,0.0978011,1,4.4372e-05,-5.98483e-06,1.19878e-05,0.0088744,-0.00119697,0.00239755,0,0,0,0,0.0441786,0.514762,-0.990767,36.4375,1,20731,34900086
22,4,-0.658151,-0.0851668,9.79445,0.111977,-0.528778,0.996348,-0.00658385,-0.000860192,0.0979442,1,4.17794e-05,-1.21369e-05,2.58681e-05,0.00835588,-0.00242738,0.00517362,0,0,0,0,0.046104,0.517637,-0.988692,36.4375,1,20732,34900186
23,1,-0.658151,-0.0851668,9.79445,0.111977,-0.528778,0.996348,-0.00658385,-0.000860192,0.0979442,1,4.17794e-05,-1.21369e-05,2.58681e-05,0.00835588,-0.00242738,0.00517362,0,0,0,0,0.046104,0.517637,-0.988692,36.4375,1,20732,34900186
23,2,-0.659082,-0.0748972,9.79249,0.105456,-0.517528,0.99415,-0.00659165,-0.0007581,0.0979248,1,4.53833e-05,-4.38067e-06,1.81274e-05,0.00907666,-0.000876133,0.00362547,0,0,0,0,0.0445871,0.519148,-0.990671,36.4375,1,20733,34900286
24,1,-0.659082,-0.0748972,9.79249,0.105456,-0.517528,0.99415,-0.00659165,-0.0007581,0.0979248,1,4.53833e-05,-4.38067e-06,1.81274e-05,0.00907666,-0.000876133,0.00362547,0,0,0,0,0.0445871,0.519148,-0.990671,36.4375,1,20733,34900286
24,2,-0.654038,-0.0843331,9.7951,0.112195,-0.535456,0.995559,-0.00654436,-0.000855629,0.0979507,1,6.2054e-05,-2.04353e-05,1.08496e-05,0.0124108,-0.00408706,0.00216993,0,0,0,0,0.0445126,0.517757,-0.994743,36.4375,1,20734,34900386
25,1,-0.654038,-0.0843331,9.7951,0.112195,-0.535456,0.995559,-0.00654436,-0.000855629,0.0979507,1,6.2054e-05,-2.04353e-05,1.08496e-05,0.0124108,-0.00408706,0.00216993,0,0,0,0,0.0445126,0.517757,-0.994743,36.4375,1,20734,34900386
25,2,-0.658584,-0.0809262,9.79177,0.106058,-0.531759,0.997512,-0.00658837,-0.000819671,0.0979175,1,5.15972e-05,-1.31039e-05,2.30575e-05,0.0103194,-0.00262078,0.0046115,0,0,0,0,0.0449605,0.516814,-0.996786,36.4375,1,20735,34900486
26,1,-0.658584,-0.0809262,9.79177,0.106058,-0.531759,0.997512,-0.00658837,-0.000819671,0.0979175,1,5.15972e-05,-1.31039e-05,2.30575e-05,0.0103194,-0.00262078,0.0046115,0,0,0,0,0.0449605,0.516814,-0.996786,36.4375,1,20735,34900486
26,2,-0.664955,-0.0947122,9.78593,0.101109,-0.547243,0.994026,-0.00665213,-0.000955615,0.097859,1,4.21479e-05,-1.33927e-05,1.83339e-05,0.00842958,-0.00267853,0.00366678,0,0,0,0,0.0446018,0.513837,-0.99382,36.4375,1,20736,34900586
27,1,-0.664955,-0.0947122,9.78593,0.101109,-0.547243,0.994026,-0.00665213,-0.000955615,0.097859,1,4.21479e-05,-1.33927e-05,1.83339e-05,0.00842958,-0.00267853,0.00366678,0,0,0,0,0.0446018,0.513837,-0.99382,36.4375,1,20736,34900586
27,2,-0.652165,-0.0825478,9.78764,0.112881,-0.529732,0.997006,-0.00652336,-0.000835153,0.0978762,1,4.93973e-05,-8.7265e-06,4.04076e-07,0.00987947,-0.0017453,8.08152e-05,0,0,0,0,0.0451978,0.512785,-0.989806,36.4375,1,20737,34900686
28,1,-0.652165,-0.0825478,9.78764,0.112881,-0.529732,0.997006,-0.00652336,-0.000835153,0.0978762,1,4.93973e-05,-8.7265e-06,4.04076e-07,0.00987947,-0.0017453,8.08152e-05,0,0,0,0,0.0451978,0.512785,-0.989806,36.4375,1,20737,34900686
28,2,-0.660088,-0.0778182,9.78942,0.100835,-0.528149,0.99362,-0.00660189,-0.000788958,0.0978941,1,5.42141e-05,-5.2638e-06,1.2286e-05,0.0108428,-0.00105276,0.00245721,0,0,0,0,0.0466582,0.514688,-0.98775,36.4375,1,20738,34900786
29,1,-0.660088,-0.0778182,9.78942,0.100835,-0.528149,0.99362,-0.00660189,-0.000788958,0.0978941,1,5.42141e-05,-5.2638e-06,1.2286e-05,0.0108428,-0.00105276,0.00245721,0,0,0,0,0.0466582,0.514688,-0.98775,36.4375,1,20738,34900786
29,2,-0.658376,-0.0769743,9.79146,0.104478,-0.529212,0.995701,-0.00658406,-0.000779056,0.0979145,1,4.66928e-05,-1.60367e-06,1.28205e-05,0.00933856,-0.000320733,0.0025641,0,0,0,0,0.046968,0.519146,-0.991693,36.4375,1,20739,34900886
30,1,-0.658376,-0.0769743,9.79146,0.104478,-0.529212,0.995701,-0.00658406,-0.000779056,0.0979145,1,4.66928e-05,-1.60367e-06,1.28205e-05,0.00933856,-0.000320733,0.0025641,0,0,0,0,0.046968,0.519146,-0.991693,36.4375,1,20739,34900886
30,2,-0.672203,-0.0896585,9.79043,0.0922183,-0.546013,0.992039,-0.00672354,-0.000904358,0.0979041,1,3.85753e-05,-7.81756e-06,1.63374e-05,0.00771507,-0.00156351,0.00326748,0,0,0,0,0.0468365,0.519724,-0.99673,36.4375,1,20740,34900986
31,1,-0.672203,-0.0896585,9.79043,0.0922183,-0.546013,0.992039,-0.00672354,-0.000904358,0.0979041,1,3.85753e-05,-7.81756e-06,1.63374e-05,0.00771507,-0.00156351,0.00326748,0,0,0,0,0.0468365,0.519724,-0.99673,36.4375,1,20740,34900986
31,2,-0.661415,-0.068571,9.78646,0.103828,-0.528171,0.992663,-0.00661708,-0.000695688,0.0978644,1,5.01536e-05,-1.50073e-05,1.22338e-05,0.0100307,-0.00300145,0.00244677,0,0,0,0,0.0458857,0.516833,-0.998305,36.4375,1,20741,34901086
32,1,-0.661415,-0.068571,9.78646,0.103828,-0.528171,0.992663,-0.00661708,-0.000695688,0.0978644,1,5.01536e-05,-1.50073e-05,1.22338e-05,0.0100307,-0.00300145,0.00244677,0,0,0,0,0.0458857,0.516833,-0.998305,36.4375,1,20741,34901086
32,2,-0.664094,-0.0778829,9.79217,0.103345,-0.538363,1.00123,-0.00664193,-0.000789869,0.0979215,1,5.4557e-05,-5.24344e-06,2.67101e-05,0.0109114,-0.00104869,0.00534201,0,0,0,0,0.0455028,0.515319,-0.995306,36.4375,1,20742,34901186
33,1,-0.664094,-0.0778829,9.79217,0.103345,-0.538363,1.00123,-0.00664193,-0.000789869,0.0979215,1,5.4557e-05,-5.24344e-06,2.67101e-05,0.0109114,-0.00104869,0.00534201,0,0,0,0,0.0455028,0.515319,-0.995306,36.4375,1,20742,34901186
33,2,-0.65038,-0.0684977,9.78503,0.115447,-0.524624,0.989284,-0.00650363,-0.000695141,0.0978502,1,5.07291e-05,7.57892e-07,1.81515e-05,0.0101458,0.000151578,0.0036303,0,0,0,0,0.0450957,0.515269,-0.992275,36.4375,1,20743,34901286
34,1,-0.65038,-0.0684977,9.78503,0.115447,-0.524624,0.989284,-0.00650363,-0.000695141,0.0978502,1,5.07291e-05,7.57892e-07,1.81515e-05,0.0101458,0.000151578,0.0036303,0,0,0,0,0.0450957,0.515269,-0.992275,36.4375,1,20743,34901286
34,2,-0.666454,-0.0852125,9.78263,0.0930903,-0.540897,0.984457,-0.00666663,-0.00085813,0.0978261,1,2.93982e-05,-1.08814e-05,1.89728e-05,0.00587964,-0.00217629,0.00379457,0,0,0,0,0.0450919,0.516236,-0.991749,36.4375,1,20744,34901386
34,3,-0.666454,-0.0852125,9.78263,0.0930903,-0.540897,0.984457,-0.00666663,-0.00085813,0.0978261,1,2.93982e-05,-1.08814e-05,1.89728e-05,0.00587964,-0.00217629,0.00379457,0,0,0,0,0.0450919,0.516236,-0.991749,36.4375,1,20744,34901386
34,4,-0.667984,-0.0848284,9.79077,0.1006,-0.540263,0.997697,-0.00667931,-0.000856631,0.0979076,1,4.06855e-05,2.44006e-06,2.84355e-05,0.00813711,0.000488012,0.0056871,0,0,0,0,0.0449652,0.518738,-0.995228,36.4375,1,20745,34901486
35,1,-0.667984,-0.0848284,9.79077,0.1006,-0.540263,0.997697,-0.00667931,-0.000856631,0.0979076,1,4.06855e-05,2.44006e-06,2.84355e-05,0.00813711,0.000488012,0.0056871,0,0,0,0,0.0449652,0.518738,-0.995228,36.4375,1,20745,34901486
35,2,-0.664302,-0.0784724,9.79353,0.104556,-0.538213,0.994739,-0.00664624,-0.00079682,0.097935,1,6.04951e-05,-1.6585e-05,1.85722e-05,0.012099,-0.003317,0.00371445,0,0,0,0,0.0454212,0.517306,-0.997282,36.4375,1,20746,34901586
35,3,-0.664302,-0.0784724,9.79353,0.104556,-0.538213,0.994739,-0.00664624,-0.00079682,0.097935,1,6.04951e-05,-1.6585e-05,1.85722e-05,0.012099,-0.003317,0.00371445,0,0,0,0,0.0454212,0.517306,-0.997282,36.4375,1,20746,34901586
35,4,-0.668425,-0.0819852,9.79013,0.0935685,-0.541289,0.998788,-0.00668648,-0.000830794,0.0979011,1,5.41323e-05,-1.1636e-05,2.56726e-05,0.0108265,-0.00232719,0.00513452,0,0,0,0,0.0449971,0.515341,-0.996314,36.4375,1,20747,34901686
36,1,-0.668425,-0.0819852,9.79013,0.0935685,-0.541289,0.998788,-0.00668648,-0.000830794,0.0979011,1,5.41323e-05,-1.1636e-05,2.56726e-05,0.0108265,-0.00232719,0.00513452,0,0,0,0,0.0449971,0.515341,-0.996314,36.4375,1,20747,34901686
36,2,-0.669479,-0.0782373,9.78608,0.0944888,-0.540098,0.993768,-0.00669294,-0.000791416,0.0978608,1,4.5944e-05,9.38573e-06,3.8261e-06,0.00918881,0.00187715,0.00076522,0,0,0,0,0.0446265,0.513819,-0.99281,36.4375,1,20748,34901786
37,1,-0.669479,-0.0782373,9.78608,0.0944888,-0.540098,0.993768,-0.00669294,-0.000791416,0.0978608,1,4.5944e-05,9.38573e-06,3.8261e-06,0.00918881,0.00187715,0.00076522,0,0,0,0,0.0446265,0.513819,-0.99281,36.4375,1,20748,34901786
37,2,-0.664771,-0.0836695,9.79449,0.100155,-0.543911,1.00219,-0.00664968,-0.000847139,0.0979447,1,5.27221e-05,-1.01141e-05,8.75662e-06,0.0105444,-0.00202282,0.00175132,0,0,0,0,0.0432287,0.514761,-0.990258,36.4375,1,20749,34901886
37,3,-0.664771,-0.0836695,9.79449,0.100155,-0.543911,1.00219,-0.00664968,-0.000847139,0.0979447,1,5.27221e-05,-1.01141e-05,8.75662e-06,0.0105444,-0.00202282,0.00175132,0,0,0,0,0.0432287,0.514761,-0.990258,36.4375,1,20749,34901886
37,4,-0.650406,-0.0866873,9.79912,0.113603,-0.550264,1.00299,-0.00650426,-0.000878453,0.0979911,1,5.78632e-05,-1.21075e-06,1.84548e-05,0.0115726,-0.000242151,0.00369095,0,0,0,0,0.044171,0.516695,-0.989714,36.4375,1,20750,34901986
38,1,-0.650406,-0.0866873,9.79912,0.113603,-0.550264,1.00299,-0.00650426,-0.000878453,0.0979911,1,5.78632e-05,-1.21075e-06,1.84548e-05,0.0115726,-0.000242151,0.00369095,0,0,0,0,0.044171,0.516695,-0.989714,36.4375,1,20750,34901986
38,2,-0.664602,-0.0870918,9.79684,0.102917,-0.550523,0.996211,-0.00664951,-0.000882753,0.0979681,1,5.89602e-05,-1.79949e-05,2.11933e-05,0.011792,-0.00359897,0.00423866,0,0,0,0,0.0464783,0.518193,-0.992722,36.4375,1,20751,34902086
38,3,-0.664602,-0.0870918,9.79684,0.102917,-0.550523,0.996211,-0.00664951,-0.000882753,0.0979681,1,5.89602e-05,-1.79949e-05,2.11933e-05,0.011792,-0.00359897,0.00423866,0,0,0,0,0.0464783,0.518193,-0.992722,36.4375,1,20751,34902086
38,4,-0.651318,-0.0942529,9.79161,0.111502,-0.566156,0.99352,-0.0065175,-0.000951892,0.0979157,1,4.74546e-05,-2.21282e-05,5.39442e-06,0.00949092,-0.00442563,0.00107888,0,0,0,0,0.0454544,0.518246,-0.995241,36.4375,1,20752,34902186
39,1,-0.651318,-0.0942529,9.79161,0.111502,-0.566156,0.99352,-0.0065175,-0.000951892,0.0979157,1,4.74546e-05,-2.21282e-05,5.39442e-06,0.00949092,-0.00442563,0.00107888,0,0,0,0,0.0454544,0.518246,-0.995241,36.4375,1,20752,34902186
39,2,-0.662226,-0.0834369,9.79754,0.102426,-0.552432,0.999941,-0.00662531,-0.000844401,0.0979751,1,5.04425e-05,-1.5659e-05,1.11626e-05,0.0100885,-0.00313179,0.00223253,0,0,0,0,0.0430484,0.516821,-0.996272,36.4375,1,20753,34902286
40,1,-0.662226,-0.0834369,9.79754,0.102426,-0.552432,0.999941,-0.00662531,-0.000844401,0.0979751,1,5.04425e-05,-1.5659e-05,1.11626e-05,0.0100885,-0.00313179,0.00223253,0,0,0,0,0.0430484,0.516821,-0.996272,36.4375,1,20753,34902286
40,2,-0.67283,-0.0836004,9.78777,0.0914891,-0.556497,0.994778,-0.00673047,-0.000847985,0.0978775,1,5.97724e-05,-1.12539e-05,2.07496e-05,0.0119545,-0.00225077,0.00414991,0,0,0,0,0.0436311,0.512887,-0.994847,36.4375,1,20754,34902386
41,1,-0.67283,-0.0836004,9.78777,0.0914891,-0.556497,0.994778,-0.00673047,-0.000847985,0.0978775,1,5.97724e-05,-1.12539e-05,2.07496e-05,0.0119545,-0.00225077,0.00414991,0,0,0,0,0.0436311,0.512887,-0.994847,36.4375,1,20754,34902386
41,2,-0.650903,-0.0796122,9.79443,0.111725,-0.551379,0.999922,-0.0065097,-0.000804775,0.0979442,1,4.28892e-05,-3.58378e-06,1.92934e-05,0.00857784,-0.000716757,0.00385868,0,0,0,0,0.0451161,0.514772,-0.991781,36.4375,1,20755,34902486
42,1,-0.650903,-0.0796122,9.79443,0.111725,-0.551379,0.999922,-0.0065097,-0.000804775,0.0979442,1,4.28892e-05,-3.58378e-06,1.92934e-05,0.00857784,-0.000716757,0.00385868,0,0,0,0,0.0451161,0.514772,-0.991781,36.4375,1,20755,34902486
42,2,-0.663481,-0.0827307,9.79177,0.0978804,-0.551231,0.996684,-0.00663485,-0.000836967,0.0979177,1,4.89447e-05,-2.3294e-07,5.62895e-06,0.00978895,-4.65881e-05,0.00112579,0,0,0,0,0.047005,0.519119,-0.990178,36.4375,1,20756,34902586
43,1,-0.663481,-0.0827307,9.79177,0.0978804,-0.551231,0.996684,-0.00663485,-0.000836967,0.0979177,1,4.89447e-05,-2.3294e-07,5.62895e-06,0.00978895,-4.65881e-05,0.00112579,0,0,0,0,0.047005,0.519119,-0.990178,36.4375,1,20756,34902586
43,2,-0.643755,-0.0726709,9.7897,0.119728,-0.542993,0.989207,-0.00643915,-0.000735004,0.0978968,1,4.16413e-05,-8.25895e-06,1.10715e-05,0.00832826,-0.00165179,0.0022143,0,0,0,0,0.0474244,0.51916,-0.992704,36.4375,1,20757,34902686
44,1,-0.643755,-0.0726709,9.7897,0.119728,-0.542993,0.989207,-0.00643915,-0.000735004,0.0978968,1,4.16413e-05,-8.25895e-06,1.10715e-05,0.00832826,-0.00165179,0.0022143,0,0,0,0,0.0474244,0.51916,-0.992704,36.4375,1,20757,34902686
44,2,-0.663071,-0.0856275,9.78531,0.0957013,-0.560694,0.985482,-0.00663343,-0.000867233,0.0978528,1,5.49591e-05,-1.40165e-05,1.52591e-05,0.0109918,-0.00280329,0.00305181,0,0,0,0,0.0478515,0.517268,-0.996284,36.4375,1,20758,34902786
45,1,-0.663071,-0.0856275,9.78531,0.0957013,-0.560694,0.985482,-0.00663343,-0.000867233,0.0978528,1,5.49591e-05,-1.40165e-05,1.52591e-05,0.0109918,-0.00280329,0.00305181,0,0,0,0,0.0478515,0.517268,-0.996284,36.4375,1,20758,34902786
45,2,-0.668447,-0.0779262,9.78576,0.0907785,-0.556753,0.990551,-0.00668762,-0.000788223,0.0978573,1,4.42658e-05,-1.62293e-05,2.22379e-05,0.00885316,-0.00324587,0.00444759,0,0,0,0,0.0459061,0.516336,-0.997811,36.4375,1,20759,34902886
46,1,-0.668447,-0.0779262,9.78576,0.0907785,-0.556753,0.990551,-0.00668762,-0.000788223,0.0978573,1,4.42658e-05,-1.62293e-05,2.22379e-05,0.00885316,-0.00324587,0.00444759,0,0,0,0,0.0459061,0.516336,-0.997811,36.4375,1,20759,34902886
46,2,-0.654976,-0.0768228,9.78228,0.103769,-0.554585,0.986759,-0.00655147,-0.00077758,0.0978226,1,4.63948e-05,-8.91679e-06,2.10366e-05,0.00927895,-0.00178336,0.00420733,0,0,0,0,0.0440799,0.514835,-0.994805,36.4375,1,20760,34902986
47,1,-0.654976,-0.0768228,9.78228,0.103769,-0.554585,0.986759,-0.00655147,-0.00077758,0.0978226,1,4.63948e-05,-8.91679e-06,2.10366e-05,0.00927895,-0.00178336,0.00420733,0,0,0,0,0.0440799,0.514835,-0.994805,36.4375,1,20760,34902986
47,2,-0.664995,-0.0851872,9.79245,0.0942213,-0.563288,0.999598,-0.00665345,-0.000861132,0.0979242,1,4.64208e-05,-1.79505e-05,1.27237e-05,0.00928415,-0.0035901,0.00254474,0,0,0,0,0.0451532,0.514745,-0.990267,36.4375,1,20761,34903086
47,3,-0.664995,-0.0851872,9.79245,0.0942213,-0.563288,0.999598,-0.00665345,-0.000861132,0.0979242,1,4.64208e-05,-1.79505e-05,1.27237e-05,0.00928415,-0.0035901,0.00254474,0,0,0,0,0.0451532,0.514745,-0.990267,36.4375,1,20761,34903086
47,4,-0.662456,-0.074691,9.79591,0.0976746,-0.551392,0.999382,-0.00662715,-0.000753416,0.0979589,1,3.21341e-05,-1.33553e-05,1.58215e-05,0.00642683,-0.00267107,0.00316431,0,0,0,0,0.0475919,0.515665,-0.988237,36.4375,1,20762,34903186
48,1,-0.662456,-0.074691,9.79591,0.0976746,-0.551392,0.999382,-0.00662715,-0.000753416,0.0979589,1,3.21341e-05,-1.33553e-05,1.58215e-05,0.00642683,-0.00267107,0.00316431,0,0,0,0,0.0475919,0.515665,-0.988237,36.4375,1,20762,34903186
48,2,-0.672573,-0.0819373,9.79185,0.0883266,-0.555024,0.992681,-0.00672663,-0.000831399,0.0979183,1,6.10855e-05,-4.60992e-06,4.74584e-06,0.0122171,-0.000921985,0.000949167,0,0,0,0,0.0479179,0.519147,-0.992202,36.4375,1,20763,34903286
49,1,-0.672573,-0.0819373,9.79185,0.0883266,-0.555024,0.992681,-0.00672663,-0.000831399,0.0979183,1,6.10855e-05,-4.60992e-06,4.74584e-06,0.0122171,-0.000921985,0.000949167,0,0,0,0,0.0479179,0.519147,-0.992202,36.4375,1,20763,34903286
49,2,-0.663053,-0.0960567,9.79878,0.097069,-0.577242,0.998404,-0.00663047,-0.000970232,0.0979877,1,4.82108e-05,1.13484e-07,1.6291e-05,0.00964215,2.26969e-05,0.0032582,0,0,0,0,0.0473177,0.51972,-0.996732,36.4375,1,20764,34903386
50,1,-0.663053,-0.0960567,9.79878,0.097069,-0.577242,0.998404,-0.00663047,-0.000970232,0.0979877,1,4.82108e-05,1.13484e-07,1.6291e-05,0.00964215,2.26969e-05,0.0032582,0,0,0,0,0.0473177,0.51972,-0.996732,36.4375,1,20764,34903386
50,2,-0.662028,-0.0856409,9.79141,0.0967321,-0.565325,0.994405,-0.00662172,-0.000867148,0.0979139,1,5.31487e-05,-7.59563e-06,2.49745e-05,0.0106297,-0.00151913,0.0049949,0,0,0,0,0.0454008,0.517803,-0.997776,36.4375,1,20765,34903486
51,1,-0.662028,-0.0856409,9.79141,0.0967321,-0.565325,0.994405,-0.00662172,-0.000867148,0.0979139,1,5.31487e-05,-7.59563e-06,2.49745e-05,0.0106297,-0.00151913,0.0049949,0,0,0,0,0.0454008,0.517803,-0.997776,36.4375,1,20765,34903486
51,2,-0.662961,-0.0908691,9.79612,0.0928278,-0.575849,0.999307,-0.0066304,-0.000920235,0.097961,1,5.67958e-05,-4.36067e-06,3.14487e-05,0.0113592,-0.000872134,0.00628975,0,0,0,0,0.0436111,0.51483,-0.994298,36.4375,1,20766,34903586
52,1,-0.662961,-0.0908691,9.79612,0.0928278,-0.575849,0.999307,-0.0066304,-0.000920235,0.097961,1,5.67958e-05,-4.36067e-06,3.14487e-05,0.0113592,-0.000872134,0.00628975,0,0,0,0,0.0436111,0.51483,-0.994298,36.4375,1,20766,34903586
52,2,-0.666856,-0.0850855,9.79415,0.0907845,-0.570495,0.997196,-0.00666874,-0.000861955,0.0979414,1,5.48455e-05,-1.10663e-06,2.67384e-05,0.0109691,-0.000221326,0.00534769,0,0,0,0,0.0442156,0.514735,-0.989253,36.4375,1,20767,34903686
53,1,-0.666856,-0.0850855,9.79415,0.0907845,-0.570495,0.997196,-0.00666874,-0.000861955,0.0979414,1,5.48455e-05,-1.10663e-06,2.67384e-05,0.0109691,-0.000221326,0.00534769,0,0,0,0,0.0442156,0.514735,-0.989253,36.4375,1,20767,34903686
53,2,-0.654998,-0.0805294,9.78902,0.105003,-0.567838,0.993889,-0.00654972,-0.000815263,0.0978901,1,5.023e-05,1.20882e-06,1.0304e-05,0.010046,0.000241765,0.0020608,0,0,0,0,0.0456309,0.517153,-0.9887,36.4375,1,20768,34903786
54,1,-0.654998,-0.0805294,9.78902,0.105003,-0.567838,0.993889,-0.00654972,-0.000815263,0.0978901,1,5.023e-05,1.20882e-06,1.0304e-05,0.010046,0.000241765,0.0020608,0,0,0,0,0.0456309,0.517153,-0.9887,36.4375,1,20768,34903786
54,2,-0.671851,-0.0783461,9.79154,0.0895932,-0.561355,0.99372,-0.0067215,-0.000792145,0.0979151,1,4.42863e-05,-1.52401e-05,7.95282e-07,0.00885726,-0.00304801,0.000159056,0,0,0,0,0.0450269,0.518693,-0.992704,36.4375,1,20769,34903886
55,1,-0.671851,-0.0783461,9.79154,0.0895932,-0.561355,0.99372,-0.0067215,-0.000792145,0.0979151,1,4.42863e-05,-1.52401e-05,7.95282e-07,0.00885726,-0.00304801,0.000159056,0,0,0,0,0.0450269,0.518693,-0.992704,36.4375,1,20769,34903886
55,2,-0.663784,-0.0795688,9.78842,0.095054,-0.571864,0.987938,-0.00663892,-0.000807146,0.0978841,1,5.74124e-05,-5.66214e-06,1.64452e-05,0.0114825,-0.00113243,0.00328903,0,0,0,0,0.0454502,0.517767,-0.995757,36.4375,1,20770,34903986
56,1,-0.663784,-0.0795688,9.78842,0.095054,-0.571864,0.987938,-0.00663892,-0.000807146,0.0978841,1,5.74124e-05,-5.66214e-06,1.64452e-05,0.0114825,-0.00113243,0.00328903,0,0,0,0,0.0454502,0.517767,-0.995757,36.4375,1,20770,34903986
56,2,-0.656619,-0.0781107,9.78567,0.0968622,-0.566906,0.9872,-0.00657035,-0.000791953,0.0978564,1,5.3791e-05,-2.1447e-05,2.42128e-05,0.0107582,-0.0042894,0.00484257,0,0,0,0,0.0449767,0.515838,-0.996807,36.4375,1,20771,34904086
57,1,-0.656619,-0.0781107,9.78567,0.0968622,-0.566906,0.9872,-0.00657035,-0.000791953,0.0978564,1,5.3791e-05,-2.1447e-05,2.42128e-05,0.0107582,-0.0042894,0.00484257,0,0,0,0,0.0449767,0.515838,-0.996807,36.4375,1,20771,34904086
57,2,-0.659707,-0.083316,9.78836,0.101059,-0.568739,0.993617,-0.00659736,-0.000842819,0.0978835,1,4.91478e-05,-1.52019e-06,2.82736e-06,0.00982956,-0.000304038,0.000565473,0,0,0,0,0.0441411,0.513344,-0.993324,36.4375,1,20772,34904186
57,3,-0.659707,-0.083316,9.78836,0.101059,-0.568739,0.993617,-0.00659736,-0.000842819,0.0978835,1,4.91478e-05,-1.52019e-06,2.82736e-06,0.00982956,-0.000304038,0.000565473,0,0,0,0,0.0441411,0.513344,-0.993324,36.4375,1,20772,34904186
57,4,-0.662557,-0.0917136,9.79882,0.0940546,-0.584284,1.00401,-0.00662898,-0.000925567,0.0979879,1,4.12071e-05,-1.76489e-05,2.6826e-05,0.00824141,-0.00352979,0.0053652,0,0,0,0,0.0436813,0.515742,-0.990743,36.4375,1,20773,34904286
58,1,-0.662557,-0.0917136,9.79882,0.0940546,-0.584284,1.00401,-0.00662898,-0.000925567,0.0979879,1,4.12071e-05,-1.76489e-05,2.6826e-05,0.00824141,-0.00352979,0.0053652,0,0,0,0,0.0436813,0.515742,-0.990743,36.4375,1,20773,34904286
58,2,-0.660359,-0.080278,9.78771,0.0954357,-0.569214,0.989619,-0.00660608,-0.000810873,0.0978769,1,4.01232e-05,-1.29135e-05,1.80921e-05,0.00802465,-0.0025827,0.00361841,0,0,0,0,0.046047,0.519606,-0.989658,36.4375,1,20774,34904386
59,1,-0.660359,-0.080278,9.78771,0.0954357,-0.569214,0.989619,-0.00660608,-0.000810873,0.0978769,1,4.01232e-05,-1.29135e-05,1.80921e-05,0.00802465,-0.0025827,0.00361841,0,0,0,0,0.046047,0.519606,-0.989658,36.4375,1,20774,34904386
59,2,-0.670371,-0.0851115,9.79216,0.0853534,-0.581574,0.996093,-0.00670785,-0.000860771,0.0979212,1,4.82779e-05,-2.1264e-05,1.4985e-05,0.00965558,-0.00425281,0.00299699,0,0,0,0,0.0464214,0.520162,-0.993688,36.4375,1,20775,34904486
60,1,-0.670371,-0.0851115,9.79216,0.0853534,-0.581574,0.996093,-0.00670785,-0.000860771,0.0979212,1,4.82779e-05,-2.1264e-05,1.4985e-05,0.00965558,-0.00425281,0.00299699,0,0,0,0,0.0464214,0.520162,-0.993688,36.4375,1,20775,34904486
60,2,-0.660572,-0.0785589,9.79213,0.0932655,-0.571227,0.991626,-0.00660413,-0.00079481,0.0979213,1,4.61637e-05,7.97441e-06,1.36292e-05,0.00923273,0.00159488,0.00272583,0,0,0,0,0.0444471,0.518769,-0.99674,36.4375,1,20776,34904586
61,1,-0.660572,-0.0785589,9.79213,0.0932655,-0.571227,0.991626,-0.00660413,-0.00079481,0.0979213,1,4.61637e-05,7.97441e-06,1.36292e-05,0.00923273,0.00159488,0.00272583,0,0,0,0,0.0444471,0.518769,-0.99674,36.4375,1,20776,34904586
61,2,-0.662591,-0.0847746,9.78905,0.0917242,-0.581591,0.9916,-0.00662887,-0.000855679,0.0978902,1,3.97358e-05,-1.52459e-05,1.15258e-05,0.00794716,-0.00304918,0.00230517,0,0,0,0,0.042999,0.516857,-0.998291,36.4375,1,20777,34904686
62,1,-0.662591,-0.0847746,9.78905,0.0917242,-0.581591,0.9916,-0.00662887,-0.000855679,0.0978902,1,3.97358e-05,-1.52459e-05,1.15258e-05,0.00794716,-0.00304918,0.00230517,0,0,0,0,0.042999,0.516857,-0.998291,36.4375,1,20777,34904686
62,2,-0.658618,-0.0778504,9.79044,0.0974169,-0.575886,0.992997,-0.00658877,-0.00078745,0.0979041,1,4.42955e-05,-1.33925e-05,2.07089e-05,0.00885911,-0.0026785,0.00414178,0,0,0,0,0.0445772,0.513855,-0.99483,36.4375,1,20778,34904786
63,1,-0.658618,-0.0778504,9.79044,0.0974169,-0.575886,0.992997,-0.00658877,-0.00078745,0.0979041,1,4.42955e-05,-1.33925e-05,2.07089e-05,0.00885911,-0.0026785,0.00414178,0,0,0,0,0.0445772,0.513855,-0.99483,36.4375,1,20778,34904786
63,2,-0.651175,-0.0850197,9.78083,0.102242,-0.578708,0.981309,-0.00651381,-0.000858111,0.0978081,1,3.9896e-05,-1.06132e-05,8.44896e-06,0.0079792,-0.00212265,0.00168979,0,0,0,0,0.045157,0.513779,-0.990793,36.4375,1,20779,34904886
64,1,-0.651175,-0.0850197,9.78083,0.102242,-0.578708,0.981309,-0.00651381,-0.000858111,0.0978081,1,3.9896e-05,-1.06132e-05,8.44896e-06,0.0079792,-0.00212265,0.00168979,0,0,0,0,0.045157,0.513779,-0.990793,36.4375,1,20779,34904886
64,2,-0.654367,-0.0822388,9.78155,0.101237,-0.574551,0.980367,-0.00654406,-0.000831431,0.0978154,1,4.4845e-05,-2.19592e-06,2.06103e-05,0.008969,-0.000439185,0.00412205,0,0,0,0,0.044664,0.515237,-0.990254,36.4375,1,20780,34904986
65,1,-0.654367,-0.0822388,9.78155,0.101237,-0.574551,0.980367,-0.00654406,-0.000831431,0.0978154,1,4.4845e-05,-2.19592e-06,2.06103e-05,0.008969,-0.000439185,0.00412205,0,0,0,0,0.044664,0.515237,-0.990254,36.4375,1,20780,34904986
65,2,-0.652047,-0.0894137,9.7869,0.103789,-0.586453,0.987218,-0.00652344,-0.000902921,0.0978687,1,4.44371e-05,-1.51956e-05,6.60295e-06,0.00888742,-0.00303911,0.00132059,0,0,0,0,0.0454668,0.518237,-0.994736,36.4375,1,20781,34905086
66,1,-0.652047,-0.0894137,9.7869,0.103789,-0.586453,0.987218,-0.00652344,-0.000902921,0.0978687,1,4.44371e-05,-1.51956e-05,6.60295e-06,0.00888742,-0.00303911,0.00132059,0,0,0,0,0.0454668,0.518237,-0.994736,36.4375,1,20781,34905086
66,2,-0.655885,-0.0872778,9.78864,0.0992043,-0.585549,0.987497,-0.0065602,-0.000885294,0.0978862,1,6.24769e-05,-7.10411e-06,2.16773e-05,0.0124954,-0.00142082,0.00433545,0,0,0,0,0.0473295,0.518266,-0.99727,36.4375,1,20782,34905186
67,1,-0.655885,-0.0872778,9.78864,0.0992043,-0.585549,0.987497,-0.0065602,-0.000885294,0.0978862,1,6.24769e-05,-7.10411e-06,2.16773e-05,0.0124954,-0.00142082,0.00433545,0,0,0,0,0.0473295,0.518266,-0.99727,36.4375,1,20782,34905186
67,2,-0.666431,-0.0782159,9.79761,0.0868478,-0.574734,1.00049,-0.00666552,-0.00078908,0.0979759,1,3.45279e-05,-6.2736e-06,1.16152e-05,0.00690558,-0.00125472,0.00232305,0,0,0,0,0.0459593,0.515333,-0.996318,36.4375,1,20783,34905286
67,3,-0.666431,-0.0782159,9.79761,0.0868478,-0.574734,1.00049,-0.00666552,-0.00078908,0.0979759,1,3.45279e-05,-6.2736e-06,1.16152e-05,0.00690558,-0.00125472,0.00232305,0,0,0,0,0.0459593,0.515333,-0.996318,36.4375,1,20783,34905286
67,4,-0.670261,-0.0803182,9.79286,0.0848048,-0.582226,0.996094,-0.00670325,-0.000813851,0.0979285,1,5.29326e-05,-3.44209e-06,2.25455e-05,0.0105865,-0.000688419,0.00450909,0,0,0,0,0.0427182,0.512859,-0.992823,36.4375,1,20784,34905386
68,1,-0.670261,-0.0803182,9.79286,0.0848048,-0.582226,0.996094,-0.00670325,-0.000813851,0.0979285,1,5.29326e-05,-3.44209e-06,2.25455e-05,0.0105865,-0.000688419,0.00450909,0,0,0,0,0.0427182,0.512859,-0.992823,36.4375,1,20784,34905386
68,2,-0.659871,-0.0828866,9.79787,0.096676,-0.583351,1.00273,-0.00660029,-0.000835039,0.0979785,1,3.0445e-05,-8.19004e-06,1.56964e-05,0.00608901,-0.00163801,0.00313927,0,0,0,0,0.0427642,0.515235,-0.989235,36.4375,1,20785,34905486
68,3,-0.659871,-0.0828866,9.79787,0.096676,-0.583351,1.00273,-0.00660029,-0.000835039,0.0979785,1,3.0445e-05,-8.19004e-06,1.56964e-05,0.00608901,-0.00163801,0.00313927,0,0,0,0,0.0427642,0.515235,-0.989235,36.4375,1,20785,34905486
68,4,-0.66459,-0.0899182,9.79411,0.0872056,-0.59272,0.995181,-0.0066485,-0.000908758,0.0979408,1,4.73653e-05,-1.34447e-05,2.24241e-05,0.00947305,-0.00268894,0.00448482,0,0,0,0,0.0451294,0.517654,-0.989192,36.4375,1,20786,34905586
68,5,-0.66459,-0.0899182,9.79411,0.0872056,-0.59272,0.995181,-0.0066485,-0.000908758,0.0979408,1,4.73653e-05,-1.34447e-05,2.24241e-05,0.00947305,-0.00268894,0.00448482,0,0,0,0,0.0451294,0.517654,-0.989192,36.4375,1,20786,34905586
68,6,-0.666562,-0.0801936,9.783,0.0862925,-0.58137,0.986945,-0.0066671,-0.000813672,0.0978298,1,5.84404e-05,-7.70947e-06,2.25903e-05,0.0116881,-0.00154189,0.00451807,0,0,0,0,0.0459934,0.519163,-0.992193,36.4375,1,20787,34905686
69,1,-0.666562,-0.0801936,9.783,0.0862925,-0.58137,0.986945,-0.0066671,-0.000813672,0.0978298,1,5.84404e-05,-7.70947e-06,2.25903e-05,0.0116881,-0.00154189,0.00451807,0,0,0,0,0.0459934,0.519163,-0.992193,36.4375,1,20787,34905686
69,2,-0.662624,-0.0912003,9.7917,0.092923,-0.595446,0.994348,-0.00662896,-0.000922814,0.0979168,1,5.43017e-05,-1.40183e-05,1.32994e-05,0.0108603,-0.00280367,0.00265989,0,0,0,0,0.0469182,0.517737,-0.994754,36.4375,1,20788,34905786
69,3,-0.662624,-0.0912003,9.7917,0.092923,-0.595446,0.994348,-0.00662896,-0.000922814,0.0979168,1,5.43017e-05,-1.40183e-05,1.32994e-05,0.0108603,-0.00280367,0.00265989,0,0,0,0,0.0469182,0.517737,-0.994754,36.4375,1,20788,34905786
69,4,-0.658993,-0.0774573,9.78468,0.0945969,-0.579234,0.986038,-0.00659272,-0.000784459,0.0978465,1,4.96023e-05,-1.43757e-05,1.35562e-05,0.00992047,-0.00287514,0.00271125,0,0,0,0,0.0455109,0.514832,-0.995317,36.4375,1,20789,34905886
70,1,-0.658993,-0.0774573,9.78468,0.0945969,-0.579234,0.986038,-0.00659272,-0.000784459,0.0978465,1,4.96023e-05,-1.43757e-05,1.35562e-05,0.00992047,-0.00287514,0.00271125,0,0,0,0,0.0455109,0.514832,-0.995317,36.4375,1,20789,34905886
70,2,-0.646419,-0.0777837,9.79442,0.10633,-0.582674,0.993731,-0.00646565,-0.000788735,0.0979441,1,5.4663e-05,-7.54002e-06,1.47186e-05,0.0109326,-0.001508,0.00294372,0,0,0,0,0.0431665,0.513361,-0.993824,36.4375,1,20790,34905986
70,3,-0.646419,-0.0777837,9.79442,0.10633,-0.582674,0.993731,-0.00646565,-0.000788735,0.0979441,1,5.4663e-05,-7.54002e-06,1.47186e-05,0.0109326,-0.001508,0.00294372,0,0,0,0,0.0431665,0.513361,-0.993824,36.4375,1,20790,34905986
70,4,-0.655329,-0.0753258,9.79585,0.0991712,-0.580893,0.997922,-0.0065544,-0.000760526,0.0979584,1,3.56473e-05,-5.83193e-06,2.16775e-05,0.00712945,-0.00116639,0.0043355,0,0,0,0,0.042209,0.515293,-0.992261,36.4375,1,20791,34906086
71,1,-0.655329,-0.0753258,9.79585,0.0991712,-0.580893,0.997922,-0.0065544,-0.000760526,0.0979584,1,3.56473e-05,-5.83193e-06,2.16775e-05,0.00712945,-0.00116639,0.0043355,0,0,0,0,0.042209,0.515293,-0.992261,36.4375,1,20791,34906086
71,2,-0.658336,-0.0868487,9.78561,0.093703,-0.593407,0.98707,-0.00658384,-0.000875204,0.097856,1,3.35537e-05,-2.54817e-06,1.13826e-05,0.00671074,-0.000509634,0.00227652,0,0,0,0,0.0446564,0.51717,-0.9892,36.4375,1,20792,34906186
71,3,-0.658336,-0.0868487,9.78561,0.093703,-0.593407,0.98707,-0.00658384,-0.000875204,0.097856,1,3.35537e-05,-2.54817e-06,1.13826e-05,0.00671074,-0.000509634,0.00227652,0,0,0,0,0.0446564,0.51717,-0.9892,36.4375,1,20792,34906186
71,4,-0.657165,-0.078482,9.79009,0.100405,-0.585769,0.98723,-0.00657501,-0.000795557,0.0979006,1,5.43391e-05,-1.72293e-05,7.4465e-06,0.0108678,-0.00344585,0.0014893,0,0,0,0,0.0455123,0.519167,-0.99219,36.4375,1,20793,34906286
71,5,-0.657165,-0.078482,9.79009,0.100405,-0.585769,0.98723,-0.00657501,-0.000795557,0.0979006,1,5.43391e-05,-1.72293e-05,7.4465e-06,0.0108678,-0.00344585,0.0014893,0,0,0,0,0.0455123,0.519167,-0.99219,36.4375,1,20793,34906286
71,6,-0.650829,-0.0820188,9.79272,0.0974057,-0.591159,0.9925,-0.00650911,-0.000827498,0.097927,1,3.58094e-05,-4.37926e-06,2.28397e-05,0.00716188,-0.000875851,0.00456793,0,0,0,0,0.0458905,0.518757,-0.996747,36.4375,1,20794,34906386
72,1,-0.650829,-0.0820188,9.79272,0.0974057,-0.591159,0.9925,-0.00650911,-0.000827498,0.097927,1,3.58094e-05,-4.37926e-06,2.28397e-05,0.00716188,-0.000875851,0.00456793,0,0,0,0,0.0458905,0.518757,-0.996747,36.4375,1,20794,34906386
72,2,-0.663039,-0.0888768,9.78935,0.0906954,-0.598369,0.989143,-0.00663147,-0.000898259,0.0978933,1,4.77843e-05,-5.6157e-06,1.01886e-05,0.00955687,-0.00112314,0.00203772,0,0,0,0,0.0459555,0.5163,-0.995792,36.4375,1,20795,34906486
72,3,-0.663039,-0.0888768,9.78935,0.0906954,-0.598369,0.989143,-0.00663147,-0.000898259,0.0978933,1,4.77843e-05,-5.6157e-06,1.01886e-05,0.00955687,-0.00112314,0.00203772,0,0,0,0,0.0459555,0.5163,-0.995792,36.4375,1,20795,34906486
72,4,-0.661259,-0.0854557,9.78734,0.0907049,-0.597994,0.987708,-0.00661645,-0.000863687,0.097873,1,4.51561e-05,-1.99397e-05,2.20462e-05,0.00903122,-0.00398793,0.00440924,0,0,0,0,0.0455807,0.514299,-0.992804,36.4375,1,20796,34906586
73,1,-0.661259,-0.0854557,9.78734,0.0907049,-0.597994,0.987708,-0.00661645,-0.000863687,0.097873,1,4.51561e-05,-1.99397e-05,2.20462e-05,0.00903122,-0.00398793,0.00440924,0,0,0,0,0.0455807,0.514299,-0.992804,36.4375,1,20796,34906586
73,2,-0.656243,-0.0853857,9.79442,0.0976005,-0.596224,0.99503,-0.00656357,-0.000863099,0.097944,1,4.6011e-05,-5.98674e-06,1.74754e-05,0.00920221,-0.00119735,0.00349507,0,0,0,0,0.0456305,0.515708,-0.989743,36.4375,1,20797,34906686
74,1,-0.656243,-0.0853857,9.79442,0.0976005,-0.596224,0.99503,-0.00656357,-0.000863099,0.097944,1,4.6011e-05,-5.98674e-06,1.74754e-05,0.00920221,-0.00119735,0.00349507,0,0,0,0,0.0456305,0.515708,-0.989743,36.4375,1,20797,34906686
74,2,-0.66471,-0.0907523,9.79646,0.0884705,-0.601876,0.999804,-0.00664808,-0.000915494,0.0979645,1,3.98438e-05,-5.11503e-06,1.24072e-05,0.00796875,-0.00102301,0.00248144,0,0,0,0,0.0465609,0.519096,-0.988661,36.4375,1,20798,34906786
74,3,-0.66471,-0.0907523,9.79646,0.0884705,-0.601876,0.999804,-0.00664808,-0.000915494,0.0979645,1,3.98438e-05,-5.11503e-06,1.24072e-05,0.00796875,-0.00102301,0.00248144,0,0,0,0,0.0465609,0.519096,-0.988661,36.4375,1,20798,34906786
74,4,-0.662738,-0.0788015,9.78435,0.0868095,-0.591358,0.985428,-0.00662946,-0.000798818,0.0978433,1,5.39498e-05,-1.07993e-05,1.85574e-05,0.01079,-0.00215985,0.00371148,0,0,0,0,0.0474164,0.519648,-0.992694,36.4375,1,20799,34906886
74,5,-0.662738,-0.0788015,9.78435,0.0868095,-0.591358,0.985428,-0.00662946,-0.000798818,0.0978433,1,5.39498e-05,-1.07993e-05,1.85574e-05,0.01079,-0.00215985,0.00371148,0,0,0,0,0.0474164,0.519648,-0.992694,36.4375,1,20799,34906886
74,6,-0.652487,-0.0775837,9.79447,0.0980263,-0.587714,0.991072,-0.00652796,-0.00078409,0.0979444,1,4.15873e-05,-1.58547e-05,8.15102e-06,0.00831747,-0.00317093,0.0016302,0,0,0,0,0.0483203,0.517273,-0.996791,36.4375,1,20800,34906986
75,1,-0.652487,-0.0775837,9.79447,0.0980263,-0.587714,0.991072,-0.00652796,-0.00078409,0.0979444,1,4.15873e-05,-1.58547e-05,8.15102e-06,0.00831747,-0.00317093,0.0016302,0,0,0,0,0.0483203,0.517273,-0.996791,36.4375,1,20800,34906986
75,2,-0.656298,-0.0795759,9.78566,0.0950655,-0.596194,0.98753,-0.00656486,-0.00080449,0.0978564,1,4.26639e-05,-9.87402e-06,2.90703e-05,0.00853277,-0.0019748,0.00581406,0,0,0,0,0.0459185,0.516327,-0.997306,36.4375,1,20801,34907086
75,3,-0.656298,-0.0795759,9.78566,0.0950655,-0.596194,0.98753,-0.00656486,-0.00080449,0.0978564,1,4.26639e-05,-9.87402e-06,2.90703e-05,0.00853277,-0.0019748,0.00581406,0,0,0,0,0.0459185,0.516327,-0.997306,36.4375,1,20801,34907086
75,4,-0.649935,-0.0726059,9.79042,0.0968694,-0.589049,0.989998,-0.0065004,-0.000736752,0.097904,1,5.32995e-05,-5.47082e-06,1.97386e-05,0.0106599,-0.00109416,0.00394772,0,0,0,0,0.0436562,0.514315,-0.992795,36.4375,1,20802,34907186
75,5,-0.649935,-0.0726059,9.79042,0.0968694,-0.589049,0.989998,-0.0065004,-0.000736752,0.097904,1,5.32995e-05,-5.47082e-06,1.97386e-05,0.0106599,-0.00109416,0.00394772,0,0,0,0,0.0436562,0.514315,-0.992795,36.4375,1,20802,34907186
75,6,-0.659377,-0.0777537,9.7884,0.0930791,-0.591548,0.989295,-0.006595,-0.000789579,0.0978839,1,6.05752e-05,-6.3531e-06,1.3912e-05,0.012115,-0.00127062,0.00278239,0,0,0,0,0.0427599,0.514756,-0.989751,36.4375,1,20803,34907286
75,7,-0.659377,-0.0777537,9.7884,0.0930791,-0.591548,0.989295,-0.006595,-0.000789579,0.0978839,1,6.05752e-05,-6.3531e-06,1.3912e-05,0.012115,-0.00127062,0.00278239,0,0,0,0,0.0427599,0.514756,-0.989751,36.4375,1,20803,34907286
75,8,-0.655874,-0.0864349,9.79136,0.0971549,-0.601525,0.987871,-0.00656063,-0.000872283,0.0979134,1,3.89163e-05,-9.86996e-06,2.38475e-05,0.00778325,-0.00197399,0.0047695,0,0,0,0,0.0451702,0.51666,-0.988204,36.4375,1,20804,34907386
75,9,-0.655874,-0.0864349,9.79136,0.0971549,-0.601525,0.987871,-0.00656063,-0.000872283,0.0979134,1,3.89163e-05,-9.86996e-06,2.38475e-05,0.00778325,-0.00197399,0.0047695,0,0,0,0,0.0451702,0.51666,-0.988204,36.4375,1,20804,34907386
75,10,-0.668782,-0.0833791,9.79249,0.0857787,-0.602414,0.992337,-0.0066894,-0.000844592,0.0979247,1,5.43111e-05,-8.19153e-06,1.22765e-05,0.0108622,-0.00163831,0.00245529,0,0,0,0,0.0445947,0.517215,-0.991724,36.4375,1,20805,34907486
76,1,-0.668782,-0.0833791,9.79249,0.0857787,-0.602414,0.992337,-0.0066894,-0.000844592,0.0979247,1,5.43111e-05,-8.19153e-06,1.22765e-05,0.0108622,-0.00163831,0.00245529,0,0,0,0,0.0445947,0.517215,-0.991724,36.4375,1,20805,34907486
76,2,-0.666099,-0.0863499,9.79075,0.0875438,-0.602841,0.989175,-0.00666289,-0.000876138,0.0979073,1,6.39092e-05,-9.78638e-06,9.36173e-06,0.0127818,-0.00195728,0.00187234,0,0,0,0,0.0454748,0.517749,-0.994747,36.4375,1,20806,34907586
76,3,-0.666099,-0.0863499,9.79075,0.0875438,-0.602841,0.989175,-0.00666289,-0.000876138,0.0979073,1,6.39092e-05,-9.78638e-06,9.36173e-06,0.0127818,-0.00195728,0.00187234,0,0,0,0,0.0454748,0.517749,-0.994747,36.4375,1,20806,34907586
76,4,-0.659107,-0.0802778,9.79414,0.090369,-0.599154,0.99317,-0.00659036,-0.000811802,0.0979414,1,4.49716e-05,3.49829e-06,1.63094e-05,0.00899433,0.000699657,0.00326188,0,0,0,0,0.0454502,0.517767,-0.995757,36.4375,1,20807,34907686
77,1,-0.659107,-0.0802778,9.79414,0.090369,-0.599154,0.99317,-0.00659036,-0.000811802,0.0979414,1,4.49716e-05,3.49829e-06,1.63094e-05,0.00899433,0.000699657,0.00326188,0,0,0,0,0.0454502,0.517767,-0.995757,36.4375,1,20807,34907686
77,2,-0.645707,-0.0752268,9.79038,0.106626,-0.597892,0.993696,-0.00645989,-0.000763747,0.0979035,1,5.80718e-05,-1.44649e-05,8.36142e-06,0.0116144,-0.00289299,0.00167228,0,0,0,0,0.0431589,0.515294,-0.992771,36.4375,1,20808,34907786
77,3,-0.645707,-0.0752268,9.79038,0.106626,-0.597892,0.993696,-0.00645989,-0.000763747,0.0979035,1,5.80718e-05,-1.44649e-05,8.36142e-06,0.0116144,-0.00289299,0.00167228,0,0,0,0,0.0431589,0.515294,-0.992771,36.4375,1,20808,34907786
77,4,-0.664777,-0.0883139,9.7836,0.0864008,-0.609025,0.982722,-0.00665068,-0.000895312,0.0978357,1,6.15957e-05,-1.49255e-05,9.09388e-06,0.0123191,-0.0029851,0.00181878,0,0,0,0,0.0437264,0.515227,-0.989239,36.4375,1,20809,34907886
78,1,-0.664777,-0.0883139,9.7836,0.0864008,-0.609025,0.982722,-0.00665068,-0.000895312,0.0978357,1,6.15957e-05,-1.49255e-05,9.09388e-06,0.0123191,-0.0029851,0.00181878,0,0,0,0,0.0437264,0.515227,-0.989239,36.4375,1,20809,34907886
78,2,-0.669073,-0.0758101,9.78341,0.0788161,-0.600592,0.986737,-0.00669568,-0.0007684,0.0978337,1,5.12655e-05,-2.54869e-05,2.00213e-05,0.0102531,-0.00509737,0.00400427,0,0,0,0,0.0451417,0.517645,-0.988687,36.4375,1,20810,34907986
78,3,-0.669073,-0.0758101,9.78341,0.0788161,-0.600592,0.986737,-0.00669568,-0.0007684,0.0978337,1,5.12655e-05,-2.54869e-05,2.00213e-05,0.0102531,-0.00509737,0.00400427,0,0,0,0,0.0451417,0.517645,-0.988687,36.4375,1,20810,34907986
78,4,-0.659575,-0.0885242,9.80052,0.0913444,-0.608294,1.00129,-0.00659685,-0.00089568,0.098005,1,5.16195e-05,-5.82111e-06,2.4261e-05,0.0103239,-0.00116422,0.00485219,0,0,0,0,0.044978,0.520174,-0.993681,36.4375,1,20811,34908086
79,1,-0.659575,-0.0885242,9.80052,0.0913444,-0.608294,1.00129,-0.00659685,-0.00089568,0.098005,1,5.16195e-05,-5.82111e-06,2.4261e-05,0.0103239,-0.00116422,0.00485219,0,0,0,0,0.044978,0.520174,-0.993681,36.4375,1,20811,34908086
79,2,-0.660654,-0.078844,9.79315,0.0888402,-0.603018,0.990076,-0.00660945,-0.000797635,0.0979312,1,4.60297e-05,-1.49585e-05,1.36404e-05,0.00920594,-0.00299171,0.00272809,0,0,0,0,0.0454008,0.517803,-0.997776,36.4375,1,20812,34908186
79,3,-0.660654,-0.078844,9.79315,0.0888402,-0.603018,0.990076,-0.00660945,-0.000797635,0.0979312,1,4.60297e-05,-1.49585e-05,1.36404e-05,0.00920594,-0.00299171,0.00272809,0,0,0,0,0.0454008,0.517803,-0.997776,36.4375,1,20812,34908186
79,4,-0.659178,-0.0800757,9.78738,0.0887888,-0.606076,0.98487,-0.00659727,-0.000809255,0.0978734,1,4.30422e-05,-2.81443e-05,5.52797e-06,0.00860844,-0.00562886,0.00110559,0,0,0,0,0.0430721,0.513912,-0.997347,36.4375,1,20813,34908286
79,5,-0.659178,-0.0800757,9.78738,0.0887888,-0.606076,0.98487,-0.00659727,-0.000809255,0.0978734,1,4.30422e-05,-2.81443e-05,5.52797e-06,0.00860844,-0.00562886,0.00110559,0,0,0,0,0.0430721,0.513912,-0.997347,36.4375,1,20813,34908286
79,6,-0.660314,-0.0813611,9.78736,0.0879771,-0.608774,0.989183,-0.00660538,-0.000820782,0.0978734,1,3.59472e-05,-1.15373e-05,1.01737e-05,0.00718943,-0.00230746,0.00203474,0,0,0,0,0.0431827,0.512386,-0.993846,36.4375,1,20814,34908386
80,1,-0.660314,-0.0813611,9.78736,0.0879771,-0.608774,0.989183,-0.00660538,-0.000820782,0.0978734,1,3.59472e-05,-1.15373e-05,1.01737e-05,0.00718943,-0.00230746,0.00203474,0,0,0,0,0.0431827,0.512386,-0.993846,36.4375,1,20814,34908386
80,2,-0.661345,-0.0819088,9.78228,0.0853208,-0.60802,0.984239,-0.00661577,-0.000829481,0.0978226,1,5.2253e-05,-1.19988e-05,1.29042e-05,0.0104506,-0.00239975,0.00258083,0,0,0,0,0.0451778,0.514727,-0.989257,36.4375,1,20815,34908486
80,3,-0.661345,-0.0819088,9.78228,0.0853208,-0.60802,0.984239,-0.00661577,-0.000829481,0.0978226,1,5.2253e-05,-1.19988e-05,1.29042e-05,0.0104506,-0.00239975,0.00258083,0,0,0,0,0.0451778,0.514727,-0.989257,36.4375,1,20815,34908486
80,4,-0.653412,-0.0792336,9.79311,0.0916068,-0.600605,0.990184,-0.00653672,-0.000801615,0.0979309,1,4.66836e-05,-1.33996e-05,1.03689e-05,0.00933673,-0.00267991,0.00207377,0,0,0,0,0.0456347,0.516187,-0.989227,36.4375,1,20816,34908586
81,1,-0.653412,-0.0792336,9.79311,0.0916068,-0.600605,0.990184,-0.00653672,-0.000801615,0.0979309,1,4.66836e-05,-1.33996e-05,1.03689e-05,0.00933673,-0.00267991,0.00207377,0,0,0,0,0.0456347,0.516187,-0.989227,36.4375,1,20816,34908586
81,2,-0.667896,-0.0769006,9.78779,0.0806939,-0.598847,0.985662,-0.00668064,-0.000777163,0.0978777,1,4.18667e-05,-8.59051e-06,-2.83862e-06,0.00837334,-0.0017181,-0.000567724,0,0,0,0,0.0460015,0.518676,-0.992204,36.4375,1,20817,34908686
81,3,-0.667896,-0.0769006,9.78779,0.0806939,-0.598847,0.985662,-0.00668064,-0.000777163,0.0978777,1,4.18667e-05,-8.59051e-06,-2.83862e-06,0.00837334,-0.0017181,-0.000567724,0,0,0,0,0.0460015,0.518676,-0.992204,36.4375,1,20817,34908686
81,4,-0.66368,-0.0810321,9.79858,0.0828355,-0.610193,0.995261,-0.00663877,-0.000820418,0.0979856,1,5.03976e-05,-1.01644e-05,1.6613e-05,0.0100795,-0.00203287,0.00332259,0,0,0,0,0.0474202,0.518682,-0.99322,36.4375,1,20818,34908786
82,1,-0.66368,-0.0810321,9.79858,0.0828355,-0.610193,0.995261,-0.00663877,-0.000820418,0.0979856,1,5.03976e-05,-1.01644e-05,1.6613e-05,0.0100795,-0.00203287,0.00332259,0,0,0,0,0.0474202,0.518682,-0.99322,36.4375,1,20818,34908786
82,2,-0.66091,-0.0949621,9.79437,0.0859776,-0.623485,0.991668,-0.00661068,-0.000960009,0.0979435,1,5.12208e-05,-8.34676e-06,2.68575e-05,0.0102442,-0.00166935,0.00537151,0,0,0,0,0.0445159,0.515345,-0.996311,36.4375,1,20819,34908886
82,3,-0.66091,-0.0949621,9.79437,0.0859776,-0.623485,0.991668,-0.00661068,-0.000960009,0.0979435,1,5.12208e-05,-8.34676e-06,2.68575e-05,0.0102442,-0.00166935,0.00537151,0,0,0,0,0.0445159,0.515345,-0.996311,36.4375,1,20819,34908886
82,4,-0.659264,-0.0930155,9.78658,0.0847548,-0.620669,0.988109,-0.00659414,-0.000937637,0.0978656,1,3.7292e-05,-7.81379e-06,1.38823e-05,0.0074584,-0.00156276,0.00277645,0,0,0,0,0.0431538,0.511925,-0.995371,36.4375,1,20820,34908986
83,1,-0.659264,-0.0930155,9.78658,0.0847548,-0.620669,0.988109,-0.00659414,-0.000937637,0.0978656,1,3.7292e-05,-7.81379e-06,1.38823e-05,0.0074584,-0.00156276,0.00277645,0,0,0,0,0.0431538,0.511925,-0.995371,36.4375,1,20820,34908986
83,2,-0.670993,-0.0812268,9.78777,0.0721671,-0.606779,0.989754,-0.00671018,-0.000824585,0.0978776,1,6.19515e-05,-1.41e-06,1.41804e-05,0.0123903,-0.000282,0.00283608,0,0,0,0,0.0451119,0.514294,-0.992297,36.4375,1,20821,34909086
83,3,-0.670993,-0.0812268,9.78777,0.0721671,-0.606779,0.989754,-0.00671018,-0.000824585,0.0978776,1,6.19515e-05,-1.41e-06,1.41804e-05,0.0123903,-0.000282,0.00283608,0,0,0,0,0.0451119,0.514294,-0.992297,36.4375,1,20821,34909086
83,4,-0.653978,-0.0808627,9.78834,0.0906157,-0.606761,0.987661,-0.00654102,-0.000818676,0.0978832,1,5.02765e-05,-6.44272e-06,1.57489e-05,0.0100553,-0.00128854,0.00314977,0,0,0,0,0.0474899,0.518149,-0.990707,36.4375,1,20822,34909186
83,5,-0.653978,-0.0808627,9.78834,0.0906157,-0.606761,0.987661,-0.00654102,-0.000818676,0.0978832,1,5.02765e-05,-6.44272e-06,1.57489e-05,0.0100553,-0.00128854,0.00314977,0,0,0,0,0.0474899,0.518149,-0.990707,36.4375,1,20822,34909186
83,6,-0.648721,-0.0879441,9.79096,0.0950097,-0.616265,0.988274,-0.00648908,-0.000889103,0.0979094,1,4.75626e-05,-9.83659e-06,2.6852e-05,0.00951251,-0.00196732,0.00537041,0,0,0,0,0.0484075,0.520101,-0.991173,36.4375,1,20823,34909286
84,1,-0.648721,-0.0879441,9.79096,0.0950097,-0.616265,0.988274,-0.00648908,-0.000889103,0.0979094,1,4.75626e-05,-9.83659e-06,2.6852e-05,0.00951251,-0.00196732,0.00537041,0,0,0,0,0.0484075,0.520101,-0.991173,36.4375,1,20823,34909286
84,2,-0.661921,-0.0891783,9.79274,0.0796887,-0.621813,0.991282,-0.00662262,-0.00090269,0.0979271,1,5.53168e-05,-1.74605e-05,5.49306e-06,0.0110634,-0.0034921,0.00109861,0,0,0,0,0.0469144,0.518704,-0.994227,36.4375,1,20824,34909386
84,3,-0.661921,-0.0891783,9.79274,0.0796887,-0.621813,0.991282,-0.00662262,-0.00090269,0.0979271,1,5.53168e-05,-1.74605e-05,5.49306e-06,0.0110634,-0.0034921,0.00109861,0,0,0,0,0.0469144,0.518704,-0.994227,36.4375,1,20824,34909386
84,4,-0.667375,-0.081631,9.79657,0.0776837,-0.613418,0.997926,-0.00667602,-0.000827716,0.0979654,1,5.73286e-05,-1.17233e-05,1.29787e-05,0.0114657,-0.00234466,0.00259574,0,0,0,0,0.0440021,0.515855,-0.997308,36.4375,1,20825,34909486
85,1,-0.667375,-0.081631,9.79657,0.0776837,-0.613418,0.997926,-0.00667602,-0.000827716,0.0979654,1,5.73286e-05,-1.17233e-05,1.29787e-05,0.0114657,-0.00234466,0.00259574,0,0,0,0,0.0440021,0.515855,-0.997308,36.4375,1,20825,34909486
85,2,-0.666876,-0.0860726,9.78838,0.0738389,-0.613274,0.98794,-0.00666846,-0.000871502,0.0978837,1,5.41024e-05,1.38752e-06,1.38171e-05,0.0108205,0.000277504,0.00276341,0,0,0,0,0.0431708,0.51384,-0.993308,36.4375,1,20826,34909586
85,3,-0.666876,-0.0860726,9.78838,0.0738389,-0.613274,0.98794,-0.00666846,-0.000871502,0.0978837,1,5.41024e-05,1.38752e-06,1.38171e-05,0.0108205,0.000277504,0.00276341,0,0,0,0,0.0431708,0.51384,-0.993308,36.4375,1,20826,34909586
85,4,-0.666445,-0.0826202,9.78739,0.0793864,-0.612111,0.991292,-0.00666687,-0.00083665,0.0978737,1,5.30686e-05,-1.23606e-05,4.46298e-06,0.0106137,-0.00247212,0.000892596,0,0,0,0,0.043241,0.514752,-0.989753,36.4375,1,20827,34909686
86,1,-0.666445,-0.0826202,9.78739,0.0793864,-0.612111,0.991292,-0.00666687,-0.00083665,0.0978737,1,5.30686e-05,-1.23606e-05,4.46298e-06,0.0106137,-0.00247212,0.000892596,0,0,0,0,0.043241,0.514752,-0.989753,36.4375,1,20827,34909686
86,2,-0.658411,-0.0867319,9.78594,0.0870367,-0.618817,0.983714,-0.00658429,-0.00087601,0.0978593,1,4.35598e-05,-1.04361e-06,1.25935e-05,0.00871197,-0.000208722,0.0025187,0,0,0,0,0.0460708,0.516697,-0.990733,36.4375,1,20828,34909786
86,3,-0.658411,-0.0867319,9.78594,0.0870367,-0.618817,0.983714,-0.00658429,-0.00087601,0.0978593,1,4.35598e-05,-1.04361e-06,1.25935e-05,0.00871197,-0.000208722,0.0025187,0,0,0,0,0.0460708,0.516697,-0.990733,36.4375,1,20828,34909786
86,4,-0.655173,-0.0870745,9.78762,0.0864815,-0.620942,0.984128,-0.00655432,-0.000879007,0.097876,1,4.11905e-05,-1.33384e-05,1.51396e-05,0.0082381,-0.00266769,0.00302793,0,0,0,0,0.0464375,0.519186,-0.99371,36.4375,1,20829,34909886
87,1,-0.655173,-0.0870745,9.78762,0.0864815,-0.620942,0.984128,-0.00655432,-0.000879007,0.097876,1,4.11905e-05,-1.33384e-05,1.51396e-05,0.0082381,-0.00266769,0.00302793,0,0,0,0,0.0464375,0.519186,-0.99371,36.4375,1,20829,34909886
87,2,-0.66191,-0.0861663,9.7948,0.0818901,-0.619556,0.991306,-0.00662226,-0.0008709,0.0979477,1,4.57634e-05,-1.63017e-05,2.05096e-05,0.00915268,-0.00326034,0.00410191,0,0,0,0,0.0458658,0.518775,-0.997756,36.4375,1,20830,34909986
87,3,-0.66191,-0.0861663,9.7948,0.0818901,-0.619556,0.991306,-0.00662226,-0.0008709,0.0979477,1,4.57634e-05,-1.63017e-05,2.05096e-05,0.00915268,-0.00326034,0.00410191,0,0,0,0,0.0458658,0.518775,-0.997756,36.4375,1,20830,34909986
87,4,-0.66305,-0.0833334,9.79109,0.0790711,-0.620947,0.988148,-0.00663205,-0.000842908,0.0979108,1,4.7639e-05,-8.10237e-06,1.85129e-05,0.0095278,-0.00162047,0.00370258,0,0,0,0,0.0435333,0.51585,-0.996801,36.4375,1,20831,34910086
87,5,-0.66305,-0.0833334,9.79109,0.0790711,-0.620947,0.988148,-0.00663205,-0.000842908,0.0979108,1,4.7639e-05,-8.10237e-06,1.85129e-05,0.0095278,-0.00162047,0.00370258,0,0,0,0,0.0435333,0.51585,-0.996801,36.4375,1,20831,34910086
87,6,-0.664224,-0.0871291,9.78939,0.073763,-0.629593,0.992026,-0.00664453,-0.000881451,0.0978937,1,5.00478e-05,-1.19265e-05,2.71623e-05,0.0100095,-0.00238531,0.00543246,0,0,0,0,0.042229,0.513351,-0.99281,36.4375,1,20832,34910186
88,1,-0.664224,-0.0871291,9.78939,0.073763,-0.629593,0.992026,-0.00664453,-0.000881451,0.0978937,1,5.00478e-05,-1.19265e-05,2.71623e-05,0.0100095,-0.00238531,0.00543246,0,0,0,0,0.042229,0.513351,-0.99281,36.4375,1,20832,34910186
88,2,-0.657711,-0.0796537,9.78973,0.0859547,-0.618881,0.987491,-0.00657857,-0.000804219,0.0978972,1,3.72342e-05,-7.72983e-06,2.97615e-05,0.00744683,-0.00154597,0.00595231,0,0,0,0,0.0427229,0.514783,-0.991265,36.4375,1,20833,34910286
88,3,-0.657711,-0.0796537,9.78973,0.0859547,-0.618881,0.987491,-0.00657857,-0.000804219,0.0978972,1,3.72342e-05,-7.72983e-06,2.97615e-05,0.00744683,-0.00154597,0.00595231,0,0,0,0,0.0427229,0.514783,-0.991265,36.4375,1,20833,34910286
88,4,-0.668446,-0.089665,9.7904,0.0735353,-0.623953,0.990621,-0.00668599,-0.00090555,0.0979038,1,4.44557e-05,-7.93506e-06,1.45919e-05,0.00889115,-0.00158701,0.00291837,0,0,0,0,0.0456717,0.51616,-0.987713,36.4375,1,20834,34910386
89,1,-0.668446,-0.089665,9.7904,0.0735353,-0.623953,0.990621,-0.00668599,-0.00090555,0.0979038,1,4.44557e-05,-7.93506e-06,1.45919e-05,0.00889115,-0.00158701,0.00291837,0,0,0,0,0.0456717,0.51616,-0.987713,36.4375,1,20834,34910386
89,2,-0.657228,-0.0833468,9.79038,0.0859441,-0.618216,0.986002,-0.00657492,-0.000843284,0.0979035,1,4.96563e-05,-1.35393e-05,7.07621e-06,0.00993126,-0.00270787,0.00141524,0,0,0,0,0.0469965,0.518162,-0.99121,36.4375,1,20835,34910486
90,1,-0.657228,-0.0833468,9.79038,0.0859441,-0.618216,0.986002,-0.00657492,-0.000843284,0.0979035,1,4.96563e-05,-1.35393e-05,7.07621e-06,0.00993126,-0.00270787,0.00141524,0,0,0,0,0.0469965,0.518162,-0.99121,36.4375,1,20835,34910486
90,2,-0.655239,-0.0920477,9.7913,0.087088,-0.630609,0.981629,-0.00655369,-0.000931366,0.0979128,1,5.48083e-05,-6.72979e-06,1.19567e-05,0.0109617,-0.00134596,0.00239134,0,0,0,0,0.0449159,0.518774,-0.997247,36.4375,1,20836,34910586
90,3,-0.655239,-0.0920477,9.7913,0.087088,-0.630609,0.981629,-0.00655369,-0.000931366,0.0979128,1,5.48083e-05,-6.72979e-06,1.19567e-05,0.0109617,-0.00134596,0.00239134,0,0,0,0,0.0449159,0.518774,-0.997247,36.4375,1,20836,34910586
90,4,-0.657321,-0.0847046,9.78765,0.0836563,-0.623203,0.986725,-0.00657417,-0.000856123,0.0978764,1,4.53833e-05,-5.02728e-06,1.46889e-05,0.00907667,-0.00100546,0.00293778,0,0,0,0,0.042991,0.517344,-0.99828,36.4375,1,20837,34910686
91,1,-0.657321,-0.0847046,9.78765,0.0836563,-0.623203,0.986725,-0.00657417,-0.000856123,0.0978764,1,4.53833e-05,-5.02728e-06,1.46889e-05,0.00907667,-0.00100546,0.00293778,0,0,0,0,0.042991,0.517344,-0.99828,36.4375,1,20837,34910686
91,2,-0.660158,-0.0778759,9.78976,0.0821353,-0.614063,0.987384,-0.0066031,-0.000787457,0.0978974,1,4.3243e-05,-7.86748e-06,1.74629e-05,0.00864861,-0.0015735,0.00349258,0,0,0,0,0.0441288,0.513353,-0.993828,36.4375,1,20838,34910786
92,1,-0.660158,-0.0778759,9.78976,0.0821353,-0.614063,0.987384,-0.0066031,-0.000787457,0.0978974,1,4.3243e-05,-7.86748e-06,1.74629e-05,0.00864861,-0.0015735,0.00349258,0,0,0,0,0.0441288,0.513353,-0.993828,36.4375,1,20838,34910786
92,2,-0.670472,-0.0688685,9.79736,0.076002,-0.609445,0.99767,-0.00670212,-0.000696963,0.0979737,1,4.15853e-05,1.32195e-05,9.66528e-06,0.00831706,0.00264391,0.00193306,0,0,0,0,0.045667,0.514236,-0.98927,36.4375,1,20839,34910886
93,1,-0.670472,-0.0688685,9.79736,0.076002,-0.609445,0.99767,-0.00670212,-0.000696963,0.0979737,1,4.15853e-05,1.32195e-05,9.66528e-06,0.00831706,0.00264391,0.00193306,0,0,0,0,0.045667,0.514236,-0.98927,36.4375,1,20839,34910886
93,2,-0.655657,-0.0792682,9.79039,0.0854445,-0.614823,0.990423,-0.00655768,-0.000800743,0.0979038,1,4.05535e-05,-5.75004e-06,9.21081e-06,0.0081107,-0.00115001,0.00184216,0,0,0,0,0.0475431,0.517146,-0.989214,36.4375,1,20840,34910986
94,1,-0.655657,-0.0792682,9.79039,0.0854445,-0.614823,0.990423,-0.00655768,-0.000800743,0.0979038,1,4.05535e-05,-5.75004e-06,9.21081e-06,0.0081107,-0.00115001,0.00184216,0,0,0,0,0.0475431,0.517146,-0.989214,36.4375,1,20840,34910986
94,2,-0.660977,-0.092649,9.78795,0.0823042,-0.630961,0.982144,-0.00661175,-0.000934698,0.0978793,1,4.12892e-05,-1.02035e-05,9.42888e-06,0.00825785,-0.0020407,0.00188578,0,0,0,0,0.0469229,0.519661,-0.993196,36.4375,1,20841,34911086
95,1,-0.660977,-0.092649,9.78795,0.0823042,-0.630961,0.982144,-0.00661175,-0.000934698,0.0978793,1,4.12892e-05,-1.02035e-05,9.42888e-06,0.00825785,-0.0020407,0.00188578,0,0,0,0,0.0469229,0.519661,-0.993196,36.4375,1,20841,34911086
95,2,-0.656143,-0.0867078,9.78797,0.0852043,-0.628636,0.984023,-0.00656572,-0.000877249,0.0978793,1,5.01815e-05,-2.21413e-05,2.6431e-05,0.0100363,-0.00442825,0.0052862,0,0,0,0,0.0453851,0.520224,-0.996712,36.4375,1,20842,34911186
96,1,-0.656143,-0.0867078,9.78797,0.0852043,-0.628636,0.984023,-0.00656572,-0.000877249,0.0978793,1,5.01815e-05,-2.21413e-05,2.6431e-05,0.0100363,-0.00442825,0.0052862,0,0,0,0,0.0453851,0.520224,-0.996712,36.4375,1,20842,34911186
96,2,-0.654178,-0.0805962,9.79241,0.0850259,-0.62189,0.989136,-0.00654335,-0.000815361,0.097924,1,4.69723e-05,-8.16198e-06,1.52399e-05,0.00939446,-0.0016324,0.00304798,0,0,0,0,0.0444675,0.518272,-0.996246,36.4375,1,20843,34911286
97,1,-0.654178,-0.0805962,9.79241,0.0850259,-0.62189,0.989136,-0.00654335,-0.000815361,0.097924,1,4.69723e-05,-8.16198e-06,1.52399e-05,0.00939446,-0.0016324,0.00304798,0,0,0,0,0.0444675,0.518272,-0.996246,36.4375,1,20843,34911286
97,2,-0.653234,-0.0821747,9.7873,0.0915772,-0.62362,0.986106,-0.00653394,-0.000831402,0.0978728,1,4.92782e-05,-8.1732e-06,6.48321e-07,0.00985563,-0.00163464,0.000129664,0,0,0,0,0.0446308,0.514298,-0.992295,36.4375,1,20844,34911386
97,3,-0.653234,-0.0821747,9.7873,0.0915772,-0.62362,0.986106,-0.00653394,-0.000831402,0.0978728,1,4.92782e-05,-8.1732e-06,6.48321e-07,0.00985563,-0.00163464,0.000129664,0,0,0,0,0.0446308,0.514298,-0.992295,36.4375,1,20844,34911386
97,4,-0.664836,-0.0890554,9.79243,0.0735746,-0.634602,0.989491,-0.00665264,-0.000896918,0.097924,1,3.1706e-05,-2.19588e-05,1.15928e-05,0.0063412,-0.00439177,0.00231857,0,0,0,0,0.0446967,0.514731,-0.989255,36.4375,1,20845,34911486
98,1,-0.664836,-0.0890554,9.79243,0.0735746,-0.634602,0.989491,-0.00665264,-0.000896918,0.097924,1,3.1706e-05,-2.19588e-05,1.15928e-05,0.0063412,-0.00439177,0.00231857,0,0,0,0,0.0446967,0.514731,-0.989255,36.4375,1,20845,34911486
98,2,-0.659415,-0.078515,9.7928,0.0836661,-0.620926,0.989767,-0.00659455,-0.00079537,0.0979279,1,5.13512e-05,-2.13851e-06,1.23177e-05,0.0102703,-0.000427702,0.00246355,0,0,0,0,0.0460959,0.518125,-0.988681,36.4375,1,20846,34911586
98,3,-0.659415,-0.078515,9.7928,0.0836661,-0.620926,0.989767,-0.00659455,-0.00079537,0.0979279,1,5.13512e-05,-2.13851e-06,1.23177e-05,0.0102703,-0.000427702,0.00246355,0,0,0,0,0.0460959,0.518125,-0.988681,36.4375,1,20846,34911586
98,4,-0.671511,-0.0668719,9.78518,0.0714172,-0.606751,0.978315,-0.00671423,-0.000680052,0.0978518,1,5.63618e-05,4.34745e-06,2.25026e-05,0.0112724,0.000869491,0.00450052,0,0,0,0,0.0464541,0.519656,-0.992689,36.4375,1,20847,34911686
99,1,-0.671511,-0.0668719,9.78518,0.0714172,-0.606751,0.978315,-0.00671423,-0.000680052,0.0978518,1,5.63618e-05,4.34745e-06,2.25026e-05,0.0112724,0.000869491,0.00450052,0,0,0,0,0.0464541,0.519656,-0.992689,36.4375,1,20847,34911686
99,2,-0.661109,-0.0761644,9.79284,0.0798976,-0.616724,0.98983,-0.00661214,-0.000771496,0.0979282,1,4.96265e-05,-5.45168e-06,1.00006e-05,0.00992529,-0.00109034,0.00200013,0,0,0,0,0.0454625,0.517758,-0.995252,36.4375,1,20848,34911786
99,3,-0.661109,-0.0761644,9.79284,0.0798976,-0.616724,0.98983,-0.00661214,-0.000771496,0.0979282,1,4.96265e-05,-5.45168e-06,1.00006e-05,0.00992529,-0.00109034,0.00200013,0,0,0,0,0.0454625,0.517758,-0.995252,36.4375,1,20848,34911786
99,4,-0.653862,-0.0907348,9.79334,0.09077,-0.63721,0.989481,-0.00653936,-0.00091859,0.0979332,1,5.58048e-05,-4.01791e-06,2.38346e-05,0.011161,-0.000803582,0.00476691,0,0,0,0,0.0435703,0.515823,-0.995286,36.4375,1,20849,34911886
100,1,-0.653862,-0.0907348,9.79334,0.09077,-0.63721,0.989481,-0.00653936,-0.00091859,0.0979332,1,5.58048e-05,-4.01791e-06,2.38346e-05,0.011161,-0.000803582,0.00476691,0,0,0,0,0.0435703,0.515823,-0.995286,36.4375,1,20849,34911886
100,2,-0.671517,-0.0908888,9.79109,0.0678811,-0.636542,0.991457,-0.00671654,-0.000920386,0.0979106,1,5.67529e-05,-7.25881e-06,2.86494e-05,0.0113506,-0.00145176,0.00572989,0,0,0,0,0.0436975,0.514766,-0.990765,36.4375,1,20850,34911986
101,1,-0.671517,-0.0908888,9.79109,0.0678811,-0.636542,0.991457,-0.00671654,-0.000920386,0.0979106,1,5.67529e-05,-7.25881e-06,2.86494e-05,0.0113506,-0.00145176,0.00572989,0,0,0,0,0.0436975,0.514766,-0.990765,36.4375,1,20850,34911986
101,2,-0.661928,-0.0837974,9.79482,0.0768461,-0.625727,0.990929,-0.00662244,-0.000846312,0.0979479,1,4.20734e-05,-1.61919e-05,7.2513e-06,0.00841469,-0.00323838,0.00145026,0,0,0,0,0.044673,0.51764,-0.98818,36.4375,1,20851,34912086
101,3,-0.661928,-0.0837974,9.79482,0.0768461,-0.625727,0.990929,-0.00662244,-0.000846312,0.0979479,1,4.20734e-05,-1.61919e-05,7.2513e-06,0.00841469,-0.00323838,0.00145026,0,0,0,0,0.044673,0.51764,-0.98818,36.4375,1,20851,34912086
101,4,-0.659913,-0.0787931,9.79383,0.0815392,-0.626617,0.989437,-0.00660263,-0.000799428,0.097938,1,5.70864e-05,-1.81028e-05,2.38251e-05,0.0114173,-0.00362056,0.00476503,0,0,0,0,0.0465894,0.518112,-0.988178,36.4375,1,20852,34912186
102,1,-0.659913,-0.0787931,9.79383,0.0815392,-0.626617,0.989437,-0.00660263,-0.000799428,0.097938,1,5.70864e-05,-1.81028e-05,2.38251e-05,0.0114173,-0.00362056,0.00476503,0,0,0,0,0.0465894,0.518112,-0.988178,36.4375,1,20852,34912186
102,2,-0.656716,-0.0750976,9.79044,0.0807399,-0.617901,0.988261,-0.00656789,-0.000760757,0.0979043,1,4.9103e-05,-3.85976e-06,1.26343e-05,0.0098206,-0.000771951,0.00252686,0,0,0,0,0.0474771,0.516713,-0.992254,36.4375,1,20853,34912286
102,3,-0.656716,-0.0750976,9.79044,0.0807399,-0.617901,0.988261,-0.00656789,-0.000760757,0.0979043,1,4.9103e-05,-3.85976e-06,1.26343e-05,0.0098206,-0.000771951,0.00252686,0,0,0,0,0.0474771,0.516713,-0.992254,36.4375,1,20853,34912286
102,4,-0.658364,-0.0800888,9.79346,0.0813848,-0.626599,0.989051,-0.00658295,-0.000814293,0.0979345,1,6.75079e-05,3.39748e-06,1.38708e-05,0.0135016,0.000679495,0.00277415,0,0,0,0,0.0473704,0.517272,-0.996282,36.4375,1,20854,34912386
102,5,-0.658364,-0.0800888,9.79346,0.0813848,-0.626599,0.989051,-0.00658295,-0.000814293,0.0979345,1,6.75079e-05,3.39748e-06,1.38708e-05,0.0135016,0.000679495,0.00277415,0,0,0,0,0.0473704,0.517272,-0.996282,36.4375,1,20854,34912386
102,6,-0.657564,-0.0830395,9.78733,0.0846724,-0.631604,0.986046,-0.00657922,-0.000840762,0.097873,1,5.18988e-05,-1.84274e-05,1.58081e-05,0.0103798,-0.00368549,0.00316163,0,0,0,0,0.0454212,0.517306,-0.997282,36.4375,1,20855,34912486
103,1,-0.657564,-0.0830395,9.78733,0.0846724,-0.631604,0.986046,-0.00657922,-0.000840762,0.097873,1,5.18988e-05,-1.84274e-05,1.58081e-05,0.0103798,-0.00368549,0.00316163,0,0,0,0,0.0454212,0.517306,-0.997282,36.4375,1,20855,34912486
103,2,-0.669809,-0.0849391,9.78943,0.0654002,-0.634686,0.990187,-0.00670101,-0.000860413,0.097894,1,5.53653e-05,-1.50703e-05,1.36144e-05,0.0110731,-0.00301406,0.00272287,0,0,0,0,0.0431466,0.515303,-0.993276,36.4375,1,20856,34912586
103,3,-0.669809,-0.0849391,9.78943,0.0654002,-0.634686,0.990187,-0.00670101,-0.000860413,0.097894,1,5.53653e-05,-1.50703e-05,1.36144e-05,0.0110731,-0.00301406,0.00272287,0,0,0,0,0.0431466,0.515303,-0.993276,36.4375,1,20856,34912586
103,4,-0.671025,-0.0771939,9.79664,0.0652734,-0.626635,0.996641,-0.00671591,-0.000784242,0.0979659,1,6.23426e-05,-2.89271e-05,6.61246e-06,0.0124685,-0.00578541,0.00132249,0,0,0,0,0.04274,0.516698,-0.989202,36.4375,1,20857,34912686
103,5,-0.671025,-0.0771939,9.79664,0.0652734,-0.626635,0.996641,-0.00671591,-0.000784242,0.0979659,1,6.23426e-05,-2.89271e-05,6.61246e-06,0.0124685,-0.00578541,0.00132249,0,0,0,0,0.04274,0.516698,-0.989202,36.4375,1,20857,34912686
103,6,-0.660269,-0.0832969,9.78193,0.0757016,-0.627264,0.975312,-0.00660706,-0.000841373,0.0978189,1,4.13973e-05,-2.25825e-05,2.30914e-05,0.00827947,-0.0045165,0.00461827,0,0,0,0,0.0446079,0.520097,-0.989135,36.4375,1,20858,34912786
104,1,-0.660269,-0.0832969,9.78193,0.0757016,-0.627264,0.975312,-0.00660706,-0.000841373,0.0978189,1,4.13973e-05,-2.25825e-05,2.30914e-05,0.00827947,-0.0045165,0.00461827,0,0,0,0,0.0446079,0.520097,-0.989135,36.4375,1,20858,34912786
104,2,-0.660279,-0.0868922,9.7863,0.0717543,-0.638286,0.981554,-0.00660515,-0.000881156,0.0978627,1,6.19888e-05,-1.20927e-05,7.6424e-06,0.0123978,-0.00241853,0.00152848,0,0,0,0,0.0455208,0.520125,-0.991159,36.4375,1,20859,34912886
104,3,-0.660279,-0.0868922,9.7863,0.0717543,-0.638286,0.981554,-0.00660515,-0.000881156,0.0978627,1,6.19888e-05,-1.20927e-05,7.6424e-06,0.0123978,-0.00241853,0.00152848,0,0,0,0,0.0455208,0.520125,-0.991159,36.4375,1,20859,34912886
104,4,-0.665407,-0.0878014,9.79039,0.0726237,-0.639166,0.984751,-0.00665539,-0.000887649,0.0979037,1,4.82723e-05,-6.85846e-06,1.37686e-05,0.00965445,-0.00137169,0.00275373,0,0,0,0,0.0454748,0.517749,-0.994747,36.4375,1,20860,34912986
105,1,-0.665407,-0.0878014,9.79039,0.0726237,-0.639166,0.984751,-0.00665539,-0.000887649,0.0979037,1,4.82723e-05,-6.85846e-06,1.37686e-05,0.00965445,-0.00137169,0.00275373,0,0,0,0,0.0454748,0.517749,-0.994747,36.4375,1,20860,34912986
105,2,-0.656127,-0.0775784,9.78738,0.0804009,-0.629767,0.982185,-0.00656614,-0.000783948,0.0978734,1,4.10211e-05,-2.49576e-05,1.02183e-05,0.00820422,-0.00499152,0.00204366,0,0,0,0,0.0440348,0.515349,-0.996309,36.4375,1,20861,34913086
105,3,-0.656127,-0.0775784,9.78738,0.0804009,-0.629767,0.982185,-0.00656614,-0.000783948,0.0978734,1,4.10211e-05,-2.49576e-05,1.02183e-05,0.00820422,-0.00499152,0.00204366,0,0,0,0,0.0440348,0.515349,-0.996309,36.4375,1,20861,34913086
105,4,-0.649366,-0.0857348,9.79132,0.0851332,-0.636581,0.988701,-0.00649659,-0.000865794,0.097913,1,4.24385e-05,-1.50634e-05,1.0373e-05,0.00848769,-0.00301268,0.0020746,0,0,0,0,0.0436927,0.512842,-0.992323,36.4375,1,20862,34913186
106,1,-0.649366,-0.0857348,9.79132,0.0851332,-0.636581,0.988701,-0.00649659,-0.000865794,0.097913,1,4.24385e-05,-1.50634e-05,1.0373e-05,0.00848769,-0.00301268,0.0020746,0,0,0,0,0.0436927,0.512842,-0.992323,36.4375,1,20862,34913186
106,2,-0.669423,-0.0864295,9.78671,0.0684293,-0.635732,0.98583,-0.00669707,-0.000873452,0.0978668,1,4.52381e-05,-1.46906e-05,2.25696e-05,0.00904762,-0.00293812,0.00451392,0,0,0,0,0.0437302,0.514261,-0.989766,36.4375,1,20863,34913286
106,3,-0.669423,-0.0864295,9.78671,0.0684293,-0.635732,0.98583,-0.00669707,-0.000873452,0.0978668,1,4.52381e-05,-1.46906e-05,2.25696e-05,0.00904762,-0.00293812,0.00451392,0,0,0,0,0.0437302,0.514261,-0.989766,36.4375,1,20863,34913286
106,4,-0.657885,-0.0854963,9.79782,0.080428,-0.636063,0.991412,-0.00658004,-0.0008633,0.0979781,1,4.12353e-05,-6.27717e-06,1.9526e-05,0.00824706,-0.00125543,0.0039052,0,0,0,0,0.0465562,0.517172,-0.990219,36.4375,1,20864,34913386
107,1,-0.657885,-0.0854963,9.79782,0.080428,-0.636063,0.991412,-0.00658004,-0.0008633,0.0979781,1,4.12353e-05,-6.27717e-06,1.9526e-05,0.00824706,-0.00125543,0.0039052,0,0,0,0,0.0465562,0.517172,-0.990219,36.4375,1,20864,34913386
107,2,-0.653412,-0.0800081,9.80463,0.082734,-0.63043,1.00158,-0.00653654,-0.000810732,0.098046,1,5.27445e-05,-1.25491e-05,2.36256e-05,0.0105489,-0.00250981,0.00472513,0,0,0,0,0.0473917,0.519666,-0.993703,36.4375,1,20865,34913486
107,3,-0.653412,-0.0800081,9.80463,0.082734,-0.63043,1.00158,-0.00653654,-0.000810732,0.098046,1,5.27445e-05,-1.25491e-05,2.36256e-05,0.0105489,-0.00250981,0.00472513,0,0,0,0,0.0473917,0.519666,-0.993703,36.4375,1,20865,34913486
107,4,-0.65488,-0.0765455,9.78839,0.0794779,-0.627913,0.984289,-0.00655207,-0.000773384,0.0978836,1,3.96484e-05,-1.67971e-05,1.27423e-05,0.00792968,-0.00335943,0.00254846,0,0,0,0,0.0454421,0.518255,-0.995746,36.4375,1,20866,34913586
107,5,-0.65488,-0.0765455,9.78839,0.0794779,-0.627913,0.984289,-0.00655207,-0.000773384,0.0978836,1,3.96484e-05,-1.67971e-05,1.27423e-05,0.00792968,-0.00335943,0.00254846,0,0,0,0,0.0454421,0.518255,-0.995746,36.4375,1,20866,34913586
107,6,-0.643971,-0.080015,9.78964,0.0893815,-0.629725,0.987439,-0.00644225,-0.000809482,0.0978962,1,4.69573e-05,-1.30926e-05,1.06842e-05,0.00939145,-0.00261851,0.00213684,0,0,0,0,0.0440557,0.516298,-0.994773,36.4375,1,20867,34913686
108,1,-0.643971,-0.080015,9.78964,0.0893815,-0.629725,0.987439,-0.00644225,-0.000809482,0.0978962,1,4.69573e-05,-1.30926e-05,1.06842e-05,0.00939145,-0.00261851,0.00213684,0,0,0,0,0.0440557,0.516298,-0.994773,36.4375,1,20867,34913686
108,2,-0.666056,-0.0853542,9.78907,0.0701802,-0.637937,0.982662,-0.00666386,-0.000864843,0.0978904,1,5.73153e-05,-1.68872e-05,5.97548e-06,0.0114631,-0.00337744,0.0011951,0,0,0,0,0.04512,0.513806,-0.992308,36.4375,1,20868,34913786
108,3,-0.666056,-0.0853542,9.78907,0.0701802,-0.637937,0.982662,-0.00666386,-0.000864843,0.0978904,1,5.73153e-05,-1.68872e-05,5.97548e-06,0.0114631,-0.00337744,0.0011951,0,0,0,0,0.04512,0.513806,-0.992308,36.4375,1,20868,34913786
108,4,-0.66343,-0.0800488,9.79519,0.0666206,-0.636885,0.992533,-0.00663563,-0.000809567,0.0979517,1,4.60409e-05,-6.82638e-06,4.52441e-06,0.00920818,-0.00136528,0.000904882,0,0,0,0,0.0446886,0.515219,-0.989244,36.4375,1,20869,34913886
109,1,-0.66343,-0.0800488,9.79519,0.0666206,-0.636885,0.992533,-0.00663563,-0.000809567,0.0979517,1,4.60409e-05,-6.82638e-06,4.52441e-06,0.00920818,-0.00136528,0.000904882,0,0,0,0,0.0446886,0.515219,-0.989244,36.4375,1,20869,34913886
109,2,-0.649764,-0.0815516,9.79306,0.0836448,-0.635048,0.989293,-0.00649916,-0.000825401,0.0979304,1,4.87567e-05,-7.95874e-06,2.58627e-05,0.00975134,-0.00159175,0.00517255,0,0,0,0,0.0456309,0.517153,-0.9887,36.4375,1,20870,34913986
109,3,-0.649764,-0.0815516,9.79306,0.0836448,-0.635048,0.989293,-0.00649916,-0.000825401,0.0979304,1,4.87567e-05,-7.95874e-06,2.58627e-05,0.00975134,-0.00159175,0.00517255,0,0,0,0,0.0456309,0.517153,-0.9887,36.4375,1,20870,34913986
109,4,-0.657941,-0.0767309,9.78671,0.073472,-0.630318,0.982218,-0.00658263,-0.000777872,0.0978668,1,5.29066e-05,-1.65662e-05,1.57263e-05,0.0105813,-0.00331324,0.00314526,0,0,0,0,0.0464907,0.518184,-0.992217,36.4375,1,20871,34914086
109,5,-0.657941,-0.0767309,9.78671,0.073472,-0.630318,0.982218,-0.00658263,-0.000777872,0.0978668,1,5.29066e-05,-1.65662e-05,1.57263e-05,0.0105813,-0.00331324,0.00314526,0,0,0,0,0.0464907,0.518184,-0.992217,36.4375,1,20871,34914086
109,6,-0.653456,-0.0772932,9.79719,0.077488,-0.636141,0.992087,-0.00653855,-0.000781003,0.0979716,1,3.86721e-05,-2.0642e-05,3.77726e-05,0.00773442,-0.00412841,0.00755453,0,0,0,0,0.0468608,0.518261,-0.996762,36.4375,1,20872,34914186
110,1,-0.653456,-0.0772932,9.79719,0.077488,-0.636141,0.992087,-0.00653855,-0.000781003,0.0979716,1,3.86721e-05,-2.0642e-05,3.77726e-05,0.00773442,-0.00412841,0.00755453,0,0,0,0,0.0468608,0.518261,-0.996762,36.4375,1,20872,34914186
110,2,-0.654577,-0.0825779,9.78257,0.0768021,-0.638057,0.976035,-0.00654762,-0.000834822,0.0978255,1,4.53871e-05,-9.54228e-06,1.24479e-05,0.00907743,-0.00190846,0.00248958,0,0,0,0,0.0444585,0.515869,-0.99832,36.4375,1,20873,34914286
110,3,-0.654577,-0.0825779,9.78257,0.0768021,-0.638057,0.976035,-0.00654762,-0.000834822,0.0978255,1,4.53871e-05,-9.54228e-06,1.24479e-05,0.00907743,-0.00190846,0.00248958,0,0,0,0,0.0444585,0.515869,-0.99832,36.4375,1,20873,34914286
110,4,-0.664517,-0.0932762,9.78696,0.0660074,-0.65319,0.987098,-0.00664944,-0.000943442,0.0978692,1,5.29625e-05,-2.20203e-05,2.35602e-05,0.0105925,-0.00440407,0.00471204,0,0,0,0,0.0441535,0.513335,-0.992819,36.4375,1,20874,34914386
110,5,-0.664517,-0.0932762,9.78696,0.0660074,-0.65319,0.987098,-0.00664944,-0.000943442,0.0978692,1,5.29625e-05,-2.20203e-05,2.35602e-05,0.0105925,-0.00440407,0.00471204,0,0,0,0,0.0441535,0.513335,-0.992819,36.4375,1,20874,34914386
110,6,-0.660065,-0.0825285,9.78498,0.0759251,-0.638516,0.983317,-0.00660181,-0.000836366,0.0978496,1,5.52871e-05,-6.11278e-06,1.98223e-05,0.0110574,-0.00122256,0.00396446,0,0,0,0,0.0446801,0.514262,-0.990275,36.4375,1,20875,34914486
110,7,-0.660065,-0.0825285,9.78498,0.0759251,-0.638516,0.983317,-0.00660181,-0.000836366,0.0978496,1,5.52871e-05,-6.11278e-06,1.98223e-05,0.0110574,-0.00122256,0.00396446,0,0,0,0,0.0446801,0.514262,-0.990275,36.4375,1,20875,34914486
110,8,-0.66065,-0.0801211,9.79314,0.0701777,-0.633115,0.989848,-0.006609,-0.000808767,0.0979312,1,3.68264e-05,-1.29826e-05,2.59578e-05,0.00736528,-0.00259653,0.00519155,0,0,0,0,0.0451294,0.517654,-0.989192,36.4375,1,20876,34914586
111,1,-0.66065,-0.0801211,9.79314,0.0701777,-0.633115,0.989848,-0.006609,-0.000808767,0.0979312,1,3.68264e-05,-1.29826e-05,2.59578e-05,0.00736528,-0.00259653,0.00519155,0,0,0,0,0.0451294,0.517654,-0.989192,36.4375,1,20876,34914586
111,2,-0.664456,-0.0888203,9.79037,0.0701636,-0.647021,0.985929,-0.00664422,-0.000896933,0.0979037,1,4.36064e-05,1.61883e-06,1.44149e-05,0.00872128,0.000323766,0.00288299,0,0,0,0,0.0455251,0.520604,-0.990643,36.4375,1,20877,34914686
112,1,-0.664456,-0.0888203,9.79037,0.0701636,-0.647021,0.985929,-0.00664422,-0.000896933,0.0979037,1,4.36064e-05,1.61883e-06,1.44149e-05,0.00872128,0.000323766,0.00288299,0,0,0,0,0.0455251,0.520604,-0.990643,36.4375,1,20877,34914686
112,2,-0.657225,-0.0881863,9.79339,0.0772845,-0.641778,0.989241,-0.00657527,-0.000889833,0.0979336,1,4.03392e-05,-1.54564e-05,5.2157e-06,0.00806784,-0.00309128,0.00104314,0,0,0,0,0.0464048,0.519692,-0.994708,36.4375,1,20878,34914786
112,3,-0.657225,-0.0881863,9.79339,0.0772845,-0.641778,0.989241,-0.00657527,-0.000889833,0.0979336,1,4.03392e-05,-1.54564e-05,5.2157e-06,0.00806784,-0.00309128,0.00104314,0,0,0,0,0.0464048,0.519692,-0.994708,36.4375,1,20878,34914786
112,4,-0.657015,-0.0875627,9.77948,0.0738957,-0.647335,0.970859,-0.0065717,-0.000886297,0.0977946,1,5.33367e-05,-8.06351e-06,1.80829e-05,0.0106673,-0.0016127,0.00361658,0,0,0,0,0.0440348,0.515349,-0.996309,36.4375,1,20879,34914886
112,5,-0.657015,-0.0875627,9.77948,0.0738957,-0.647335,0.970859,-0.0065717,-0.000886297,0.0977946,1,5.33367e-05,-8.06351e-06,1.80829e-05,0.0106673,-0.0016127,0.00361658,0,0,0,0,0.0440348,0.515349,-0.996309,36.4375,1,20879,34914886
112,6,-0.660271,-0.074779,9.78368,0.0722848,-0.636061,0.979615,-0.00660171,-0.000757079,0.0978368,1,4.65381e-05,4.96782e-06,1.37818e-05,0.00930762,0.000993564,0.00275637,0,0,0,0,0.0441943,0.512342,-0.991831,36.4375,1,20880,34914986
113,1,-0.660271,-0.074779,9.78368,0.0722848,-0.636061,0.979615,-0.00660171,-0.000757079,0.0978368,1,4.65381e-05,4.96782e-06,1.37818e-05,0.00930762,0.000993564,0.00275637,0,0,0,0,0.0441943,0.512342,-0.991831,36.4375,1,20880,34914986
113,2,-0.659703,-0.0825049,9.78666,0.0718328,-0.640078,0.984186,-0.00659864,-0.00083724,0.0978664,1,6.20708e-05,-8.25718e-06,3.15918e-06,0.0124142,-0.00165144,0.000631836,0,0,0,0,0.0437345,0.514739,-0.98925,36.4375,1,20881,34915086
113,3,-0.659703,-0.0825049,9.78666,0.0718328,-0.640078,0.984186,-0.00659864,-0.00083724,0.0978664,1,6.20708e-05,-8.25718e-06,3.15918e-06,0.0124142,-0.00165144,0.000631836,0,0,0,0,0.0437345,0.514739,-0.98925,36.4375,1,20881,34915086
113,4,-0.660863,-0.085538,9.80022,0.0745264,-0.641172,0.997047,-0.00661172,-0.000865157,0.0980019,1,4.89672e-05,-1.59252e-05,1.35377e-05,0.00979344,-0.00318504,0.00270754,0,0,0,0,0.044134,0.516723,-0.991228,36.4375,1,20882,34915186
113,5,-0.660863,-0.085538,9.80022,0.0745264,-0.641172,0.997047,-0.00661172,-0.000865157,0.0980019,1,4.89672e-05,-1.59252e-05,1.35377e-05,0.00979344,-0.00318504,0.00270754,0,0,0,0,0.044134,0.516723,-0.991228,36.4375,1,20882,34915186
113,6,-0.653899,-0.0791607,9.79209,0.0796429,-0.63888,0.986673,-0.00654089,-0.000801651,0.0979207,1,5.05987e-05,-9.81992e-06,1.02987e-05,0.0101197,-0.00196398,0.00205973,0,0,0,0,0.0440519,0.517264,-0.994246,36.4375,1,20883,34915286
114,1,-0.653899,-0.0791607,9.79209,0.0796429,-0.63888,0.986673,-0.00654089,-0.000801651,0.0979207,1,5.05987e-05,-9.81992e-06,1.02987e-05,0.0101197,-0.00196398,0.00205973,0,0,0,0,0.0440519,0.517264,-0.994246,36.4375,1,20883,34915286
114,2,-0.658786,-0.0871105,9.7924,0.0770752,-0.648382,0.988343,-0.00659113,-0.000881549,0.0979237,1,5.24149e-05,-1.67918e-05,1.35224e-05,0.010483,-0.00335835,0.00270449,0,0,0,0,0.044031,0.516316,-0.995782,36.4375,1,20884,34915386
114,3,-0.658786,-0.0871105,9.7924,0.0770752,-0.648382,0.988343,-0.00659113,-0.000881549,0.0979237,1,5.24149e-05,-1.67918e-05,1.35224e-05,0.010483,-0.00335835,0.00270449,0,0,0,0,0.044031,0.516316,-0.995782,36.4375,1,20884,34915386
114,4,-0.66405,-0.0808418,9.79451,0.0692577,-0.636387,0.991127,-0.00664232,-0.000814668,0.0979449,1,3.10746e-05,-9.39881e-06,1.2245e-05,0.00621491,-0.00187976,0.00244899,0,0,0,0,0.0454744,0.516304,-0.995789,36.4375,1,20885,34915486
115,1,-0.66405,-0.0808418,9.79451,0.0692577,-0.636387,0.991127,-0.00664232,-0.000814668,0.0979449,1,3.10746e-05,-9.39881e-06,1.2245e-05,0.00621491,-0.00187976,0.00244899,0,0,0,0,0.0454744,0.516304,-0.995789,36.4375,1,20885,34915486
115,2,-0.653766,-0.0888107,9.78794,0.0808782,-0.643856,0.984195,-0.00654126,-0.000896742,0.0978791,1,4.33289e-05,-1.85407e-05,1.17365e-05,0.00866577,-0.00370815,0.0023473,0,0,0,0,0.0451366,0.514276,-0.991287,36.4375,1,20886,34915586
115,3,-0.653766,-0.0888107,9.78794,0.0808782,-0.643856,0.984195,-0.00654126,-0.000896742,0.0978791,1,4.33289e-05,-1.85407e-05,1.17365e-05,0.00866577,-0.00370815,0.0023473,0,0,0,0,0.0451366,0.514276,-0.991287,36.4375,1,20886,34915586
115,4,-0.663278,-0.0882397,9.80055,0.0659178,-0.646228,0.997116,-0.00663665,-0.000890359,0.0980052,1,3.96927e-05,-1.98782e-05,1.37041e-05,0.00793853,-0.00397565,0.00274082,0,0,0,0,0.0441871,0.51572,-0.989736,36.4375,1,20887,34915686
115,5,-0.663278,-0.0882397,9.80055,0.0659178,-0.646228,0.997116,-0.00663665,-0.000890359,0.0980052,1,3.96927e-05,-1.98782e-05,1.37041e-05,0.00793853,-0.00397565,0.00274082,0,0,0,0,0.0441871,0.51572,-0.989736,36.4375,1,20887,34915686
115,6,-0.659868,-0.0863728,9.78394,0.0717485,-0.648294,0.973306,-0.00660343,-0.000873624,0.097839,1,4.93898e-05,-2.44401e-05,1.75703e-05,0.00987795,-0.00488801,0.00351407,0,0,0,0,0.0456148,0.518129,-0.988679,36.4375,1,20888,34915786
116,1,-0.659868,-0.0863728,9.78394,0.0717485,-0.648294,0.973306,-0.00660343,-0.000873624,0.097839,1,4.93898e-05,-2.44401e-05,1.75703e-05,0.00987795,-0.00488801,0.00351407,0,0,0,0,0.0456148,0.518129,-0.988679,36.4375,1,20888,34915786
116,2,-0.665571,-0.0733976,9.78102,0.0687419,-0.63179,0.975286,-0.00665747,-0.000743616,0.09781,1,4.77042e-05,-9.16619e-06,2.30968e-05,0.00954084,-0.00183324,0.00461936,0,0,0,0,0.0469761,0.518659,-0.991703,36.4375,1,20889,34915886
116,3,-0.665571,-0.0733976,9.78102,0.0687419,-0.63179,0.975286,-0.00665747,-0.000743616,0.09781,1,4.77042e-05,-9.16619e-06,2.30968e-05,0.00954084,-0.00183324,0.00461936,0,0,0,0,0.0469761,0.518659,-0.991703,36.4375,1,20889,34915886
116,4,-0.654131,-0.0855746,9.79271,0.0689036,-0.648452,0.987869,-0.00654434,-0.000866452,0.0979268,1,5.38677e-05,-1.55698e-05,1.18858e-05,0.0107735,-0.00311396,0.00237716,0,0,0,0,0.0464371,0.517741,-0.994752,36.4375,1,20890,34915986
117,1,-0.654131,-0.0855746,9.79271,0.0689036,-0.648452,0.987869,-0.00654434,-0.000866452,0.0979268,1,5.38677e-05,-1.55698e-05,1.18858e-05,0.0107735,-0.00311396,0.00237716,0,0,0,0,0.0464371,0.517741,-0.994752,36.4375,1,20890,34915986
117,2,-0.66242,-0.0823622,9.78737,0.0621557,-0.649211,0.983432,-0.00662617,-0.000832979,0.0978735,1,4.65586e-05,-1.02151e-05,1.8336e-05,0.00931171,-0.00204302,0.00366719,0,0,0,0,0.0440756,0.514356,-0.995321,36.4375,1,20891,34916086
117,3,-0.66242,-0.0823622,9.78737,0.0621557,-0.649211,0.983432,-0.00662617,-0.000832979,0.0978735,1,4.65586e-05,-1.02151e-05,1.8336e-05,0.00931171,-0.00204302,0.00366719,0,0,0,0,0.0440756,0.514356,-0.995321,36.4375,1,20891,34916086
117,4,-0.666299,-0.0790358,9.7949,0.065071,-0.642026,0.989134,-0.00666548,-0.000798768,0.0979487,1,4.25932e-05,-1.27685e-05,4.98757e-06,0.00851864,-0.0025537,0.000997515,0,0,0,0,0.0441819,0.512351,-0.992336,36.4375,1,20892,34916186
118,1,-0.666299,-0.0790358,9.7949,0.065071,-0.642026,0.989134,-0.00666548,-0.000798768,0.0979487,1,4.25932e-05,-1.27685e-05,4.98757e-06,0.00851864,-0.0025537,0.000997515,0,0,0,0,0.0441819,0.512351,-0.992336,36.4375,1,20892,34916186
118,2,-0.652663,-0.0745904,9.78567,0.0782587,-0.633473,0.983784,-0.0065273,-0.000755835,0.0978566,1,4.90937e-05,-3.66033e-06,2.46652e-05,0.00981874,-0.000732067,0.00493303,0,0,0,0,0.0437511,0.515209,-0.98823,36.4375,1,20893,34916286
118,3,-0.652663,-0.0745904,9.78567,0.0782587,-0.633473,0.983784,-0.0065273,-0.000755835,0.0978566,1,4.90937e-05,-3.66033e-06,2.46652e-05,0.00981874,-0.000732067,0.00493303,0,0,0,0,0.0437511,0.515209,-0.98823,36.4375,1,20893,34916286
118,4,-0.654205,-0.0774429,9.79516,0.0766359,-0.640244,0.988861,-0.00654511,-0.000784798,0.0979513,1,5.18149e-05,-1.57673e-05,1.67213e-05,0.010363,-0.00315346,0.00334426,0,0,0,0,0.0441676,0.519107,-0.988145,36.4375,1,20894,34916386
118,5,-0.654205,-0.0774429,9.79516,0.0766359,-0.640244,0.988861,-0.00654511,-0.000784798,0.0979513,1,5.18149e-05,-1.57673e-05,1.67213e-05,0.010363,-0.00315346,0.00334426,0,0,0,0,0.0441676,0.519107,-0.988145,36.4375,1,20894,34916386
118,6,-0.661306,-0.0778853,9.80233,0.0642829,-0.643284,0.995228,-0.00661462,-0.000790207,0.0980231,1,5.7565e-05,-7.97044e-06,5.21165e-06,0.011513,-0.00159409,0.00104233,0,0,0,0,0.046438,0.520632,-0.992667,36.4375,1,20895,34916486
119,1,-0.661306,-0.0778853,9.80233,0.0642829,-0.643284,0.995228,-0.00661462,-0.000790207,0.0980231,1,5.7565e-05,-7.97044e-06,5.21165e-06,0.011513,-0.00159409,0.00104233,0,0,0,0,0.046438,0.520632,-0.992667,36.4375,1,20895,34916486
119,2,-0.661952,-0.0823876,9.79856,0.0738054,-0.649283,0.990643,-0.00662251,-0.000833575,0.0979853,1,4.88999e-05,-1.53317e-05,8.71175e-06,0.00977999,-0.00306634,0.00174235,0,0,0,0,0.0468484,0.51827,-0.997267,36.4375,1,20896,34916586
119,3,-0.661952,-0.0823876,9.79856,0.0738054,-0.649283,0.990643,-0.00662251,-0.000833575,0.0979853,1,4.88999e-05,-1.53317e-05,8.71175e-06,0.00977999,-0.00306634,0.00174235,0,0,0,0,0.0468484,0.51827,-0.997267,36.4375,1,20896,34916586
119,4,-0.659753,-0.0795488,9.79144,0.0707421,-0.64737,0.986658,-0.00659742,-0.000805773,0.0979143,1,5.11818e-05,4.30503e-07,1.98873e-05,0.0102364,8.61007e-05,0.00397746,0,0,0,0,0.0440063,0.516334,-0.996792,36.4375,1,20897,34916686
119,5,-0.659753,-0.0795488,9.79144,0.0707421,-0.64737,0.986658,-0.00659742,-0.000805773,0.0979143,1,5.11818e-05,4.30503e-07,1.98873e-05,0.0102364,8.61007e-05,0.00397746,0,0,0,0,0.0440063,0.516334,-0.996792,36.4375,1,20897,34916686
119,6,-0.665596,-0.0798105,9.78198,0.0609726,-0.645368,0.97999,-0.00665554,-0.000808585,0.0978198,1,5.25844e-05,2.00421e-06,1.44745e-05,0.0105169,0.000400841,0.00289489,0,0,0,0,0.0436851,0.514775,-0.99127,36.4375,1,20898,34916786
120,1,-0.665596,-0.0798105,9.78198,0.0609726,-0.645368,0.97999,-0.00665554,-0.000808585,0.0978198,1,5.25844e-05,2.00421e-06,1.44745e-05,0.0105169,0.000400841,0.00289489,0,0,0,0,0.0436851,0.514775,-0.99127,36.4375,1,20898,34916786
120,2,-0.665035,-0.0869415,9.78633,0.0658221,-0.650949,0.985163,-0.00665295,-0.000876467,0.0978631,1,3.44551e-05,-1.34803e-05,2.31787e-05,0.00689103,-0.00269605,0.00463573,0,0,0,0,0.0451864,0.515685,-0.988226,36.4375,1,20899,34916886
120,3,-0.665035,-0.0869415,9.78633,0.0658221,-0.650949,0.985163,-0.00665295,-0.000876467,0.0978631,1,3.44551e-05,-1.34803e-05,2.31787e-05,0.00689103,-0.00269605,0.00463573,0,0,0,0,0.0451864,0.515685,-0.988226,36.4375,1,20899,34916886
120,4,-0.658726,-0.0755957,9.78469,0.0721694,-0.639382,0.982319,-0.00658823,-0.000768016,0.0978467,1,6.02902e-05,-5.10167e-06,1.98034e-05,0.012058,-0.00102034,0.00396068,0,0,0,0,0.0470662,0.517629,-0.988696,36.4375,1,20900,34916986
120,5,-0.658726,-0.0755957,9.78469,0.0721694,-0.639382,0.982319,-0.00658823,-0.000768016,0.0978467,1,6.02902e-05,-5.10167e-06,1.98034e-05,0.012058,-0.00102034,0.00396068,0,0,0,0,0.0470662,0.517629,-0.988696,36.4375,1,20900,34916986
120,6,-0.665823,-0.0770553,9.79862,0.0604476,-0.644459,0.989908,-0.00665966,-0.000778706,0.0979861,1,4.09614e-05,-7.36862e-06,9.44193e-06,0.00819228,-0.00147372,0.00188839,0,0,0,0,0.0469433,0.519164,-0.992702,36.4375,1,20901,34917086
121,1,-0.665823,-0.0770553,9.79862,0.0604476,-0.644459,0.989908,-0.00665966,-0.000778706,0.0979861,1,4.09614e-05,-7.36862e-06,9.44193e-06,0.00819228,-0.00147372,0.00188839,0,0,0,0,0.0469433,0.519164,-0.992702,36.4375,1,20901,34917086
121,2,-0.660995,-0.0847391,9.79243,0.0658812,-0.653198,0.983689,-0.00661155,-0.000856728,0.0979241,1,4.72479e-05,-8.21406e-06,6.31071e-06,0.00944958,-0.00164281,0.00126214,0,0,0,0,0.0469096,0.51678,-0.995785,36.4375,1,20902,34917186
121,3,-0.660995,-0.0847391,9.79243,0.0658812,-0.653198,0.983689,-0.00661155,-0.000856728,0.0979241,1,4.72479e-05,-8.21406e-06,6.31071e-06,0.00944958,-0.00164281,0.00126214,0,0,0,0,0.0469096,0.51678,-0.995785,36.4375,1,20902,34917186
121,4,-0.658666,-0.0818912,9.79074,0.0628683,-0.650376,0.983533,-0.00658856,-0.000829732,0.0979072,1,5.48493e-05,-9.78448e-06,6.03143e-06,0.0109699,-0.0019569,0.00120629,0,0,0,0,0.0460001,0.51434,-0.99533,36.4375,1,20903,34917286
122,1,-0.658666,-0.0818912,9.79074,0.0628683,-0.650376,0.983533,-0.00658856,-0.000829732,0.0979072,1,5.48493e-05,-9.78448e-06,6.03143e-06,0.0109699,-0.0019569,0.00120629,0,0,0,0,0.0460001,0.51434,-0.99533,36.4375,1,20903,34917286
122,2,-0.652293,-0.0679149,9.79251,0.0705813,-0.6344,0.990333,-0.00652475,-0.000687456,0.0979249,1,4.17568e-05,-9.39874e-06,9.82934e-06,0.00835136,-0.00187975,0.00196587,0,0,0,0,0.0441653,0.511881,-0.993356,36.4375,1,20904,34917386
122,3,-0.652293,-0.0679149,9.79251,0.0705813,-0.6344,0.990333,-0.00652475,-0.000687456,0.0979249,1,4.17568e-05,-9.39874e-06,9.82934e-06,0.00835136,-0.00187975,0.00196587,0,0,0,0,0.0441653,0.511881,-0.993356,36.4375,1,20904,34917386
122,4,-0.660846,-0.077504,9.78095,0.0630017,-0.640654,0.979729,-0.00660838,-0.000783503,0.0978094,1,4.22131e-05,3.14845e-07,1.55567e-05,0.00844263,6.2969e-05,0.00311134,0,0,0,0,0.043726,0.513782,-0.990282,36.4375,1,20905,34917486
122,5,-0.660846,-0.077504,9.78095,0.0630017,-0.640654,0.979729,-0.00660838,-0.000783503,0.0978094,1,4.22131e-05,3.14845e-07,1.55567e-05,0.00844263,6.2969e-05,0.00311134,0,0,0,0,0.043726,0.513782,-0.990282,36.4375,1,20905,34917486
122,6,-0.656501,-0.0765921,9.79722,0.0720388,-0.641604,0.9925,-0.0065682,-0.000774865,0.0979719,1,4.40181e-05,-1.649e-05,2.4272e-05,0.00880363,-0.00329801,0.00485439,0,0,0,0,0.0456229,0.517641,-0.988689,36.4375,1,20906,34917586
123,1,-0.656501,-0.0765921,9.79722,0.0720388,-0.641604,0.9925,-0.0065682,-0.000774865,0.0979719,1,4.40181e-05,-1.649e-05,2.4272e-05,0.00880363,-0.00329801,0.00485439,0,0,0,0,0.0456229,0.517641,-0.988689,36.4375,1,20906,34917586
123,2,-0.654662,-0.0815925,9.79071,0.0726692,-0.649484,0.984048,-0.00654662,-0.000824975,0.097907,1,4.4275e-05,-2.25259e-07,2.90536e-05,0.008855,-4.50518e-05,0.00581072,0,0,0,0,0.0469025,0.520158,-0.99369,36.4375,1,20907,34917686
123,3,-0.654662,-0.0815925,9.79071,0.0726692,-0.649484,0.984048,-0.00654662,-0.000824975,0.097907,1,4.4275e-05,-2.25259e-07,2.90536e-05,0.008855,-4.50518e-05,0.00581072,0,0,0,0,0.0469025,0.520158,-0.99369,36.4375,1,20907,34917686
123,4,-0.656214,-0.0858186,9.79442,0.068225,-0.657829,0.988652,-0.00656419,-0.000866355,0.097944,1,4.12483e-05,-1.05126e-05,6.73356e-06,0.00824966,-0.00210252,0.00134671,0,0,0,0,0.0454093,0.518761,-0.996745,36.4375,1,20908,34917786
123,5,-0.656214,-0.0858186,9.79442,0.068225,-0.657829,0.988652,-0.00656419,-0.000866355,0.097944,1,4.12483e-05,-1.05126e-05,6.73356e-06,0.00824966,-0.00210252,0.00134671,0,0,0,0,0.0454093,0.518761,-0.996745,36.4375,1,20908,34917786
123,6,-0.663292,-0.0818556,9.79112,0.064569,-0.648742,0.988139,-0.0066363,-0.000824802,0.0979109,1,3.05921e-05,-1.74493e-05,1.92373e-05,0.00611843,-0.00348986,0.00384746,0,0,0,0,0.0445159,0.515345,-0.996311,36.4375,1,20909,34917886
124,1,-0.663292,-0.0818556,9.79112,0.064569,-0.648742,0.988139,-0.0066363,-0.000824802,0.0979109,1,3.05921e-05,-1.74493e-05,1.92373e-05,0.00611843,-0.00348986,0.00384746,0,0,0,0,0.0445159,0.515345,-0.996311,36.4375,1,20909,34917886
124,2,-0.655379,-0.0793834,9.78598,0.0739392,-0.648059,0.982926,-0.00655341,-0.000805177,0.0978598,1,5.6522e-05,1.75083e-06,2.13235e-05,0.0113044,0.000350166,0.00426471,0,0,0,0,0.0436562,0.514315,-0.992795,36.4375,3,20910,34917986
124,3,-0.655379,-0.0793834,9.78598,0.0739392,-0.648059,0.982926,-0.00655341,-0.000805177,0.0978598,1,5.6522e-05,1.75083e-06,2.13235e-05,0.0113044,0.000350166,0.00426471,0,0,0,0,0.0436562,0.514315,-0.992795,36.4375,3,20910,34917986
124,4,-0.667478,-0.0776007,9.79389,0.0649076,-0.645754,0.992285,-0.00667637,-0.000786682,0.0979387,1,5.2603e-05,-8.34293e-06,2.78352e-05,0.0105206,-0.00166859,0.00556704,0,0,0,0,0.0437145,0.516681,-0.988702,36.4375,3,20911,34918086
125,1,-0.667478,-0.0776007,9.79389,0.0649076,-0.645754,0.992285,-0.00667637,-0.000786682,0.0979387,1,5.2603e-05,-8.34293e-06,2.78352e-05,0.0105206,-0.00166859,0.00556704,0,0,0,0,0.0437145,0.516681,-0.988702,36.4375,3,20911,34918086
125,2,-0.666697,-0.0893486,9.79514,0.0610349,-0.658852,0.991632,-0.00666904,-0.000907969,0.0979511,1,7.23526e-05,-1.07848e-05,2.31714e-05,0.0144705,-0.00215697,0.00463427,0,0,0,0,0.0475269,0.518122,-0.989193,36.4375,3,20912,34918186
125,3,-0.666697,-0.0893486,9.79514,0.0610349,-0.658852,0.991632,-0.00666904,-0.000907969,0.0979511,1,7.23526e-05,-1.07848e-05,2.31714e-05,0.0144705,-0.00215697,0.00463427,0,0,0,0,0.0475269,0.518122,-0.989193,36.4375,3,20912,34918186
125,4,-0.670564,-0.0765796,9.79019,0.0546119,-0.646106,0.981657,-0.0067084,-0.000774457,0.0979016,1,4.38504e-05,-1.41317e-05,5.54344e-06,0.00877008,-0.00282635,0.00110869,0,0,0,0,0.0469186,0.519182,-0.993712,36.4375,3,20913,34918286
125,5,-0.670564,-0.0765796,9.79019,0.0546119,-0.646106,0.981657,-0.0067084,-0.000774457,0.0979016,1,4.38504e-05,-1.41317e-05,5.54344e-06,0.00877008,-0.00282635,0.00110869,0,0,0,0,0.0469186,0.519182,-0.993712,36.4375,3,20913,34918286
125,6,-0.661869,-0.0938346,9.80524,0.0665364,-0.665982,1.0004,-0.00662092,-0.000946994,0.0980522,1,4.23621e-05,-1.16507e-05,2.57122e-05,0.00847241,-0.00233015,0.00514243,0,0,0,0,0.0459066,0.517781,-0.996769,36.4375,3,20914,34918386
125,7,-0.661869,-0.0938346,9.80524,0.0665364,-0.665982,1.0004,-0.00662092,-0.000946994,0.0980522,1,4.23621e-05,-1.16507e-05,2.57122e-05,0.00847241,-0.00233015,0.00514243,0,0,0,0,0.0459066,0.517781,-0.996769,36.4375,3,20914,34918386
125,8,-0.65524,-0.0794595,9.79515,0.0718675,-0.650692,0.991038,-0.00655407,-0.000805392,0.0979512,1,5.39645e-05,-8.62214e-06,1.71737e-05,0.0107929,-0.00172443,0.00343474,0,0,0,0,0.0445079,0.515833,-0.9963,36.4375,3,20915,34918486
126,1,-0.65524,-0.0794595,9.79515,0.0718675,-0.650692,0.991038,-0.00655407,-0.000805392,0.0979512,1,5.39645e-05,-8.62214e-06,1.71737e-05,0.0107929,-0.00172443,0.00343474,0,0,0,0,0.0445079,0.515833,-0.9963,36.4375,3,20915,34918486
126,2,-0.650895,-0.0784468,9.79037,0.0735074,-0.649786,0.986849,-0.00651007,-0.000794844,0.0979035,1,5.11109e-05,-5.93423e-06,2.82583e-05,0.0102222,-0.00118685,0.00565165,0,0,0,0,0.0431997,0.514301,-0.991783,36.4375,3,20916,34918586
126,3,-0.650895,-0.0784468,9.79037,0.0735074,-0.649786,0.986849,-0.00651007,-0.000794844,0.0979035,1,5.11109e-05,-5.93423e-06,2.82583e-05,0.0102222,-0.00118685,0.00565165,0,0,0,0,0.0431997,0.514301,-0.991783,36.4375,3,20916,34918586
126,4,-0.670253,-0.0871722,9.78466,0.0549361,-0.659674,0.980961,-0.00670269,-0.000881214,0.0978465,1,4.76074e-05,-9.38797e-07,1.30775e-05,0.00952147,-0.000187759,0.0026155,0,0,0,0,0.043706,0.515724,-0.989733,36.4375,3,20917,34918686
126,5,-0.670253,-0.0871722,9.78466,0.0549361,-0.659674,0.980961,-0.00670269,-0.000881214,0.0978465,1,4.76074e-05,-9.38797e-07,1.30775e-05,0.00952147,-0.000187759,0.0026155,0,0,0,0,0.043706,0.515724,-0.989733,36.4375,3,20917,34918686
126,6,-0.661931,-0.0869611,9.79242,0.0673153,-0.66011,0.985491,-0.00662228,-0.000882423,0.0979238,1,6.37192e-05,-1.53908e-05,2.51272e-05,0.0127439,-0.00307816,0.00502543,0,0,0,0,0.0465191,0.517199,-0.991734,36.4375,3,20918,34918786
127,1,-0.661931,-0.0869611,9.79242,0.0673153,-0.66011,0.985491,-0.00662228,-0.000882423,0.0979238,1,6.37192e-05,-1.53908e-05,2.51272e-05,0.0127439,-0.00307816,0.00502543,0,0,0,0,0.0465191,0.517199,-0.991734,36.4375,3,20918,34918786
127,2,-0.668833,-0.0684354,9.79873,0.0602248,-0.641187,0.990838,-0.00669005,-0.000692426,0.0979871,1,3.99725e-05,-8.88089e-06,1.77844e-05,0.0079945,-0.00177618,0.00355688,0,0,0,0,0.0473832,0.518709,-0.994735,36.4375,3,20919,34918886
127,3,-0.668833,-0.0684354,9.79873,0.0602248,-0.641187,0.990838,-0.00669005,-0.000692426,0.0979871,1,3.99725e-05,-8.88089e-06,1.77844e-05,0.0079945,-0.00177618,0.00355688,0,0,0,0,0.0473832,0.518709,-0.994735,36.4375,3,20919,34918886
127,4,-0.649863,-0.0768121,9.79038,0.0767484,-0.644286,0.987052,-0.00650091,-0.000775468,0.0979036,1,3.58e-05,-1.18518e-05,2.59655e-05,0.00715999,-0.00237035,0.00519311,0,0,0,0,0.0454259,0.519231,-0.995724,36.4375,3,20920,34918986
128,1,-0.649863,-0.0768121,9.79038,0.0767484,-0.644286,0.987052,-0.00650091,-0.000775468,0.0979036,1,3.58e-05,-1.18518e-05,2.59655e-05,0.00715999,-0.00237035,0.00519311,0,0,0,0,0.0454259,0.519231,-0.995724,36.4375,3,20920,34918986
128,2,-0.659653,-0.0884539,9.78899,0.0622763,-0.665821,0.984927,-0.00659718,-0.000894206,0.0978898,1,4.82779e-05,-3.46473e-06,1.63316e-05,0.00965558,-0.000692946,0.00326632,0,0,0,0,0.0449444,0.517789,-0.996764,36.4375,3,20921,34919086
128,3,-0.659653,-0.0884539,9.78899,0.0622763,-0.665821,0.984927,-0.00659718,-0.000894206,0.0978898,1,4.82779e-05,-3.46473e-06,1.63316e-05,0.00965558,-0.000692946,0.00326632,0,0,0,0,0.0449444,0.517789,-0.996764,36.4375,3,20921,34919086
128,4,-0.65146,-0.0814859,9.79442,0.0716119,-0.65589,0.988853,-0.00651655,-0.000824414,0.097944,1,4.75012e-05,-1.01344e-05,1.91518e-05,0.00950024,-0.00202688,0.00383036,0,0,0,0,0.0454948,0.515807,-0.995295,36.4375,3,20922,34919186
129,1,-0.65146,-0.0814859,9.79442,0.0716119,-0.65589,0.988853,-0.00651655,-0.000824414,0.097944,1,4.75012e-05,-1.01344e-05,1.91518e-05,0.00950024,-0.00202688,0.00383036,0,0,0,0,0.0454948,0.515807,-0.995295,36.4375,3,20922,34919186
129,2,-0.658222,-0.0874463,9.79239,0.0666122,-0.665248,0.98655,-0.00658446,-0.000885107,0.0979236,1,5.28768e-05,-1.16432e-05,2.19084e-05,0.0105754,-0.00232864,0.00438168,0,0,0,0,0.0451375,0.517166,-0.989203,36.4375,3,20923,34919286
129,3,-0.658222,-0.0874463,9.79239,0.0666122,-0.665248,0.98655,-0.00658446,-0.000885107,0.0979236,1,5.28768e-05,-1.16432e-05,2.19084e-05,0.0105754,-0.00232864,0.00438168,0,0,0,0,0.0451375,0.517166,-0.989203,36.4375,3,20923,34919286
129,4,-0.660704,-0.0812899,9.78703,0.0659025,-0.654934,0.981622,-0.00660793,-0.000822822,0.0978701,1,4.96191e-05,-4.66401e-06,1.59104e-05,0.00992383,-0.000932802,0.00318208,0,0,0,0,0.0460959,0.518125,-0.988681,36.4375,3,20924,34919386
130,1,-0.660704,-0.0812899,9.78703,0.0659025,-0.654934,0.981622,-0.00660793,-0.000822822,0.0978701,1,4.96191e-05,-4.66401e-06,1.59104e-05,0.00992383,-0.000932802,0.00318208,0,0,0,0,0.0460959,0.518125,-0.988681,36.4375,3,20924,34919386
130,2,-0.662875,-0.0840456,9.79855,0.066808,-0.660449,0.989681,-0.00663256,-0.00085127,0.0979852,1,5.53577e-05,-1.94537e-05,-2.63387e-06,0.0110716,-0.00389073,-0.000526774,0,0,0,0,0.0445007,0.519211,-0.994205,36.4375,3,20925,34919486
131,1,-0.662875,-0.0840456,9.79855,0.066808,-0.660449,0.989681,-0.00663256,-0.00085127,0.0979852,1,5.53577e-05,-1.94537e-05,-2.63387e-06,0.0110716,-0.00389073,-0.000526774,0,0,0,0,0.0445007,0.519211,-0.994205,36.4375,3,20925,34919486
131,2,-0.653898,-0.085024,9.7883,0.0705538,-0.663444,0.985652,-0.00654046,-0.000859986,0.0978828,1,4.84343e-05,-7.76907e-06,2.01558e-05,0.00968687,-0.00155381,0.00403115,0,0,0,0,0.0449197,0.517807,-0.997774,36.4375,3,20926,34919586
132,1,-0.653898,-0.085024,9.7883,0.0705538,-0.663444,0.985652,-0.00654046,-0.000859986,0.0978828,1,4.84343e-05,-7.76907e-06,2.01558e-05,0.00968687,-0.00155381,0.00403115,0,0,0,0,0.0449197,0.517807,-0.997774,36.4375,3,20926,34919586
132,2,-0.66902,-0.0853054,9.79282,0.0558281,-0.666261,0.989063,-0.00669363,-0.000865977,0.0979279,1,6.43601e-05,-1.77361e-05,2.37188e-05,0.012872,-0.00354722,0.00474376,0,0,0,0,0.0449477,0.515377,-0.998333,36.4375,3,20927,34919686
133,1,-0.66902,-0.0853054,9.79282,0.0558281,-0.666261,0.989063,-0.00669363,-0.000865977,0.0979279,1,6.43601e-05,-1.77361e-05,2.37188e-05,0.012872,-0.00354722,0.00474376,0,0,0,0,0.0449477,0.515377,-0.998333,36.4375,3,20927,34919686
133,2,-0.661651,-0.0916802,9.78424,0.0645846,-0.668746,0.983758,-0.00661806,-0.000928648,0.0978421,1,5.92173e-05,-8.10043e-06,1.94683e-05,0.0118435,-0.00162009,0.00389366,0,0,0,0,0.0441454,0.513823,-0.992808,36.4375,3,20928,34919786
134,1,-0.661651,-0.0916802,9.78424,0.0645846,-0.668746,0.983758,-0.00661806,-0.000928648,0.0978421,1,5.92173e-05,-8.10043e-06,1.94683e-05,0.0118435,-0.00162009,0.00389366,0,0,0,0,0.0441454,0.513823,-0.992808,36.4375,3,20928,34919786
134,2,-0.652971,-0.0819858,9.78323,0.0714429,-0.65946,0.980701,-0.00652972,-0.000831635,0.0978322,1,5.9776e-05,-1.11856e-07,6.24525e-06,0.0119552,-2.23712e-05,0.00124905,0,0,0,0,0.0451579,0.516669,-0.988709,36.4375,3,20929,34919886
135,1,-0.652971,-0.0819858,9.78323,0.0714429,-0.65946,0.980701,-0.00652972,-0.000831635,0.0978322,1,5.9776e-05,-1.11856e-07,6.24525e-06,0.0119552,-2.23712e-05,0.00124905,0,0,0,0,0.0451579,0.516669,-0.988709,36.4375,3,20929,34919886
135,2,-0.652802,-0.0877215,9.78997,0.0732893,-0.660621,0.980483,-0.00652882,-0.000886485,0.0978996,1,4.57802e-05,-4.28792e-06,2.34598e-05,0.00915605,-0.000857584,0.00469195,0,0,0,0,0.0465609,0.519096,-0.988661,36.4375,3,20930,34919986
136,1,-0.652802,-0.0877215,9.78997,0.0732893,-0.660621,0.980483,-0.00652882,-0.000886485,0.0978996,1,4.57802e-05,-4.28792e-06,2.34598e-05,0.00915605,-0.000857584,0.00469195,0,0,0,0,0.0465609,0.519096,-0.988661,36.4375,3,20930,34919986
136,2,-0.667041,-0.083448,9.79316,0.0587326,-0.665862,0.987134,-0.00667409,-0.000844561,0.0979313,1,5.07366e-05,-1.88611e-05,1.07271e-05,0.0101473,-0.00377223,0.00214542,0,0,0,0,0.0464503,0.520623,-0.992162,36.4375,3,20931,34920086
137,1,-0.667041,-0.083448,9.79316,0.0587326,-0.665862,0.987134,-0.00667409,-0.000844561,0.0979313,1,5.07366e-05,-1.88611e-05,1.07271e-05,0.0101473,-0.00377223,0.00214542,0,0,0,0,0.0464503,0.520623,-0.992162,36.4375,3,20931,34920086
137,2,-0.652179,-0.0809084,9.78867,0.0684935,-0.660304,0.979703,-0.00652326,-0.000818622,0.0978865,1,4.67432e-05,-7.71334e-06,2.96531e-05,0.00934864,-0.00154267,0.00593061,0,0,0,0,0.0458947,0.519236,-0.996231,36.4375,3,20932,34920186
138,1,-0.652179,-0.0809084,9.78867,0.0684935,-0.660304,0.979703,-0.00652326,-0.000818622,0.0978865,1,4.67432e-05,-7.71334e-06,2.96531e-05,0.00934864,-0.00154267,0.00593061,0,0,0,0,0.0458947,0.519236,-0.996231,36.4375,3,20932,34920186
138,2,-0.650926,-0.0804531,9.79374,0.0720049,-0.663217,0.986275,-0.00651042,-0.000814743,0.0979372,1,5.04998e-05,-6.12204e-06,2.46488e-05,0.0101,-0.00122441,0.00492976,0,0,0,0,0.0430769,0.515836,-0.995789,36.4375,3,20933,34920286
139,1,-0.650926,-0.0804531,9.79374,0.0720049,-0.663217,0.986275,-0.00651042,-0.000814743,0.0979372,1,5.04998e-05,-6.12204e-06,2.46488e-05,0.0101,-0.00122441,0.00492976,0,0,0,0,0.0430769,0.515836,-0.995789,36.4375,3,20933,34920286
139,2,-0.657916,-0.0829569,9.78632,0.0686122,-0.667531,0.981785,-0.00658163,-0.000839575,0.0978629,1,4.94588e-05,-1.28655e-05,2.47711e-05,0.00989177,-0.0025731,0.00495423,0,0,0,0,0.0432121,0.514292,-0.991278,36.4375,3,20934,34920386
140,1,-0.657916,-0.0829569,9.78632,0.0686122,-0.667531,0.981785,-0.00658163,-0.000839575,0.0978629,1,4.94588e-05,-1.28655e-05,2.47711e-05,0.00989177,-0.0025731,0.00495423,0,0,0,0,0.0432121,0.514292,-0.991278,36.4375,3,20934,34920386
140,2,-0.660043,-0.0822639,9.78566,0.0659371,-0.668963,0.98445,-0.00660319,-0.000831678,0.0978563,1,4.49344e-05,-1.42359e-05,1.85579e-05,0.00898687,-0.00284719,0.00371158,0,0,0,0,0.0442241,0.515693,-0.988221,36.4375,3,20935,34920486
141,1,-0.660043,-0.0822639,9.78566,0.0659371,-0.668963,0.98445,-0.00660319,-0.000831678,0.0978563,1,4.49344e-05,-1.42359e-05,1.85579e-05,0.00898687,-0.00284719,0.00371158,0,0,0,0,0.0442241,0.515693,-0.988221,36.4375,3,20935,34920486
141,2,-0.655911,-0.0751019,9.78298,0.0684747,-0.657055,0.976472,-0.00656224,-0.00075987,0.0978296,1,4.43367e-05,-1.60856e-05,1.33792e-05,0.00886734,-0.00321712,0.00267583,0,0,0,0,0.0466548,0.5171,-0.986181,36.4375,3,20936,34920586
142,1,-0.655911,-0.0751019,9.78298,0.0684747,-0.657055,0.976472,-0.00656224,-0.00075987,0.0978296,1,4.43367e-05,-1.60856e-05,1.33792e-05,0.00886734,-0.00321712,0.00267583,0,0,0,0,0.0466548,0.5171,-0.986181,36.4375,3,20936,34920586
142,2,-0.667758,-0.0935718,9.79138,0.0515575,-0.675601,0.980901,-0.00667838,-0.000946899,0.0979136,1,5.5017e-05,-4.41957e-06,3.05548e-05,0.0110034,-0.000883913,0.00611096,0,0,0,0,0.0465481,0.51766,-0.990208,36.4375,3,20937,34920686
143,1,-0.667758,-0.0935718,9.79138,0.0515575,-0.675601,0.980901,-0.00667838,-0.000946899,0.0979136,1,5.5017e-05,-4.41957e-06,3.05548e-05,0.0110034,-0.000883913,0.00611096,0,0,0,0,0.0465481,0.51766,-0.990208,36.4375,3,20937,34920686
143,2,-0.669603,-0.0759131,9.7912,0.055649,-0.66292,0.979306,-0.00669755,-0.00076938,0.0979118,1,5.14649e-05,-7.84727e-06,1.27741e-05,0.010293,-0.00156945,0.00255483,0,0,0,0,0.0449809,0.516317,-0.996292,36.4375,3,20938,34920786
144,1,-0.669603,-0.0759131,9.7912,0.055649,-0.66292,0.979306,-0.00669755,-0.00076938,0.0979118,1,5.14649e-05,-7.84727e-06,1.27741e-05,0.010293,-0.00156945,0.00255483,0,0,0,0,0.0449809,0.516317,-0.996292,36.4375,3,20938,34920786
144,2,-0.652121,-0.0895607,9.79537,0.0724599,-0.671254,0.985162,-0.00652193,-0.000903749,0.0979536,1,3.9734e-05,-3.95439e-06,2.7474e-05,0.00794679,-0.000790879,0.0054948,0,0,0,0,0.0444505,0.516357,-0.998309,36.4375,3,20939,34920886
145,1,-0.652121,-0.0895607,9.79537,0.0724599,-0.671254,0.985162,-0.00652193,-0.000903749,0.0979536,1,3.9734e-05,-3.95439e-06,2.7474e-05,0.00794679,-0.000790879,0.0054948,0,0,0,0,0.0444505,0.516357,-0.998309,36.4375,3,20939,34920886
145,2,-0.662031,-0.0882008,9.79409,0.0578483,-0.671167,0.98649,-0.00662243,-0.000890743,0.0979407,1,4.35429e-05,-1.09821e-05,1.55609e-05,0.00870858,-0.00219643,0.00311219,0,0,0,0,0.043632,0.515778,-0.992762,36.4375,3,20940,34920986
145,3,-0.662031,-0.0882008,9.79409,0.0578483,-0.671167,0.98649,-0.00662243,-0.000890743,0.0979407,1,4.35429e-05,-1.09821e-05,1.55609e-05,0.00870858,-0.00219643,0.00311219,0,0,0,0,0.043632,0.515778,-0.992762,36.4375,3,20940,34920986
145,4,-0.658165,-0.0885179,9.78763,0.0635448,-0.672487,0.985214,-0.00658417,-0.000892891,0.0978761,1,3.79348e-05,-1.30849e-05,2.1776e-05,0.00758696,-0.00261699,0.00435519,0,0,0,0,0.0442322,0.515205,-0.988232,36.4375,3,20941,34921086
146,1,-0.658165,-0.0885179,9.78763,0.0635448,-0.672487,0.985214,-0.00658417,-0.000892891,0.0978761,1,3.79348e-05,-1.30849e-05,2.1776e-05,0.00758696,-0.00261699,0.00435519,0,0,0,0,0.0442322,0.515205,-0.988232,36.4375,3,20941,34921086
146,2,-0.675964,-0.095963,9.7931,0.0482759,-0.677939,0.98794,-0.0067603,-0.000965758,0.0979309,1,2.99325e-05,-3.56531e-06,1.96623e-05,0.0059865,-0.000713063,0.00393246,0,0,0,0,0.0451417,0.517645,-0.988687,36.4375,3,20942,34921186
147,1,-0.675964,-0.095963,9.7931,0.0482759,-0.677939,0.98794,-0.0067603,-0.000965758,0.0979309,1,2.99325e-05,-3.56531e-06,1.96623e-05,0.0059865,-0.000713063,0.00393246,0,0,0,0,0.0451417,0.517645,-0.988687,36.4375,3,20942,34921186
147,2,-0.658748,-0.0885821,9.7995,0.0648267,-0.670933,0.991785,-0.00659189,-0.00089548,0.0979947,1,4.89018e-05,-2.2581e-05,5.63819e-06,0.00978036,-0.0045162,0.00112764,0,0,0,0,0.0450269,0.518693,-0.992704,36.4375,3,20943,34921286
148,1,-0.658748,-0.0885821,9.7995,0.0648267,-0.670933,0.991785,-0.00659189,-0.00089548,0.0979947,1,4.89018e-05,-2.2581e-05,5.63819e-06,0.00978036,-0.0045162,0.00112764,0,0,0,0,0.0450269,0.518693,-0.992704,36.4375,3,20943,34921286
148,2,-0.663042,-0.0899777,9.79104,0.0611099,-0.669507,0.984477,-0.00663097,-0.000907963,0.0979102,1,4.10155e-05,-2.89062e-06,1.16098e-05,0.0082031,-0.000578125,0.00232195,0,0,0,0,0.0464,0.517768,-0.996266,36.4375,3,20944,34921386
149,1,-0.663042,-0.0899777,9.79104,0.0611099,-0.669507,0.984477,-0.00663097,-0.000907963,0.0979102,1,4.10155e-05,-2.89062e-06,1.16098e-05,0.0082031,-0.000578125,0.00232195,0,0,0,0,0.0464,0.517768,-0.996266,36.4375,3,20944,34921386
149,2,-0.655616,-0.0835947,9.77816,0.0660444,-0.667663,0.968855,-0.00655765,-0.000844616,0.0977814,1,4.38727e-05,-7.70413e-06,6.72392e-06,0.00877454,-0.00154083,0.00134478,0,0,0,0,0.0440106,0.516813,-0.996276,36.4375,3,20945,34921486
150,1,-0.655616,-0.0835947,9.77816,0.0660444,-0.667663,0.968855,-0.00655765,-0.000844616,0.0977814,1,4.38727e-05,-7.70413e-06,6.72392e-06,0.00877454,-0.00154083,0.00134478,0,0,0,0,0.0440106,0.516813,-0.996276,36.4375,3,20945,34921486
150,2,-0.65998,-0.0785956,9.79349,0.0665969,-0.662047,0.988517,-0.00660141,-0.000795549,0.0979347,1,4.80358e-05,-8.28859e-06,1.39119e-05,0.00960717,-0.00165772,0.00278239,0,0,0,0,0.0436728,0.514784,-0.991774,36.4375,3,20946,34921586
151,1,-0.65998,-0.0785956,9.79349,0.0665969,-0.662047,0.988517,-0.00660141,-0.000795549,0.0979347,1,4.80358e-05,-8.28859e-06,1.39119e-05,0.00960717,-0.00165772,0.00278239,0,0,0,0,0.0436728,0.514784,-0.991774,36.4375,3,20946,34921586
151,2,-0.657616,-0.0791561,9.78974,0.063779,-0.665726,0.982286,-0.00657956,-0.000801905,0.0978971,1,5.16641e-05,-1.75126e-05,1.7375e-05,0.0103328,-0.00350252,0.003475,0,0,0,0,0.0451536,0.516191,-0.989225,36.4375,3,20947,34921686
152,1,-0.657616,-0.0791561,9.78974,0.063779,-0.665726,0.982286,-0.00657956,-0.000801905,0.0978971,1,5.16641e-05,-1.75126e-05,1.7375e-05,0.0103328,-0.00350252,0.003475,0,0,0,0,0.0451536,0.516191,-0.989225,36.4375,3,20947,34921686
152,2,-0.656735,-0.0744498,9.79079,0.067019,-0.657907,0.981473,-0.006567,-0.000753555,0.0979078,1,4.47911e-05,1.63186e-06,2.17742e-05,0.00895822,0.000326373,0.00435484,0,0,0,0,0.0455778,0.518156,-0.990193,36.4375,3,20948,34921786
152,3,-0.656735,-0.0744498,9.79079,0.067019,-0.657907,0.981473,-0.006567,-0.000753555,0.0979078,1,4.47911e-05,1.63186e-06,2.17742e-05,0.00895822,0.000326373,0.00435484,0,0,0,0,0.0455778,0.518156,-0.990193,36.4375,3,20948,34921786
152,4,-0.652817,-0.0905184,9.79537,0.071975,-0.67714,0.989517,-0.0065291,-0.000913496,0.0979536,1,4.1196e-05,-4.94343e-06,1.84609e-05,0.00823921,-0.000988687,0.00369217,0,0,0,0,0.0469063,0.519191,-0.994217,36.4375,3,20949,34921886
153,1,-0.652817,-0.0905184,9.79537,0.071975,-0.67714,0.989517,-0.0065291,-0.000913496,0.0979536,1,4.1196e-05,-4.94343e-06,1.84609e-05,0.00823921,-0.000988687,0.00369217,0,0,0,0,0.0469063,0.519191,-0.994217,36.4375,3,20949,34921886
153,2,-0.662069,-0.0780807,9.78775,0.0593941,-0.666197,0.980306,-0.00662265,-0.000792967,0.0978772,1,6.15083e-05,-1.0112e-05,9.03007e-06,0.0123017,-0.0020224,0.00180601,0,0,0,0,0.0458824,0.519245,-0.996736,36.4375,3,20950,34921986
153,3,-0.662069,-0.0780807,9.78775,0.0593941,-0.666197,0.980306,-0.00662265,-0.000792967,0.0978772,1,6.15083e-05,-1.0112e-05,9.03007e-06,0.0123017,-0.0020224,0.00180601,0,0,0,0,0.0458824,0.519245,-0.996736,36.4375,3,20950,34921986
153,4,-0.657262,-0.0831371,9.79072,0.065508,-0.668924,0.983069,-0.00657486,-0.000843488,0.0979069,1,6.12829e-05,-1.14924e-05,8.87009e-06,0.0122566,-0.00229848,0.00177402,0,0,0,0,0.0430607,0.516812,-0.995767,36.4375,3,20951,34922086
154,1,-0.657262,-0.0831371,9.79072,0.065508,-0.668924,0.983069,-0.00657486,-0.000843488,0.0979069,1,6.12829e-05,-1.14924e-05,8.87009e-06,0.0122566,-0.00229848,0.00177402,0,0,0,0,0.0430607,0.516812,-0.995767,36.4375,3,20951,34922086
154,2,-0.662397,-0.0817085,9.78229,0.0576296,-0.669801,0.979732,-0.0066262,-0.000829347,0.0978226,1,6.05583e-05,-1.16731e-05,3.12235e-05,0.0121117,-0.00233461,0.00624471,0,0,0,0,0.042731,0.514296,-0.991276,36.4375,3,20952,34922186
155,1,-0.662397,-0.0817085,9.78229,0.0576296,-0.669801,0.979732,-0.0066262,-0.000829347,0.0978226,1,6.05583e-05,-1.16731e-05,3.12235e-05,0.0121117,-0.00233461,0.00624471,0,0,0,0,0.042731,0.514296,-0.991276,36.4375,3,20952,34922186
155,2,-0.659068,-0.091403,9.78828,0.0642643,-0.681272,0.983823,-0.00659035,-0.000924536,0.0978827,1,5.16081e-05,1.38796e-06,3.05234e-05,0.0103216,0.000277592,0.00610468,0,0,0,0,0.0442241,0.515693,-0.988221,36.4375,3,20953,34922286
155,3,-0.659068,-0.091403,9.78828,0.0642643,-0.681272,0.983823,-0.00659035,-0.000924536,0.0978827,1,5.16081e-05,1.38796e-06,3.05234e-05,0.0103216,0.000277592,0.00610468,0,0,0,0,0.0442241,0.515693,-0.988221,36.4375,3,20953,34922286
155,4,-0.664629,-0.0840611,9.79145,0.0558791,-0.671764,0.987728,-0.00664931,-0.000850499,0.0979142,1,4.93135e-05,-1.55793e-05,1.73932e-05,0.00986271,-0.00311587,0.00347865,0,0,0,0,0.0460874,0.517167,-0.989712,36.4375,3,20954,34922386
156,1,-0.664629,-0.0840611,9.79145,0.0558791,-0.671764,0.987728,-0.00664931,-0.000850499,0.0979142,1,4.93135e-05,-1.55793e-05,1.73932e-05,0.00986271,-0.00311587,0.00347865,0,0,0,0,0.0460874,0.517167,-0.989712,36.4375,3,20954,34922386
156,2,-0.66115,-0.0761083,9.78402,0.0598328,-0.667019,0.97337,-0.00661261,-0.000769527,0.09784,1,4.2038e-05,-5.81677e-06,1.64826e-05,0.00840761,-0.00116335,0.00329653,0,0,0,0,0.0454995,0.517731,-0.993738,36.4375,3,20955,34922486
156,3,-0.66115,-0.0761083,9.78402,0.0598328,-0.667019,0.97337,-0.00661261,-0.000769527,0.09784,1,4.2038e-05,-5.81677e-06,1.64826e-05,0.00840761,-0.00116335,0.00329653,0,0,0,0,0.0454995,0.517731,-0.993738,36.4375,3,20955,34922486
156,4,-0.657022,-0.0832673,9.79071,0.0641172,-0.673712,0.979018,-0.00656933,-0.000844815,0.0979071,1,6.09346e-05,4.4442e-06,1.59441e-05,0.0121869,0.000888839,0.00318882,0,0,0,0,0.0459313,0.517763,-0.995759,36.4375,3,20956,34922586
157,1,-0.657022,-0.0832673,9.79071,0.0641172,-0.673712,0.979018,-0.00656933,-0.000844815,0.0979071,1,6.09346e-05,4.4442e-06,1.59441e-05,0.0121869,0.000888839,0.00318882,0,0,0,0,0.0459313,0.517763,-0.995759,36.4375,3,20956,34922586
157,2,-0.660459,-0.0762429,9.79317,0.0634963,-0.660306,0.98394,-0.0066058,-0.000770358,0.0979315,1,3.87839e-05,-6.37409e-06,2.51701e-05,0.00775677,-0.00127482,0.00503403,0,0,0,0,0.0440472,0.51534,-0.995804,36.4375,3,20957,34922686
157,3,-0.660459,-0.0762429,9.79317,0.0634963,-0.660306,0.98394,-0.0066058,-0.000770358,0.0979315,1,3.87839e-05,-6.37409e-06,2.51701e-05,0.00775677,-0.00127482,0.00503403,0,0,0,0,0.0440472,0.51534,-0.995804,36.4375,3,20957,34922686
157,4,-0.663757,-0.0755489,9.78981,0.0577825,-0.664015,0.981532,-0.00663982,-0.000764834,0.0978979,1,4.608e-05,-1.16604e-05,2.43037e-05,0.009216,-0.00233208,0.00486074,0,0,0,0,0.042739,0.513808,-0.991287,36.4375,3,20958,34922786
158,1,-0.663757,-0.0755489,9.78981,0.0577825,-0.664015,0.981532,-0.00663982,-0.000764834,0.0978979,1,4.608e-05,-1.16604e-05,2.43037e-05,0.009216,-0.00233208,0.00486074,0,0,0,0,0.042739,0.513808,-0.991287,36.4375,3,20958,34922786
158,2,-0.658518,-0.0848387,9.78699,0.066795,-0.671548,0.980335,-0.00658823,-0.000855,0.0978696,1,3.31049e-05,-1.56593e-05,1.00711e-05,0.00662097,-0.00313186,0.00201422,0,0,0,0,0.0447133,0.515201,-0.988234,36.4375,3,20959,34922886
158,3,-0.658518,-0.0848387,9.78699,0.066795,-0.671548,0.980335,-0.00658823,-0.000855,0.0978696,1,3.31049e-05,-1.56593e-05,1.00711e-05,0.00662097,-0.00313186,0.00201422,0,0,0,0,0.0447133,0.515201,-0.988234,36.4375,3,20959,34922886
158,4,-0.659721,-0.0755444,9.78877,0.0671354,-0.665887,0.980327,-0.00659872,-0.000763156,0.0978875,1,3.92218e-05,-7.72056e-06,2.4903e-06,0.00784435,-0.00154411,0.000498059,0,0,0,0,0.0465523,0.518139,-0.989693,36.4375,3,20960,34922986
158,5,-0.659721,-0.0755444,9.78877,0.0671354,-0.665887,0.980327,-0.00659872,-0.000763156,0.0978875,1,3.92218e-05,-7.72056e-06,2.4903e-06,0.00784435,-0.00154411,0.000498059,0,0,0,0,0.0465523,0.518139,-0.989693,36.4375,3,20960,34922986
158,6,-0.653064,-0.0966587,9.79295,0.0709712,-0.683811,0.982197,-0.00653164,-0.000976344,0.0979293,1,4.83432e-05,-5.31782e-06,2.2048e-05,0.00966864,-0.00106356,0.00440959,0,0,0,0,0.0464171,0.519683,-0.994203,36.4375,3,20961,34923086
160,1,-0.653064,-0.0966587,9.79295,0.0709712,-0.683811,0.982197,-0.00653164,-0.000976344,0.0979293,1,4.83432e-05,-5.31782e-06,2.2048e-05,0.00966864,-0.00106356,0.00440959,0,0,0,0,0.0464171,0.519683,-0.994203,36.4375,3,20961,34923086
160,2,-0.674973,-0.0869273,9.79385,0.0461497,-0.67929,0.987874,-0.00675021,-0.000878341,0.0979384,1,4.46662e-05,-2.67263e-06,2.36481e-05,0.00893325,-0.000534527,0.00472963,0,0,0,0,0.0464081,0.51728,-0.996277,36.4375,3,20962,34923186
160,3,-0.674973,-0.0869273,9.79385,0.0461497,-0.67929,0.987874,-0.00675021,-0.000878341,0.0979384,1,4.46662e-05,-2.67263e-06,2.36481e-05,0.00893325,-0.000534527,0.00472963,0,0,0,0,0.0464081,0.51728,-0.996277,36.4375,3,20962,34923186
160,4,-0.654734,-0.0698999,9.78708,0.0656765,-0.661926,0.977399,-0.00654791,-0.00070768,0.0978707,1,4.28707e-05,-3.0917e-06,2.21507e-05,0.00857414,-0.000618339,0.00443013,0,0,0,0,0.0449847,0.51535,-0.996818,36.4375,3,20963,34923286
160,5,-0.654734,-0.0698999,9.78708,0.0656765,-0.661926,0.977399,-0.00654791,-0.00070768,0.0978707,1,4.28707e-05,-3.0917e-06,2.21507e-05,0.00857414,-0.000618339,0.00443013,0,0,0,0,0.0449847,0.51535,-0.996818,36.4375,3,20963,34923286
160,6,-0.660873,-0.0756686,9.77961,0.0604803,-0.669672,0.973312,-0.00661026,-0.000768255,0.0977959,1,5.74737e-05,-8.02596e-06,2.47866e-05,0.0114947,-0.00160519,0.00495732,0,0,0,0,0.0431874,0.51431,-0.992288,36.4375,3,20964,34923386
161,1,-0.660873,-0.0756686,9.77961,0.0604803,-0.669672,0.973312,-0.00661026,-0.000768255,0.0977959,1,5.74737e-05,-8.02596e-06,2.47866e-05,0.0114947,-0.00160519,0.00495732,0,0,0,0,0.0431874,0.51431,-0.992288,36.4375,3,20964,34923386
161,2,-0.664401,-0.0757833,9.79287,0.0618235,-0.66987,0.9875,-0.00664666,-0.000769743,0.0979284,1,5.94909e-05,-1.36648e-05,1.9418e-05,0.0118982,-0.00273296,0.0038836,0,0,0,0,0.0446848,0.516186,-0.988717,36.4375,3,20965,34923486
161,3,-0.664401,-0.0757833,9.79287,0.0618235,-0.66987,0.9875,-0.00664666,-0.000769743,0.0979284,1,5.94909e-05,-1.36648e-05,1.9418e-05,0.0118982,-0.00273296,0.0038836,0,0,0,0,0.0446848,0.516186,-0.988717,36.4375,3,20965,34923486
161,4,-0.651639,-0.0707598,9.78807,0.0721292,-0.665668,0.978707,-0.00651734,-0.000719748,0.0978805,1,6.11469e-05,-4.94358e-06,1.3737e-05,0.0122294,-0.000988716,0.0027474,0,0,0,0,0.0470501,0.518604,-0.988675,36.4375,3,20966,34923586
161,5,-0.651639,-0.0707598,9.78807,0.0721292,-0.665668,0.978707,-0.00651734,-0.000719748,0.0978805,1,6.11469e-05,-4.94358e-06,1.3737e-05,0.0122294,-0.000988716,0.0027474,0,0,0,0,0.0470501,0.518604,-0.988675,36.4375,3,20966,34923586
161,6,-0.656135,-0.0843207,9.7941,0.0699472,-0.6813,0.983149,-0.00656382,-0.000854601,0.0979407,1,5.70194e-05,-1.27722e-05,1.71416e-05,0.0114039,-0.00255445,0.00342833,0,0,0,0,0.0469106,0.51967,-0.993701,36.4375,3,20967,34923686
161,7,-0.656135,-0.0843207,9.7941,0.0699472,-0.6813,0.983149,-0.00656382,-0.000854601,0.0979407,1,5.70194e-05,-1.27722e-05,1.71416e-05,0.0114039,-0.00255445,0.00342833,0,0,0,0,0.0469106,0.51967,-0.993701,36.4375,3,20967,34923686
161,8,-0.656226,-0.0789629,9.79177,0.0655418,-0.676632,0.984835,-0.00656513,-0.000798356,0.0979174,1,4.43515e-05,-1.46646e-05,3.15714e-06,0.00887029,-0.00293293,0.000631427,0,0,0,0,0.0468157,0.518776,-0.998266,36.4375,3,20968,34923786
