frame_id,imu_idx,accel_x,accel_y,accel_z,free_accel_x,free_accel_y,free_accel_z,delta_v_x,delta_v_y,delta_v_z,delta_q_w,delta_q_x,delta_q_y,delta_q_z,rate_x,rate_y,rate_z,quat_w,quat_x,quat_y,quat_z,mag_x,mag_y,mag_z,temperature,status_byte,packet_counter,time_fine
1,1,-0.698849,-0.0345102,9.78964,0.0262318,-1.68344,0.994318,-0.00699017,-0.000355758,0.0978963,1,5.32419e-05,-8.61264e-06,1.65478e-05,0.0106484,-0.00172253,0.00330956,0,0,0,0,0.07177,0.318022,-1.16295,36.5,3,39354,17094248
1,2,-0.505688,-0.0340016,7.34224,0.0262318,-1.68344,0.994318,-0.00505718,-0.000343644,0.0734224,1,2.30373e-05,-2.10652e-06,2.42162e-05,0.00460746,-0.000421304,0.00484323,0,0,0,0,0.0601813,0.509238,-0.989448,36.375,1,2111,19925030
1,3,-0.505688,-0.0340016,7.34224,0.0262318,-1.68344,0.994318,-0.00505718,-0.000343644,0.0734224,1,2.30373e-05,-2.10652e-06,2.42162e-05,0.00460746,-0.000421304,0.00484323,0,0,0,0,0.0601813,0.509238,-0.989448,36.375,1,2111,19925030
1,4,-0.679519,-0.0632383,9.78162,0.0699947,-0.51863,0.985715,-0.00679852,-0.000641308,0.0978159,1,4.49456e-05,-1.70509e-05,9.72669e-06,0.00898911,-0.00341018,0.00194534,0,0,0,0,0.05933,0.509165,-0.984901,36.375,1,2112,19925130
2,1,-0.679519,-0.0632383,9.78162,0.0699947,-0.51863,0.985715,-0.00679852,-0.000641308,0.0978159,1,4.49456e-05,-1.70509e-05,9.72669e-06,0.00898911,-0.00341018,0.00194534,0,0,0,0,0.05933,0.509165,-0.984901,36.375,1,2112,19925130
2,2,-0.675175,-0.083334,9.79397,0.0756309,-0.533513,1.00092,-0.00675387,-0.000843729,0.0979395,1,5.17444e-05,-1.09803e-05,1.87547e-05,0.0103489,-0.00219605,0.00375095,0,0,0,0,0.0579688,0.508635,-0.981876,36.375,1,2113,19925230
2,3,-0.675175,-0.083334,9.79397,0.0756309,-0.533513,1.00092,-0.00675387,-0.000843729,0.0979395,1,5.17444e-05,-1.09803e-05,1.87547e-05,0.0103489,-0.00219605,0.00375095,0,0,0,0,0.0579688,0.508635,-0.981876,36.375,1,2113,19925230
2,4,-0.670934,-0.0752431,9.78519,0.0802596,-0.534142,0.986505,-0.00671242,-0.000764384,0.0978516,1,6.02099e-05,-1.58418e-05,1.26403e-05,0.012042,-0.00316836,0.00252805,0,0,0,0,0.0598852,0.509107,-0.981874,36.375,1,2114,19925330
3,1,-0.670934,-0.0752431,9.78519,0.0802596,-0.534142,0.986505,-0.00671242,-0.000764384,0.0978516,1,6.02099e-05,-1.58418e-05,1.26403e-05,0.012042,-0.00316836,0.00252805,0,0,0,0,0.0598852,0.509107,-0.981874,36.375,1,2114,19925330
3,2,-0.679768,-0.0683478,9.79717,0.0729219,-0.53336,0.994089,-0.00679832,-0.000694994,0.0979716,1,5.80624e-05,-3.37005e-06,1.02796e-05,0.0116125,-0.00067401,0.00205591,0,0,0,0,0.0611648,0.511624,-0.986875,36.375,1,2115,19925430
3,3,-0.679768,-0.0683478,9.79717,0.0729219,-0.53336,0.994089,-0.00679832,-0.000694994,0.0979716,1,5.80624e-05,-3.37005e-06,1.02796e-05,0.0116125,-0.00067401,0.00205591,0,0,0,0,0.0611648,0.511624,-0.986875,36.375,1,2115,19925430
3,4,-0.668586,-0.0755079,9.7906,0.0792494,-0.536003,0.986112,-0.00668754,-0.000763362,0.0979058,1,4.14102e-05,-8.67272e-06,1.29846e-05,0.00828204,-0.00173454,0.00259693,0,0,0,0,0.061115,0.510215,-0.989936,36.375,1,2116,19925530
4,1,-0.668586,-0.0755079,9.7906,0.0792494,-0.536003,0.986112,-0.00668754,-0.000763362,0.0979058,1,4.14102e-05,-8.67272e-06,1.29846e-05,0.00828204,-0.00173454,0.00259693,0,0,0,0,0.061115,0.510215,-0.989936,36.375,1,2116,19925530
4,2,-0.672923,-0.0717139,9.79269,0.0774049,-0.536347,0.995664,-0.00673132,-0.000726747,0.0979267,1,4.73504e-05,-1.08702e-05,2.48308e-05,0.00947008,-0.00217404,0.00496617,0,0,0,0,0.0597125,0.509233,-0.988941,36.375,1,2117,19925630
4,3,-0.672923,-0.0717139,9.79269,0.0774049,-0.536347,0.995664,-0.00673132,-0.000726747,0.0979267,1,4.73504e-05,-1.08702e-05,2.48308e-05,0.00947008,-0.00217404,0.00496617,0,0,0,0,0.0597125,0.509233,-0.988941,36.375,1,2117,19925630
4,4,-0.669235,-0.0709791,9.79674,0.0743433,-0.532788,1.00223,-0.00669386,-0.000718695,0.0979672,1,4.4072e-05,-7.87496e-06,2.01074e-05,0.00881441,-0.00157499,0.00402148,0,0,0,0,0.058392,0.507709,-0.984929,36.375,1,2118,19925730
7,1,-0.669235,-0.0709791,9.79674,0.0743433,-0.532788,1.00223,-0.00669386,-0.000718695,0.0979672,1,4.4072e-05,-7.87496e-06,2.01074e-05,0.00881441,-0.00157499,0.00402148,0,0,0,0,0.058392,0.507709,-0.984929,36.375,1,2118,19925730
7,2,-0.658248,-0.0717568,9.78615,0.0941067,-0.535959,0.989974,-0.00658685,-0.000729432,0.0978612,1,6.00555e-05,-2.23851e-05,8.32962e-06,0.0120111,-0.00447703,0.00166592,0,0,0,0,0.055604,0.507661,-0.980876,36.375,1,2119,19925830
7,3,-0.658248,-0.0717568,9.78615,0.0941067,-0.535959,0.989974,-0.00658685,-0.000729432,0.0978612,1,6.00555e-05,-2.23851e-05,8.32962e-06,0.0120111,-0.00447703,0.00166592,0,0,0,0,0.055604,0.507661,-0.980876,36.375,1,2119,19925830
7,4,-0.67768,-0.0761573,9.78625,0.072429,-0.541971,0.985304,-0.00677885,-0.000770974,0.0978623,1,4.71305e-05,-1.05743e-05,1.29564e-05,0.00942611,-0.00211487,0.00259127,0,0,0,0,0.0569624,0.512048,-0.98129,36.375,1,2120,19925930
8,1,-0.67768,-0.0761573,9.78625,0.072429,-0.541971,0.985304,-0.00677885,-0.000770974,0.0978623,1,4.71305e-05,-1.05743e-05,1.29564e-05,0.00942611,-0.00211487,0.00259127,0,0,0,0,0.0569624,0.512048,-0.98129,36.375,1,2120,19925930
8,2,-0.670357,-0.0681873,9.77405,0.0788196,-0.531531,0.966742,-0.00670605,-0.000690788,0.0977403,1,4.39231e-05,-1.28392e-05,2.44882e-05,0.00878461,-0.00256785,0.00489763,0,0,0,0,0.060203,0.513077,-0.985828,36.375,1,2121,19926030
8,3,-0.670357,-0.0681873,9.77405,0.0788196,-0.531531,0.966742,-0.00670605,-0.000690788,0.0977403,1,4.39231e-05,-1.28392e-05,2.44882e-05,0.00878461,-0.00256785,0.00489763,0,0,0,0,0.060203,0.513077,-0.985828,36.375,1,2121,19926030
8,4,-0.677274,-0.0800511,9.79129,0.0715406,-0.552431,0.984575,-0.00677635,-0.000808723,0.0979126,1,4.12109e-05,-1.85465e-05,1.04701e-05,0.00824219,-0.0037093,0.00209401,0,0,0,0,0.0605973,0.511691,-0.990406,36.375,1,2122,19926130
8,5,-0.677274,-0.0800511,9.79129,0.0715406,-0.552431,0.984575,-0.00677635,-0.000808723,0.0979126,1,4.12109e-05,-1.85465e-05,1.04701e-05,0.00824219,-0.0037093,0.00209401,0,0,0,0,0.0605973,0.511691,-0.990406,36.375,1,2122,19926130
8,6,-0.672008,-0.0696785,9.79304,0.0774889,-0.541982,0.992286,-0.00672135,-0.000705913,0.0979303,1,4.45675e-05,-6.70531e-06,2.96926e-05,0.00891349,-0.00134106,0.00593851,0,0,0,0,0.0600992,0.50978,-0.992466,36.375,1,2123,19926230
9,1,-0.672008,-0.0696785,9.79304,0.0774889,-0.541982,0.992286,-0.00672135,-0.000705913,0.0979303,1,4.45675e-05,-6.70531e-06,2.96926e-05,0.00891349,-0.00134106,0.00593851,0,0,0,0,0.0600992,0.50978,-0.992466,36.375,1,2123,19926230
9,2,-0.677911,-0.073641,9.79034,0.0641923,-0.543772,0.994034,-0.00678355,-0.00074751,0.097903,1,5.65428e-05,-2.26994e-05,2.12352e-06,0.0113086,-0.00453988,0.000424703,0,0,0,0,0.0593125,0.505804,-0.988006,36.375,1,2124,19926330
9,3,-0.677911,-0.073641,9.79034,0.0641923,-0.543772,0.994034,-0.00678355,-0.00074751,0.097903,1,5.65428e-05,-2.26994e-05,2.12352e-06,0.0113086,-0.00453988,0.000424703,0,0,0,0,0.0593125,0.505804,-0.988006,36.375,1,2124,19926330
9,4,-0.672585,-0.0730618,9.7859,0.075877,-0.544863,0.990227,-0.00672818,-0.000745209,0.0978587,1,7.36509e-05,-1.20193e-05,1.31053e-05,0.0147302,-0.00240386,0.00262107,0,0,0,0,0.0580295,0.505699,-0.981436,36.375,1,2125,19926430
10,1,-0.672585,-0.0730618,9.7859,0.075877,-0.544863,0.990227,-0.00672818,-0.000745209,0.0978587,1,7.36509e-05,-1.20193e-05,1.31053e-05,0.0147302,-0.00240386,0.00262107,0,0,0,0,0.0580295,0.505699,-0.981436,36.375,1,2125,19926430
10,2,-0.679743,-0.07163,9.77952,0.0620555,-0.540703,0.980366,-0.00680199,-0.000725531,0.0977948,1,4.68771e-05,-2.33409e-05,4.59905e-06,0.00937542,-0.00466819,0.000919811,0,0,0,0,0.0599184,0.510046,-0.979833,36.375,1,2126,19926530
10,3,-0.679743,-0.07163,9.77952,0.0620555,-0.540703,0.980366,-0.00680199,-0.000725531,0.0977948,1,4.68771e-05,-2.33409e-05,4.59905e-06,0.00937542,-0.00466819,0.000919811,0,0,0,0,0.0599184,0.510046,-0.979833,36.375,1,2126,19926530
10,4,-0.676258,-0.0770098,9.79132,0.0705867,-0.549959,0.983602,-0.00676564,-0.000784464,0.0979128,1,7.20212e-05,-1.57913e-05,1.94067e-05,0.0144042,-0.00315825,0.00388134,0,0,0,0,0.0597917,0.512548,-0.983312,36.375,1,2127,19926630
11,1,-0.676258,-0.0770098,9.79132,0.0705867,-0.549959,0.983602,-0.00676564,-0.000784464,0.0979128,1,7.20212e-05,-1.57913e-05,1.94067e-05,0.0144042,-0.00315825,0.00388134,0,0,0,0,0.0597917,0.512548,-0.983312,36.375,1,2127,19926630
11,2,-0.674384,-0.0680813,9.77883,0.0688446,-0.547393,0.974483,-0.00674712,-0.000692269,0.097788,1,5.71848e-05,-1.69469e-05,2.01669e-05,0.011437,-0.00338938,0.00403339,0,0,0,0,0.0606263,0.512152,-0.988881,36.375,1,2128,19926730
11,3,-0.674384,-0.0680813,9.77883,0.0688446,-0.547393,0.974483,-0.00674712,-0.000692269,0.097788,1,5.71848e-05,-1.69469e-05,2.01669e-05,0.011437,-0.00338938,0.00403339,0,0,0,0,0.0606263,0.512152,-0.988881,36.375,1,2128,19926730
11,4,-0.68176,-0.0710941,9.79005,0.0647767,-0.550218,0.985878,-0.00682149,-0.000721098,0.0979002,1,5.11501e-05,-1.99378e-05,1.04253e-05,0.01023,-0.00398756,0.00208506,0,0,0,0,0.0606088,0.508791,-0.991986,36.375,1,2129,19926830
12,1,-0.68176,-0.0710941,9.79005,0.0647767,-0.550218,0.985878,-0.00682149,-0.000721098,0.0979002,1,5.11501e-05,-1.99378e-05,1.04253e-05,0.01023,-0.00398756,0.00208506,0,0,0,0,0.0606088,0.508791,-0.991986,36.375,1,2129,19926830
12,2,-0.672516,-0.084478,9.78241,0.0702761,-0.563652,0.984655,-0.00672818,-0.000850454,0.0978239,1,2.80105e-05,-1.55867e-05,1.4374e-05,0.00560209,-0.00311735,0.00287479,0,0,0,0,0.0588437,0.505799,-0.987499,36.375,1,2130,19926930
12,3,-0.672516,-0.084478,9.78241,0.0702761,-0.563652,0.984655,-0.00672818,-0.000850454,0.0978239,1,2.80105e-05,-1.55867e-05,1.4374e-05,0.00560209,-0.00311735,0.00287479,0,0,0,0,0.0588437,0.505799,-0.987499,36.375,1,2130,19926930
12,4,-0.677358,-0.073012,9.78864,0.0652992,-0.549252,0.992102,-0.00677614,-0.000741076,0.0978862,1,5.45792e-05,-1.3234e-05,2.00384e-05,0.0109158,-0.00264679,0.00400768,0,0,0,0,0.0565416,0.507671,-0.981891,36.375,1,2131,19927030
12,5,-0.677358,-0.073012,9.78864,0.0652992,-0.549252,0.992102,-0.00677614,-0.000741076,0.0978862,1,5.45792e-05,-1.3234e-05,2.00384e-05,0.0109158,-0.00264679,0.00400768,0,0,0,0,0.0565416,0.507671,-0.981891,36.375,1,2131,19927030
12,6,-0.680456,-0.0692865,9.78802,0.0578494,-0.546893,0.985446,-0.00680731,-0.000704069,0.0978799,1,5.50412e-05,-1.42603e-05,3.15849e-05,0.0110082,-0.00285206,0.00631697,0,0,0,0,0.058002,0.509574,-0.979835,36.375,1,2132,19927130
10,1,-0.680456,-0.0692865,9.78802,0.0578494,-0.546893,0.985446,-0.00680731,-0.000704069,0.0978799,1,5.50412e-05,-1.42603e-05,3.15849e-05,0.0110082,-0.00285206,0.00631697,0,0,0,0,0.058002,0.509574,-0.979835,36.375,1,2132,19927130
10,2,-0.671008,-0.0812666,9.79566,0.0787701,-0.561754,0.984918,-0.00671361,-0.000822984,0.0979563,1,5.08729e-05,-1.82311e-05,2.61568e-05,0.0101746,-0.00364622,0.00523136,0,0,0,0,0.0597955,0.511582,-0.983839,36.375,1,2133,19927230
10,3,-0.671008,-0.0812666,9.79566,0.0787701,-0.561754,0.984918,-0.00671361,-0.000822984,0.0979563,1,5.08729e-05,-1.82311e-05,2.61568e-05,0.0101746,-0.00364622,0.00523136,0,0,0,0,0.0597955,0.511582,-0.983839,36.375,1,2133,19927230
10,4,-0.684115,-0.0807188,9.79337,0.0582326,-0.558835,0.984323,-0.0068427,-0.000815673,0.0979335,1,4.10899e-05,-8.19734e-06,3.19053e-05,0.00821799,-0.00163947,0.00638106,0,0,0,0,0.0601698,0.512137,-0.987869,36.375,1,2134,19927330
14,1,-0.684115,-0.0807188,9.79337,0.0582326,-0.558835,0.984323,-0.0068427,-0.000815673,0.0979335,1,4.10899e-05,-8.19734e-06,3.19053e-05,0.00821799,-0.00163947,0.00638106,0,0,0,0,0.0601698,0.512137,-0.987869,36.375,1,2134,19927330
14,2,-0.658997,-0.0704507,9.7899,0.0840406,-0.558324,0.985887,-0.00659224,-0.000715635,0.0978988,1,5.7023e-05,-1.15799e-05,-2.81276e-06,0.0114046,-0.00231598,-0.000562553,0,0,0,0,0.0597167,0.509712,-0.988426,36.375,1,2135,19927430
14,3,-0.658997,-0.0704507,9.7899,0.0840406,-0.558324,0.985887,-0.00659224,-0.000715635,0.0978988,1,5.7023e-05,-1.15799e-05,-2.81276e-06,0.0114046,-0.00231598,-0.000562553,0,0,0,0,0.0597167,0.509712,-0.988426,36.375,1,2135,19927430
14,4,-0.665707,-0.0736742,9.79534,0.0764763,-0.560268,0.994576,-0.0066606,-0.000747416,0.0979531,1,5.35958e-05,-1.81493e-05,1.3128e-05,0.0107192,-0.00362987,0.0026256,0,0,0,0,0.059378,0.504793,-0.986008,36.375,1,2136,19927530
14,5,-0.665707,-0.0736742,9.79534,0.0764763,-0.560268,0.994576,-0.0066606,-0.000747416,0.0979531,1,5.35958e-05,-1.81493e-05,1.3128e-05,0.0107192,-0.00362987,0.0026256,0,0,0,0,0.059378,0.504793,-0.986008,36.375,1,2136,19927530
14,6,-0.668287,-0.0670115,9.78693,0.0754228,-0.547179,0.986493,-0.00668427,-0.000677196,0.0978692,1,3.52208e-05,-7.26254e-06,1.40033e-05,0.00704416,-0.00145251,0.00280065,0,0,0,0,0.0589875,0.505212,-0.981957,36.375,1,2137,19927630
15,1,-0.668287,-0.0670115,9.78693,0.0754228,-0.547179,0.986493,-0.00668427,-0.000677196,0.0978692,1,3.52208e-05,-7.26254e-06,1.40033e-05,0.00704416,-0.00145251,0.00280065,0,0,0,0,0.0589875,0.505212,-0.981957,36.375,1,2137,19927630
15,2,-0.674357,-0.072903,9.78319,0.0660344,-0.551549,0.980514,-0.00674514,-0.000740839,0.0978317,1,5.79413e-05,-8.25771e-06,3.49579e-05,0.0115883,-0.00165154,0.00699158,0,0,0,0,0.0594003,0.510077,-0.981345,36.375,1,2138,19927730
15,3,-0.674357,-0.072903,9.78319,0.0660344,-0.551549,0.980514,-0.00674514,-0.000740839,0.0978317,1,5.79413e-05,-8.25771e-06,3.49579e-05,0.0115883,-0.00165154,0.00699158,0,0,0,0,0.0594003,0.510077,-0.981345,36.375,1,2138,19927730
15,4,-0.671865,-0.0829211,9.78886,0.0716963,-0.571068,0.980846,-0.00672061,-0.00083922,0.0978884,1,4.95202e-05,-1.02038e-05,2.33538e-05,0.00990405,-0.00204076,0.00467077,0,0,0,0,0.0602192,0.512101,-0.98585,36.375,1,2139,19927830
15,5,-0.671865,-0.0829211,9.78886,0.0716963,-0.571068,0.980846,-0.00672061,-0.00083922,0.0978884,1,4.95202e-05,-1.02038e-05,2.33538e-05,0.00990405,-0.00204076,0.00467077,0,0,0,0,0.0602192,0.512101,-0.98585,36.375,1,2139,19927830
15,6,-0.684595,-0.0657538,9.78502,0.0557654,-0.556494,0.977986,-0.00684894,-0.000669064,0.0978499,1,5.68311e-05,-1.54597e-05,2.95158e-05,0.0113662,-0.00309195,0.00590317,0,0,0,0,0.060659,0.511646,-0.987882,36.375,1,2140,19927930
15,7,-0.684595,-0.0657538,9.78502,0.0557654,-0.556494,0.977986,-0.00684894,-0.000669064,0.0978499,1,5.68311e-05,-1.54597e-05,2.95158e-05,0.0113662,-0.00309195,0.00590317,0,0,0,0,0.060659,0.511646,-0.987882,36.375,1,2140,19927930
15,8,-0.682772,-0.0649732,9.79859,0.0614707,-0.556815,0.998059,-0.00683026,-0.000659068,0.0979856,1,4.58286e-05,-1.31537e-05,2.59634e-05,0.00916572,-0.00263075,0.00519267,0,0,0,0,0.0592147,0.508767,-0.98996,36.375,1,2141,19928030
16,1,-0.682772,-0.0649732,9.79859,0.0614707,-0.556815,0.998059,-0.00683026,-0.000659068,0.0979856,1,4.58286e-05,-1.31537e-05,2.59634e-05,0.00916572,-0.00263075,0.00519267,0,0,0,0,0.0592147,0.508767,-0.98996,36.375,1,2141,19928030
16,2,-0.668163,-0.07432,9.78518,0.0737533,-0.569705,0.982383,-0.00668277,-0.000753093,0.0978516,1,4.9662e-05,-5.94538e-06,1.29766e-05,0.00993239,-0.00118908,0.00259532,0,0,0,0,0.0574047,0.50629,-0.986976,36.375,1,2142,19928130
16,3,-0.668163,-0.07432,9.78518,0.0737533,-0.569705,0.982383,-0.00668277,-0.000753093,0.0978516,1,4.9662e-05,-5.94538e-06,1.29766e-05,0.00993239,-0.00118908,0.00259532,0,0,0,0,0.0574047,0.50629,-0.986976,36.375,1,2142,19928130
16,4,-0.675664,-0.0700069,9.79002,0.0666133,-0.560916,0.98984,-0.00676001,-0.000709792,0.0978999,1,4.8682e-05,-1.72909e-05,1.41321e-05,0.00973641,-0.00345819,0.00282641,0,0,0,0,0.0575161,0.507654,-0.98139,36.375,1,2143,19928230
16,5,-0.675664,-0.0700069,9.79002,0.0666133,-0.560916,0.98984,-0.00676001,-0.000709792,0.0978999,1,4.8682e-05,-1.72909e-05,1.41321e-05,0.00973641,-0.00345819,0.00282641,0,0,0,0,0.0575161,0.507654,-0.98139,36.375,1,2143,19928230
16,6,-0.66313,-0.0720605,9.79703,0.0833197,-0.562279,0.993342,-0.00663222,-0.000729706,0.0979702,1,4.56534e-05,-4.74979e-06,1.16863e-05,0.00913068,-0.000949958,0.00233727,0,0,0,0,0.0594368,0.508605,-0.980873,36.375,1,2144,19928330
17,1,-0.66313,-0.0720605,9.79703,0.0833197,-0.562279,0.993342,-0.00663222,-0.000729706,0.0979702,1,4.56534e-05,-4.74979e-06,1.16863e-05,0.00913068,-0.000949958,0.00233727,0,0,0,0,0.0594368,0.508605,-0.980873,36.375,1,2144,19928330
17,2,-0.675925,-0.0741617,9.78998,0.0686226,-0.571684,0.982403,-0.00676309,-0.000750811,0.0978995,1,4.45713e-05,-1.9852e-05,3.45986e-05,0.00891427,-0.00397039,0.00691972,0,0,0,0,0.0617361,0.51059,-0.98387,36.375,1,2145,19928430
17,3,-0.675925,-0.0741617,9.78998,0.0686226,-0.571684,0.982403,-0.00676309,-0.000750811,0.0978995,1,4.45713e-05,-1.9852e-05,3.45986e-05,0.00891427,-0.00397039,0.00691972,0,0,0,0,0.0617361,0.51059,-0.98387,36.375,1,2145,19928430
17,4,-0.684861,-0.0711991,9.79481,0.0533853,-0.565354,0.985864,-0.00685093,-0.000720887,0.0979479,1,4.37517e-05,-1.20232e-05,2.37712e-05,0.00875034,-0.00240463,0.00475424,0,0,0,0,0.0621185,0.510658,-0.987911,36.375,1,2146,19928530
18,1,-0.684861,-0.0711991,9.79481,0.0533853,-0.565354,0.985864,-0.00685093,-0.000720887,0.0979479,1,4.37517e-05,-1.20232e-05,2.37712e-05,0.00875034,-0.00240463,0.00475424,0,0,0,0,0.0621185,0.510658,-0.987911,36.375,1,2146,19928530
18,2,-0.668226,-0.0797475,9.78309,0.073904,-0.576051,0.979904,-0.0066835,-0.000807807,0.0978307,1,5.21913e-05,-6.39462e-06,8.96297e-06,0.0104383,-0.00127892,0.00179259,0,0,0,0,0.0587213,0.50878,-0.990462,36.375,1,2147,19928630
18,3,-0.668226,-0.0797475,9.78309,0.073904,-0.576051,0.979904,-0.0066835,-0.000807807,0.0978307,1,5.21913e-05,-6.39462e-06,8.96297e-06,0.0104383,-0.00127892,0.00179259,0,0,0,0,0.0587213,0.50878,-0.990462,36.375,1,2147,19928630
18,4,-0.669895,-0.076965,9.78619,0.0696365,-0.574335,0.982135,-0.00670187,-0.000780488,0.0978616,1,5.36384e-05,-1.51322e-05,2.53602e-05,0.0107277,-0.00302645,0.00507205,0,0,0,0,0.0583873,0.505785,-0.986487,36.375,1,2148,19928730
18,5,-0.669895,-0.076965,9.78619,0.0696365,-0.574335,0.982135,-0.00670187,-0.000780488,0.0978616,1,5.36384e-05,-1.51322e-05,2.53602e-05,0.0107277,-0.00302645,0.00507205,0,0,0,0,0.0583873,0.505785,-0.986487,36.375,1,2148,19928730
18,6,-0.671282,-0.0681169,9.78729,0.0715483,-0.568213,0.989704,-0.00671582,-0.000692148,0.0978726,1,5.52831e-05,-1.53805e-05,1.17479e-05,0.0110566,-0.00307609,0.00234958,0,0,0,0,0.0579887,0.506693,-0.982424,36.375,1,2149,19928830
19,1,-0.671282,-0.0681169,9.78729,0.0715483,-0.568213,0.989704,-0.00671582,-0.000692148,0.0978726,1,5.52831e-05,-1.53805e-05,1.17479e-05,0.0110566,-0.00307609,0.00234958,0,0,0,0,0.0579887,0.506693,-0.982424,36.375,1,2149,19928830
19,2,-0.674017,-0.0684146,9.78493,0.0639514,-0.566676,0.979419,-0.00674204,-0.000696664,0.0978491,1,6.22069e-05,-9.71922e-06,2.55347e-05,0.0124414,-0.00194384,0.00510695,0,0,0,0,0.0594083,0.509589,-0.981356,36.375,1,2150,19928930
20,1,-0.674017,-0.0684146,9.78493,0.0639514,-0.566676,0.979419,-0.00674204,-0.000696664,0.0978491,1,6.22069e-05,-9.71922e-06,2.55347e-05,0.0124414,-0.00194384,0.00510695,0,0,0,0,0.0594083,0.509589,-0.981356,36.375,1,2150,19928930
20,2,-0.675138,-0.0656213,9.79072,0.06671,-0.565603,0.983043,-0.00675317,-0.000664489,0.097907,1,4.15407e-05,-9.22393e-06,1.04386e-05,0.00830813,-0.00184479,0.00208772,0,0,0,0,0.0597509,0.513542,-0.9843,36.375,1,2151,19929030
20,3,-0.675138,-0.0656213,9.79072,0.06671,-0.565603,0.983043,-0.00675317,-0.000664489,0.097907,1,4.15407e-05,-9.22393e-06,1.04386e-05,0.00830813,-0.00184479,0.00208772,0,0,0,0,0.0597509,0.513542,-0.9843,36.375,1,2151,19929030
20,4,-0.679917,-0.0733844,9.78935,0.0624359,-0.579085,0.980099,-0.00680429,-0.000744851,0.097893,1,5.53e-05,-2.62393e-05,1.32339e-05,0.01106,-0.00524786,0.00264679,0,0,0,0,0.0591625,0.51266,-0.989368,36.375,1,2152,19929130
20,5,-0.679917,-0.0733844,9.78935,0.0624359,-0.579085,0.980099,-0.00680429,-0.000744851,0.097893,1,5.53e-05,-2.62393e-05,1.32339e-05,0.01106,-0.00524786,0.00264679,0,0,0,0,0.0591625,0.51266,-0.989368,36.375,1,2152,19929130
20,6,-0.683683,-0.0813184,9.78523,0.056952,-0.582211,0.979111,-0.00684103,-0.000823212,0.0978519,1,5.06603e-05,-2.15488e-05,8.2961e-06,0.0101321,-0.00430975,0.00165922,0,0,0,0,0.0577548,0.508309,-0.990973,36.375,1,2153,19929230
21,1,-0.683683,-0.0813184,9.78523,0.056952,-0.582211,0.979111,-0.00684103,-0.000823212,0.0978519,1,5.06603e-05,-2.15488e-05,8.2961e-06,0.0101321,-0.00430975,0.00165922,0,0,0,0,0.0577548,0.508309,-0.990973,36.375,1,2153,19929230
21,2,-0.678995,-0.078754,9.78759,0.0619511,-0.584452,0.988434,-0.00679286,-0.000797507,0.0978756,1,4.93153e-05,-1.5065e-05,2.30746e-05,0.00986306,-0.003013,0.00461492,0,0,0,0,0.0569477,0.504831,-0.987006,36.375,1,2154,19929330
21,3,-0.678995,-0.078754,9.78759,0.0619511,-0.584452,0.988434,-0.00679286,-0.000797507,0.0978756,1,4.93153e-05,-1.5065e-05,2.30746e-05,0.00986306,-0.003013,0.00461492,0,0,0,0,0.0569477,0.504831,-0.987006,36.375,1,2154,19929330
21,4,-0.682001,-0.0754737,9.79375,0.0626431,-0.578808,0.994371,-0.00682258,-0.000765689,0.0979372,1,5.56968e-05,-1.31503e-05,3.08611e-06,0.0111394,-0.00263007,0.000617221,0,0,0,0,0.0570635,0.506674,-0.980905,36.375,1,2155,19929430
21,5,-0.682001,-0.0754737,9.79375,0.0626431,-0.578808,0.994371,-0.00682258,-0.000765689,0.0979372,1,5.56968e-05,-1.31503e-05,3.08611e-06,0.0111394,-0.00263007,0.000617221,0,0,0,0,0.0570635,0.506674,-0.980905,36.375,1,2155,19929430
21,6,-0.671579,-0.0730413,9.79132,0.069381,-0.577666,0.984548,-0.00671749,-0.000739965,0.097913,1,4.74304e-05,-8.83078e-06,1.96826e-05,0.00948608,-0.00176616,0.00393651,0,0,0,0,0.0589974,0.510506,-0.977798,36.375,1,2156,19929530
22,1,-0.671579,-0.0730413,9.79132,0.069381,-0.577666,0.984548,-0.00671749,-0.000739965,0.097913,1,4.74304e-05,-8.83078e-06,1.96826e-05,0.00948608,-0.00176616,0.00393651,0,0,0,0,0.0589974,0.510506,-0.977798,36.375,1,2156,19929530
22,2,-0.674729,-0.0730642,9.78591,0.0631279,-0.582454,0.976493,-0.00675114,-0.0007401,0.0978587,1,4.74227e-05,-1.98114e-05,1.30652e-05,0.00948455,-0.00396229,0.00261304,0,0,0,0,0.0622139,0.512998,-0.982303,36.375,1,2157,19929630
22,3,-0.674729,-0.0730642,9.78591,0.0631279,-0.582454,0.976493,-0.00675114,-0.0007401,0.0978587,1,4.74227e-05,-1.98114e-05,1.30652e-05,0.00948455,-0.00396229,0.00261304,0,0,0,0,0.0622139,0.512998,-0.982303,36.375,1,2157,19929630
22,4,-0.675279,-0.0633478,9.78431,0.0644298,-0.575536,0.971816,-0.00675741,-0.000643791,0.0978427,1,5.15023e-05,-2.36906e-05,1.73467e-05,0.0103005,-0.00473813,0.00346934,0,0,0,0,0.0625673,0.512605,-0.98787,36.375,1,2158,19929730
23,1,-0.675279,-0.0633478,9.78431,0.0644298,-0.575536,0.971816,-0.00675741,-0.000643791,0.0978427,1,5.15023e-05,-2.36906e-05,1.73467e-05,0.0103005,-0.00473813,0.00346934,0,0,0,0,0.0625673,0.512605,-0.98787,36.375,1,2158,19929730
23,2,-0.670617,-0.0651173,9.77782,0.0631004,-0.579991,0.971655,-0.0067092,-0.000659472,0.0977779,1,4.12018e-05,-1.56574e-05,1.8019e-05,0.00824037,-0.00313148,0.0036038,0,0,0,0,0.0591863,0.509752,-0.990443,36.375,1,2159,19929830
23,3,-0.670617,-0.0651173,9.77782,0.0631004,-0.579991,0.971655,-0.0067092,-0.000659472,0.0977779,1,4.12018e-05,-1.56574e-05,1.8019e-05,0.00824037,-0.00313148,0.0036038,0,0,0,0,0.0591863,0.509752,-0.990443,36.375,1,2159,19929830
23,4,-0.670464,-0.0728206,9.79126,0.0644588,-0.586738,0.987653,-0.00670807,-0.00073696,0.0979123,1,4.31632e-05,-1.76896e-05,2.25006e-05,0.00863263,-0.00353792,0.00450011,0,0,0,0,0.0578981,0.506277,-0.986473,36.4375,1,2160,19929930
24,1,-0.670464,-0.0728206,9.79126,0.0644588,-0.586738,0.987653,-0.00670807,-0.00073696,0.0979123,1,4.31632e-05,-1.76896e-05,2.25006e-05,0.00863263,-0.00353792,0.00450011,0,0,0,0,0.0578981,0.506277,-0.986473,36.4375,1,2160,19929930
24,2,-0.673573,-0.0695161,9.78892,0.0579038,-0.585663,0.990986,-0.00673903,-0.000702995,0.0978889,1,3.90522e-05,-1.69652e-05,1.39919e-05,0.00781044,-0.00339304,0.00279839,0,0,0,0,0.0584736,0.505722,-0.982953,36.4375,1,2161,19930030
24,3,-0.673573,-0.0695161,9.78892,0.0579038,-0.585663,0.990986,-0.00673903,-0.000702995,0.0978889,1,3.90522e-05,-1.69652e-05,1.39919e-05,0.00781044,-0.00339304,0.00279839,0,0,0,0,0.0584736,0.505722,-0.982953,36.4375,1,2161,19930030
24,4,-0.677465,-0.0717706,9.78112,0.0552968,-0.574694,0.969568,-0.00677678,-0.000727088,0.097811,1,4.65196e-05,-1.10304e-05,2.0748e-05,0.00930393,-0.00220608,0.0041496,0,0,0,0,0.0599098,0.509089,-0.980865,36.4375,1,2162,19930130
25,1,-0.677465,-0.0717706,9.78112,0.0552968,-0.574694,0.969568,-0.00677678,-0.000727088,0.097811,1,4.65196e-05,-1.10304e-05,2.0748e-05,0.00930393,-0.00220608,0.0041496,0,0,0,0,0.0599098,0.509089,-0.980865,36.4375,1,2162,19930130
25,2,-0.675223,-0.0739347,9.79194,0.0589852,-0.584084,0.983052,-0.00675685,-0.000748964,0.097919,1,4.72461e-05,-2.37691e-05,2.69469e-05,0.00944922,-0.00475382,0.00538937,0,0,0,0,0.0611942,0.51353,-0.984307,36.4375,1,2163,19930230
25,3,-0.675223,-0.0739347,9.79194,0.0589852,-0.584084,0.983052,-0.00675685,-0.000748964,0.097919,1,4.72461e-05,-2.37691e-05,2.69469e-05,0.00944922,-0.00475382,0.00538937,0,0,0,0,0.0611942,0.51353,-0.984307,36.4375,1,2163,19930230
25,4,-0.665191,-0.0660029,9.79669,0.0689652,-0.580277,0.988758,-0.00665321,-0.00066885,0.0979667,1,4.39417e-05,-6.73319e-06,1.59349e-05,0.00878835,-0.00134664,0.00318697,0,0,0,0,0.0605769,0.512188,-0.9909,36.4375,1,2164,19930330
26,1,-0.665191,-0.0660029,9.79669,0.0689652,-0.580277,0.988758,-0.00665321,-0.00066885,0.0979667,1,4.39417e-05,-6.73319e-06,1.59349e-05,0.00878835,-0.00134664,0.00318697,0,0,0,0,0.0605769,0.512188,-0.9909,36.4375,1,2164,19930330
26,2,-0.677847,-0.0814009,9.78273,0.054613,-0.598005,0.975998,-0.00677932,-0.000823647,0.0978271,1,4.77302e-05,-4.53391e-06,2.21006e-05,0.00954603,-0.000906782,0.00442011,0,0,0,0,0.0596916,0.508284,-0.990478,36.4375,1,2165,19930430
26,3,-0.677847,-0.0814009,9.78273,0.054613,-0.598005,0.975998,-0.00677932,-0.000823647,0.0978271,1,4.77302e-05,-4.53391e-06,2.21006e-05,0.00954603,-0.000906782,0.00442011,0,0,0,0,0.0596916,0.508284,-0.990478,36.4375,1,2165,19930430
26,4,-0.679164,-0.0777739,9.79737,0.0572932,-0.593903,0.993287,-0.00679806,-0.000785312,0.0979732,1,3.85422e-05,-3.27915e-05,1.52215e-06,0.00770843,-0.00655829,0.000304431,0,0,0,0,0.0598591,0.504789,-0.98601,36.4375,1,2166,19930530
27,1,-0.679164,-0.0777739,9.79737,0.0572932,-0.593903,0.993287,-0.00679806,-0.000785312,0.0979732,1,3.85422e-05,-3.27915e-05,1.52215e-06,0.00770843,-0.00655829,0.000304431,0,0,0,0,0.0598591,0.504789,-0.98601,36.4375,1,2166,19930530
27,2,-0.67438,-0.0651736,9.78184,0.0609176,-0.588966,0.981751,-0.00674735,-0.00066259,0.097818,1,5.50058e-05,-1.81905e-05,6.89559e-06,0.0110012,-0.00363809,0.00137912,0,0,0,0,0.0580129,0.50523,-0.982457,36.4375,1,2167,19930630
27,3,-0.67438,-0.0651736,9.78184,0.0609176,-0.588966,0.981751,-0.00674735,-0.00066259,0.097818,1,5.50058e-05,-1.81905e-05,6.89559e-06,0.0110012,-0.00363809,0.00137912,0,0,0,0,0.0580129,0.50523,-0.982457,36.4375,1,2167,19930630
27,4,-0.67229,-0.0725584,9.79125,0.059816,-0.589986,0.988323,-0.00672473,-0.000733277,0.0979123,1,3.91565e-05,-9.37469e-06,1.84398e-06,0.00783131,-0.00187494,0.000368796,0,0,0,0,0.0589599,0.509088,-0.980355,36.4375,1,2168,19930730
28,1,-0.67229,-0.0725584,9.79125,0.059816,-0.589986,0.988323,-0.00672473,-0.000733277,0.0979123,1,3.91565e-05,-9.37469e-06,1.84398e-06,0.00783131,-0.00187494,0.000368796,0,0,0,0,0.0589599,0.509088,-0.980355,36.4375,1,2168,19930730
28,2,-0.67643,-0.073845,9.78346,0.0563282,-0.589072,0.977256,-0.00676586,-0.000748135,0.0978344,1,4.99226e-05,-7.95699e-06,-6.11889e-06,0.00998453,-0.0015914,-0.00122378,0,0,0,0,0.0607496,0.512061,-0.983833,36.4375,1,2169,19930830
28,3,-0.67643,-0.073845,9.78346,0.0563282,-0.589072,0.977256,-0.00676586,-0.000748135,0.0978344,1,4.99226e-05,-7.95699e-06,-6.11889e-06,0.00998453,-0.0015914,-0.00122378,0,0,0,0,0.0607496,0.512061,-0.983833,36.4375,1,2169,19930830
28,4,-0.669566,-0.0724526,9.79089,0.0675692,-0.591124,0.982684,-0.0066966,-0.000733922,0.0979088,1,4.66277e-05,-4.94529e-06,1.97885e-05,0.00932554,-0.000989058,0.00395771,0,0,0,0,0.0611401,0.511642,-0.987884,36.4375,1,2170,19930930
29,1,-0.669566,-0.0724526,9.79089,0.0675692,-0.591124,0.982684,-0.0066966,-0.000733922,0.0979088,1,4.66277e-05,-4.94529e-06,1.97885e-05,0.00932554,-0.000989058,0.00395771,0,0,0,0,0.0611401,0.511642,-0.987884,36.4375,1,2170,19930930
29,2,-0.672623,-0.0704633,9.7889,0.0610003,-0.591559,0.979493,-0.00672862,-0.000714203,0.0978887,1,4.79222e-05,-1.22861e-05,1.39995e-05,0.00958443,-0.00245723,0.00279989,0,0,0,0,0.0611478,0.509709,-0.988937,36.4375,1,2171,19931030
29,3,-0.672623,-0.0704633,9.7889,0.0610003,-0.591559,0.979493,-0.00672862,-0.000714203,0.0978887,1,4.79222e-05,-1.22861e-05,1.39995e-05,0.00958443,-0.00245723,0.00279989,0,0,0,0,0.0611478,0.509709,-0.988937,36.4375,1,2171,19931030
29,4,-0.669902,-0.066365,9.79502,0.0644702,-0.589405,0.991514,-0.00670049,-0.000673088,0.09795,1,4.6868e-05,-7.61439e-06,1.92017e-05,0.0093736,-0.00152288,0.00384034,0,0,0,0,0.0603236,0.504315,-0.987033,36.4375,1,2172,19931130
30,1,-0.669902,-0.066365,9.79502,0.0644702,-0.589405,0.991514,-0.00670049,-0.000673088,0.09795,1,4.6868e-05,-7.61439e-06,1.92017e-05,0.0093736,-0.00152288,0.00384034,0,0,0,0,0.0603236,0.504315,-0.987033,36.4375,1,2172,19931130
30,2,-0.678594,-0.0718075,9.79332,0.0543194,-0.598125,0.99245,-0.00678627,-0.000729865,0.0979331,1,5.934e-05,-1.74557e-06,1.23313e-05,0.011868,-0.000349114,0.00246625,0,0,0,0,0.058979,0.504255,-0.982988,36.4375,1,2173,19931230
30,3,-0.678594,-0.0718075,9.79332,0.0543194,-0.598125,0.99245,-0.00678627,-0.000729865,0.0979331,1,5.934e-05,-1.74557e-06,1.23313e-05,0.011868,-0.000349114,0.00246625,0,0,0,0,0.058979,0.504255,-0.982988,36.4375,1,2173,19931230
30,4,-0.673221,-0.0782578,9.79494,0.0601068,-0.603011,0.991894,-0.00673373,-0.000793549,0.0979493,1,5.4028e-05,-8.00928e-06,2.87535e-05,0.0108056,-0.00160186,0.00575069,0,0,0,0,0.0618424,0.508585,-0.980885,36.4375,1,2174,19931330
31,1,-0.673221,-0.0782578,9.79494,0.0601068,-0.603011,0.991894,-0.00673373,-0.000793549,0.0979493,1,5.4028e-05,-8.00928e-06,2.87535e-05,0.0108056,-0.00160186,0.00575069,0,0,0,0,0.0618424,0.508585,-0.980885,36.4375,1,2174,19931330
31,2,-0.664432,-0.07243,9.79764,0.0680929,-0.592013,0.989725,-0.00664673,-0.000736006,0.0979762,1,5.75519e-05,-1.25429e-05,3.23059e-05,0.0115104,-0.00250857,0.00646118,0,0,0,0,0.0616787,0.511114,-0.985878,36.4375,1,2175,19931430
31,3,-0.664432,-0.07243,9.79764,0.0680929,-0.592013,0.989725,-0.00664673,-0.000736006,0.0979762,1,5.75519e-05,-1.25429e-05,3.23059e-05,0.0115104,-0.00250857,0.00646118,0,0,0,0,0.0616787,0.511114,-0.985878,36.4375,1,2175,19931430
31,4,-0.67349,-0.0714165,9.79501,0.0593433,-0.594103,0.98707,-0.00674033,-0.000725926,0.0979496,1,5.75537e-05,-2.79568e-05,3.60627e-05,0.0115107,-0.00559136,0.00721255,0,0,0,0,0.0605807,0.511221,-0.991427,36.4375,1,2176,19931530
31,5,-0.67349,-0.0714165,9.79501,0.0593433,-0.594103,0.98707,-0.00674033,-0.000725926,0.0979496,1,5.75537e-05,-2.79568e-05,3.60627e-05,0.0115107,-0.00559136,0.00721255,0,0,0,0,0.0605807,0.511221,-0.991427,36.4375,1,2176,19931530
31,6,-0.666806,-0.0687844,9.78921,0.0610709,-0.591398,0.986649,-0.00667247,-0.000701196,0.0978917,1,6.61182e-05,-2.27653e-05,3.04974e-05,0.0132236,-0.00455307,0.00609947,0,0,0,0,0.0591697,0.509282,-0.991463,36.4375,1,2177,19931630
31,7,-0.666806,-0.0687844,9.78921,0.0610709,-0.591398,0.986649,-0.00667247,-0.000701196,0.0978917,1,6.61182e-05,-2.27653e-05,3.04974e-05,0.0132236,-0.00455307,0.00609947,0,0,0,0,0.0591697,0.509282,-0.991463,36.4375,1,2177,19931630
31,8,-0.670234,-0.0727409,9.78242,0.0548059,-0.603145,0.978596,-0.00670541,-0.000738217,0.0978239,1,5.43594e-05,-1.58029e-05,1.28949e-05,0.0108719,-0.00316058,0.00257897,0,0,0,0,0.0579351,0.50625,-0.984959,36.4375,1,2178,19931730
32,1,-0.670234,-0.0727409,9.78242,0.0548059,-0.603145,0.978596,-0.00670541,-0.000738217,0.0978239,1,5.43594e-05,-1.58029e-05,1.28949e-05,0.0108719,-0.00316058,0.00257897,0,0,0,0,0.0579351,0.50625,-0.984959,36.4375,1,2178,19931730
32,2,-0.680386,-0.0742225,9.78553,0.0534505,-0.602896,0.978422,-0.00680812,-0.00075229,0.0978549,1,4.92409e-05,-2.19902e-05,3.14602e-05,0.00984818,-0.00439804,0.00629204,0,0,0,0,0.0565824,0.506678,-0.980903,36.4375,1,2179,19931830
32,3,-0.680386,-0.0742225,9.78553,0.0534505,-0.602896,0.978422,-0.00680812,-0.00075229,0.0978549,1,4.92409e-05,-2.19902e-05,3.14602e-05,0.00984818,-0.00439804,0.00629204,0,0,0,0,0.0565824,0.506678,-0.980903,36.4375,1,2179,19931830
32,4,-0.667175,-0.0708432,9.79361,0.067278,-0.596595,0.984801,-0.00667558,-0.000717218,0.0979357,1,4.40477e-05,-1.96753e-05,1.18318e-05,0.00880954,-0.00393505,0.00236636,0,0,0,0,0.0594453,0.509562,-0.979842,36.4375,1,2180,19931930
32,5,-0.667175,-0.0708432,9.79361,0.067278,-0.596595,0.984801,-0.00667558,-0.000717218,0.0979357,1,4.40477e-05,-1.96753e-05,1.18318e-05,0.00880954,-0.00393505,0.00236636,0,0,0,0,0.0594453,0.509562,-0.979842,36.4375,1,2180,19931930
32,6,-0.672557,-0.0805515,9.7878,0.0611949,-0.608791,0.981376,-0.0067292,-0.000812544,0.0978777,1,3.53736e-05,-1.85853e-05,7.69466e-06,0.00707471,-0.00371705,0.00153893,0,0,0,0,0.0617242,0.512044,-0.983333,36.4375,1,2181,19932030
33,1,-0.672557,-0.0805515,9.7878,0.0611949,-0.608791,0.981376,-0.0067292,-0.000812544,0.0978777,1,3.53736e-05,-1.85853e-05,7.69466e-06,0.00707471,-0.00371705,0.00153893,0,0,0,0,0.0617242,0.512044,-0.983333,36.4375,1,2181,19932030
33,2,-0.67697,-0.0627539,9.79104,0.0505578,-0.596512,0.985022,-0.00677497,-0.000635833,0.0979099,1,4.11944e-05,-2.70045e-05,1.6786e-05,0.00823888,-0.00540091,0.0033572,0,0,0,0,0.0611563,0.510666,-0.987906,36.4375,1,2182,19932130
33,3,-0.67697,-0.0627539,9.79104,0.0505578,-0.596512,0.985022,-0.00677497,-0.000635833,0.0979099,1,4.11944e-05,-2.70045e-05,1.6786e-05,0.00823888,-0.00540091,0.0033572,0,0,0,0,0.0611563,0.510666,-0.987906,36.4375,1,2182,19932130
33,4,-0.67911,-0.075853,9.79127,0.0523359,-0.607298,0.982108,-0.0067929,-0.000769811,0.0979124,1,5.60655e-05,-9.35239e-06,2.21992e-05,0.0112131,-0.00187048,0.00443984,0,0,0,0,0.0582487,0.509742,-0.989428,36.4375,1,2183,19932230
34,1,-0.67911,-0.075853,9.79127,0.0523359,-0.607298,0.982108,-0.0067929,-0.000769811,0.0979124,1,5.60655e-05,-9.35239e-06,2.21992e-05,0.0112131,-0.00187048,0.00443984,0,0,0,0,0.0582487,0.509742,-0.989428,36.4375,1,2183,19932230
34,2,-0.674906,-0.0751852,9.79396,0.0508892,-0.611568,0.99,-0.00675174,-0.000763074,0.0979393,1,5.55907e-05,-1.38994e-05,2.46239e-05,0.0111181,-0.00277988,0.00492479,0,0,0,0,0.0569202,0.508706,-0.985405,36.4375,1,2184,19932330
34,3,-0.674906,-0.0751852,9.79396,0.0508892,-0.611568,0.99,-0.00675174,-0.000763074,0.0979393,1,5.55907e-05,-1.38994e-05,2.46239e-05,0.0111181,-0.00277988,0.00492479,0,0,0,0,0.0569202,0.508706,-0.985405,36.4375,1,2184,19932330
34,4,-0.682405,-0.06202,9.79752,0.0478817,-0.595785,0.990475,-0.00682853,-0.000630582,0.0979748,1,5.23348e-05,-2.29198e-05,9.24609e-06,0.010467,-0.00458395,0.00184922,0,0,0,0,0.0575242,0.507167,-0.981401,36.4375,1,2185,19932430
35,1,-0.682405,-0.06202,9.79752,0.0478817,-0.595785,0.990475,-0.00682853,-0.000630582,0.0979748,1,5.23348e-05,-2.29198e-05,9.24609e-06,0.010467,-0.00458395,0.00184922,0,0,0,0,0.0575242,0.507167,-0.981401,36.4375,1,2185,19932430
35,2,-0.681326,-0.0719535,9.79336,0.0520792,-0.606422,0.986465,-0.00681804,-0.000728207,0.0979332,1,4.29954e-05,-2.45683e-05,1.83564e-05,0.00859908,-0.00491367,0.00367128,0,0,0,0,0.0603748,0.51006,-0.980845,36.4375,1,2186,19932530
35,3,-0.681326,-0.0719535,9.79336,0.0520792,-0.606422,0.986465,-0.00681804,-0.000728207,0.0979332,1,4.29954e-05,-2.45683e-05,1.83564e-05,0.00859908,-0.00491367,0.00367128,0,0,0,0,0.0603748,0.51006,-0.980845,36.4375,1,2186,19932530
35,4,-0.669956,-0.0798518,9.79286,0.0588243,-0.615799,0.984323,-0.00669988,-0.000813078,0.0979285,1,7.26822e-05,-1.79227e-06,2.42481e-05,0.0145364,-0.000358453,0.00484961,0,0,0,0,0.0621318,0.51354,-0.985321,36.4375,1,2187,19932630
36,1,-0.669956,-0.0798518,9.79286,0.0588243,-0.615799,0.984323,-0.00669988,-0.000813078,0.0979285,1,7.26822e-05,-1.79227e-06,2.42481e-05,0.0145364,-0.000358453,0.00484961,0,0,0,0,0.0621318,0.51354,-0.985321,36.4375,1,2187,19932630
36,2,-0.673422,-0.0685719,9.78451,0.0558865,-0.603562,0.977545,-0.00673623,-0.000696812,0.0978448,1,5.58644e-05,-1.03563e-05,1.19528e-05,0.0111729,-0.00207125,0.00239056,0,0,0,0,0.0610785,0.511687,-0.990408,36.4375,1,2188,19932730
36,3,-0.673422,-0.0685719,9.78451,0.0558865,-0.603562,0.977545,-0.00673623,-0.000696812,0.0978448,1,5.58644e-05,-1.03563e-05,1.19528e-05,0.0111729,-0.00207125,0.00239056,0,0,0,0,0.0610785,0.511687,-0.990408,36.4375,1,2188,19932730
36,4,-0.674956,-0.0714673,9.78722,0.0528458,-0.612344,0.978653,-0.00675339,-0.000724444,0.0978718,1,4.83989e-05,-1.96848e-05,2.19755e-05,0.00967977,-0.00393695,0.00439509,0,0,0,0,0.0591858,0.508306,-0.991485,36.4375,1,2189,19932830
37,1,-0.674956,-0.0714673,9.78722,0.0528458,-0.612344,0.978653,-0.00675339,-0.000724444,0.0978718,1,4.83989e-05,-1.96848e-05,2.19755e-05,0.00967977,-0.00393695,0.00439509,0,0,0,0,0.0591858,0.508306,-0.991485,36.4375,1,2189,19932830
37,2,-0.675369,-0.0754711,9.78243,0.0504081,-0.616043,0.977151,-0.00675628,-0.00076528,0.097824,1,5.22323e-05,-1.34388e-05,2.58647e-05,0.0104465,-0.00268776,0.00517294,0,0,0,0,0.0588603,0.506269,-0.986478,36.4375,1,2190,19932930
37,3,-0.675369,-0.0754711,9.78243,0.0504081,-0.616043,0.977151,-0.00675628,-0.00076528,0.097824,1,5.22323e-05,-1.34388e-05,2.58647e-05,0.0104465,-0.00268776,0.00517294,0,0,0,0,0.0588603,0.506269,-0.986478,36.4375,1,2190,19932930
37,4,-0.677481,-0.0791999,9.77834,0.0481687,-0.618446,0.975189,-0.00677594,-0.000804005,0.0977832,1,5.99362e-05,-5.90825e-06,2.09716e-05,0.0119872,-0.00118165,0.00419432,0,0,0,0,0.0594572,0.508108,-0.980379,36.4375,1,2191,19933030
38,1,-0.677481,-0.0791999,9.77834,0.0481687,-0.618446,0.975189,-0.00677594,-0.000804005,0.0977832,1,5.99362e-05,-5.90825e-06,2.09716e-05,0.0119872,-0.00118165,0.00419432,0,0,0,0,0.0594572,0.508108,-0.980379,36.4375,1,2191,19933030
38,2,-0.669712,-0.068936,9.78414,0.0565231,-0.610382,0.977268,-0.00669851,-0.000700084,0.0978412,1,5.36367e-05,-7.2364e-06,1.7049e-05,0.0107273,-0.00144728,0.00340979,0,0,0,0,0.0613945,0.509528,-0.978841,36.4375,1,2192,19933130
38,3,-0.669712,-0.068936,9.78414,0.0565231,-0.610382,0.977268,-0.00669851,-0.000700084,0.0978412,1,5.36367e-05,-7.2364e-06,1.7049e-05,0.0107273,-0.00144728,0.00340979,0,0,0,0,0.0613945,0.509528,-0.978841,36.4375,1,2192,19933130
38,4,-0.670936,-0.0655987,9.78724,0.0597995,-0.608118,0.975262,-0.00671274,-0.000666415,0.0978721,1,5.20758e-05,-1.73786e-05,1.74752e-05,0.0104152,-0.00347573,0.00349504,0,0,0,0,0.061728,0.511078,-0.983859,36.4375,1,2193,19933230
38,5,-0.670936,-0.0655987,9.78724,0.0597995,-0.608118,0.975262,-0.00671274,-0.000666415,0.0978721,1,5.20758e-05,-1.73786e-05,1.74752e-05,0.0104152,-0.00347573,0.00349504,0,0,0,0,0.061728,0.511078,-0.983859,36.4375,1,2193,19933230
38,6,-0.667888,-0.0662156,9.79229,0.0565097,-0.60516,0.980701,-0.00668148,-0.000672538,0.0979227,1,5.16232e-05,-1.34183e-05,2.03737e-05,0.0103246,-0.00268367,0.00407474,0,0,0,0,0.0611235,0.511172,-0.988905,36.4375,1,2194,19933330
39,1,-0.667888,-0.0662156,9.79229,0.0565097,-0.60516,0.980701,-0.00668148,-0.000672538,0.0979227,1,5.16232e-05,-1.34183e-05,2.03737e-05,0.0103246,-0.00268367,0.00407474,0,0,0,0,0.0611235,0.511172,-0.988905,36.4375,1,2194,19933330
39,2,-0.683359,-0.0605927,9.78736,0.040954,-0.605993,0.979905,-0.00683448,-0.000617516,0.0978734,1,5.72092e-05,-4.75416e-06,2.85282e-05,0.0114418,-0.000950833,0.00570564,0,0,0,0,0.0587583,0.508753,-0.988948,36.4375,1,2195,19933430
39,3,-0.683359,-0.0605927,9.78736,0.040954,-0.605993,0.979905,-0.00683448,-0.000617516,0.0978734,1,5.72092e-05,-4.75416e-06,2.85282e-05,0.0114418,-0.000950833,0.00570564,0,0,0,0,0.0587583,0.508753,-0.988948,36.4375,1,2195,19933430
39,4,-0.679408,-0.0684163,9.78489,0.0449419,-0.616684,0.97638,-0.00679713,-0.000693925,0.0978487,1,4.84382e-05,-1.57077e-05,2.08577e-05,0.00968764,-0.00314154,0.00417153,0,0,0,0,0.0570014,0.505274,-0.984471,36.4375,1,2196,19933530
40,1,-0.679408,-0.0684163,9.78489,0.0449419,-0.616684,0.97638,-0.00679713,-0.000693925,0.0978487,1,4.84382e-05,-1.57077e-05,2.08577e-05,0.00968764,-0.00314154,0.00417153,0,0,0,0,0.0570014,0.505274,-0.984471,36.4375,1,2196,19933530
40,2,-0.667976,-0.068501,9.78821,0.0597056,-0.61092,0.982087,-0.00668243,-0.000691884,0.0978818,1,3.43768e-05,-1.3741e-05,1.07515e-05,0.00687536,-0.00274821,0.0021503,0,0,0,0,0.0575199,0.506688,-0.981917,36.4375,1,2197,19933630
40,3,-0.667976,-0.068501,9.78821,0.0597056,-0.61092,0.982087,-0.00668243,-0.000691884,0.0978818,1,3.43768e-05,-1.3741e-05,1.07515e-05,0.00687536,-0.00274821,0.0021503,0,0,0,0,0.0575199,0.506688,-0.981917,36.4375,1,2197,19933630
40,4,-0.679537,-0.061292,9.78597,0.0469436,-0.607227,0.97929,-0.00679819,-0.000622171,0.0978595,1,4.57819e-05,-1.4514e-05,2.13589e-05,0.00915638,-0.00290279,0.00427178,0,0,0,0,0.0603625,0.510069,-0.98135,36.4375,1,2198,19933730
40,5,-0.679537,-0.061292,9.78597,0.0469436,-0.607227,0.97929,-0.00679819,-0.000622171,0.0978595,1,4.57819e-05,-1.4514e-05,2.13589e-05,0.00915638,-0.00290279,0.00427178,0,0,0,0,0.0603625,0.510069,-0.98135,36.4375,1,2198,19933730
40,6,-0.66459,-0.0682479,9.79191,0.0627223,-0.607715,0.981776,-0.00664654,-0.000692146,0.097919,1,4.85517e-05,-3.36386e-06,1.19304e-05,0.00971034,-0.000672773,0.00238608,0,0,0,0,0.0611857,0.512572,-0.985339,36.4375,1,2199,19933830
40,7,-0.66459,-0.0682479,9.79191,0.0627223,-0.607715,0.981776,-0.00664654,-0.000692146,0.097919,1,4.85517e-05,-3.36386e-06,1.19304e-05,0.00971034,-0.000672773,0.00238608,0,0,0,0,0.0611857,0.512572,-0.985339,36.4375,1,2199,19933830
40,8,-0.675101,-0.0710524,9.78552,0.0527892,-0.616306,0.973935,-0.00675277,-0.000720407,0.097855,1,4.84828e-05,-9.18447e-06,2.91841e-05,0.00969656,-0.00183689,0.00583681,0,0,0,0,0.0606177,0.511194,-0.989912,36.4375,1,2200,19933930
40,9,-0.675101,-0.0710524,9.78552,0.0527892,-0.616306,0.973935,-0.00675277,-0.000720407,0.097855,1,4.84828e-05,-9.18447e-06,2.91841e-05,0.00969656,-0.00183689,0.00583681,0,0,0,0,0.0606177,0.511194,-0.989912,36.4375,1,2200,19933930
40,10,-0.676656,-0.0724527,9.79705,0.0474586,-0.620821,0.993094,-0.00676915,-0.000736597,0.0979702,1,6.00163e-05,-1.337e-05,2.29777e-05,0.0120033,-0.002674,0.00459553,0,0,0,0,0.0581951,0.509299,-0.991963,36.4375,1,2201,19934030
41,1,-0.676656,-0.0724527,9.79705,0.0474586,-0.620821,0.993094,-0.00676915,-0.000736597,0.0979702,1,6.00163e-05,-1.337e-05,2.29777e-05,0.0120033,-0.002674,0.00459553,0,0,0,0,0.0581951,0.509299,-0.991963,36.4375,1,2201,19934030
41,2,-0.669518,-0.0743049,9.78918,0.0544195,-0.624205,0.985698,-0.00669806,-0.000749412,0.0978916,1,3.17301e-05,-1.48044e-05,1.12504e-05,0.00634602,-0.00296088,0.00225007,0,0,0,0,0.0568381,0.509248,-0.988423,36.4375,1,2202,19934130
41,3,-0.669518,-0.0743049,9.78918,0.0544195,-0.624205,0.985698,-0.00669806,-0.000749412,0.0978916,1,3.17301e-05,-1.48044e-05,1.12504e-05,0.00634602,-0.00296088,0.00225007,0,0,0,0,0.0568381,0.509248,-0.988423,36.4375,1,2202,19934130
41,4,-0.668634,-0.0666496,9.79263,0.0606801,-0.614182,0.987303,-0.00668737,-0.000676371,0.0979262,1,4.95129e-05,-5.37001e-06,1.33067e-05,0.00990257,-0.001074,0.00266134,0,0,0,0,0.0574468,0.509632,-0.982861,36.4375,1,2203,19934230
42,1,-0.668634,-0.0666496,9.79263,0.0606801,-0.614182,0.987303,-0.00668737,-0.000676371,0.0979262,1,4.95129e-05,-5.37001e-06,1.33067e-05,0.00990257,-0.001074,0.00266134,0,0,0,0,0.0574468,0.509632,-0.982861,36.4375,1,2203,19934230
42,2,-0.678561,-0.0751682,9.79468,0.0530811,-0.621232,0.986614,-0.00678903,-0.000765094,0.0979464,1,6.77129e-05,-1.757e-05,1.0881e-05,0.0135426,-0.00351401,0.0021762,0,0,0,0,0.0608678,0.508602,-0.981385,36.4375,1,2204,19934330
42,3,-0.678561,-0.0751682,9.79468,0.0530811,-0.621232,0.986614,-0.00678903,-0.000765094,0.0979464,1,6.77129e-05,-1.757e-05,1.0881e-05,0.0135426,-0.00351401,0.0021762,0,0,0,0,0.0608678,0.508602,-0.981385,36.4375,1,2204,19934330
42,4,-0.674292,-0.0802391,9.79255,0.0582225,-0.627711,0.976894,-0.00674574,-0.000813701,0.0979252,1,5.72447e-05,-1.44595e-05,7.25173e-06,0.0114489,-0.0028919,0.00145035,0,0,0,0,0.0617152,0.509642,-0.985406,36.4375,1,2205,19934430
43,1,-0.674292,-0.0802391,9.79255,0.0582225,-0.627711,0.976894,-0.00674574,-0.000813701,0.0979252,1,5.72447e-05,-1.44595e-05,7.25173e-06,0.0114489,-0.0028919,0.00145035,0,0,0,0,0.0617152,0.509642,-0.985406,36.4375,1,2205,19934430
43,2,-0.675418,-0.072022,9.77907,0.041653,-0.624136,0.97071,-0.00675745,-0.000730672,0.0977904,1,5.28824e-05,-1.67598e-05,8.06176e-06,0.0105765,-0.00335196,0.00161235,0,0,0,0,0.0610989,0.51119,-0.989914,36.4375,1,2206,19934530
43,3,-0.675418,-0.072022,9.77907,0.041653,-0.624136,0.97071,-0.00675745,-0.000730672,0.0977904,1,5.28824e-05,-1.67598e-05,8.06176e-06,0.0105765,-0.00335196,0.00161235,0,0,0,0,0.0610989,0.51119,-0.989914,36.4375,1,2206,19934530
43,4,-0.681761,-0.075872,9.79535,0.0410106,-0.628323,0.986084,-0.00681907,-0.000765383,0.0979534,1,3.29781e-05,-7.60163e-06,1.4834e-05,0.00659563,-0.00152033,0.0029668,0,0,0,0,0.0591739,0.509761,-0.990947,36.4375,1,2207,19934630
43,5,-0.681761,-0.075872,9.79535,0.0410106,-0.628323,0.986084,-0.00681907,-0.000765383,0.0979534,1,3.29781e-05,-7.60163e-06,1.4834e-05,0.00659563,-0.00152033,0.0029668,0,0,0,0,0.0591739,0.509761,-0.990947,36.4375,1,2207,19934630
43,6,-0.66647,-0.0682343,9.78481,0.0569371,-0.621493,0.977989,-0.00666917,-0.000693175,0.0978477,1,5.43632e-05,-2.29309e-05,1.44765e-05,0.0108726,-0.00458618,0.00289529,0,0,0,0,0.0583996,0.505776,-0.985982,36.4375,1,2208,19934730
44,1,-0.66647,-0.0682343,9.78481,0.0569371,-0.621493,0.977989,-0.00666917,-0.000693175,0.0978477,1,5.43632e-05,-2.29309e-05,1.44765e-05,0.0108726,-0.00458618,0.00289529,0,0,0,0,0.0583996,0.505776,-0.985982,36.4375,1,2208,19934730
44,2,-0.680959,-0.070268,9.78522,0.0423209,-0.623666,0.974222,-0.00680998,-0.000711305,0.0978521,1,4.24832e-05,-2.14577e-06,2.28584e-05,0.00849664,-0.000429153,0.00457168,0,0,0,0,0.0580053,0.507163,-0.981404,36.4375,1,2209,19934830
44,3,-0.680959,-0.070268,9.78522,0.0423209,-0.623666,0.974222,-0.00680998,-0.000711305,0.0978521,1,4.24832e-05,-2.14577e-06,2.28584e-05,0.00849664,-0.000429153,0.00457168,0,0,0,0,0.0580053,0.507163,-0.981404,36.4375,1,2209,19934830
44,4,-0.66882,-0.0759762,9.79628,0.0554087,-0.627754,0.987217,-0.0066899,-0.000769421,0.0979626,1,4.79129e-05,-8.82338e-06,2.02524e-05,0.00958257,-0.00176468,0.00405048,0,0,0,0,0.059906,0.510055,-0.980338,36.4375,1,2210,19934930
45,1,-0.66882,-0.0759762,9.79628,0.0554087,-0.627754,0.987217,-0.0066899,-0.000769421,0.0979626,1,4.79129e-05,-8.82338e-06,2.02524e-05,0.00958257,-0.00176468,0.00405048,0,0,0,0,0.059906,0.510055,-0.980338,36.4375,1,2210,19934930
45,2,-0.677054,-0.0691201,9.79165,0.0493933,-0.618631,0.984832,-0.0067723,-0.00069999,0.0979164,1,4.40591e-05,-9.05785e-06,1.19115e-05,0.00881182,-0.00181157,0.00238229,0,0,0,0,0.0616749,0.51208,-0.985352,36.4375,1,2211,19935030
45,3,-0.677054,-0.0691201,9.79165,0.0493933,-0.618631,0.984832,-0.0067723,-0.00069999,0.0979164,1,4.40591e-05,-9.05785e-06,1.19115e-05,0.00881182,-0.00181157,0.00238229,0,0,0,0,0.0616749,0.51208,-0.985352,36.4375,1,2211,19935030
45,4,-0.681872,-0.0690779,9.78355,0.0424306,-0.623901,0.971872,-0.00682131,-0.000700449,0.0978352,1,4.84772e-05,-1.33252e-05,1.3508e-05,0.00969545,-0.00266504,0.00270159,0,0,0,0,0.0615681,0.51264,-0.989379,36.4375,1,2212,19935130
46,1,-0.681872,-0.0690779,9.78355,0.0424306,-0.623901,0.971872,-0.00682131,-0.000700449,0.0978352,1,4.84772e-05,-1.33252e-05,1.3508e-05,0.00969545,-0.00266504,0.00270159,0,0,0,0,0.0615681,0.51264,-0.989379,36.4375,1,2212,19935130
46,2,-0.671252,-0.0767053,9.78748,0.0507632,-0.633546,0.976332,-0.00671521,-0.000774827,0.0978746,1,3.84524e-05,-1.38973e-05,1.83675e-05,0.00769048,-0.00277946,0.0036735,0,0,0,0,0.0591578,0.510736,-0.990926,36.4375,1,2213,19935230
46,3,-0.671252,-0.0767053,9.78748,0.0507632,-0.633546,0.976332,-0.00671521,-0.000774827,0.0978746,1,3.84524e-05,-1.38973e-05,1.83675e-05,0.00769048,-0.00277946,0.0036735,0,0,0,0,0.0591578,0.510736,-0.990926,36.4375,1,2213,19935230
46,4,-0.671586,-0.068774,9.78382,0.0472782,-0.624588,0.977254,-0.00672088,-0.00069593,0.0978378,1,4.0125e-05,-2.58276e-05,2.52315e-05,0.00802499,-0.00516551,0.00504629,0,0,0,0,0.0574251,0.505793,-0.986482,36.4375,1,2214,19935330
47,1,-0.671586,-0.068774,9.78382,0.0472782,-0.624588,0.977254,-0.00672088,-0.00069593,0.0978378,1,4.0125e-05,-2.58276e-05,2.52315e-05,0.00802499,-0.00516551,0.00504629,0,0,0,0,0.0574251,0.505793,-0.986482,36.4375,1,2214,19935330
47,2,-0.671662,-0.0743189,9.78886,0.0539684,-0.628888,0.986179,-0.00671827,-0.00075141,0.0978884,1,4.12222e-05,-8.51221e-06,1.1269e-05,0.00824444,-0.00170244,0.00225381,0,0,0,0,0.0580381,0.506657,-0.980405,36.4375,1,2215,19935430
47,3,-0.671662,-0.0743189,9.78886,0.0539684,-0.628888,0.986179,-0.00671827,-0.00075141,0.0978884,1,4.12222e-05,-8.51221e-06,1.1269e-05,0.00824444,-0.00170244,0.00225381,0,0,0,0,0.0580381,0.506657,-0.980405,36.4375,1,2215,19935430
47,4,-0.661477,-0.0717613,9.78914,0.0617993,-0.62455,0.978058,-0.00661698,-0.000726458,0.0978912,1,4.4452e-05,-1.13919e-05,1.07402e-05,0.00889039,-0.00227839,0.00214805,0,0,0,0,0.0604446,0.509527,-0.978332,36.4375,1,2216,19935530
48,1,-0.661477,-0.0717613,9.78914,0.0617993,-0.62455,0.978058,-0.00661698,-0.000726458,0.0978912,1,4.4452e-05,-1.13919e-05,1.07402e-05,0.00889039,-0.00227839,0.00214805,0,0,0,0,0.0604446,0.509527,-0.978332,36.4375,1,2216,19935530
48,2,-0.669104,-0.0804926,9.78913,0.0573211,-0.632765,0.976594,-0.00669416,-0.000817983,0.097891,1,6.60382e-05,-1.60338e-05,9.59429e-06,0.0132076,-0.00320676,0.00191886,0,0,0,0,0.0608275,0.511041,-0.98133,36.4375,1,2217,19935630
48,3,-0.669104,-0.0804926,9.78913,0.0573211,-0.632765,0.976594,-0.00669416,-0.000817983,0.097891,1,6.60382e-05,-1.60338e-05,9.59429e-06,0.0132076,-0.00320676,0.00191886,0,0,0,0,0.0608275,0.511041,-0.98133,36.4375,1,2217,19935630
48,4,-0.671089,-0.0728737,9.7892,0.0483226,-0.627341,0.972692,-0.00671056,-0.000737724,0.0978919,1,4.41372e-05,1.49366e-06,2.5753e-05,0.00882744,0.000298732,0.0051506,0,0,0,0,0.060194,0.510674,-0.987901,36.4375,1,2218,19935730
49,1,-0.671089,-0.0728737,9.7892,0.0483226,-0.627341,0.972692,-0.00671056,-0.000737724,0.0978919,1,4.41372e-05,1.49366e-06,2.5753e-05,0.00882744,0.000298732,0.0051506,0,0,0,0,0.060194,0.510674,-0.987901,36.4375,1,2218,19935730
49,2,-0.680498,-0.0731157,9.7835,0.0430626,-0.629979,0.973161,-0.00680767,-0.000740559,0.0978347,1,4.66218e-05,-1.38564e-05,2.05509e-05,0.00932437,-0.00277127,0.00411017,0,0,0,0,0.0587213,0.50878,-0.990462,36.4375,1,2219,19935830
49,3,-0.680498,-0.0731157,9.7835,0.0430626,-0.629979,0.973161,-0.00680767,-0.000740559,0.0978347,1,4.66218e-05,-1.38564e-05,2.05509e-05,0.00932437,-0.00277127,0.00411017,0,0,0,0,0.0587213,0.50878,-0.990462,36.4375,1,2219,19935830
49,4,-0.677016,-0.0697825,9.78962,0.0454784,-0.624925,0.980932,-0.00677268,-0.00070688,0.0978959,1,4.52866e-05,-1.29508e-05,1.39212e-05,0.00905732,-0.00259017,0.00278424,0,0,0,0,0.05789,0.506765,-0.986462,36.4375,1,2220,19935930
49,5,-0.677016,-0.0697825,9.78962,0.0454784,-0.624925,0.980932,-0.00677268,-0.00070688,0.0978959,1,4.52866e-05,-1.29508e-05,1.39212e-05,0.00905732,-0.00259017,0.00278424,0,0,0,0,0.05789,0.506765,-0.986462,36.4375,1,2220,19935930
49,6,-0.668126,-0.0750984,9.78341,0.0576578,-0.633884,0.976027,-0.00668572,-0.000761057,0.0978337,1,5.01891e-05,-2.28936e-05,1.89189e-05,0.0100378,-0.00457872,0.00378378,0,0,0,0,0.0589348,0.50766,-0.982407,36.4375,1,2221,19936030
50,1,-0.668126,-0.0750984,9.78341,0.0576578,-0.633884,0.976027,-0.00668572,-0.000761057,0.0978337,1,5.01891e-05,-2.28936e-05,1.89189e-05,0.0100378,-0.00457872,0.00378378,0,0,0,0,0.0589348,0.50766,-0.982407,36.4375,1,2221,19936030
50,2,-0.665577,-0.0660543,9.78245,0.0574436,-0.623187,0.9715,-0.00665832,-0.000669543,0.0978242,1,4.49772e-05,-1.31265e-05,1.5076e-05,0.00899545,-0.00262529,0.00301521,0,0,0,0,0.0603914,0.51053,-0.979825,36.4375,1,2222,19936130
50,3,-0.665577,-0.0660543,9.78245,0.0574436,-0.623187,0.9715,-0.00665832,-0.000669543,0.0978242,1,4.49772e-05,-1.31265e-05,1.5076e-05,0.00899545,-0.00262529,0.00301521,0,0,0,0,0.0603914,0.51053,-0.979825,36.4375,1,2222,19936130
50,4,-0.671697,-0.068863,9.78992,0.0518468,-0.625513,0.977328,-0.006719,-0.000701021,0.097899,1,6.21639e-05,-1.0494e-05,1.62741e-05,0.0124328,-0.0020988,0.00325483,0,0,0,0,0.0607373,0.51207,-0.984338,36.4375,1,2223,19936230
50,5,-0.671697,-0.068863,9.78992,0.0518468,-0.625513,0.977328,-0.006719,-0.000701021,0.097899,1,6.21639e-05,-1.0494e-05,1.62741e-05,0.0124328,-0.0020988,0.00325483,0,0,0,0,0.0607373,0.51207,-0.984338,36.4375,1,2223,19936230
50,6,-0.675244,-0.0807155,9.78917,0.0452764,-0.638431,0.97387,-0.00675476,-0.000815665,0.0978914,1,4.1796e-05,-1.20401e-05,2.41845e-05,0.00835919,-0.00240802,0.0048369,0,0,0,0,0.0620407,0.511679,-0.990413,36.4375,1,2224,19936330
53,1,-0.675244,-0.0807155,9.78917,0.0452764,-0.638431,0.97387,-0.00675476,-0.000815665,0.0978914,1,4.1796e-05,-1.20401e-05,2.41845e-05,0.00835919,-0.00240802,0.0048369,0,0,0,0,0.0620407,0.511679,-0.990413,36.4375,1,2224,19936330
53,2,-0.682697,-0.076979,9.79739,0.0360387,-0.640737,0.988668,-0.00683079,-0.000781174,0.0979735,1,5.70026e-05,-1.96037e-05,1.57266e-05,0.0114005,-0.00392075,0.00314531,0,0,0,0,0.0596717,0.510226,-0.989929,36.4375,1,2225,19936430
53,3,-0.682697,-0.076979,9.79739,0.0360387,-0.640737,0.988668,-0.00683079,-0.000781174,0.0979735,1,5.70026e-05,-1.96037e-05,1.57266e-05,0.0114005,-0.00392075,0.00314531,0,0,0,0,0.0596717,0.510226,-0.989929,36.4375,1,2225,19936430
53,4,-0.672266,-0.0750027,9.78648,0.0470745,-0.636528,0.98149,-0.00672641,-0.000757993,0.0978645,1,4.00245e-05,-1.92021e-05,9.81426e-06,0.0080049,-0.00384041,0.00196285,0,0,0,0,0.0570018,0.506719,-0.983429,36.4375,1,2226,19936530
54,1,-0.672266,-0.0750027,9.78648,0.0470745,-0.636528,0.98149,-0.00672641,-0.000757993,0.0978645,1,4.00245e-05,-1.92021e-05,9.81426e-06,0.0080049,-0.00384041,0.00196285,0,0,0,0,0.0570018,0.506719,-0.983429,36.4375,1,2226,19936530
54,2,-0.664447,-0.0654243,9.78143,0.0600077,-0.62165,0.971111,-0.00664958,-0.000665968,0.0978139,1,5.98413e-05,-2.61663e-05,1.41559e-06,0.0119683,-0.00523326,0.000283119,0,0,0,0,0.0580423,0.507136,-0.979889,36.4375,1,2227,19936630
54,3,-0.664447,-0.0654243,9.78143,0.0600077,-0.62165,0.971111,-0.00664958,-0.000665968,0.0978139,1,5.98413e-05,-2.61663e-05,1.41559e-06,0.0119683,-0.00523326,0.000283119,0,0,0,0,0.0580423,0.507136,-0.979889,36.4375,1,2227,19936630
54,4,-0.671067,-0.0668992,9.78518,0.0480312,-0.628477,0.975625,-0.00671244,-0.000680292,0.0978516,1,5.69392e-05,-9.1361e-06,1.17125e-05,0.0113878,-0.00182722,0.00234249,0,0,0,0,0.0613086,0.511037,-0.981333,36.4375,1,2228,19936730
56,1,-0.671067,-0.0668992,9.78518,0.0480312,-0.628477,0.975625,-0.00671244,-0.000680292,0.0978516,1,5.69392e-05,-9.1361e-06,1.17125e-05,0.0113878,-0.00182722,0.00234249,0,0,0,0,0.0613086,0.511037,-0.981333,36.4375,1,2228,19936730
56,2,-0.673686,-0.063899,9.78455,0.0499634,-0.623722,0.970657,-0.00674007,-0.00064908,0.0978453,1,5.10811e-05,-1.644e-05,6.93069e-06,0.0102162,-0.003288,0.00138614,0,0,0,0,0.0631391,0.513017,-0.983822,36.4375,1,2229,19936830
56,3,-0.673686,-0.063899,9.78455,0.0499634,-0.623722,0.970657,-0.00674007,-0.00064908,0.0978453,1,5.10811e-05,-1.644e-05,6.93069e-06,0.0102162,-0.003288,0.00138614,0,0,0,0,0.0631391,0.513017,-0.983822,36.4375,1,2229,19936830
56,4,-0.673738,-0.0691611,9.78688,0.0448376,-0.631917,0.97677,-0.00674038,-0.000699717,0.0978685,1,4.07863e-05,-1.53892e-05,9.09555e-06,0.00815725,-0.00307784,0.00181911,0,0,0,0,0.0621475,0.511119,-0.986385,36.4375,1,2230,19936930
57,1,-0.673738,-0.0691611,9.78688,0.0448376,-0.631917,0.97677,-0.00674038,-0.000699717,0.0978685,1,4.07863e-05,-1.53892e-05,9.09555e-06,0.00815725,-0.00307784,0.00181911,0,0,0,0,0.0621475,0.511119,-0.986385,36.4375,1,2230,19936930
57,2,-0.673201,-0.0711413,9.7899,0.0462504,-0.634964,0.978358,-0.00673159,-0.000721433,0.097899,1,5.03043e-05,2.00994e-06,1.26347e-05,0.0100609,0.000401988,0.00252694,0,0,0,0,0.0587256,0.509259,-0.989946,36.4375,1,2231,19937030
57,3,-0.673201,-0.0711413,9.7899,0.0462504,-0.634964,0.978358,-0.00673159,-0.000721433,0.097899,1,5.03043e-05,2.00994e-06,1.26347e-05,0.0100609,0.000401988,0.00252694,0,0,0,0,0.0587256,0.509259,-0.989946,36.4375,1,2231,19937030
57,4,-0.680459,-0.0738518,9.78485,0.0373535,-0.636456,0.979436,-0.00680677,-0.000749009,0.0978483,1,5.21597e-05,-1.13045e-05,2.08727e-05,0.0104319,-0.0022609,0.00417454,0,0,0,0,0.055986,0.506284,-0.985959,36.4375,1,2232,19937130
57,5,-0.680459,-0.0738518,9.78485,0.0373535,-0.636456,0.979436,-0.00680677,-0.000749009,0.0978483,1,5.21597e-05,-1.13045e-05,2.08727e-05,0.0104319,-0.0022609,0.00417454,0,0,0,0,0.055986,0.506284,-0.985959,36.4375,1,2232,19937130
57,6,-0.672757,-0.0627972,9.78455,0.0477314,-0.622193,0.976644,-0.00673034,-0.000639439,0.0978453,1,5.69056e-05,-1.42919e-05,2.46113e-05,0.0113811,-0.00285839,0.00492226,0,0,0,0,0.0570265,0.506701,-0.982419,36.4375,1,2233,19937230
57,7,-0.672757,-0.0627972,9.78455,0.0477314,-0.622193,0.976644,-0.00673034,-0.000639439,0.0978453,1,5.69056e-05,-1.42919e-05,2.46113e-05,0.0113811,-0.00285839,0.00492226,0,0,0,0,0.0570265,0.506701,-0.982419,36.4375,1,2233,19937230
57,8,-0.6696,-0.0768752,9.78746,0.0538412,-0.638686,0.974732,-0.00669652,-0.000779051,0.0978745,1,5.13625e-05,-2.79964e-06,1.82295e-05,0.0102725,-0.000559928,0.00364591,0,0,0,0,0.0598529,0.511058,-0.981831,36.4375,1,2234,19937330
57,9,-0.6696,-0.0768752,9.78746,0.0538412,-0.638686,0.974732,-0.00669652,-0.000779051,0.0978745,1,5.13625e-05,-2.79964e-06,1.82295e-05,0.0102725,-0.000559928,0.00364591,0,0,0,0,0.0598529,0.511058,-0.981831,36.4375,1,2234,19937330
57,10,-0.676337,-0.0687315,9.79064,0.0465098,-0.625742,0.980209,-0.00676583,-0.000697105,0.0979061,1,4.84438e-05,-1.27179e-05,2.25117e-05,0.00968876,-0.00254358,0.00450234,0,0,0,0,0.0607378,0.513516,-0.983295,36.4375,1,2235,19937430
58,1,-0.676337,-0.0687315,9.79064,0.0465098,-0.625742,0.980209,-0.00676583,-0.000697105,0.0979061,1,4.84438e-05,-1.27179e-05,2.25117e-05,0.00968876,-0.00254358,0.00450234,0,0,0,0,0.0607378,0.513516,-0.983295,36.4375,1,2235,19937430
58,2,-0.669159,-0.0735676,9.79529,0.0545136,-0.641355,0.982281,-0.0066944,-0.000745909,0.0979526,1,5.19696e-05,-1.44042e-05,3.90589e-06,0.0103939,-0.00288084,0.000781177,0,0,0,0,0.0616008,0.512134,-0.988381,36.4375,1,2236,19937530
60,1,-0.669159,-0.0735676,9.79529,0.0545136,-0.641355,0.982281,-0.0066944,-0.000745909,0.0979526,1,5.19696e-05,-1.44042e-05,3.90589e-06,0.0103939,-0.00288084,0.000781177,0,0,0,0,0.0616008,0.512134,-0.988381,36.4375,1,2236,19937530
60,2,-0.676147,-0.0724409,9.78517,0.0427005,-0.634248,0.973531,-0.00676269,-0.000735139,0.0978515,1,5.36908e-05,-6.33987e-06,1.64082e-05,0.0107382,-0.00126797,0.00328163,0,0,0,0,0.0592147,0.508767,-0.98996,36.4375,1,2237,19937630
60,3,-0.676147,-0.0724409,9.78517,0.0427005,-0.634248,0.973531,-0.00676269,-0.000735139,0.0978515,1,5.36908e-05,-6.33987e-06,1.64082e-05,0.0107382,-0.00126797,0.00328163,0,0,0,0,0.0592147,0.508767,-0.98996,36.4375,1,2237,19937630
60,4,-0.67475,-0.0764352,9.7797,0.0450031,-0.645462,0.971454,-0.00675039,-0.000775607,0.0977967,1,5.62834e-05,-1.49141e-05,1.82246e-05,0.0112567,-0.00298282,0.00364493,0,0,0,0,0.0559774,0.505327,-0.986991,36.4375,1,2238,19937730
61,1,-0.67475,-0.0764352,9.7797,0.0450031,-0.645462,0.971454,-0.00675039,-0.000775607,0.0977967,1,5.62834e-05,-1.49141e-05,1.82246e-05,0.0112567,-0.00298282,0.00364493,0,0,0,0,0.0559774,0.505327,-0.986991,36.4375,1,2238,19937730
61,2,-0.681143,-0.0698213,9.79438,0.042655,-0.634008,0.988039,-0.00681379,-0.000709156,0.0979436,1,5.46909e-05,-1.21706e-05,1.68515e-05,0.0109382,-0.00243411,0.0033703,0,0,0,0,0.0565411,0.506226,-0.982933,36.4375,1,2239,19937830
63,1,-0.681143,-0.0698213,9.79438,0.042655,-0.634008,0.988039,-0.00681379,-0.000709156,0.0979436,1,5.46909e-05,-1.21706e-05,1.68515e-05,0.0109382,-0.00243411,0.0033703,0,0,0,0,0.0565411,0.506226,-0.982933,36.4375,1,2239,19937830
63,2,-0.66593,-0.0789671,9.79558,0.0567566,-0.643907,0.984924,-0.00666348,-0.000799002,0.0979554,1,4.70095e-05,-2.14205e-05,9.11188e-06,0.00940189,-0.00428409,0.00182238,0,0,0,0,0.0589723,0.509079,-0.97985,36.4375,1,2240,19937930
65,1,-0.66593,-0.0789671,9.79558,0.0567566,-0.643907,0.984924,-0.00666348,-0.000799002,0.0979554,1,4.70095e-05,-2.14205e-05,9.11188e-06,0.00940189,-0.00428409,0.00182238,0,0,0,0,0.0589723,0.509079,-0.97985,36.4375,1,2240,19937930
65,2,-0.670074,-0.0803093,9.79389,0.054705,-0.646355,0.981035,-0.00670484,-0.000813489,0.0979385,1,5.2858e-05,-2.09589e-05,3.11815e-06,0.0105716,-0.00419178,0.00062363,0,0,0,0,0.0597751,0.512078,-0.984333,36.4375,1,2241,19938030
65,3,-0.670074,-0.0803093,9.79389,0.054705,-0.646355,0.981035,-0.00670484,-0.000813489,0.0979385,1,5.2858e-05,-2.09589e-05,3.11815e-06,0.0105716,-0.00419178,0.00062363,0,0,0,0,0.0597751,0.512078,-0.984333,36.4375,1,2241,19938030
65,4,-0.682046,-0.0767696,9.79908,0.0394604,-0.63992,0.984159,-0.00682343,-0.000777424,0.0979906,1,4.85312e-05,-1.52849e-05,1.58735e-05,0.00970624,-0.00305698,0.00317471,0,0,0,0,0.0601779,0.51165,-0.98788,36.4375,1,2242,19938130
66,1,-0.682046,-0.0767696,9.79908,0.0394604,-0.63992,0.984159,-0.00682343,-0.000777424,0.0979906,1,4.85312e-05,-1.52849e-05,1.58735e-05,0.00970624,-0.00305698,0.00317471,0,0,0,0,0.0601779,0.51165,-0.98788,36.4375,1,2242,19938130
66,2,-0.684665,-0.0778278,9.79435,0.0317541,-0.647398,0.981701,-0.00684946,-0.000785738,0.0979433,1,3.69532e-05,-1.44727e-05,1.61545e-05,0.00739064,-0.00289453,0.00323089,0,0,0,0,0.0587626,0.509232,-0.988432,36.4375,1,2243,19938230
66,3,-0.684665,-0.0778278,9.79435,0.0317541,-0.647398,0.981701,-0.00684946,-0.000785738,0.0979433,1,3.69532e-05,-1.44727e-05,1.61545e-05,0.00739064,-0.00289453,0.00323089,0,0,0,0,0.0587626,0.509232,-0.988432,36.4375,1,2243,19938230
66,4,-0.664943,-0.0659187,9.78278,0.0569959,-0.633124,0.9762,-0.00665136,-0.000667685,0.0978276,1,4.26453e-05,-9.95731e-06,1.15801e-05,0.00852906,-0.00199146,0.00231602,0,0,0,0,0.057454,0.506254,-0.984957,36.4375,1,2244,19938330
67,1,-0.664943,-0.0659187,9.78278,0.0569959,-0.633124,0.9762,-0.00665136,-0.000667685,0.0978276,1,4.26453e-05,-9.95731e-06,1.15801e-05,0.00852906,-0.00199146,0.00231602,0,0,0,0,0.057454,0.506254,-0.984957,36.4375,1,2244,19938330
67,2,-0.680152,-0.0708308,9.78928,0.0406916,-0.637466,0.982521,-0.0068017,-0.000717729,0.0978927,1,4.70841e-05,-1.03035e-06,1.49138e-05,0.00941682,-0.00020607,0.00298276,0,0,0,0,0.0580338,0.506178,-0.980921,36.4375,1,2245,19938430
67,3,-0.680152,-0.0708308,9.78928,0.0406916,-0.637466,0.982521,-0.0068017,-0.000717729,0.0978927,1,4.70841e-05,-1.03035e-06,1.49138e-05,0.00941682,-0.00020607,0.00298276,0,0,0,0,0.0580338,0.506178,-0.980921,36.4375,1,2245,19938430
67,4,-0.672082,-0.0740909,9.78583,0.0477726,-0.637274,0.975885,-0.00672696,-0.000752005,0.0978578,1,5.52761e-05,-3.15437e-05,2.06398e-05,0.0110552,-0.00630873,0.00412795,0,0,0,0,0.0594083,0.509589,-0.981356,36.4375,1,2246,19938530
69,1,-0.672082,-0.0740909,9.78583,0.0477726,-0.637274,0.975885,-0.00672696,-0.000752005,0.0978578,1,5.52761e-05,-3.15437e-05,2.06398e-05,0.0110552,-0.00630873,0.00412795,0,0,0,0,0.0594083,0.509589,-0.981356,36.4375,1,2246,19938530
69,2,-0.668322,-0.0667785,9.78924,0.0531406,-0.631213,0.976998,-0.00668492,-0.000675808,0.0978922,1,4.04082e-05,-8.74713e-06,8.3894e-06,0.00808164,-0.00174943,0.00167788,0,0,0,0,0.0611733,0.512581,-0.985843,36.4375,1,2247,19938630
69,3,-0.668322,-0.0667785,9.78924,0.0531406,-0.631213,0.976998,-0.00668492,-0.000675808,0.0978922,1,4.04082e-05,-8.74713e-06,8.3894e-06,0.00808164,-0.00174943,0.00167788,0,0,0,0,0.0611733,0.512581,-0.985843,36.4375,1,2247,19938630
69,4,-0.683534,-0.0710489,9.77914,0.0318639,-0.64236,0.968443,-0.00683763,-0.000721451,0.0977911,1,5.51791e-05,-1.18075e-05,1.24309e-05,0.0110358,-0.00236149,0.00248619,0,0,0,0,0.0620568,0.510703,-0.990435,36.4375,1,2248,19938730
71,1,-0.683534,-0.0710489,9.77914,0.0318639,-0.64236,0.968443,-0.00683763,-0.000721451,0.0977911,1,5.51791e-05,-1.18075e-05,1.24309e-05,0.0110358,-0.00236149,0.00248619,0,0,0,0,0.0620568,0.510703,-0.990435,36.4375,1,2248,19938730
71,2,-0.672041,-0.0720753,9.78685,0.0468232,-0.642863,0.973072,-0.00672315,-0.000730617,0.0978682,1,5.0215e-05,-1.39962e-05,2.61369e-06,0.010043,-0.00279923,0.000522739,0,0,0,0,0.0582606,0.508287,-0.989966,36.4375,1,2249,19938830
71,3,-0.672041,-0.0720753,9.78685,0.0468232,-0.642863,0.973072,-0.00672315,-0.000730617,0.0978682,1,5.0215e-05,-1.39962e-05,2.61369e-06,0.010043,-0.00279923,0.000522739,0,0,0,0,0.0582606,0.508287,-0.989966,36.4375,1,2249,19938830
71,4,-0.67303,-0.0722354,9.79159,0.0430364,-0.642614,0.982633,-0.00673201,-0.000730523,0.0979157,1,4.13767e-05,-8.79922e-06,4.88399e-06,0.00827535,-0.00175984,0.000976799,0,0,0,0,0.0574293,0.506272,-0.985966,36.4375,1,2250,19938930
71,5,-0.67303,-0.0722354,9.79159,0.0430364,-0.642614,0.982633,-0.00673201,-0.000730523,0.0979157,1,4.13767e-05,-8.79922e-06,4.88399e-06,0.00827535,-0.00175984,0.000976799,0,0,0,0,0.0574293,0.506272,-0.985966,36.4375,1,2250,19938930
71,6,-0.666139,-0.0776049,9.79422,0.0547984,-0.643944,0.983364,-0.00666201,-0.000786743,0.097942,1,5.20686e-05,-3.44959e-06,3.70664e-05,0.0104137,-0.000689919,0.00741327,0,0,0,0,0.0575114,0.50573,-0.982948,36.4375,1,2251,19939030
72,1,-0.666139,-0.0776049,9.79422,0.0547984,-0.643944,0.983364,-0.00666201,-0.000786743,0.097942,1,5.20686e-05,-3.44959e-06,3.70664e-05,0.0104137,-0.000689919,0.00741327,0,0,0,0,0.0575114,0.50573,-0.982948,36.4375,1,2251,19939030
72,2,-0.684159,-0.078509,9.78722,0.036686,-0.645087,0.977054,-0.00684508,-0.000797408,0.0978718,1,6.23651e-05,-1.79073e-05,8.11792e-06,0.012473,-0.00358145,0.00162359,0,0,0,0,0.0608597,0.50909,-0.981374,36.4375,1,2252,19939130
72,3,-0.684159,-0.078509,9.78722,0.036686,-0.645087,0.977054,-0.00684508,-0.000797408,0.0978718,1,6.23651e-05,-1.79073e-05,8.11792e-06,0.012473,-0.00358145,0.00162359,0,0,0,0,0.0608597,0.50909,-0.981374,36.4375,1,2252,19939130
72,4,-0.678637,-0.0685768,9.78657,0.0421751,-0.635419,0.976879,-0.00678599,-0.000694196,0.0978657,1,4.26415e-05,1.89769e-06,6.01088e-06,0.0085283,0.000379538,0.00120218,0,0,0,0,0.0630978,0.512565,-0.985853,36.4375,1,2253,19939230
72,5,-0.678637,-0.0685768,9.78657,0.0421751,-0.635419,0.976879,-0.00678599,-0.000694196,0.0978657,1,4.26415e-05,1.89769e-06,6.01088e-06,0.0085283,0.000379538,0.00120218,0,0,0,0,0.0630978,0.512565,-0.985853,36.4375,1,2253,19939230
72,6,-0.680079,-0.0701091,9.78828,0.0338921,-0.63936,0.980423,-0.00680418,-0.000711655,0.0978825,1,5.24429e-05,-1.7475e-05,2.18171e-05,0.0104886,-0.003495,0.00436343,0,0,0,0,0.0611316,0.510684,-0.988916,36.4375,1,2254,19939330
73,1,-0.680079,-0.0701091,9.78828,0.0338921,-0.63936,0.980423,-0.00680418,-0.000711655,0.0978825,1,5.24429e-05,-1.7475e-05,2.18171e-05,0.0104886,-0.003495,0.00436343,0,0,0,0,0.0611316,0.510684,-0.988916,36.4375,1,2254,19939330
73,2,-0.671826,-0.0767252,9.78647,0.0436651,-0.647969,0.975719,-0.00672166,-0.000779358,0.0978644,1,6.08676e-05,-1.74584e-05,1.42584e-05,0.0121735,-0.00349169,0.00285167,0,0,0,0,0.0582649,0.508766,-0.98945,36.4375,1,2255,19939430
73,3,-0.671826,-0.0767252,9.78647,0.0436651,-0.647969,0.975719,-0.00672166,-0.000779358,0.0978644,1,6.08676e-05,-1.74584e-05,1.42584e-05,0.0121735,-0.00349169,0.00285167,0,0,0,0,0.0582649,0.508766,-0.98945,36.4375,1,2255,19939430
73,4,-0.674691,-0.0711343,9.78823,0.0446559,-0.645506,0.979714,-0.00675005,-0.000721981,0.097882,1,5.36925e-05,-1.61085e-05,9.37668e-06,0.0107385,-0.0032217,0.00187534,0,0,0,0,0.058383,0.505307,-0.987002,36.4375,1,2256,19939530
74,1,-0.674691,-0.0711343,9.78823,0.0446559,-0.645506,0.979714,-0.00675005,-0.000721981,0.097882,1,5.36925e-05,-1.61085e-05,9.37668e-06,0.0107385,-0.0032217,0.00187534,0,0,0,0,0.058383,0.505307,-0.987002,36.4375,1,2256,19939530
74,2,-0.678965,-0.081823,9.78783,0.0406583,-0.652071,0.979088,-0.00679348,-0.000827661,0.0978779,1,4.63482e-05,-1.9798e-05,2.6403e-05,0.00926965,-0.0039596,0.00528059,0,0,0,0,0.0594402,0.506193,-0.982442,36.4375,1,2257,19939630
74,3,-0.678965,-0.081823,9.78783,0.0406583,-0.652071,0.979088,-0.00679348,-0.000827661,0.0978779,1,4.63482e-05,-1.9798e-05,2.6403e-05,0.00926965,-0.0039596,0.00528059,0,0,0,0,0.0594402,0.506193,-0.982442,36.4375,1,2257,19939630
74,4,-0.682511,-0.0709118,9.78082,0.0368889,-0.643548,0.970902,-0.00682864,-0.000717595,0.0978079,1,4.20865e-05,-1.81627e-05,1.79168e-05,0.00841729,-0.00363254,0.00358335,0,0,0,0,0.0613575,0.509555,-0.980356,36.4375,1,2258,19939730
75,1,-0.682511,-0.0709118,9.78082,0.0368889,-0.643548,0.970902,-0.00682864,-0.000717595,0.0978079,1,4.20865e-05,-1.81627e-05,1.79168e-05,0.00841729,-0.00363254,0.00358335,0,0,0,0,0.0613575,0.509555,-0.980356,36.4375,1,2258,19939730
75,2,-0.675447,-0.077984,9.79531,0.0420286,-0.646411,0.984777,-0.00675877,-0.000790927,0.0979527,1,5.45292e-05,-2.21953e-05,2.98894e-05,0.0109058,-0.00443907,0.00597789,0,0,0,0,0.0612103,0.512554,-0.984329,36.4375,1,2259,19939830
75,3,-0.675447,-0.077984,9.79531,0.0420286,-0.646411,0.984777,-0.00675877,-0.000790927,0.0979527,1,5.45292e-05,-2.21953e-05,2.98894e-05,0.0109058,-0.00443907,0.00597789,0,0,0,0,0.0612103,0.512554,-0.984329,36.4375,1,2259,19939830
75,4,-0.666376,-0.079919,9.79664,0.0481927,-0.655407,0.981841,-0.00666564,-0.00080696,0.0979662,1,3.80782e-05,-9.79714e-06,2.32365e-05,0.00761564,-0.00195943,0.0046473,0,0,0,0,0.0615928,0.512622,-0.98837,36.375,1,2260,19939930
76,1,-0.666376,-0.079919,9.79664,0.0481927,-0.655407,0.981841,-0.00666564,-0.00080696,0.0979662,1,3.80782e-05,-9.79714e-06,2.32365e-05,0.00761564,-0.00195943,0.0046473,0,0,0,0,0.0615928,0.512622,-0.98837,36.375,1,2260,19939930
76,2,-0.67919,-0.0661826,9.78566,0.0387209,-0.64438,0.975425,-0.00679212,-0.000673175,0.0978565,1,5.64271e-05,-1.3166e-06,2.24371e-05,0.0112854,-0.00026332,0.00448742,0,0,0,0,0.06014,0.508786,-0.991479,36.375,1,2261,19940030
76,3,-0.67919,-0.0661826,9.78566,0.0387209,-0.64438,0.975425,-0.00679212,-0.000673175,0.0978565,1,5.64271e-05,-1.3166e-06,2.24371e-05,0.0112854,-0.00026332,0.00448742,0,0,0,0,0.06014,0.508786,-0.991479,36.375,1,2261,19940030
76,4,-0.678014,-0.0713912,9.79172,0.0365439,-0.646673,0.983992,-0.00678209,-0.000723663,0.097917,1,4.87958e-05,-1.0086e-05,1.43682e-05,0.00975916,-0.0020172,0.00287364,0,0,0,0,0.0564462,0.505332,-0.987498,36.375,1,2262,19940130
78,1,-0.678014,-0.0713912,9.79172,0.0365439,-0.646673,0.983992,-0.00678209,-0.000723663,0.097917,1,4.87958e-05,-1.0086e-05,1.43682e-05,0.00975916,-0.0020172,0.00287364,0,0,0,0,0.0564462,0.505332,-0.987498,36.375,1,2262,19940130
78,2,-0.673808,-0.0674886,9.78595,0.0425522,-0.643054,0.981498,-0.00673914,-0.000685684,0.0978593,1,5.46872e-05,-5.48759e-06,7.01869e-06,0.0109374,-0.00109752,0.00140374,0,0,0,0,0.0570839,0.506177,-0.980411,36.375,1,2263,19940230
79,1,-0.673808,-0.0674886,9.78595,0.0425522,-0.643054,0.981498,-0.00673914,-0.000685684,0.0978593,1,5.46872e-05,-5.48759e-06,7.01869e-06,0.0109374,-0.00109752,0.00140374,0,0,0,0,0.0570839,0.506177,-0.980411,36.375,1,2263,19940230
79,2,-0.676642,-0.0723718,9.78831,0.0459141,-0.643902,0.976964,-0.00676881,-0.000733014,0.0978828,1,4.61527e-05,-1.23176e-05,1.92707e-05,0.00923055,-0.00246352,0.00385415,0,0,0,0,0.0604849,0.507088,-0.978386,36.375,1,2264,19940330
79,3,-0.676642,-0.0723718,9.78831,0.0459141,-0.643902,0.976964,-0.00676881,-0.000733014,0.0978828,1,4.61527e-05,-1.23176e-05,1.92707e-05,0.00923055,-0.00246352,0.00385415,0,0,0,0,0.0604849,0.507088,-0.978386,36.375,1,2264,19940330
79,4,-0.676084,-0.0614362,9.78806,0.0421604,-0.633816,0.977641,-0.00676454,-0.00062355,0.0978803,1,4.61041e-05,-1.90085e-05,1.20199e-05,0.00922081,-0.0038017,0.00240398,0,0,0,0,0.0622295,0.510577,-0.983367,36.375,1,2265,19940430
80,1,-0.676084,-0.0614362,9.78806,0.0421604,-0.633816,0.977641,-0.00676454,-0.00062355,0.0978803,1,4.61041e-05,-1.90085e-05,1.20199e-05,0.00922081,-0.0038017,0.00240398,0,0,0,0,0.0622295,0.510577,-0.983367,36.375,1,2265,19940430
80,2,-0.680787,-0.0776088,9.79168,0.0371468,-0.650794,0.979788,-0.00681108,-0.000785211,0.0979165,1,4.59028e-05,-1.64866e-05,9.8278e-06,0.00918055,-0.00329733,0.00196556,0,0,0,0,0.0620981,0.511155,-0.988405,36.375,1,2266,19940530
80,3,-0.680787,-0.0776088,9.79168,0.0371468,-0.650794,0.979788,-0.00681108,-0.000785211,0.0979165,1,4.59028e-05,-1.64866e-05,9.8278e-06,0.00918055,-0.00329733,0.00196556,0,0,0,0,0.0620981,0.511155,-0.988405,36.375,1,2266,19940530
80,4,-0.677926,-0.0786716,9.79166,0.0339615,-0.65703,0.975536,-0.00678192,-0.000795789,0.0979163,1,4.55883e-05,-1.36533e-05,1.06653e-05,0.00911766,-0.00273066,0.00213306,0,0,0,0,0.0592147,0.508767,-0.98996,36.375,1,2267,19940630
80,5,-0.677926,-0.0786716,9.79166,0.0339615,-0.65703,0.975536,-0.00678192,-0.000795789,0.0979163,1,4.55883e-05,-1.36533e-05,1.06653e-05,0.00911766,-0.00273066,0.00213306,0,0,0,0,0.0592147,0.508767,-0.98996,36.375,1,2267,19940630
80,6,-0.666474,-0.0690199,9.79539,0.0470632,-0.642468,0.981841,-0.00666712,-0.000698257,0.0979537,1,4.08142e-05,-1.22043e-05,4.6305e-06,0.00816285,-0.00244086,0.000926101,0,0,0,0,0.0579066,0.507235,-0.985442,36.375,1,2268,19940730
80,7,-0.666474,-0.0690199,9.79539,0.0470632,-0.642468,0.981841,-0.00666712,-0.000698257,0.0979537,1,4.08142e-05,-1.22043e-05,4.6305e-06,0.00816285,-0.00244086,0.000926101,0,0,0,0,0.0579066,0.507235,-0.985442,36.375,1,2268,19940730
80,8,-0.679713,-0.0753217,9.79203,0.0386992,-0.650102,0.987025,-0.00679814,-0.000761137,0.0979202,1,3.89369e-05,-5.32162e-06,2.1638e-05,0.00778737,-0.00106432,0.00432761,0,0,0,0,0.0575285,0.507645,-0.980886,36.375,1,2269,19940830
81,1,-0.679713,-0.0753217,9.79203,0.0386992,-0.650102,0.987025,-0.00679814,-0.000761137,0.0979202,1,3.89369e-05,-5.32162e-06,2.1638e-05,0.00778737,-0.00106432,0.00432761,0,0,0,0,0.0575285,0.507645,-0.980886,36.375,1,2269,19940830
81,2,-0.671903,-0.0679708,9.78866,0.0462502,-0.640388,0.98069,-0.00672278,-0.000687797,0.0978862,1,4.14083e-05,-1.91409e-05,-1.30945e-06,0.00828166,-0.00382818,-0.000261889,0,0,0,0,0.0603625,0.510069,-0.98135,36.375,1,2270,19940930
82,1,-0.671903,-0.0679708,9.78866,0.0462502,-0.640388,0.98069,-0.00672278,-0.000687797,0.0978862,1,4.14083e-05,-1.91409e-05,-1.30945e-06,0.00828166,-0.00382818,-0.000261889,0,0,0,0,0.0603625,0.510069,-0.98135,36.375,1,2270,19940930
82,2,-0.675693,-0.0696948,9.78154,0.0399306,-0.64125,0.968733,-0.0067606,-0.000704637,0.0978151,1,3.8851e-05,-1.87885e-05,6.54902e-06,0.00777021,-0.0037577,0.0013098,0,0,0,0,0.061198,0.512563,-0.984834,36.375,1,2271,19941030
82,3,-0.675693,-0.0696948,9.78154,0.0399306,-0.64125,0.968733,-0.0067606,-0.000704637,0.0978151,1,3.8851e-05,-1.87885e-05,6.54902e-06,0.00777021,-0.0037577,0.0013098,0,0,0,0,0.061198,0.512563,-0.984834,36.375,1,2271,19941030
82,4,-0.66894,-0.0599742,9.78294,0.0464433,-0.632307,0.969486,-0.0066921,-0.000609756,0.0978291,1,4.99693e-05,-1.39027e-05,1.76873e-05,0.00999386,-0.00278054,0.00353747,0,0,0,0,0.060186,0.511162,-0.987891,36.375,1,2272,19941130
82,5,-0.66894,-0.0599742,9.78294,0.0464433,-0.632307,0.969486,-0.0066921,-0.000609756,0.0978291,1,4.99693e-05,-1.39027e-05,1.76873e-05,0.00999386,-0.00278054,0.00353747,0,0,0,0,0.060186,0.511162,-0.987891,36.375,1,2272,19941130
82,6,-0.661478,-0.0642637,9.78014,0.0567853,-0.63928,0.968125,-0.00661688,-0.000653801,0.0978011,1,5.58143e-05,-1.08737e-05,1.86019e-05,0.0111629,-0.00217475,0.00372038,0,0,0,0,0.0578122,0.507786,-0.988965,36.375,1,2273,19941230
82,7,-0.661478,-0.0642637,9.78014,0.0567853,-0.63928,0.968125,-0.00661688,-0.000653801,0.0978011,1,5.58143e-05,-1.08737e-05,1.86019e-05,0.0111629,-0.00217475,0.00372038,0,0,0,0,0.0578122,0.507786,-0.988965,36.375,1,2273,19941230
82,8,-0.679068,-0.0696591,9.79547,0.033644,-0.645051,0.987575,-0.00679233,-0.000708051,0.0979545,1,5.63525e-05,-8.65194e-06,3.08956e-05,0.0112705,-0.00173039,0.00617912,0,0,0,0,0.0564752,0.505792,-0.985973,36.375,1,2274,19941330
82,9,-0.679068,-0.0696591,9.79547,0.033644,-0.645051,0.987575,-0.00679233,-0.000708051,0.0979545,1,5.63525e-05,-8.65194e-06,3.08956e-05,0.0112705,-0.00173039,0.00617912,0,0,0,0,0.0564752,0.505792,-0.985973,36.375,1,2274,19941330
82,10,-0.683023,-0.0709508,9.78224,0.0331683,-0.642155,0.971465,-0.00682902,-0.000721046,0.0978224,1,5.80475e-05,6.1039e-06,1.32265e-05,0.0116095,0.00122078,0.00264531,0,0,0,0,0.0579806,0.507181,-0.982413,36.375,1,2275,19941430
83,1,-0.683023,-0.0709508,9.78224,0.0331683,-0.642155,0.971465,-0.00682902,-0.000721046,0.0978224,1,5.80475e-05,6.1039e-06,1.32265e-05,0.0116095,0.00122078,0.00264531,0,0,0,0,0.0579806,0.507181,-0.982413,36.375,1,2275,19941430
83,2,-0.677285,-0.0754917,9.79439,0.0418925,-0.647312,0.984863,-0.00677469,-0.000765623,0.0979437,1,5.41173e-05,-9.453e-06,7.72593e-06,0.0108235,-0.0018906,0.00154519,0,0,0,0,0.0598852,0.509107,-0.981874,36.375,1,2276,19941530
84,1,-0.677285,-0.0754917,9.79439,0.0418925,-0.647312,0.984863,-0.00677469,-0.000765623,0.0979437,1,5.41173e-05,-9.453e-06,7.72593e-06,0.0108235,-0.0018906,0.00154519,0,0,0,0,0.0598852,0.509107,-0.981874,36.375,1,2276,19941530
84,2,-0.67366,-0.0681488,9.7934,0.0452978,-0.642311,0.980146,-0.00673889,-0.000692464,0.0979338,1,5.40763e-05,-1.19019e-05,2.85117e-05,0.0108153,-0.00238038,0.00570235,0,0,0,0,0.0606842,0.513073,-0.98583,36.375,1,2277,19941630
84,3,-0.67366,-0.0681488,9.7934,0.0452978,-0.642311,0.980146,-0.00673889,-0.000692464,0.0979338,1,5.40763e-05,-1.19019e-05,2.85117e-05,0.0108153,-0.00238038,0.00570235,0,0,0,0,0.0606842,0.513073,-0.98583,36.375,1,2277,19941630
84,4,-0.67983,-0.0612281,9.78944,0.0361774,-0.638154,0.977389,-0.00680158,-0.000621311,0.0978941,1,4.45153e-05,-1.68831e-05,2.31676e-05,0.00890306,-0.00337662,0.00463353,0,0,0,0,0.0610628,0.514108,-0.989344,36.375,1,2278,19941730
84,5,-0.67983,-0.0612281,9.78944,0.0361774,-0.638154,0.977389,-0.00680158,-0.000621311,0.0978941,1,4.45153e-05,-1.68831e-05,2.31676e-05,0.00890306,-0.00337662,0.00463353,0,0,0,0,0.0610628,0.514108,-0.989344,36.375,1,2278,19941730
84,6,-0.679807,-0.0683752,9.79345,0.0376789,-0.648412,0.981893,-0.00680069,-0.00069347,0.0979342,1,4.81996e-05,-1.35245e-05,2.04037e-05,0.00963992,-0.0027049,0.00408075,0,0,0,0,0.0587502,0.509241,-0.988937,36.375,1,2279,19941830
86,1,-0.679807,-0.0683752,9.79345,0.0376789,-0.648412,0.981893,-0.00680069,-0.00069347,0.0979342,1,4.81996e-05,-1.35245e-05,2.04037e-05,0.00963992,-0.0027049,0.00408075,0,0,0,0,0.0587502,0.509241,-0.988937,36.375,1,2279,19941830
86,2,-0.679068,-0.0641949,9.79212,0.037889,-0.637974,0.981944,-0.00679374,-0.000652132,0.097921,1,5.1031e-05,-1.57355e-05,1.39139e-05,0.0102062,-0.00314709,0.00278277,0,0,0,0,0.0569729,0.506258,-0.984954,36.375,1,2280,19941930
86,3,-0.679068,-0.0641949,9.79212,0.037889,-0.637974,0.981944,-0.00679374,-0.000652132,0.097921,1,5.1031e-05,-1.57355e-05,1.39139e-05,0.0102062,-0.00314709,0.00278277,0,0,0,0,0.0569729,0.506258,-0.984954,36.375,1,2280,19941930
86,4,-0.668906,-0.0788151,9.78853,0.0493657,-0.656823,0.98072,-0.00669109,-0.000797599,0.0978851,1,4.73149e-05,-1.05033e-05,1.3877e-05,0.00946298,-0.00210067,0.00277541,0,0,0,0,0.056562,0.507175,-0.981397,36.375,1,2281,19942030
86,5,-0.668906,-0.0788151,9.78853,0.0493657,-0.656823,0.98072,-0.00669109,-0.000797599,0.0978851,1,4.73149e-05,-1.05033e-05,1.3877e-05,0.00946298,-0.00210067,0.00277541,0,0,0,0,0.056562,0.507175,-0.981397,36.375,1,2281,19942030
86,6,-0.680952,-0.0704953,9.77952,0.0340082,-0.646592,0.969154,-0.00681047,-0.0007168,0.0977951,1,5.93624e-05,-5.00299e-06,1.74011e-05,0.0118725,-0.0010006,0.00348021,0,0,0,0,0.059433,0.509571,-0.980347,36.375,1,2282,19942130
87,1,-0.680952,-0.0704953,9.77952,0.0340082,-0.646592,0.969154,-0.00681047,-0.0007168,0.0977951,1,5.93624e-05,-5.00299e-06,1.74011e-05,0.0118725,-0.0010006,0.00348021,0,0,0,0,0.059433,0.509571,-0.980347,36.375,1,2282,19942130
87,2,-0.673935,-0.0720101,9.78558,0.0450258,-0.649626,0.970308,-0.00674353,-0.000729114,0.0978554,1,4.47276e-05,-2.14801e-05,1.92208e-05,0.00894552,-0.00429601,0.00384416,0,0,0,0,0.0616953,0.511584,-0.984858,36.375,1,2283,19942230
87,3,-0.673935,-0.0720101,9.78558,0.0450258,-0.649626,0.970308,-0.00674353,-0.000729114,0.0978554,1,4.47276e-05,-2.14801e-05,1.92208e-05,0.00894552,-0.00429601,0.00384416,0,0,0,0,0.0616953,0.511584,-0.984858,36.375,1,2283,19942230
87,4,-0.679388,-0.0629104,9.79011,0.0403883,-0.639236,0.976248,-0.00679738,-0.00063753,0.0979008,1,4.12614e-05,-1.80435e-05,2.54752e-05,0.00825229,-0.00360869,0.00509504,0,0,0,0,0.0606382,0.510697,-0.989418,36.375,1,2284,19942330
88,1,-0.679388,-0.0629104,9.79011,0.0403883,-0.639236,0.976248,-0.00679738,-0.00063753,0.0979008,1,4.12614e-05,-1.80435e-05,2.54752e-05,0.00825229,-0.00360869,0.00509504,0,0,0,0,0.0606382,0.510697,-0.989418,36.375,1,2284,19942330
88,2,-0.678811,-0.0686902,9.78394,0.0373133,-0.648433,0.96994,-0.00679082,-0.000694959,0.0978392,1,3.92925e-05,-1.40182e-05,2.71463e-05,0.00785849,-0.00280365,0.00542925,0,0,0,0,0.0568215,0.508778,-0.989443,36.375,1,2285,19942430
88,3,-0.678811,-0.0686902,9.78394,0.0373133,-0.648433,0.96994,-0.00679082,-0.000694959,0.0978392,1,3.92925e-05,-1.40182e-05,2.71463e-05,0.00785849,-0.00280365,0.00542925,0,0,0,0,0.0568215,0.508778,-0.989443,36.375,1,2285,19942430
88,4,-0.666815,-0.0743905,9.79127,0.0445897,-0.654973,0.98246,-0.00667033,-0.000752547,0.0979125,1,4.27253e-05,-1.12969e-05,2.06755e-05,0.00854507,-0.00225937,0.0041351,0,0,0,0,0.0564913,0.504817,-0.985994,36.375,1,2286,19942530
88,5,-0.666815,-0.0743905,9.79127,0.0445897,-0.654973,0.98246,-0.00667033,-0.000752547,0.0979125,1,4.27253e-05,-1.12969e-05,2.06755e-05,0.00854507,-0.00225937,0.0041351,0,0,0,0,0.0564913,0.504817,-0.985994,36.375,1,2286,19942530
88,6,-0.674572,-0.0709492,9.79034,0.0440437,-0.651975,0.982169,-0.00674829,-0.000720716,0.0979032,1,5.51363e-05,-1.33652e-05,3.1685e-05,0.0110273,-0.00267303,0.006337,0,0,0,0,0.058996,0.50617,-0.980925,36.375,1,2287,19942630
89,1,-0.674572,-0.0709492,9.79034,0.0440437,-0.651975,0.982169,-0.00674829,-0.000720716,0.0979032,1,5.51363e-05,-1.33652e-05,3.1685e-05,0.0110273,-0.00267303,0.006337,0,0,0,0,0.058996,0.50617,-0.980925,36.375,1,2287,19942630
89,2,-0.684921,-0.0800485,9.791,0.0339054,-0.65625,0.980497,-0.00684823,-0.000809486,0.09791,1,4.47389e-05,4.86327e-06,1.76019e-05,0.00894778,0.000972654,0.00352039,0,0,0,0,0.0608559,0.510056,-0.980847,36.375,1,2288,19942730
89,3,-0.684921,-0.0800485,9.791,0.0339054,-0.65625,0.980497,-0.00684823,-0.000809486,0.09791,1,4.47389e-05,4.86327e-06,1.76019e-05,0.00894778,0.000972654,0.00352039,0,0,0,0,0.0608559,0.510056,-0.980847,36.375,1,2288,19942730
89,4,-0.681929,-0.0758287,9.78491,0.0316445,-0.653742,0.969447,-0.00681941,-0.000768421,0.097849,1,5.06378e-05,-7.69305e-07,1.64026e-05,0.0101276,-0.000153861,0.00328052,0,0,0,0,0.0607003,0.512097,-0.985852,36.375,1,2289,19942830
89,5,-0.681929,-0.0758287,9.78491,0.0316445,-0.653742,0.969447,-0.00681941,-0.000768421,0.097849,1,5.06378e-05,-7.69305e-07,1.64026e-05,0.0101276,-0.000153861,0.00328052,0,0,0,0,0.0607003,0.512097,-0.985852,36.375,1,2289,19942830
89,6,-0.672127,-0.0779512,9.80078,0.0440378,-0.660762,0.987181,-0.00672399,-0.000788685,0.0980075,1,4.51375e-05,-1.405e-05,2.42554e-05,0.00902749,-0.00281,0.00485107,0,0,0,0,0.0611155,0.51166,-0.988894,36.375,1,2290,19942930
90,1,-0.672127,-0.0779512,9.80078,0.0440378,-0.660762,0.987181,-0.00672399,-0.000788685,0.0980075,1,4.51375e-05,-1.405e-05,2.42554e-05,0.00902749,-0.00281,0.00485107,0,0,0,0,0.0611155,0.51166,-0.988894,36.375,1,2290,19942930
90,2,-0.677469,-0.0795056,9.78824,0.0384268,-0.661375,0.977291,-0.00677402,-0.000806457,0.0978824,1,5.64996e-05,3.20358e-06,2.5088e-05,0.0112999,0.000640716,0.0050176,0,0,0,0,0.0592147,0.508767,-0.98996,36.375,1,2291,19943030
90,3,-0.677469,-0.0795056,9.78824,0.0384268,-0.661375,0.977291,-0.00677402,-0.000806457,0.0978824,1,5.64996e-05,3.20358e-06,2.5088e-05,0.0112999,0.000640716,0.0050176,0,0,0,0,0.0592147,0.508767,-0.98996,36.375,1,2291,19943030
90,4,-0.671019,-0.0760438,9.78653,0.0455267,-0.658132,0.975582,-0.0067101,-0.000770692,0.0978652,1,5.18505e-05,4.13531e-07,7.87527e-06,0.0103701,8.27063e-05,0.00157505,0,0,0,0,0.057417,0.506281,-0.986471,36.375,1,2292,19943130
90,5,-0.671019,-0.0760438,9.78653,0.0455267,-0.658132,0.975582,-0.0067101,-0.000770692,0.0978652,1,5.18505e-05,4.13531e-07,7.87527e-06,0.0103701,8.27063e-05,0.00157505,0,0,0,0,0.057417,0.506281,-0.986471,36.375,1,2292,19943130
90,6,-0.6821,-0.0659402,9.79993,0.0393044,-0.646193,0.995324,-0.00682433,-0.000670689,0.097999,1,5.69262e-05,-1.70616e-05,9.55553e-06,0.0113852,-0.00341232,0.00191111,0,0,0,0,0.0579479,0.507686,-0.983412,36.375,1,2293,19943230
91,1,-0.6821,-0.0659402,9.79993,0.0393044,-0.646193,0.995324,-0.00682433,-0.000670689,0.097999,1,5.69262e-05,-1.70616e-05,9.55553e-06,0.0113852,-0.00341232,0.00191111,0,0,0,0,0.0579479,0.507686,-0.983412,36.375,1,2293,19943230
91,2,-0.678569,-0.0657491,9.78566,0.0367752,-0.649656,0.977523,-0.00678706,-0.000668914,0.0978564,1,5.71198e-05,-7.13577e-06,1.79636e-05,0.011424,-0.00142715,0.00359272,0,0,0,0,0.0603872,0.510051,-0.98034,36.375,1,2294,19943330
91,3,-0.678569,-0.0657491,9.78566,0.0367752,-0.649656,0.977523,-0.00678706,-0.000668914,0.0978564,1,5.71198e-05,-7.13577e-06,1.79636e-05,0.011424,-0.00142715,0.00359272,0,0,0,0,0.0603872,0.510051,-0.98034,36.375,1,2294,19943330
91,4,-0.676449,-0.0700752,9.79103,0.0418886,-0.649562,0.979976,-0.00676573,-0.000710689,0.0979101,1,4.95239e-05,-6.46169e-06,1.76655e-05,0.00990479,-0.00129234,0.00353309,0,0,0,0,0.0602809,0.512056,-0.983326,36.375,1,2295,19943430
92,1,-0.676449,-0.0700752,9.79103,0.0418886,-0.649562,0.979976,-0.00676573,-0.000710689,0.0979101,1,4.95239e-05,-6.46169e-06,1.76655e-05,0.00990479,-0.00129234,0.00353309,0,0,0,0,0.0602809,0.512056,-0.983326,36.375,1,2295,19943430
92,2,-0.677098,-0.06907,9.78325,0.0400505,-0.648486,0.966337,-0.00677391,-0.000697665,0.0978322,1,3.52785e-05,-1.49998e-05,4.62499e-06,0.0070557,-0.00299996,0.000924999,0,0,0,0,0.0587013,0.510722,-0.989914,36.375,1,2296,19943530
92,3,-0.677098,-0.06907,9.78325,0.0400505,-0.648486,0.966337,-0.00677391,-0.000697665,0.0978322,1,3.52785e-05,-1.49998e-05,4.62499e-06,0.0070557,-0.00299996,0.000924999,0,0,0,0,0.0587013,0.510722,-0.989914,36.375,1,2296,19943530
92,4,-0.675372,-0.066478,9.7897,0.0413547,-0.653269,0.976131,-0.00675627,-0.000675451,0.0978968,1,5.38509e-05,-1.3115e-05,9.42133e-06,0.0107702,-0.002623,0.00188427,0,0,0,0,0.0577671,0.5083,-0.990468,36.375,1,2297,19943630
92,5,-0.675372,-0.066478,9.7897,0.0413547,-0.653269,0.976131,-0.00675627,-0.000675451,0.0978968,1,5.38509e-05,-1.3115e-05,9.42133e-06,0.0107702,-0.002623,0.00188427,0,0,0,0,0.0577671,0.5083,-0.990468,36.375,1,2297,19943630
92,6,-0.675427,-0.0618801,9.79279,0.0394132,-0.644835,0.981874,-0.00675626,-0.000627032,0.0979277,1,4.11271e-05,-1.02149e-05,1.30032e-05,0.00822543,-0.00204297,0.00260064,0,0,0,0,0.0574659,0.5048,-0.985494,36.375,1,2298,19943730
93,1,-0.675427,-0.0618801,9.79279,0.0394132,-0.644835,0.981874,-0.00675626,-0.000627032,0.0979277,1,4.11271e-05,-1.02149e-05,1.30032e-05,0.00822543,-0.00204297,0.00260064,0,0,0,0,0.0574659,0.5048,-0.985494,36.375,1,2298,19943730
93,2,-0.681031,-0.0753827,9.80018,0.0378249,-0.659508,0.991358,-0.00681235,-0.000766557,0.0980016,1,6.33858e-05,-1.05946e-05,2.25065e-05,0.0126772,-0.00211892,0.00450131,0,0,0,0,0.0575403,0.506191,-0.981423,36.375,1,2299,19943830
93,3,-0.681031,-0.0753827,9.80018,0.0378249,-0.659508,0.991358,-0.00681235,-0.000766557,0.0980016,1,6.33858e-05,-1.05946e-05,2.25065e-05,0.0126772,-0.00211892,0.00450131,0,0,0,0,0.0575403,0.506191,-0.981423,36.375,1,2299,19943830
93,4,-0.678897,-0.0828213,9.80349,0.0386446,-0.668562,0.994883,-0.00679108,-0.000838034,0.0980347,1,4.87231e-05,-1.09133e-05,1.97608e-05,0.00974461,-0.00218267,0.00395216,0,0,0,0,0.0594619,0.510032,-0.978821,36.375,1,2300,19943930
94,1,-0.678897,-0.0828213,9.80349,0.0386446,-0.668562,0.994883,-0.00679108,-0.000838034,0.0980347,1,4.87231e-05,-1.09133e-05,1.97608e-05,0.00974461,-0.00218267,0.00395216,0,0,0,0,0.0594619,0.510032,-0.978821,36.375,1,2300,19943930
94,2,-0.679045,-0.0768114,9.78726,0.039506,-0.657323,0.974676,-0.00679466,-0.00077684,0.0978723,1,4.3582e-05,-2.16309e-05,1.43839e-05,0.0087164,-0.00432619,0.00287679,0,0,0,0,0.0612512,0.511561,-0.983341,36.375,1,2301,19944030
95,1,-0.679045,-0.0768114,9.78726,0.039506,-0.657323,0.974676,-0.00679466,-0.00077684,0.0978723,1,4.3582e-05,-2.16309e-05,1.43839e-05,0.0087164,-0.00432619,0.00287679,0,0,0,0,0.0612512,0.511561,-0.983341,36.375,1,2301,19944030
95,2,-0.669351,-0.0694317,9.7859,0.0457352,-0.654375,0.971071,-0.00669474,-0.000700708,0.0978589,1,3.11974e-05,-6.43186e-06,2.12379e-05,0.00623948,-0.00128637,0.00424759,0,0,0,0,0.0610989,0.51119,-0.989914,36.375,1,2302,19944130
95,3,-0.669351,-0.0694317,9.7859,0.0457352,-0.654375,0.971071,-0.00669474,-0.000700708,0.0978589,1,3.11974e-05,-6.43186e-06,2.12379e-05,0.00623948,-0.00128637,0.00424759,0,0,0,0,0.0610989,0.51119,-0.989914,36.375,1,2302,19944130
95,4,-0.67695,-0.0718098,9.78425,0.0368499,-0.6598,0.973727,-0.00677419,-0.000724939,0.0978421,1,3.45054e-05,-2.40077e-05,6.52855e-06,0.00690109,-0.00480155,0.00130571,0,0,0,0,0.058224,0.50976,-0.990438,36.375,1,2303,19944230
96,1,-0.67695,-0.0718098,9.78425,0.0368499,-0.6598,0.973727,-0.00677419,-0.000724939,0.0978421,1,3.45054e-05,-2.40077e-05,6.52855e-06,0.00690109,-0.00480155,0.00130571,0,0,0,0,0.058224,0.50976,-0.990438,36.375,1,2303,19944230
96,2,-0.667931,-0.073007,9.78382,0.0448833,-0.66554,0.973191,-0.00668042,-0.000739364,0.0978381,1,4.60427e-05,-5.85614e-06,2.12807e-05,0.00920855,-0.00117123,0.00425614,0,0,0,0,0.0574583,0.506733,-0.984441,36.375,1,2304,19944330
96,3,-0.667931,-0.073007,9.78382,0.0448833,-0.66554,0.973191,-0.00668042,-0.000739364,0.0978381,1,4.60427e-05,-5.85614e-06,2.12807e-05,0.00920855,-0.00117123,0.00425614,0,0,0,0,0.0574583,0.506733,-0.984441,36.375,1,2304,19944330
96,4,-0.675938,-0.0812244,9.78721,0.0436748,-0.664607,0.975621,-0.00676295,-0.000822273,0.0978717,1,5.04683e-05,-1.83267e-05,1.11165e-05,0.0100937,-0.00366534,0.00222329,0,0,0,0,0.0580419,0.50569,-0.980931,36.375,1,2305,19944430
96,5,-0.675938,-0.0812244,9.78721,0.0436748,-0.664607,0.975621,-0.00676295,-0.000822273,0.0978717,1,5.04683e-05,-1.83267e-05,1.11165e-05,0.0100937,-0.00366534,0.00222329,0,0,0,0,0.0580419,0.50569,-0.980931,36.375,1,2305,19944430
96,6,-0.68258,-0.0716708,9.77953,0.0323446,-0.657149,0.97198,-0.00682822,-0.000727499,0.0977951,1,5.36795e-05,-1.25171e-05,2.13852e-05,0.0107359,-0.00250342,0.00427703,0,0,0,0,0.0599341,0.507625,-0.980897,36.375,1,2306,19944530
97,1,-0.68258,-0.0716708,9.77953,0.0323446,-0.657149,0.97198,-0.00682822,-0.000727499,0.0977951,1,5.36795e-05,-1.25171e-05,2.13852e-05,0.0107359,-0.00250342,0.00427703,0,0,0,0,0.0599341,0.507625,-0.980897,36.375,1,2306,19944530
97,2,-0.683509,-0.0713598,9.79209,0.0260539,-0.657533,0.978222,-0.00683605,-0.000725642,0.0979207,1,6.0035e-05,-5.08902e-06,2.10011e-05,0.012007,-0.0010178,0.00420021,0,0,0,0,0.0621683,0.512067,-0.984849,36.375,1,2307,19944630
97,3,-0.683509,-0.0713598,9.79209,0.0260539,-0.657533,0.978222,-0.00683605,-0.000725642,0.0979207,1,6.0035e-05,-5.08902e-06,2.10011e-05,0.012007,-0.0010178,0.00420021,0,0,0,0,0.0621683,0.512067,-0.984849,36.375,1,2307,19944630
97,4,-0.672489,-0.0788076,9.78687,0.0439496,-0.66322,0.967586,-0.00672978,-0.000798242,0.0978683,1,5.0159e-05,-2.52016e-05,2.58818e-05,0.0100318,-0.00504033,0.00517635,0,0,0,0,0.0615966,0.511656,-0.988896,36.375,1,2308,19944730
97,5,-0.672489,-0.0788076,9.78687,0.0439496,-0.66322,0.967586,-0.00672978,-0.000798242,0.0978683,1,5.0159e-05,-2.52016e-05,2.58818e-05,0.0100318,-0.00504033,0.00517635,0,0,0,0,0.0615966,0.511656,-0.988896,36.375,1,2308,19944730
97,6,-0.676301,-0.0699389,9.79443,0.0389523,-0.655543,0.982541,-0.00676566,-0.000710613,0.097944,1,5.63301e-05,-1.36047e-05,1.39921e-05,0.011266,-0.00272094,0.00279843,0,0,0,0,0.0577837,0.50877,-0.989448,36.375,1,2309,19944830
98,1,-0.676301,-0.0699389,9.79443,0.0389523,-0.655543,0.982541,-0.00676566,-0.000710613,0.097944,1,5.63301e-05,-1.36047e-05,1.39921e-05,0.011266,-0.00272094,0.00279843,0,0,0,0,0.0577837,0.50877,-0.989448,36.375,1,2309,19944830
98,2,-0.680602,-0.0685688,9.78974,0.0307016,-0.656453,0.978211,-0.00681105,-0.000696986,0.097897,1,5.7187e-05,-2.5723e-05,7.43333e-06,0.0114374,-0.0051446,0.00148667,0,0,0,0,0.0569648,0.506746,-0.984944,36.375,1,2310,19944930
98,3,-0.680602,-0.0685688,9.78974,0.0307016,-0.656453,0.978211,-0.00681105,-0.000696986,0.097897,1,5.7187e-05,-2.5723e-05,7.43333e-06,0.0114374,-0.0051446,0.00148667,0,0,0,0,0.0569648,0.506746,-0.984944,36.375,1,2310,19944930
98,4,-0.682833,-0.0690838,9.78329,0.0312481,-0.657253,0.975438,-0.00683179,-0.000698381,0.0978326,1,3.7333e-05,-1.77937e-05,1.74456e-05,0.0074666,-0.00355874,0.00348913,0,0,0,0,0.0584945,0.506671,-0.981417,36.375,3,2311,19945030
98,5,-0.682833,-0.0690838,9.78329,0.0312481,-0.657253,0.975438,-0.00683179,-0.000698381,0.0978326,1,3.7333e-05,-1.77937e-05,1.74456e-05,0.0074666,-0.00355874,0.00348913,0,0,0,0,0.0584945,0.506671,-0.981417,36.375,3,2311,19945030
98,6,-0.676648,-0.0747715,9.78863,0.0383108,-0.664933,0.976931,-0.00676966,-0.000757298,0.097886,1,4.74545e-05,-1.64455e-05,2.16124e-05,0.0094909,-0.00328909,0.00432248,0,0,0,0,0.0608593,0.507644,-0.982416,36.375,3,2312,19945130
99,1,-0.676648,-0.0747715,9.78863,0.0383108,-0.664933,0.976931,-0.00676966,-0.000757298,0.097886,1,4.74545e-05,-1.64455e-05,2.16124e-05,0.0094909,-0.00328909,0.00432248,0,0,0,0,0.0608593,0.507644,-0.982416,36.375,3,2312,19945130
99,2,-0.666461,-0.0727914,9.79671,0.0538595,-0.657141,0.983559,-0.00666614,-0.000736009,0.0979669,1,4.02761e-05,-7.96064e-06,1.52308e-05,0.00805521,-0.00159213,0.00304616,0,0,0,0,0.06026,0.511108,-0.984862,36.375,3,2313,19945230
99,3,-0.666461,-0.0727914,9.79671,0.0538595,-0.657141,0.983559,-0.00666614,-0.000736009,0.0979669,1,4.02761e-05,-7.96064e-06,1.52308e-05,0.00805521,-0.00159213,0.00304616,0,0,0,0,0.06026,0.511108,-0.984862,36.375,3,2313,19945230
99,4,-0.681269,-0.0713528,9.78563,0.0340929,-0.65776,0.970479,-0.00681314,-0.000723256,0.0978561,1,4.82163e-05,-2.43081e-06,2.13796e-05,0.00964327,-0.000486162,0.00427593,0,0,0,0,0.0611605,0.511145,-0.98739,36.375,3,2314,19945330
99,5,-0.681269,-0.0713528,9.78563,0.0340929,-0.65776,0.970479,-0.00681314,-0.000723256,0.0978561,1,4.82163e-05,-2.43081e-06,2.13796e-05,0.00964327,-0.000486162,0.00427593,0,0,0,0,0.0611605,0.511145,-0.98739,36.375,3,2314,19945330
99,6,-0.681405,-0.0791795,9.78692,0.0329347,-0.667754,0.974246,-0.00681706,-0.000803308,0.0978689,1,5.62387e-05,-1.565e-05,3.70034e-05,0.0112477,-0.00312999,0.00740069,0,0,0,0,0.0607279,0.508222,-0.987453,36.375,3,2315,19945430
99,7,-0.681405,-0.0791795,9.78692,0.0329347,-0.667754,0.974246,-0.00681706,-0.000803308,0.0978689,1,5.62387e-05,-1.565e-05,3.70034e-05,0.0112477,-0.00312999,0.00740069,0,0,0,0,0.0607279,0.508222,-0.987453,36.375,3,2315,19945430
99,8,-0.668186,-0.0660679,9.78763,0.0453591,-0.653575,0.97433,-0.00668407,-0.000671935,0.097876,1,5.59578e-05,-1.14495e-05,2.2599e-05,0.0111916,-0.00228991,0.00451981,0,0,0,0,0.0584328,0.506716,-0.983941,36.375,3,2316,19945530
100,1,-0.668186,-0.0660679,9.78763,0.0453591,-0.653575,0.97433,-0.00668407,-0.000671935,0.097876,1,5.59578e-05,-1.14495e-05,2.2599e-05,0.0111916,-0.00228991,0.00451981,0,0,0,0,0.0584328,0.506716,-0.983941,36.375,3,2316,19945530
100,2,-0.675116,-0.0630229,9.78431,0.0390335,-0.65297,0.974228,-0.00675423,-0.000641794,0.0978428,1,5.77438e-05,-1.58044e-05,1.96232e-05,0.0115488,-0.00316088,0.00392463,0,0,0,0,0.0574872,0.507194,-0.982916,36.375,3,2317,19945630
100,3,-0.675116,-0.0630229,9.78431,0.0390335,-0.65297,0.974228,-0.00675423,-0.000641794,0.0978428,1,5.77438e-05,-1.58044e-05,1.96232e-05,0.0115488,-0.00316088,0.00392463,0,0,0,0,0.0574872,0.507194,-0.982916,36.375,3,2317,19945630
100,4,-0.673965,-0.0813529,9.79024,0.040263,-0.666938,0.976919,-0.00674015,-0.000821924,0.0979023,1,4.15426e-05,-2.70995e-06,1.93547e-05,0.00830852,-0.000541991,0.00387094,0,0,0,0,0.060827,0.509595,-0.982373,36.375,3,2318,19945730
101,1,-0.673965,-0.0813529,9.79024,0.040263,-0.666938,0.976919,-0.00674015,-0.000821924,0.0979023,1,4.15426e-05,-2.70995e-06,1.93547e-05,0.00830852,-0.000541991,0.00387094,0,0,0,0,0.060827,0.509595,-0.982373,36.375,3,2318,19945730
101,2,-0.673858,-0.0750569,9.79437,0.042092,-0.662028,0.98136,-0.00674197,-0.000762247,0.0979434,1,5.89062e-05,-1.73747e-05,1.03489e-05,0.0117812,-0.00347494,0.00206978,0,0,0,0,0.0621645,0.513034,-0.984323,36.375,3,2319,19945830
101,3,-0.673858,-0.0750569,9.79437,0.042092,-0.662028,0.98136,-0.00674197,-0.000762247,0.0979434,1,5.89062e-05,-1.73747e-05,1.03489e-05,0.0117812,-0.00347494,0.00206978,0,0,0,0,0.0621645,0.513034,-0.984323,36.375,3,2319,19945830
101,4,-0.682721,-0.0800009,9.79608,0.0327327,-0.669404,0.985569,-0.00682817,-0.000809466,0.0979606,1,4.62868e-05,-5.14281e-06,2.84983e-05,0.00925737,-0.00102856,0.00569965,0,0,0,0,0.0611359,0.511163,-0.9884,36.375,3,2320,19945930
102,1,-0.682721,-0.0800009,9.79608,0.0327327,-0.669404,0.985569,-0.00682817,-0.000809466,0.0979606,1,4.62868e-05,-5.14281e-06,2.84983e-05,0.00925737,-0.00102856,0.00569965,0,0,0,0,0.0611359,0.511163,-0.9884,36.375,3,2320,19945930
102,2,-0.681125,-0.0674211,9.78736,0.0310807,-0.657789,0.975187,-0.00681502,-0.000682632,0.0978733,1,4.1602e-05,-1.94055e-05,2.03028e-05,0.0083204,-0.00388109,0.00406055,0,0,0,0,0.0587621,0.507787,-0.989474,36.375,3,2321,19946030
102,3,-0.681125,-0.0674211,9.78736,0.0310807,-0.657789,0.975187,-0.00681502,-0.000682632,0.0978733,1,4.1602e-05,-1.94055e-05,2.03028e-05,0.0083204,-0.00388109,0.00406055,0,0,0,0,0.0587621,0.507787,-0.989474,36.375,3,2321,19946030
102,4,-0.675196,-0.071021,9.77779,0.035524,-0.661981,0.966165,-0.00675217,-0.000719141,0.0977778,1,4.3815e-05,-1.26258e-06,2.68948e-05,0.00876301,-0.000252515,0.00537895,0,0,0,0,0.0588561,0.50579,-0.986994,36.375,3,2322,19946130
103,1,-0.675196,-0.071021,9.77779,0.035524,-0.661981,0.966165,-0.00675217,-0.000719141,0.0977778,1,4.3815e-05,-1.26258e-06,2.68948e-05,0.00876301,-0.000252515,0.00537895,0,0,0,0,0.0588561,0.50579,-0.986994,36.375,3,2322,19946130
103,2,-0.677699,-0.0669941,9.79548,0.0346354,-0.655644,0.985319,-0.00677751,-0.00067914,0.0979548,1,4.60075e-05,-2.73053e-06,1.36955e-05,0.0092015,-0.000546106,0.0027391,0,0,0,0,0.0579968,0.506205,-0.982435,36.375,3,2323,19946230
103,3,-0.677699,-0.0669941,9.79548,0.0346354,-0.655644,0.985319,-0.00677751,-0.00067914,0.0979548,1,4.60075e-05,-2.73053e-06,1.36955e-05,0.0092015,-0.000546106,0.0027391,0,0,0,0,0.0579968,0.506205,-0.982435,36.375,3,2323,19946230
103,4,-0.667238,-0.0681141,9.79336,0.0498019,-0.657448,0.983428,-0.00667334,-0.000692426,0.0979335,1,5.67791e-05,-4.99902e-06,1.22469e-05,0.0113558,-0.000999804,0.00244937,0,0,0,0,0.0594406,0.507638,-0.9814,36.375,3,2324,19946330
103,5,-0.667238,-0.0681141,9.79336,0.0498019,-0.657448,0.983428,-0.00667334,-0.000692426,0.0979335,1,5.67791e-05,-4.99902e-06,1.22469e-05,0.0113558,-0.000999804,0.00244937,0,0,0,0,0.0594406,0.507638,-0.9814,36.375,3,2324,19946330
103,6,-0.681608,-0.0720312,9.78867,0.0332101,-0.663531,0.976646,-0.00681639,-0.000730096,0.0978866,1,4.80524e-05,-1.80495e-06,2.76139e-05,0.00961048,-0.00036099,0.00552279,0,0,0,0,0.0616744,0.510635,-0.986394,36.375,3,2325,19946430
104,1,-0.681608,-0.0720312,9.78867,0.0332101,-0.663531,0.976646,-0.00681639,-0.000730096,0.0978866,1,4.80524e-05,-1.80495e-06,2.76139e-05,0.00961048,-0.00036099,0.00552279,0,0,0,0,0.0616744,0.510635,-0.986394,36.375,3,2325,19946430
104,2,-0.676512,-0.0639226,9.7921,0.0372022,-0.656118,0.978085,-0.00676677,-0.000649132,0.0979208,1,4.87098e-05,-8.60001e-06,2.70683e-05,0.00974196,-0.00172,0.00541366,0,0,0,0,0.0596802,0.511184,-0.988898,36.375,3,2326,19946530
104,3,-0.676512,-0.0639226,9.7921,0.0372022,-0.656118,0.978085,-0.00676677,-0.000649132,0.0979208,1,4.87098e-05,-8.60001e-06,2.70683e-05,0.00974196,-0.00172,0.00541366,0,0,0,0,0.0596802,0.511184,-0.988898,36.375,3,2326,19946530
104,4,-0.661109,-0.0713042,9.79702,0.0568034,-0.660776,0.983553,-0.00661189,-0.000723104,0.0979701,1,4.98797e-05,-4.28416e-06,2.18471e-05,0.00997594,-0.000856833,0.00436942,0,0,0,0,0.0592475,0.508261,-0.988961,36.375,3,2327,19946630
105,1,-0.661109,-0.0713042,9.79702,0.0568034,-0.660776,0.983553,-0.00661189,-0.000723104,0.0979701,1,4.98797e-05,-4.28416e-06,2.18471e-05,0.00997594,-0.000856833,0.00436942,0,0,0,0,0.0592475,0.508261,-0.988961,36.375,3,2327,19946630
105,2,-0.672765,-0.0723657,9.79677,0.0440459,-0.662347,0.986243,-0.00673136,-0.000733708,0.0979673,1,5.00289e-05,-1.90884e-05,1.84771e-05,0.0100058,-0.00381767,0.00369543,0,0,0,0,0.0589007,0.50383,-0.986532,36.375,3,2328,19946730
105,3,-0.672765,-0.0723657,9.79677,0.0440459,-0.662347,0.986243,-0.00673136,-0.000733708,0.0979673,1,5.00289e-05,-1.90884e-05,1.84771e-05,0.0100058,-0.00381767,0.00369543,0,0,0,0,0.0589007,0.50383,-0.986532,36.375,3,2328,19946730
105,4,-0.681492,-0.0705354,9.78903,0.0326619,-0.663316,0.977801,-0.00681649,-0.000714128,0.0978901,1,4.39883e-05,-8.08566e-06,1.18481e-05,0.00879766,-0.00161713,0.00236962,0,0,0,0,0.0565985,0.505702,-0.980924,36.375,3,2329,19946830
106,1,-0.681492,-0.0705354,9.78903,0.0326619,-0.663316,0.977801,-0.00681649,-0.000714128,0.0978901,1,4.39883e-05,-8.08566e-06,1.18481e-05,0.00879766,-0.00161713,0.00236962,0,0,0,0,0.0565985,0.505702,-0.980924,36.375,3,2329,19946830
106,2,-0.677916,-0.077864,9.80082,0.0393105,-0.670857,0.988739,-0.00678217,-0.000789684,0.0980079,1,5.55422e-05,-1.54489e-05,1.15262e-05,0.0111084,-0.00308977,0.00230524,0,0,0,0,0.0584997,0.51004,-0.978817,36.375,3,2330,19946930
106,3,-0.677916,-0.077864,9.80082,0.0393105,-0.670857,0.988739,-0.00678217,-0.000789684,0.0980079,1,5.55422e-05,-1.54489e-05,1.15262e-05,0.0111084,-0.00308977,0.00230524,0,0,0,0,0.0584997,0.51004,-0.978817,36.375,3,2330,19946930
106,4,-0.686459,-0.0764725,9.79241,0.0256225,-0.664206,0.977516,-0.00686854,-0.000771756,0.0979237,1,3.48239e-05,-2.03067e-05,1.53258e-05,0.00696478,-0.00406134,0.00306517,0,0,0,0,0.0602524,0.513041,-0.983809,36.375,3,2331,19947030
107,1,-0.686459,-0.0764725,9.79241,0.0256225,-0.664206,0.977516,-0.00686854,-0.000771756,0.0979237,1,3.48239e-05,-2.03067e-05,1.53258e-05,0.00696478,-0.00406134,0.00306517,0,0,0,0,0.0602524,0.513041,-0.983809,36.375,3,2331,19947030
107,2,-0.68775,-0.0828928,9.80118,0.0277189,-0.682635,0.984203,-0.00687977,-0.000837568,0.0980115,1,4.29116e-05,-1.17459e-05,1.65943e-05,0.00858232,-0.00234917,0.00331887,0,0,0,0,0.0616336,0.511629,-0.987382,36.375,3,2332,19947130
107,3,-0.68775,-0.0828928,9.80118,0.0277189,-0.682635,0.984203,-0.00687977,-0.000837568,0.0980115,1,4.29116e-05,-1.17459e-05,1.65943e-05,0.00858232,-0.00234917,0.00331887,0,0,0,0,0.0616336,0.511629,-0.987382,36.375,3,2332,19947130
107,4,-0.678161,-0.0652346,9.78701,0.0353068,-0.660642,0.97635,-0.00678304,-0.000662706,0.09787,1,5.14463e-05,-7.42842e-06,2.13439e-05,0.0102893,-0.00148568,0.00426879,0,0,0,0,0.0583265,0.508721,-0.986926,36.375,3,2333,19947230
110,1,-0.678161,-0.0652346,9.78701,0.0353068,-0.660642,0.97635,-0.00678304,-0.000662706,0.09787,1,5.14463e-05,-7.42842e-06,2.13439e-05,0.0102893,-0.00148568,0.00426879,0,0,0,0,0.0583265,0.508721,-0.986926,36.375,3,2333,19947230
110,2,-0.68498,-0.0680785,9.78602,0.0292665,-0.66631,0.975914,-0.00685192,-0.000689022,0.09786,1,4.06856e-05,-1.09729e-05,1.9951e-05,0.00813713,-0.00219459,0.0039902,0,0,0,0,0.0564837,0.50675,-0.984941,36.375,3,2334,19947330
110,3,-0.68498,-0.0680785,9.78602,0.0292665,-0.66631,0.975914,-0.00685192,-0.000689022,0.09786,1,4.06856e-05,-1.09729e-05,1.9951e-05,0.00813713,-0.00219459,0.0039902,0,0,0,0,0.0564837,0.50675,-0.984941,36.375,3,2334,19947330
110,4,-0.679303,-0.07116,9.79512,0.0350001,-0.663705,0.984944,-0.00679541,-0.000720153,0.097951,1,4.24497e-05,-1.22583e-05,1.74806e-05,0.00848994,-0.00245165,0.00349612,0,0,0,0,0.0579887,0.506693,-0.982424,36.375,3,2335,19947430
111,1,-0.679303,-0.07116,9.79512,0.0350001,-0.663705,0.984944,-0.00679541,-0.000720153,0.097951,1,4.24497e-05,-1.22583e-05,1.74806e-05,0.00848994,-0.00245165,0.00349612,0,0,0,0,0.0579887,0.506693,-0.982424,36.375,3,2335,19947430
111,2,-0.67197,-0.0650941,9.78054,0.0408121,-0.655971,0.96793,-0.00672259,-0.000659331,0.0978051,1,4.14214e-05,-1.49462e-05,2.13905e-05,0.00828429,-0.00298923,0.0042781,0,0,0,0,0.0604237,0.508579,-0.979868,36.375,3,2336,19947530
111,3,-0.67197,-0.0650941,9.78054,0.0408121,-0.655971,0.96793,-0.00672259,-0.000659331,0.0978051,1,4.14214e-05,-1.49462e-05,2.13905e-05,0.00828429,-0.00298923,0.0042781,0,0,0,0,0.0604237,0.508579,-0.979868,36.375,3,2336,19947530
111,4,-0.683066,-0.0769732,9.79509,0.0328781,-0.667197,0.984403,-0.00683435,-0.000778105,0.0979506,1,4.18163e-05,-1.89617e-05,1.32716e-05,0.00836326,-0.00379233,0.00265432,0,0,0,0,0.0607862,0.510589,-0.983361,36.375,3,2337,19947630
111,5,-0.683066,-0.0769732,9.79509,0.0328781,-0.667197,0.984403,-0.00683435,-0.000778105,0.0979506,1,4.18163e-05,-1.89617e-05,1.32716e-05,0.00836326,-0.00379233,0.00265432,0,0,0,0,0.0607862,0.510589,-0.983361,36.375,3,2337,19947630
111,6,-0.692466,-0.0811596,9.79852,0.0220905,-0.674901,0.986217,-0.00692785,-0.000821804,0.0979849,1,5.09806e-05,-1.63988e-05,1.57112e-05,0.0101961,-0.00327975,0.00314224,0,0,0,0,0.060186,0.511162,-0.987891,36.375,3,2338,19947730
112,1,-0.692466,-0.0811596,9.79852,0.0220905,-0.674901,0.986217,-0.00692785,-0.000821804,0.0979849,1,5.09806e-05,-1.63988e-05,1.57112e-05,0.0101961,-0.00327975,0.00314224,0,0,0,0,0.060186,0.511162,-0.987891,36.375,3,2338,19947730
112,2,-0.665136,-0.060593,9.78833,0.049535,-0.65592,0.969718,-0.00665552,-0.000616232,0.097883,1,5.1897e-05,-2.13067e-05,1.06711e-05,0.0103794,-0.00426134,0.00213421,0,0,0,0,0.0587583,0.508753,-0.988948,36.375,3,2339,19947830
112,3,-0.665136,-0.060593,9.78833,0.049535,-0.65592,0.969718,-0.00665552,-0.000616232,0.097883,1,5.1897e-05,-2.13067e-05,1.06711e-05,0.0103794,-0.00426134,0.00213421,0,0,0,0,0.0587583,0.508753,-0.988948,36.375,3,2339,19947830
112,4,-0.668095,-0.0737827,9.79129,0.0454104,-0.665152,0.976232,-0.00668366,-0.000745992,0.0979126,1,3.98552e-05,-1.40164e-05,2.69746e-05,0.00797104,-0.00280328,0.00539491,0,0,0,0,0.0584366,0.505749,-0.984467,36.375,3,2340,19947930
112,5,-0.668095,-0.0737827,9.79129,0.0454104,-0.665152,0.976232,-0.00668366,-0.000745992,0.0979126,1,3.98552e-05,-1.40164e-05,2.69746e-05,0.00797104,-0.00280328,0.00539491,0,0,0,0,0.0584366,0.505749,-0.984467,36.375,3,2340,19947930
112,6,-0.669904,-0.0730499,9.79097,0.0444012,-0.668586,0.979793,-0.00670086,-0.000739741,0.0979095,1,4.53665e-05,-9.52174e-06,2.67383e-05,0.00907331,-0.00190435,0.00534767,0,0,0,0,0.059963,0.508086,-0.979372,36.375,3,2341,19948030
112,7,-0.669904,-0.0730499,9.79097,0.0444012,-0.668586,0.979793,-0.00670086,-0.000739741,0.0979095,1,4.53665e-05,-9.52174e-06,2.67383e-05,0.00907331,-0.00190435,0.00534767,0,0,0,0,0.059963,0.508086,-0.979372,36.375,3,2341,19948030
112,8,-0.683509,-0.067307,9.79212,0.0285947,-0.665508,0.977468,-0.00683737,-0.000684798,0.097921,1,5.82412e-05,-1.18504e-05,2.35791e-05,0.0116482,-0.00237009,0.00471582,0,0,0,0,0.0603914,0.51053,-0.979825,36.375,3,2342,19948130
113,1,-0.683509,-0.067307,9.79212,0.0285947,-0.665508,0.977468,-0.00683737,-0.000684798,0.097921,1,5.82412e-05,-1.18504e-05,2.35791e-05,0.0116482,-0.00237009,0.00471582,0,0,0,0,0.0603914,0.51053,-0.979825,36.375,3,2342,19948130
113,2,-0.67895,-0.057917,9.78302,0.0320921,-0.65411,0.968534,-0.00678947,-0.000589774,0.0978301,1,5.32568e-05,8.02018e-08,1.35262e-05,0.0106514,1.60404e-05,0.00270523,0,0,0,0,0.0607292,0.512558,-0.984327,36.375,3,2343,19948230
114,1,-0.67895,-0.057917,9.78302,0.0320921,-0.65411,0.968534,-0.00678947,-0.000589774,0.0978301,1,5.32568e-05,8.02018e-08,1.35262e-05,0.0106514,1.60404e-05,0.00270523,0,0,0,0,0.0607292,0.512558,-0.984327,36.375,3,2343,19948230
114,2,-0.676442,-0.0645618,9.78769,0.0334887,-0.662249,0.971954,-0.00676613,-0.000653979,0.0978767,1,4.10899e-05,-8.88505e-06,2.34059e-05,0.00821799,-0.00177701,0.00468119,0,0,0,0,0.0621266,0.51017,-0.987922,36.375,3,2344,19948330
114,3,-0.676442,-0.0645618,9.78769,0.0334887,-0.662249,0.971954,-0.00676613,-0.000653979,0.0978767,1,4.10899e-05,-8.88505e-06,2.34059e-05,0.00821799,-0.00177701,0.00468119,0,0,0,0,0.0621266,0.51017,-0.987922,36.375,3,2344,19948330
114,4,-0.676106,-0.0673069,9.78461,0.0360998,-0.668699,0.968421,-0.00676236,-0.000680992,0.097846,1,3.85587e-05,-6.8116e-06,2.79303e-05,0.00771174,-0.00136232,0.00558605,0,0,0,0,0.0592352,0.50827,-0.989466,36.375,3,2345,19948430
115,1,-0.676106,-0.0673069,9.78461,0.0360998,-0.668699,0.968421,-0.00676236,-0.000680992,0.097846,1,3.85587e-05,-6.8116e-06,2.79303e-05,0.00771174,-0.00136232,0.00558605,0,0,0,0,0.0592352,0.50827,-0.989466,36.375,3,2345,19948430
115,2,-0.666508,-0.0714947,9.78045,0.0457937,-0.667041,0.968123,-0.0066685,-0.000724188,0.0978042,1,4.5944e-05,-1.7583e-05,1.90681e-05,0.00918881,-0.0035166,0.00381361,0,0,0,0,0.0579109,0.507713,-0.984926,36.375,3,2346,19948530
115,3,-0.666508,-0.0714947,9.78045,0.0457937,-0.667041,0.968123,-0.0066685,-0.000724188,0.0978042,1,4.5944e-05,-1.7583e-05,1.90681e-05,0.00918881,-0.0035166,0.00381361,0,0,0,0,0.0579109,0.507713,-0.984926,36.375,3,2346,19948530
115,4,-0.674883,-0.0725015,9.78421,0.0338007,-0.671567,0.973219,-0.0067483,-0.000732749,0.0978421,1,3.80854e-05,2.53085e-06,2.08655e-05,0.00761708,0.000506171,0.00417311,0,0,0,0,0.0580011,0.506684,-0.981919,36.375,3,2347,19948630
116,1,-0.674883,-0.0725015,9.78421,0.0338007,-0.671567,0.973219,-0.0067483,-0.000732749,0.0978421,1,3.80854e-05,2.53085e-06,2.08655e-05,0.00761708,0.000506171,0.00417311,0,0,0,0,0.0580011,0.506684,-0.981919,36.375,3,2347,19948630
116,2,-0.671545,-0.0688561,9.7944,0.0406336,-0.666233,0.980479,-0.00671843,-0.000699971,0.0979438,1,5.74906e-05,-1.52828e-05,1.10269e-05,0.0114981,-0.00305656,0.00220537,0,0,0,0,0.0603744,0.508615,-0.981887,36.375,3,2348,19948730
116,3,-0.671545,-0.0688561,9.7944,0.0406336,-0.666233,0.980479,-0.00671843,-0.000699971,0.0979438,1,5.74906e-05,-1.52828e-05,1.10269e-05,0.0114981,-0.00305656,0.00220537,0,0,0,0,0.0603744,0.508615,-0.981887,36.375,3,2348,19948730
116,4,-0.678557,-0.0824059,9.79095,0.0343774,-0.675189,0.977572,-0.00679056,-0.000832412,0.0979091,1,4.21068e-05,-2.55799e-05,7.89964e-06,0.00842135,-0.00511599,0.00157993,0,0,0,0,0.0626371,0.512072,-0.985356,36.375,3,2349,19948830
116,5,-0.678557,-0.0824059,9.79095,0.0343774,-0.675189,0.977572,-0.00679056,-0.000832412,0.0979091,1,4.21068e-05,-2.55799e-05,7.89964e-06,0.00842135,-0.00511599,0.00157993,0,0,0,0,0.0626371,0.512072,-0.985356,36.375,3,2349,19948830
116,6,-0.67394,-0.0813709,9.78414,0.0401773,-0.678478,0.96834,-0.00674165,-0.000820485,0.0978412,1,3.30527e-05,-1.16954e-05,2.29255e-05,0.00661054,-0.00233908,0.00458509,0,0,0,0,0.0615923,0.511177,-0.989412,36.375,3,2350,19948930
117,1,-0.67394,-0.0813709,9.78414,0.0401773,-0.678478,0.96834,-0.00674165,-0.000820485,0.0978412,1,3.30527e-05,-1.16954e-05,2.29255e-05,0.00661054,-0.00233908,0.00458509,0,0,0,0,0.0615923,0.511177,-0.989412,36.375,3,2350,19948930
117,2,-0.676764,-0.0715975,9.78797,0.035915,-0.668948,0.974347,-0.00676936,-0.00072609,0.0978795,1,5.07402e-05,-8.84969e-06,1.34801e-05,0.010148,-0.00176994,0.00269603,0,0,0,0,0.0582891,0.507303,-0.989483,36.375,3,2351,19949030
117,3,-0.676764,-0.0715975,9.78797,0.035915,-0.668948,0.974347,-0.00676936,-0.00072609,0.0978795,1,5.07402e-05,-8.84969e-06,1.34801e-05,0.010148,-0.00176994,0.00269603,0,0,0,0,0.0582891,0.507303,-0.989483,36.375,3,2351,19949030
117,4,-0.678268,-0.0747405,9.79509,0.0330373,-0.675525,0.983998,-0.00678553,-0.000753255,0.0979506,1,2.81633e-05,-1.47242e-05,2.45477e-05,0.00563267,-0.00294484,0.00490953,0,0,0,0,0.0574502,0.507221,-0.98443,36.375,3,2352,19949130
117,5,-0.678268,-0.0747405,9.79509,0.0330373,-0.675525,0.983998,-0.00678553,-0.000753255,0.0979506,1,2.81633e-05,-1.47242e-05,2.45477e-05,0.00563267,-0.00294484,0.00490953,0,0,0,0,0.0574502,0.507221,-0.98443,36.375,3,2352,19949130
117,6,-0.672013,-0.066524,9.78019,0.0379302,-0.667993,0.970614,-0.00672307,-0.000674522,0.0978016,1,4.62998e-05,-1.51396e-05,1.67936e-05,0.00925996,-0.00302791,0.00335871,0,0,0,0,0.0574715,0.509614,-0.981852,36.375,3,2353,19949230
117,7,-0.672013,-0.066524,9.78019,0.0379302,-0.667993,0.970614,-0.00672307,-0.000674522,0.0978016,1,4.62998e-05,-1.51396e-05,1.67936e-05,0.00925996,-0.00302791,0.00335871,0,0,0,0,0.0574715,0.509614,-0.981852,36.375,3,2353,19949230
117,8,-0.673932,-0.0677312,9.78935,0.0394606,-0.668719,0.979265,-0.00674224,-0.000684174,0.0978932,1,3.34104e-05,-1.50928e-05,2.37914e-05,0.00668208,-0.00301856,0.00475828,0,0,0,0,0.0593879,0.510086,-0.98185,36.375,3,2354,19949330
118,1,-0.673932,-0.0677312,9.78935,0.0394606,-0.668719,0.979265,-0.00674224,-0.000684174,0.0978932,1,3.34104e-05,-1.50928e-05,2.37914e-05,0.00668208,-0.00301856,0.00475828,0,0,0,0,0.0593879,0.510086,-0.98185,36.375,3,2354,19949330
118,2,-0.678972,-0.0782255,9.78455,0.0347343,-0.679787,0.972496,-0.00679369,-0.00079284,0.0978451,1,5.25675e-05,-2.04634e-05,2.19045e-05,0.0105135,-0.00409267,0.00438089,0,0,0,0,0.0611814,0.512093,-0.985854,36.375,3,2355,19949430
120,1,-0.678972,-0.0782255,9.78455,0.0347343,-0.679787,0.972496,-0.00679369,-0.00079284,0.0978451,1,5.25675e-05,-2.04634e-05,2.19045e-05,0.0105135,-0.00409267,0.00438089,0,0,0,0,0.0611814,0.512093,-0.985854,36.375,3,2355,19949430
120,2,-0.667916,-0.0626578,9.78664,0.046586,-0.664711,0.973418,-0.00668207,-0.000636628,0.0978661,1,5.03398e-05,-1.49385e-05,1.47335e-05,0.010068,-0.00298769,0.00294671,0,0,0,0,0.0606135,0.510715,-0.990428,36.375,3,2356,19949530
120,3,-0.667916,-0.0626578,9.78664,0.046586,-0.664711,0.973418,-0.00668207,-0.000636628,0.0978661,1,5.03398e-05,-1.49385e-05,1.47335e-05,0.010068,-0.00298769,0.00294671,0,0,0,0,0.0606135,0.510715,-0.990428,36.375,3,2356,19949530
120,4,-0.676601,-0.0733347,9.79407,0.0356797,-0.676183,0.977903,-0.00676957,-0.000745065,0.0979403,1,5.85299e-05,-1.83116e-05,1.87048e-05,0.011706,-0.00366232,0.00374096,0,0,0,0,0.0582644,0.507321,-0.990492,36.375,3,2357,19949630
120,5,-0.676601,-0.0733347,9.79407,0.0356797,-0.676183,0.977903,-0.00676957,-0.000745065,0.0979403,1,5.85299e-05,-1.83116e-05,1.87048e-05,0.011706,-0.00366232,0.00374096,0,0,0,0,0.0582644,0.507321,-0.990492,36.375,3,2357,19949630
120,6,-0.670109,-0.0739406,9.78893,0.0431282,-0.675034,0.976206,-0.0067055,-0.000750229,0.0978889,1,5.3635e-05,-2.2737e-05,2.40134e-05,0.010727,-0.0045474,0.00480267,0,0,0,0,0.0579104,0.506268,-0.985969,36.375,3,2358,19949730
121,1,-0.670109,-0.0739406,9.78893,0.0431282,-0.675034,0.976206,-0.0067055,-0.000750229,0.0978889,1,5.3635e-05,-2.2737e-05,2.40134e-05,0.010727,-0.0045474,0.00480267,0,0,0,0,0.0579104,0.506268,-0.985969,36.375,3,2358,19949730
121,2,-0.680572,-0.0711147,9.79105,0.0338563,-0.671962,0.981538,-0.00680581,-0.000720096,0.0979104,1,4.51375e-05,-5.21401e-07,8.13247e-06,0.00902749,-0.00010428,0.00162649,0,0,0,0,0.0574753,0.508648,-0.982378,36.375,3,2359,19949830
121,3,-0.680572,-0.0711147,9.79105,0.0338563,-0.671962,0.981538,-0.00680581,-0.000720096,0.0979104,1,4.51375e-05,-5.21401e-07,8.13247e-06,0.00902749,-0.00010428,0.00162649,0,0,0,0,0.0574753,0.508648,-0.982378,36.375,3,2359,19949830
121,4,-0.673766,-0.0679846,9.78594,0.0388619,-0.672063,0.974767,-0.00673966,-0.000688731,0.0978592,1,4.38521e-05,-1.04028e-05,2.2393e-05,0.00877043,-0.00208057,0.0044786,0,0,0,0,0.0579654,0.511047,-0.980307,36.375,3,2360,19949930
121,5,-0.673766,-0.0679846,9.78594,0.0388619,-0.672063,0.974767,-0.00673966,-0.000688731,0.0978592,1,4.38521e-05,-1.04028e-05,2.2393e-05,0.00877043,-0.00208057,0.0044786,0,0,0,0,0.0579654,0.511047,-0.980307,36.375,3,2360,19949930
121,6,-0.685452,-0.0817608,9.78354,0.0273306,-0.681093,0.974711,-0.0068579,-0.000826456,0.0978351,1,4.36957e-05,-1.74458e-05,2.17016e-05,0.00873915,-0.00348916,0.00434031,0,0,0,0,0.0583275,0.511612,-0.984842,36.375,3,2361,19950030
122,1,-0.685452,-0.0817608,9.78354,0.0273306,-0.681093,0.974711,-0.0068579,-0.000826456,0.0978351,1,4.36957e-05,-1.74458e-05,2.17016e-05,0.00873915,-0.00348916,0.00434031,0,0,0,0,0.0583275,0.511612,-0.984842,36.375,3,2361,19950030
122,2,-0.67562,-0.0699418,9.78799,0.0372062,-0.673125,0.968838,-0.00676062,-0.000709438,0.0978795,1,4.93507e-05,-2.27838e-05,2.65541e-05,0.00987014,-0.00455676,0.00531082,0,0,0,0,0.0601608,0.509735,-0.989942,36.375,3,2362,19950130
122,3,-0.67562,-0.0699418,9.78799,0.0372062,-0.673125,0.968838,-0.00676062,-0.000709438,0.0978795,1,4.93507e-05,-2.27838e-05,2.65541e-05,0.00987014,-0.00455676,0.00531082,0,0,0,0,0.0601608,0.509735,-0.989942,36.375,3,2362,19950130
122,4,-0.670679,-0.0671078,9.77881,0.0390771,-0.669763,0.961959,-0.00670931,-0.000680051,0.0977879,1,4.36435e-05,-1.31207e-05,3.26206e-05,0.0087287,-0.00262413,0.00652412,0,0,0,0,0.059712,0.507788,-0.989984,36.375,3,2363,19950230
122,5,-0.670679,-0.0671078,9.77881,0.0390771,-0.669763,0.961959,-0.00670931,-0.000680051,0.0977879,1,4.36435e-05,-1.31207e-05,3.26206e-05,0.0087287,-0.00262413,0.00652412,0,0,0,0,0.059712,0.507788,-0.989984,36.375,3,2363,19950230
122,6,-0.671919,-0.0699891,9.78626,0.039624,-0.672639,0.977077,-0.00672206,-0.000708762,0.0978624,1,4.37666e-05,-1.48584e-05,2.27017e-05,0.00875332,-0.00297168,0.00454035,0,0,0,0,0.0579228,0.506259,-0.985464,36.375,3,2364,19950330
122,7,-0.671919,-0.0699891,9.78626,0.039624,-0.672639,0.977077,-0.00672206,-0.000708762,0.0978624,1,4.37666e-05,-1.48584e-05,2.27017e-05,0.00875332,-0.00297168,0.00454035,0,0,0,0,0.0579228,0.506259,-0.985464,36.375,3,2364,19950330
122,8,-0.669018,-0.0601839,9.78734,0.0411146,-0.666285,0.973624,-0.0066913,-0.000613379,0.0978732,1,5.76545e-05,-5.8392e-06,1.90287e-05,0.0115309,-0.00116784,0.00380574,0,0,0,0,0.0580177,0.507154,-0.980899,36.375,3,2365,19950430
123,1,-0.669018,-0.0601839,9.78734,0.0411146,-0.666285,0.973624,-0.0066913,-0.000613379,0.0978732,1,5.76545e-05,-5.8392e-06,1.90287e-05,0.0115309,-0.00116784,0.00380574,0,0,0,0,0.0580177,0.507154,-0.980899,36.375,3,2365,19950430
123,2,-0.673029,-0.0829827,9.78547,0.0382816,-0.68395,0.97271,-0.00673052,-0.000838708,0.0978546,1,4.43365e-05,-1.28697e-06,1.51099e-05,0.0088673,-0.000257394,0.00302198,0,0,0,0,0.0604156,0.509067,-0.979857,36.375,3,2366,19950530
123,3,-0.673029,-0.0829827,9.78547,0.0382816,-0.68395,0.97271,-0.00673052,-0.000838708,0.0978546,1,4.43365e-05,-1.28697e-06,1.51099e-05,0.0088673,-0.000257394,0.00302198,0,0,0,0,0.0604156,0.509067,-0.979857,36.375,3,2366,19950530
123,4,-0.679222,-0.0616342,9.78231,0.0335907,-0.666875,0.966072,-0.00679402,-0.000627089,0.0978229,1,5.44134e-05,-9.20548e-06,7.46925e-06,0.0108827,-0.0018411,0.00149385,0,0,0,0,0.0621769,0.513025,-0.983818,36.375,3,2367,19950630
123,5,-0.679222,-0.0616342,9.78231,0.0335907,-0.666875,0.966072,-0.00679402,-0.000627089,0.0978229,1,5.44134e-05,-9.20548e-06,7.46925e-06,0.0108827,-0.0018411,0.00149385,0,0,0,0,0.0621769,0.513025,-0.983818,36.375,3,2367,19950630
123,6,-0.67487,-0.0709594,9.7934,0.0381517,-0.678524,0.977447,-0.00675276,-0.000721634,0.0979336,1,6.05117e-05,-2.08637e-05,1.39231e-05,0.0121023,-0.00417273,0.00278462,0,0,0,0,0.0620616,0.512627,-0.988877,36.375,3,2368,19950730
124,1,-0.67487,-0.0709594,9.7934,0.0381517,-0.678524,0.977447,-0.00675276,-0.000721634,0.0979336,1,6.05117e-05,-2.08637e-05,1.39231e-05,0.0121023,-0.00417273,0.00278462,0,0,0,0,0.0620616,0.512627,-0.988877,36.375,3,2368,19950730
124,2,-0.68404,-0.0657685,9.77857,0.0246368,-0.672283,0.960445,-0.00684089,-0.000668482,0.0977856,1,5.42644e-05,-2.59847e-06,1.35078e-05,0.0108529,-0.000519694,0.00270156,0,0,0,0,0.0596346,0.510253,-0.991444,36.375,3,2369,19950830
124,3,-0.68404,-0.0657685,9.77857,0.0246368,-0.672283,0.960445,-0.00684089,-0.000668482,0.0977856,1,5.42644e-05,-2.59847e-06,1.35078e-05,0.0108529,-0.000519694,0.00270156,0,0,0,0,0.0596346,0.510253,-0.991444,36.375,3,2369,19950830
124,4,-0.67343,-0.0792976,9.78857,0.0347202,-0.686174,0.975962,-0.00674008,-0.000802302,0.0978853,1,4.64002e-05,-2.96498e-05,1.80079e-05,0.00928005,-0.00592997,0.00360158,0,0,0,0,0.057389,0.508711,-0.985912,36.375,3,2370,19950930
124,5,-0.67343,-0.0792976,9.78857,0.0347202,-0.686174,0.975962,-0.00674008,-0.000802302,0.0978853,1,4.64002e-05,-2.96498e-05,1.80079e-05,0.00928005,-0.00592997,0.00360158,0,0,0,0,0.057389,0.508711,-0.985912,36.375,3,2370,19950930
124,6,-0.67271,-0.0632723,9.78395,0.0362256,-0.675322,0.972249,-0.0067298,-0.000644759,0.0978392,1,6.02845e-05,-1.39119e-05,1.78201e-05,0.0120569,-0.00278238,0.00356402,0,0,0,0,0.0579607,0.509123,-0.981865,36.375,3,2371,19951030
