frame_id,imu_idx,quat_w,quat_x,quat_y,quat_z,accel_x,accel_y,accel_z,free_accel_x,free_accel_y,free_accel_z,delta_v_x,delta_v_y,delta_v_z,delta_q_w,delta_q_x,delta_q_y,delta_q_z,rate_x,rate_y,rate_z,quat_w,quat_x,quat_y,quat_z,mag_x,mag_y,mag_z,temperature,status_byte,packet_counter,time_fine
1,1,0.834182,0.0781509,-0.00727251,-0.545875,-0.660677,-0.00458023,9.78304,-1.6135,-0.297328,0.769167,-0.0066087,-5.64968e-05,0.0978303,1,5.37447e-05,-9.86649e-06,1.35248e-05,0.0107489,-0.0019733,0.00270496,0.834182,0.0781509,-0.00727251,-0.545875,0.154226,0.377816,-0.913509,33.1875,3,37573,3807539
1,2,0.834182,0.0781509,-0.00727251,-0.545875,-0.469193,0.00452483,7.35746,-1.6135,-0.297328,0.769167,-0.00469219,4.11114e-05,0.0735746,1,2.89809e-05,-1.73414e-06,-1.35972e-05,0.00579619,-0.000346829,-0.00271944,0.834182,0.0781509,-0.00727251,-0.545875,0.508194,0.139958,-0.708305,33.0625,1,43527,4404435
1,3,0.834182,0.0781509,-0.00727251,-0.545875,-0.469193,0.00452483,7.35746,-1.6135,-0.297328,0.769167,-0.00469219,4.11114e-05,0.0735746,1,2.89809e-05,-1.73414e-06,-1.35972e-05,0.00579619,-0.000346829,-0.00271944,0.834182,0.0781509,-0.00727251,-0.545875,0.508194,0.139958,-0.708305,33.0625,1,43527,4404435
1,4,0.834182,0.0781509,-0.00727251,-0.545875,-0.469193,0.00452483,7.35746,-1.6135,-0.297328,0.769167,-0.00469219,4.11114e-05,0.0735746,1,2.89809e-05,-1.73414e-06,-1.35972e-05,0.00579619,-0.000346829,-0.00271944,0.834182,0.0781509,-0.00727251,-0.545875,0.508194,0.139958,-0.708305,33.0625,1,43527,4404435
1,5,0.999493,0.000298727,0.0318409,-3.55215e-05,-0.589628,0.0668042,9.78163,-0.379938,-0.0799078,0.753635,-0.00589581,0.000664361,0.0978163,1,2.14524e-05,2.08226e-06,-4.37385e-05,0.00429048,0.000416452,-0.0087477,0.999493,0.000298727,0.0318409,-3.55215e-05,0.50861,0.142411,-0.709262,33.0625,1,43528,4404535
1,6,0.999493,0.000298727,0.0318409,-3.55215e-05,-0.589628,0.0668042,9.78163,-0.379938,-0.0799078,0.753635,-0.00589581,0.000664361,0.0978163,1,2.14524e-05,2.08226e-06,-4.37385e-05,0.00429048,0.000416452,-0.0087477,0.999493,0.000298727,0.0318409,-3.55215e-05,0.50861,0.142411,-0.709262,33.0625,1,43528,4404535
2,1,0.999493,0.000298727,0.0318409,-3.55215e-05,-0.589628,0.0668042,9.78163,-0.379938,-0.0799078,0.753635,-0.00589581,0.000664361,0.0978163,1,2.14524e-05,2.08226e-06,-4.37385e-05,0.00429048,0.000416452,-0.0087477,0.999493,0.000298727,0.0318409,-3.55215e-05,0.50861,0.142411,-0.709262,33.0625,1,43528,4404535
2,2,0.999493,0.000321859,0.0318529,-0.000108459,-0.619874,-0.0324162,9.7752,-0.413435,-0.174084,0.747587,-0.00619614,-0.000330016,0.0977522,1,3.30492e-05,1.34307e-05,-4.90417e-05,0.00660983,0.00268614,-0.00980834,0.999493,0.000321859,0.0318529,-0.000108459,0.510991,0.142409,-0.710283,33.0625,1,43529,4404635
2,3,0.999493,0.000321859,0.0318529,-0.000108459,-0.619874,-0.0324162,9.7752,-0.413435,-0.174084,0.747587,-0.00619614,-0.000330016,0.0977522,1,3.30492e-05,1.34307e-05,-4.90417e-05,0.00660983,0.00268614,-0.00980834,0.999493,0.000321859,0.0318529,-0.000108459,0.510991,0.142409,-0.710283,33.0625,1,43529,4404635
2,4,0.999493,0.000321859,0.0318529,-0.000108459,-0.619874,-0.0324162,9.7752,-0.413435,-0.174084,0.747587,-0.00619614,-0.000330016,0.0977522,1,3.30492e-05,1.34307e-05,-4.90417e-05,0.00660983,0.00268614,-0.00980834,0.999493,0.000321859,0.0318529,-0.000108459,0.510991,0.142409,-0.710283,33.0625,1,43529,4404635
2,5,0.999492,0.000336847,0.0318701,-0.000146547,-0.58724,-0.126264,9.82235,-0.377625,-0.260706,0.794126,-0.0058691,-0.00126535,0.0982236,1,1.60693e-05,1.72967e-05,-3.77444e-05,0.00321386,0.00345934,-0.00754888,0.999492,0.000336847,0.0318701,-0.000146547,0.510041,0.142408,-0.709774,33.0625,1,43530,4404735
2,6,0.999492,0.000336847,0.0318701,-0.000146547,-0.58724,-0.126264,9.82235,-0.377625,-0.260706,0.794126,-0.0058691,-0.00126535,0.0982236,1,1.60693e-05,1.72967e-05,-3.77444e-05,0.00321386,0.00345934,-0.00754888,0.999492,0.000336847,0.0318701,-0.000146547,0.510041,0.142408,-0.709774,33.0625,1,43530,4404735
2,7,0.999492,0.000336847,0.0318701,-0.000146547,-0.58724,-0.126264,9.82235,-0.377625,-0.260706,0.794126,-0.0058691,-0.00126535,0.0982236,1,1.60693e-05,1.72967e-05,-3.77444e-05,0.00321386,0.00345934,-0.00754888,0.999492,0.000336847,0.0318701,-0.000146547,0.510041,0.142408,-0.709774,33.0625,1,43530,4404735
2,8,0.999492,0.000362733,0.0318823,-0.000164353,-0.610334,-0.174599,9.7936,-0.393865,-0.322014,0.771327,-0.00610087,-0.00175098,0.0979361,1,2.64998e-05,1.29136e-05,-1.67565e-05,0.00529996,0.00258272,-0.00335131,0.999492,0.000362733,0.0318823,-0.000164353,0.508647,0.143829,-0.706706,33.0625,1,43531,4404835
2,9,0.999492,0.000362733,0.0318823,-0.000164353,-0.610334,-0.174599,9.7936,-0.393865,-0.322014,0.771327,-0.00610087,-0.00175098,0.0979361,1,2.64998e-05,1.29136e-05,-1.67565e-05,0.00529996,0.00258272,-0.00335131,0.999492,0.000362733,0.0318823,-0.000164353,0.508647,0.143829,-0.706706,33.0625,1,43531,4404835
2,10,0.999492,0.000362733,0.0318823,-0.000164353,-0.610334,-0.174599,9.7936,-0.393865,-0.322014,0.771327,-0.00610087,-0.00175098,0.0979361,1,2.64998e-05,1.29136e-05,-1.67565e-05,0.00529996,0.00258272,-0.00335131,0.999492,0.000362733,0.0318823,-0.000164353,0.508647,0.143829,-0.706706,33.0625,1,43531,4404835
3,1,0.999491,0.000412454,0.0318898,-0.000180628,-0.614626,-0.0848033,9.76353,-0.405467,-0.242555,0.737082,-0.00614471,-0.000857712,0.0976353,1,5.04515e-05,8.05192e-06,-1.40392e-05,0.0100903,0.00161038,-0.00280783,0.999491,0.000412454,0.0318898,-0.000180628,0.508693,0.14476,-0.70416,33.0625,1,43532,4404935
3,2,0.999491,0.000412454,0.0318898,-0.000180628,-0.614626,-0.0848033,9.76353,-0.405467,-0.242555,0.737082,-0.00614471,-0.000857712,0.0976353,1,5.04515e-05,8.05192e-06,-1.40392e-05,0.0100903,0.00161038,-0.00280783,0.999491,0.000412454,0.0318898,-0.000180628,0.508693,0.14476,-0.70416,33.0625,1,43532,4404935
3,3,0.999491,0.000412454,0.0318898,-0.000180628,-0.614626,-0.0848033,9.76353,-0.405467,-0.242555,0.737082,-0.00614471,-0.000857712,0.0976353,1,5.04515e-05,8.05192e-06,-1.40392e-05,0.0100903,0.00161038,-0.00280783,0.999491,0.000412454,0.0318898,-0.000180628,0.508693,0.14476,-0.70416,33.0625,1,43532,4404935
3,4,0.999491,0.000450848,0.0318951,-0.000191225,-0.586878,0.0348448,9.77829,-0.379904,-0.132063,0.749421,-0.00586774,0.000340913,0.097783,1,3.90838e-05,5.27678e-06,-9.25587e-06,0.00781677,0.00105536,-0.00185117,0.999491,0.000450848,0.0318951,-0.000191225,0.508737,0.1428,-0.703699,33.0625,1,43533,4405035
3,5,0.999491,0.000450848,0.0318951,-0.000191225,-0.586878,0.0348448,9.77829,-0.379904,-0.132063,0.749421,-0.00586774,0.000340913,0.097783,1,3.90838e-05,5.27678e-06,-9.25587e-06,0.00781677,0.00105536,-0.00185117,0.999491,0.000450848,0.0318951,-0.000191225,0.508737,0.1428,-0.703699,33.0625,1,43533,4405035
3,6,0.999491,0.000450848,0.0318951,-0.000191225,-0.586878,0.0348448,9.77829,-0.379904,-0.132063,0.749421,-0.00586774,0.000340913,0.097783,1,3.90838e-05,5.27678e-06,-9.25587e-06,0.00781677,0.00105536,-0.00185117,0.999491,0.000450848,0.0318951,-0.000191225,0.508737,0.1428,-0.703699,33.0625,1,43533,4405035
3,7,0.999491,0.000474797,0.0318857,-0.000218166,-0.539185,0.0217682,9.82128,-0.328553,-0.127121,0.785261,-0.00539363,0.000213052,0.0982127,1,2.50266e-05,-9.12877e-06,-2.64942e-05,0.00500532,-0.00182576,-0.00529884,0.999491,0.000474797,0.0318857,-0.000218166,0.509638,0.141392,-0.707269,33.0625,1,43534,4405135
3,8,0.999491,0.000474797,0.0318857,-0.000218166,-0.539185,0.0217682,9.82128,-0.328553,-0.127121,0.785261,-0.00539363,0.000213052,0.0982127,1,2.50266e-05,-9.12877e-06,-2.64942e-05,0.00500532,-0.00182576,-0.00529884,0.999491,0.000474797,0.0318857,-0.000218166,0.509638,0.141392,-0.707269,33.0625,1,43534,4405135
4,1,0.999491,0.000474797,0.0318857,-0.000218166,-0.539185,0.0217682,9.82128,-0.328553,-0.127121,0.785261,-0.00539363,0.000213052,0.0982127,1,2.50266e-05,-9.12877e-06,-2.64942e-05,0.00500532,-0.00182576,-0.00529884,0.999491,0.000474797,0.0318857,-0.000218166,0.509638,0.141392,-0.707269,33.0625,1,43534,4405135
4,2,0.999492,0.000505954,0.0318816,-0.000231037,-0.56579,-0.0865584,9.79304,-0.335864,-0.233248,0.762392,-0.00565867,-0.000871675,0.0979303,1,3.17712e-05,-3.81105e-06,-1.16227e-05,0.00635424,-0.00076221,-0.00232454,0.999492,0.000505954,0.0318816,-0.000231037,0.511985,0.14045,-0.710331,33.0625,1,43535,4405235
4,3,0.999492,0.000505954,0.0318816,-0.000231037,-0.56579,-0.0865584,9.79304,-0.335864,-0.233248,0.762392,-0.00565867,-0.000871675,0.0979303,1,3.17712e-05,-3.81105e-06,-1.16227e-05,0.00635424,-0.00076221,-0.00232454,0.999492,0.000505954,0.0318816,-0.000231037,0.511985,0.14045,-0.710331,33.0625,1,43535,4405235
4,4,0.999492,0.000505954,0.0318816,-0.000231037,-0.56579,-0.0865584,9.79304,-0.335864,-0.233248,0.762392,-0.00565867,-0.000871675,0.0979303,1,3.17712e-05,-3.81105e-06,-1.16227e-05,0.00635424,-0.00076221,-0.00232454,0.999492,0.000505954,0.0318816,-0.000231037,0.511985,0.14045,-0.710331,33.0625,1,43535,4405235
4,5,0.999492,0.00055605,0.0318723,-0.000253683,-0.586403,-0.0936753,9.78669,-0.377603,-0.254388,0.751693,-0.00586582,-0.000946532,0.0978667,1,5.11948e-05,-8.97062e-06,-2.06363e-05,0.010239,-0.00179412,-0.00412725,0.999492,0.00055605,0.0318723,-0.000253683,0.511961,0.141913,-0.710299,33.0625,1,43536,4405335
4,6,0.999492,0.00055605,0.0318723,-0.000253683,-0.586403,-0.0936753,9.78669,-0.377603,-0.254388,0.751693,-0.00586582,-0.000946532,0.0978667,1,5.11948e-05,-8.97062e-06,-2.06363e-05,0.010239,-0.00179412,-0.00412725,0.999492,0.00055605,0.0318723,-0.000253683,0.511961,0.141913,-0.710299,33.0625,1,43536,4405335
4,7,0.999492,0.00055605,0.0318723,-0.000253683,-0.586403,-0.0936753,9.78669,-0.377603,-0.254388,0.751693,-0.00586582,-0.000946532,0.0978667,1,5.11948e-05,-8.97062e-06,-2.06363e-05,0.010239,-0.00179412,-0.00412725,0.999492,0.00055605,0.0318723,-0.000253683,0.511961,0.141913,-0.710299,33.0625,1,43536,4405335
4,8,0.999492,0.000598546,0.0318751,-0.000277624,-0.575857,-0.0259615,9.78583,-0.374322,-0.176231,0.760724,-0.00575788,-0.000267909,0.0978583,1,4.36808e-05,3.59138e-06,-2.20985e-05,0.00873617,0.000718275,-0.0044197,0.999492,0.000598546,0.0318751,-0.000277624,0.509145,0.144295,-0.705687,33.0625,1,43537,4405435
4,9,0.999492,0.000598546,0.0318751,-0.000277624,-0.575857,-0.0259615,9.78583,-0.374322,-0.176231,0.760724,-0.00575788,-0.000267909,0.0978583,1,4.36808e-05,3.59138e-06,-2.20985e-05,0.00873617,0.000718275,-0.0044197,0.999492,0.000598546,0.0318751,-0.000277624,0.509145,0.144295,-0.705687,33.0625,1,43537,4405435
4,10,0.999492,0.000598546,0.0318751,-0.000277624,-0.575857,-0.0259615,9.78583,-0.374322,-0.176231,0.760724,-0.00575788,-0.000267909,0.0978583,1,4.36808e-05,3.59138e-06,-2.20985e-05,0.00873617,0.000718275,-0.0044197,0.999492,0.000598546,0.0318751,-0.000277624,0.509145,0.144295,-0.705687,33.0625,1,43537,4405435
20,1,0.999492,0.000631215,0.0318671,-0.000314867,-0.633677,-0.0613903,9.78218,-0.428248,-0.211634,0.758589,-0.0063382,-0.000620162,0.0978217,1,3.43026e-05,-7.05754e-06,-3.56025e-05,0.00686051,-0.00141151,-0.0071205,0.999492,0.000631215,0.0318671,-0.000314867,0.506846,0.14231,-0.702691,33.0625,1,43538,4405535
20,2,0.999492,0.000631215,0.0318671,-0.000314867,-0.633677,-0.0613903,9.78218,-0.428248,-0.211634,0.758589,-0.0063382,-0.000620162,0.0978217,1,3.43026e-05,-7.05754e-06,-3.56025e-05,0.00686051,-0.00141151,-0.0071205,0.999492,0.000631215,0.0318671,-0.000314867,0.506846,0.14231,-0.702691,33.0625,1,43538,4405535
20,3,0.999492,0.000631215,0.0318671,-0.000314867,-0.633677,-0.0613903,9.78218,-0.428248,-0.211634,0.758589,-0.0063382,-0.000620162,0.0978217,1,3.43026e-05,-7.05754e-06,-3.56025e-05,0.00686051,-0.00141151,-0.0071205,0.999492,0.000631215,0.0318671,-0.000314867,0.506846,0.14231,-0.702691,33.0625,1,43538,4405535
20,4,0.999492,0.000680728,0.0318615,-0.000349285,-0.606148,0.0400329,9.79847,-0.39719,-0.131597,0.774411,-0.00606247,0.00039069,0.0979847,1,5.12078e-05,-5.19095e-06,-3.26504e-05,0.0102416,-0.00103819,-0.00653007,0.999492,0.000680728,0.0318615,-0.000349285,0.509287,0.139372,-0.703272,33.0625,1,43539,4405635
20,5,0.999492,0.000680728,0.0318615,-0.000349285,-0.606148,0.0400329,9.79847,-0.39719,-0.131597,0.774411,-0.00606247,0.00039069,0.0979847,1,5.12078e-05,-5.19095e-06,-3.26504e-05,0.0102416,-0.00103819,-0.00653007,0.999492,0.000680728,0.0318615,-0.000349285,0.509287,0.139372,-0.703272,33.0625,1,43539,4405635
20,6,0.999492,0.000680728,0.0318615,-0.000349285,-0.606148,0.0400329,9.79847,-0.39719,-0.131597,0.774411,-0.00606247,0.00039069,0.0979847,1,5.12078e-05,-5.19095e-06,-3.26504e-05,0.0102416,-0.00103819,-0.00653007,0.999492,0.000680728,0.0318615,-0.000349285,0.509287,0.139372,-0.703272,33.0625,1,43539,4405635
20,7,0.999493,0.000702942,0.0318461,-0.000376924,-0.607864,-0.00116027,9.7849,-0.396146,-0.144597,0.742117,-0.00608154,-1.59238e-05,0.0978489,1,2.37319e-05,-1.48489e-05,-2.65782e-05,0.00474638,-0.00296977,-0.00531565,0.999493,0.000702942,0.0318461,-0.000376924,0.512051,0.140884,-0.707292,33.0625,1,43540,4405735
20,8,0.999493,0.000702942,0.0318461,-0.000376924,-0.607864,-0.00116027,9.7849,-0.396146,-0.144597,0.742117,-0.00608154,-1.59238e-05,0.0978489,1,2.37319e-05,-1.48489e-05,-2.65782e-05,0.00474638,-0.00296977,-0.00531565,0.999493,0.000702942,0.0318461,-0.000376924,0.512051,0.140884,-0.707292,33.0625,1,43540,4405735
21,1,0.999493,0.000702942,0.0318461,-0.000376924,-0.607864,-0.00116027,9.7849,-0.396146,-0.144597,0.742117,-0.00608154,-1.59238e-05,0.0978489,1,2.37319e-05,-1.48489e-05,-2.65782e-05,0.00474638,-0.00296977,-0.00531565,0.999493,0.000702942,0.0318461,-0.000376924,0.512051,0.140884,-0.707292,33.0625,1,43540,4405735
21,2,0.999493,0.000736721,0.0318319,-0.000401468,-0.606135,-0.12196,9.78149,-0.405541,-0.286926,0.75419,-0.00606403,-0.0012262,0.0978147,1,3.51908e-05,-1.34297e-05,-2.33038e-05,0.00703815,-0.00268594,-0.00466077,0.999493,0.000736721,0.0318319,-0.000401468,0.513453,0.14042,-0.709329,33.0625,1,43541,4405835
21,3,0.999493,0.000736721,0.0318319,-0.000401468,-0.606135,-0.12196,9.78149,-0.405541,-0.286926,0.75419,-0.00606403,-0.0012262,0.0978147,1,3.51908e-05,-1.34297e-05,-2.33038e-05,0.00703815,-0.00268594,-0.00466077,0.999493,0.000736721,0.0318319,-0.000401468,0.513453,0.14042,-0.709329,33.0625,1,43541,4405835
21,4,0.999493,0.000736721,0.0318319,-0.000401468,-0.606135,-0.12196,9.78149,-0.405541,-0.286926,0.75419,-0.00606403,-0.0012262,0.0978147,1,3.51908e-05,-1.34297e-05,-2.33038e-05,0.00703815,-0.00268594,-0.00466077,0.999493,0.000736721,0.0318319,-0.000401468,0.513453,0.14042,-0.709329,33.0625,1,43541,4405835
21,5,0.999493,0.000769618,0.0318182,-0.000419347,-0.54568,-0.0698152,9.81035,-0.334784,-0.219418,0.781429,-0.0054594,-0.000704698,0.0981033,1,3.42858e-05,-1.3141e-05,-1.65493e-05,0.00685716,-0.00262821,-0.00330986,0.999493,0.000769618,0.0318182,-0.000419347,0.513506,0.137972,-0.708878,33.0625,1,43542,4405935
21,6,0.999493,0.000769618,0.0318182,-0.000419347,-0.54568,-0.0698152,9.81035,-0.334784,-0.219418,0.781429,-0.0054594,-0.000704698,0.0981033,1,3.42858e-05,-1.3141e-05,-1.65493e-05,0.00685716,-0.00262821,-0.00330986,0.999493,0.000769618,0.0318182,-0.000419347,0.513506,0.137972,-0.708878,33.0625,1,43542,4405935
21,7,0.999493,0.000769618,0.0318182,-0.000419347,-0.54568,-0.0698152,9.81035,-0.334784,-0.219418,0.781429,-0.0054594,-0.000704698,0.0981033,1,3.42858e-05,-1.3141e-05,-1.65493e-05,0.00685716,-0.00262821,-0.00330986,0.999493,0.000769618,0.0318182,-0.000419347,0.513506,0.137972,-0.708878,33.0625,1,43542,4405935
21,8,0.999494,0.000812901,0.0318079,-0.000454721,-0.6365,-0.0146749,9.80534,-0.425678,-0.161058,0.772356,-0.00636685,-0.00015523,0.0980533,1,4.54353e-05,-9.41572e-06,-3.37086e-05,0.00908705,-0.00188314,-0.00674172,0.999494,0.000812901,0.0318079,-0.000454721,0.511134,0.138932,-0.706826,33.0625,1,43543,4406035
22,1,0.999494,0.000812901,0.0318079,-0.000454721,-0.6365,-0.0146749,9.80534,-0.425678,-0.161058,0.772356,-0.00636685,-0.00015523,0.0980533,1,4.54353e-05,-9.41572e-06,-3.37086e-05,0.00908705,-0.00188314,-0.00674172,0.999494,0.000812901,0.0318079,-0.000454721,0.511134,0.138932,-0.706826,33.0625,1,43543,4406035
22,2,0.999494,0.000812901,0.0318079,-0.000454721,-0.6365,-0.0146749,9.80534,-0.425678,-0.161058,0.772356,-0.00636685,-0.00015523,0.0980533,1,4.54353e-05,-9.41572e-06,-3.37086e-05,0.00908705,-0.00188314,-0.00674172,0.999494,0.000812901,0.0318079,-0.000454721,0.511134,0.138932,-0.706826,33.0625,1,43543,4406035
22,3,0.999494,0.000848812,0.0317899,-0.000496537,-0.541982,-0.00521134,9.81937,-0.340986,-0.152281,0.797728,-0.00542328,-5.91989e-05,0.0981935,1,3.83278e-05,-1.76167e-05,-4.07286e-05,0.00766555,-0.00352334,-0.00814572,0.999494,0.000848812,0.0317899,-0.000496537,0.509703,0.14038,-0.705272,33.0625,1,43544,4406135
22,4,0.999494,0.000848812,0.0317899,-0.000496537,-0.541982,-0.00521134,9.81937,-0.340986,-0.152281,0.797728,-0.00542328,-5.91989e-05,0.0981935,1,3.83278e-05,-1.76167e-05,-4.07286e-05,0.00766555,-0.00352334,-0.00814572,0.999494,0.000848812,0.0317899,-0.000496537,0.509703,0.14038,-0.705272,33.0625,1,43544,4406135
22,5,0.999494,0.000848812,0.0317899,-0.000496537,-0.541982,-0.00521134,9.81937,-0.340986,-0.152281,0.797728,-0.00542328,-5.91989e-05,0.0981935,1,3.83278e-05,-1.76167e-05,-4.07286e-05,0.00766555,-0.00352334,-0.00814572,0.999494,0.000848812,0.0317899,-0.000496537,0.509703,0.14038,-0.705272,33.0625,1,43544,4406135
22,6,0.999494,0.000875329,0.031797,-0.000516381,-0.557575,-0.0865478,9.76143,-0.346193,-0.240622,0.735875,-0.00557422,-0.000870791,0.0976144,1,2.83029e-05,7.99062e-06,-1.89896e-05,0.00566058,0.00159812,-0.00379793,0.999494,0.000875329,0.031797,-0.000516381,0.510685,0.13843,-0.705825,33.0625,1,43545,4406235
22,7,0.999494,0.000875329,0.031797,-0.000516381,-0.557575,-0.0865478,9.76143,-0.346193,-0.240622,0.735875,-0.00557422,-0.000870791,0.0976144,1,2.83029e-05,7.99062e-06,-1.89896e-05,0.00566058,0.00159812,-0.00379793,0.999494,0.000875329,0.031797,-0.000516381,0.510685,0.13843,-0.705825,33.0625,1,43545,4406235
22,8,0.999494,0.000875329,0.031797,-0.000516381,-0.557575,-0.0865478,9.76143,-0.346193,-0.240622,0.735875,-0.00557422,-0.000870791,0.0976144,1,2.83029e-05,7.99062e-06,-1.89896e-05,0.00566058,0.00159812,-0.00379793,0.999494,0.000875329,0.031797,-0.000516381,0.510685,0.13843,-0.705825,33.0625,1,43545,4406235
23,1,0.999494,0.000915565,0.0317946,-0.000538678,-0.594868,-0.154325,9.78249,-0.387571,-0.318766,0.740174,-0.00594896,-0.00155129,0.0978247,1,4.231e-05,-1.09892e-06,-2.05133e-05,0.008462,-0.000219784,-0.00410266,0.999494,0.000915565,0.0317946,-0.000538678,0.512038,0.138002,-0.709881,33.0625,1,43546,4406335
23,2,0.999494,0.000915565,0.0317946,-0.000538678,-0.594868,-0.154325,9.78249,-0.387571,-0.318766,0.740174,-0.00594896,-0.00155129,0.0978247,1,4.231e-05,-1.09892e-06,-2.05133e-05,0.008462,-0.000219784,-0.00410266,0.999494,0.000915565,0.0317946,-0.000538678,0.512038,0.138002,-0.709881,33.0625,1,43546,4406335
23,3,0.999494,0.000915565,0.0317946,-0.000538678,-0.594868,-0.154325,9.78249,-0.387571,-0.318766,0.740174,-0.00594896,-0.00155129,0.0978247,1,4.231e-05,-1.09892e-06,-2.05133e-05,0.008462,-0.000219784,-0.00410266,0.999494,0.000915565,0.0317946,-0.000538678,0.512038,0.138002,-0.709881,33.0625,1,43546,4406335
23,4,0.999494,0.000978226,0.0317891,-0.000575259,-0.60839,-0.0333047,9.83857,-0.399604,-0.213191,0.826385,-0.00608486,-0.000345535,0.0983856,1,6.56043e-05,-4.76456e-06,-3.45519e-05,0.0131209,-0.000952913,-0.00691037,0.999494,0.000978226,0.0317891,-0.000575259,0.513909,0.137544,-0.712425,33.0625,1,43547,4406435
23,5,0.999494,0.000978226,0.0317891,-0.000575259,-0.60839,-0.0333047,9.83857,-0.399604,-0.213191,0.826385,-0.00608486,-0.000345535,0.0983856,1,6.56043e-05,-4.76456e-06,-3.45519e-05,0.0131209,-0.000952913,-0.00691037,0.999494,0.000978226,0.0317891,-0.000575259,0.513909,0.137544,-0.712425,33.0625,1,43547,4406435
23,6,0.999494,0.000978226,0.0317891,-0.000575259,-0.60839,-0.0333047,9.83857,-0.399604,-0.213191,0.826385,-0.00608486,-0.000345535,0.0983856,1,6.56043e-05,-4.76456e-06,-3.45519e-05,0.0131209,-0.000952913,-0.00691037,0.999494,0.000978226,0.0317891,-0.000575259,0.513909,0.137544,-0.712425,33.0625,1,43547,4406435
23,7,0.999494,0.00102787,0.03178,-0.000599809,-0.704179,0.0298441,9.81737,-0.475226,-0.132351,0.792259,-0.00704342,0.000288481,0.0981736,1,5.23664e-05,-8.3613e-06,-2.28397e-05,0.0104733,-0.00167226,-0.00456795,0.999494,0.00102787,0.03178,-0.000599809,0.512441,0.139019,-0.712386,33.0625,1,43548,4406535
23,8,0.999494,0.00102787,0.03178,-0.000599809,-0.704179,0.0298441,9.81737,-0.475226,-0.132351,0.792259,-0.00704342,0.000288481,0.0981736,1,5.23664e-05,-8.3613e-06,-2.28397e-05,0.0104733,-0.00167226,-0.00456795,0.999494,0.00102787,0.03178,-0.000599809,0.512441,0.139019,-0.712386,33.0625,1,43548,4406535
23,9,0.999494,0.00102787,0.03178,-0.000599809,-0.704179,0.0298441,9.81737,-0.475226,-0.132351,0.792259,-0.00704342,0.000288481,0.0981736,1,5.23664e-05,-8.3613e-06,-2.28397e-05,0.0104733,-0.00167226,-0.00456795,0.999494,0.00102787,0.03178,-0.000599809,0.512441,0.139019,-0.712386,33.0625,1,43548,4406535
23,10,0.999495,0.00104894,0.0317548,-0.000626748,-0.62996,-0.0493149,9.76565,-0.452816,-0.209132,0.735183,-0.00630442,-0.000497486,0.0976562,1,2.38773e-05,-2.45403e-05,-2.58926e-05,0.00477546,-0.00490807,-0.00517851,0.999495,0.00104894,0.0317548,-0.000626748,0.510583,0.140914,-0.708295,33.0625,1,43549,4406635
23,11,0.999495,0.00104894,0.0317548,-0.000626748,-0.62996,-0.0493149,9.76565,-0.452816,-0.209132,0.735183,-0.00630442,-0.000497486,0.0976562,1,2.38773e-05,-2.45403e-05,-2.58926e-05,0.00477546,-0.00490807,-0.00517851,0.999495,0.00104894,0.0317548,-0.000626748,0.510583,0.140914,-0.708295,33.0625,1,43549,4406635
23,12,0.999495,0.00104894,0.0317548,-0.000626748,-0.62996,-0.0493149,9.76565,-0.452816,-0.209132,0.735183,-0.00630442,-0.000497486,0.0976562,1,2.38773e-05,-2.45403e-05,-2.58926e-05,0.00477546,-0.00490807,-0.00517851,0.999495,0.00104894,0.0317548,-0.000626748,0.510583,0.140914,-0.708295,33.0625,1,43549,4406635
23,13,0.999496,0.00110098,0.0317303,-0.000646851,-0.463477,-0.108639,9.82271,-0.267251,-0.260309,0.802402,-0.00463954,-0.00109696,0.0982267,1,5.46909e-05,-2.40991e-05,-1.81645e-05,0.0109382,-0.00481981,-0.0036329,0.999496,0.00110098,0.0317303,-0.000646851,0.509675,0.141365,-0.705755,33.0625,1,43550,4406735
23,14,0.999496,0.00110098,0.0317303,-0.000646851,-0.463477,-0.108639,9.82271,-0.267251,-0.260309,0.802402,-0.00463954,-0.00109696,0.0982267,1,5.46909e-05,-2.40991e-05,-1.81645e-05,0.0109382,-0.00481981,-0.0036329,0.999496,0.00110098,0.0317303,-0.000646851,0.509675,0.141365,-0.705755,33.0625,1,43550,4406735
24,1,0.999496,0.00110098,0.0317303,-0.000646851,-0.463477,-0.108639,9.82271,-0.267251,-0.260309,0.802402,-0.00463954,-0.00109696,0.0982267,1,5.46909e-05,-2.40991e-05,-1.81645e-05,0.0109382,-0.00481981,-0.0036329,0.999496,0.00110098,0.0317303,-0.000646851,0.509675,0.141365,-0.705755,33.0625,1,43550,4406735
24,2,0.999496,0.00116043,0.0317186,-0.000677953,-0.592164,-0.0821193,9.80242,-0.360692,-0.247297,0.77473,-0.00592366,-0.000833164,0.098024,1,6.2788e-05,-1.00657e-05,-2.85356e-05,0.0125576,-0.00201314,-0.00570713,0.999496,0.00116043,0.0317186,-0.000677953,0.510143,0.139924,-0.707304,33.0625,1,43551,4406835
24,3,0.999496,0.00116043,0.0317186,-0.000677953,-0.592164,-0.0821193,9.80242,-0.360692,-0.247297,0.77473,-0.00592366,-0.000833164,0.098024,1,6.2788e-05,-1.00657e-05,-2.85356e-05,0.0125576,-0.00201314,-0.00570713,0.999496,0.00116043,0.0317186,-0.000677953,0.510143,0.139924,-0.707304,33.0625,1,43551,4406835
24,4,0.999496,0.00116043,0.0317186,-0.000677953,-0.592164,-0.0821193,9.80242,-0.360692,-0.247297,0.77473,-0.00592366,-0.000833164,0.098024,1,6.2788e-05,-1.00657e-05,-2.85356e-05,0.0125576,-0.00201314,-0.00570713,0.999496,0.00116043,0.0317186,-0.000677953,0.510143,0.139924,-0.707304,33.0625,1,43551,4406835
24,5,0.999496,0.00121779,0.0317104,-0.0007168,-0.703974,0.0132965,9.72902,-0.507186,-0.155573,0.700009,-0.00704105,0.00012158,0.0972901,1,6.11339e-05,-6.77051e-06,-3.62435e-05,0.0122268,-0.0013541,-0.00724869,0.999496,0.00121779,0.0317104,-0.0007168,0.511533,0.13947,-0.709846,33.0625,1,43552,4406935
24,6,0.999496,0.00121779,0.0317104,-0.0007168,-0.703974,0.0132965,9.72902,-0.507186,-0.155573,0.700009,-0.00704105,0.00012158,0.0972901,1,6.11339e-05,-6.77051e-06,-3.62435e-05,0.0122268,-0.0013541,-0.00724869,0.999496,0.00121779,0.0317104,-0.0007168,0.511533,0.13947,-0.709846,33.0625,1,43552,4406935
24,7,0.999496,0.00121779,0.0317104,-0.0007168,-0.703974,0.0132965,9.72902,-0.507186,-0.155573,0.700009,-0.00704105,0.00012158,0.0972901,1,6.11339e-05,-6.77051e-06,-3.62435e-05,0.0122268,-0.0013541,-0.00724869,0.999496,0.00121779,0.0317104,-0.0007168,0.511533,0.13947,-0.709846,33.0625,1,43552,4406935
24,8,0.999497,0.00127083,0.0316927,-0.000750706,-0.587085,-0.0348839,9.79635,-0.393846,-0.200145,0.764544,-0.00587425,-0.000359598,0.0979633,1,5.68312e-05,-1.71884e-05,-3.20039e-05,0.0113662,-0.00343767,-0.00640079,0.999497,0.00127083,0.0316927,-0.000750706,0.512914,0.139503,-0.712377,33.0625,1,43553,4407035
25,1,0.999497,0.00127083,0.0316927,-0.000750706,-0.587085,-0.0348839,9.79635,-0.393846,-0.200145,0.764544,-0.00587425,-0.000359598,0.0979633,1,5.68312e-05,-1.71884e-05,-3.20039e-05,0.0113662,-0.00343767,-0.00640079,0.999497,0.00127083,0.0316927,-0.000750706,0.512914,0.139503,-0.712377,33.0625,1,43553,4407035
25,2,0.999497,0.00127083,0.0316927,-0.000750706,-0.587085,-0.0348839,9.79635,-0.393846,-0.200145,0.764544,-0.00587425,-0.000359598,0.0979633,1,5.68312e-05,-1.71884e-05,-3.20039e-05,0.0113662,-0.00343767,-0.00640079,0.999497,0.00127083,0.0316927,-0.000750706,0.512914,0.139503,-0.712377,33.0625,1,43553,4407035
25,3,0.999497,0.0013077,0.0316781,-0.000781982,-0.596088,-0.112717,9.83171,-0.368512,-0.290747,0.810032,-0.00596351,-0.00113484,0.0983168,1,4.07583e-05,-1.3035e-05,-2.89567e-05,0.00815165,-0.002607,-0.00579134,0.999497,0.0013077,0.0316781,-0.000781982,0.510929,0.142454,-0.712807,33.0625,1,43554,4407135
25,4,0.999497,0.0013077,0.0316781,-0.000781982,-0.596088,-0.112717,9.83171,-0.368512,-0.290747,0.810032,-0.00596351,-0.00113484,0.0983168,1,4.07583e-05,-1.3035e-05,-2.89567e-05,0.00815165,-0.002607,-0.00579134,0.999497,0.0013077,0.0316781,-0.000781982,0.510929,0.142454,-0.712807,33.0625,1,43554,4407135
25,5,0.999497,0.0013077,0.0316781,-0.000781982,-0.596088,-0.112717,9.83171,-0.368512,-0.290747,0.810032,-0.00596351,-0.00113484,0.0983168,1,4.07583e-05,-1.3035e-05,-2.89567e-05,0.00815165,-0.002607,-0.00579134,0.999497,0.0013077,0.0316781,-0.000781982,0.510929,0.142454,-0.712807,33.0625,1,43554,4407135
25,6,0.999498,0.00136654,0.0316525,-0.000820324,-0.788842,-0.0427648,9.70945,-0.595894,-0.219796,0.718038,-0.00789324,-0.000439383,0.0970941,1,6.33505e-05,-2.46684e-05,-3.59232e-05,0.0126701,-0.00493369,-0.00718463,0.999498,0.00136654,0.0316525,-0.000820324,0.511036,0.141894,-0.70878,33.0625,1,43555,4407235
25,7,0.999498,0.00136654,0.0316525,-0.000820324,-0.788842,-0.0427648,9.70945,-0.595894,-0.219796,0.718038,-0.00789324,-0.000439383,0.0970941,1,6.33505e-05,-2.46684e-05,-3.59232e-05,0.0126701,-0.00493369,-0.00718463,0.999498,0.00136654,0.0316525,-0.000820324,0.511036,0.141894,-0.70878,33.0625,1,43555,4407235
25,8,0.999498,0.00136654,0.0316525,-0.000820324,-0.788842,-0.0427648,9.70945,-0.595894,-0.219796,0.718038,-0.00789324,-0.000439383,0.0970941,1,6.33505e-05,-2.46684e-05,-3.59232e-05,0.0126701,-0.00493369,-0.00718463,0.999498,0.00136654,0.0316525,-0.000820324,0.511036,0.141894,-0.70878,33.0625,1,43555,4407235
26,1,0.999499,0.0013922,0.0316182,-0.000851233,-0.591836,0.00947111,9.77405,-0.434617,-0.154542,0.750574,-0.00592488,8.9148e-05,0.0977401,1,3.0227e-05,-3.33823e-05,-2.91914e-05,0.0060454,-0.00667646,-0.00583828,0.999499,0.0013922,0.0316182,-0.000851233,0.509666,0.140407,-0.706786,33.0625,1,43556,4407335
26,2,0.999499,0.0013922,0.0316182,-0.000851233,-0.591836,0.00947111,9.77405,-0.434617,-0.154542,0.750574,-0.00592488,8.9148e-05,0.0977401,1,3.0227e-05,-3.33823e-05,-2.91914e-05,0.0060454,-0.00667646,-0.00583828,0.999499,0.0013922,0.0316182,-0.000851233,0.509666,0.140407,-0.706786,33.0625,1,43556,4407335
26,3,0.999499,0.0013922,0.0316182,-0.000851233,-0.591836,0.00947111,9.77405,-0.434617,-0.154542,0.750574,-0.00592488,8.9148e-05,0.0977401,1,3.0227e-05,-3.33823e-05,-2.91914e-05,0.0060454,-0.00667646,-0.00583828,0.999499,0.0013922,0.0316182,-0.000851233,0.509666,0.140407,-0.706786,33.0625,1,43556,4407335
26,4,0.999499,0.00142461,0.0316196,-0.000884107,-0.521276,-0.0843506,9.89487,-0.279139,-0.236422,0.837835,-0.00521227,-0.000850486,0.0989487,1,3.68935e-05,2.75328e-06,-3.08509e-05,0.00737869,0.000550655,-0.00617018,0.999499,0.00142461,0.0316196,-0.000884107,0.5087,0.139936,-0.707297,33.0625,1,43557,4407435
26,5,0.999499,0.00142461,0.0316196,-0.000884107,-0.521276,-0.0843506,9.89487,-0.279139,-0.236422,0.837835,-0.00521227,-0.000850486,0.0989487,1,3.68935e-05,2.75328e-06,-3.08509e-05,0.00737869,0.000550655,-0.00617018,0.999499,0.00142461,0.0316196,-0.000884107,0.5087,0.139936,-0.707297,33.0625,1,43557,4407435
26,6,0.999499,0.00142461,0.0316196,-0.000884107,-0.521276,-0.0843506,9.89487,-0.279139,-0.236422,0.837835,-0.00521227,-0.000850486,0.0989487,1,3.68935e-05,2.75328e-06,-3.08509e-05,0.00737869,0.000550655,-0.00617018,0.999499,0.00142461,0.0316196,-0.000884107,0.5087,0.139936,-0.707297,33.0625,1,43557,4407435
26,7,0.999498,0.00148335,0.0316222,-0.00091772,-0.701603,-0.0967039,9.76096,-0.486849,-0.281639,0.755677,-0.00701529,-0.000979057,0.0976096,1,6.37601e-05,4.11981e-06,-3.0583e-05,0.012752,0.000823963,-0.0061166,0.999498,0.00148335,0.0316222,-0.00091772,0.511557,0.139452,-0.708837,33.0625,1,43558,4407535
26,8,0.999498,0.00148335,0.0316222,-0.00091772,-0.701603,-0.0967039,9.76096,-0.486849,-0.281639,0.755677,-0.00701529,-0.000979057,0.0976096,1,6.37601e-05,4.11981e-06,-3.0583e-05,0.012752,0.000823963,-0.0061166,0.999498,0.00148335,0.0316222,-0.00091772,0.511557,0.139452,-0.708837,33.0625,1,43558,4407535
26,9,0.999498,0.00148335,0.0316222,-0.00091772,-0.701603,-0.0967039,9.76096,-0.486849,-0.281639,0.755677,-0.00701529,-0.000979057,0.0976096,1,6.37601e-05,4.11981e-06,-3.0583e-05,0.012752,0.000823963,-0.0061166,0.999498,0.00148335,0.0316222,-0.00091772,0.511557,0.139452,-0.708837,33.0625,1,43558,4407535
26,10,0.999499,0.00152307,0.0316108,-0.000954374,-0.746149,-0.0448313,9.70438,-0.5741,-0.214007,0.68362,-0.00746364,-0.000456573,0.0970436,1,4.52417e-05,-1.09172e-05,-3.48911e-05,0.00904833,-0.00218345,-0.00697823,0.999499,0.00152307,0.0316108,-0.000954374,0.513901,0.139477,-0.711372,33.0625,1,43559,4407635
26,11,0.999499,0.00152307,0.0316108,-0.000954374,-0.746149,-0.0448313,9.70438,-0.5741,-0.214007,0.68362,-0.00746364,-0.000456573,0.0970436,1,4.52417e-05,-1.09172e-05,-3.48911e-05,0.00904833,-0.00218345,-0.00697823,0.999499,0.00152307,0.0316108,-0.000954374,0.513901,0.139477,-0.711372,33.0625,1,43559,4407635
26,12,0.999499,0.00152307,0.0316108,-0.000954374,-0.746149,-0.0448313,9.70438,-0.5741,-0.214007,0.68362,-0.00746364,-0.000456573,0.0970436,1,4.52417e-05,-1.09172e-05,-3.48911e-05,0.00904833,-0.00218345,-0.00697823,0.999499,0.00152307,0.0316108,-0.000954374,0.513901,0.139477,-0.711372,33.0625,1,43559,4407635
27,1,0.999499,0.00156907,0.0315976,-0.000977126,-0.41348,-0.0109686,9.87206,-0.209159,-0.173587,0.817181,-0.00413741,-0.000119635,0.0987204,1,5.12677e-05,-1.32169e-05,-2.09152e-05,0.0102535,-0.00264338,-0.00418305,0.999499,0.00156907,0.0315976,-0.000977126,0.512421,0.139516,-0.71288,33.0625,1,43560,4407735
27,2,0.999499,0.00156907,0.0315976,-0.000977126,-0.41348,-0.0109686,9.87206,-0.209159,-0.173587,0.817181,-0.00413741,-0.000119635,0.0987204,1,5.12677e-05,-1.32169e-05,-2.09152e-05,0.0102535,-0.00264338,-0.00418305,0.999499,0.00156907,0.0315976,-0.000977126,0.512421,0.139516,-0.71288,33.0625,1,43560,4407735
27,3,0.999499,0.00156907,0.0315976,-0.000977126,-0.41348,-0.0109686,9.87206,-0.209159,-0.173587,0.817181,-0.00413741,-0.000119635,0.0987204,1,5.12677e-05,-1.32169e-05,-2.09152e-05,0.0102535,-0.00264338,-0.00418305,0.999499,0.00156907,0.0315976,-0.000977126,0.512421,0.139516,-0.71288,33.0625,1,43560,4407735
27,4,0.999499,0.0016113,0.0316045,-0.00101671,-0.725064,-0.0277146,9.80378,-0.48058,-0.201662,0.802604,-0.00724901,-0.000286089,0.0980379,1,4.83058e-05,8.41179e-06,-3.64967e-05,0.00966116,0.00168236,-0.00729933,0.999499,0.0016113,0.0316045,-0.00101671,0.509665,0.137516,-0.708871,33.0625,1,43561,4407835
27,5,0.999499,0.0016113,0.0316045,-0.00101671,-0.725064,-0.0277146,9.80378,-0.48058,-0.201662,0.802604,-0.00724901,-0.000286089,0.0980379,1,4.83058e-05,8.41179e-06,-3.64967e-05,0.00966116,0.00168236,-0.00729933,0.999499,0.0016113,0.0316045,-0.00101671,0.509665,0.137516,-0.708871,33.0625,1,43561,4407835
27,6,0.999499,0.0016113,0.0316045,-0.00101671,-0.725064,-0.0277146,9.80378,-0.48058,-0.201662,0.802604,-0.00724901,-0.000286089,0.0980379,1,4.83058e-05,8.41179e-06,-3.64967e-05,0.00966116,0.00168236,-0.00729933,0.999499,0.0016113,0.0316045,-0.00101671,0.509665,0.137516,-0.708871,33.0625,1,43561,4407835
27,7,0.999499,0.00165127,0.031584,-0.00106812,-0.884234,-0.0217955,9.71197,-0.725107,-0.209953,0.690518,-0.00884607,-0.000226123,0.0971194,1,4.64745e-05,-1.90459e-05,-4.85575e-05,0.00929489,-0.00380917,-0.0097115,0.999499,0.00165127,0.031584,-0.00106812,0.508728,0.137506,-0.707857,33.0625,1,43562,4407935
27,8,0.999499,0.00165127,0.031584,-0.00106812,-0.884234,-0.0217955,9.71197,-0.725107,-0.209953,0.690518,-0.00884607,-0.000226123,0.0971194,1,4.64745e-05,-1.90459e-05,-4.85575e-05,0.00929489,-0.00380917,-0.0097115,0.999499,0.00165127,0.031584,-0.00106812,0.508728,0.137506,-0.707857,33.0625,1,43562,4407935
27,9,0.999499,0.00165127,0.031584,-0.00106812,-0.884234,-0.0217955,9.71197,-0.725107,-0.209953,0.690518,-0.00884607,-0.000226123,0.0971194,1,4.64745e-05,-1.90459e-05,-4.85575e-05,0.00929489,-0.00380917,-0.0097115,0.999499,0.00165127,0.031584,-0.00106812,0.508728,0.137506,-0.707857,33.0625,1,43562,4407935
27,10,0.9995,0.00166021,0.0315646,-0.00109838,-0.411931,-0.0583451,9.82788,-0.243055,-0.228156,0.777534,-0.00412327,-0.000586155,0.0982786,1,1.49906e-05,-1.99696e-05,-2.95097e-05,0.00299812,-0.00399392,-0.00590195,0.9995,0.00166021,0.0315646,-0.00109838,0.511121,0.137495,-0.708373,33.0625,1,43563,4408035
27,11,0.9995,0.00166021,0.0315646,-0.00109838,-0.411931,-0.0583451,9.82788,-0.243055,-0.228156,0.777534,-0.00412327,-0.000586155,0.0982786,1,1.49906e-05,-1.99696e-05,-2.95097e-05,0.00299812,-0.00399392,-0.00590195,0.9995,0.00166021,0.0315646,-0.00109838,0.511121,0.137495,-0.708373,33.0625,1,43563,4408035
27,12,0.9995,0.00166021,0.0315646,-0.00109838,-0.411931,-0.0583451,9.82788,-0.243055,-0.228156,0.777534,-0.00412327,-0.000586155,0.0982786,1,1.49906e-05,-1.99696e-05,-2.95097e-05,0.00299812,-0.00399392,-0.00590195,0.9995,0.00166021,0.0315646,-0.00109838,0.511121,0.137495,-0.708373,33.0625,1,43563,4408035
28,1,0.999499,0.00170746,0.0315777,-0.00114258,-0.602044,-0.0931916,9.83766,-0.335754,-0.262927,0.839581,-0.00601771,-0.000942002,0.0983767,1,5.38197e-05,1.42565e-05,-4.18047e-05,0.0107639,0.0028513,-0.00836094,0.999499,0.00170746,0.0315777,-0.00114258,0.514443,0.136537,-0.710935,33.0625,1,43564,4408135
28,2,0.999499,0.00170746,0.0315777,-0.00114258,-0.602044,-0.0931916,9.83766,-0.335754,-0.262927,0.839581,-0.00601771,-0.000942002,0.0983767,1,5.38197e-05,1.42565e-05,-4.18047e-05,0.0107639,0.0028513,-0.00836094,0.999499,0.00170746,0.0315777,-0.00114258,0.514443,0.136537,-0.710935,33.0625,1,43564,4408135
28,3,0.999499,0.00170746,0.0315777,-0.00114258,-0.602044,-0.0931916,9.83766,-0.335754,-0.262927,0.839581,-0.00601771,-0.000942002,0.0983767,1,5.38197e-05,1.42565e-05,-4.18047e-05,0.0107639,0.0028513,-0.00836094,0.999499,0.00170746,0.0315777,-0.00114258,0.514443,0.136537,-0.710935,33.0625,1,43564,4408135
28,4,0.9995,0.00174406,0.0315487,-0.00117061,-0.911893,-0.0744953,9.70698,-0.738648,-0.24529,0.693626,-0.00912456,-0.00075293,0.0970692,1,4.34683e-05,-2.87795e-05,-2.53609e-05,0.00869365,-0.0057559,-0.00507218,0.9995,0.00174406,0.0315487,-0.00117061,0.515857,0.134619,-0.713509,33.0625,1,43565,4408235
28,5,0.9995,0.00174406,0.0315487,-0.00117061,-0.911893,-0.0744953,9.70698,-0.738648,-0.24529,0.693626,-0.00912456,-0.00075293,0.0970692,1,4.34683e-05,-2.87795e-05,-2.53609e-05,0.00869365,-0.0057559,-0.00507218,0.9995,0.00174406,0.0315487,-0.00117061,0.515857,0.134619,-0.713509,33.0625,1,43565,4408235
28,6,0.9995,0.00174406,0.0315487,-0.00117061,-0.911893,-0.0744953,9.70698,-0.738648,-0.24529,0.693626,-0.00912456,-0.00075293,0.0970692,1,4.34683e-05,-2.87795e-05,-2.53609e-05,0.00869365,-0.0057559,-0.00507218,0.9995,0.00174406,0.0315487,-0.00117061,0.515857,0.134619,-0.713509,33.0625,1,43565,4408235
28,7,0.999501,0.00179219,0.0315172,-0.00120768,-0.447634,-0.0841521,9.82316,-0.304306,-0.286323,0.787436,-0.00448267,-0.000852165,0.0982312,1,5.57304e-05,-3.19296e-05,-3.40153e-05,0.0111461,-0.00638592,-0.00680307,0.999501,0.00179219,0.0315172,-0.00120768,0.513941,0.135593,-0.712469,33.0625,1,43566,4408335
28,8,0.999501,0.00179219,0.0315172,-0.00120768,-0.447634,-0.0841521,9.82316,-0.304306,-0.286323,0.787436,-0.00448267,-0.000852165,0.0982312,1,5.57304e-05,-3.19296e-05,-3.40153e-05,0.0111461,-0.00638592,-0.00680307,0.999501,0.00179219,0.0315172,-0.00120768,0.513941,0.135593,-0.712469,33.0625,1,43566,4408335
28,9,0.999501,0.00179219,0.0315172,-0.00120768,-0.447634,-0.0841521,9.82316,-0.304306,-0.286323,0.787436,-0.00448267,-0.000852165,0.0982312,1,5.57304e-05,-3.19296e-05,-3.40153e-05,0.0111461,-0.00638592,-0.00680307,0.999501,0.00179219,0.0315172,-0.00120768,0.513941,0.135593,-0.712469,33.0625,1,43566,4408335
28,10,0.999501,0.00184089,0.0315182,-0.0012331,-0.51672,-0.0175543,9.88864,-0.267754,-0.244436,0.870889,-0.00516682,-0.000186482,0.0988864,1,5.644e-05,1.96107e-06,-2.15434e-05,0.011288,0.000392214,-0.00430868,0.999501,0.00184089,0.0315182,-0.0012331,0.511108,0.137504,-0.708878,33.0625,1,43567,4408435
28,11,0.999501,0.00184089,0.0315182,-0.0012331,-0.51672,-0.0175543,9.88864,-0.267754,-0.244436,0.870889,-0.00516682,-0.000186482,0.0988864,1,5.644e-05,1.96107e-06,-2.15434e-05,0.011288,0.000392214,-0.00430868,0.999501,0.00184089,0.0315182,-0.0012331,0.511108,0.137504,-0.708878,33.0625,1,43567,4408435
28,12,0.999501,0.00184089,0.0315182,-0.0012331,-0.51672,-0.0175543,9.88864,-0.267754,-0.244436,0.870889,-0.00516682,-0.000186482,0.0988864,1,5.644e-05,1.96107e-06,-2.15434e-05,0.011288,0.000392214,-0.00430868,0.999501,0.00184089,0.0315182,-0.0012331,0.511108,0.137504,-0.708878,33.0625,1,43567,4408435
28,13,0.999501,0.00187975,0.0314903,-0.00128871,-0.898973,0.00413902,9.66854,-0.724873,-0.190906,0.65902,-0.00899499,3.31268e-05,0.0966849,1,4.76425e-05,-2.72548e-05,-5.27818e-05,0.00952849,-0.00545097,-0.0105564,0.999501,0.00187975,0.0314903,-0.00128871,0.509715,0.138926,-0.705809,33.0625,1,43568,4408535
28,14,0.999501,0.00187975,0.0314903,-0.00128871,-0.898973,0.00413902,9.66854,-0.724873,-0.190906,0.65902,-0.00899499,3.31268e-05,0.0966849,1,4.76425e-05,-2.72548e-05,-5.27818e-05,0.00952849,-0.00545097,-0.0105564,0.999501,0.00187975,0.0314903,-0.00128871,0.509715,0.138926,-0.705809,33.0625,1,43568,4408535
29,1,0.999501,0.00187975,0.0314903,-0.00128871,-0.898973,0.00413902,9.66854,-0.724873,-0.190906,0.65902,-0.00899499,3.31268e-05,0.0966849,1,4.76425e-05,-2.72548e-05,-5.27818e-05,0.00952849,-0.00545097,-0.0105564,0.999501,0.00187975,0.0314903,-0.00128871,0.509715,0.138926,-0.705809,33.0625,1,43568,4408535
29,2,0.999502,0.00191747,0.0314657,-0.00133573,-0.404598,-0.0296262,9.78533,-0.251501,-0.187898,0.729702,-0.00405087,-0.000304983,0.0978531,1,4.63614e-05,-2.48495e-05,-4.34572e-05,0.00927229,-0.00496991,-0.00869143,0.999502,0.00191747,0.0314657,-0.00133573,0.512096,0.138924,-0.706831,33.0625,1,43569,4408635
29,3,0.999502,0.00191747,0.0314657,-0.00133573,-0.404598,-0.0296262,9.78533,-0.251501,-0.187898,0.729702,-0.00405087,-0.000304983,0.0978531,1,4.63614e-05,-2.48495e-05,-4.34572e-05,0.00927229,-0.00496991,-0.00869143,0.999502,0.00191747,0.0314657,-0.00133573,0.512096,0.138924,-0.706831,33.0625,1,43569,4408635
29,4,0.999502,0.00191747,0.0314657,-0.00133573,-0.404598,-0.0296262,9.78533,-0.251501,-0.187898,0.729702,-0.00405087,-0.000304983,0.0978531,1,4.63614e-05,-2.48495e-05,-4.34572e-05,0.00927229,-0.00496991,-0.00869143,0.999502,0.00191747,0.0314657,-0.00133573,0.512096,0.138924,-0.706831,33.0625,1,43569,4408635
29,5,0.999501,0.00196593,0.0314904,-0.00138182,-0.53789,-0.0404867,9.88483,-0.25725,-0.191318,0.867342,-0.00537403,-0.000415742,0.0988485,1,5.73248e-05,2.48463e-05,-4.26095e-05,0.011465,0.00496926,-0.00852189,0.999501,0.00196593,0.0314904,-0.00138182,0.512972,0.138979,-0.710369,33.0625,1,43570,4408735
29,6,0.999501,0.00196593,0.0314904,-0.00138182,-0.53789,-0.0404867,9.88483,-0.25725,-0.191318,0.867342,-0.00537403,-0.000415742,0.0988485,1,5.73248e-05,2.48463e-05,-4.26095e-05,0.011465,0.00496926,-0.00852189,0.999501,0.00196593,0.0314904,-0.00138182,0.512972,0.138979,-0.710369,33.0625,1,43570,4408735
29,7,0.999501,0.00196593,0.0314904,-0.00138182,-0.53789,-0.0404867,9.88483,-0.25725,-0.191318,0.867342,-0.00537403,-0.000415742,0.0988485,1,5.73248e-05,2.48463e-05,-4.26095e-05,0.011465,0.00496926,-0.00852189,0.999501,0.00196593,0.0314904,-0.00138182,0.512972,0.138979,-0.710369,33.0625,1,43570,4408735
29,8,0.999502,0.00199291,0.0314659,-0.00142367,-0.959417,-0.0491691,9.71056,-0.798449,-0.22394,0.699804,-0.00959885,-0.000497955,0.0971051,1,3.60883e-05,-2.39055e-05,-3.87878e-05,0.00721767,-0.00478111,-0.00775755,0.999502,0.00199291,0.0314659,-0.00142367,0.514847,0.138999,-0.712397,33.0625,1,43571,4408835
29,9,0.999502,0.00199291,0.0314659,-0.00142367,-0.959417,-0.0491691,9.71056,-0.798449,-0.22394,0.699804,-0.00959885,-0.000497955,0.0971051,1,3.60883e-05,-2.39055e-05,-3.87878e-05,0.00721767,-0.00478111,-0.00775755,0.999502,0.00199291,0.0314659,-0.00142367,0.514847,0.138999,-0.712397,33.0625,1,43571,4408835
29,10,0.999502,0.00199291,0.0314659,-0.00142367,-0.959417,-0.0491691,9.71056,-0.798449,-0.22394,0.699804,-0.00959885,-0.000497955,0.0971051,1,3.60883e-05,-2.39055e-05,-3.87878e-05,0.00721767,-0.00478111,-0.00775755,0.999502,0.00199291,0.0314659,-0.00142367,0.514847,0.138999,-0.712397,33.0625,1,43571,4408835
30,1,0.999503,0.00202311,0.0314331,-0.00146288,-0.345157,-0.0486224,9.84109,-0.196974,-0.251556,0.790933,-0.0034582,-0.000493753,0.0984106,1,3.95107e-05,-3.3515e-05,-3.57564e-05,0.00790214,-0.00670301,-0.00715128,0.999503,0.00202311,0.0314331,-0.00146288,0.51382,0.141464,-0.713348,33.0625,1,43572,4408935
30,2,0.999503,0.00202311,0.0314331,-0.00146288,-0.345157,-0.0486224,9.84109,-0.196974,-0.251556,0.790933,-0.0034582,-0.000493753,0.0984106,1,3.95107e-05,-3.3515e-05,-3.57564e-05,0.00790214,-0.00670301,-0.00715128,0.999503,0.00202311,0.0314331,-0.00146288,0.51382,0.141464,-0.713348,33.0625,1,43572,4408935
30,3,0.999503,0.00202311,0.0314331,-0.00146288,-0.345157,-0.0486224,9.84109,-0.196974,-0.251556,0.790933,-0.0034582,-0.000493753,0.0984106,1,3.95107e-05,-3.3515e-05,-3.57564e-05,0.00790214,-0.00670301,-0.00715128,0.999503,0.00202311,0.0314331,-0.00146288,0.51382,0.141464,-0.713348,33.0625,1,43572,4408935
30,4,0.999502,0.00206342,0.0314504,-0.00151056,-0.613793,-0.0641954,9.83223,-0.327419,-0.262418,0.833096,-0.00613457,-0.00065131,0.0983224,1,5.03884e-05,1.7404e-05,-4.49756e-05,0.0100777,0.00348079,-0.00899511,0.999502,0.00206342,0.0314504,-0.00151056,0.512442,0.141909,-0.710301,33.0625,1,43573,4409035
30,5,0.999502,0.00206342,0.0314504,-0.00151056,-0.613793,-0.0641954,9.83223,-0.327419,-0.262418,0.833096,-0.00613457,-0.00065131,0.0983224,1,5.03884e-05,1.7404e-05,-4.49756e-05,0.0100777,0.00348079,-0.00899511,0.999502,0.00206342,0.0314504,-0.00151056,0.512442,0.141909,-0.710301,33.0625,1,43573,4409035
30,6,0.999502,0.00206342,0.0314504,-0.00151056,-0.613793,-0.0641954,9.83223,-0.327419,-0.262418,0.833096,-0.00613457,-0.00065131,0.0983224,1,5.03884e-05,1.7404e-05,-4.49756e-05,0.0100777,0.00348079,-0.00899511,0.999502,0.00206342,0.0314504,-0.00151056,0.512442,0.141909,-0.710301,33.0625,1,43573,4409035
30,7,0.999503,0.00209634,0.0314132,-0.00154398,-0.949339,-0.0647696,9.70359,-0.819767,-0.242272,0.680964,-0.00950051,-0.000655458,0.0970352,1,4.2995e-05,-3.64985e-05,-3.06393e-05,0.00859899,-0.00729971,-0.00612786,0.999503,0.00209634,0.0314132,-0.00154398,0.51155,0.14283,-0.706741,33.0625,1,43574,4409135
30,8,0.999503,0.00209634,0.0314132,-0.00154398,-0.949339,-0.0647696,9.70359,-0.819767,-0.242272,0.680964,-0.00950051,-0.000655458,0.0970352,1,4.2995e-05,-3.64985e-05,-3.06393e-05,0.00859899,-0.00729971,-0.00612786,0.999503,0.00209634,0.0314132,-0.00154398,0.51155,0.14283,-0.706741,33.0625,1,43574,4409135
30,9,0.999503,0.00209634,0.0314132,-0.00154398,-0.949339,-0.0647696,9.70359,-0.819767,-0.242272,0.680964,-0.00950051,-0.000655458,0.0970352,1,4.2995e-05,-3.64985e-05,-3.06393e-05,0.00859899,-0.00729971,-0.00612786,0.999503,0.00209634,0.0314132,-0.00154398,0.51155,0.14283,-0.706741,33.0625,1,43574,4409135
30,10,0.999504,0.00213112,0.0313652,-0.00158064,-0.188402,-0.0557467,9.86304,-0.0213813,-0.238049,0.810625,-0.00189379,-0.000566285,0.0986301,1,4.53502e-05,-4.93658e-05,-3.40635e-05,0.00907003,-0.00987316,-0.00681269,0.999504,0.00213112,0.0313652,-0.00158064,0.512997,0.141851,-0.707275,33.0625,1,43575,4409235
19,1,0.999504,0.00213112,0.0313652,-0.00158064,-0.188402,-0.0557467,9.86304,-0.0213813,-0.238049,0.810625,-0.00189379,-0.000566285,0.0986301,1,4.53502e-05,-4.93658e-05,-3.40635e-05,0.00907003,-0.00987316,-0.00681269,0.999504,0.00213112,0.0313652,-0.00158064,0.512997,0.141851,-0.707275,33.0625,1,43575,4409235
19,2,0.999504,0.00213112,0.0313652,-0.00158064,-0.188402,-0.0557467,9.86304,-0.0213813,-0.238049,0.810625,-0.00189379,-0.000566285,0.0986301,1,4.53502e-05,-4.93658e-05,-3.40635e-05,0.00907003,-0.00987316,-0.00681269,0.999504,0.00213112,0.0313652,-0.00158064,0.512997,0.141851,-0.707275,33.0625,1,43575,4409235
19,3,0.999504,0.0021516,0.0313822,-0.00162715,-0.604866,-0.114998,9.78661,-0.318404,-0.29081,0.786579,-0.00604522,-0.00115571,0.0978663,1,3.19069e-05,1.8072e-05,-4.27773e-05,0.00638139,0.0036144,-0.00855547,0.999504,0.0021516,0.0313822,-0.00162715,0.513897,0.140443,-0.710846,33.0625,1,43576,4409335
19,4,0.999504,0.0021516,0.0313822,-0.00162715,-0.604866,-0.114998,9.78661,-0.318404,-0.29081,0.786579,-0.00604522,-0.00115571,0.0978663,1,3.19069e-05,1.8072e-05,-4.27773e-05,0.00638139,0.0036144,-0.00855547,0.999504,0.0021516,0.0313822,-0.00162715,0.513897,0.140443,-0.710846,33.0625,1,43576,4409335
19,5,0.999504,0.0021516,0.0313822,-0.00162715,-0.604866,-0.114998,9.78661,-0.318404,-0.29081,0.786579,-0.00604522,-0.00115571,0.0978663,1,3.19069e-05,1.8072e-05,-4.27773e-05,0.00638139,0.0036144,-0.00855547,0.999504,0.0021516,0.0313822,-0.00162715,0.513897,0.140443,-0.710846,33.0625,1,43576,4409335
19,6,0.999505,0.00219375,0.031347,-0.00167491,-0.883839,-0.0877069,9.70261,-0.775802,-0.285047,0.652929,-0.00884503,-0.000886886,0.0970254,1,5.45096e-05,-3.38014e-05,-4.30187e-05,0.0109019,-0.00676028,-0.00860374,0.999505,0.00219375,0.031347,-0.00167491,0.515295,0.139501,-0.713398,33.0625,1,43577,4409435
32,1,0.999505,0.00219375,0.031347,-0.00167491,-0.883839,-0.0877069,9.70261,-0.775802,-0.285047,0.652929,-0.00884503,-0.000886886,0.0970254,1,5.45096e-05,-3.38014e-05,-4.30187e-05,0.0109019,-0.00676028,-0.00860374,0.999505,0.00219375,0.031347,-0.00167491,0.515295,0.139501,-0.713398,33.0625,1,43577,4409435
32,2,0.999505,0.00219375,0.031347,-0.00167491,-0.883839,-0.0877069,9.70261,-0.775802,-0.285047,0.652929,-0.00884503,-0.000886886,0.0970254,1,5.45096e-05,-3.38014e-05,-4.30187e-05,0.0109019,-0.00676028,-0.00860374,0.999505,0.00219375,0.031347,-0.00167491,0.515295,0.139501,-0.713398,33.0625,1,43577,4409435
32,3,0.999505,0.00224432,0.0313211,-0.00172399,-0.245209,0.0308662,9.93608,-0.0225937,-0.183713,0.893267,-0.00245732,0.000296226,0.0993607,1,6.36581e-05,-2.6403e-05,-4.36953e-05,0.0127316,-0.00528061,-0.00873907,0.999505,0.00224432,0.0313211,-0.00172399,0.51673,0.139976,-0.713394,33.0625,1,43578,4409535
32,4,0.999505,0.00224432,0.0313211,-0.00172399,-0.245209,0.0308662,9.93608,-0.0225937,-0.183713,0.893267,-0.00245732,0.000296226,0.0993607,1,6.36581e-05,-2.6403e-05,-4.36953e-05,0.0127316,-0.00528061,-0.00873907,0.999505,0.00224432,0.0313211,-0.00172399,0.51673,0.139976,-0.713394,33.0625,1,43578,4409535
32,5,0.999505,0.00224432,0.0313211,-0.00172399,-0.245209,0.0308662,9.93608,-0.0225937,-0.183713,0.893267,-0.00245732,0.000296226,0.0993607,1,6.36581e-05,-2.6403e-05,-4.36953e-05,0.0127316,-0.00528061,-0.00873907,0.999505,0.00224432,0.0313211,-0.00172399,0.51673,0.139976,-0.713394,33.0625,1,43578,4409535
32,6,0.999505,0.00225893,0.0313226,-0.0017784,-0.893272,0.0139613,9.74456,-0.656585,-0.164856,0.75859,-0.00893217,0.000135122,0.0974456,1,2.76558e-05,2.73407e-06,-5.03198e-05,0.00553117,0.000546813,-0.010064,0.999505,0.00225893,0.0313226,-0.0017784,0.516331,0.139439,-0.710374,33.0625,1,43579,4409635
32,7,0.999505,0.00225893,0.0313226,-0.0017784,-0.893272,0.0139613,9.74456,-0.656585,-0.164856,0.75859,-0.00893217,0.000135122,0.0974456,1,2.76558e-05,2.73407e-06,-5.03198e-05,0.00553117,0.000546813,-0.010064,0.999505,0.00225893,0.0313226,-0.0017784,0.516331,0.139439,-0.710374,33.0625,1,43579,4409635
32,8,0.999505,0.00225893,0.0313226,-0.0017784,-0.893272,0.0139613,9.74456,-0.656585,-0.164856,0.75859,-0.00893217,0.000135122,0.0974456,1,2.76558e-05,2.73407e-06,-5.03198e-05,0.00553117,0.000546813,-0.010064,0.999505,0.00225893,0.0313226,-0.0017784,0.516331,0.139439,-0.710374,33.0625,1,43579,4409635
32,9,0.999507,0.00229535,0.0312513,-0.00184404,-0.560239,-0.0539496,9.79537,-0.477281,-0.236544,0.738966,-0.00561654,-0.000548465,0.0979529,1,4.93583e-05,-7.18906e-05,-6.238e-05,0.00987165,-0.0143781,-0.012476,0.999507,0.00229535,0.0312513,-0.00184404,0.514946,0.138927,-0.708359,33.0625,1,43580,4409735
32,10,0.999507,0.00229535,0.0312513,-0.00184404,-0.560239,-0.0539496,9.79537,-0.477281,-0.236544,0.738966,-0.00561654,-0.000548465,0.0979529,1,4.93583e-05,-7.18906e-05,-6.238e-05,0.00987165,-0.0143781,-0.012476,0.999507,0.00229535,0.0312513,-0.00184404,0.514946,0.138927,-0.708359,33.0625,1,43580,4409735
33,1,0.999507,0.00229535,0.0312513,-0.00184404,-0.560239,-0.0539496,9.79537,-0.477281,-0.236544,0.738966,-0.00561654,-0.000548465,0.0979529,1,4.93583e-05,-7.18906e-05,-6.238e-05,0.00987165,-0.0143781,-0.012476,0.999507,0.00229535,0.0312513,-0.00184404,0.514946,0.138927,-0.708359,33.0625,1,43580,4409735
33,2,0.999507,0.00232069,0.031245,-0.00188989,-0.163162,-0.120306,9.86467,0.0914238,-0.302787,0.828822,-0.00163293,-0.00121036,0.0986466,1,3.77099e-05,-6.07781e-06,-4.41068e-05,0.00754198,-0.00121556,-0.00882135,0.999507,0.00232069,0.031245,-0.00188989,0.514999,0.137924,-0.706866,33.0625,1,43581,4409835
33,3,0.999507,0.00232069,0.031245,-0.00188989,-0.163162,-0.120306,9.86467,0.0914238,-0.302787,0.828822,-0.00163293,-0.00121036,0.0986466,1,3.77099e-05,-6.07781e-06,-4.41068e-05,0.00754198,-0.00121556,-0.00882135,0.999507,0.00232069,0.031245,-0.00188989,0.514999,0.137924,-0.706866,33.0625,1,43581,4409835
33,4,0.999507,0.00232069,0.031245,-0.00188989,-0.163162,-0.120306,9.86467,0.0914238,-0.302787,0.828822,-0.00163293,-0.00121036,0.0986466,1,3.77099e-05,-6.07781e-06,-4.41068e-05,0.00754198,-0.00121556,-0.00882135,0.999507,0.00232069,0.031245,-0.00188989,0.514999,0.137924,-0.706866,33.0625,1,43581,4409835
33,5,0.999507,0.00237357,0.0312444,-0.00194747,-0.820109,-0.163347,9.68081,-0.627088,-0.347566,0.67173,-0.00820081,-0.00164539,0.0968079,1,6.6162e-05,2.34837e-06,-5.44837e-05,0.0132324,0.000469674,-0.0108967,0.999507,0.00237357,0.0312444,-0.00194747,0.516368,0.136521,-0.710944,33.0625,1,43582,4409935
33,6,0.999507,0.00237357,0.0312444,-0.00194747,-0.820109,-0.163347,9.68081,-0.627088,-0.347566,0.67173,-0.00820081,-0.00164539,0.0968079,1,6.6162e-05,2.34837e-06,-5.44837e-05,0.0132324,0.000469674,-0.0108967,0.999507,0.00237357,0.0312444,-0.00194747,0.516368,0.136521,-0.710944,33.0625,1,43582,4409935
33,7,0.999507,0.00237357,0.0312444,-0.00194747,-0.820109,-0.163347,9.68081,-0.627088,-0.347566,0.67173,-0.00820081,-0.00164539,0.0968079,1,6.6162e-05,2.34837e-06,-5.44837e-05,0.0132324,0.000469674,-0.0108967,0.999507,0.00237357,0.0312444,-0.00194747,0.516368,0.136521,-0.710944,33.0625,1,43582,4409935
33,8,0.999508,0.00242163,0.0312043,-0.00200073,-0.497939,-0.0645345,9.83317,-0.359705,-0.252477,0.77577,-0.00498701,-0.000657526,0.0983312,1,6.42908e-05,-3.84321e-05,-4.63485e-05,0.0128582,-0.00768641,-0.00926971,0.999508,0.00242163,0.0312043,-0.00200073,0.519139,0.136099,-0.716017,33.0625,1,43583,4410035
33,9,0.999508,0.00242163,0.0312043,-0.00200073,-0.497939,-0.0645345,9.83317,-0.359705,-0.252477,0.77577,-0.00498701,-0.000657526,0.0983312,1,6.42908e-05,-3.84321e-05,-4.63485e-05,0.0128582,-0.00768641,-0.00926971,0.999508,0.00242163,0.0312043,-0.00200073,0.519139,0.136099,-0.716017,33.0625,1,43583,4410035
33,10,0.999508,0.00242163,0.0312043,-0.00200073,-0.497939,-0.0645345,9.83317,-0.359705,-0.252477,0.77577,-0.00498701,-0.000657526,0.0983312,1,6.42908e-05,-3.84321e-05,-4.63485e-05,0.0128582,-0.00768641,-0.00926971,0.999508,0.00242163,0.0312043,-0.00200073,0.519139,0.136099,-0.716017,33.0625,1,43583,4410035
22,1,0.999508,0.00246285,0.0312031,-0.00206268,-0.435862,-0.0654028,9.87343,-0.215702,-0.252752,0.848708,-0.00435843,-0.000665421,0.0987342,1,5.98954e-05,1.28739e-06,-4.99242e-05,0.0119791,0.000257478,-0.00998485,0.999508,0.00246285,0.0312031,-0.00206268,0.518161,0.138528,-0.714948,33.0625,1,43584,4410135
22,2,0.999508,0.00246285,0.0312031,-0.00206268,-0.435862,-0.0654028,9.87343,-0.215702,-0.252752,0.848708,-0.00435843,-0.000665421,0.0987342,1,5.98954e-05,1.28739e-06,-4.99242e-05,0.0119791,0.000257478,-0.00998485,0.999508,0.00246285,0.0312031,-0.00206268,0.518161,0.138528,-0.714948,33.0625,1,43584,4410135
22,3,0.999508,0.00246285,0.0312031,-0.00206268,-0.435862,-0.0654028,9.87343,-0.215702,-0.252752,0.848708,-0.00435843,-0.000665421,0.0987342,1,5.98954e-05,1.28739e-06,-4.99242e-05,0.0119791,0.000257478,-0.00998485,0.999508,0.00246285,0.0312031,-0.00206268,0.518161,0.138528,-0.714948,33.0625,1,43584,4410135
22,4,0.999508,0.00250044,0.0311941,-0.0021262,-0.616476,-0.0672868,9.75081,-0.437983,-0.256666,0.732993,-0.00616594,-0.00068291,0.0975079,1,5.50839e-05,-5.69049e-06,-5.67456e-05,0.0110168,-0.0011381,-0.0113491,0.999508,0.00250044,0.0311941,-0.0021262,0.515834,0.138973,-0.711392,33.0625,1,43585,4410235
22,5,0.999508,0.00250044,0.0311941,-0.0021262,-0.616476,-0.0672868,9.75081,-0.437983,-0.256666,0.732993,-0.00616594,-0.00068291,0.0975079,1,5.50839e-05,-5.69049e-06,-5.67456e-05,0.0110168,-0.0011381,-0.0113491,0.999508,0.00250044,0.0311941,-0.0021262,0.515834,0.138973,-0.711392,33.0625,1,43585,4410235
22,6,0.999508,0.00250044,0.0311941,-0.0021262,-0.616476,-0.0672868,9.75081,-0.437983,-0.256666,0.732993,-0.00616594,-0.00068291,0.0975079,1,5.50839e-05,-5.69049e-06,-5.67456e-05,0.0110168,-0.0011381,-0.0113491,0.999508,0.00250044,0.0311941,-0.0021262,0.515834,0.138973,-0.711392,33.0625,1,43585,4410235
22,7,0.999508,0.00255559,0.0311749,-0.00216555,-0.404676,-0.0536451,9.78547,-0.238895,-0.251751,0.745294,-0.00405006,-0.00054983,0.0978544,1,6.99737e-05,-1.66429e-05,-3.89763e-05,0.0139947,-0.00332857,-0.00779526,0.999508,0.00255559,0.0311749,-0.00216555,0.51495,0.139406,-0.707843,33.0625,1,43586,4410335
22,8,0.999508,0.00255559,0.0311749,-0.00216555,-0.404676,-0.0536451,9.78547,-0.238895,-0.251751,0.745294,-0.00405006,-0.00054983,0.0978544,1,6.99737e-05,-1.66429e-05,-3.89763e-05,0.0139947,-0.00332857,-0.00779526,0.999508,0.00255559,0.0311749,-0.00216555,0.51495,0.139406,-0.707843,33.0625,1,43586,4410335
35,1,0.999508,0.00255559,0.0311749,-0.00216555,-0.404676,-0.0536451,9.78547,-0.238895,-0.251751,0.745294,-0.00405006,-0.00054983,0.0978544,1,6.99737e-05,-1.66429e-05,-3.89763e-05,0.0139947,-0.00332857,-0.00779526,0.999508,0.00255559,0.0311749,-0.00216555,0.51495,0.139406,-0.707843,33.0625,1,43586,4410335
35,2,0.999509,0.00261688,0.0311609,-0.00222424,-0.357307,-0.0435156,9.82763,-0.16078,-0.248553,0.78812,-0.00357513,-0.000449754,0.0982762,1,7.64019e-05,-1.02207e-05,-5.85076e-05,0.0152804,-0.00204414,-0.0117015,0.999509,0.00261688,0.0311609,-0.00222424,0.515443,0.139393,-0.707341,33.0625,1,43587,4410435
35,3,0.999509,0.00261688,0.0311609,-0.00222424,-0.357307,-0.0435156,9.82763,-0.16078,-0.248553,0.78812,-0.00357513,-0.000449754,0.0982762,1,7.64019e-05,-1.02207e-05,-5.85076e-05,0.0152804,-0.00204414,-0.0117015,0.999509,0.00261688,0.0311609,-0.00222424,0.515443,0.139393,-0.707341,33.0625,1,43587,4410435
35,4,0.999509,0.00261688,0.0311609,-0.00222424,-0.357307,-0.0435156,9.82763,-0.16078,-0.248553,0.78812,-0.00357513,-0.000449754,0.0982762,1,7.64019e-05,-1.02207e-05,-5.85076e-05,0.0152804,-0.00204414,-0.0117015,0.999509,0.00261688,0.0311609,-0.00222424,0.515443,0.139393,-0.707341,33.0625,1,43587,4410435
35,5,0.999508,0.00266434,0.0311557,-0.00227214,-0.535748,0.0258665,9.78939,-0.341972,-0.173135,0.761249,-0.00535746,0.00024671,0.097894,1,6.35516e-05,-5.24135e-08,-4.55194e-05,0.0127103,-1.04827e-05,-0.00910388,0.999508,0.00266434,0.0311557,-0.00227214,0.516751,0.13948,-0.7129,33.0625,1,43588,4410535
35,6,0.999508,0.00266434,0.0311557,-0.00227214,-0.535748,0.0258665,9.78939,-0.341972,-0.173135,0.761249,-0.00535746,0.00024671,0.097894,1,6.35516e-05,-5.24135e-08,-4.55194e-05,0.0127103,-1.04827e-05,-0.00910388,0.999508,0.00266434,0.0311557,-0.00227214,0.516751,0.13948,-0.7129,33.0625,1,43588,4410535
35,7,0.999508,0.00266434,0.0311557,-0.00227214,-0.535748,0.0258665,9.78939,-0.341972,-0.173135,0.761249,-0.00535746,0.00024671,0.097894,1,6.35516e-05,-5.24135e-08,-4.55194e-05,0.0127103,-1.04827e-05,-0.00910388,0.999508,0.00266434,0.0311557,-0.00227214,0.516751,0.13948,-0.7129,33.0625,1,43588,4410535
35,8,0.999509,0.00269359,0.031119,-0.00233149,-0.402105,-0.0409629,9.80558,-0.247321,-0.21997,0.758823,-0.00402697,-0.000418929,0.0980555,1,4.94414e-05,-2.99853e-05,-4.92281e-05,0.00988828,-0.00599707,-0.00984563,0.999509,0.00269359,0.031119,-0.00233149,0.520074,0.139967,-0.71442,33.0625,1,43589,4410635
36,1,0.999509,0.00269359,0.031119,-0.00233149,-0.402105,-0.0409629,9.80558,-0.247321,-0.21997,0.758823,-0.00402697,-0.000418929,0.0980555,1,4.94414e-05,-2.99853e-05,-4.92281e-05,0.00988828,-0.00599707,-0.00984563,0.999509,0.00269359,0.031119,-0.00233149,0.520074,0.139967,-0.71442,33.0625,1,43589,4410635
36,2,0.999509,0.00269359,0.031119,-0.00233149,-0.402105,-0.0409629,9.80558,-0.247321,-0.21997,0.758823,-0.00402697,-0.000418929,0.0980555,1,4.94414e-05,-2.99853e-05,-4.92281e-05,0.00988828,-0.00599707,-0.00984563,0.999509,0.00269359,0.031119,-0.00233149,0.520074,0.139967,-0.71442,33.0625,1,43589,4410635
36,3,0.99951,0.00272781,0.0310965,-0.0023943,-0.325165,-0.112479,9.82038,-0.126805,-0.303726,0.781896,-0.00325458,-0.00113535,0.0982036,1,5.52833e-05,-1.43839e-05,-4.66051e-05,0.0110567,-0.00287679,-0.00932102,0.99951,0.00272781,0.0310965,-0.0023943,0.5191,0.141429,-0.713878,33.0625,1,43590,4410735
36,4,0.99951,0.00272781,0.0310965,-0.0023943,-0.325165,-0.112479,9.82038,-0.126805,-0.303726,0.781896,-0.00325458,-0.00113535,0.0982036,1,5.52833e-05,-1.43839e-05,-4.66051e-05,0.0110567,-0.00287679,-0.00932102,0.99951,0.00272781,0.0310965,-0.0023943,0.5191,0.141429,-0.713878,33.0625,1,43590,4410735
36,5,0.99951,0.00272781,0.0310965,-0.0023943,-0.325165,-0.112479,9.82038,-0.126805,-0.303726,0.781896,-0.00325458,-0.00113535,0.0982036,1,5.52833e-05,-1.43839e-05,-4.66051e-05,0.0110567,-0.00287679,-0.00932102,0.99951,0.00272781,0.0310965,-0.0023943,0.5191,0.141429,-0.713878,33.0625,1,43590,4410735
36,6,0.99951,0.00276377,0.0310754,-0.00246485,-0.341328,-0.0992319,9.8067,-0.168328,-0.305999,0.766547,-0.00341574,-0.00100298,0.0980668,1,5.64789e-05,-1.19621e-05,-6.09105e-05,0.0112958,-0.00239243,-0.0121821,0.99951,0.00276377,0.0310754,-0.00246485,0.516817,0.141359,-0.708818,33.0625,1,43591,4410835
36,7,0.99951,0.00276377,0.0310754,-0.00246485,-0.341328,-0.0992319,9.8067,-0.168328,-0.305999,0.766547,-0.00341574,-0.00100298,0.0980668,1,5.64789e-05,-1.19621e-05,-6.09105e-05,0.0112958,-0.00239243,-0.0121821,0.99951,0.00276377,0.0310754,-0.00246485,0.516817,0.141359,-0.708818,33.0625,1,43591,4410835
36,8,0.99951,0.00276377,0.0310754,-0.00246485,-0.341328,-0.0992319,9.8067,-0.168328,-0.305999,0.766547,-0.00341574,-0.00100298,0.0980668,1,5.64789e-05,-1.19621e-05,-6.09105e-05,0.0112958,-0.00239243,-0.0121821,0.99951,0.00276377,0.0310754,-0.00246485,0.516817,0.141359,-0.708818,33.0625,1,43591,4410835
37,1,0.999511,0.00280659,0.0310459,-0.00252001,-0.28171,-0.069579,9.80451,-0.115415,-0.279909,0.75817,-0.00282129,-0.000707181,0.0980449,1,5.97222e-05,-2.0942e-05,-5.68327e-05,0.0119444,-0.0041884,-0.0113665,0.999511,0.00280659,0.0310459,-0.00252001,0.515,0.140815,-0.704782,33.0625,1,43592,4410935
37,2,0.999511,0.00280659,0.0310459,-0.00252001,-0.28171,-0.069579,9.80451,-0.115415,-0.279909,0.75817,-0.00282129,-0.000707181,0.0980449,1,5.97222e-05,-2.0942e-05,-5.68327e-05,0.0119444,-0.0041884,-0.0113665,0.999511,0.00280659,0.0310459,-0.00252001,0.515,0.140815,-0.704782,33.0625,1,43592,4410935
37,3,0.999511,0.00280659,0.0310459,-0.00252001,-0.28171,-0.069579,9.80451,-0.115415,-0.279909,0.75817,-0.00282129,-0.000707181,0.0980449,1,5.97222e-05,-2.0942e-05,-5.68327e-05,0.0119444,-0.0041884,-0.0113665,0.999511,0.00280659,0.0310459,-0.00252001,0.515,0.140815,-0.704782,33.0625,1,43592,4410935
37,4,0.999511,0.00284402,0.0310378,-0.00257381,-0.242092,-0.014719,9.82269,-0.0369116,-0.218737,0.774052,-0.00242053,-0.000157667,0.0982269,1,5.4732e-05,2.03754e-06,-5.67864e-05,0.0109464,0.000407507,-0.0113573,0.999511,0.00284402,0.0310378,-0.00257381,0.515957,0.138883,-0.706344,33.0625,1,43593,4411035
37,5,0.999511,0.00284402,0.0310378,-0.00257381,-0.242092,-0.014719,9.82269,-0.0369116,-0.218737,0.774052,-0.00242053,-0.000157667,0.0982269,1,5.4732e-05,2.03754e-06,-5.67864e-05,0.0109464,0.000407507,-0.0113573,0.999511,0.00284402,0.0310378,-0.00257381,0.515957,0.138883,-0.706344,33.0625,1,43593,4411035
37,6,0.999511,0.00284402,0.0310378,-0.00257381,-0.242092,-0.014719,9.82269,-0.0369116,-0.218737,0.774052,-0.00242053,-0.000157667,0.0982269,1,5.4732e-05,2.03754e-06,-5.67864e-05,0.0109464,0.000407507,-0.0113573,0.999511,0.00284402,0.0310378,-0.00257381,0.515957,0.138883,-0.706344,33.0625,1,43593,4411035
37,7,0.999511,0.00289999,0.0310133,-0.00264387,-0.392941,0.00688293,9.79743,-0.227214,-0.19646,0.755018,-0.00393136,5.43432e-05,0.0979743,1,7.6616e-05,-1.00034e-05,-6.70108e-05,0.0153232,-0.00200068,-0.0134022,0.999511,0.00289999,0.0310133,-0.00264387,0.518724,0.137982,-0.711933,33.0625,1,43594,4411135
37,8,0.999511,0.00289999,0.0310133,-0.00264387,-0.392941,0.00688293,9.79743,-0.227214,-0.19646,0.755018,-0.00393136,5.43432e-05,0.0979743,1,7.6616e-05,-1.00034e-05,-6.70108e-05,0.0153232,-0.00200068,-0.0134022,0.999511,0.00289999,0.0310133,-0.00264387,0.518724,0.137982,-0.711933,33.0625,1,43594,4411135
37,9,0.999511,0.00289999,0.0310133,-0.00264387,-0.392941,0.00688293,9.79743,-0.227214,-0.19646,0.755018,-0.00393136,5.43432e-05,0.0979743,1,7.6616e-05,-1.00034e-05,-6.70108e-05,0.0153232,-0.00200068,-0.0134022,0.999511,0.00289999,0.0310133,-0.00264387,0.518724,0.137982,-0.711933,33.0625,1,43594,4411135
37,10,0.999512,0.00292632,0.0309844,-0.00272461,-0.201839,0.0130452,9.80604,-0.0228072,-0.184248,0.749493,-0.00202046,0.000120814,0.0980604,1,5.0554e-05,-1.06298e-05,-6.84839e-05,0.0101108,-0.00212596,-0.0136968,0.999512,0.00292632,0.0309844,-0.00272461,0.519584,0.139013,-0.715449,33.0625,1,43595,4411235
38,1,0.999512,0.00292632,0.0309844,-0.00272461,-0.201839,0.0130452,9.80604,-0.0228072,-0.184248,0.749493,-0.00202046,0.000120814,0.0980604,1,5.0554e-05,-1.06298e-05,-6.84839e-05,0.0101108,-0.00212596,-0.0136968,0.999512,0.00292632,0.0309844,-0.00272461,0.519584,0.139013,-0.715449,33.0625,1,43595,4411235
38,2,0.999512,0.00292632,0.0309844,-0.00272461,-0.201839,0.0130452,9.80604,-0.0228072,-0.184248,0.749493,-0.00202046,0.000120814,0.0980604,1,5.0554e-05,-1.06298e-05,-6.84839e-05,0.0101108,-0.00212596,-0.0136968,0.999512,0.00292632,0.0309844,-0.00272461,0.519584,0.139013,-0.715449,33.0625,1,43595,4411235
38,3,0.999513,0.00293678,0.0309389,-0.00280297,-0.138512,-0.0537255,9.81454,0.0350945,-0.246774,0.762372,-0.00138999,-0.000544013,0.0981453,1,3.5336e-05,-2.44224e-05,-6.42896e-05,0.00706721,-0.00488447,-0.0128579,0.999513,0.00293678,0.0309389,-0.00280297,0.518137,0.141437,-0.713873,33.0625,1,43596,4411335
38,4,0.999513,0.00293678,0.0309389,-0.00280297,-0.138512,-0.0537255,9.81454,0.0350945,-0.246774,0.762372,-0.00138999,-0.000544013,0.0981453,1,3.5336e-05,-2.44224e-05,-6.42896e-05,0.00706721,-0.00488447,-0.0128579,0.999513,0.00293678,0.0309389,-0.00280297,0.518137,0.141437,-0.713873,33.0625,1,43596,4411335
38,5,0.999513,0.00293678,0.0309389,-0.00280297,-0.138512,-0.0537255,9.81454,0.0350945,-0.246774,0.762372,-0.00138999,-0.000544013,0.0981453,1,3.5336e-05,-2.44224e-05,-6.42896e-05,0.00706721,-0.00488447,-0.0128579,0.999513,0.00293678,0.0309389,-0.00280297,0.518137,0.141437,-0.713873,33.0625,1,43596,4411335
38,6,0.999514,0.00295566,0.0309109,-0.002874,-0.311094,-0.110198,9.74126,-0.136872,-0.305408,0.692561,-0.00311244,-0.00110957,0.0974125,1,4.09591e-05,-6.9664e-06,-6.32687e-05,0.00819183,-0.00139328,-0.0126538,0.999514,0.00295566,0.0309109,-0.002874,0.516833,0.140383,-0.70884,33.0625,1,43597,4411435
38,7,0.999514,0.00295566,0.0309109,-0.002874,-0.311094,-0.110198,9.74126,-0.136872,-0.305408,0.692561,-0.00311244,-0.00110957,0.0974125,1,4.09591e-05,-6.9664e-06,-6.32687e-05,0.00819183,-0.00139328,-0.0126538,0.999514,0.00295566,0.0309109,-0.002874,0.516833,0.140383,-0.70884,33.0625,1,43597,4411435
38,8,0.999514,0.00295566,0.0309109,-0.002874,-0.311094,-0.110198,9.74126,-0.136872,-0.305408,0.692561,-0.00311244,-0.00110957,0.0974125,1,4.09591e-05,-6.9664e-06,-6.32687e-05,0.00819183,-0.00139328,-0.0126538,0.999514,0.00295566,0.0309109,-0.002874,0.516833,0.140383,-0.70884,33.0625,1,43597,4411435
39,1,0.999514,0.00299478,0.0308785,-0.00294156,-0.111323,-0.1083,9.82915,0.0800376,-0.318055,0.778922,-0.00111586,-0.00109452,0.0982913,1,5.93594e-05,-1.26124e-05,-6.85261e-05,0.0118719,-0.00252249,-0.0137052,0.999514,0.00299478,0.0308785,-0.00294156,0.514974,0.139388,-0.706834,33.0625,1,43598,4411535
39,2,0.999514,0.00299478,0.0308785,-0.00294156,-0.111323,-0.1083,9.82915,0.0800376,-0.318055,0.778922,-0.00111586,-0.00109452,0.0982913,1,5.93594e-05,-1.26124e-05,-6.85261e-05,0.0118719,-0.00252249,-0.0137052,0.999514,0.00299478,0.0308785,-0.00294156,0.514974,0.139388,-0.706834,33.0625,1,43598,4411535
39,3,0.999514,0.00299478,0.0308785,-0.00294156,-0.111323,-0.1083,9.82915,0.0800376,-0.318055,0.778922,-0.00111586,-0.00109452,0.0982913,1,5.93594e-05,-1.26124e-05,-6.85261e-05,0.0118719,-0.00252249,-0.0137052,0.999514,0.00299478,0.0308785,-0.00294156,0.514974,0.139388,-0.706834,33.0625,1,43598,4411535
39,4,0.999515,0.00302824,0.0308348,-0.00300814,-0.133349,-0.0248986,9.87717,0.0132475,-0.230551,0.812813,-0.00133768,-0.000259747,0.0987716,1,5.54013e-05,-2.1038e-05,-6.85041e-05,0.0110803,-0.0042076,-0.0137008,0.999515,0.00302824,0.0308348,-0.00300814,0.516413,0.137451,-0.708398,33.0625,1,43599,4411635
39,5,0.999515,0.00302824,0.0308348,-0.00300814,-0.133349,-0.0248986,9.87717,0.0132475,-0.230551,0.812813,-0.00133768,-0.000259747,0.0987716,1,5.54013e-05,-2.1038e-05,-6.85041e-05,0.0110803,-0.0042076,-0.0137008,0.999515,0.00302824,0.0308348,-0.00300814,0.516413,0.137451,-0.708398,33.0625,1,43599,4411635
39,6,0.999515,0.00302824,0.0308348,-0.00300814,-0.133349,-0.0248986,9.87717,0.0132475,-0.230551,0.812813,-0.00133768,-0.000259747,0.0987716,1,5.54013e-05,-2.1038e-05,-6.85041e-05,0.0110803,-0.0042076,-0.0137008,0.999515,0.00302824,0.0308348,-0.00300814,0.516413,0.137451,-0.708398,33.0625,1,43599,4411635
39,7,0.999516,0.00305884,0.0307901,-0.00309057,-0.280793,0.0471307,9.77769,-0.101055,-0.153737,0.720521,-0.00281106,0.000460971,0.0977768,1,5.51361e-05,-1.642e-05,-7.94794e-05,0.0110272,-0.00328399,-0.0158959,0.999516,0.00305884,0.0307901,-0.00309057,0.51876,0.135065,-0.712503,33.0625,1,43600,4411735
39,8,0.999516,0.00305884,0.0307901,-0.00309057,-0.280793,0.0471307,9.77769,-0.101055,-0.153737,0.720521,-0.00281106,0.000460971,0.0977768,1,5.51361e-05,-1.642e-05,-7.94794e-05,0.0110272,-0.00328399,-0.0158959,0.999516,0.00305884,0.0307901,-0.00309057,0.51876,0.135065,-0.712503,33.0625,1,43600,4411735
39,9,0.999516,0.00305884,0.0307901,-0.00309057,-0.280793,0.0471307,9.77769,-0.101055,-0.153737,0.720521,-0.00281106,0.000460971,0.0977768,1,5.51361e-05,-1.642e-05,-7.94794e-05,0.0110272,-0.00328399,-0.0158959,0.999516,0.00305884,0.0307901,-0.00309057,0.51876,0.135065,-0.712503,33.0625,1,43600,4411735
39,10,0.999518,0.00307956,0.0307415,-0.00318509,-0.132776,-0.0369134,9.8031,0.101125,-0.244748,0.775443,-0.00133061,-0.000378285,0.0980309,1,4.78445e-05,-1.42135e-05,-8.65792e-05,0.00956889,-0.00284269,-0.0173158,0.999518,0.00307956,0.0307415,-0.00318509,0.520125,0.134628,-0.716054,33.0625,1,43601,4411835
40,1,0.999518,0.00307956,0.0307415,-0.00318509,-0.132776,-0.0369134,9.8031,0.101125,-0.244748,0.775443,-0.00133061,-0.000378285,0.0980309,1,4.78445e-05,-1.42135e-05,-8.65792e-05,0.00956889,-0.00284269,-0.0173158,0.999518,0.00307956,0.0307415,-0.00318509,0.520125,0.134628,-0.716054,33.0625,1,43601,4411835
40,2,0.999518,0.00307956,0.0307415,-0.00318509,-0.132776,-0.0369134,9.8031,0.101125,-0.244748,0.775443,-0.00133061,-0.000378285,0.0980309,1,4.78445e-05,-1.42135e-05,-8.65792e-05,0.00956889,-0.00284269,-0.0173158,0.999518,0.00307956,0.0307415,-0.00318509,0.520125,0.134628,-0.716054,33.0625,1,43601,4411835
40,3,0.999519,0.00308926,0.0306818,-0.00328545,-0.0115869,-0.124098,9.86634,0.119721,-0.3101,0.801534,-0.00012067,-0.00124831,0.0986633,1,3.72597e-05,-2.31976e-05,-8.99857e-05,0.00745194,-0.00463952,-0.0179971,0.999519,0.00308926,0.0306818,-0.00328545,0.519644,0.134632,-0.716052,33.0625,1,43602,4411935
40,4,0.999519,0.00308926,0.0306818,-0.00328545,-0.0115869,-0.124098,9.86634,0.119721,-0.3101,0.801534,-0.00012067,-0.00124831,0.0986633,1,3.72597e-05,-2.31976e-05,-8.99857e-05,0.00745194,-0.00463952,-0.0179971,0.999519,0.00308926,0.0306818,-0.00328545,0.519644,0.134632,-0.716052,33.0625,1,43602,4411935
40,5,0.999519,0.00308926,0.0306818,-0.00328545,-0.0115869,-0.124098,9.86634,0.119721,-0.3101,0.801534,-0.00012067,-0.00124831,0.0986633,1,3.72597e-05,-2.31976e-05,-8.99857e-05,0.00745194,-0.00463952,-0.0179971,0.999519,0.00308926,0.0306818,-0.00328545,0.519644,0.134632,-0.716052,33.0625,1,43602,4411935
40,6,0.99952,0.00311287,0.0306242,-0.00340249,-0.127267,-0.0774948,9.78577,-0.0418636,-0.270133,0.687508,-0.00127696,-0.000784617,0.0978575,1,5.08457e-05,-2.10397e-05,-0.000110673,0.0101691,-0.00420795,-0.0221347,0.99952,0.00311287,0.0306242,-0.00340249,0.519771,0.133575,-0.71153,33.0625,1,43603,4412035
40,7,0.99952,0.00311287,0.0306242,-0.00340249,-0.127267,-0.0774948,9.78577,-0.0418636,-0.270133,0.687508,-0.00127696,-0.000784617,0.0978575,1,5.08457e-05,-2.10397e-05,-0.000110673,0.0101691,-0.00420795,-0.0221347,0.99952,0.00311287,0.0306242,-0.00340249,0.519771,0.133575,-0.71153,33.0625,1,43603,4412035
40,8,0.99952,0.00311287,0.0306242,-0.00340249,-0.127267,-0.0774948,9.78577,-0.0418636,-0.270133,0.687508,-0.00127696,-0.000784617,0.0978575,1,5.08457e-05,-2.10397e-05,-0.000110673,0.0101691,-0.00420795,-0.0221347,0.99952,0.00311287,0.0306242,-0.00340249,0.519771,0.133575,-0.71153,33.0625,1,43603,4412035
40,9,0.999521,0.00316118,0.0305809,-0.0035237,-0.195838,-0.0388896,9.76349,-0.0112624,-0.258794,0.714141,-0.00195952,-0.000403065,0.0976348,1,7.49141e-05,-5.38876e-06,-0.000117079,0.0149828,-0.00107775,-0.0234159,0.999521,0.00316118,0.0305809,-0.0035237,0.518834,0.135011,-0.709474,33.0625,1,43604,4412135
40,10,0.999521,0.00316118,0.0305809,-0.0035237,-0.195838,-0.0388896,9.76349,-0.0112624,-0.258794,0.714141,-0.00195952,-0.000403065,0.0976348,1,7.49141e-05,-5.38876e-06,-0.000117079,0.0149828,-0.00107775,-0.0234159,0.999521,0.00316118,0.0305809,-0.0035237,0.518834,0.135011,-0.709474,33.0625,1,43604,4412135
41,1,0.999521,0.00316118,0.0305809,-0.0035237,-0.195838,-0.0388896,9.76349,-0.0112624,-0.258794,0.714141,-0.00195952,-0.000403065,0.0976348,1,7.49141e-05,-5.38876e-06,-0.000117079,0.0149828,-0.00107775,-0.0234159,0.999521,0.00316118,0.0305809,-0.0035237,0.518834,0.135011,-0.709474,33.0625,1,43604,4412135
41,2,0.999522,0.00318436,0.0305332,-0.00363151,-0.128585,0.0100991,9.88185,0.128918,-0.20464,0.861754,-0.0012873,9.13947e-05,0.0988185,1,4.98876e-05,-7.42927e-06,-0.000102347,0.00997752,-0.00148585,-0.0204693,0.999522,0.00318436,0.0305332,-0.00363151,0.519801,0.135481,-0.708963,33.0625,1,43605,4412235
41,3,0.999522,0.00318436,0.0305332,-0.00363151,-0.128585,0.0100991,9.88185,0.128918,-0.20464,0.861754,-0.0012873,9.13947e-05,0.0988185,1,4.98876e-05,-7.42927e-06,-0.000102347,0.00997752,-0.00148585,-0.0204693,0.999522,0.00318436,0.0305332,-0.00363151,0.519801,0.135481,-0.708963,33.0625,1,43605,4412235
41,4,0.999522,0.00318436,0.0305332,-0.00363151,-0.128585,0.0100991,9.88185,0.128918,-0.20464,0.861754,-0.0012873,9.13947e-05,0.0988185,1,4.98876e-05,-7.42927e-06,-0.000102347,0.00997752,-0.00148585,-0.0204693,0.999522,0.00318436,0.0305332,-0.00363151,0.519801,0.135481,-0.708963,33.0625,1,43605,4412235
41,5,0.999524,0.00318304,0.0304721,-0.00374643,-0.0208908,-0.0255992,9.93036,0.220032,-0.205951,0.884224,-0.000212411,-0.000261156,0.0993035,1,2.62355e-05,-1.73547e-05,-0.000109735,0.00524711,-0.00347095,-0.0219471,0.999524,0.00318304,0.0304721,-0.00374643,0.520232,0.134068,-0.712027,33.0625,1,43606,4412335
41,6,0.999524,0.00318304,0.0304721,-0.00374643,-0.0208908,-0.0255992,9.93036,0.220032,-0.205951,0.884224,-0.000212411,-0.000261156,0.0993035,1,2.62355e-05,-1.73547e-05,-0.000109735,0.00524711,-0.00347095,-0.0219471,0.999524,0.00318304,0.0304721,-0.00374643,0.520232,0.134068,-0.712027,33.0625,1,43606,4412335
41,7,0.999524,0.00318304,0.0304721,-0.00374643,-0.0208908,-0.0255992,9.93036,0.220032,-0.205951,0.884224,-0.000212411,-0.000261156,0.0993035,1,2.62355e-05,-1.73547e-05,-0.000109735,0.00524711,-0.00347095,-0.0219471,0.999524,0.00318304,0.0304721,-0.00374643,0.520232,0.134068,-0.712027,33.0625,1,43606,4412335
41,8,0.999525,0.00320049,0.030406,-0.00386065,-0.165633,-0.028015,9.83632,0.0242398,-0.207384,0.79634,-0.00165988,-0.00028882,0.0983631,1,4.5893e-05,-1.77577e-05,-0.000108175,0.00917861,-0.00355154,-0.0216349,0.999525,0.00320049,0.030406,-0.00386065,0.521581,0.133162,-0.716599,33.0625,1,43607,4412435
42,1,0.999525,0.00320049,0.030406,-0.00386065,-0.165633,-0.028015,9.83632,0.0242398,-0.207384,0.79634,-0.00165988,-0.00028882,0.0983631,1,4.5893e-05,-1.77577e-05,-0.000108175,0.00917861,-0.00355154,-0.0216349,0.999525,0.00320049,0.030406,-0.00386065,0.521581,0.133162,-0.716599,33.0625,1,43607,4412435
42,2,0.999525,0.00320049,0.030406,-0.00386065,-0.165633,-0.028015,9.83632,0.0242398,-0.207384,0.79634,-0.00165988,-0.00028882,0.0983631,1,4.5893e-05,-1.77577e-05,-0.000108175,0.00917861,-0.00355154,-0.0216349,0.999525,0.00320049,0.030406,-0.00386065,0.521581,0.133162,-0.716599,33.0625,1,43607,4412435
42,3,0.999527,0.00322776,0.0303207,-0.00399103,-0.187705,-0.0397152,9.79261,-0.0795599,-0.245193,0.728024,-0.00188392,-0.00040777,0.0979259,1,5.65783e-05,-3.45775e-05,-0.000123274,0.0113157,-0.00691549,-0.0246547,0.999527,0.00322776,0.0303207,-0.00399103,0.521051,0.134647,-0.717573,33.0625,1,43608,4412535
42,4,0.999527,0.00322776,0.0303207,-0.00399103,-0.187705,-0.0397152,9.79261,-0.0795599,-0.245193,0.728024,-0.00188392,-0.00040777,0.0979259,1,5.65783e-05,-3.45775e-05,-0.000123274,0.0113157,-0.00691549,-0.0246547,0.999527,0.00322776,0.0303207,-0.00399103,0.521051,0.134647,-0.717573,33.0625,1,43608,4412535
42,5,0.999527,0.00322776,0.0303207,-0.00399103,-0.187705,-0.0397152,9.79261,-0.0795599,-0.245193,0.728024,-0.00188392,-0.00040777,0.0979259,1,5.65783e-05,-3.45775e-05,-0.000123274,0.0113157,-0.00691549,-0.0246547,0.999527,0.00322776,0.0303207,-0.00399103,0.521051,0.134647,-0.717573,33.0625,1,43608,4412535
42,6,0.999529,0.00324191,0.0302311,-0.00410414,-0.148437,-0.0899802,9.84111,-0.102698,-0.279531,0.755832,-0.00149186,-0.000907931,0.0984109,1,4.2921e-05,-3.70981e-05,-0.000107073,0.0085842,-0.00741962,-0.0214147,0.999529,0.00324191,0.0302311,-0.00410414,0.520159,0.137013,-0.712971,33.0625,1,43609,4412635
42,7,0.999529,0.00324191,0.0302311,-0.00410414,-0.148437,-0.0899802,9.84111,-0.102698,-0.279531,0.755832,-0.00149186,-0.000907931,0.0984109,1,4.2921e-05,-3.70981e-05,-0.000107073,0.0085842,-0.00741962,-0.0214147,0.999529,0.00324191,0.0302311,-0.00410414,0.520159,0.137013,-0.712971,33.0625,1,43609,4412635
42,8,0.999529,0.00324191,0.0302311,-0.00410414,-0.148437,-0.0899802,9.84111,-0.102698,-0.279531,0.755832,-0.00149186,-0.000907931,0.0984109,1,4.2921e-05,-3.70981e-05,-0.000107073,0.0085842,-0.00741962,-0.0214147,0.999529,0.00324191,0.0302311,-0.00410414,0.520159,0.137013,-0.712971,33.0625,1,43609,4412635
43,1,0.999531,0.00327532,0.0301462,-0.00422608,-0.125719,-0.154518,9.85838,-0.041155,-0.384565,0.789939,-0.00126359,-0.00155727,0.0985836,1,6.2789e-05,-3.06357e-05,-0.000116067,0.0125578,-0.00612715,-0.0232134,0.999531,0.00327532,0.0301462,-0.00422608,0.521705,0.135962,-0.709466,33.0625,1,43610,4412735
43,2,0.999531,0.00327532,0.0301462,-0.00422608,-0.125719,-0.154518,9.85838,-0.041155,-0.384565,0.789939,-0.00126359,-0.00155727,0.0985836,1,6.2789e-05,-3.06357e-05,-0.000116067,0.0125578,-0.00612715,-0.0232134,0.999531,0.00327532,0.0301462,-0.00422608,0.521705,0.135962,-0.709466,33.0625,1,43610,4412735
43,3,0.999531,0.00327532,0.0301462,-0.00422608,-0.125719,-0.154518,9.85838,-0.041155,-0.384565,0.789939,-0.00126359,-0.00155727,0.0985836,1,6.2789e-05,-3.06357e-05,-0.000116067,0.0125578,-0.00612715,-0.0232134,0.999531,0.00327532,0.0301462,-0.00422608,0.521705,0.135962,-0.709466,33.0625,1,43610,4412735
43,4,0.999533,0.00330782,0.0300816,-0.00434275,-0.233666,-0.120387,9.79664,-0.113986,-0.366834,0.755363,-0.00233837,-0.00121567,0.0979662,1,6.28383e-05,-7.35522e-06,-0.000110063,0.0125677,-0.00147104,-0.0220126,0.999533,0.00330782,0.0300816,-0.00434275,0.523604,0.133074,-0.712569,33.0625,1,43611,4412835
43,5,0.999533,0.00330782,0.0300816,-0.00434275,-0.233666,-0.120387,9.79664,-0.113986,-0.366834,0.755363,-0.00233837,-0.00121567,0.0979662,1,6.28383e-05,-7.35522e-06,-0.000110063,0.0125677,-0.00147104,-0.0220126,0.999533,0.00330782,0.0300816,-0.00434275,0.523604,0.133074,-0.712569,33.0625,1,43611,4412835
43,6,0.999533,0.00330782,0.0300816,-0.00434275,-0.233666,-0.120387,9.79664,-0.113986,-0.366834,0.755363,-0.00233837,-0.00121567,0.0979662,1,6.28383e-05,-7.35522e-06,-0.000110063,0.0125677,-0.00147104,-0.0220126,0.999533,0.00330782,0.0300816,-0.00434275,0.523604,0.133074,-0.712569,33.0625,1,43611,4412835
43,7,0.999534,0.00333347,0.0300035,-0.00447288,-0.24154,-0.0983853,9.77483,-0.121184,-0.339395,0.731244,-0.00241935,-0.000994564,0.097748,1,5.78521e-05,-1.89566e-05,-0.000123855,0.0115704,-0.00379133,-0.0247709,0.999534,0.00333347,0.0300035,-0.00447288,0.524916,0.135085,-0.716571,33.0625,1,43612,4412935
43,8,0.999534,0.00333347,0.0300035,-0.00447288,-0.24154,-0.0983853,9.77483,-0.121184,-0.339395,0.731244,-0.00241935,-0.000994564,0.097748,1,5.78521e-05,-1.89566e-05,-0.000123855,0.0115704,-0.00379133,-0.0247709,0.999534,0.00333347,0.0300035,-0.00447288,0.524916,0.135085,-0.716571,33.0625,1,43612,4412935
32,1,0.999534,0.00333347,0.0300035,-0.00447288,-0.24154,-0.0983853,9.77483,-0.121184,-0.339395,0.731244,-0.00241935,-0.000994564,0.097748,1,5.78521e-05,-1.89566e-05,-0.000123855,0.0115704,-0.00379133,-0.0247709,0.999534,0.00333347,0.0300035,-0.00447288,0.524916,0.135085,-0.716571,33.0625,1,43612,4412935
32,2,0.999536,0.00337542,0.0299314,-0.00459942,-0.0847291,-0.113036,9.84455,0.0944391,-0.372796,0.818356,-0.00084976,-0.00114488,0.0984453,1,7.47871e-05,-1.1161e-05,-0.000119081,0.0149574,-0.00223221,-0.0238162,0.999536,0.00337542,0.0299314,-0.00459942,0.524399,0.136561,-0.717041,33.0625,1,43613,4413035
32,3,0.999536,0.00337542,0.0299314,-0.00459942,-0.0847291,-0.113036,9.84455,0.0944391,-0.372796,0.818356,-0.00084976,-0.00114488,0.0984453,1,7.47871e-05,-1.1161e-05,-0.000119081,0.0149574,-0.00223221,-0.0238162,0.999536,0.00337542,0.0299314,-0.00459942,0.524399,0.136561,-0.717041,33.0625,1,43613,4413035
32,4,0.999536,0.00337542,0.0299314,-0.00459942,-0.0847291,-0.113036,9.84455,0.0944391,-0.372796,0.818356,-0.00084976,-0.00114488,0.0984453,1,7.47871e-05,-1.1161e-05,-0.000119081,0.0149574,-0.00223221,-0.0238162,0.999536,0.00337542,0.0299314,-0.00459942,0.524399,0.136561,-0.717041,33.0625,1,43613,4413035
32,5,0.999538,0.00342087,0.0298399,-0.00472524,-0.281133,-0.129067,9.71852,-0.0663563,-0.399451,0.723576,-0.00281696,-0.00130538,0.0971849,1,7.91006e-05,-2.73954e-05,-0.00011757,0.0158201,-0.00547908,-0.0235141,0.999538,0.00342087,0.0298399,-0.00472524,0.524436,0.136534,-0.715527,33.0625,1,43614,4413135
32,6,0.999538,0.00342087,0.0298399,-0.00472524,-0.281133,-0.129067,9.71852,-0.0663563,-0.399451,0.723576,-0.00281696,-0.00130538,0.0971849,1,7.91006e-05,-2.73954e-05,-0.00011757,0.0158201,-0.00547908,-0.0235141,0.999538,0.00342087,0.0298399,-0.00472524,0.524436,0.136534,-0.715527,33.0625,1,43614,4413135
32,7,0.999538,0.00342087,0.0298399,-0.00472524,-0.281133,-0.129067,9.71852,-0.0663563,-0.399451,0.723576,-0.00281696,-0.00130538,0.0971849,1,7.91006e-05,-2.73954e-05,-0.00011757,0.0158201,-0.00547908,-0.0235141,0.999538,0.00342087,0.0298399,-0.00472524,0.524436,0.136534,-0.715527,33.0625,1,43614,4413135
32,8,0.99954,0.003466,0.0297388,-0.00485175,-0.300103,-0.0640342,9.76027,-0.0920544,-0.327641,0.74598,-0.00300822,-0.000655175,0.0976024,1,7.96441e-05,-3.60259e-05,-0.000118793,0.0159288,-0.00720517,-0.0237586,0.99954,0.003466,0.0297388,-0.00485175,0.523091,0.136474,-0.711481,33.0625,1,43615,4413235
45,1,0.99954,0.003466,0.0297388,-0.00485175,-0.300103,-0.0640342,9.76027,-0.0920544,-0.327641,0.74598,-0.00300822,-0.000655175,0.0976024,1,7.96441e-05,-3.60259e-05,-0.000118793,0.0159288,-0.00720517,-0.0237586,0.99954,0.003466,0.0297388,-0.00485175,0.523091,0.136474,-0.711481,33.0625,1,43615,4413235
45,2,0.99954,0.003466,0.0297388,-0.00485175,-0.300103,-0.0640342,9.76027,-0.0920544,-0.327641,0.74598,-0.00300822,-0.000655175,0.0976024,1,7.96441e-05,-3.60259e-05,-0.000118793,0.0159288,-0.00720517,-0.0237586,0.99954,0.003466,0.0297388,-0.00485175,0.523091,0.136474,-0.711481,33.0625,1,43615,4413235
45,3,0.999542,0.00350978,0.0296338,-0.0049738,-0.0848454,-0.0502566,9.9194,0.175203,-0.307503,0.890869,-0.00085633,-0.00051801,0.0991938,1,7.8828e-05,-3.91134e-05,-0.000114503,0.0157656,-0.00782268,-0.0229007,0.999542,0.00350978,0.0296338,-0.0049738,0.521195,0.136951,-0.709947,33.0625,1,43616,4413335
45,4,0.999542,0.00350978,0.0296338,-0.0049738,-0.0848454,-0.0502566,9.9194,0.175203,-0.307503,0.890869,-0.00085633,-0.00051801,0.0991938,1,7.8828e-05,-3.91134e-05,-0.000114503,0.0157656,-0.00782268,-0.0229007,0.999542,0.00350978,0.0296338,-0.0049738,0.521195,0.136951,-0.709947,33.0625,1,43616,4413335
45,5,0.999542,0.00350978,0.0296338,-0.0049738,-0.0848454,-0.0502566,9.9194,0.175203,-0.307503,0.890869,-0.00085633,-0.00051801,0.0991938,1,7.8828e-05,-3.91134e-05,-0.000114503,0.0157656,-0.00782268,-0.0229007,0.999542,0.00350978,0.0296338,-0.0049738,0.521195,0.136951,-0.709947,33.0625,1,43616,4413335
45,6,0.999544,0.00354002,0.029556,-0.00510051,-0.458226,-0.0459794,9.71297,-0.0422078,-0.229787,0.775254,-0.00458426,-0.000471478,0.0971295,1,6.57795e-05,-9.72491e-06,-0.000119325,0.0131559,-0.00194498,-0.023865,0.999544,0.00354002,0.029556,-0.00510051,0.522585,0.136496,-0.712489,33.0625,1,43617,4413435
45,7,0.999544,0.00354002,0.029556,-0.00510051,-0.458226,-0.0459794,9.71297,-0.0422078,-0.229787,0.775254,-0.00458426,-0.000471478,0.0971295,1,6.57795e-05,-9.72491e-06,-0.000119325,0.0131559,-0.00194498,-0.023865,0.999544,0.00354002,0.029556,-0.00510051,0.522585,0.136496,-0.712489,33.0625,1,43617,4413435
45,8,0.999544,0.00354002,0.029556,-0.00510051,-0.458226,-0.0459794,9.71297,-0.0422078,-0.229787,0.775254,-0.00458426,-0.000471478,0.0971295,1,6.57795e-05,-9.72491e-06,-0.000119325,0.0131559,-0.00194498,-0.023865,0.999544,0.00354002,0.029556,-0.00510051,0.522585,0.136496,-0.712489,33.0625,1,43617,4413435
34,1,0.999548,0.00358354,0.029396,-0.00523119,-0.406618,-0.0305285,9.66327,-0.202145,-0.191244,0.616997,-0.00408392,-0.000319732,0.0966319,1,7.99131e-05,-9.13951e-05,-0.00012243,0.0159826,-0.018279,-0.0244859,0.999548,0.00358354,0.029396,-0.00523119,0.524472,0.135062,-0.715055,33.0625,1,43618,4413535
34,2,0.999548,0.00358354,0.029396,-0.00523119,-0.406618,-0.0305285,9.66327,-0.202145,-0.191244,0.616997,-0.00408392,-0.000319732,0.0966319,1,7.99131e-05,-9.13951e-05,-0.00012243,0.0159826,-0.018279,-0.0244859,0.999548,0.00358354,0.029396,-0.00523119,0.524472,0.135062,-0.715055,33.0625,1,43618,4413535
34,3,0.999548,0.00358354,0.029396,-0.00523119,-0.406618,-0.0305285,9.66327,-0.202145,-0.191244,0.616997,-0.00408392,-0.000319732,0.0966319,1,7.99131e-05,-9.13951e-05,-0.00012243,0.0159826,-0.018279,-0.0244859,0.999548,0.00358354,0.029396,-0.00523119,0.524472,0.135062,-0.715055,33.0625,1,43618,4413535
34,4,0.99955,0.00361486,0.0292782,-0.00535009,0.274489,-0.083661,10.0408,0.35666,-0.233959,0.88362,0.00273494,-0.000850755,0.100409,1,6.7411e-05,-4.85906e-05,-0.000110998,0.0134822,-0.00971813,-0.0221996,0.99955,0.00361486,0.0292782,-0.00535009,0.526894,0.134066,-0.715088,33.0625,1,43619,4413635
34,5,0.99955,0.00361486,0.0292782,-0.00535009,0.274489,-0.083661,10.0408,0.35666,-0.233959,0.88362,0.00273494,-0.000850755,0.100409,1,6.7411e-05,-4.85906e-05,-0.000110998,0.0134822,-0.00971813,-0.0221996,0.99955,0.00361486,0.0292782,-0.00535009,0.526894,0.134066,-0.715088,33.0625,1,43619,4413635
34,6,0.99955,0.00361486,0.0292782,-0.00535009,0.274489,-0.083661,10.0408,0.35666,-0.233959,0.88362,0.00273494,-0.000850755,0.100409,1,6.7411e-05,-4.85906e-05,-0.000110998,0.0134822,-0.00971813,-0.0221996,0.99955,0.00361486,0.0292782,-0.00535009,0.526894,0.134066,-0.715088,33.0625,1,43619,4413635
34,7,0.999552,0.00366011,0.0292025,-0.0054764,-0.251445,-0.060885,9.90115,-0.406415,-0.194336,0.789513,-0.00251486,-0.000624481,0.0990114,1,8.19212e-05,-1.29258e-06,-0.0001177,0.0163842,-0.000258516,-0.02354,0.999552,0.00366011,0.0292025,-0.0054764,0.526397,0.135046,-0.715064,33.0625,1,43620,4413735
34,8,0.999552,0.00366011,0.0292025,-0.0054764,-0.251445,-0.060885,9.90115,-0.406415,-0.194336,0.789513,-0.00251486,-0.000624481,0.0990114,1,8.19212e-05,-1.29258e-06,-0.0001177,0.0163842,-0.000258516,-0.02354,0.999552,0.00366011,0.0292025,-0.0054764,0.526397,0.135046,-0.715064,33.0625,1,43620,4413735
35,1,0.999552,0.00366011,0.0292025,-0.0054764,-0.251445,-0.060885,9.90115,-0.406415,-0.194336,0.789513,-0.00251486,-0.000624481,0.0990114,1,8.19212e-05,-1.29258e-06,-0.0001177,0.0163842,-0.000258516,-0.02354,0.999552,0.00366011,0.0292025,-0.0054764,0.526397,0.135046,-0.715064,33.0625,1,43620,4413735
35,2,0.999553,0.00370484,0.0291179,-0.00561605,-0.00951237,-0.0576812,9.82697,-0.288861,-0.229523,0.709529,-9.69917e-05,-0.000592955,0.0982696,1,8.22624e-05,-8.72694e-06,-0.000130594,0.0164525,-0.00174539,-0.0261189,0.999553,0.00370484,0.0291179,-0.00561605,0.525487,0.134051,-0.713566,33.0625,1,43621,4413835
35,3,0.999553,0.00370484,0.0291179,-0.00561605,-0.00951237,-0.0576812,9.82697,-0.288861,-0.229523,0.709529,-9.69917e-05,-0.000592955,0.0982696,1,8.22624e-05,-8.72694e-06,-0.000130594,0.0164525,-0.00174539,-0.0261189,0.999553,0.00370484,0.0291179,-0.00561605,0.525487,0.134051,-0.713566,33.0625,1,43621,4413835
35,4,0.999553,0.00370484,0.0291179,-0.00561605,-0.00951237,-0.0576812,9.82697,-0.288861,-0.229523,0.709529,-9.69917e-05,-0.000592955,0.0982696,1,8.22624e-05,-8.72694e-06,-0.000130594,0.0164525,-0.00174539,-0.0261189,0.999553,0.00370484,0.0291179,-0.00561605,0.525487,0.134051,-0.713566,33.0625,1,43621,4413835
35,5,0.999554,0.00373639,0.0290697,-0.00575074,-0.31056,-0.0853095,9.77104,-0.059174,-0.329983,0.746826,-0.00309982,-0.000865838,0.0977105,1,6.92228e-05,3.06821e-05,-0.000126373,0.0138446,0.00613641,-0.0252746,0.999554,0.00373639,0.0290697,-0.00575074,0.52362,0.132098,-0.712591,33.0625,1,43622,4413935
35,6,0.999554,0.00373639,0.0290697,-0.00575074,-0.31056,-0.0853095,9.77104,-0.059174,-0.329983,0.746826,-0.00309982,-0.000865838,0.0977105,1,6.92228e-05,3.06821e-05,-0.000126373,0.0138446,0.00613641,-0.0252746,0.999554,0.00373639,0.0290697,-0.00575074,0.52362,0.132098,-0.712591,33.0625,1,43622,4413935
36,1,0.999554,0.00373639,0.0290697,-0.00575074,-0.31056,-0.0853095,9.77104,-0.059174,-0.329983,0.746826,-0.00309982,-0.000865838,0.0977105,1,6.92228e-05,3.06821e-05,-0.000126373,0.0138446,0.00613641,-0.0252746,0.999554,0.00373639,0.0290697,-0.00575074,0.52362,0.132098,-0.712591,33.0625,1,43622,4413935
36,2,0.999557,0.00377066,0.0289218,-0.00589657,-0.692409,-0.135215,9.77391,-0.297371,-0.423529,0.804611,-0.00693794,-0.0013646,0.097738,1,7.34726e-05,-6.89268e-05,-0.000138235,0.0146945,-0.0137854,-0.027647,0.999557,0.00377066,0.0289218,-0.00589657,0.524509,0.13359,-0.714582,33.0625,1,43623,4414035
36,3,0.999557,0.00377066,0.0289218,-0.00589657,-0.692409,-0.135215,9.77391,-0.297371,-0.423529,0.804611,-0.00693794,-0.0013646,0.097738,1,7.34726e-05,-6.89268e-05,-0.000138235,0.0146945,-0.0137854,-0.027647,0.999557,0.00377066,0.0289218,-0.00589657,0.524509,0.13359,-0.714582,33.0625,1,43623,4414035
36,4,0.999557,0.00377066,0.0289218,-0.00589657,-0.692409,-0.135215,9.77391,-0.297371,-0.423529,0.804611,-0.00693794,-0.0013646,0.097738,1,7.34726e-05,-6.89268e-05,-0.000138235,0.0146945,-0.0137854,-0.027647,0.999557,0.00377066,0.0289218,-0.00589657,0.524509,0.13359,-0.714582,33.0625,1,43623,4414035
36,5,0.99956,0.00379857,0.0287841,-0.0060355,0.133519,0.0287298,9.98341,0.359532,-0.253346,0.929574,0.00132319,0.000273411,0.0998343,1,6.78155e-05,-6.04934e-05,-0.000130531,0.0135631,-0.0120987,-0.0261062,0.99956,0.00379857,0.0287841,-0.0060355,0.526815,0.132196,-0.719675,33.0625,1,43624,4414135
36,6,0.99956,0.00379857,0.0287841,-0.0060355,0.133519,0.0287298,9.98341,0.359532,-0.253346,0.929574,0.00132319,0.000273411,0.0998343,1,6.78155e-05,-6.04934e-05,-0.000130531,0.0135631,-0.0120987,-0.0261062,0.99956,0.00379857,0.0287841,-0.0060355,0.526815,0.132196,-0.719675,33.0625,1,43624,4414135
37,1,0.99956,0.00379857,0.0287841,-0.0060355,0.133519,0.0287298,9.98341,0.359532,-0.253346,0.929574,0.00132319,0.000273411,0.0998343,1,6.78155e-05,-6.04934e-05,-0.000130531,0.0135631,-0.0120987,-0.0261062,0.99956,0.00379857,0.0287841,-0.0060355,0.526815,0.132196,-0.719675,33.0625,1,43624,4414135
37,2,0.999562,0.0038115,0.0287073,-0.00618271,-0.24591,-0.0926214,9.83261,-0.173782,-0.285639,0.801988,-0.00245853,-0.00093587,0.098326,1,5.25785e-05,4.18161e-06,-0.000139077,0.0105157,0.000836321,-0.0278155,0.999562,0.0038115,0.0287073,-0.00618271,0.527333,0.13072,-0.719205,33.0625,1,43625,4414235
37,3,0.999562,0.0038115,0.0287073,-0.00618271,-0.24591,-0.0926214,9.83261,-0.173782,-0.285639,0.801988,-0.00245853,-0.00093587,0.098326,1,5.25785e-05,4.18161e-06,-0.000139077,0.0105157,0.000836321,-0.0278155,0.999562,0.0038115,0.0287073,-0.00618271,0.527333,0.13072,-0.719205,33.0625,1,43625,4414235
37,4,0.999562,0.0038115,0.0287073,-0.00618271,-0.24591,-0.0926214,9.83261,-0.173782,-0.285639,0.801988,-0.00245853,-0.00093587,0.098326,1,5.25785e-05,4.18161e-06,-0.000139077,0.0105157,0.000836321,-0.0278155,0.999562,0.0038115,0.0287073,-0.00618271,0.527333,0.13072,-0.719205,33.0625,1,43625,4414235
37,5,0.999564,0.00384905,0.0285894,-0.00633635,-0.253891,-0.177028,9.88928,-0.198716,-0.314446,0.822924,-0.00254648,-0.00178504,0.0988923,1,7.83755e-05,-3.56863e-05,-0.000144882,0.0156751,-0.00713725,-0.0289765,0.999564,0.00384905,0.0285894,-0.00633635,0.527753,0.133652,-0.719647,33.0625,1,43626,4414335
37,6,0.999564,0.00384905,0.0285894,-0.00633635,-0.253891,-0.177028,9.88928,-0.198716,-0.314446,0.822924,-0.00254648,-0.00178504,0.0988923,1,7.83755e-05,-3.56863e-05,-0.000144882,0.0156751,-0.00713725,-0.0289765,0.999564,0.00384905,0.0285894,-0.00633635,0.527753,0.133652,-0.719647,33.0625,1,43626,4414335
37,7,0.999564,0.00384905,0.0285894,-0.00633635,-0.253891,-0.177028,9.88928,-0.198716,-0.314446,0.822924,-0.00254648,-0.00178504,0.0988923,1,7.83755e-05,-3.56863e-05,-0.000144882,0.0156751,-0.00713725,-0.0289765,0.999564,0.00384905,0.0285894,-0.00633635,0.527753,0.133652,-0.719647,33.0625,1,43626,4414335
37,8,0.999565,0.00391936,0.0284932,-0.00648982,0.00602624,-0.0384853,10.0508,0.184512,-0.178889,1.0068,5.7697e-05,-0.000407396,0.100508,1,0.00011206,-1.21966e-05,-0.000143486,0.0224121,-0.00243932,-0.0286973,0.999565,0.00391936,0.0284932,-0.00648982,0.527815,0.133607,-0.717122,33.0625,1,43627,4414435
50,1,0.999565,0.00391936,0.0284932,-0.00648982,0.00602624,-0.0384853,10.0508,0.184512,-0.178889,1.0068,5.7697e-05,-0.000407396,0.100508,1,0.00011206,-1.21966e-05,-0.000143486,0.0224121,-0.00243932,-0.0286973,0.999565,0.00391936,0.0284932,-0.00648982,0.527815,0.133607,-0.717122,33.0625,1,43627,4414435
50,2,0.999565,0.00391936,0.0284932,-0.00648982,0.00602624,-0.0384853,10.0508,0.184512,-0.178889,1.0068,5.7697e-05,-0.000407396,0.100508,1,0.00011206,-1.21966e-05,-0.000143486,0.0224121,-0.00243932,-0.0286973,0.999565,0.00391936,0.0284932,-0.00648982,0.527815,0.133607,-0.717122,33.0625,1,43627,4414435
50,3,0.999566,0.00397157,0.028411,-0.00664481,-0.391862,0.0397819,9.74887,-0.396557,-0.187559,0.703186,-0.00391765,0.000380602,0.0974888,1,9.41469e-05,4.36667e-06,-0.000145376,0.0188294,0.000873333,-0.0290752,0.999566,0.00397157,0.028411,-0.00664481,0.526042,0.132548,-0.711582,33.0625,1,43628,4414535
50,4,0.999566,0.00397157,0.028411,-0.00664481,-0.391862,0.0397819,9.74887,-0.396557,-0.187559,0.703186,-0.00391765,0.000380602,0.0974888,1,9.41469e-05,4.36667e-06,-0.000145376,0.0188294,0.000873333,-0.0290752,0.999566,0.00397157,0.028411,-0.00664481,0.526042,0.132548,-0.711582,33.0625,1,43628,4414535
50,5,0.999566,0.00397157,0.028411,-0.00664481,-0.391862,0.0397819,9.74887,-0.396557,-0.187559,0.703186,-0.00391765,0.000380602,0.0974888,1,9.41469e-05,4.36667e-06,-0.000145376,0.0188294,0.000873333,-0.0290752,0.999566,0.00397157,0.028411,-0.00664481,0.526042,0.132548,-0.711582,33.0625,1,43628,4414535
50,6,0.999568,0.0039816,0.0283064,-0.00680273,-0.188364,0.0859693,9.76994,-0.0504393,-0.190349,0.713999,-0.00188706,0.000850115,0.0976995,1,5.19202e-05,-1.88097e-05,-0.000150339,0.010384,-0.00376193,-0.0300677,0.999568,0.0039816,0.0283064,-0.00680273,0.526527,0.131577,-0.712111,33.0625,1,43629,4414635
50,7,0.999568,0.0039816,0.0283064,-0.00680273,-0.188364,0.0859693,9.76994,-0.0504393,-0.190349,0.713999,-0.00188706,0.000850115,0.0976995,1,5.19202e-05,-1.88097e-05,-0.000150339,0.010384,-0.00376193,-0.0300677,0.999568,0.0039816,0.0283064,-0.00680273,0.526527,0.131577,-0.712111,33.0625,1,43629,4414635
50,8,0.999568,0.0039816,0.0283064,-0.00680273,-0.188364,0.0859693,9.76994,-0.0504393,-0.190349,0.713999,-0.00188706,0.000850115,0.0976995,1,5.19202e-05,-1.88097e-05,-0.000150339,0.010384,-0.00376193,-0.0300677,0.999568,0.0039816,0.0283064,-0.00680273,0.526527,0.131577,-0.712111,33.0625,1,43629,4414635
50,9,0.99957,0.00397446,0.0282098,-0.00694057,-0.0392845,-0.0446067,9.83296,0.0140591,-0.308065,0.782803,-0.000394758,-0.000452545,0.0983295,1,3.34617e-05,-9.1308e-06,-0.000130138,0.00669233,-0.00182616,-0.0260276,0.99957,0.00397446,0.0282098,-0.00694057,0.527888,0.130662,-0.716178,33.0625,1,43630,4414735
50,10,0.99957,0.00397446,0.0282098,-0.00694057,-0.0392845,-0.0446067,9.83296,0.0140591,-0.308065,0.782803,-0.000394758,-0.000452545,0.0983295,1,3.34617e-05,-9.1308e-06,-0.000130138,0.00669233,-0.00182616,-0.0260276,0.99957,0.00397446,0.0282098,-0.00694057,0.527888,0.130662,-0.716178,33.0625,1,43630,4414735
50,11,0.99957,0.00397446,0.0282098,-0.00694057,-0.0392845,-0.0446067,9.83296,0.0140591,-0.308065,0.782803,-0.000394758,-0.000452545,0.0983295,1,3.34617e-05,-9.1308e-06,-0.000130138,0.00669233,-0.00182616,-0.0260276,0.99957,0.00397446,0.0282098,-0.00694057,0.527888,0.130662,-0.716178,33.0625,1,43630,4414735
50,12,0.999571,0.00397997,0.0281419,-0.00708746,-0.349342,-0.156609,9.72248,-0.123094,-0.371717,0.707544,-0.00348953,-0.00157414,0.0972248,1,4.63906e-05,2.22764e-05,-0.000139742,0.00927812,0.00445528,-0.0279484,0.999571,0.00397997,0.0281419,-0.00708746,0.529767,0.131161,-0.717691,33.0625,1,43631,4414835
51,1,0.999571,0.00397997,0.0281419,-0.00708746,-0.349342,-0.156609,9.72248,-0.123094,-0.371717,0.707544,-0.00348953,-0.00157414,0.0972248,1,4.63906e-05,2.22764e-05,-0.000139742,0.00927812,0.00445528,-0.0279484,0.999571,0.00397997,0.0281419,-0.00708746,0.529767,0.131161,-0.717691,33.0625,1,43631,4414835
51,2,0.999571,0.00397997,0.0281419,-0.00708746,-0.349342,-0.156609,9.72248,-0.123094,-0.371717,0.707544,-0.00348953,-0.00157414,0.0972248,1,4.63906e-05,2.22764e-05,-0.000139742,0.00927812,0.00445528,-0.0279484,0.999571,0.00397997,0.0281419,-0.00708746,0.529767,0.131161,-0.717691,33.0625,1,43631,4414835
51,3,0.999574,0.00400535,0.0280071,-0.00724267,-0.253068,-0.155036,9.66216,-0.232153,-0.319797,0.598839,-0.00253987,-0.0015628,0.0966211,1,6.82368e-05,-4.51883e-05,-0.000146939,0.0136474,-0.00903767,-0.0293877,0.999574,0.00400535,0.0280071,-0.00724267,0.528751,0.130726,-0.720221,33.0625,1,43632,4414935
51,4,0.999574,0.00400535,0.0280071,-0.00724267,-0.253068,-0.155036,9.66216,-0.232153,-0.319797,0.598839,-0.00253987,-0.0015628,0.0966211,1,6.82368e-05,-4.51883e-05,-0.000146939,0.0136474,-0.00903767,-0.0293877,0.999574,0.00400535,0.0280071,-0.00724267,0.528751,0.130726,-0.720221,33.0625,1,43632,4414935
51,5,0.999574,0.00400535,0.0280071,-0.00724267,-0.253068,-0.155036,9.66216,-0.232153,-0.319797,0.598839,-0.00253987,-0.0015628,0.0966211,1,6.82368e-05,-4.51883e-05,-0.000146939,0.0136474,-0.00903767,-0.0293877,0.999574,0.00400535,0.0280071,-0.00724267,0.528751,0.130726,-0.720221,33.0625,1,43632,4414935
51,6,0.999574,0.00404317,0.0279444,-0.00740305,0.00731039,-0.0437438,9.81059,0.173128,-0.24702,0.754076,7.84867e-05,-0.000453357,0.0981059,1,8.10135e-05,2.81268e-05,-0.000152582,0.0162027,0.00562535,-0.0305163,0.999574,0.00404317,0.0279444,-0.00740305,0.527924,0.12919,-0.715706,33.0625,1,43633,4415035
51,7,0.999574,0.00404317,0.0279444,-0.00740305,0.00731039,-0.0437438,9.81059,0.173128,-0.24702,0.754076,7.84867e-05,-0.000453357,0.0981059,1,8.10135e-05,2.81268e-05,-0.000152582,0.0162027,0.00562535,-0.0305163,0.999574,0.00404317,0.0279444,-0.00740305,0.527924,0.12919,-0.715706,33.0625,1,43633,4415035
51,8,0.999574,0.00404317,0.0279444,-0.00740305,0.00731039,-0.0437438,9.81059,0.173128,-0.24702,0.754076,7.84867e-05,-0.000453357,0.0981059,1,8.10135e-05,2.81268e-05,-0.000152582,0.0162027,0.00562535,-0.0305163,0.999574,0.00404317,0.0279444,-0.00740305,0.527924,0.12919,-0.715706,33.0625,1,43633,4415035
40,1,0.999576,0.00407498,0.0278039,-0.0075767,-0.360838,-0.0215509,9.92355,-0.204826,-0.220058,0.881694,-0.00361778,-0.000229501,0.0992352,1,7.64721e-05,-4.69801e-05,-0.000164176,0.0152944,-0.00939603,-0.0328351,0.999576,0.00407498,0.0278039,-0.0075767,0.527074,0.130562,-0.710116,33.0625,1,43634,4415135
40,2,0.999576,0.00407498,0.0278039,-0.0075767,-0.360838,-0.0215509,9.92355,-0.204826,-0.220058,0.881694,-0.00361778,-0.000229501,0.0992352,1,7.64721e-05,-4.69801e-05,-0.000164176,0.0152944,-0.00939603,-0.0328351,0.999576,0.00407498,0.0278039,-0.0075767,0.527074,0.130562,-0.710116,33.0625,1,43634,4415135
40,3,0.999576,0.00407498,0.0278039,-0.0075767,-0.360838,-0.0215509,9.92355,-0.204826,-0.220058,0.881694,-0.00361778,-0.000229501,0.0992352,1,7.64721e-05,-4.69801e-05,-0.000164176,0.0152944,-0.00939603,-0.0328351,0.999576,0.00407498,0.0278039,-0.0075767,0.527074,0.130562,-0.710116,33.0625,1,43634,4415135
40,4,0.999578,0.00407374,0.0277135,-0.0077475,-0.126479,0.0898644,9.80588,-0.128854,-0.108852,0.764595,-0.00126396,0.000890643,0.0980588,1,4.28894e-05,2.74487e-06,-0.000162531,0.00857788,0.000548975,-0.0325062,0.999578,0.00407374,0.0277135,-0.0077475,0.527966,0.129641,-0.713676,33.0625,1,43635,4415235
40,5,0.999578,0.00407374,0.0277135,-0.0077475,-0.126479,0.0898644,9.80588,-0.128854,-0.108852,0.764595,-0.00126396,0.000890643,0.0980588,1,4.28894e-05,2.74487e-06,-0.000162531,0.00857788,0.000548975,-0.0325062,0.999578,0.00407374,0.0277135,-0.0077475,0.527966,0.129641,-0.713676,33.0625,1,43635,4415235
40,6,0.999578,0.00407374,0.0277135,-0.0077475,-0.126479,0.0898644,9.80588,-0.128854,-0.108852,0.764595,-0.00126396,0.000890643,0.0980588,1,4.28894e-05,2.74487e-06,-0.000162531,0.00857788,0.000548975,-0.0325062,0.999578,0.00407374,0.0277135,-0.0077475,0.527966,0.129641,-0.713676,33.0625,1,43635,4415235
40,7,0.99958,0.00407731,0.0275788,-0.00791435,-0.342264,-0.0692988,9.81683,-0.15605,-0.259421,0.758647,-0.00343068,-0.000701151,0.098168,1,4.71216e-05,-3.98505e-05,-0.000158878,0.00942432,-0.0079701,-0.0317756,0.99958,0.00407731,0.0275788,-0.00791435,0.52977,0.127304,-0.720302,33.0625,1,43636,4415335
40,8,0.99958,0.00407731,0.0275788,-0.00791435,-0.342264,-0.0692988,9.81683,-0.15605,-0.259421,0.758647,-0.00343068,-0.000701151,0.098168,1,4.71216e-05,-3.98505e-05,-0.000158878,0.00942432,-0.0079701,-0.0317756,0.99958,0.00407731,0.0275788,-0.00791435,0.52977,0.127304,-0.720302,33.0625,1,43636,4415335
41,1,0.99958,0.00407731,0.0275788,-0.00791435,-0.342264,-0.0692988,9.81683,-0.15605,-0.259421,0.758647,-0.00343068,-0.000701151,0.098168,1,4.71216e-05,-3.98505e-05,-0.000158878,0.00942432,-0.0079701,-0.0317756,0.99958,0.00407731,0.0275788,-0.00791435,0.52977,0.127304,-0.720302,33.0625,1,43636,4415335
41,2,0.999582,0.0040846,0.0274758,-0.00806956,-0.0236912,-0.18799,9.81772,-0.0194236,-0.408054,0.764291,-0.000239062,-0.0018898,0.098177,1,5.07589e-05,-8.13207e-06,-0.00014687,0.0101518,-0.00162641,-0.029374,0.999582,0.0040846,0.0274758,-0.00806956,0.532134,0.126832,-0.722344,33.0625,1,43637,4415435
41,3,0.999582,0.0040846,0.0274758,-0.00806956,-0.0236912,-0.18799,9.81772,-0.0194236,-0.408054,0.764291,-0.000239062,-0.0018898,0.098177,1,5.07589e-05,-8.13207e-06,-0.00014687,0.0101518,-0.00162641,-0.029374,0.999582,0.0040846,0.0274758,-0.00806956,0.532134,0.126832,-0.722344,33.0625,1,43637,4415435
41,4,0.999582,0.0040846,0.0274758,-0.00806956,-0.0236912,-0.18799,9.81772,-0.0194236,-0.408054,0.764291,-0.000239062,-0.0018898,0.098177,1,5.07589e-05,-8.13207e-06,-0.00014687,0.0101518,-0.00162641,-0.029374,0.999582,0.0040846,0.0274758,-0.00806956,0.532134,0.126832,-0.722344,33.0625,1,43637,4415435
41,5,0.999584,0.00410542,0.0273493,-0.0082378,-0.412733,-0.169339,9.77811,-0.307828,-0.41631,0.732688,-0.00413366,-0.00170502,0.0977807,1,6.61841e-05,-2.95994e-05,-0.000159534,0.0132368,-0.00591988,-0.0319068,0.999584,0.00410542,0.0273493,-0.0082378,0.53216,0.128259,-0.720292,33.0625,1,43638,4415535
41,6,0.999584,0.00410542,0.0273493,-0.0082378,-0.412733,-0.169339,9.77811,-0.307828,-0.41631,0.732688,-0.00413366,-0.00170502,0.0977807,1,6.61841e-05,-2.95994e-05,-0.000159534,0.0132368,-0.00591988,-0.0319068,0.999584,0.00410542,0.0273493,-0.0082378,0.53216,0.128259,-0.720292,33.0625,1,43638,4415535
41,7,0.999584,0.00410542,0.0273493,-0.0082378,-0.412733,-0.169339,9.77811,-0.307828,-0.41631,0.732688,-0.00413366,-0.00170502,0.0977807,1,6.61841e-05,-2.95994e-05,-0.000159534,0.0132368,-0.00591988,-0.0319068,0.999584,0.00410542,0.0273493,-0.0082378,0.53216,0.128259,-0.720292,33.0625,1,43638,4415535
41,8,0.999585,0.00410893,0.0272308,-0.00840983,0.00473619,-0.0354592,9.80932,0.0506213,-0.216962,0.75278,4.28548e-05,-0.000364412,0.0980932,1,4.99788e-05,-2.23734e-05,-0.000163885,0.00999577,-0.00447469,-0.032777,0.999585,0.00410893,0.0272308,-0.00840983,0.532674,0.129195,-0.718253,33.0625,1,43639,4415635
54,1,0.999585,0.00410893,0.0272308,-0.00840983,0.00473619,-0.0354592,9.80932,0.0506213,-0.216962,0.75278,4.28548e-05,-0.000364412,0.0980932,1,4.99788e-05,-2.23734e-05,-0.000163885,0.00999577,-0.00447469,-0.032777,0.999585,0.00410893,0.0272308,-0.00840983,0.532674,0.129195,-0.718253,33.0625,1,43639,4415635
54,2,0.999585,0.00410893,0.0272308,-0.00840983,0.00473619,-0.0354592,9.80932,0.0506213,-0.216962,0.75278,4.28548e-05,-0.000364412,0.0980932,1,4.99788e-05,-2.23734e-05,-0.000163885,0.00999577,-0.00447469,-0.032777,0.999585,0.00410893,0.0272308,-0.00840983,0.532674,0.129195,-0.718253,33.0625,1,43639,4415635
54,3,0.999587,0.00413557,0.027119,-0.00857409,-0.313893,0.106447,9.77639,-0.218814,-0.0977471,0.715722,-0.00314109,0.00105121,0.0977639,1,7.28056e-05,-1.27044e-05,-0.000155064,0.0145611,-0.00254089,-0.0310129,0.999587,0.00413557,0.027119,-0.00857409,0.530803,0.129653,-0.715709,33.0625,1,43640,4415735
54,4,0.999587,0.00413557,0.027119,-0.00857409,-0.313893,0.106447,9.77639,-0.218814,-0.0977471,0.715722,-0.00314109,0.00105121,0.0977639,1,7.28056e-05,-1.27044e-05,-0.000155064,0.0145611,-0.00254089,-0.0310129,0.999587,0.00413557,0.027119,-0.00857409,0.530803,0.129653,-0.715709,33.0625,1,43640,4415735
54,5,0.999587,0.00413557,0.027119,-0.00857409,-0.313893,0.106447,9.77639,-0.218814,-0.0977471,0.715722,-0.00314109,0.00105121,0.0977639,1,7.28056e-05,-1.27044e-05,-0.000155064,0.0145611,-0.00254089,-0.0310129,0.999587,0.00413557,0.027119,-0.00857409,0.530803,0.129653,-0.715709,33.0625,1,43640,4415735
54,6,0.999588,0.00416196,0.0270002,-0.00875454,-0.36068,0.0718566,9.79947,-0.321166,-0.141614,0.758777,-0.00361049,0.000705638,0.0979947,1,7.22638e-05,-2.00708e-05,-0.000171108,0.0144528,-0.00401416,-0.0342217,0.999588,0.00416196,0.0270002,-0.00875454,0.530876,0.126709,-0.714765,33.0625,1,43641,4415835
54,7,0.999588,0.00416196,0.0270002,-0.00875454,-0.36068,0.0718566,9.79947,-0.321166,-0.141614,0.758777,-0.00361049,0.000705638,0.0979947,1,7.22638e-05,-2.00708e-05,-0.000171108,0.0144528,-0.00401416,-0.0342217,0.999588,0.00416196,0.0270002,-0.00875454,0.530876,0.126709,-0.714765,33.0625,1,43641,4415835
54,8,0.999588,0.00416196,0.0270002,-0.00875454,-0.36068,0.0718566,9.79947,-0.321166,-0.141614,0.758777,-0.00361049,0.000705638,0.0979947,1,7.22638e-05,-2.00708e-05,-0.000171108,0.0144528,-0.00401416,-0.0342217,0.999588,0.00416196,0.0270002,-0.00875454,0.530876,0.126709,-0.714765,33.0625,1,43641,4415835
43,1,0.99959,0.00413785,0.0268707,-0.00893863,-0.218258,0.0870122,9.79865,-0.1697,-0.0992828,0.7685,-0.00218849,0.000866722,0.0979863,1,2.12876e-05,-3.17427e-05,-0.000176582,0.00425752,-0.00634854,-0.0353165,0.99959,0.00413785,0.0268707,-0.00893863,0.534651,0.125286,-0.718854,33.0625,1,43642,4415935
43,2,0.99959,0.00413785,0.0268707,-0.00893863,-0.218258,0.0870122,9.79865,-0.1697,-0.0992828,0.7685,-0.00218849,0.000866722,0.0979863,1,2.12876e-05,-3.17427e-05,-0.000176582,0.00425752,-0.00634854,-0.0353165,0.99959,0.00413785,0.0268707,-0.00893863,0.534651,0.125286,-0.718854,33.0625,1,43642,4415935
43,3,0.99959,0.00413785,0.0268707,-0.00893863,-0.218258,0.0870122,9.79865,-0.1697,-0.0992828,0.7685,-0.00218849,0.000866722,0.0979863,1,2.12876e-05,-3.17427e-05,-0.000176582,0.00425752,-0.00634854,-0.0353165,0.99959,0.00413785,0.0268707,-0.00893863,0.534651,0.125286,-0.718854,33.0625,1,43642,4415935
43,4,0.999592,0.00413709,0.0267597,-0.00913969,-0.328811,-0.0454109,9.67104,-0.192899,-0.244314,0.617587,-0.00329069,-0.00046136,0.0967103,1,4.4043e-05,-1.24022e-05,-0.000192676,0.00880859,-0.00248044,-0.0385351,0.999592,0.00413709,0.0267597,-0.00913969,0.536982,0.12532,-0.721895,33.0625,1,43643,4416035
43,5,0.999592,0.00413709,0.0267597,-0.00913969,-0.328811,-0.0454109,9.67104,-0.192899,-0.244314,0.617587,-0.00329069,-0.00046136,0.0967103,1,4.4043e-05,-1.24022e-05,-0.000192676,0.00880859,-0.00248044,-0.0385351,0.999592,0.00413709,0.0267597,-0.00913969,0.536982,0.12532,-0.721895,33.0625,1,43643,4416035
43,6,0.999592,0.00413709,0.0267597,-0.00913969,-0.328811,-0.0454109,9.67104,-0.192899,-0.244314,0.617587,-0.00329069,-0.00046136,0.0967103,1,4.4043e-05,-1.24022e-05,-0.000192676,0.00880859,-0.00248044,-0.0385351,0.999592,0.00413709,0.0267597,-0.00913969,0.536982,0.12532,-0.721895,33.0625,1,43643,4416035
43,7,0.999594,0.00412442,0.0266218,-0.0093184,-0.254214,-0.351555,9.67845,-0.255841,-0.558084,0.653416,-0.0025511,-0.00352088,0.0967841,1,3.20585e-05,-4.00694e-05,-0.000171422,0.00641169,-0.00801389,-0.0342844,0.999594,0.00412442,0.0266218,-0.0093184,0.535567,0.124347,-0.721405,33.0625,1,43644,4416135
43,8,0.999594,0.00412442,0.0266218,-0.0093184,-0.254214,-0.351555,9.67845,-0.255841,-0.558084,0.653416,-0.0025511,-0.00352088,0.0967841,1,3.20585e-05,-4.00694e-05,-0.000171422,0.00641169,-0.00801389,-0.0342844,0.999594,0.00412442,0.0266218,-0.0093184,0.535567,0.124347,-0.721405,33.0625,1,43644,4416135
44,1,0.999594,0.00412442,0.0266218,-0.0093184,-0.254214,-0.351555,9.67845,-0.255841,-0.558084,0.653416,-0.0025511,-0.00352088,0.0967841,1,3.20585e-05,-4.00694e-05,-0.000171422,0.00641169,-0.00801389,-0.0342844,0.999594,0.00412442,0.0266218,-0.0093184,0.535567,0.124347,-0.721405,33.0625,1,43644,4416135
44,2,0.999596,0.00412852,0.0264723,-0.0095021,-0.203295,-0.224674,9.79827,-0.125089,-0.441385,0.759194,-0.00204368,-0.0022561,0.0979822,1,5.14156e-05,-5.07768e-05,-0.000174332,0.0102831,-0.0101554,-0.0348664,0.999596,0.00412852,0.0264723,-0.0095021,0.534667,0.125755,-0.717834,33.0625,1,43645,4416235
44,3,0.999596,0.00412852,0.0264723,-0.0095021,-0.203295,-0.224674,9.79827,-0.125089,-0.441385,0.759194,-0.00204368,-0.0022561,0.0979822,1,5.14156e-05,-5.07768e-05,-0.000174332,0.0102831,-0.0101554,-0.0348664,0.999596,0.00412852,0.0264723,-0.0095021,0.534667,0.125755,-0.717834,33.0625,1,43645,4416235
44,4,0.999596,0.00412852,0.0264723,-0.0095021,-0.203295,-0.224674,9.79827,-0.125089,-0.441385,0.759194,-0.00204368,-0.0022561,0.0979822,1,5.14156e-05,-5.07768e-05,-0.000174332,0.0102831,-0.0101554,-0.0348664,0.999596,0.00412852,0.0264723,-0.0095021,0.534667,0.125755,-0.717834,33.0625,1,43645,4416235
44,5,0.999598,0.00415174,0.0263321,-0.00966685,-0.213023,-0.205293,9.89212,-0.119384,-0.396336,0.803157,-0.00213896,-0.0020664,0.0989207,1,7.14317e-05,-4.08675e-05,-0.000154874,0.0142863,-0.00817351,-0.0309749,0.999598,0.00415174,0.0263321,-0.00966685,0.533742,0.125736,-0.716315,33.0625,1,43646,4416335
44,6,0.999598,0.00415174,0.0263321,-0.00966685,-0.213023,-0.205293,9.89212,-0.119384,-0.396336,0.803157,-0.00213896,-0.0020664,0.0989207,1,7.14317e-05,-4.08675e-05,-0.000154874,0.0142863,-0.00817351,-0.0309749,0.999598,0.00415174,0.0263321,-0.00966685,0.533742,0.125736,-0.716315,33.0625,1,43646,4416335
45,1,0.999598,0.00415174,0.0263321,-0.00966685,-0.213023,-0.205293,9.89212,-0.119384,-0.396336,0.803157,-0.00213896,-0.0020664,0.0989207,1,7.14317e-05,-4.08675e-05,-0.000154874,0.0142863,-0.00817351,-0.0309749,0.999598,0.00415174,0.0263321,-0.00966685,0.533742,0.125736,-0.716315,33.0625,1,43646,4416335
45,2,0.999599,0.00419276,0.0262186,-0.00982716,-0.156659,-0.183262,10.0174,-0.101502,-0.392123,0.974938,-0.00156978,-0.00185019,0.100174,1,9.00303e-05,-1.31677e-05,-0.000149937,0.0180061,-0.00263354,-0.0299873,0.999599,0.00419276,0.0262186,-0.00982716,0.534275,0.121839,-0.716909,33.0625,1,43647,4416435
45,3,0.999599,0.00419276,0.0262186,-0.00982716,-0.156659,-0.183262,10.0174,-0.101502,-0.392123,0.974938,-0.00156978,-0.00185019,0.100174,1,9.00303e-05,-1.31677e-05,-0.000149937,0.0180061,-0.00263354,-0.0299873,0.999599,0.00419276,0.0262186,-0.00982716,0.534275,0.121839,-0.716909,33.0625,1,43647,4416435
45,4,0.999599,0.00419276,0.0262186,-0.00982716,-0.156659,-0.183262,10.0174,-0.101502,-0.392123,0.974938,-0.00156978,-0.00185019,0.100174,1,9.00303e-05,-1.31677e-05,-0.000149937,0.0180061,-0.00263354,-0.0299873,0.999599,0.00419276,0.0262186,-0.00982716,0.534275,0.121839,-0.716909,33.0625,1,43647,4416435
45,5,0.999602,0.00419623,0.0260616,-0.00997818,-0.499783,-0.0427318,9.7496,-0.529277,-0.220478,0.744161,-0.00500895,-0.000436413,0.0974953,1,5.38589e-05,-5.64084e-05,-0.000140651,0.0107718,-0.0112817,-0.0281301,0.999602,0.00419623,0.0260616,-0.00997818,0.537051,0.121896,-0.721466,33.0625,1,43648,4416535
45,6,0.999602,0.00419623,0.0260616,-0.00997818,-0.499783,-0.0427318,9.7496,-0.529277,-0.220478,0.744161,-0.00500895,-0.000436413,0.0974953,1,5.38589e-05,-5.64084e-05,-0.000140651,0.0107718,-0.0112817,-0.0281301,0.999602,0.00419623,0.0260616,-0.00997818,0.537051,0.121896,-0.721466,33.0625,1,43648,4416535
45,7,0.999602,0.00419623,0.0260616,-0.00997818,-0.499783,-0.0427318,9.7496,-0.529277,-0.220478,0.744161,-0.00500895,-0.000436413,0.0974953,1,5.38589e-05,-5.64084e-05,-0.000140651,0.0107718,-0.0112817,-0.0281301,0.999602,0.00419623,0.0260616,-0.00997818,0.537051,0.121896,-0.721466,33.0625,1,43648,4416535
45,8,0.999604,0.0042066,0.0259065,-0.0101304,-0.327857,-0.0302815,9.737,-0.277158,-0.285321,0.704076,-0.00328965,-0.000313715,0.0973696,1,6.07779e-05,-5.63997e-05,-0.000142438,0.0121556,-0.0112799,-0.0284876,0.999604,0.0042066,0.0259065,-0.0101304,0.540337,0.12241,-0.7245,33.0625,1,43649,4416635
46,1,0.999604,0.0042066,0.0259065,-0.0101304,-0.327857,-0.0302815,9.737,-0.277158,-0.285321,0.704076,-0.00328965,-0.000313715,0.0973696,1,6.07779e-05,-5.63997e-05,-0.000142438,0.0121556,-0.0112799,-0.0284876,0.999604,0.0042066,0.0259065,-0.0101304,0.540337,0.12241,-0.7245,33.0625,1,43649,4416635
46,2,0.999604,0.0042066,0.0259065,-0.0101304,-0.327857,-0.0302815,9.737,-0.277158,-0.285321,0.704076,-0.00328965,-0.000313715,0.0973696,1,6.07779e-05,-5.63997e-05,-0.000142438,0.0121556,-0.0112799,-0.0284876,0.999604,0.0042066,0.0259065,-0.0101304,0.540337,0.12241,-0.7245,33.0625,1,43649,4416635
46,3,0.999607,0.00420858,0.0257521,-0.0102704,-0.0765496,0.000378711,9.75861,-0.0222312,-0.211889,0.711039,-0.000776444,-6.16918e-06,0.097586,1,5.20465e-05,-5.60901e-05,-0.000130824,0.0104093,-0.011218,-0.0261647,0.999607,0.00420858,0.0257521,-0.0102704,0.539338,0.12389,-0.724968,33.0625,1,43650,4416735
46,4,0.999607,0.00420858,0.0257521,-0.0102704,-0.0765496,0.000378711,9.75861,-0.0222312,-0.211889,0.711039,-0.000776444,-6.16918e-06,0.097586,1,5.20465e-05,-5.60901e-05,-0.000130824,0.0104093,-0.011218,-0.0261647,0.999607,0.00420858,0.0257521,-0.0102704,0.539338,0.12389,-0.724968,33.0625,1,43650,4416735
46,5,0.999607,0.00420858,0.0257521,-0.0102704,-0.0765496,0.000378711,9.75861,-0.0222312,-0.211889,0.711039,-0.000776444,-6.16918e-06,0.097586,1,5.20465e-05,-5.60901e-05,-0.000130824,0.0104093,-0.011218,-0.0261647,0.999607,0.00420858,0.0257521,-0.0102704,0.539338,0.12389,-0.724968,33.0625,1,43650,4416735
46,6,0.999609,0.0042213,0.0255892,-0.0104223,-0.120748,-0.177389,9.82457,-0.119398,-0.38533,0.751228,-0.00122031,-0.00178587,0.0982453,1,6.26969e-05,-6.27443e-05,-0.000141873,0.0125394,-0.0125489,-0.0283747,0.999609,0.0042213,0.0255892,-0.0104223,0.537051,0.121896,-0.721466,33.0625,1,43651,4416835
46,7,0.999609,0.0042213,0.0255892,-0.0104223,-0.120748,-0.177389,9.82457,-0.119398,-0.38533,0.751228,-0.00122031,-0.00178587,0.0982453,1,6.26969e-05,-6.27443e-05,-0.000141873,0.0125394,-0.0125489,-0.0283747,0.999609,0.0042213,0.0255892,-0.0104223,0.537051,0.121896,-0.721466,33.0625,1,43651,4416835
46,8,0.999609,0.0042213,0.0255892,-0.0104223,-0.120748,-0.177389,9.82457,-0.119398,-0.38533,0.751228,-0.00122031,-0.00178587,0.0982453,1,6.26969e-05,-6.27443e-05,-0.000141873,0.0125394,-0.0125489,-0.0283747,0.999609,0.0042213,0.0255892,-0.0104223,0.537051,0.121896,-0.721466,33.0625,1,43651,4416835
46,9,0.999611,0.00426834,0.0254667,-0.0105523,-0.14919,-0.134788,9.99169,-0.0585847,-0.342335,0.963267,-0.00149645,-0.00136693,0.0999166,1,9.71309e-05,-2.11753e-05,-0.000118962,0.0194262,-0.00423507,-0.0237924,0.999611,0.00426834,0.0254667,-0.0105523,0.536714,0.121313,-0.715922,33.0625,1,43652,4416935
46,10,0.999611,0.00426834,0.0254667,-0.0105523,-0.14919,-0.134788,9.99169,-0.0585847,-0.342335,0.963267,-0.00149645,-0.00136693,0.0999166,1,9.71309e-05,-2.11753e-05,-0.000118962,0.0194262,-0.00423507,-0.0237924,0.999611,0.00426834,0.0254667,-0.0105523,0.536714,0.121313,-0.715922,33.0625,1,43652,4416935
47,1,0.999611,0.00426834,0.0254667,-0.0105523,-0.14919,-0.134788,9.99169,-0.0585847,-0.342335,0.963267,-0.00149645,-0.00136693,0.0999166,1,9.71309e-05,-2.11753e-05,-0.000118962,0.0194262,-0.00423507,-0.0237924,0.999611,0.00426834,0.0254667,-0.0105523,0.536714,0.121313,-0.715922,33.0625,1,43652,4416935
47,2,0.999613,0.0042818,0.0253425,-0.0106729,-0.450669,0.116622,9.88121,-0.4083,-0.0258474,0.799181,-0.00451089,0.00115454,0.098812,1,6.41085e-05,-2.25608e-05,-0.000110263,0.0128217,-0.00451216,-0.0220527,0.999613,0.0042818,0.0253425,-0.0106729,0.537651,0.119878,-0.717978,33.0625,1,43653,4417035
47,3,0.999613,0.0042818,0.0253425,-0.0106729,-0.450669,0.116622,9.88121,-0.4083,-0.0258474,0.799181,-0.00451089,0.00115454,0.098812,1,6.41085e-05,-2.25608e-05,-0.000110263,0.0128217,-0.00451216,-0.0220527,0.999613,0.0042818,0.0253425,-0.0106729,0.537651,0.119878,-0.717978,33.0625,1,43653,4417035
47,4,0.999613,0.0042818,0.0253425,-0.0106729,-0.450669,0.116622,9.88121,-0.4083,-0.0258474,0.799181,-0.00451089,0.00115454,0.098812,1,6.41085e-05,-2.25608e-05,-0.000110263,0.0128217,-0.00451216,-0.0220527,0.999613,0.0042818,0.0253425,-0.0106729,0.537651,0.119878,-0.717978,33.0625,1,43653,4417035
47,5,0.999615,0.00428705,0.0251888,-0.0107777,-0.33411,-0.00272663,10.1271,-0.294338,-0.202536,1.07851,-0.00335193,-3.76892e-05,0.10127,1,5.45927e-05,-5.34496e-05,-9.47781e-05,0.0109185,-0.0106899,-0.0189556,0.999615,0.00428705,0.0251888,-0.0107777,0.538978,0.118023,-0.724086,33.0625,1,43654,4417135
47,6,0.999615,0.00428705,0.0251888,-0.0107777,-0.33411,-0.00272663,10.1271,-0.294338,-0.202536,1.07851,-0.00335193,-3.76892e-05,0.10127,1,5.45927e-05,-5.34496e-05,-9.47781e-05,0.0109185,-0.0106899,-0.0189556,0.999615,0.00428705,0.0251888,-0.0107777,0.538978,0.118023,-0.724086,33.0625,1,43654,4417135
47,7,0.999615,0.00428705,0.0251888,-0.0107777,-0.33411,-0.00272663,10.1271,-0.294338,-0.202536,1.07851,-0.00335193,-3.76892e-05,0.10127,1,5.45927e-05,-5.34496e-05,-9.47781e-05,0.0109185,-0.0106899,-0.0189556,0.999615,0.00428705,0.0251888,-0.0107777,0.538978,0.118023,-0.724086,33.0625,1,43654,4417135
47,8,0.999617,0.00428676,0.025077,-0.0108743,-0.303316,0.222402,9.90079,-0.212272,-0.0623391,0.953399,-0.00303517,0.00221501,0.0990081,1,4.81334e-05,-1.20699e-05,-8.66947e-05,0.00962668,-0.00241399,-0.0173389,0.999617,0.00428676,0.025077,-0.0108743,0.541343,0.117551,-0.726128,33.0625,1,43655,4417235
48,1,0.999617,0.00428676,0.025077,-0.0108743,-0.303316,0.222402,9.90079,-0.212272,-0.0623391,0.953399,-0.00303517,0.00221501,0.0990081,1,4.81334e-05,-1.20699e-05,-8.66947e-05,0.00962668,-0.00241399,-0.0173389,0.999617,0.00428676,0.025077,-0.0108743,0.541343,0.117551,-0.726128,33.0625,1,43655,4417235
48,2,0.999617,0.00428676,0.025077,-0.0108743,-0.303316,0.222402,9.90079,-0.212272,-0.0623391,0.953399,-0.00303517,0.00221501,0.0990081,1,4.81334e-05,-1.20699e-05,-8.66947e-05,0.00962668,-0.00241399,-0.0173389,0.999617,0.00428676,0.025077,-0.0108743,0.541343,0.117551,-0.726128,33.0625,1,43655,4417235
48,3,0.999619,0.00425862,0.0249617,-0.0109644,-0.385632,-0.0241612,9.68721,-0.449775,-0.264067,0.693052,-0.00385956,-0.000244523,0.096872,1,1.82689e-05,-1.65479e-05,-8.14137e-05,0.00365378,-0.00330959,-0.0162827,0.999619,0.00425862,0.0249617,-0.0109644,0.540377,0.118526,-0.725597,33.0625,1,43656,4417335
48,4,0.999619,0.00425862,0.0249617,-0.0109644,-0.385632,-0.0241612,9.68721,-0.449775,-0.264067,0.693052,-0.00385956,-0.000244523,0.096872,1,1.82689e-05,-1.65479e-05,-8.14137e-05,0.00365378,-0.00330959,-0.0162827,0.999619,0.00425862,0.0249617,-0.0109644,0.540377,0.118526,-0.725597,33.0625,1,43656,4417335
48,5,0.999619,0.00425862,0.0249617,-0.0109644,-0.385632,-0.0241612,9.68721,-0.449775,-0.264067,0.693052,-0.00385956,-0.000244523,0.096872,1,1.82689e-05,-1.65479e-05,-8.14137e-05,0.00365378,-0.00330959,-0.0162827,0.999619,0.00425862,0.0249617,-0.0109644,0.540377,0.118526,-0.725597,33.0625,1,43656,4417335
48,6,0.999621,0.00424817,0.0248628,-0.0110295,-0.213123,-0.167576,9.8022,-0.163606,-0.345867,0.718569,-0.00213165,-0.00168238,0.0980219,1,3.49921e-05,-1.16968e-06,-5.66053e-05,0.00699842,-0.000233936,-0.0113211,0.999621,0.00424817,0.0248628,-0.0110295,0.53802,0.11851,-0.723566,33.0625,1,43657,4417435
