frame_id,imu_idx,accel_x,accel_y,accel_z,free_accel_x,free_accel_y,free_accel_z,delta_v_x,delta_v_y,delta_v_z,delta_q_w,delta_q_x,delta_q_y,delta_q_z,rate_x,rate_y,rate_z,quat_w,quat_x,quat_y,quat_z,mag_x,mag_y,mag_z,temperature,status_byte,packet_counter,time_fine
1,1,-0.503067,-0.0475737,7.35086,-0.0219135,-0.746146,0.694722,-0.00503155,-0.000480282,0.0735085,1,3.08454e-05,-6.01637e-06,1.05804e-06,0.00616908,-0.00120327,0.000211607,0,0,0,0,0.0629288,0.523906,-0.964892,36.0625,3,897,132395
1,2,-0.509258,-0.046755,7.33531,-0.0219135,-0.746146,0.694722,-0.00509469,-0.000472492,0.0733529,1,3.29166e-05,-1.44522e-05,1.10513e-05,0.00658333,-0.00289044,0.00221026,0,0,0,0,0.0596919,0.521911,-0.960881,36.0625,1,898,133914
2,1,-0.509258,-0.046755,7.33531,-0.0219135,-0.746146,0.694722,-0.00509469,-0.000472492,0.0733529,1,3.29166e-05,-1.44522e-05,1.10513e-05,0.00658333,-0.00289044,0.00221026,0,0,0,0,0.0596919,0.521911,-0.960881,36.0625,1,898,133914
2,2,-0.674,-0.0691439,9.78665,0.0796106,-0.517057,0.963866,-0.00674031,-0.000702224,0.0978664,1,5.50318e-05,-1.59481e-06,1.0301e-06,0.0110064,-0.000318963,0.000206019,0,0,0,0,0.0616126,0.522861,-0.960364,36.0625,1,899,134014
3,1,-0.674,-0.0691439,9.78665,0.0796106,-0.517057,0.963866,-0.00674031,-0.000702224,0.0978664,1,5.50318e-05,-1.59481e-06,1.0301e-06,0.0110064,-0.000318963,0.000206019,0,0,0,0,0.0616126,0.522861,-0.960364,36.0625,1,899,134014
3,2,-0.664043,-0.064805,9.79409,0.0900518,-0.512888,0.970205,-0.00664275,-0.000658377,0.0979406,1,5.14965e-05,-1.19862e-05,1.80714e-05,0.0102993,-0.00239724,0.00361428,0,0,0,0,0.0620116,0.523399,-0.963384,36.0625,1,900,134114
3,3,-0.664043,-0.064805,9.79409,0.0900518,-0.512888,0.970205,-0.00664275,-0.000658377,0.0979406,1,5.14965e-05,-1.19862e-05,1.80714e-05,0.0102993,-0.00239724,0.00361428,0,0,0,0,0.0620116,0.523399,-0.963384,36.0625,1,900,134114
3,4,-0.667385,-0.0665924,9.79138,0.0817855,-0.517296,0.968486,-0.00667629,-0.000675025,0.0979136,1,4.54579e-05,-1.25728e-05,1.49607e-05,0.00909158,-0.00251457,0.00299213,0,0,0,0,0.0610157,0.521022,-0.966463,36.0625,1,901,134214
3,5,-0.667385,-0.0665924,9.79138,0.0817855,-0.517296,0.968486,-0.00667629,-0.000675025,0.0979136,1,4.54579e-05,-1.25728e-05,1.49607e-05,0.00909158,-0.00251457,0.00299213,0,0,0,0,0.0610157,0.521022,-0.966463,36.0625,1,901,134214
3,6,-0.67457,-0.0624525,9.78434,0.0743093,-0.51829,0.964393,-0.0067492,-0.000634417,0.0978431,1,4.92818e-05,-1.80008e-05,1.84438e-05,0.00985637,-0.00360016,0.00368876,0,0,0,0,0.0605142,0.521523,-0.966954,36.0625,1,902,134314
4,1,-0.67457,-0.0624525,9.78434,0.0743093,-0.51829,0.964393,-0.0067492,-0.000634417,0.0978431,1,4.92818e-05,-1.80008e-05,1.84438e-05,0.00985637,-0.00360016,0.00368876,0,0,0,0,0.0605142,0.521523,-0.966954,36.0625,1,902,134314
4,2,-0.679879,-0.0576999,9.79323,0.0732992,-0.506448,0.974402,-0.00679841,-0.000588037,0.0979322,1,5.57527e-05,1.86024e-06,8.65769e-06,0.0111506,0.000372047,0.00173154,0,0,0,0,0.0610897,0.520968,-0.963434,36.0625,1,903,134414
5,1,-0.679879,-0.0576999,9.79323,0.0732992,-0.506448,0.974402,-0.00679841,-0.000588037,0.0979322,1,5.57527e-05,1.86024e-06,8.65769e-06,0.0111506,0.000372047,0.00173154,0,0,0,0,0.0610897,0.520968,-0.963434,36.0625,1,903,134414
5,2,-0.674289,-0.0677614,9.787,0.082002,-0.520269,0.968503,-0.00674381,-0.000684272,0.0978699,1,3.3306e-05,-4.77402e-06,1.03208e-05,0.0066612,-0.000954804,0.00206417,0,0,0,0,0.0611761,0.520905,-0.9599,36.0625,1,904,134514
6,1,-0.674289,-0.0677614,9.787,0.082002,-0.520269,0.968503,-0.00674381,-0.000684272,0.0978699,1,3.3306e-05,-4.77402e-06,1.03208e-05,0.0066612,-0.000954804,0.00206417,0,0,0,0,0.0611761,0.520905,-0.9599,36.0625,1,904,134514
6,2,-0.67126,-0.0619068,9.79313,0.0814681,-0.513576,0.972252,-0.00671379,-0.000626933,0.0979312,1,4.00711e-05,-6.06666e-06,1.19958e-06,0.00801422,-0.00121333,0.000239916,0,0,0,0,0.0635371,0.522845,-0.960373,36.0625,1,905,134614
6,3,-0.67126,-0.0619068,9.79313,0.0814681,-0.513576,0.972252,-0.00671379,-0.000626933,0.0979312,1,4.00711e-05,-6.06666e-06,1.19958e-06,0.00801422,-0.00121333,0.000239916,0,0,0,0,0.0635371,0.522845,-0.960373,36.0625,1,905,134614
6,4,-0.665206,-0.0577108,9.79008,0.0839893,-0.513499,0.969782,-0.00665274,-0.00058461,0.0979007,1,3.7007e-05,-3.57974e-06,1.923e-05,0.0074014,-0.000715948,0.003846,0,0,0,0,0.0639114,0.523401,-0.964403,36.0625,1,906,134714
6,5,-0.665206,-0.0577108,9.79008,0.0839893,-0.513499,0.969782,-0.00665274,-0.00058461,0.0979007,1,3.7007e-05,-3.57974e-06,1.923e-05,0.0074014,-0.000715948,0.003846,0,0,0,0,0.0639114,0.523401,-0.964403,36.0625,1,906,134714
6,6,-0.676698,-0.0741106,9.78086,0.0728034,-0.532458,0.960843,-0.00676807,-0.000748939,0.0978085,1,3.95942e-05,-5.6083e-06,6.44862e-06,0.00791885,-0.00112166,0.00128972,0,0,0,0,0.0619371,0.522008,-0.967455,36.0625,1,907,134814
7,1,-0.676698,-0.0741106,9.78086,0.0728034,-0.532458,0.960843,-0.00676807,-0.000748939,0.0978085,1,3.95942e-05,-5.6083e-06,6.44862e-06,0.00791885,-0.00112166,0.00128972,0,0,0,0,0.0619371,0.522008,-0.967455,36.0625,1,907,134814
7,2,-0.664545,-0.0725234,9.79912,0.083073,-0.526357,0.977206,-0.00664806,-0.000731817,0.0979909,1,3.27621e-05,-1.34501e-05,1.22281e-05,0.00655243,-0.00269003,0.00244563,0,0,0,0,0.0605303,0.520548,-0.966976,36.0625,1,908,134914
8,1,-0.664545,-0.0725234,9.79912,0.083073,-0.526357,0.977206,-0.00664806,-0.000731817,0.0979909,1,3.27621e-05,-1.34501e-05,1.22281e-05,0.00655243,-0.00269003,0.00244563,0,0,0,0,0.0605303,0.520548,-0.966976,36.0625,1,908,134914
8,2,-0.670876,-0.060164,9.78807,0.0824476,-0.514043,0.971675,-0.00671064,-0.000608006,0.0978805,1,3.17786e-05,-9.65592e-06,1.07809e-05,0.00635573,-0.00193118,0.00215617,0,0,0,0,0.060629,0.520476,-0.962938,36.0625,1,909,135014
8,3,-0.670876,-0.060164,9.78807,0.0824476,-0.514043,0.971675,-0.00671064,-0.000608006,0.0978805,1,3.17786e-05,-9.65592e-06,1.07809e-05,0.00635573,-0.00193118,0.00215617,0,0,0,0,0.060629,0.520476,-0.962938,36.0625,1,909,135014
8,4,-0.668324,-0.0710466,9.79203,0.0830497,-0.526669,0.971062,-0.00668625,-0.000719386,0.09792,1,4.44745e-05,-1.54971e-05,1.5769e-05,0.00889489,-0.00309942,0.00315379,0,0,0,0,0.061633,0.522364,-0.95987,36.0625,1,910,135114
8,5,-0.668324,-0.0710466,9.79203,0.0830497,-0.526669,0.971062,-0.00668625,-0.000719386,0.09792,1,4.44745e-05,-1.54971e-05,1.5769e-05,0.00889489,-0.00309942,0.00315379,0,0,0,0,0.061633,0.522364,-0.95987,36.0625,1,910,135114
8,6,-0.673996,-0.0609413,9.79724,0.0720776,-0.525451,0.977162,-0.00673911,-0.000615979,0.0979724,1,3.17917e-05,4.13345e-06,2.495e-05,0.00635833,0.00082669,0.00498999,0,0,0,0,0.0630355,0.523346,-0.960865,36.0625,1,911,135214
9,1,-0.673996,-0.0609413,9.79724,0.0720776,-0.525451,0.977162,-0.00673911,-0.000615979,0.0979724,1,3.17917e-05,4.13345e-06,2.495e-05,0.00635833,0.00082669,0.00498999,0,0,0,0,0.0630355,0.523346,-0.960865,36.0625,1,911,135214
9,2,-0.682119,-0.067058,9.78402,0.0684752,-0.526957,0.960846,-0.0068221,-0.000676802,0.0978401,1,2.99812e-05,-4.79244e-06,2.60472e-05,0.00599624,-0.000958488,0.00520944,0,0,0,0,0.0628714,0.52443,-0.966901,36.0625,1,912,135314
9,3,-0.682119,-0.067058,9.78402,0.0684752,-0.526957,0.960846,-0.0068221,-0.000676802,0.0978401,1,2.99812e-05,-4.79244e-06,2.60472e-05,0.00599624,-0.000958488,0.00520944,0,0,0,0,0.0628714,0.52443,-0.966901,36.0625,1,912,135314
9,4,-0.676236,-0.0686375,9.79651,0.0728512,-0.531142,0.974035,-0.0067648,-0.000696247,0.0979648,1,4.95538e-05,-1.25277e-05,1.20087e-05,0.00991076,-0.00250553,0.00240174,0,0,0,0,0.0628382,0.52349,-0.968942,36.0625,1,913,135414
9,5,-0.676236,-0.0686375,9.79651,0.0728512,-0.531142,0.974035,-0.0067648,-0.000696247,0.0979648,1,4.95538e-05,-1.25277e-05,1.20087e-05,0.00991076,-0.00250553,0.00240174,0,0,0,0,0.0628382,0.52349,-0.968942,36.0625,1,913,135414
9,6,-0.667526,-0.0600721,9.79381,0.0765232,-0.530921,0.983814,-0.00667616,-0.000609286,0.097938,1,4.29321e-05,-4.64728e-06,1.16769e-05,0.00858642,-0.000929456,0.00233539,0,0,0,0,0.0619575,0.521511,-0.966961,36.0625,1,914,135514
10,1,-0.667526,-0.0600721,9.79381,0.0765232,-0.530921,0.983814,-0.00667616,-0.000609286,0.097938,1,4.29321e-05,-4.64728e-06,1.16769e-05,0.00858642,-0.000929456,0.00233539,0,0,0,0,0.0619575,0.521511,-0.966961,36.0625,1,914,135514
10,2,-0.675081,-0.0702995,9.79005,0.0743093,-0.534553,0.971988,-0.00675509,-0.000713533,0.0979001,1,5.31897e-05,-2.18898e-05,9.15468e-06,0.0106379,-0.00437796,0.00183094,0,0,0,0,0.058725,0.519995,-0.962434,36.0625,1,915,135614
11,1,-0.675081,-0.0702995,9.79005,0.0743093,-0.534553,0.971988,-0.00675509,-0.000713533,0.0979001,1,5.31897e-05,-2.18898e-05,9.15468e-06,0.0106379,-0.00437796,0.00183094,0,0,0,0,0.058725,0.519995,-0.962434,36.0625,1,915,135614
11,2,-0.666272,-0.0667549,9.78562,0.0840073,-0.531286,0.968008,-0.00666641,-0.000678027,0.0978559,1,5.20763e-05,-1.90357e-05,2.14535e-05,0.0104153,-0.00380714,0.0042907,0,0,0,0,0.0606992,0.521388,-0.959382,36.0625,1,916,135714
11,3,-0.666272,-0.0667549,9.78562,0.0840073,-0.531286,0.968008,-0.00666641,-0.000678027,0.0978559,1,5.20763e-05,-1.90357e-05,2.14535e-05,0.0104153,-0.00380714,0.0042907,0,0,0,0,0.0606992,0.521388,-0.959382,36.0625,1,916,135714
11,4,-0.665413,-0.0559715,9.79214,0.0841173,-0.520667,0.967258,-0.0066561,-0.000570078,0.0979212,1,5.16532e-05,-1.02014e-05,1.85684e-05,0.0103306,-0.00204028,0.00371367,0,0,0,0,0.0640386,0.522345,-0.959881,36.0625,1,917,135814
11,5,-0.665413,-0.0559715,9.79214,0.0841173,-0.520667,0.967258,-0.0066561,-0.000570078,0.0979212,1,5.16532e-05,-1.02014e-05,1.85684e-05,0.0103306,-0.00204028,0.00371367,0,0,0,0,0.0640386,0.522345,-0.959881,36.0625,1,917,135814
11,6,-0.675279,-0.0655,9.78127,0.0704261,-0.529246,0.956594,-0.00675631,-0.000664653,0.0978124,1,4.79686e-05,-1.81686e-05,1.9934e-05,0.00959371,-0.00363372,0.00398679,0,0,0,0,0.0644291,0.521925,-0.963933,36.0625,1,918,135914
11,7,-0.675279,-0.0655,9.78127,0.0704261,-0.529246,0.956594,-0.00675631,-0.000664653,0.0978124,1,4.79686e-05,-1.81686e-05,1.9934e-05,0.00959371,-0.00363372,0.00398679,0,0,0,0,0.0644291,0.521925,-0.963933,36.0625,1,918,135914
11,8,-0.678359,-0.0621792,9.79285,0.0679981,-0.528533,0.969296,-0.00678474,-0.00063202,0.0979283,1,5.16438e-05,-5.93968e-06,8.37243e-06,0.0103288,-0.00118794,0.00167449,0,0,0,0,0.0629729,0.520501,-0.965473,36.0625,1,919,136014
12,1,-0.678359,-0.0621792,9.79285,0.0679981,-0.528533,0.969296,-0.00678474,-0.00063202,0.0979283,1,5.16438e-05,-5.93968e-06,8.37243e-06,0.0103288,-0.00118794,0.00167449,0,0,0,0,0.0629729,0.520501,-0.965473,36.0625,1,919,136014
12,2,-0.662786,-0.0543975,9.78331,0.0845629,-0.528606,0.962141,-0.00663096,-0.000554156,0.0978329,1,5.08427e-05,-1.59536e-05,1.75425e-05,0.0101685,-0.00319073,0.0035085,0,0,0,0,0.0605631,0.520042,-0.965977,36.0625,1,920,136114
10,1,-0.662786,-0.0543975,9.78331,0.0845629,-0.528606,0.962141,-0.00663096,-0.000554156,0.0978329,1,5.08427e-05,-1.59536e-05,1.75425e-05,0.0101685,-0.00319073,0.0035085,0,0,0,0,0.0605631,0.520042,-0.965977,36.0625,1,920,136114
10,2,-0.682626,-0.0699739,9.79484,0.0656162,-0.541281,0.975287,-0.00683018,-0.000706365,0.0979481,1,3.31662e-05,-2.00832e-05,9.47348e-06,0.00663323,-0.00401663,0.0018947,0,0,0,0,0.0620638,0.519506,-0.963976,36.0625,1,921,136214
14,1,-0.682626,-0.0699739,9.79484,0.0656162,-0.541281,0.975287,-0.00683018,-0.000706365,0.0979481,1,3.31662e-05,-2.00832e-05,9.47348e-06,0.00663323,-0.00401663,0.0018947,0,0,0,0,0.0620638,0.519506,-0.963976,36.0625,1,921,136214
14,2,-0.669126,-0.0646605,9.79785,0.0762552,-0.536858,0.978694,-0.00669313,-0.000654165,0.0979783,1,3.72138e-05,-9.65405e-06,2.00104e-05,0.00744276,-0.00193081,0.00400208,0,0,0,0,0.062097,0.520446,-0.961935,36.0625,1,922,136314
15,1,-0.669126,-0.0646605,9.79785,0.0762552,-0.536858,0.978694,-0.00669313,-0.000654165,0.0979783,1,3.72138e-05,-9.65405e-06,2.00104e-05,0.00744276,-0.00193081,0.00400208,0,0,0,0,0.062097,0.520446,-0.961935,36.0625,1,922,136314
15,2,-0.673203,-0.0748603,9.79236,0.0693188,-0.541138,0.971738,-0.00673268,-0.000756156,0.0979235,1,3.7238e-05,-3.49814e-06,1.93156e-05,0.0074476,-0.000699628,0.00386313,0,0,0,0,0.0630512,0.520925,-0.961929,36.0625,1,923,136414
16,1,-0.673203,-0.0748603,9.79236,0.0693188,-0.541138,0.971738,-0.00673268,-0.000756156,0.0979235,1,3.7238e-05,-3.49814e-06,1.93156e-05,0.0074476,-0.000699628,0.00386313,0,0,0,0,0.0630512,0.520925,-0.961929,36.0625,1,923,136414
16,2,-0.671788,-0.0675457,9.79412,0.072881,-0.538459,0.96893,-0.00672062,-0.000685176,0.0979409,1,4.79986e-05,-1.41407e-05,2.35496e-05,0.00959972,-0.00282815,0.00470991,0,0,0,0,0.064404,0.520498,-0.965985,36.0625,1,924,136514
17,1,-0.671788,-0.0675457,9.79412,0.072881,-0.538459,0.96893,-0.00672062,-0.000685176,0.0979409,1,4.79986e-05,-1.41407e-05,2.35496e-05,0.00959972,-0.00282815,0.00470991,0,0,0,0,0.064404,0.520498,-0.965985,36.0625,1,924,136514
17,2,-0.670383,-0.0532562,9.78438,0.0778885,-0.528855,0.959638,-0.00670458,-0.000540312,0.0978437,1,3.8322e-05,-3.96742e-06,1.86526e-05,0.00766441,-0.000793485,0.00373051,0,0,0,0,0.0639062,0.520032,-0.967003,36.0625,1,925,136614
18,1,-0.670383,-0.0532562,9.78438,0.0778885,-0.528855,0.959638,-0.00670458,-0.000540312,0.0978437,1,3.8322e-05,-3.96742e-06,1.86526e-05,0.00766441,-0.000793485,0.00373051,0,0,0,0,0.0639062,0.520032,-0.967003,36.0625,1,925,136614
18,2,-0.667264,-0.0612454,9.78667,0.076916,-0.534258,0.97101,-0.00667419,-0.000622728,0.0978665,1,5.22993e-05,-7.93273e-06,2.78877e-06,0.0104599,-0.00158655,0.000557755,0,0,0,0,0.0615334,0.519546,-0.965993,36.0625,1,926,136714
18,3,-0.667264,-0.0612454,9.78667,0.076916,-0.534258,0.97101,-0.00667419,-0.000622728,0.0978665,1,5.22993e-05,-7.93273e-06,2.78877e-06,0.0104599,-0.00158655,0.000557755,0,0,0,0,0.0615334,0.519546,-0.965993,36.0625,1,926,136714
18,4,-0.678035,-0.0791826,9.80763,0.0683008,-0.555685,0.990108,-0.00678375,-0.000798653,0.098076,1,3.38927e-05,-1.74232e-05,1.31764e-05,0.00677853,-0.00348464,0.00263528,0,0,0,0,0.0606409,0.519021,-0.963475,36.0625,1,927,136814
18,5,-0.678035,-0.0791826,9.80763,0.0683008,-0.555685,0.990108,-0.00678375,-0.000798653,0.098076,1,3.38927e-05,-1.74232e-05,1.31764e-05,0.00677853,-0.00348464,0.00263528,0,0,0,0,0.0606409,0.519021,-0.963475,36.0625,1,927,136814
18,6,-0.677669,-0.0635021,9.78673,0.0698853,-0.537175,0.96787,-0.00677963,-0.000643501,0.097867,1,4.2146e-05,-1.51058e-05,1.70099e-05,0.0084292,-0.00302116,0.00340197,0,0,0,0,0.0597204,0.520926,-0.960398,36.0625,1,928,136914
18,7,-0.677669,-0.0635021,9.78673,0.0698853,-0.537175,0.96787,-0.00677963,-0.000643501,0.097867,1,4.2146e-05,-1.51058e-05,1.70099e-05,0.0084292,-0.00302116,0.00340197,0,0,0,0,0.0597204,0.520926,-0.960398,36.0625,1,928,136914
18,8,-0.672495,-0.0646085,9.79346,0.0778591,-0.541718,0.970885,-0.0067286,-0.000652987,0.0979343,1,3.43099e-05,-1.87139e-05,1.35677e-05,0.00686198,-0.00374277,0.00271355,0,0,0,0,0.0625824,0.52092,-0.961422,36.0625,1,929,137014
18,9,-0.672495,-0.0646085,9.79346,0.0778591,-0.541718,0.970885,-0.0067286,-0.000652987,0.0979343,1,3.43099e-05,-1.87139e-05,1.35677e-05,0.00686198,-0.00374277,0.00271355,0,0,0,0,0.0625824,0.52092,-0.961422,36.0625,1,929,137014
18,10,-0.66856,-0.0693074,9.78525,0.075184,-0.549517,0.958362,-0.00668716,-0.000701489,0.0978524,1,4.19765e-05,-8.05591e-06,1.49405e-05,0.0083953,-0.00161118,0.00298811,0,0,0,0,0.0644087,0.522422,-0.964427,36.0625,1,930,137114
18,11,-0.66856,-0.0693074,9.78525,0.075184,-0.549517,0.958362,-0.00668716,-0.000701489,0.0978524,1,4.19765e-05,-8.05591e-06,1.49405e-05,0.0083953,-0.00161118,0.00298811,0,0,0,0,0.0644087,0.522422,-0.964427,36.0625,1,930,137114
18,12,-0.677436,-0.0602416,9.78505,0.065927,-0.539186,0.962682,-0.00677509,-0.00061334,0.0978504,1,5.48363e-05,-3.83655e-06,1.41878e-05,0.0109673,-0.00076731,0.00283756,0,0,0,0,0.0629202,0.522949,-0.965924,36.0625,1,931,137214
19,1,-0.677436,-0.0602416,9.78505,0.065927,-0.539186,0.962682,-0.00677509,-0.00061334,0.0978504,1,5.48363e-05,-3.83655e-06,1.41878e-05,0.0109673,-0.00076731,0.00283756,0,0,0,0,0.0629202,0.522949,-0.965924,36.0625,1,931,137214
19,2,-0.672799,-0.0699663,9.79071,0.0717108,-0.549058,0.967919,-0.00673154,-0.000708728,0.0979068,1,4.55193e-05,-1.82298e-05,1.12505e-05,0.00910386,-0.00364595,0.00225011,0,0,0,0,0.0609991,0.520553,-0.967483,36.0625,1,932,137314
19,3,-0.672799,-0.0699663,9.79071,0.0717108,-0.549058,0.967919,-0.00673154,-0.000708728,0.0979068,1,4.55193e-05,-1.82298e-05,1.12505e-05,0.00910386,-0.00364595,0.00225011,0,0,0,0,0.0609991,0.520553,-0.967483,36.0625,1,932,137314
19,4,-0.666432,-0.0640275,9.7897,0.0783233,-0.548126,0.969152,-0.00666631,-0.000650232,0.0978968,1,5.0012e-05,-1.0269e-05,1.23512e-05,0.0100024,-0.0020538,0.00247024,0,0,0,0,0.0616155,0.519004,-0.962975,36.0625,1,933,137414
19,5,-0.666432,-0.0640275,9.7897,0.0783233,-0.548126,0.969152,-0.00666631,-0.000650232,0.0978968,1,5.0012e-05,-1.0269e-05,1.23512e-05,0.0100024,-0.0020538,0.00247024,0,0,0,0,0.0616155,0.519004,-0.962975,36.0625,1,933,137414
19,6,-0.668273,-0.0641049,9.7836,0.0772486,-0.541913,0.963133,-0.00668481,-0.000649783,0.0978358,1,4.35708e-05,-1.07289e-05,1.55703e-05,0.00871416,-0.00214578,0.00311406,0,0,0,0,0.0621668,0.519913,-0.959422,36.0625,1,934,137514
20,1,-0.668273,-0.0641049,9.7836,0.0772486,-0.541913,0.963133,-0.00668481,-0.000649783,0.0978358,1,4.35708e-05,-1.07289e-05,1.55703e-05,0.00871416,-0.00214578,0.00311406,0,0,0,0,0.0621668,0.519913,-0.959422,36.0625,1,934,137514
20,2,-0.678005,-0.0639962,9.79181,0.0658547,-0.544443,0.969844,-0.00678184,-0.000647622,0.0979179,1,3.86891e-05,-9.17891e-06,6.08899e-06,0.00773781,-0.00183578,0.0012178,0,0,0,0,0.0625416,0.521914,-0.962409,36.0625,1,935,137614
20,3,-0.678005,-0.0639962,9.79181,0.0658547,-0.544443,0.969844,-0.00678184,-0.000647622,0.0979179,1,3.86891e-05,-9.17891e-06,6.08899e-06,0.00773781,-0.00183578,0.0012178,0,0,0,0,0.0625416,0.521914,-0.962409,36.0625,1,935,137614
20,4,-0.673247,-0.0638375,9.78771,0.0721879,-0.546474,0.960938,-0.00673342,-0.000647094,0.097877,1,4.35226e-05,-4.97355e-06,1.47853e-05,0.00870452,-0.000994709,0.00295706,0,0,0,0,0.0629326,0.522939,-0.965419,36.0625,1,936,137714
20,5,-0.673247,-0.0638375,9.78771,0.0721879,-0.546474,0.960938,-0.00673342,-0.000647094,0.097877,1,4.35226e-05,-4.97355e-06,1.47853e-05,0.00870452,-0.000994709,0.00295706,0,0,0,0,0.0629326,0.522939,-0.965419,36.0625,1,936,137714
20,6,-0.666711,-0.0663482,9.79918,0.0761136,-0.553928,0.977669,-0.0066684,-0.000671393,0.0979916,1,3.90523e-05,-6.72994e-06,1.92895e-05,0.00781045,-0.00134599,0.00385789,0,0,0,0,0.0629155,0.521024,-0.967481,36.0625,1,937,137814
21,1,-0.666711,-0.0663482,9.79918,0.0761136,-0.553928,0.977669,-0.0066684,-0.000671393,0.0979916,1,3.90523e-05,-6.72994e-06,1.92895e-05,0.00781045,-0.00134599,0.00385789,0,0,0,0,0.0629155,0.521024,-0.967481,36.0625,1,937,137814
21,2,-0.661371,-0.0588825,9.78666,0.0851682,-0.549141,0.963969,-0.00661635,-0.000598625,0.0978664,1,4.96507e-05,-1.35562e-05,6.18215e-06,0.00993014,-0.00271125,0.00123643,0,0,0,0,0.061476,0.52007,-0.968001,36.0625,1,938,137914
22,1,-0.661371,-0.0588825,9.78666,0.0851682,-0.549141,0.963969,-0.00661635,-0.000598625,0.0978664,1,4.96507e-05,-1.35562e-05,6.18215e-06,0.00993014,-0.00271125,0.00123643,0,0,0,0,0.061476,0.52007,-0.968001,36.0625,1,938,137914
22,2,-0.673997,-0.073078,9.78933,0.0663141,-0.559633,0.97097,-0.00673993,-0.000739017,0.0978932,1,4.09167e-05,1.04579e-07,1.67956e-05,0.00818333,2.09159e-05,0.00335913,0,0,0,0,0.0606205,0.519518,-0.963969,36.0625,1,939,138014
23,1,-0.673997,-0.073078,9.78933,0.0663141,-0.559633,0.97097,-0.00673993,-0.000739017,0.0978932,1,4.09167e-05,1.04579e-07,1.67956e-05,0.00818333,2.09159e-05,0.00335913,0,0,0,0,0.0606205,0.519518,-0.963969,36.0625,1,939,138014
23,2,-0.659958,-0.0754518,9.78447,0.0843824,-0.56572,0.96315,-0.0066012,-0.000762268,0.0978445,1,3.90075e-05,-8.3038e-06,8.80842e-06,0.0078015,-0.00166076,0.00176169,0,0,0,0,0.060173,0.521907,-0.960883,36.0625,1,940,138114
24,1,-0.659958,-0.0754518,9.78447,0.0843824,-0.56572,0.96315,-0.0066012,-0.000762268,0.0978445,1,3.90075e-05,-8.3038e-06,8.80842e-06,0.0078015,-0.00166076,0.00176169,0,0,0,0,0.060173,0.521907,-0.960883,36.0625,1,940,138114
24,2,-0.674516,-0.0593375,9.79624,0.0670362,-0.553669,0.971279,-0.00674903,-0.000604824,0.0979621,1,5.77233e-05,-1.98484e-05,1.03824e-05,0.0115447,-0.00396968,0.00207648,0,0,0,0,0.0620899,0.523824,-0.95984,36.0625,1,941,138214
25,1,-0.674516,-0.0593375,9.79624,0.0670362,-0.553669,0.971279,-0.00674903,-0.000604824,0.0979621,1,5.77233e-05,-1.98484e-05,1.03824e-05,0.0115447,-0.00396968,0.00207648,0,0,0,0,0.0620899,0.523824,-0.95984,36.0625,1,941,138214
25,2,-0.67112,-0.0606349,9.78672,0.071745,-0.553823,0.958754,-0.00671487,-0.000616245,0.0978668,1,4.90937e-05,-1.88987e-05,2.1383e-05,0.00981875,-0.00377973,0.00427661,0,0,0,0,0.0633937,0.524878,-0.964873,36.0625,1,942,138314
26,1,-0.67112,-0.0606349,9.78672,0.071745,-0.553823,0.958754,-0.00671487,-0.000616245,0.0978668,1,4.90937e-05,-1.88987e-05,2.1383e-05,0.00981875,-0.00377973,0.00427661,0,0,0,0,0.0633937,0.524878,-0.964873,36.0625,1,942,138314
26,2,-0.662044,-0.0674893,9.79337,0.0807115,-0.56193,0.963274,-0.00662102,-0.000683823,0.0979336,1,4.38672e-05,-3.15703e-06,2.54493e-05,0.00877343,-0.000631406,0.00508986,0,0,0,0,0.0623732,0.522519,-0.968961,36.0625,1,943,138414
27,1,-0.662044,-0.0674893,9.79337,0.0807115,-0.56193,0.963274,-0.00662102,-0.000683823,0.0979336,1,4.38672e-05,-3.15703e-06,2.54493e-05,0.00877343,-0.000631406,0.00508986,0,0,0,0,0.0623732,0.522519,-0.968961,36.0625,1,943,138414
27,2,-0.679659,-0.0689367,9.7989,0.0620646,-0.565305,0.980929,-0.00679764,-0.00069612,0.0979889,1,3.30992e-05,-5.47444e-06,1.95727e-05,0.00661984,-0.00109489,0.00391454,0,0,0,0,0.060991,0.52104,-0.967472,36.0625,1,944,138514
28,1,-0.679659,-0.0689367,9.7989,0.0620646,-0.565305,0.980929,-0.00679764,-0.00069612,0.0979889,1,3.30992e-05,-5.47444e-06,1.95727e-05,0.00661984,-0.00109489,0.00391454,0,0,0,0,0.060991,0.52104,-0.967472,36.0625,1,944,138514
28,2,-0.676911,-0.0673439,9.7955,0.0639501,-0.566881,0.973931,-0.00677147,-0.000683364,0.0979548,1,4.97979e-05,-1.21236e-05,1.25114e-05,0.00995958,-0.00242472,0.00250228,0,0,0,0,0.0606414,0.520467,-0.962433,36.0625,1,945,138614
29,1,-0.676911,-0.0673439,9.7955,0.0639501,-0.566881,0.973931,-0.00677147,-0.000683364,0.0979548,1,4.97979e-05,-1.21236e-05,1.25114e-05,0.00995958,-0.00242472,0.00250228,0,0,0,0,0.0606414,0.520467,-0.962433,36.0625,1,945,138614
29,2,-0.658098,-0.0598674,9.78221,0.0849014,-0.552197,0.957255,-0.00658176,-0.000607824,0.097822,1,4.58508e-05,-4.06065e-06,1.36216e-05,0.00917017,-0.00081213,0.00272432,0,0,0,0,0.0616819,0.520883,-0.958893,36.0625,1,946,138714
30,1,-0.658098,-0.0598674,9.78221,0.0849014,-0.552197,0.957255,-0.00658176,-0.000607824,0.097822,1,4.58508e-05,-4.06065e-06,1.36216e-05,0.00917017,-0.00081213,0.00272432,0,0,0,0,0.0616819,0.520883,-0.958893,36.0625,1,946,138714
30,2,-0.677879,-0.0523176,9.78512,0.064322,-0.548021,0.961158,-0.00677887,-0.00053104,0.0978512,1,3.94397e-05,-4.47166e-07,1.074e-05,0.00788793,-8.94331e-05,0.00214799,0,0,0,0,0.0630559,0.522849,-0.960371,36.0625,1,947,138814
31,1,-0.677879,-0.0523176,9.78512,0.064322,-0.548021,0.961158,-0.00677887,-0.00053104,0.0978512,1,3.94397e-05,-4.47166e-07,1.074e-05,0.00788793,-8.94331e-05,0.00214799,0,0,0,0,0.0630559,0.522849,-0.960371,36.0625,1,947,138814
31,2,-0.663253,-0.0626135,9.79207,0.07771,-0.559821,0.961467,-0.00663711,-0.000637556,0.0979203,1,5.76601e-05,-2.34022e-05,9.69698e-06,0.011532,-0.00468043,0.0019394,0,0,0,0,0.0624353,0.523919,-0.965395,36.0625,1,948,138914
32,1,-0.663253,-0.0626135,9.79207,0.07771,-0.559821,0.961467,-0.00663711,-0.000637556,0.0979203,1,5.76601e-05,-2.34022e-05,9.69698e-06,0.011532,-0.00468043,0.0019394,0,0,0,0,0.0624353,0.523919,-0.965395,36.0625,1,948,138914
32,2,-0.670546,-0.0610472,9.78772,0.0706391,-0.560907,0.961007,-0.00670851,-0.000619764,0.0978769,1,4.59533e-05,-1.56815e-05,2.20669e-05,0.00919065,-0.00313631,0.00441338,0,0,0,0,0.0619205,0.521538,-0.968476,36.0625,1,949,139014
33,1,-0.670546,-0.0610472,9.78772,0.0706391,-0.560907,0.961007,-0.00670851,-0.000619764,0.0978769,1,4.59533e-05,-1.56815e-05,2.20669e-05,0.00919065,-0.00313631,0.00441338,0,0,0,0,0.0619205,0.521538,-0.968476,36.0625,1,949,139014
33,2,-0.660308,-0.0685844,9.79708,0.0827714,-0.570391,0.971966,-0.00660306,-0.000695108,0.0979707,1,4.78066e-05,1.61801e-07,-7.88288e-06,0.00956133,3.23602e-05,-0.00157658,0,0,0,0,0.0605422,0.519093,-0.967514,36.0625,1,950,139114
34,1,-0.660308,-0.0685844,9.79708,0.0827714,-0.570391,0.971966,-0.00660306,-0.000695108,0.0979707,1,4.78066e-05,1.61801e-07,-7.88288e-06,0.00956133,3.23602e-05,-0.00157658,0,0,0,0,0.0605422,0.519093,-0.967514,36.0625,1,950,139114
34,2,-0.678521,-0.0776145,9.79747,0.0599037,-0.579567,0.975145,-0.00678661,-0.000785045,0.0979745,1,4.38039e-05,-7.36097e-06,2.32885e-05,0.00876079,-0.00147219,0.00465771,0,0,0,0,0.0607021,0.517531,-0.961993,36.0625,1,951,139214
35,1,-0.678521,-0.0776145,9.79747,0.0599037,-0.579567,0.975145,-0.00678661,-0.000785045,0.0979745,1,4.38039e-05,-7.36097e-06,2.32885e-05,0.00876079,-0.00147219,0.00465771,0,0,0,0,0.0607021,0.517531,-0.961993,36.0625,1,951,139214
35,2,-0.680406,-0.0664931,9.78943,0.0645308,-0.564345,0.96633,-0.00680579,-0.000671686,0.0978942,1,3.3535e-05,-8.9296e-06,1.38898e-05,0.00670701,-0.00178592,0.00277795,0,0,0,0,0.0607154,0.520412,-0.959404,36.0625,1,952,139314
36,1,-0.680406,-0.0664931,9.78943,0.0645308,-0.564345,0.96633,-0.00680579,-0.000671686,0.0978942,1,3.3535e-05,-8.9296e-06,1.38898e-05,0.00670701,-0.00178592,0.00277795,0,0,0,0,0.0607154,0.520412,-0.959404,36.0625,1,952,139314
36,2,-0.673787,-0.0715338,9.79172,0.0677193,-0.568623,0.966753,-0.00674128,-0.000727504,0.0979169,1,6.01914e-05,-1.76332e-05,2.80795e-05,0.0120383,-0.00352664,0.00561589,0,0,0,0,0.0629904,0.523861,-0.962368,36.0625,1,953,139414
36,3,-0.673787,-0.0715338,9.79172,0.0677193,-0.568623,0.966753,-0.00674128,-0.000727504,0.0979169,1,6.01914e-05,-1.76332e-05,2.80795e-05,0.0120383,-0.00352664,0.00561589,0,0,0,0,0.0629904,0.523861,-0.962368,36.0625,1,953,139414
36,4,-0.667501,-0.0664297,9.79408,0.0680449,-0.565504,0.968123,-0.00667596,-0.000671222,0.0979407,1,3.4092e-05,-4.97337e-06,1.85073e-05,0.00681839,-0.000994675,0.00370146,0,0,0,0,0.0633605,0.523938,-0.966914,36.0625,1,954,139514
36,5,-0.667501,-0.0664297,9.79408,0.0680449,-0.565504,0.968123,-0.00667596,-0.000671222,0.0979407,1,3.4092e-05,-4.97337e-06,1.85073e-05,0.00681839,-0.000994675,0.00370146,0,0,0,0,0.0633605,0.523938,-0.966914,36.0625,1,954,139514
36,6,-0.669918,-0.0659111,9.78665,0.0708852,-0.569864,0.964451,-0.00670051,-0.00066671,0.0978664,1,3.80836e-05,-6.85829e-06,1.07867e-05,0.00761672,-0.00137166,0.00215734,0,0,0,0,0.0633435,0.522023,-0.968976,36.0625,1,955,139614
37,1,-0.669918,-0.0659111,9.78665,0.0708852,-0.569864,0.964451,-0.00670051,-0.00066671,0.0978664,1,3.80836e-05,-6.85829e-06,1.07867e-05,0.00761672,-0.00137166,0.00215734,0,0,0,0,0.0633435,0.522023,-0.968976,36.0625,1,955,139614
37,2,-0.67812,-0.0680304,9.79143,0.0600066,-0.574791,0.967258,-0.00677975,-0.000689542,0.0979144,1,4.66909e-05,7.39098e-06,6.92711e-06,0.00933819,0.0014782,0.00138542,0,0,0,0,0.0619248,0.522017,-0.96796,36.0625,1,956,139714
38,1,-0.67812,-0.0680304,9.79143,0.0600066,-0.574791,0.967258,-0.00677975,-0.000689542,0.0979144,1,4.66909e-05,7.39098e-06,6.92711e-06,0.00933819,0.0014782,0.00138542,0,0,0,0,0.0619248,0.522017,-0.96796,36.0625,1,956,139714
38,2,-0.673209,-0.068328,9.79208,0.0674851,-0.574246,0.969294,-0.00673371,-0.000692052,0.0979206,1,4.45135e-05,-8.32242e-06,4.03262e-06,0.00890269,-0.00166448,0.000806525,0,0,0,0,0.0630469,0.520447,-0.962444,36.0625,1,957,139814
39,1,-0.673209,-0.068328,9.79208,0.0674851,-0.574246,0.969294,-0.00673371,-0.000692052,0.0979206,1,4.45135e-05,-8.32242e-06,4.03262e-06,0.00890269,-0.00166448,0.000806525,0,0,0,0,0.0630469,0.520447,-0.962444,36.0625,1,957,139814
39,2,-0.669356,-0.0666639,9.79818,0.0697925,-0.572269,0.975996,-0.00669617,-0.000675229,0.0979816,1,4.30625e-05,-1.33906e-05,1.12856e-05,0.00861251,-0.00267812,0.00225712,0,0,0,0,0.062134,0.520418,-0.96042,36.0625,1,958,139914
40,1,-0.669356,-0.0666639,9.79818,0.0697925,-0.572269,0.975996,-0.00669617,-0.000675229,0.0979816,1,4.30625e-05,-1.33906e-05,1.12856e-05,0.00861251,-0.00267812,0.00225712,0,0,0,0,0.062134,0.520418,-0.96042,36.0625,1,958,139914
40,2,-0.675179,-0.0676289,9.78838,0.0629876,-0.576641,0.964667,-0.00675485,-0.000685382,0.0978835,1,4.5065e-05,-1.57504e-05,2.00307e-05,0.00901299,-0.00315007,0.00400614,0,0,0,0,0.061074,0.523389,-0.96237,36.0625,1,959,140014
41,1,-0.675179,-0.0676289,9.78838,0.0629876,-0.576641,0.964667,-0.00675485,-0.000685382,0.0978835,1,4.5065e-05,-1.57504e-05,2.00307e-05,0.00901299,-0.00315007,0.00400614,0,0,0,0,0.061074,0.523389,-0.96237,36.0625,1,959,140014
41,2,-0.661892,-0.0636375,9.78629,0.0762872,-0.572015,0.962355,-0.00662324,-0.000646314,0.0978625,1,4.92893e-05,-2.22159e-05,2.2089e-05,0.00985786,-0.00444318,0.0044178,0,0,0,0,0.0623618,0.525418,-0.967381,36.0625,1,960,140114
42,1,-0.661892,-0.0636375,9.78629,0.0762872,-0.572015,0.962355,-0.00662324,-0.000646314,0.0978625,1,4.92893e-05,-2.22159e-05,2.2089e-05,0.00985786,-0.00444318,0.0044178,0,0,0,0,0.0623618,0.525418,-0.967381,36.0625,1,960,140114
42,2,-0.673535,-0.0491433,9.79464,0.0620402,-0.556266,0.971845,-0.00673949,-0.000501132,0.097946,1,4.74362e-05,-2.12991e-05,3.02121e-05,0.00948723,-0.00425982,0.00604242,0,0,0,0,0.061864,0.524953,-0.9684,36.0625,1,961,140214
43,1,-0.673535,-0.0491433,9.79464,0.0620402,-0.556266,0.971845,-0.00673949,-0.000501132,0.097946,1,4.74362e-05,-2.12991e-05,3.02121e-05,0.00948723,-0.00425982,0.00604242,0,0,0,0,0.061864,0.524953,-0.9684,36.0625,1,961,140214
43,2,-0.667484,-0.0652494,9.79817,0.0748892,-0.574146,0.97286,-0.00667552,-0.000661202,0.0979816,1,4.29637e-05,-3.63582e-06,2.16757e-05,0.00859275,-0.000727165,0.00433514,0,0,0,0,0.0600454,0.521518,-0.966447,36.0625,1,962,140314
44,1,-0.667484,-0.0652494,9.79817,0.0748892,-0.574146,0.97286,-0.00667552,-0.000661202,0.0979816,1,4.29637e-05,-3.63582e-06,2.16757e-05,0.00859275,-0.000727165,0.00433514,0,0,0,0,0.0600454,0.521518,-0.966447,36.0625,1,962,140314
44,2,-0.67355,-0.06595,9.78465,0.0657762,-0.575189,0.962766,-0.00673781,-0.000666586,0.0978463,1,3.48762e-05,-1.19342e-05,1.93527e-05,0.00697524,-0.00238685,0.00387054,0,0,0,0,0.0601887,0.519486,-0.961947,36.0625,1,963,140414
45,1,-0.67355,-0.06595,9.78465,0.0657762,-0.575189,0.962766,-0.00673781,-0.000666586,0.0978463,1,3.48762e-05,-1.19342e-05,1.93527e-05,0.00697524,-0.00238685,0.00387054,0,0,0,0,0.0601887,0.519486,-0.961947,36.0625,1,963,140414
45,2,-0.671992,-0.0594649,9.78774,0.0647568,-0.570084,0.964271,-0.00672038,-0.000602538,0.0978773,1,3.9937e-05,-2.35788e-06,5.301e-06,0.0079874,-0.000471576,0.0010602,0,0,0,0,0.0606746,0.521406,-0.960392,36.0625,1,964,140514
46,1,-0.671992,-0.0594649,9.78774,0.0647568,-0.570084,0.964271,-0.00672038,-0.000602538,0.0978773,1,3.9937e-05,-2.35788e-06,5.301e-06,0.0079874,-0.000471576,0.0010602,0,0,0,0,0.0606746,0.521406,-0.960392,36.0625,1,964,140514
46,2,-0.672257,-0.0599675,9.78706,0.0684641,-0.572986,0.963495,-0.00672594,-0.000609875,0.0978703,1,5.19119e-05,-1.72479e-05,2.87817e-06,0.0103824,-0.00344958,0.000575633,0,0,0,0,0.0629819,0.522903,-0.9634,36.0625,1,965,140614
46,3,-0.672257,-0.0599675,9.78706,0.0684641,-0.572986,0.963495,-0.00672594,-0.000609875,0.0978703,1,5.19119e-05,-1.72479e-05,2.87817e-06,0.0103824,-0.00344958,0.000575633,0,0,0,0,0.0629819,0.522903,-0.9634,36.0625,1,965,140614
46,4,-0.662846,-0.0622963,9.78866,0.0721925,-0.581504,0.961312,-0.00663012,-0.000633693,0.0978865,1,5.35844e-05,-8.57192e-06,1.8083e-05,0.0107169,-0.00171438,0.0036166,0,0,0,0,0.0638336,0.524422,-0.966905,36.0625,1,966,140714
46,5,-0.662846,-0.0622963,9.78866,0.0721925,-0.581504,0.961312,-0.00663012,-0.000633693,0.0978865,1,5.35844e-05,-8.57192e-06,1.8083e-05,0.0107169,-0.00171438,0.0036166,0,0,0,0,0.0638336,0.524422,-0.966905,36.0625,1,966,140714
46,6,-0.675673,-0.0698371,9.78665,0.0582165,-0.586468,0.961404,-0.00675779,-0.000710152,0.0978663,1,5.9029e-05,-5.51556e-06,1.67882e-05,0.0118058,-0.00110311,0.00335765,0,0,0,0,0.0628951,0.521521,-0.967975,36.0625,1,967,140814
47,1,-0.675673,-0.0698371,9.78665,0.0582165,-0.586468,0.961404,-0.00675779,-0.000710152,0.0978663,1,5.9029e-05,-5.51556e-06,1.67882e-05,0.0118058,-0.00110311,0.00335765,0,0,0,0,0.0628951,0.521521,-0.967975,36.0625,1,967,140814
47,2,-0.677956,-0.059043,9.79966,0.063087,-0.573563,0.972171,-0.00678125,-0.000601408,0.0979964,1,5.5559e-05,-8.65565e-06,6.52853e-06,0.0111118,-0.00173113,0.00130571,0,0,0,0,0.0610361,0.520526,-0.965969,36.0625,1,968,140914
47,3,-0.677956,-0.059043,9.79966,0.063087,-0.573563,0.972171,-0.00678125,-0.000601408,0.0979964,1,5.5559e-05,-8.65565e-06,6.52853e-06,0.0111118,-0.00173113,0.00130571,0,0,0,0,0.0610361,0.520526,-0.965969,36.0625,1,968,140914
47,4,-0.668659,-0.0659031,9.79141,0.0616663,-0.584574,0.968357,-0.00669082,-0.000668256,0.0979137,1,4.54785e-05,-2.17706e-05,2.38324e-05,0.00909569,-0.00435411,0.00476647,0,0,0,0,0.0615993,0.51998,-0.962953,36.0625,1,969,141014
47,5,-0.668659,-0.0659031,9.79141,0.0616663,-0.584574,0.968357,-0.00669082,-0.000668256,0.0979137,1,4.54785e-05,-2.17706e-05,2.38324e-05,0.00909569,-0.00435411,0.00476647,0,0,0,0,0.0615993,0.51998,-0.962953,36.0625,1,969,141014
47,6,-0.666153,-0.0671272,9.78831,0.0699852,-0.5868,0.963487,-0.00666306,-0.000680884,0.0978829,1,4.70875e-05,-8.01115e-06,2.9566e-05,0.0094175,-0.00160223,0.0059132,0,0,0,0,0.0621179,0.521394,-0.960399,36.0625,1,970,141114
48,1,-0.666153,-0.0671272,9.78831,0.0699852,-0.5868,0.963487,-0.00666306,-0.000680884,0.0978829,1,4.70875e-05,-8.01115e-06,2.9566e-05,0.0094175,-0.00160223,0.0059132,0,0,0,0,0.0621179,0.521394,-0.960399,36.0625,1,970,141114
48,2,-0.665715,-0.0657846,9.79104,0.0726227,-0.580812,0.963655,-0.0066594,-0.000667291,0.0979102,1,4.69145e-05,-1.16131e-05,1.93883e-05,0.00938291,-0.00232263,0.00387766,0,0,0,0,0.0625217,0.523856,-0.961861,36.0625,1,971,141214
48,3,-0.665715,-0.0657846,9.79104,0.0726227,-0.580812,0.963655,-0.0066594,-0.000667291,0.0979102,1,4.69145e-05,-1.16131e-05,1.93883e-05,0.00938291,-0.00232263,0.00387766,0,0,0,0,0.0625217,0.523856,-0.961861,36.0625,1,971,141214
48,4,-0.674155,-0.0695417,9.79988,0.0614202,-0.587911,0.976043,-0.00674292,-0.000701964,0.0979987,1,3.18308e-05,-7.12272e-06,2.28285e-05,0.00636617,-0.00142454,0.0045657,0,0,0,0,0.0628714,0.52443,-0.966901,36.0625,1,972,141314
48,5,-0.674155,-0.0695417,9.79988,0.0614202,-0.587911,0.976043,-0.00674292,-0.000701964,0.0979987,1,3.18308e-05,-7.12272e-06,2.28285e-05,0.00636617,-0.00142454,0.0045657,0,0,0,0,0.0628714,0.52443,-0.966901,36.0625,1,972,141314
48,6,-0.670197,-0.0581501,9.7891,0.0658481,-0.579555,0.960291,-0.00670508,-0.000588235,0.0978907,1,3.27695e-05,-1.60282e-05,2.37376e-05,0.00655389,-0.00320563,0.00474751,0,0,0,0,0.0638616,0.521992,-0.967464,36.0625,1,973,141414
49,1,-0.670197,-0.0581501,9.7891,0.0658481,-0.579555,0.960291,-0.00670508,-0.000588235,0.0978907,1,3.27695e-05,-1.60282e-05,2.37376e-05,0.00655389,-0.00320563,0.00474751,0,0,0,0,0.0638616,0.521992,-0.967464,36.0625,1,973,141414
49,2,-0.661575,-0.0676077,9.78591,0.0655337,-0.590011,0.957678,-0.0066186,-0.000683087,0.0978589,1,3.47702e-05,-1.46776e-05,1.54727e-05,0.00695403,-0.00293552,0.00309455,0,0,0,0,0.0615006,0.520052,-0.966992,36.0625,1,974,141514
49,3,-0.661575,-0.0676077,9.78591,0.0655337,-0.590011,0.957678,-0.0066186,-0.000683087,0.0978589,1,3.47702e-05,-1.46776e-05,1.54727e-05,0.00695403,-0.00293552,0.00309455,0,0,0,0,0.0615006,0.520052,-0.966992,36.0625,1,974,141514
49,4,-0.663683,-0.0662492,9.78729,0.0696427,-0.585451,0.963095,-0.00663958,-0.000669217,0.0978727,1,3.22945e-05,-1.42754e-05,3.03854e-05,0.00645889,-0.00285509,0.00607707,0,0,0,0,0.0625246,0.519999,-0.964472,36.0625,1,975,141614
49,5,-0.663683,-0.0662492,9.78729,0.0696427,-0.585451,0.963095,-0.00663958,-0.000669217,0.0978727,1,3.22945e-05,-1.42754e-05,3.03854e-05,0.00645889,-0.00285509,0.00607707,0,0,0,0,0.0625246,0.519999,-0.964472,36.0625,1,975,141614
49,6,-0.67267,-0.0638819,9.7938,0.0597779,-0.58682,0.97269,-0.00672591,-0.000647088,0.097938,1,4.09112e-05,3.90392e-06,1.89616e-05,0.00818224,0.000780783,0.00379233,0,0,0,0,0.0640134,0.520917,-0.961933,36.0625,1,976,141714
50,1,-0.67267,-0.0638819,9.7938,0.0597779,-0.58682,0.97269,-0.00672591,-0.000647088,0.097938,1,4.09112e-05,3.90392e-06,1.89616e-05,0.00818224,0.000780783,0.00379233,0,0,0,0,0.0640134,0.520917,-0.961933,36.0625,1,976,141714
50,2,-0.675911,-0.0656617,9.79213,0.0624239,-0.587876,0.966442,-0.00676066,-0.0006646,0.0979211,1,3.97806e-05,-7.989e-06,1.41988e-05,0.00795611,-0.0015978,0.00283976,0,0,0,0,0.0625497,0.521426,-0.96242,36.0625,1,977,141814
50,3,-0.675911,-0.0656617,9.79213,0.0624239,-0.587876,0.966442,-0.00676066,-0.0006646,0.0979211,1,3.97806e-05,-7.989e-06,1.41988e-05,0.00795611,-0.0015978,0.00283976,0,0,0,0,0.0625497,0.521426,-0.96242,36.0625,1,977,141814
50,4,-0.663783,-0.0631371,9.79036,0.0721036,-0.58747,0.966661,-0.00663829,-0.000640369,0.0979035,1,4.44465e-05,-2.49592e-06,2.22399e-05,0.00888929,-0.000499185,0.00444798,0,0,0,0,0.0619172,0.52395,-0.966907,36.0625,1,978,141914
50,5,-0.663783,-0.0631371,9.79036,0.0721036,-0.58747,0.966661,-0.00663829,-0.000640369,0.0979035,1,4.44465e-05,-2.49592e-06,2.22399e-05,0.00888929,-0.000499185,0.00444798,0,0,0,0,0.0619172,0.52395,-0.966907,36.0625,1,978,141914
50,6,-0.685699,-0.0639347,9.79458,0.0461923,-0.589807,0.970443,-0.00685969,-0.000649391,0.0979456,1,5.01575e-05,-1.39268e-05,1.59384e-05,0.0100315,-0.00278535,0.00318768,0,0,0,0,0.0618797,0.522532,-0.969463,36.0625,1,979,142014
51,1,-0.685699,-0.0639347,9.79458,0.0461923,-0.589807,0.970443,-0.00685969,-0.000649391,0.0979456,1,5.01575e-05,-1.39268e-05,1.59384e-05,0.0100315,-0.00278535,0.00318768,0,0,0,0,0.0618797,0.522532,-0.969463,36.0625,1,979,142014
51,2,-0.679641,-0.0671981,9.78874,0.0571496,-0.595759,0.964595,-0.00679932,-0.000682821,0.0978872,1,5.4244e-05,-1.49401e-05,1.61585e-05,0.0108488,-0.00298801,0.00323169,0,0,0,0,0.0610029,0.519586,-0.96801,36.0625,1,980,142114
51,3,-0.679641,-0.0671981,9.78874,0.0571496,-0.595759,0.964595,-0.00679932,-0.000682821,0.0978872,1,5.4244e-05,-1.49401e-05,1.61585e-05,0.0108488,-0.00298801,0.00323169,0,0,0,0,0.0610029,0.519586,-0.96801,36.0625,1,980,142114
51,4,-0.672877,-0.0611501,9.79689,0.0640785,-0.584507,0.968955,-0.0067302,-0.000621188,0.0979688,1,4.81867e-05,-7.38343e-06,1.81923e-05,0.00963734,-0.00147669,0.00363846,0,0,0,0,0.0596867,0.518542,-0.963481,36.0625,1,981,142214
51,5,-0.672877,-0.0611501,9.79689,0.0640785,-0.584507,0.968955,-0.0067302,-0.000621188,0.0979688,1,4.81867e-05,-7.38343e-06,1.81923e-05,0.00963734,-0.00147669,0.00363846,0,0,0,0,0.0596867,0.518542,-0.963481,36.0625,1,981,142214
51,6,-0.679678,-0.0612235,9.78439,0.0538223,-0.588059,0.959454,-0.00680127,-0.000619783,0.0978436,1,3.7547e-05,-2.29965e-05,1.47634e-05,0.0075094,-0.0045993,0.00295269,0,0,0,0,0.0601849,0.520452,-0.961421,36.0625,1,982,142314
52,1,-0.679678,-0.0612235,9.78439,0.0538223,-0.588059,0.959454,-0.00680127,-0.000619783,0.0978436,1,3.7547e-05,-2.29965e-05,1.47634e-05,0.0075094,-0.0045993,0.00295269,0,0,0,0,0.0601849,0.520452,-0.961421,36.0625,1,982,142314
52,2,-0.676665,-0.0654529,9.79891,0.0594474,-0.590138,0.972571,-0.00676743,-0.000661079,0.097989,1,3.24789e-05,-4.06988e-06,1.35993e-05,0.00649578,-0.000813977,0.00271986,0,0,0,0,0.0615471,0.523873,-0.962361,36.0625,1,983,142414
52,3,-0.676665,-0.0654529,9.79891,0.0594474,-0.590138,0.972571,-0.00676743,-0.000661079,0.097989,1,3.24789e-05,-4.06988e-06,1.35993e-05,0.00649578,-0.000813977,0.00271986,0,0,0,0,0.0615471,0.523873,-0.962361,36.0625,1,983,142414
52,4,-0.677332,-0.0690683,9.79481,0.0564118,-0.600279,0.971981,-0.00677356,-0.00069913,0.097948,1,4.18928e-05,-1.34475e-06,1.77622e-05,0.00837855,-0.000268951,0.00355244,0,0,0,0,0.0614489,0.52539,-0.965357,36.0625,1,984,142514
52,5,-0.677332,-0.0690683,9.79481,0.0564118,-0.600279,0.971981,-0.00677356,-0.00069913,0.097948,1,4.18928e-05,-1.34475e-06,1.77622e-05,0.00837855,-0.000268951,0.00355244,0,0,0,0,0.0614489,0.52539,-0.965357,36.0625,1,984,142514
52,6,-0.674696,-0.0591016,9.79183,0.0571092,-0.587812,0.96563,-0.00674827,-0.000599921,0.0979181,1,4.39994e-05,-6.78389e-06,2.14075e-05,0.00879987,-0.00135678,0.00428149,0,0,0,0,0.062879,0.522497,-0.967954,36.0625,1,985,142614
53,1,-0.674696,-0.0591016,9.79183,0.0571092,-0.587812,0.96563,-0.00674827,-0.000599921,0.0979181,1,4.39994e-05,-6.78389e-06,2.14075e-05,0.00879987,-0.00135678,0.00428149,0,0,0,0,0.062879,0.522497,-0.967954,36.0625,1,985,142614
53,2,-0.667178,-0.0606502,9.79244,0.0701204,-0.589835,0.962151,-0.00667425,-0.000618133,0.0979242,1,5.83622e-05,-1.27274e-05,1.50915e-05,0.0116724,-0.00254547,0.0030183,0,0,0,0,0.0610072,0.520065,-0.967494,36.0625,1,986,142714
53,3,-0.667178,-0.0606502,9.79244,0.0701204,-0.589835,0.962151,-0.00667425,-0.000618133,0.0979242,1,5.83622e-05,-1.27274e-05,1.50915e-05,0.0116724,-0.00254547,0.0030183,0,0,0,0,0.0610072,0.520065,-0.967494,36.0625,1,986,142714
53,4,-0.674825,-0.0563675,9.7915,0.0592707,-0.58732,0.965716,-0.00674808,-0.000572974,0.097915,1,4.67076e-05,8.11934e-07,1.12972e-05,0.00934152,0.000162387,0.00225944,0,0,0,0,0.0606575,0.519491,-0.962455,36.0625,1,987,142814
53,5,-0.674825,-0.0563675,9.7915,0.0592707,-0.58732,0.965716,-0.00674808,-0.000572974,0.097915,1,4.67076e-05,8.11934e-07,1.12972e-05,0.00934152,0.000162387,0.00225944,0,0,0,0,0.0606575,0.519491,-0.962455,36.0625,1,987,142814
53,6,-0.668169,-0.0642062,9.79445,0.0636154,-0.596944,0.968153,-0.00668291,-0.000650919,0.0979444,1,4.49437e-05,-6.2158e-06,3.95635e-06,0.00898874,-0.00124316,0.00079127,0,0,0,0,0.0621426,0.521376,-0.959389,36.0625,1,988,142914
53,7,-0.668169,-0.0642062,9.79445,0.0636154,-0.596944,0.968153,-0.00668291,-0.000650919,0.0979444,1,4.49437e-05,-6.2158e-06,3.95635e-06,0.00898874,-0.00124316,0.00079127,0,0,0,0,0.0621426,0.521376,-0.959389,36.0625,1,988,142914
53,8,-0.669394,-0.0641763,9.78701,0.0676658,-0.595886,0.960056,-0.00669902,-0.000651064,0.0978697,1,4.56349e-05,-2.61588e-05,2.74852e-05,0.00912698,-0.00523176,0.00549703,0,0,0,0,0.0639892,0.522381,-0.961901,36.0625,1,989,143014
53,9,-0.669394,-0.0641763,9.78701,0.0676658,-0.595886,0.960056,-0.00669902,-0.000651064,0.0978697,1,4.56349e-05,-2.61588e-05,2.74852e-05,0.00912698,-0.00523176,0.00549703,0,0,0,0,0.0639892,0.522381,-0.961901,36.0625,1,989,143014
53,10,-0.685403,-0.0629604,9.79187,0.0480672,-0.599622,0.967169,-0.00685739,-0.000638496,0.0979184,1,4.4128e-05,-1.72909e-05,1.82167e-05,0.00882559,-0.00345817,0.00364333,0,0,0,0,0.0634009,0.521499,-0.966968,36.0625,1,990,143114
54,1,-0.685403,-0.0629604,9.79187,0.0480672,-0.599622,0.967169,-0.00685739,-0.000638496,0.0979184,1,4.4128e-05,-1.72909e-05,1.82167e-05,0.00882559,-0.00345817,0.00364333,0,0,0,0,0.0634009,0.521499,-0.966968,36.0625,1,990,143114
54,2,-0.670287,-0.0566288,9.78232,0.0626889,-0.589913,0.954067,-0.00670471,-0.000576026,0.097823,1,4.89802e-05,-9.45464e-06,1.15426e-05,0.00979604,-0.00189093,0.00230853,0,0,0,0,0.0624301,0.52055,-0.967995,36.0625,1,991,143214
54,3,-0.670287,-0.0566288,9.78232,0.0626889,-0.589913,0.954067,-0.00670471,-0.000576026,0.097823,1,4.89802e-05,-9.45464e-06,1.15426e-05,0.00979604,-0.00189093,0.00230853,0,0,0,0,0.0624301,0.52055,-0.967995,36.0625,1,991,143214
54,4,-0.674879,-0.0645458,9.79586,0.0556784,-0.597916,0.972802,-0.00675206,-0.000654945,0.0979583,1,4.80226e-05,-1.67285e-05,5.84708e-06,0.00960453,-0.00334571,0.00116942,0,0,0,0,0.0620064,0.52003,-0.965984,36.0625,1,992,143314
54,5,-0.674879,-0.0645458,9.79586,0.0556784,-0.597916,0.972802,-0.00675206,-0.000654945,0.0979583,1,4.80226e-05,-1.67285e-05,5.84708e-06,0.00960453,-0.00334571,0.00116942,0,0,0,0,0.0620064,0.52003,-0.965984,36.0625,1,992,143314
54,6,-0.675612,-0.0638307,9.78739,0.056672,-0.598325,0.959965,-0.00675915,-0.000647463,0.0978736,1,4.61806e-05,-1.55288e-05,8.56826e-06,0.00923612,-0.00310576,0.00171365,0,0,0,0,0.0616155,0.519004,-0.962975,36.0625,1,993,143414
55,1,-0.675612,-0.0638307,9.78739,0.056672,-0.598325,0.959965,-0.00675915,-0.000647463,0.0978736,1,4.61806e-05,-1.55288e-05,8.56826e-06,0.00923612,-0.00310576,0.00171365,0,0,0,0,0.0616155,0.519004,-0.962975,36.0625,1,993,143414
55,2,-0.674477,-0.0585357,9.78911,0.0604529,-0.595595,0.963172,-0.00674348,-0.000593374,0.0978912,1,3.96632e-05,6.48917e-06,1.8716e-05,0.00793263,0.00129783,0.0037432,0,0,0,0,0.0616121,0.521416,-0.961406,36.0625,1,994,143514
55,3,-0.674477,-0.0585357,9.78911,0.0604529,-0.595595,0.963172,-0.00674348,-0.000593374,0.0978912,1,3.96632e-05,6.48917e-06,1.8716e-05,0.00793263,0.00129783,0.0037432,0,0,0,0,0.0616121,0.521416,-0.961406,36.0625,1,994,143514
55,4,-0.666318,-0.0727762,9.792,0.068568,-0.607451,0.963243,-0.00666551,-0.000734895,0.0979198,1,3.59676e-05,-1.19491e-05,6.65331e-06,0.00719352,-0.00238983,0.00133066,0,0,0,0,0.0629985,0.523373,-0.962379,36.0625,1,995,143614
55,5,-0.666318,-0.0727762,9.792,0.068568,-0.607451,0.963243,-0.00666551,-0.000734895,0.0979198,1,3.59676e-05,-1.19491e-05,6.65331e-06,0.00719352,-0.00238983,0.00133066,0,0,0,0,0.0629985,0.523373,-0.962379,36.0625,1,995,143614
55,6,-0.664415,-0.0651205,9.78255,0.0669862,-0.605838,0.954477,-0.00664723,-0.000660053,0.0978253,1,4.41577e-05,-1.58287e-05,1.56854e-05,0.00883154,-0.00316574,0.00313708,0,0,0,0,0.0628913,0.522488,-0.967449,36.0625,1,996,143714
56,1,-0.664415,-0.0651205,9.78255,0.0669862,-0.605838,0.954477,-0.00664723,-0.000660053,0.0978253,1,4.41577e-05,-1.58287e-05,1.56854e-05,0.00883154,-0.00316574,0.00313708,0,0,0,0,0.0628913,0.522488,-0.967449,36.0625,1,996,143714
56,2,-0.66563,-0.0733078,9.78724,0.0625512,-0.609266,0.959898,-0.00665976,-0.000743361,0.0978721,1,5.15096e-05,-1.77919e-05,1.50837e-05,0.0103019,-0.00355837,0.00301673,0,0,0,0,0.0619201,0.520093,-0.969518,36.0625,1,997,143814
56,3,-0.66563,-0.0733078,9.78724,0.0625512,-0.609266,0.959898,-0.00665976,-0.000743361,0.0978721,1,5.15096e-05,-1.77919e-05,1.50837e-05,0.0103019,-0.00355837,0.00301673,0,0,0,0,0.0619201,0.520093,-0.969518,36.0625,1,997,143814
56,4,-0.663278,-0.0667878,9.79,0.0678784,-0.606989,0.962923,-0.00663526,-0.000677937,0.0978998,1,5.03083e-05,-1.27795e-05,1.56869e-05,0.0100617,-0.0025559,0.00313738,0,0,0,0,0.061986,0.520527,-0.966478,36.0625,1,998,143914
56,5,-0.663278,-0.0667878,9.79,0.0678784,-0.606989,0.962923,-0.00663526,-0.000677937,0.0978998,1,5.03083e-05,-1.27795e-05,1.56869e-05,0.0100617,-0.0025559,0.00313738,0,0,0,0,0.061986,0.520527,-0.966478,36.0625,1,998,143914
56,6,-0.668084,-0.0600915,9.78907,0.0606271,-0.600505,0.962957,-0.00668343,-0.000610124,0.0978905,1,4.66631e-05,-1.32563e-05,5.45715e-06,0.00933262,-0.00265126,0.00109143,0,0,0,0,0.061587,0.519989,-0.963458,36.0625,1,999,144014
57,1,-0.668084,-0.0600915,9.78907,0.0606271,-0.600505,0.962957,-0.00668343,-0.000610124,0.0978905,1,4.66631e-05,-1.32563e-05,5.45715e-06,0.00933262,-0.00265126,0.00109143,0,0,0,0,0.061587,0.519989,-0.963458,36.0625,1,999,144014
57,2,-0.67708,-0.071257,9.79684,0.053015,-0.609259,0.969792,-0.00677508,-0.000720066,0.0979681,1,3.69008e-05,-2.1972e-05,1.9606e-05,0.00738016,-0.0043944,0.0039212,0,0,0,0,0.0615751,0.521443,-0.96292,36.0625,1,1000,144114
57,3,-0.67708,-0.071257,9.79684,0.053015,-0.609259,0.969792,-0.00677508,-0.000720066,0.0979681,1,3.69008e-05,-2.1972e-05,1.9606e-05,0.00738016,-0.0043944,0.0039212,0,0,0,0,0.0615751,0.521443,-0.96292,36.0625,1,1000,144114
57,4,-0.678653,-0.0613723,9.78811,0.0547651,-0.596871,0.961172,-0.00678903,-0.00062347,0.0978809,1,4.88646e-05,-1.28639e-05,1.33309e-05,0.00977292,-0.00257277,0.00266617,0,0,0,0,0.0634227,0.525338,-0.963347,36.0625,1,1001,144214
57,5,-0.678653,-0.0613723,9.78811,0.0547651,-0.596871,0.961172,-0.00678903,-0.00062347,0.0978809,1,4.88646e-05,-1.28639e-05,1.33309e-05,0.00977292,-0.00257277,0.00266617,0,0,0,0,0.0634227,0.525338,-0.963347,36.0625,1,1001,144214
57,6,-0.660553,-0.0727523,9.79332,0.0698863,-0.615515,0.965698,-0.00660886,-0.000734739,0.0979329,1,3.6126e-05,-1.70711e-05,1.06247e-05,0.00722519,-0.00341421,0.00212494,0,0,0,0,0.0643474,0.523912,-0.965909,36.0625,1,1002,144314
58,1,-0.660553,-0.0727523,9.79332,0.0698863,-0.615515,0.965698,-0.00660886,-0.000734739,0.0979329,1,3.6126e-05,-1.70711e-05,1.06247e-05,0.00722519,-0.00341421,0.00212494,0,0,0,0,0.0643474,0.523912,-0.965909,36.0625,1,1002,144314
58,2,-0.669857,-0.0524933,9.7922,0.0590962,-0.596434,0.966557,-0.00670167,-0.000534951,0.0979217,1,5.00325e-05,-1.59517e-05,1.64099e-05,0.0100065,-0.00319034,0.00328198,0,0,0,0,0.0633843,0.52103,-0.967989,36.0625,1,1003,144414
58,3,-0.669857,-0.0524933,9.7922,0.0590962,-0.596434,0.966557,-0.00670167,-0.000534951,0.0979217,1,5.00325e-05,-1.59517e-05,1.64099e-05,0.0100065,-0.00319034,0.00328198,0,0,0,0,0.0633843,0.52103,-0.967989,36.0625,1,1003,144414
58,4,-0.663782,-0.0626769,9.78393,0.0641656,-0.605502,0.954384,-0.00663917,-0.000636091,0.0978391,1,4.75738e-05,-6.91254e-06,9.96378e-07,0.00951476,-0.00138251,0.000199276,0,0,0,0,0.0600739,0.520534,-0.965964,36.0625,1,1004,144514
58,5,-0.663782,-0.0626769,9.78393,0.0641656,-0.605502,0.954384,-0.00663917,-0.000636091,0.0978391,1,4.75738e-05,-6.91254e-06,9.96378e-07,0.00951476,-0.00138251,0.000199276,0,0,0,0,0.0600739,0.520534,-0.965964,36.0625,1,1004,144514
58,6,-0.666903,-0.0551247,9.78537,0.0630649,-0.599151,0.958221,-0.0066709,-0.000561104,0.0978535,1,4.87473e-05,-9.66878e-06,2.37432e-05,0.00974945,-0.00193376,0.00474864,0,0,0,0,0.061159,0.51899,-0.961963,36.0625,1,1005,144614
59,1,-0.666903,-0.0551247,9.78537,0.0630649,-0.599151,0.958221,-0.0066709,-0.000561104,0.0978535,1,4.87473e-05,-9.66878e-06,2.37432e-05,0.00974945,-0.00193376,0.00474864,0,0,0,0,0.061159,0.51899,-0.961963,36.0625,1,1005,144614
59,2,-0.681213,-0.0651239,9.79183,0.0485798,-0.612334,0.966712,-0.00681644,-0.00066269,0.097918,1,5.74815e-05,-2.21221e-05,1.42939e-05,0.0114963,-0.00442442,0.00285877,0,0,0,0,0.0621094,0.520436,-0.96143,36.0625,1,1006,144714
59,3,-0.681213,-0.0651239,9.79183,0.0485798,-0.612334,0.966712,-0.00681644,-0.00066269,0.097918,1,5.74815e-05,-2.21221e-05,1.42939e-05,0.0114963,-0.00442442,0.00285877,0,0,0,0,0.0621094,0.520436,-0.96143,36.0625,1,1006,144714
59,4,-0.67649,-0.076289,9.79441,0.0535521,-0.618668,0.967732,-0.00676682,-0.000770675,0.0979439,1,3.81843e-05,-9.98943e-06,2.25435e-05,0.00763685,-0.00199789,0.00450869,0,0,0,0,0.0634877,0.522881,-0.962392,36.0625,1,1007,144814
59,5,-0.67649,-0.076289,9.79441,0.0535521,-0.618668,0.967732,-0.00676682,-0.000770675,0.0979439,1,3.81843e-05,-9.98943e-06,2.25435e-05,0.00763685,-0.00199789,0.00450869,0,0,0,0,0.0634877,0.522881,-0.962392,36.0625,1,1007,144814
59,6,-0.658168,-0.066931,9.79267,0.0690335,-0.611101,0.964369,-0.00658474,-0.000676613,0.0979265,1,3.64557e-05,-1.57003e-05,1.24349e-05,0.00729114,-0.00314006,0.00248698,0,0,0,0,0.0619134,0.524917,-0.96638,36.0625,1,1008,144914
60,1,-0.658168,-0.066931,9.79267,0.0690335,-0.611101,0.964369,-0.00658474,-0.000676613,0.0979265,1,3.64557e-05,-1.57003e-05,1.24349e-05,0.00729114,-0.00314006,0.00248698,0,0,0,0,0.0619134,0.524917,-0.96638,36.0625,1,1008,144914
60,2,-0.673825,-0.0665856,9.79278,0.0521232,-0.609685,0.96169,-0.00674118,-0.000675889,0.0979275,1,4.97681e-05,-1.50817e-05,2.11651e-05,0.00995362,-0.00301634,0.00423302,0,0,0,0,0.0609464,0.523001,-0.967934,36.0625,1,1009,145014
60,3,-0.673825,-0.0665856,9.79278,0.0521232,-0.609685,0.96169,-0.00674118,-0.000675889,0.0979275,1,4.97681e-05,-1.50817e-05,2.11651e-05,0.00995362,-0.00301634,0.00423302,0,0,0,0,0.0609464,0.523001,-0.967934,36.0625,1,1009,145014
60,4,-0.670775,-0.0672246,9.79106,0.0548288,-0.611496,0.963764,-0.00671087,-0.000681106,0.0979103,1,4.3245e-05,-1.61415e-05,2.91859e-05,0.00864901,-0.00322829,0.00583718,0,0,0,0,0.0600739,0.520534,-0.965964,36.0625,1,1010,145114
60,5,-0.670775,-0.0672246,9.79106,0.0548288,-0.611496,0.963764,-0.00671087,-0.000681106,0.0979103,1,4.3245e-05,-1.61415e-05,2.91859e-05,0.00864901,-0.00322829,0.00583718,0,0,0,0,0.0600739,0.520534,-0.965964,36.0625,1,1010,145114
60,6,-0.666113,-0.068319,9.79068,0.0627413,-0.613418,0.966177,-0.00666259,-0.000692789,0.0979066,1,4.83859e-05,-7.50485e-06,9.35049e-06,0.00967718,-0.00150097,0.0018701,0,0,0,0,0.0601356,0.520489,-0.96344,36.0625,1,1011,145214
61,1,-0.666113,-0.068319,9.79068,0.0627413,-0.613418,0.966177,-0.00666259,-0.000692789,0.0979066,1,4.83859e-05,-7.50485e-06,9.35049e-06,0.00967718,-0.00150097,0.0018701,0,0,0,0,0.0601356,0.520489,-0.96344,36.0625,1,1011,145214
61,2,-0.6727,-0.0596614,9.78095,0.0550862,-0.604663,0.948658,-0.00672911,-0.000605844,0.0978093,1,4.52845e-05,-1.09376e-05,2.76699e-05,0.0090569,-0.00218752,0.00553397,0,0,0,0,0.0620932,0.521412,-0.961408,36.0625,1,1012,145314
61,3,-0.6727,-0.0596614,9.78095,0.0550862,-0.604663,0.948658,-0.00672911,-0.000605844,0.0978093,1,4.52845e-05,-1.09376e-05,2.76699e-05,0.0090569,-0.00218752,0.00553397,0,0,0,0,0.0620932,0.521412,-0.961408,36.0625,1,1012,145314
61,4,-0.674082,-0.0700505,9.78971,0.0520559,-0.616879,0.967848,-0.00674467,-0.000710237,0.0978968,1,4.80454e-05,-1.98798e-05,2.40874e-05,0.00960908,-0.00397596,0.00481748,0,0,0,0,0.0639684,0.521432,-0.963437,36.0625,1,1013,145414
61,5,-0.674082,-0.0700505,9.78971,0.0520559,-0.616879,0.967848,-0.00674467,-0.000710237,0.0978968,1,4.80454e-05,-1.98798e-05,2.40874e-05,0.00960908,-0.00397596,0.00481748,0,0,0,0,0.0639684,0.521432,-0.963437,36.0625,1,1013,145414
61,6,-0.679424,-0.058719,9.79084,0.0480033,-0.609494,0.964881,-0.00679577,-0.000598032,0.0979083,1,5.4447e-05,-7.89382e-06,1.32694e-05,0.0108894,-0.00157876,0.00265389,0,0,0,0,0.0628956,0.522967,-0.966933,36.0625,1,1014,145514
62,1,-0.679424,-0.058719,9.79084,0.0480033,-0.609494,0.964881,-0.00679577,-0.000598032,0.0979083,1,5.4447e-05,-7.89382e-06,1.32694e-05,0.0108894,-0.00157876,0.00265389,0,0,0,0,0.0628956,0.522967,-0.966933,36.0625,1,1014,145514
62,2,-0.676954,-0.0611435,9.78471,0.0486398,-0.611863,0.960507,-0.00677336,-0.00061968,0.0978468,1,4.19895e-05,-1.9504e-05,2.08051e-06,0.0083979,-0.00390079,0.000416102,0,0,0,0,0.0614356,0.522509,-0.967947,36.0625,1,1015,145614
62,3,-0.676954,-0.0611435,9.78471,0.0486398,-0.611863,0.960507,-0.00677336,-0.00061968,0.0978468,1,4.19895e-05,-1.9504e-05,2.08051e-06,0.0083979,-0.00390079,0.000416102,0,0,0,0,0.0614356,0.522509,-0.967947,36.0625,1,1015,145614
62,4,-0.666577,-0.0552804,9.78638,0.0595407,-0.603525,0.957571,-0.00666754,-0.000561367,0.0978636,1,4.23062e-05,-9.14753e-06,2.11355e-05,0.00846124,-0.00182951,0.0042271,0,0,0,0,0.0600696,0.520055,-0.96648,36.0625,1,1016,145714
62,5,-0.666577,-0.0552804,9.78638,0.0595407,-0.603525,0.957571,-0.00666754,-0.000561367,0.0978636,1,4.23062e-05,-9.14753e-06,2.11355e-05,0.00846124,-0.00182951,0.0042271,0,0,0,0,0.0600696,0.520055,-0.96648,36.0625,1,1016,145714
62,6,-0.673176,-0.0709353,9.78291,0.0545705,-0.621646,0.956615,-0.00673444,-0.000718014,0.0978288,1,4.27944e-05,-1.38317e-05,2.13608e-05,0.00855887,-0.00276634,0.00427216,0,0,0,0,0.0597237,0.518515,-0.961967,36.0625,1,1017,145814
63,1,-0.673176,-0.0709353,9.78291,0.0545705,-0.621646,0.956615,-0.00673444,-0.000718014,0.0978288,1,4.27944e-05,-1.38317e-05,2.13608e-05,0.00855887,-0.00276634,0.00427216,0,0,0,0,0.0597237,0.518515,-0.961967,36.0625,1,1017,145814
63,2,-0.669922,-0.0562027,9.79894,0.0554655,-0.607621,0.96943,-0.00670137,-0.000574618,0.0979892,1,6.30672e-05,-1.1092e-05,1.72114e-05,0.0126134,-0.0022184,0.00344229,0,0,0,0,0.0607234,0.519925,-0.959415,36.0625,1,1018,145914
64,1,-0.669922,-0.0562027,9.79894,0.0554655,-0.607621,0.96943,-0.00670137,-0.000574618,0.0979892,1,6.30672e-05,-1.1092e-05,1.72114e-05,0.0126134,-0.0022184,0.00344229,0,0,0,0,0.0607234,0.519925,-0.959415,36.0625,1,1018,145914
64,2,-0.672207,-0.0648943,9.79278,0.050865,-0.615933,0.96611,-0.00672375,-0.00065772,0.0979276,1,4.31202e-05,-8.74707e-06,2.46688e-05,0.00862405,-0.00174941,0.00493376,0,0,0,0,0.0611229,0.521908,-0.961393,36.0625,1,1019,146014
65,1,-0.672207,-0.0648943,9.79278,0.050865,-0.615933,0.96611,-0.00672375,-0.00065772,0.0979276,1,4.31202e-05,-8.74707e-06,2.46688e-05,0.00862405,-0.00174941,0.00493376,0,0,0,0,0.0611229,0.521908,-0.961393,36.0625,1,1019,146014
65,2,-0.681329,-0.073848,9.79141,0.0459533,-0.629819,0.964149,-0.00681542,-0.000748437,0.0979139,1,4.9686e-05,-1.10085e-05,1.6613e-05,0.0099372,-0.00220169,0.0033226,0,0,0,0,0.0619703,0.522947,-0.965414,36.0625,1,1020,146114
66,1,-0.681329,-0.073848,9.79141,0.0459533,-0.629819,0.964149,-0.00681542,-0.000748437,0.0979139,1,4.9686e-05,-1.10085e-05,1.6613e-05,0.0099372,-0.00220169,0.0033226,0,0,0,0,0.0619703,0.522947,-0.965414,36.0625,1,1020,146114
66,2,-0.661791,-0.0634788,9.79204,0.0652915,-0.616425,0.965467,-0.00661946,-0.000643152,0.0979202,1,4.15461e-05,-8.0725e-06,1.72298e-05,0.00830923,-0.0016145,0.00344596,0,0,0,0,0.0624306,0.521995,-0.966953,36.0625,1,1021,146214
67,1,-0.661791,-0.0634788,9.79204,0.0652915,-0.616425,0.965467,-0.00661946,-0.000643152,0.0979202,1,4.15461e-05,-8.0725e-06,1.72298e-05,0.00830923,-0.0016145,0.00344596,0,0,0,0,0.0624306,0.521995,-0.966953,36.0625,1,1021,146214
67,2,-0.676162,-0.0581544,9.78845,0.0544138,-0.613569,0.958511,-0.00676127,-0.000594235,0.0978844,1,6.30002e-05,1.58529e-06,2.63994e-05,0.0126,0.000317058,0.00527989,0,0,0,0,0.0596089,0.519562,-0.965984,36.0625,1,1022,146314
68,1,-0.676162,-0.0581544,9.78845,0.0544138,-0.613569,0.958511,-0.00676127,-0.000594235,0.0978844,1,6.30002e-05,1.58529e-06,2.63994e-05,0.0126,0.000317058,0.00527989,0,0,0,0,0.0596089,0.519562,-0.965984,36.0625,1,1022,146314
68,2,-0.672413,-0.0671298,9.79549,0.0503426,-0.624593,0.967,-0.00672753,-0.000675536,0.0979546,1,2.16719e-05,-1.73655e-05,-5.51194e-07,0.00433437,-0.00347309,-0.000110239,0,0,0,0,0.0607225,0.517034,-0.961499,36.0625,1,1023,146414
69,1,-0.672413,-0.0671298,9.79549,0.0503426,-0.624593,0.967,-0.00672753,-0.000675536,0.0979546,1,2.16719e-05,-1.73655e-05,-5.51194e-07,0.00433437,-0.00347309,-0.000110239,0,0,0,0,0.0607225,0.517034,-0.961499,36.0625,1,1023,146414
69,2,-0.670485,-0.0606858,9.79179,0.0518389,-0.616928,0.963616,-0.00670794,-0.000617381,0.0979176,1,5.24763e-05,-1.58604e-05,1.83638e-05,0.0104953,-0.00317209,0.00367277,0,0,0,0,0.0626394,0.518951,-0.960455,36.0625,1,1024,146514
69,3,-0.670485,-0.0606858,9.79179,0.0518389,-0.616928,0.963616,-0.00670794,-0.000617381,0.0979176,1,5.24763e-05,-1.58604e-05,1.83638e-05,0.0104953,-0.00317209,0.00367277,0,0,0,0,0.0626394,0.518951,-0.960455,36.0625,1,1024,146514
69,4,-0.67207,-0.0604885,9.7901,0.0548616,-0.613044,0.961434,-0.00672113,-0.000612836,0.0979009,1,3.8862e-05,-2.37853e-06,2.5377e-05,0.00777241,-0.000475706,0.00507539,0,0,0,0,0.0630232,0.523355,-0.96137,36.0625,1,1025,146614
69,5,-0.67207,-0.0604885,9.7901,0.0548616,-0.613044,0.961434,-0.00672113,-0.000612836,0.0979009,1,3.8862e-05,-2.37853e-06,2.5377e-05,0.00777241,-0.000475706,0.00507539,0,0,0,0,0.0630232,0.523355,-0.96137,36.0625,1,1025,146614
69,6,-0.665651,-0.064941,9.79783,0.0599361,-0.618408,0.963441,-0.00665991,-0.000657177,0.097978,1,3.78824e-05,-1.75352e-05,2.57697e-05,0.00757648,-0.00350703,0.00515394,0,0,0,0,0.062896,0.524412,-0.965891,36.0625,1,1026,146714
70,1,-0.665651,-0.064941,9.79783,0.0599361,-0.618408,0.963441,-0.00665991,-0.000657177,0.097978,1,3.78824e-05,-1.75352e-05,2.57697e-05,0.00757648,-0.00350703,0.00515394,0,0,0,0,0.062896,0.524412,-0.965891,36.0625,1,1026,146714
70,2,-0.668933,-0.0674026,9.8053,0.0568252,-0.625376,0.980577,-0.00669243,-0.000683556,0.0980527,1,4.82537e-05,-1.58269e-05,5.03261e-06,0.00965074,-0.00316538,0.00100652,0,0,0,0,0.0623974,0.521056,-0.968994,36.0625,1,1027,146814
71,1,-0.668933,-0.0674026,9.8053,0.0568252,-0.625376,0.980577,-0.00669243,-0.000683556,0.0980527,1,4.82537e-05,-1.58269e-05,5.03261e-06,0.00965074,-0.00316538,0.00100652,0,0,0,0,0.0623974,0.521056,-0.968994,36.0625,1,1027,146814
71,2,-0.67185,-0.0744844,9.79405,0.0601721,-0.628008,0.960052,-0.00671877,-0.000753521,0.0979404,1,4.35282e-05,-1.47331e-06,1.12205e-05,0.00870563,-0.000294663,0.00224411,0,0,0,0,0.0605711,0.519554,-0.965988,36.0625,1,1028,146914
72,1,-0.67185,-0.0744844,9.79405,0.0601721,-0.628008,0.960052,-0.00671877,-0.000753521,0.0979404,1,4.35282e-05,-1.47331e-06,1.12205e-05,0.00870563,-0.000294663,0.00224411,0,0,0,0,0.0605711,0.519554,-0.965988,36.0625,1,1028,146914
72,2,-0.680403,-0.0711849,9.79515,0.0421315,-0.627851,0.970881,-0.00680631,-0.000720359,0.0979513,1,4.33959e-05,-1.16154e-05,6.59932e-07,0.00867918,-0.00232308,0.000131986,0,0,0,0,0.0601764,0.519495,-0.962452,36.0625,1,1029,147014
72,3,-0.680403,-0.0711849,9.79515,0.0421315,-0.627851,0.970881,-0.00680631,-0.000720359,0.0979513,1,4.33959e-05,-1.16154e-05,6.59932e-07,0.00867918,-0.00232308,0.000131986,0,0,0,0,0.0601764,0.519495,-0.962452,36.0625,1,1029,147014
72,4,-0.672573,-0.0678494,9.78089,0.0496956,-0.6245,0.95319,-0.00672733,-0.000686926,0.0978087,1,4.16004e-05,-8.34631e-06,2.18096e-05,0.00832008,-0.00166926,0.00436192,0,0,0,0,0.0611599,0.521881,-0.959878,36.0625,1,1030,147114
73,1,-0.672573,-0.0678494,9.78089,0.0496956,-0.6245,0.95319,-0.00672733,-0.000686926,0.0978087,1,4.16004e-05,-8.34631e-06,2.18096e-05,0.00832008,-0.00166926,0.00436192,0,0,0,0,0.0611599,0.521881,-0.959878,36.0625,1,1030,147114
73,2,-0.67594,-0.0666364,9.79415,0.0489721,-0.622482,0.96344,-0.0067608,-0.000674776,0.0979413,1,4.06411e-05,-7.33487e-06,3.33674e-05,0.00812823,-0.00146697,0.00667348,0,0,0,0,0.0630194,0.524322,-0.960843,36.0625,1,1031,147214
73,3,-0.67594,-0.0666364,9.79415,0.0489721,-0.622482,0.96344,-0.0067608,-0.000674776,0.0979413,1,4.06411e-05,-7.33487e-06,3.33674e-05,0.00812823,-0.00146697,0.00667348,0,0,0,0,0.0630194,0.524322,-0.960843,36.0625,1,1031,147214
73,4,-0.6717,-0.0535725,9.78642,0.0524404,-0.609781,0.960188,-0.00671876,-0.000543369,0.0978641,1,3.89964e-05,-8.98149e-06,8.45826e-07,0.00779927,-0.0017963,0.000169165,0,0,0,0,0.0648447,0.522933,-0.965933,36.0625,1,1032,147314
74,1,-0.6717,-0.0535725,9.78642,0.0524404,-0.609781,0.960188,-0.00671876,-0.000543369,0.0978641,1,3.89964e-05,-8.98149e-06,8.45826e-07,0.00779927,-0.0017963,0.000169165,0,0,0,0,0.0648447,0.522933,-0.965933,36.0625,1,1032,147314
74,2,-0.657296,-0.0648738,9.7903,0.0636645,-0.624157,0.959893,-0.00657509,-0.000656525,0.0979028,1,3.81282e-05,-1.10475e-05,2.44231e-05,0.00762565,-0.00220949,0.00488462,0,0,0,0,0.0633966,0.52102,-0.967484,36.0625,1,1033,147414
74,3,-0.657296,-0.0648738,9.7903,0.0636645,-0.624157,0.959893,-0.00657509,-0.000656525,0.0979028,1,3.81282e-05,-1.10475e-05,2.44231e-05,0.00762565,-0.00220949,0.00488462,0,0,0,0,0.0633966,0.52102,-0.967484,36.0625,1,1033,147414
74,4,-0.680363,-0.0598971,9.78678,0.0392139,-0.619901,0.959197,-0.00680714,-0.000606656,0.0978675,1,3.76962e-05,-1.80901e-05,2.25584e-05,0.00753924,-0.00361803,0.00451168,0,0,0,0,0.0605593,0.521008,-0.965451,36.0625,1,1034,147514
74,5,-0.680363,-0.0598971,9.78678,0.0392139,-0.619901,0.959197,-0.00680714,-0.000606656,0.0978675,1,3.76962e-05,-1.80901e-05,2.25584e-05,0.00753924,-0.00361803,0.00451168,0,0,0,0,0.0605593,0.521008,-0.965451,36.0625,1,1034,147514
74,6,-0.676162,-0.0742647,9.80494,0.0477166,-0.638275,0.976897,-0.00676344,-0.000753566,0.0980492,1,5.46463e-05,-9.35758e-06,1.4985e-05,0.0109293,-0.00187152,0.002997,0,0,0,0,0.0616567,0.519456,-0.960945,36.0625,1,1035,147614
74,7,-0.676162,-0.0742647,9.80494,0.0477166,-0.638275,0.976897,-0.00676344,-0.000753566,0.0980492,1,5.46463e-05,-9.35758e-06,1.4985e-05,0.0109293,-0.00187152,0.002997,0,0,0,0,0.0616567,0.519456,-0.960945,36.0625,1,1035,147614
74,8,-0.663348,-0.0511522,9.79319,0.0574434,-0.611675,0.968567,-0.00663703,-0.000520511,0.0979316,1,4.46103e-05,-1.82654e-05,1.89354e-05,0.00892205,-0.00365308,0.00378708,0,0,0,0,0.0616653,0.520413,-0.959913,36.0625,1,1036,147714
74,9,-0.663348,-0.0511522,9.79319,0.0574434,-0.611675,0.968567,-0.00663703,-0.000520511,0.0979316,1,4.46103e-05,-1.82654e-05,1.89354e-05,0.00892205,-0.00365308,0.00378708,0,0,0,0,0.0616653,0.520413,-0.959913,36.0625,1,1036,147714
74,10,-0.6606,-0.0602411,9.79309,0.0624871,-0.622384,0.962988,-0.00660866,-0.000612182,0.0979306,1,4.82389e-05,-1.37313e-05,2.44434e-05,0.00964777,-0.00274627,0.00488867,0,0,0,0,0.0639646,0.522399,-0.96291,36.0625,1,1037,147814
75,1,-0.6606,-0.0602411,9.79309,0.0624871,-0.622384,0.962988,-0.00660866,-0.000612182,0.0979306,1,4.82389e-05,-1.37313e-05,2.44434e-05,0.00964777,-0.00274627,0.00488867,0,0,0,0,0.0639646,0.522399,-0.96291,36.0625,1,1037,147814
75,2,-0.678001,-0.0565148,9.79662,0.0460546,-0.61449,0.966071,-0.00678205,-0.000571997,0.0979661,1,3.3414e-05,-1.04943e-05,2.23182e-05,0.0066828,-0.00209885,0.00446363,0,0,0,0,0.0643513,0.522946,-0.966435,36.0625,1,1038,147914
75,3,-0.678001,-0.0565148,9.79662,0.0460546,-0.61449,0.966071,-0.00678205,-0.000571997,0.0979661,1,3.3414e-05,-1.04943e-05,2.23182e-05,0.0066828,-0.00209885,0.00446363,0,0,0,0,0.0643513,0.522946,-0.966435,36.0625,1,1038,147914
75,4,-0.675919,-0.072465,9.7924,0.0442284,-0.637159,0.96203,-0.00676062,-0.000732713,0.0979238,1,3.9583e-05,-7.46167e-06,2.30429e-05,0.00791661,-0.00149233,0.00460858,0,0,0,0,0.0628951,0.521521,-0.967975,36.0625,1,1039,148014
76,1,-0.675919,-0.072465,9.7924,0.0442284,-0.637159,0.96203,-0.00676062,-0.000732713,0.0979238,1,3.9583e-05,-7.46167e-06,2.30429e-05,0.00791661,-0.00149233,0.00460858,0,0,0,0,0.0628951,0.521521,-0.967975,36.0625,1,1039,148014
76,2,-0.66944,-0.067075,9.79715,0.0491808,-0.626728,0.967946,-0.00669628,-0.000678672,0.0979713,1,3.89516e-05,-9.7325e-06,2.16457e-05,0.00779033,-0.0019465,0.00432915,0,0,0,0,0.0624752,0.520035,-0.966491,36.0625,1,1040,148114
76,3,-0.66944,-0.067075,9.79715,0.0491808,-0.626728,0.967946,-0.00669628,-0.000678672,0.0979713,1,3.89516e-05,-9.7325e-06,2.16457e-05,0.00779033,-0.0019465,0.00432915,0,0,0,0,0.0624752,0.520035,-0.966491,36.0625,1,1040,148114
76,4,-0.675541,-0.0666376,9.78805,0.0464463,-0.625011,0.959533,-0.00675921,-0.000675713,0.0978802,1,4.63443e-05,-1.95582e-05,1.95875e-05,0.00926886,-0.00391164,0.00391749,0,0,0,0,0.0606817,0.518028,-0.962487,36.0625,1,1041,148214
76,5,-0.675541,-0.0666376,9.78805,0.0464463,-0.625011,0.959533,-0.00675921,-0.000675713,0.0978802,1,4.63443e-05,-1.95582e-05,1.95875e-05,0.00926886,-0.00391164,0.00391749,0,0,0,0,0.0606817,0.518028,-0.962487,36.0625,1,1041,148214
76,6,-0.671849,-0.0615817,9.78332,0.0472466,-0.624048,0.957677,-0.00672203,-0.000626153,0.0978329,1,5.07627e-05,-1.82704e-05,2.99756e-05,0.0101525,-0.00365409,0.00599512,0,0,0,0,0.0596791,0.520475,-0.962428,36.0625,1,1042,148314
76,7,-0.671849,-0.0615817,9.78332,0.0472466,-0.624048,0.957677,-0.00672203,-0.000626153,0.0978329,1,5.07627e-05,-1.82704e-05,2.99756e-05,0.0101525,-0.00365409,0.00599512,0,0,0,0,0.0596791,0.520475,-0.962428,36.0625,1,1042,148314
76,8,-0.676556,-0.0652364,9.79519,0.0497406,-0.632134,0.965181,-0.00676763,-0.000661988,0.0979517,1,4.73001e-05,-1.07493e-05,2.64476e-05,0.00946001,-0.00214987,0.00528952,0,0,0,0,0.0620073,0.52292,-0.9639,36.0625,1,1043,148414
77,1,-0.676556,-0.0652364,9.79519,0.0497406,-0.632134,0.965181,-0.00676763,-0.000661988,0.0979517,1,4.73001e-05,-1.07493e-05,2.64476e-05,0.00946001,-0.00214987,0.00528952,0,0,0,0,0.0620073,0.52292,-0.9639,36.0625,1,1043,148414
77,2,-0.674942,-0.070776,9.78054,0.0440368,-0.631695,0.956089,-0.00675066,-0.000719873,0.0978052,1,6.04709e-05,-6.49517e-06,2.10383e-05,0.0120942,-0.00129904,0.00420765,0,0,0,0,0.062896,0.524412,-0.965891,36.0625,1,1044,148514
78,1,-0.674942,-0.070776,9.78054,0.0440368,-0.631695,0.956089,-0.00675066,-0.000719873,0.0978052,1,6.04709e-05,-6.49517e-06,2.10383e-05,0.0120942,-0.00129904,0.00420765,0,0,0,0,0.062896,0.524412,-0.965891,36.0625,1,1044,148514
78,2,-0.664253,-0.0749783,9.79265,0.0593915,-0.644026,0.960618,-0.00664374,-0.0007591,0.0979263,1,4.64452e-05,-6.26774e-06,1.6648e-05,0.00928904,-0.00125355,0.0033296,0,0,0,0,0.0629117,0.521991,-0.966955,36.0625,1,1045,148614
79,1,-0.664253,-0.0749783,9.79265,0.0593915,-0.644026,0.960618,-0.00664374,-0.0007591,0.0979263,1,4.64452e-05,-6.26774e-06,1.6648e-05,0.00928904,-0.00125355,0.0033296,0,0,0,0,0.0629117,0.521991,-0.966955,36.0625,1,1045,148614
79,2,-0.680651,-0.0646051,9.8003,0.043727,-0.625932,0.969979,-0.00680889,-0.000656641,0.0980028,1,5.22936e-05,-1.23253e-05,2.49503e-05,0.0104587,-0.00246506,0.00499005,0,0,0,0,0.0610769,0.519532,-0.964981,36.0625,1,1046,148714
80,1,-0.680651,-0.0646051,9.8003,0.043727,-0.625932,0.969979,-0.00680889,-0.000656641,0.0980028,1,5.22936e-05,-1.23253e-05,2.49503e-05,0.0104587,-0.00246506,0.00499005,0,0,0,0,0.0610769,0.519532,-0.964981,36.0625,1,1046,148714
80,2,-0.672115,-0.0722363,9.789,0.0479943,-0.637165,0.9613,-0.00672357,-0.000729733,0.0978898,1,3.59584e-05,-1.25323e-05,2.45737e-05,0.00719168,-0.00250646,0.00491475,0,0,0,0,0.0602419,0.518483,-0.960455,36.0625,1,1047,148814
80,3,-0.672115,-0.0722363,9.789,0.0479943,-0.637165,0.9613,-0.00672357,-0.000729733,0.0978898,1,3.59584e-05,-1.25323e-05,2.45737e-05,0.00719168,-0.00250646,0.00491475,0,0,0,0,0.0602419,0.518483,-0.960455,36.0625,1,1047,148814
80,4,-0.674267,-0.0701495,9.78359,0.0436181,-0.633525,0.953882,-0.00674422,-0.000711691,0.0978357,1,5.11874e-05,-7.99069e-06,1.33477e-05,0.0102375,-0.00159814,0.00266955,0,0,0,0,0.0621587,0.5204,-0.959411,36.0625,1,1048,148914
80,5,-0.674267,-0.0701495,9.78359,0.0436181,-0.633525,0.953882,-0.00674422,-0.000711691,0.0978357,1,5.11874e-05,-7.99069e-06,1.33477e-05,0.0102375,-0.00159814,0.00266955,0,0,0,0,0.0621587,0.5204,-0.959411,36.0625,1,1048,148914
80,6,-0.667472,-0.0644507,9.78326,0.0541955,-0.633032,0.952752,-0.00667652,-0.000652686,0.0978324,1,4.04139e-05,-9.30203e-06,2.03287e-05,0.00808278,-0.00186041,0.00406574,0,0,0,0,0.0639527,0.523853,-0.962373,36.0625,1,1049,149014
81,1,-0.667472,-0.0644507,9.78326,0.0541955,-0.633032,0.952752,-0.00667652,-0.000652686,0.0978324,1,4.04139e-05,-9.30203e-06,2.03287e-05,0.00808278,-0.00186041,0.00406574,0,0,0,0,0.0639527,0.523853,-0.962373,36.0625,1,1049,149014
81,2,-0.666431,-0.0639466,9.78326,0.0518883,-0.633222,0.952104,-0.00666692,-0.000651004,0.0978323,1,5.75651e-05,-1.34857e-05,2.05727e-05,0.011513,-0.00269714,0.00411455,0,0,0,0,0.0628263,0.524945,-0.968404,36.0625,1,1050,149114
81,3,-0.666431,-0.0639466,9.78326,0.0518883,-0.633222,0.952104,-0.00666692,-0.000651004,0.0978323,1,5.75651e-05,-1.34857e-05,2.05727e-05,0.011513,-0.00269714,0.00411455,0,0,0,0,0.0628263,0.524945,-0.968404,36.0625,1,1050,149114
81,4,-0.667537,-0.0582856,9.79959,0.0513847,-0.625791,0.968096,-0.00667493,-0.000594329,0.0979958,1,5.68089e-05,2.10644e-06,2.53561e-05,0.0113618,0.000421289,0.00507121,0,0,0,0,0.0618755,0.522053,-0.969979,36.0625,1,1051,149214
81,5,-0.667537,-0.0582856,9.79959,0.0513847,-0.625791,0.968096,-0.00667493,-0.000594329,0.0979958,1,5.68089e-05,2.10644e-06,2.53561e-05,0.0113618,0.000421289,0.00507121,0,0,0,0,0.0618755,0.522053,-0.969979,36.0625,1,1051,149214
81,6,-0.66913,-0.0608449,9.79348,0.0471896,-0.633805,0.965224,-0.00669463,-0.000617055,0.0979345,1,4.23155e-05,-1.717e-05,2.37097e-05,0.0084631,-0.00343401,0.00474195,0,0,0,0,0.0605711,0.519554,-0.965988,36.0625,1,1052,149314
82,1,-0.66913,-0.0608449,9.79348,0.0471896,-0.633805,0.965224,-0.00669463,-0.000617055,0.0979345,1,4.23155e-05,-1.717e-05,2.37097e-05,0.0084631,-0.00343401,0.00474195,0,0,0,0,0.0605711,0.519554,-0.965988,36.0625,1,1052,149314
82,2,-0.669122,-0.0587289,9.79011,0.0542254,-0.627056,0.963767,-0.00669307,-0.000594632,0.0979009,1,3.63142e-05,-9.57028e-06,1.73875e-05,0.00726285,-0.00191406,0.00347751,0,0,0,0,0.0611139,0.519505,-0.963467,36.0625,1,1053,149414
82,3,-0.669122,-0.0587289,9.79011,0.0542254,-0.627056,0.963767,-0.00669307,-0.000594632,0.0979009,1,3.63142e-05,-9.57028e-06,1.73875e-05,0.00726285,-0.00191406,0.00347751,0,0,0,0,0.0611139,0.519505,-0.963467,36.0625,1,1053,149414
82,4,-0.677349,-0.0575335,9.78915,0.0446648,-0.623476,0.964979,-0.00677497,-0.000582115,0.0978914,1,3.38741e-05,-7.6015e-06,1.09447e-05,0.00677482,-0.0015203,0.00218894,0,0,0,0,0.0625948,0.520911,-0.960917,36.0625,1,1054,149514
82,5,-0.677349,-0.0575335,9.78915,0.0446648,-0.623476,0.964979,-0.00677497,-0.000582115,0.0978914,1,3.38741e-05,-7.6015e-06,1.09447e-05,0.00677482,-0.0015203,0.00218894,0,0,0,0,0.0625948,0.520911,-0.960917,36.0625,1,1054,149514
82,6,-0.671087,-0.0749768,9.79269,0.0470668,-0.643785,0.959535,-0.00671383,-0.000756477,0.0979266,1,3.38686e-05,-1.51934e-05,5.66435e-06,0.00677371,-0.00303868,0.00113287,0,0,0,0,0.0625748,0.522853,-0.960368,36.0625,1,1055,149614
83,1,-0.671087,-0.0749768,9.79269,0.0470668,-0.643785,0.959535,-0.00671383,-0.000756477,0.0979266,1,3.38686e-05,-1.51934e-05,5.66435e-06,0.00677371,-0.00303868,0.00113287,0,0,0,0,0.0625748,0.522853,-0.960368,36.0625,1,1055,149614
83,2,-0.671741,-0.0697258,9.79444,0.0468099,-0.636681,0.963014,-0.00672108,-0.000706606,0.0979441,1,4.79315e-05,-1.87121e-05,-3.09201e-06,0.00958629,-0.00374243,-0.000618402,0,0,0,0,0.0624026,0.524425,-0.966393,36.0625,1,1056,149714
83,3,-0.671741,-0.0697258,9.79444,0.0468099,-0.636681,0.963014,-0.00672108,-0.000706606,0.0979441,1,4.79315e-05,-1.87121e-05,-3.09201e-06,0.00958629,-0.00374243,-0.000618402,0,0,0,0,0.0624026,0.524425,-0.966393,36.0625,1,1056,149714
83,4,-0.674871,-0.06958,9.78768,0.0407146,-0.635432,0.954714,-0.00675065,-0.000706922,0.0978766,1,5.60303e-05,-9.97622e-06,1.14345e-05,0.0112061,-0.00199524,0.0022869,0,0,0,0,0.0624097,0.521047,-0.968489,36.0625,1,1057,149814
83,5,-0.674871,-0.06958,9.78768,0.0407146,-0.635432,0.954714,-0.00675065,-0.000706922,0.0978766,1,5.60303e-05,-9.97622e-06,1.14345e-05,0.0112061,-0.00199524,0.0022869,0,0,0,0,0.0624097,0.521047,-0.968489,36.0625,1,1057,149814
83,6,-0.672881,-0.0692864,9.79783,0.0470581,-0.640721,0.965162,-0.0067293,-0.000703346,0.0979782,1,5.2318e-05,-2.65585e-06,1.70767e-05,0.0104636,-0.00053117,0.00341535,0,0,0,0,0.0605545,0.519084,-0.967009,36.0625,1,1058,149914
83,7,-0.672881,-0.0692864,9.79783,0.0470581,-0.640721,0.965162,-0.0067293,-0.000703346,0.0979782,1,5.2318e-05,-2.65585e-06,1.70767e-05,0.0104636,-0.00053117,0.00341535,0,0,0,0,0.0605545,0.519084,-0.967009,36.0625,1,1058,149914
83,8,-0.67199,-0.0514776,9.7973,0.0462992,-0.623365,0.970665,-0.00672075,-0.000525504,0.0979729,1,5.37876e-05,-4.40521e-06,1.40239e-05,0.0107575,-0.000881042,0.00280477,0,0,0,0,0.0616321,0.519474,-0.961954,36.0625,1,1059,150014
83,9,-0.67199,-0.0514776,9.7973,0.0462992,-0.623365,0.970665,-0.00672075,-0.000525504,0.0979729,1,5.37876e-05,-4.40521e-06,1.40239e-05,0.0107575,-0.000881042,0.00280477,0,0,0,0,0.0616321,0.519474,-0.961954,36.0625,1,1059,150014
83,10,-0.675961,-0.0580344,9.78846,0.0446257,-0.631296,0.962015,-0.00676236,-0.000589725,0.0978844,1,4.72404e-05,-1.40723e-05,9.80854e-06,0.00944809,-0.00281447,0.00196171,0,0,0,0,0.0635693,0.520894,-0.960417,36.0625,1,1060,150114
83,11,-0.675961,-0.0580344,9.78846,0.0446257,-0.631296,0.962015,-0.00676236,-0.000589725,0.0978844,1,4.72404e-05,-1.40723e-05,9.80854e-06,0.00944809,-0.00281447,0.00196171,0,0,0,0,0.0635693,0.520894,-0.960417,36.0625,1,1060,150114
83,12,-0.673792,-0.0569466,9.79217,0.0475126,-0.628363,0.960778,-0.00673634,-0.000580451,0.0979218,1,5.55087e-05,8.01346e-06,8.45262e-06,0.0111017,0.00160269,0.00169052,0,0,0,0,0.0653794,0.523371,-0.9634,36.0625,1,1061,150214
84,1,-0.673792,-0.0569466,9.79217,0.0475126,-0.628363,0.960778,-0.00673634,-0.000580451,0.0979218,1,5.55087e-05,8.01346e-06,8.45262e-06,0.0111017,0.00160269,0.00169052,0,0,0,0,0.0653794,0.523371,-0.9634,36.0625,1,1061,150214
84,2,-0.661042,-0.0748824,9.7804,0.0601267,-0.644379,0.948087,-0.00661193,-0.00075933,0.0978038,1,5.28488e-05,-7.8194e-06,1.26979e-05,0.0105698,-0.00156388,0.00253957,0,0,0,0,0.0638255,0.52491,-0.966894,36.0625,1,1062,150314
84,3,-0.661042,-0.0748824,9.7804,0.0601267,-0.644379,0.948087,-0.00661193,-0.00075933,0.0978038,1,5.28488e-05,-7.8194e-06,1.26979e-05,0.0105698,-0.00156388,0.00253957,0,0,0,0,0.0638255,0.52491,-0.966894,36.0625,1,1062,150314
84,4,-0.682006,-0.0666091,9.7847,0.0334966,-0.636834,0.95335,-0.0068233,-0.000675241,0.0978467,1,4.64172e-05,-1.65681e-05,4.88373e-06,0.00928343,-0.00331363,0.000976745,0,0,0,0,0.0613986,0.522536,-0.969461,36.0625,1,1063,150414
84,5,-0.682006,-0.0666091,9.7847,0.0334966,-0.636834,0.95335,-0.0068233,-0.000675241,0.0978467,1,4.64172e-05,-1.65681e-05,4.88373e-06,0.00928343,-0.00331363,0.000976745,0,0,0,0,0.0613986,0.522536,-0.969461,36.0625,1,1063,150414
84,6,-0.674919,-0.0725322,9.78392,0.0427687,-0.65145,0.957488,-0.00675102,-0.000732046,0.097839,1,3.26168e-05,-9.54812e-06,2.53561e-05,0.00652335,-0.00190962,0.00507122,0,0,0,0,0.0609825,0.520083,-0.968504,36.0625,1,1064,150514
85,1,-0.674919,-0.0725322,9.78392,0.0427687,-0.65145,0.957488,-0.00675102,-0.000732046,0.097839,1,3.26168e-05,-9.54812e-06,2.53561e-05,0.00652335,-0.00190962,0.00507122,0,0,0,0,0.0609825,0.520083,-0.968504,36.0625,1,1064,150514
85,2,-0.670438,-0.0610282,9.79654,0.0500299,-0.638787,0.97206,-0.00670765,-0.000620203,0.0979651,1,5.0191e-05,-1.67074e-05,6.5026e-06,0.0100382,-0.00334148,0.00130052,0,0,0,0,0.061122,0.519017,-0.963477,36.0625,1,1065,150614
85,3,-0.670438,-0.0610282,9.79654,0.0500299,-0.638787,0.97206,-0.00670765,-0.000620203,0.0979651,1,5.0191e-05,-1.67074e-05,6.5026e-06,0.0100382,-0.00334148,0.00130052,0,0,0,0,0.061122,0.519017,-0.963477,36.0625,1,1065,150614
85,4,-0.681349,-0.0718177,9.79109,0.0352196,-0.645703,0.963038,-0.0068149,-0.000726906,0.0979107,1,4.42342e-05,-7.2678e-06,4.88377e-06,0.00884683,-0.00145356,0.000976754,0,0,0,0,0.0616159,0.52045,-0.961933,36.0625,1,1066,150714
85,5,-0.681349,-0.0718177,9.79109,0.0352196,-0.645703,0.963038,-0.0068149,-0.000726906,0.0979107,1,4.42342e-05,-7.2678e-06,4.88377e-06,0.00884683,-0.00145356,0.000976754,0,0,0,0,0.0616159,0.52045,-0.961933,36.0625,1,1066,150714
85,6,-0.673917,-0.0717633,9.79104,0.0469509,-0.646265,0.960795,-0.00673997,-0.000727026,0.0979102,1,4.78383e-05,-4.08112e-06,1.86629e-06,0.00956766,-0.000816223,0.000373259,0,0,0,0,0.062032,0.522902,-0.96289,36.0625,1,1067,150814
86,1,-0.673917,-0.0717633,9.79104,0.0469509,-0.646265,0.960795,-0.00673997,-0.000727026,0.0979102,1,4.78383e-05,-4.08112e-06,1.86629e-06,0.00956766,-0.000816223,0.000373259,0,0,0,0,0.062032,0.522902,-0.96289,36.0625,1,1067,150814
86,2,-0.671838,-0.0554365,9.78846,0.044933,-0.62873,0.9585,-0.00672335,-0.000565533,0.0978842,1,5.57937e-05,-2.54771e-05,1.8217e-05,0.0111587,-0.00509541,0.00364341,0,0,0,0,0.0628752,0.523463,-0.967427,36.0625,1,1068,150914
87,1,-0.671838,-0.0554365,9.78846,0.044933,-0.62873,0.9585,-0.00672335,-0.000565533,0.0978842,1,5.57937e-05,-2.54771e-05,1.8217e-05,0.0111587,-0.00509541,0.00364341,0,0,0,0,0.0628752,0.523463,-0.967427,36.0625,1,1068,150914
87,2,-0.671572,-0.0698206,9.79578,0.0434589,-0.644933,0.968896,-0.006716,-0.000705537,0.0979578,1,3.73479e-05,-1.462e-06,1.08785e-06,0.00746957,-0.0002924,0.000217569,0,0,0,0,0.0637999,0.522037,-0.969988,36.0625,1,1069,151014
87,3,-0.671572,-0.0698206,9.79578,0.0434589,-0.644933,0.968896,-0.006716,-0.000705537,0.0979578,1,3.73479e-05,-1.462e-06,1.08785e-06,0.00746957,-0.0002924,0.000217569,0,0,0,0,0.0637999,0.522037,-0.969988,36.0625,1,1069,151014
87,4,-0.675216,-0.0653038,9.78704,0.040634,-0.637984,0.954944,-0.00675558,-0.000660856,0.0978701,1,3.88249e-05,-1.75668e-05,1.619e-05,0.00776499,-0.00351336,0.00323801,0,0,0,0,0.0605223,0.521035,-0.966965,36.0625,1,1070,151114
87,5,-0.675216,-0.0653038,9.78704,0.040634,-0.637984,0.954944,-0.00675558,-0.000660856,0.0978701,1,3.88249e-05,-1.75668e-05,1.619e-05,0.00776499,-0.00351336,0.00323801,0,0,0,0,0.0605223,0.521035,-0.966965,36.0625,1,1070,151114
87,6,-0.678151,-0.0644279,9.79115,0.0394758,-0.64228,0.967169,-0.00678534,-0.000655095,0.0979111,1,5.4745e-05,-1.96007e-05,7.04974e-06,0.010949,-0.00392014,0.00140995,0,0,0,0,0.0592222,0.519015,-0.962458,36.0625,1,1071,151214
88,1,-0.678151,-0.0644279,9.79115,0.0394758,-0.64228,0.967169,-0.00678534,-0.000655095,0.0979111,1,5.4745e-05,-1.96007e-05,7.04974e-06,0.010949,-0.00392014,0.00140995,0,0,0,0,0.0592222,0.519015,-0.962458,36.0625,1,1071,151214
88,2,-0.681123,-0.0622828,9.79489,0.0357982,-0.640633,0.966442,-0.00681141,-0.000631815,0.0979488,1,4.4791e-05,-9.94913e-07,1.55512e-05,0.00895821,-0.000198983,0.00311024,0,0,0,0,0.0611353,0.521899,-0.960888,36.0625,1,1072,151314
89,1,-0.681123,-0.0622828,9.79489,0.0357982,-0.640633,0.966442,-0.00681141,-0.000631815,0.0979488,1,4.4791e-05,-9.94913e-07,1.55512e-05,0.00895821,-0.000198983,0.00311024,0,0,0,0,0.0611353,0.521899,-0.960888,36.0625,1,1072,151314
89,2,-0.66614,-0.059613,9.7877,0.0543102,-0.637407,0.958809,-0.0066636,-0.000607496,0.0978767,1,5.67195e-05,-1.13825e-05,1.97104e-05,0.0113439,-0.00227649,0.00394207,0,0,0,0,0.0639612,0.52481,-0.961342,36.0625,1,1073,151414
90,1,-0.66614,-0.059613,9.7877,0.0543102,-0.637407,0.958809,-0.0066636,-0.000607496,0.0978767,1,5.67195e-05,-1.13825e-05,1.97104e-05,0.0113439,-0.00227649,0.00394207,0,0,0,0,0.0639612,0.52481,-0.961342,36.0625,1,1073,151414
90,2,-0.67752,-0.0617255,9.80065,0.0371078,-0.640746,0.970946,-0.00677904,-0.000625,0.0980062,1,3.89815e-05,-1.96228e-05,7.74286e-06,0.0077963,-0.00392457,0.00154857,0,0,0,0,0.0633444,0.524914,-0.966892,36.0625,1,1074,151514
91,1,-0.67752,-0.0617255,9.80065,0.0371078,-0.640746,0.970946,-0.00677904,-0.000625,0.0980062,1,3.89815e-05,-1.96228e-05,7.74286e-06,0.0077963,-0.00392457,0.00154857,0,0,0,0,0.0633444,0.524914,-0.966892,36.0625,1,1074,151514
91,2,-0.669898,-0.0631555,9.77616,0.0440661,-0.64113,0.943844,-0.00670123,-0.000638284,0.0977614,1,3.32389e-05,-1.16118e-05,1.71549e-05,0.00664779,-0.00232236,0.00343097,0,0,0,0,0.0609175,0.52254,-0.969459,36.0625,1,1075,151614
91,3,-0.669898,-0.0631555,9.77616,0.0440661,-0.64113,0.943844,-0.00670123,-0.000638284,0.0977614,1,3.32389e-05,-1.16118e-05,1.71549e-05,0.00664779,-0.00232236,0.00343097,0,0,0,0,0.0609175,0.52254,-0.969459,36.0625,1,1075,151614
91,4,-0.648687,-0.0532865,9.78595,0.0666153,-0.633891,0.955965,-0.00649039,-0.000541666,0.0978593,1,4.39139e-05,-1.81029e-05,1.59085e-05,0.00878279,-0.00362058,0.00318169,0,0,0,0,0.0600573,0.520064,-0.966985,36.0625,1,1076,151714
91,5,-0.648687,-0.0532865,9.78595,0.0666153,-0.633891,0.955965,-0.00649039,-0.000541666,0.0978593,1,4.39139e-05,-1.81029e-05,1.59085e-05,0.00878279,-0.00362058,0.00318169,0,0,0,0,0.0600573,0.520064,-0.966985,36.0625,1,1076,151714
91,6,-0.673201,-0.0693659,9.78665,0.0435768,-0.653377,0.960186,-0.00673513,-0.000701283,0.0978662,1,3.78023e-05,-1.60393e-05,1.66968e-05,0.00756046,-0.00320787,0.00333937,0,0,0,0,0.061624,0.519962,-0.961944,36.0625,1,1077,151814
92,1,-0.673201,-0.0693659,9.78665,0.0435768,-0.653377,0.960186,-0.00673513,-0.000701283,0.0978662,1,3.78023e-05,-1.60393e-05,1.66968e-05,0.00756046,-0.00320787,0.00333937,0,0,0,0,0.061624,0.519962,-0.961944,36.0625,1,1077,151814
92,2,-0.669834,-0.0584302,9.79045,0.0490313,-0.634935,0.960311,-0.00670081,-0.000592183,0.0979043,1,3.95775e-05,-1.26678e-05,9.75826e-06,0.00791551,-0.00253356,0.00195165,0,0,0,0,0.0626398,0.520396,-0.959413,36.0625,1,1078,151914
92,3,-0.669834,-0.0584302,9.79045,0.0490313,-0.634935,0.960311,-0.00670081,-0.000592183,0.0979043,1,3.95775e-05,-1.26678e-05,9.75826e-06,0.00791551,-0.00253356,0.00195165,0,0,0,0,0.0626398,0.520396,-0.959413,36.0625,1,1078,151914
92,4,-0.66856,-0.0609568,9.78465,0.0466528,-0.636682,0.951632,-0.00668719,-0.000620579,0.0978463,1,5.48363e-05,-8.2479e-06,2.09584e-05,0.0109673,-0.00164958,0.00419168,0,0,0,0,0.0625867,0.521399,-0.960906,36.0625,1,1079,152014
92,5,-0.66856,-0.0609568,9.78465,0.0466528,-0.636682,0.951632,-0.00668719,-0.000620579,0.0978463,1,5.48363e-05,-8.2479e-06,2.09584e-05,0.0109673,-0.00164958,0.00419168,0,0,0,0,0.0625867,0.521399,-0.960906,36.0625,1,1079,152014
92,6,-0.663105,-0.0630301,9.78764,0.050593,-0.640681,0.956258,-0.00663259,-0.000640238,0.0978763,1,4.88366e-05,-8.07302e-06,2.84258e-05,0.00976733,-0.0016146,0.00568516,0,0,0,0,0.062916,0.52247,-0.966439,36.0625,1,1080,152114
93,1,-0.663105,-0.0630301,9.78764,0.050593,-0.640681,0.956258,-0.00663259,-0.000640238,0.0978763,1,4.88366e-05,-8.07302e-06,2.84258e-05,0.00976733,-0.0016146,0.00568516,0,0,0,0,0.062916,0.52247,-0.966439,36.0625,1,1080,152114
93,2,-0.666037,-0.0633,9.78666,0.0502761,-0.643415,0.957403,-0.00666323,-0.000636718,0.0978664,1,1.79915e-05,-1.47092e-05,1.47112e-05,0.00359829,-0.00294183,0.00294223,0,0,0,0,0.0618797,0.522532,-0.969463,36.0625,1,1081,152214
94,1,-0.666037,-0.0633,9.78666,0.0502761,-0.643415,0.957403,-0.00666323,-0.000636718,0.0978664,1,1.79915e-05,-1.47092e-05,1.47112e-05,0.00359829,-0.00294183,0.00294223,0,0,0,0,0.0618797,0.522532,-0.969463,36.0625,1,1081,152214
94,2,-0.67275,-0.0618277,9.79212,0.0428261,-0.641459,0.964736,-0.00672736,-0.000626983,0.0979212,1,4.31164e-05,5.90349e-07,1.94948e-05,0.00862328,0.00011807,0.00389897,0,0,0,0,0.0590334,0.520117,-0.969504,36.0625,1,1082,152314
94,3,-0.67275,-0.0618277,9.79212,0.0428261,-0.641459,0.964736,-0.00672736,-0.000626983,0.0979212,1,4.31164e-05,5.90349e-07,1.94948e-05,0.00862328,0.00011807,0.00389897,0,0,0,0,0.0590334,0.520117,-0.969504,36.0625,1,1082,152314
94,4,-0.671197,-0.0685894,9.79681,0.0452006,-0.650804,0.968566,-0.00671262,-0.000696467,0.097968,1,5.23999e-05,-3.48309e-06,2.27169e-05,0.01048,-0.000696618,0.00454339,0,0,0,0,0.0601717,0.517571,-0.96401,36.0625,1,1083,152414
94,5,-0.671197,-0.0685894,9.79681,0.0452006,-0.650804,0.968566,-0.00671262,-0.000696467,0.097968,1,5.23999e-05,-3.48309e-06,2.27169e-05,0.01048,-0.000696618,0.00454339,0,0,0,0,0.0601717,0.517571,-0.96401,36.0625,1,1083,152414
94,6,-0.666296,-0.0569584,9.7928,0.0511072,-0.636005,0.963834,-0.00666393,-0.000579238,0.0979279,1,4.8587e-05,-4.99745e-06,1.03605e-05,0.00971739,-0.00099949,0.00207211,0,0,0,0,0.0606784,0.52044,-0.960918,36.0625,1,1084,152514
94,7,-0.666296,-0.0569584,9.7928,0.0511072,-0.636005,0.963834,-0.00666393,-0.000579238,0.0979279,1,4.8587e-05,-4.99745e-06,1.03605e-05,0.00971739,-0.00099949,0.00207211,0,0,0,0,0.0606784,0.52044,-0.960918,36.0625,1,1084,152514
94,8,-0.677169,-0.0614373,9.79082,0.0404302,-0.642514,0.964816,-0.0067777,-0.000624111,0.0979077,1,4.88929e-05,-3.07573e-05,1.21409e-05,0.00977858,-0.00615147,0.00242819,0,0,0,0,0.0615267,0.52437,-0.962855,36.0625,1,1085,152614
95,1,-0.677169,-0.0614373,9.79082,0.0404302,-0.642514,0.964816,-0.0067777,-0.000624111,0.0979077,1,4.88929e-05,-3.07573e-05,1.21409e-05,0.00977858,-0.00615147,0.00242819,0,0,0,0,0.0615267,0.52437,-0.962855,36.0625,1,1085,152614
95,2,-0.672752,-0.0662229,9.7955,0.0447326,-0.645644,0.966947,-0.00673164,-0.000670753,0.0979546,1,4.30364e-05,-2.10608e-05,6.89761e-06,0.00860728,-0.00421217,0.00137952,0,0,0,0,0.0623575,0.52494,-0.967897,36.0625,1,1086,152714
95,3,-0.672752,-0.0662229,9.7955,0.0447326,-0.645644,0.966947,-0.00673164,-0.000670753,0.0979546,1,4.30364e-05,-2.10608e-05,6.89761e-06,0.00860728,-0.00421217,0.00137952,0,0,0,0,0.0623575,0.52494,-0.967897,36.0625,1,1086,152714
95,4,-0.671925,-0.0690475,9.7907,0.0414617,-0.649523,0.96004,-0.0067204,-0.000697249,0.0979069,1,3.34307e-05,-6.01425e-06,1.69372e-05,0.00668614,-0.00120285,0.00338744,0,0,0,0,0.0623851,0.521065,-0.969498,36.0625,1,1087,152814
96,1,-0.671925,-0.0690475,9.7907,0.0414617,-0.649523,0.96004,-0.0067204,-0.000697249,0.0979069,1,3.34307e-05,-6.01425e-06,1.69372e-05,0.00668614,-0.00120285,0.00338744,0,0,0,0,0.0623851,0.521065,-0.969498,36.0625,1,1087,152814
96,2,-0.674577,-0.0595059,9.79319,0.0393937,-0.641055,0.962676,-0.00674885,-0.000604179,0.0979316,1,4.63053e-05,-1.57655e-05,3.7346e-06,0.00926107,-0.00315309,0.000746919,0,0,0,0,0.0605422,0.519093,-0.967514,36.0625,1,1088,152914
96,3,-0.674577,-0.0595059,9.79319,0.0393937,-0.641055,0.962676,-0.00674885,-0.000604179,0.0979316,1,4.63053e-05,-1.57655e-05,3.7346e-06,0.00926107,-0.00315309,0.000746919,0,0,0,0,0.0605422,0.519093,-0.967514,36.0625,1,1088,152914
96,4,-0.664673,-0.0620545,9.78903,0.0512666,-0.643739,0.955914,-0.00665077,-0.000630595,0.09789,1,5.07067e-05,-2.0698e-05,9.25919e-06,0.0101413,-0.0041396,0.00185184,0,0,0,0,0.0596867,0.518542,-0.963481,36.0625,1,1089,153014
96,5,-0.664673,-0.0620545,9.78903,0.0512666,-0.643739,0.955914,-0.00665077,-0.000630595,0.09789,1,5.07067e-05,-2.0698e-05,9.25919e-06,0.0101413,-0.0041396,0.00185184,0,0,0,0,0.0596867,0.518542,-0.963481,36.0625,1,1089,153014
96,6,-0.667129,-0.0663786,9.79274,0.047835,-0.64813,0.965473,-0.00667336,-0.000670241,0.0979272,1,3.17654e-05,-1.06546e-05,1.75574e-05,0.00635308,-0.00213092,0.00351149,0,0,0,0,0.0606537,0.520458,-0.961928,36.0625,1,1090,153114
97,1,-0.667129,-0.0663786,9.79274,0.047835,-0.64813,0.965473,-0.00667336,-0.000670241,0.0979272,1,3.17654e-05,-1.06546e-05,1.75574e-05,0.00635308,-0.00213092,0.00351149,0,0,0,0,0.0606537,0.520458,-0.961928,36.0625,1,1090,153114
97,2,-0.672567,-0.0586967,9.78911,0.0420259,-0.640657,0.961102,-0.0067291,-0.000595806,0.0978908,1,4.49754e-05,-1.75537e-05,2.50538e-06,0.00899508,-0.00351073,0.000501076,0,0,0,0,0.0624927,0.523395,-0.963386,36.0625,1,1091,153214
97,3,-0.672567,-0.0586967,9.78911,0.0420259,-0.640657,0.961102,-0.0067291,-0.000595806,0.0978908,1,4.49754e-05,-1.75537e-05,2.50538e-06,0.00899508,-0.00351073,0.000501076,0,0,0,0,0.0624927,0.523395,-0.963386,36.0625,1,1091,153214
97,4,-0.668166,-0.0696634,9.79474,0.0475756,-0.651235,0.965615,-0.00668225,-0.00070598,0.0979473,1,4.67486e-05,-3.09056e-06,1.40613e-05,0.00934972,-0.000618113,0.00281225,0,0,0,0,0.0628509,0.524927,-0.967394,36.0625,1,1092,153314
98,1,-0.668166,-0.0696634,9.79474,0.0475756,-0.651235,0.965615,-0.00668225,-0.00070598,0.0979473,1,4.67486e-05,-3.09056e-06,1.40613e-05,0.00934972,-0.000618113,0.00281225,0,0,0,0,0.0628509,0.524927,-0.967394,36.0625,1,1092,153314
98,2,-0.668814,-0.0653762,9.79072,0.0497918,-0.648234,0.958229,-0.0066902,-0.000663644,0.097907,1,4.88683e-05,-1.06467e-05,2.3423e-05,0.00977366,-0.00212934,0.00468459,0,0,0,0,0.062414,0.521525,-0.967973,36.0625,1,1093,153414
98,3,-0.668814,-0.0653762,9.79072,0.0497918,-0.648234,0.958229,-0.0066902,-0.000663644,0.097907,1,4.88683e-05,-1.06467e-05,2.3423e-05,0.00977366,-0.00212934,0.00468459,0,0,0,0,0.062414,0.521525,-0.967973,36.0625,1,1093,153414
98,4,-0.674892,-0.0618424,9.7908,0.0433262,-0.650062,0.958967,-0.00675248,-0.00062855,0.0979077,1,5.05037e-05,-1.83008e-05,1.7546e-05,0.0101007,-0.00366017,0.0035092,0,0,0,0,0.0615453,0.518092,-0.96653,36.0625,1,1094,153514
98,5,-0.674892,-0.0618424,9.7908,0.0433262,-0.650062,0.958967,-0.00675248,-0.00062855,0.0979077,1,5.05037e-05,-1.83008e-05,1.7546e-05,0.0101007,-0.00366017,0.0035092,0,0,0,0,0.0615453,0.518092,-0.96653,36.0625,1,1094,153514
98,6,-0.670182,-0.0667808,9.7853,0.0473239,-0.651261,0.956775,-0.00670354,-0.000678137,0.0978528,1,5.14575e-05,-8.90889e-06,1.9254e-05,0.0102915,-0.00178178,0.0038508,0,0,0,0,0.0616525,0.518977,-0.96146,36.0625,1,1095,153614
99,1,-0.670182,-0.0667808,9.7853,0.0473239,-0.651261,0.956775,-0.00670354,-0.000678137,0.0978528,1,5.14575e-05,-8.90889e-06,1.9254e-05,0.0102915,-0.00178178,0.0038508,0,0,0,0,0.0616525,0.518977,-0.96146,36.0625,1,1095,153614
99,2,-0.666457,-0.0638598,9.79004,0.0469854,-0.647684,0.960893,-0.0066652,-0.000646002,0.0979003,1,3.6426e-05,-3.35099e-06,2.03902e-05,0.0072852,-0.000670198,0.00407804,0,0,0,0,0.0626156,0.52186,-0.959381,36.0625,1,1096,153714
99,3,-0.666457,-0.0638598,9.79004,0.0469854,-0.647684,0.960893,-0.0066652,-0.000646002,0.0979003,1,3.6426e-05,-3.35099e-06,2.03902e-05,0.0072852,-0.000670198,0.00407804,0,0,0,0,0.0626156,0.52186,-0.959381,36.0625,1,1096,153714
99,4,-0.673542,-0.0675733,9.78836,0.0401617,-0.652061,0.956666,-0.00673807,-0.000685537,0.0978833,1,4.86914e-05,-1.37054e-05,2.02135e-05,0.00973828,-0.00274108,0.00404269,0,0,0,0,0.0644708,0.523822,-0.960861,36.0625,1,1097,153814
100,1,-0.673542,-0.0675733,9.78836,0.0401617,-0.652061,0.956666,-0.00673807,-0.000685537,0.0978833,1,4.86914e-05,-1.37054e-05,2.02135e-05,0.00973828,-0.00274108,0.00404269,0,0,0,0,0.0644708,0.523822,-0.960861,36.0625,1,1097,153814
100,2,-0.667559,-0.0543989,9.79284,0.0452903,-0.638253,0.958367,-0.00667664,-0.000551263,0.0979283,1,3.62732e-05,-5.41649e-06,1.26789e-05,0.00725464,-0.0010833,0.00253579,0,0,0,0,0.0638663,0.523916,-0.965907,36.0625,3,1098,153914
100,3,-0.667559,-0.0543989,9.79284,0.0452903,-0.638253,0.958367,-0.00667664,-0.000551263,0.0979283,1,3.62732e-05,-5.41649e-06,1.26789e-05,0.00725464,-0.0010833,0.00253579,0,0,0,0,0.0638663,0.523916,-0.965907,36.0625,3,1098,153914
100,4,-0.664654,-0.0699384,9.79269,0.0415355,-0.655236,0.960016,-0.00664954,-0.000707962,0.0979266,1,4.3111e-05,-1.54036e-05,1.01312e-05,0.0086222,-0.00308072,0.00202623,0,0,0,0,0.062377,0.521552,-0.969488,36.0625,3,1099,154014
100,5,-0.664654,-0.0699384,9.79269,0.0415355,-0.655236,0.960016,-0.00664954,-0.000707962,0.0979266,1,4.3111e-05,-1.54036e-05,1.01312e-05,0.0086222,-0.00308072,0.00202623,0,0,0,0,0.062377,0.521552,-0.969488,36.0625,3,1099,154014
100,6,-0.676847,-0.0727141,9.7897,0.0355992,-0.661696,0.960505,-0.00677109,-0.000737225,0.0978968,1,5.07013e-05,-1.3491e-05,1.16041e-05,0.0101403,-0.0026982,0.00232082,0,0,0,0,0.0610029,0.519586,-0.96801,36.0625,3,1100,154114
101,1,-0.676847,-0.0727141,9.7897,0.0355992,-0.661696,0.960505,-0.00677109,-0.000737225,0.0978968,1,5.07013e-05,-1.3491e-05,1.16041e-05,0.0101403,-0.0026982,0.00232082,0,0,0,0,0.0610029,0.519586,-0.96801,36.0625,3,1100,154114
101,2,-0.667842,-0.063729,9.78733,0.0486274,-0.648015,0.956955,-0.00668079,-0.000647795,0.0978731,1,5.23403e-05,-1.22244e-05,1.93921e-05,0.0104681,-0.00244488,0.00387842,0,0,0,0,0.0611671,0.518502,-0.961974,36.0625,3,1101,154214
101,3,-0.667842,-0.063729,9.78733,0.0486274,-0.648015,0.956955,-0.00668079,-0.000647795,0.0978731,1,5.23403e-05,-1.22244e-05,1.93921e-05,0.0104681,-0.00244488,0.00387842,0,0,0,0,0.0611671,0.518502,-0.961974,36.0625,3,1101,154214
101,4,-0.662841,-0.0668319,9.78557,0.0497497,-0.654226,0.952039,-0.00662933,-0.000677815,0.0978556,1,4.79444e-05,-4.7463e-06,8.55546e-06,0.00958888,-0.00094926,0.00171109,0,0,0,0,0.0602219,0.520425,-0.959906,36.0625,3,1102,154314
102,1,-0.662841,-0.0668319,9.78557,0.0497497,-0.654226,0.952039,-0.00662933,-0.000677815,0.0978556,1,4.79444e-05,-4.7463e-06,8.55546e-06,0.00958888,-0.00094926,0.00171109,0,0,0,0,0.0602219,0.520425,-0.959906,36.0625,3,1102,154314
102,2,-0.671261,-0.0617685,9.78873,0.0431902,-0.650895,0.956021,-0.00671367,-0.000626996,0.0978872,1,4.61452e-05,-5.54132e-06,2.06045e-05,0.00922904,-0.00110826,0.0041209,0,0,0,0,0.0615879,0.522879,-0.961373,36.0625,3,1103,154414
102,3,-0.671261,-0.0617685,9.78873,0.0431902,-0.650895,0.956021,-0.00671367,-0.000626996,0.0978872,1,4.61452e-05,-5.54132e-06,2.06045e-05,0.00922904,-0.00110826,0.0041209,0,0,0,0,0.0615879,0.522879,-0.961373,36.0625,3,1103,154414
102,4,-0.676621,-0.0751713,9.79102,0.0414258,-0.663511,0.956243,-0.00676577,-0.000761446,0.0979102,1,4.87399e-05,2.11419e-06,1.39398e-05,0.00974798,0.000422837,0.00278795,0,0,0,0,0.0638744,0.523428,-0.965917,36.0625,3,1104,154514
102,5,-0.676621,-0.0751713,9.79102,0.0414258,-0.663511,0.956243,-0.00676577,-0.000761446,0.0979102,1,4.87399e-05,2.11419e-06,1.39398e-05,0.00974798,0.000422837,0.00278795,0,0,0,0,0.0638744,0.523428,-0.965917,36.0625,3,1104,154514
102,6,-0.680625,-0.0679798,9.78942,0.0340939,-0.655411,0.958142,-0.00681008,-0.0006895,0.0978939,1,4.86505e-05,-1.96693e-05,1.29641e-05,0.00973009,-0.00393387,0.00259283,0,0,0,0,0.0628913,0.522488,-0.967449,36.0625,3,1105,154614
103,1,-0.680625,-0.0679798,9.78942,0.0340939,-0.655411,0.958142,-0.00681008,-0.0006895,0.0978939,1,4.86505e-05,-1.96693e-05,1.29641e-05,0.00973009,-0.00393387,0.00259283,0,0,0,0,0.0628913,0.522488,-0.967449,36.0625,3,1105,154614
103,2,-0.665365,-0.0603401,9.79278,0.0469389,-0.647893,0.955705,-0.00665609,-0.000613896,0.0979276,1,5.22678e-05,-1.25561e-05,1.93806e-05,0.0104536,-0.00251122,0.00387611,0,0,0,0,0.0606039,0.519048,-0.964989,36.0625,3,1106,154714
104,1,-0.665365,-0.0603401,9.79278,0.0469389,-0.647893,0.955705,-0.00665609,-0.000613896,0.0979276,1,5.22678e-05,-1.25561e-05,1.93806e-05,0.0104536,-0.00251122,0.00387611,0,0,0,0,0.0606039,0.519048,-0.964989,36.0625,3,1106,154714
104,2,-0.666865,-0.0652124,9.79003,0.0458594,-0.653041,0.959884,-0.00666964,-0.000662084,0.0979001,1,4.94289e-05,-5.20628e-06,2.11654e-05,0.00988579,-0.00104126,0.00423308,0,0,0,0,0.0597237,0.518515,-0.961967,36.0625,3,1107,154814
105,1,-0.666865,-0.0652124,9.79003,0.0458594,-0.653041,0.959884,-0.00666964,-0.000662084,0.0979001,1,4.94289e-05,-5.20628e-06,2.11654e-05,0.00988579,-0.00104126,0.00423308,0,0,0,0,0.0597237,0.518515,-0.961967,36.0625,3,1107,154814
105,2,-0.668377,-0.057468,9.78503,0.042254,-0.648294,0.953193,-0.00668809,-0.000585473,0.0978499,1,5.35625e-05,-2.22022e-05,2.32418e-05,0.0107125,-0.00444044,0.00464837,0,0,0,0,0.0601977,0.521889,-0.959874,36.0625,3,1108,154914
106,1,-0.668377,-0.057468,9.78503,0.042254,-0.648294,0.953193,-0.00668809,-0.000585473,0.0978499,1,5.35625e-05,-2.22022e-05,2.32418e-05,0.0107125,-0.00444044,0.00464837,0,0,0,0,0.0601977,0.521889,-0.959874,36.0625,3,1108,154914
106,2,-0.665311,-0.0624469,9.78461,0.0506727,-0.652487,0.950452,-0.00665361,-0.00063231,0.097846,1,3.79604e-05,-2.7362e-06,3.10339e-05,0.00759208,-0.000547241,0.00620678,0,0,0,0,0.0620363,0.523381,-0.962374,36.0625,3,1109,155014
106,3,-0.665311,-0.0624469,9.78461,0.0506727,-0.652487,0.950452,-0.00665361,-0.00063231,0.097846,1,3.79604e-05,-2.7362e-06,3.10339e-05,0.00759208,-0.000547241,0.00620678,0,0,0,0,0.0620363,0.523381,-0.962374,36.0625,3,1109,155014
106,4,-0.674653,-0.0746258,9.79273,0.0408816,-0.668811,0.954705,-0.00675128,-0.000754023,0.0979269,1,3.82272e-05,-2.43934e-05,2.06508e-05,0.00764543,-0.00487869,0.00413015,0,0,0,0,0.0633401,0.524435,-0.967408,36.0625,3,1110,155114
106,5,-0.674653,-0.0746258,9.79273,0.0408816,-0.668811,0.954705,-0.00675128,-0.000754023,0.0979269,1,3.82272e-05,-2.43934e-05,2.06508e-05,0.00764543,-0.00487869,0.00413015,0,0,0,0,0.0633401,0.524435,-0.967408,36.0625,3,1110,155114
106,6,-0.665835,-0.0665851,9.79611,0.04468,-0.658634,0.96276,-0.00665954,-0.00067452,0.0979609,1,4.33865e-05,-6.17622e-06,1.26497e-05,0.00867731,-0.00123524,0.00252993,0,0,0,0,0.0633477,0.522502,-0.968461,36.0625,3,1111,155214
106,7,-0.665835,-0.0665851,9.79611,0.04468,-0.658634,0.96276,-0.00665954,-0.00067452,0.0979609,1,4.33865e-05,-6.17622e-06,1.26497e-05,0.00867731,-0.00123524,0.00252993,0,0,0,0,0.0633477,0.522502,-0.968461,36.0625,3,1111,155214
106,8,-0.668861,-0.0591473,9.79111,0.043378,-0.651238,0.958078,-0.00669049,-0.000599849,0.0979109,1,4.1794e-05,-9.6767e-06,1.42714e-05,0.0083588,-0.00193534,0.00285429,0,0,0,0,0.0610157,0.521022,-0.966463,36.0625,3,1112,155314
106,9,-0.668861,-0.0591473,9.79111,0.043378,-0.651238,0.958078,-0.00669049,-0.000599849,0.0979109,1,4.1794e-05,-9.6767e-06,1.42714e-05,0.0083588,-0.00193534,0.00285429,0,0,0,0,0.0610157,0.521022,-0.966463,36.0625,3,1112,155314
106,10,-0.66404,-0.0623771,9.77986,0.046875,-0.655583,0.948551,-0.00664471,-0.000631468,0.0977983,1,3.86965e-05,-2.20741e-05,9.61505e-06,0.0077393,-0.00441482,0.00192301,0,0,0,0,0.0601726,0.520462,-0.961926,36.0625,3,1113,155414
106,11,-0.66404,-0.0623771,9.77986,0.046875,-0.655583,0.948551,-0.00664471,-0.000631468,0.0977983,1,3.86965e-05,-2.20741e-05,9.61505e-06,0.0077393,-0.00441482,0.00192301,0,0,0,0,0.0601726,0.520462,-0.961926,36.0625,3,1113,155414
106,12,-0.671169,-0.0641418,9.79346,0.0421313,-0.65206,0.959279,-0.00671362,-0.000651061,0.0979344,1,4.82797e-05,-9.95237e-06,1.39214e-05,0.00965595,-0.00199047,0.00278427,0,0,0,0,0.0621345,0.521864,-0.959378,36.0625,3,1114,155514
107,1,-0.671169,-0.0641418,9.79346,0.0421313,-0.65206,0.959279,-0.00671362,-0.000651061,0.0979344,1,4.82797e-05,-9.95237e-06,1.39214e-05,0.00965595,-0.00199047,0.00278427,0,0,0,0,0.0621345,0.521864,-0.959378,36.0625,3,1114,155514
107,2,-0.66409,-0.0697067,9.79335,0.055515,-0.658629,0.957824,-0.00664088,-0.000705677,0.0979335,1,4.212e-05,-1.02678e-07,2.71108e-05,0.008424,-2.05356e-05,0.00542216,0,0,0,0,0.0644419,0.523361,-0.962386,36.0625,3,1115,155614
107,3,-0.66409,-0.0697067,9.79335,0.055515,-0.658629,0.957824,-0.00664088,-0.000705677,0.0979335,1,4.212e-05,-1.02678e-07,2.71108e-05,0.008424,-2.05356e-05,0.00542216,0,0,0,0,0.0644419,0.523361,-0.962386,36.0625,3,1115,155614
107,4,-0.674459,-0.0597794,9.79353,0.0400859,-0.653926,0.961016,-0.00674854,-0.00060718,0.097935,1,4.65609e-05,-2.02799e-05,1.97437e-05,0.00931218,-0.00405598,0.00394875,0,0,0,0,0.0643351,0.523921,-0.966414,36.0625,3,1116,155714
107,5,-0.674459,-0.0597794,9.79353,0.0400859,-0.653926,0.961016,-0.00674854,-0.00060718,0.097935,1,4.65609e-05,-2.02799e-05,1.97437e-05,0.00931218,-0.00405598,0.00394875,0,0,0,0,0.0643351,0.523921,-0.966414,36.0625,3,1116,155714
107,6,-0.671269,-0.0665419,9.79106,0.0407767,-0.660703,0.956385,-0.00671257,-0.000675218,0.0979106,1,4.86709e-05,4.677e-07,1.99769e-05,0.00973418,9.354e-05,0.00399538,0,0,0,0,0.0624183,0.522004,-0.967457,36.0625,3,1117,155814
107,7,-0.671269,-0.0665419,9.79106,0.0407767,-0.660703,0.956385,-0.00671257,-0.000675218,0.0979106,1,4.86709e-05,4.677e-07,1.99769e-05,0.00973418,9.354e-05,0.00399538,0,0,0,0,0.0624183,0.522004,-0.967457,36.0625,3,1117,155814
107,8,-0.669749,-0.0703187,9.78865,0.0396954,-0.667212,0.956118,-0.00670039,-0.000712306,0.0978863,1,4.61825e-05,-1.48768e-05,5.79829e-06,0.0092365,-0.00297536,0.00115966,0,0,0,0,0.0596046,0.519083,-0.966499,36.0625,3,1118,155914
108,1,-0.669749,-0.0703187,9.78865,0.0396954,-0.667212,0.956118,-0.00670039,-0.000712306,0.0978863,1,4.61825e-05,-1.48768e-05,5.79829e-06,0.0092365,-0.00297536,0.00115966,0,0,0,0,0.0596046,0.519083,-0.966499,36.0625,3,1118,155914
108,2,-0.6638,-0.0624457,9.78698,0.0460095,-0.657386,0.956311,-0.00663979,-0.000632501,0.0978696,1,4.1334e-05,-9.12138e-06,-3.55946e-06,0.00826679,-0.00182428,-0.000711892,0,0,0,0,0.0606694,0.518037,-0.962992,36.0625,3,1119,156014
108,3,-0.6638,-0.0624457,9.78698,0.0460095,-0.657386,0.956311,-0.00663979,-0.000632501,0.0978696,1,4.1334e-05,-9.12138e-06,-3.55946e-06,0.00826679,-0.00182428,-0.000711892,0,0,0,0,0.0606694,0.518037,-0.962992,36.0625,3,1119,156014
108,4,-0.668708,-0.0667637,9.79003,0.0448082,-0.660431,0.955357,-0.00669066,-0.000679542,0.0979,1,5.95655e-05,-1.84049e-05,1.80918e-05,0.0119131,-0.00368098,0.00361835,0,0,0,0,0.0611063,0.521438,-0.962413,36.0625,3,1120,156114
108,5,-0.668708,-0.0667637,9.79003,0.0448082,-0.660431,0.955357,-0.00669066,-0.000679542,0.0979,1,5.95655e-05,-1.84049e-05,1.80918e-05,0.0119131,-0.00368098,0.00361835,0,0,0,0,0.0611063,0.521438,-0.962413,36.0625,3,1120,156114
108,6,-0.678186,-0.0710672,9.79345,0.03169,-0.665781,0.960296,-0.00678652,-0.000721196,0.0979341,1,5.20924e-05,-2.39929e-05,2.36502e-05,0.0104185,-0.00479857,0.00473004,0,0,0,0,0.0624766,0.524371,-0.963365,36.0625,3,1121,156214
108,7,-0.678186,-0.0710672,9.79345,0.03169,-0.665781,0.960296,-0.00678652,-0.000721196,0.0979341,1,5.20924e-05,-2.39929e-05,2.36502e-05,0.0104185,-0.00479857,0.00473004,0,0,0,0,0.0624766,0.524371,-0.963365,36.0625,3,1121,156214
108,8,-0.668108,-0.0767584,9.79163,0.0442326,-0.673079,0.954847,-0.00668154,-0.00077785,0.0979162,1,5.15077e-05,-2.47895e-06,1.33925e-05,0.0103015,-0.00049579,0.00267849,0,0,0,0,0.0628756,0.524909,-0.966385,36.0625,3,1122,156314
108,9,-0.668108,-0.0767584,9.79163,0.0442326,-0.673079,0.954847,-0.00668154,-0.00077785,0.0979162,1,5.15077e-05,-2.47895e-06,1.33925e-05,0.0103015,-0.00049579,0.00267849,0,0,0,0,0.0628756,0.524909,-0.966385,36.0625,3,1122,156314
108,10,-0.677271,-0.0641022,9.78571,0.035056,-0.66153,0.95242,-0.00677548,-0.000651288,0.0978568,1,5.12526e-05,-1.42475e-05,1.73243e-05,0.0102505,-0.0028495,0.00346486,0,0,0,0,0.0609668,0.522504,-0.96744,36.0625,3,1123,156414
108,11,-0.677271,-0.0641022,9.78571,0.035056,-0.66153,0.95242,-0.00677548,-0.000651288,0.0978568,1,5.12526e-05,-1.42475e-05,1.73243e-05,0.0102505,-0.0028495,0.00346486,0,0,0,0,0.0609668,0.522504,-0.96744,36.0625,3,1123,156414
108,12,-0.673302,-0.0567356,9.79421,0.0388152,-0.656751,0.960197,-0.00673386,-0.00057606,0.097942,1,4.31408e-05,-4.41633e-06,1.88163e-05,0.00862816,-0.000883267,0.00376326,0,0,0,0,0.0591278,0.519566,-0.965981,36.0625,3,1124,156514
109,1,-0.673302,-0.0567356,9.79421,0.0388152,-0.656751,0.960197,-0.00673386,-0.00057606,0.097942,1,4.31408e-05,-4.41633e-06,1.88163e-05,0.00862816,-0.000883267,0.00376326,0,0,0,0,0.0591278,0.519566,-0.965981,36.0625,3,1124,156514
109,2,-0.669764,-0.0700158,9.79239,0.0430909,-0.664601,0.96097,-0.0066991,-0.000709332,0.0979237,1,4.57765e-05,-7.55089e-06,1.55939e-05,0.00915529,-0.00151018,0.00311877,0,0,0,0,0.0597527,0.518975,-0.960442,36.0625,3,1125,156614
109,3,-0.669764,-0.0700158,9.79239,0.0430909,-0.664601,0.96097,-0.0066991,-0.000709332,0.0979237,1,4.57765e-05,-7.55089e-06,1.55939e-05,0.00915529,-0.00151018,0.00311877,0,0,0,0,0.0597527,0.518975,-0.960442,36.0625,3,1125,156614
109,4,-0.670402,-0.0647299,9.79041,0.0415636,-0.663695,0.96153,-0.00670808,-0.000658295,0.0979037,1,5.49647e-05,-2.08637e-05,1.73542e-05,0.0109929,-0.00417274,0.00347084,0,0,0,0,0.0626199,0.522339,-0.958865,36.0625,3,1126,156714
109,5,-0.670402,-0.0647299,9.79041,0.0415636,-0.663695,0.96153,-0.00670808,-0.000658295,0.0979037,1,5.49647e-05,-2.08637e-05,1.73542e-05,0.0109929,-0.00417274,0.00347084,0,0,0,0,0.0626199,0.522339,-0.958865,36.0625,3,1126,156714
109,6,-0.66783,-0.0637019,9.78802,0.0398235,-0.659952,0.954057,-0.00668012,-0.000646317,0.09788,1,4.59533e-05,-9.45462e-06,2.26163e-05,0.00919067,-0.00189092,0.00452326,0,0,0,0,0.0639816,0.524314,-0.960848,36.0625,3,1127,156814
109,7,-0.66783,-0.0637019,9.78802,0.0398235,-0.659952,0.954057,-0.00668012,-0.000646317,0.09788,1,4.59533e-05,-9.45462e-06,2.26163e-05,0.00919067,-0.00189092,0.00452326,0,0,0,0,0.0639816,0.524314,-0.960848,36.0625,3,1127,156814
109,8,-0.667205,-0.0685534,9.7944,0.0396844,-0.671127,0.959106,-0.0066716,-0.000696045,0.097944,1,5.34337e-05,2.27267e-06,3.27651e-06,0.0106867,0.000454534,0.000655302,0,0,0,0,0.062896,0.524412,-0.965891,36.0625,3,1128,156914
110,1,-0.667205,-0.0685534,9.7944,0.0396844,-0.671127,0.959106,-0.0066716,-0.000696045,0.097944,1,5.34337e-05,2.27267e-06,3.27651e-06,0.0106867,0.000454534,0.000655302,0,0,0,0,0.062896,0.524412,-0.965891,36.0625,3,1128,156914
110,2,-0.681421,-0.0616435,9.79049,0.0341938,-0.662231,0.952425,-0.00681629,-0.000628798,0.0979047,1,6.20484e-05,-1.06857e-05,1.56854e-05,0.0124097,-0.00213713,0.00313709,0,0,0,0,0.0618755,0.522053,-0.969979,36.0625,3,1129,157014
110,3,-0.681421,-0.0616435,9.79049,0.0341938,-0.662231,0.952425,-0.00681629,-0.000628798,0.0979047,1,6.20484e-05,-1.06857e-05,1.56854e-05,0.0124097,-0.00213713,0.00313709,0,0,0,0,0.0618755,0.522053,-0.969979,36.0625,3,1129,157014
110,4,-0.672494,-0.0613097,9.79418,0.0384046,-0.663098,0.961588,-0.00672745,-0.000618428,0.0979416,1,2.62596e-05,-1.28577e-05,1.38934e-05,0.00525193,-0.00257155,0.00277868,0,0,0,0,0.0600981,0.51907,-0.965997,36.0625,3,1130,157114
110,5,-0.672494,-0.0613097,9.79418,0.0384046,-0.663098,0.961588,-0.00672745,-0.000618428,0.0979416,1,2.62596e-05,-1.28577e-05,1.38934e-05,0.00525193,-0.00257155,0.00277868,0,0,0,0,0.0600981,0.51907,-0.965997,36.0625,3,1130,157114
110,6,-0.683086,-0.0632169,9.7905,0.0275796,-0.666069,0.962351,-0.00683229,-0.000642005,0.0979048,1,5.04628e-05,-7.27191e-06,-3.32882e-06,0.0100926,-0.00145438,-0.000665765,0,0,0,0,0.0602172,0.518501,-0.961464,36.0625,3,1131,157214
111,1,-0.683086,-0.0632169,9.7905,0.0275796,-0.666069,0.962351,-0.00683229,-0.000642005,0.0979048,1,5.04628e-05,-7.27191e-06,-3.32882e-06,0.0100926,-0.00145438,-0.000665765,0,0,0,0,0.0602172,0.518501,-0.961464,36.0625,3,1131,157214
111,2,-0.666352,-0.0651028,9.79342,0.0480706,-0.663258,0.962702,-0.00666755,-0.000661908,0.0979339,1,5.40094e-05,-2.07418e-05,2.25886e-05,0.0108019,-0.00414836,0.00451772,0,0,0,0,0.0606542,0.521903,-0.960886,36.0625,3,1132,157314
111,3,-0.666352,-0.0651028,9.79342,0.0480706,-0.663258,0.962702,-0.00666755,-0.000661908,0.0979339,1,5.40094e-05,-2.07418e-05,2.25886e-05,0.0108019,-0.00414836,0.00451772,0,0,0,0,0.0606542,0.521903,-0.960886,36.0625,3,1132,157314
111,4,-0.668252,-0.0653932,9.78732,0.0430215,-0.666586,0.954442,-0.00668252,-0.000664102,0.0978731,1,5.22658e-05,3.16883e-08,-4.52066e-06,0.0104532,6.33767e-06,-0.000904132,0,0,0,0,0.062534,0.523847,-0.961356,36.0625,3,1133,157414
111,5,-0.668252,-0.0653932,9.78732,0.0430215,-0.666586,0.954442,-0.00668252,-0.000664102,0.0978731,1,5.22658e-05,3.16883e-08,-4.52066e-06,0.0104532,6.33767e-06,-0.000904132,0,0,0,0,0.062534,0.523847,-0.961356,36.0625,3,1133,157414
111,6,-0.674989,-0.0657253,9.78567,0.0386934,-0.667746,0.950052,-0.00675193,-0.000669254,0.0978565,1,6.07967e-05,-1.04903e-05,7.58305e-06,0.0121593,-0.00209807,0.00151661,0,0,0,0,0.062423,0.523928,-0.9659,36.0625,3,1134,157514
112,1,-0.674989,-0.0657253,9.78567,0.0386934,-0.667746,0.950052,-0.00675193,-0.000669254,0.0978565,1,6.07967e-05,-1.04903e-05,7.58305e-06,0.0121593,-0.00209807,0.00151661,0,0,0,0,0.062423,0.523928,-0.9659,36.0625,3,1134,157514
112,2,-0.665865,-0.0656718,9.78391,0.0433215,-0.669046,0.949717,-0.00665863,-0.000663549,0.0978391,1,3.39691e-05,-1.68421e-08,1.38784e-05,0.00679383,-3.36841e-06,0.00277568,0,0,0,0,0.0609664,0.521058,-0.968482,36.0625,3,1135,157614
112,3,-0.665865,-0.0656718,9.78391,0.0433215,-0.669046,0.949717,-0.00665863,-0.000663549,0.0978391,1,3.39691e-05,-1.68421e-08,1.38784e-05,0.00679383,-3.36841e-06,0.00277568,0,0,0,0,0.0609664,0.521058,-0.968482,36.0625,3,1135,157614
112,4,-0.679652,-0.0649288,9.78876,0.0319182,-0.670874,0.956151,-0.00679905,-0.000657101,0.0978874,1,3.94491e-05,-1.29786e-05,6.57132e-06,0.00788981,-0.00259571,0.00131426,0,0,0,0,0.0596089,0.519562,-0.965984,36.0625,3,1136,157714
112,5,-0.679652,-0.0649288,9.78876,0.0319182,-0.670874,0.956151,-0.00679905,-0.000657101,0.0978874,1,3.94491e-05,-1.29786e-05,6.57132e-06,0.00788981,-0.00259571,0.00131426,0,0,0,0,0.0596089,0.519562,-0.965984,36.0625,3,1136,157714
112,6,-0.67898,-0.0590627,9.7939,0.0295837,-0.662859,0.961324,-0.00679281,-0.000601,0.0979387,1,5.19324e-05,-1.54525e-05,1.47745e-05,0.0103865,-0.00309051,0.00295489,0,0,0,0,0.0606945,0.519464,-0.96094,36.0625,3,1137,157814
112,7,-0.67898,-0.0590627,9.7939,0.0295837,-0.662859,0.961324,-0.00679281,-0.000601,0.0979387,1,5.19324e-05,-1.54525e-05,1.47745e-05,0.0103865,-0.00309051,0.00295489,0,0,0,0,0.0606945,0.519464,-0.96094,36.0625,3,1137,157814
112,8,-0.670131,-0.068311,9.78935,0.0415139,-0.671819,0.95512,-0.00670471,-0.00069182,0.0978932,1,4.36175e-05,-1.74493e-05,1.27388e-05,0.0087235,-0.00348986,0.00254776,0,0,0,0,0.060703,0.520422,-0.959909,36.0625,3,1138,157914
112,9,-0.670131,-0.068311,9.78935,0.0415139,-0.671819,0.95512,-0.00670471,-0.00069182,0.0978932,1,4.36175e-05,-1.74493e-05,1.27388e-05,0.0087235,-0.00348986,0.00254776,0,0,0,0,0.060703,0.520422,-0.959909,36.0625,3,1138,157914
112,10,-0.666405,-0.0495073,9.79085,0.0425612,-0.652538,0.954561,-0.00666856,-0.000502685,0.0979081,1,3.77148e-05,-2.30839e-05,1.69649e-05,0.00754295,-0.00461678,0.00339299,0,0,0,0,0.0615101,0.5239,-0.963876,36.0625,3,1139,158014
112,11,-0.666405,-0.0495073,9.79085,0.0425612,-0.652538,0.954561,-0.00666856,-0.000502685,0.0979081,1,3.77148e-05,-2.30839e-05,1.69649e-05,0.00754295,-0.00461678,0.00339299,0,0,0,0,0.0615101,0.5239,-0.963876,36.0625,3,1139,158014
112,12,-0.660938,-0.0703981,9.77944,0.0483488,-0.676569,0.945241,-0.00661263,-0.000713172,0.0977941,1,4.51394e-05,-1.68453e-05,2.73847e-05,0.00902789,-0.00336907,0.00547693,0,0,0,0,0.061901,0.524926,-0.966885,36.0625,3,1140,158114
112,13,-0.660938,-0.0703981,9.77944,0.0483488,-0.676569,0.945241,-0.00661263,-0.000713172,0.0977941,1,4.51394e-05,-1.68453e-05,2.73847e-05,0.00902789,-0.00336907,0.00547693,0,0,0,0,0.061901,0.524926,-0.966885,36.0625,3,1140,158114
112,14,-0.665767,-0.0660442,9.78798,0.0483232,-0.66927,0.950029,-0.00666002,-0.000670902,0.0978796,1,5.1856e-05,-1.21647e-05,2.32256e-05,0.0103712,-0.00243293,0.00464512,0,0,0,0,0.0619618,0.52199,-0.966446,36.0625,3,1141,158214
113,1,-0.665767,-0.0660442,9.78798,0.0483232,-0.66927,0.950029,-0.00666002,-0.000670902,0.0978796,1,5.1856e-05,-1.21647e-05,2.32256e-05,0.0103712,-0.00243293,0.00464512,0,0,0,0,0.0619618,0.52199,-0.966446,36.0625,3,1141,158214
113,2,-0.680519,-0.0578536,9.78408,0.0283246,-0.665313,0.954367,-0.00680655,-0.000588926,0.0978406,1,5.17648e-05,-7.0387e-06,1.90978e-05,0.010353,-0.00140774,0.00381955,0,0,0,0,0.0596255,0.520032,-0.964963,36.0625,3,1142,158314
113,3,-0.680519,-0.0578536,9.78408,0.0283246,-0.665313,0.954367,-0.00680655,-0.000588926,0.0978406,1,5.17648e-05,-7.0387e-06,1.90978e-05,0.010353,-0.00140774,0.00381955,0,0,0,0,0.0596255,0.520032,-0.964963,36.0625,3,1142,158314
113,4,-0.662746,-0.0707684,9.79334,0.0452736,-0.675698,0.960215,-0.00662793,-0.000715353,0.0979333,1,3.83462e-05,-2.49408e-06,1.19583e-05,0.00766924,-0.000498816,0.00239167,0,0,0,0,0.0602215,0.51898,-0.960949,36.0625,3,1143,158414
113,5,-0.662746,-0.0707684,9.79334,0.0452736,-0.675698,0.960215,-0.00662793,-0.000715353,0.0979333,1,3.83462e-05,-2.49408e-06,1.19583e-05,0.00766924,-0.000498816,0.00239167,0,0,0,0,0.0602215,0.51898,-0.960949,36.0625,3,1143,158414
113,6,-0.674304,-0.0630476,9.79145,0.03419,-0.666849,0.960188,-0.0067449,-0.000642135,0.0979143,1,5.91315e-05,-9.53118e-06,5.94589e-06,0.0118263,-0.00190624,0.00118918,0,0,0,0,0.0625952,0.522357,-0.959875,36.0625,3,1144,158514
113,7,-0.674304,-0.0630476,9.79145,0.03419,-0.666849,0.960188,-0.0067449,-0.000642135,0.0979143,1,5.91315e-05,-9.53118e-06,5.94589e-06,0.0118263,-0.00190624,0.00118918,0,0,0,0,0.0625952,0.522357,-0.959875,36.0625,3,1144,158514
113,8,-0.675573,-0.0641289,9.79145,0.0345211,-0.667498,0.955442,-0.00675756,-0.000651804,0.0979143,1,5.28024e-05,-9.4267e-06,1.29377e-05,0.0105605,-0.00188534,0.00258754,0,0,0,0,0.0634758,0.524336,-0.961855,36.0625,3,1145,158614
114,1,-0.675573,-0.0641289,9.79145,0.0345211,-0.667498,0.955442,-0.00675756,-0.000651804,0.0979143,1,5.28024e-05,-9.4267e-06,1.29377e-05,0.0105605,-0.00188534,0.00258754,0,0,0,0,0.0634758,0.524336,-0.961855,36.0625,3,1145,158614
114,2,-0.666236,-0.0610467,9.78701,0.0474373,-0.671069,0.947522,-0.00666334,-0.000619885,0.0978699,1,4.65697e-05,-5.14671e-06,2.27152e-05,0.00931395,-0.00102934,0.00454304,0,0,0,0,0.0628837,0.524421,-0.966396,36.0625,3,1146,158714
114,3,-0.666236,-0.0610467,9.78701,0.0474373,-0.671069,0.947522,-0.00666334,-0.000619885,0.0978699,1,4.65697e-05,-5.14671e-06,2.27152e-05,0.00931395,-0.00102934,0.00454304,0,0,0,0,0.0628837,0.524421,-0.966396,36.0625,3,1146,158714
114,4,-0.677269,-0.0638609,9.79215,0.0284866,-0.672613,0.957486,-0.00677576,-0.00064838,0.0979212,1,4.89448e-05,-1.57913e-05,1.37259e-05,0.00978896,-0.00315826,0.00274517,0,0,0,0,0.0609502,0.522034,-0.96846,36.0625,3,1147,158814
114,5,-0.677269,-0.0638609,9.79215,0.0284866,-0.672613,0.957486,-0.00677576,-0.00064838,0.0979212,1,4.89448e-05,-1.57913e-05,1.37259e-05,0.00978896,-0.00315826,0.00274517,0,0,0,0,0.0609502,0.522034,-0.96846,36.0625,3,1147,158814
114,6,-0.665991,-0.0635622,9.79954,0.0426411,-0.673196,0.965516,-0.006663,-0.000643418,0.0979951,1,3.86608e-05,-1.5872e-05,1.64547e-05,0.00773217,-0.0031744,0.00329093,0,0,0,0,0.0610276,0.519568,-0.967,36.0625,3,1148,158914
114,7,-0.665991,-0.0635622,9.79954,0.0426411,-0.673196,0.965516,-0.006663,-0.000643418,0.0979951,1,3.86608e-05,-1.5872e-05,1.64547e-05,0.00773217,-0.0031744,0.00329093,0,0,0,0,0.0610276,0.519568,-0.967,36.0625,3,1148,158914
114,8,-0.666372,-0.0686256,9.79577,0.0425411,-0.673886,0.963258,-0.00666429,-0.000695732,0.0979576,1,4.67246e-05,-3.0587e-06,2.41192e-05,0.00934492,-0.00061174,0.00482383,0,0,0,0,0.0630878,0.519453,-0.961457,36.0625,3,1149,159014
115,1,-0.666372,-0.0686256,9.79577,0.0425411,-0.673886,0.963258,-0.00666429,-0.000695732,0.0979576,1,4.67246e-05,-3.0587e-06,2.41192e-05,0.00934492,-0.00061174,0.00482383,0,0,0,0,0.0630878,0.519453,-0.961457,36.0625,3,1149,159014
115,2,-0.660148,-0.0549347,9.79007,0.0509925,-0.664495,0.956099,-0.00660256,-0.000557893,0.0979006,1,4.15108e-05,-5.71285e-06,3.16577e-05,0.00830216,-0.00114257,0.00633154,0,0,0,0,0.0621141,0.522361,-0.959872,36.0625,3,1150,159114
115,3,-0.660148,-0.0549347,9.79007,0.0509925,-0.664495,0.956099,-0.00660256,-0.000557893,0.0979006,1,4.15108e-05,-5.71285e-06,3.16577e-05,0.00830216,-0.00114257,0.00633154,0,0,0,0,0.0621141,0.522361,-0.959872,36.0625,3,1150,159114
115,4,-0.67419,-0.0661372,9.78838,0.0381252,-0.675198,0.954104,-0.00674602,-0.000666484,0.0978835,1,2.53469e-05,-2.11075e-05,1.11386e-05,0.00506938,-0.00422149,0.00222773,0,0,0,0,0.0620197,0.522911,-0.963395,36.0625,3,1151,159214
115,5,-0.67419,-0.0661372,9.78838,0.0381252,-0.675198,0.954104,-0.00674602,-0.000666484,0.0978835,1,2.53469e-05,-2.11075e-05,1.11386e-05,0.00506938,-0.00422149,0.00222773,0,0,0,0,0.0620197,0.522911,-0.963395,36.0625,3,1151,159214
115,6,-0.672446,-0.057333,9.78538,0.0368971,-0.666249,0.948198,-0.00672547,-0.000582035,0.0978537,1,4.29618e-05,-5.24508e-06,2.20783e-05,0.00859236,-0.00104902,0.00441565,0,0,0,0,0.0624225,0.522483,-0.966942,36.0625,3,1152,159314
115,7,-0.672446,-0.057333,9.78538,0.0368971,-0.666249,0.948198,-0.00672547,-0.000582035,0.0978537,1,4.29618e-05,-5.24508e-06,2.20783e-05,0.00859236,-0.00104902,0.00441565,0,0,0,0,0.0624225,0.522483,-0.966942,36.0625,3,1152,159314
115,8,-0.668523,-0.0711527,9.79676,0.0451697,-0.68157,0.965312,-0.00668579,-0.000719378,0.0979675,1,3.89441e-05,-2.98018e-06,1.64642e-05,0.00778882,-0.000596036,0.00329284,0,0,0,0,0.0609702,0.520092,-0.969008,36.0625,3,1153,159414
116,1,-0.668523,-0.0711527,9.79676,0.0451697,-0.68157,0.965312,-0.00668579,-0.000719378,0.0979675,1,3.89441e-05,-2.98018e-06,1.64642e-05,0.00778882,-0.000596036,0.00329284,0,0,0,0,0.0609702,0.520092,-0.969008,36.0625,3,1153,159414
116,2,-0.668503,-0.0603636,9.78703,0.0386126,-0.671196,0.953281,-0.00668863,-0.000612859,0.09787,1,4.57687e-05,-1.85057e-05,1.97629e-05,0.00915373,-0.00370113,0.00395259,0,0,0,0,0.0586177,0.519109,-0.967504,36.0625,3,1154,159514
116,3,-0.668503,-0.0603636,9.78703,0.0386126,-0.671196,0.953281,-0.00668863,-0.000612859,0.09787,1,4.57687e-05,-1.85057e-05,1.97629e-05,0.00915373,-0.00370113,0.00395259,0,0,0,0,0.0586177,0.519109,-0.967504,36.0625,3,1154,159514
116,4,-0.671486,-0.0741248,9.78761,0.0365444,-0.688261,0.951089,-0.00671635,-0.000749391,0.097876,1,4.04734e-05,-7.75434e-06,1.64265e-05,0.00809469,-0.00155087,0.00328531,0,0,0,0,0.0597076,0.51949,-0.961945,36.0625,3,1155,159614
116,5,-0.671486,-0.0741248,9.78761,0.0365444,-0.688261,0.951089,-0.00671635,-0.000749391,0.097876,1,4.04734e-05,-7.75434e-06,1.64265e-05,0.00809469,-0.00155087,0.00328531,0,0,0,0,0.0597076,0.51949,-0.961945,36.0625,3,1155,159614
116,6,-0.678304,-0.0677267,9.79551,0.0318303,-0.675866,0.959996,-0.00678523,-0.000687257,0.0979549,1,4.96878e-05,-1.134e-05,1.88259e-05,0.00993756,-0.00226801,0.00376518,0,0,0,0,0.0616695,0.520892,-0.959398,36.0625,3,1156,159714
117,1,-0.678304,-0.0677267,9.79551,0.0318303,-0.675866,0.959996,-0.00678523,-0.000687257,0.0979549,1,4.96878e-05,-1.134e-05,1.88259e-05,0.00993756,-0.00226801,0.00376518,0,0,0,0,0.0616695,0.520892,-0.959398,36.0625,3,1156,159714
117,2,-0.662885,-0.052057,9.77926,0.0487166,-0.659784,0.942466,-0.00663024,-0.000528056,0.0977925,1,3.7767e-05,-7.17299e-06,7.49711e-06,0.0075534,-0.0014346,0.00149942,0,0,0,0,0.0630436,0.522858,-0.960876,36.0625,3,1157,159814
117,3,-0.662885,-0.052057,9.77926,0.0487166,-0.659784,0.942466,-0.00663024,-0.000528056,0.0977925,1,3.7767e-05,-7.17299e-06,7.49711e-06,0.0075534,-0.0014346,0.00149942,0,0,0,0,0.0630436,0.522858,-0.960876,36.0625,3,1157,159814
117,4,-0.665518,-0.0568836,9.78432,0.0440287,-0.670157,0.946553,-0.0066577,-0.000578302,0.097843,1,4.71007e-05,-1.29882e-05,1.87272e-05,0.00942014,-0.00259765,0.00374544,0,0,0,0,0.0628714,0.52443,-0.966901,36.0625,3,1158,159914
117,5,-0.665518,-0.0568836,9.78432,0.0440287,-0.670157,0.946553,-0.0066577,-0.000578302,0.097843,1,4.71007e-05,-1.29882e-05,1.87272e-05,0.00942014,-0.00259765,0.00374544,0,0,0,0,0.0628714,0.52443,-0.966901,36.0625,3,1158,159914
117,6,-0.676625,-0.0606831,9.7881,0.0309584,-0.670353,0.955245,-0.00677035,-0.000617522,0.0978806,1,5.33908e-05,-2.1031e-05,1.76022e-05,0.0106782,-0.00420621,0.00352044,0,0,0,0,0.0618959,0.521556,-0.969485,36.0625,3,1159,160014
117,7,-0.676625,-0.0606831,9.7881,0.0309584,-0.670353,0.955245,-0.00677035,-0.000617522,0.0978806,1,5.33908e-05,-2.1031e-05,1.76022e-05,0.0106782,-0.00420621,0.00352044,0,0,0,0,0.0618959,0.521556,-0.969485,36.0625,3,1159,160014
117,8,-0.680636,-0.0621785,9.79253,0.0232858,-0.676264,0.956634,-0.00680934,-0.000632296,0.097925,1,5.27409e-05,-1.52717e-05,1.33084e-05,0.0105482,-0.00305434,0.00266167,0,0,0,0,0.0600407,0.519594,-0.968005,36.0625,3,1160,160114
