frame_id,imu_idx,quat_w,quat_x,quat_y,quat_z,accel_x,accel_y,accel_z,free_accel_x,free_accel_y,free_accel_z,delta_v_x,delta_v_y,delta_v_z,delta_q_w,delta_q_x,delta_q_y,delta_q_z,rate_x,rate_y,rate_z,quat_w,quat_x,quat_y,quat_z,mag_x,mag_y,mag_z,temperature,status_byte,packet_counter,time_fine
1,1,0.998057,0.00812966,0.0354022,-0.0506258,-0.616066,-0.0687885,9.78408,-0.567048,-0.156322,0.744943,-0.00616284,-0.000703941,0.0978406,1,7.67163e-05,-1.1716e-05,8.4754e-05,0.0153433,-0.00234321,0.0169508,0.998057,0.00812966,0.0354022,-0.0506258,0.588151,0.142601,-0.702554,34.8125,3,20975,21814293
1,2,0.998057,0.00812966,0.0354022,-0.0506258,-0.381867,-0.206312,7.34745,-0.567048,-0.156322,0.744943,-0.00382324,-0.00207091,0.073474,1,4.90231e-05,-3.32286e-05,7.70468e-05,0.00980462,-0.00664573,0.0154094,0.998057,0.00812966,0.0354022,-0.0506258,0.594412,0.13917,-0.70468,34.8125,1,20976,21815834
1,3,0.998057,0.00812966,0.0354022,-0.0506258,-0.381867,-0.206312,7.34745,-0.567048,-0.156322,0.744943,-0.00382324,-0.00207091,0.073474,1,4.90231e-05,-3.32286e-05,7.70468e-05,0.00980462,-0.00664573,0.0154094,0.998057,0.00812966,0.0354022,-0.0506258,0.594412,0.13917,-0.70468,34.8125,1,20976,21815834
1,4,0.998057,0.00812966,0.0354022,-0.0506258,-0.381867,-0.206312,7.34745,-0.567048,-0.156322,0.744943,-0.00382324,-0.00207091,0.073474,1,4.90231e-05,-3.32286e-05,7.70468e-05,0.00980462,-0.00664573,0.0154094,0.998057,0.00812966,0.0354022,-0.0506258,0.594412,0.13917,-0.70468,34.8125,1,20976,21815834
2,1,0.999564,-0.0140031,0.0259977,-0.000271418,-0.390695,0.00654485,9.8191,-0.397576,0.184454,0.778635,-0.00390545,5.30495e-05,0.0981911,1,5.93197e-05,7.69801e-06,9.59598e-05,0.0118639,0.0015396,0.019192,0.999564,-0.0140031,0.0259977,-0.000271418,0.594461,0.137689,-0.703703,34.8125,1,20977,21815934
2,2,0.999564,-0.0140031,0.0259977,-0.000271418,-0.390695,0.00654485,9.8191,-0.397576,0.184454,0.778635,-0.00390545,5.30495e-05,0.0981911,1,5.93197e-05,7.69801e-06,9.59598e-05,0.0118639,0.0015396,0.019192,0.999564,-0.0140031,0.0259977,-0.000271418,0.594461,0.137689,-0.703703,34.8125,1,20977,21815934
2,3,0.999564,-0.0140031,0.0259977,-0.000271418,-0.390695,0.00654485,9.8191,-0.397576,0.184454,0.778635,-0.00390545,5.30495e-05,0.0981911,1,5.93197e-05,7.69801e-06,9.59598e-05,0.0118639,0.0015396,0.019192,0.999564,-0.0140031,0.0259977,-0.000271418,0.594461,0.137689,-0.703703,34.8125,1,20977,21815934
2,4,0.999564,-0.0139442,0.026005,-0.000169039,-0.638471,-0.073734,9.67525,-0.650698,0.125833,0.651004,-0.00638401,-0.000748618,0.0967524,1,5.24118e-05,2.90734e-06,8.89671e-05,0.0104824,0.000581468,0.0177934,0.999564,-0.0139442,0.026005,-0.000169039,0.59347,0.137236,-0.705223,34.8125,1,20978,21816034
3,1,0.999564,-0.0139442,0.026005,-0.000169039,-0.638471,-0.073734,9.67525,-0.650698,0.125833,0.651004,-0.00638401,-0.000748618,0.0967524,1,5.24118e-05,2.90734e-06,8.89671e-05,0.0104824,0.000581468,0.0177934,0.999564,-0.0139442,0.026005,-0.000169039,0.59347,0.137236,-0.705223,34.8125,1,20978,21816034
3,2,0.999566,-0.0138754,0.0259776,-7.94046e-05,-0.469405,-0.0500471,9.72656,-0.473729,0.190095,0.683903,-0.00469945,-0.000514152,0.0972653,1,6.59638e-05,-2.82064e-05,9.03455e-05,0.0131928,-0.00564128,0.0180691,0.999566,-0.0138754,0.0259776,-7.94046e-05,0.595908,0.135265,-0.705279,34.8125,1,20979,21816134
3,3,0.999566,-0.0138754,0.0259776,-7.94046e-05,-0.469405,-0.0500471,9.72656,-0.473729,0.190095,0.683903,-0.00469945,-0.000514152,0.0972653,1,6.59638e-05,-2.82064e-05,9.03455e-05,0.0131928,-0.00564128,0.0180691,0.999566,-0.0138754,0.0259776,-7.94046e-05,0.595908,0.135265,-0.705279,34.8125,1,20979,21816134
3,4,0.999566,-0.0138754,0.0259776,-7.94046e-05,-0.469405,-0.0500471,9.72656,-0.473729,0.190095,0.683903,-0.00469945,-0.000514152,0.0972653,1,6.59638e-05,-2.82064e-05,9.03455e-05,0.0131928,-0.00564128,0.0180691,0.999566,-0.0138754,0.0259776,-7.94046e-05,0.595908,0.135265,-0.705279,34.8125,1,20979,21816134
4,1,0.999567,-0.0138093,0.0259797,9.76577e-06,-0.30173,0.016755,9.8827,-0.214912,0.262202,0.860578,-0.00301718,0.000154461,0.098827,1,6.34509e-05,7.67717e-07,9.08605e-05,0.0126902,0.000153543,0.0181721,0.999567,-0.0138093,0.0259797,9.76577e-06,0.597816,0.134779,-0.706308,34.8125,1,20980,21816234
4,2,0.999567,-0.0138093,0.0259797,9.76577e-06,-0.30173,0.016755,9.8827,-0.214912,0.262202,0.860578,-0.00301718,0.000154461,0.098827,1,6.34509e-05,7.67717e-07,9.08605e-05,0.0126902,0.000153543,0.0181721,0.999567,-0.0138093,0.0259797,9.76577e-06,0.597816,0.134779,-0.706308,34.8125,1,20980,21816234
4,3,0.999567,-0.0138093,0.0259797,9.76577e-06,-0.30173,0.016755,9.8827,-0.214912,0.262202,0.860578,-0.00301718,0.000154461,0.098827,1,6.34509e-05,7.67717e-07,9.08605e-05,0.0126902,0.000153543,0.0181721,0.999567,-0.0138093,0.0259797,9.76577e-06,0.597816,0.134779,-0.706308,34.8125,1,20980,21816234
4,4,0.999568,-0.013758,0.0259797,0.000104315,-0.588674,0.00135801,9.77526,-0.469122,0.224932,0.775769,-0.00588688,3.03413e-06,0.0977526,1,4.819e-05,-7.26667e-07,9.55151e-05,0.00963801,-0.000145333,0.019103,0.999568,-0.013758,0.0259797,0.000104315,0.59972,0.13526,-0.706811,34.8125,1,20981,21816334
5,1,0.999568,-0.013758,0.0259797,0.000104315,-0.588674,0.00135801,9.77526,-0.469122,0.224932,0.775769,-0.00588688,3.03413e-06,0.0977526,1,4.819e-05,-7.26667e-07,9.55151e-05,0.00963801,-0.000145333,0.019103,0.999568,-0.013758,0.0259797,0.000104315,0.59972,0.13526,-0.706811,34.8125,1,20981,21816334
5,2,0.999568,-0.013758,0.0259797,0.000104315,-0.588674,0.00135801,9.77526,-0.469122,0.224932,0.775769,-0.00588688,3.03413e-06,0.0977526,1,4.819e-05,-7.26667e-07,9.55151e-05,0.00963801,-0.000145333,0.019103,0.999568,-0.013758,0.0259797,0.000104315,0.59972,0.13526,-0.706811,34.8125,1,20981,21816334
5,3,0.999569,-0.0137067,0.025962,0.00020124,-0.445245,-0.0101808,9.78643,-0.354704,0.252108,0.735484,-0.00445611,-0.000112053,0.0978641,1,4.78832e-05,-1.8828e-05,9.79528e-05,0.00957665,-0.00376559,0.0195906,0.999569,-0.0137067,0.025962,0.00020124,0.600136,0.137713,-0.707769,34.8125,1,20982,21816434
5,4,0.999569,-0.0137067,0.025962,0.00020124,-0.445245,-0.0101808,9.78643,-0.354704,0.252108,0.735484,-0.00445611,-0.000112053,0.0978641,1,4.78832e-05,-1.8828e-05,9.79528e-05,0.00957665,-0.00376559,0.0195906,0.999569,-0.0137067,0.025962,0.00020124,0.600136,0.137713,-0.707769,34.8125,1,20982,21816434
6,1,0.999569,-0.0137067,0.025962,0.00020124,-0.445245,-0.0101808,9.78643,-0.354704,0.252108,0.735484,-0.00445611,-0.000112053,0.0978641,1,4.78832e-05,-1.8828e-05,9.79528e-05,0.00957665,-0.00376559,0.0195906,0.999569,-0.0137067,0.025962,0.00020124,0.600136,0.137713,-0.707769,34.8125,1,20982,21816434
6,2,0.99957,-0.0136884,0.0259495,0.000300947,-0.428243,-0.188534,9.93032,-0.145487,0.163024,0.872145,-0.00428462,-0.00188913,0.0993031,1,1.4756e-05,-1.2931e-05,0.000100425,0.0029512,-0.00258619,0.0200851,0.99957,-0.0136884,0.0259495,0.000300947,0.60016,0.13625,-0.707802,34.8125,1,20983,21816534
6,3,0.99957,-0.0136884,0.0259495,0.000300947,-0.428243,-0.188534,9.93032,-0.145487,0.163024,0.872145,-0.00428462,-0.00188913,0.0993031,1,1.4756e-05,-1.2931e-05,0.000100425,0.0029512,-0.00258619,0.0200851,0.99957,-0.0136884,0.0259495,0.000300947,0.60016,0.13625,-0.707802,34.8125,1,20983,21816534
6,4,0.99957,-0.0136884,0.0259495,0.000300947,-0.428243,-0.188534,9.93032,-0.145487,0.163024,0.872145,-0.00428462,-0.00188913,0.0993031,1,1.4756e-05,-1.2931e-05,0.000100425,0.0029512,-0.00258619,0.0200851,0.99957,-0.0136884,0.0259495,0.000300947,0.60016,0.13625,-0.707802,34.8125,1,20983,21816534
7,1,0.999573,-0.0134853,0.0259074,0.000395265,-0.577592,0.0614151,9.58809,-0.545553,-0.0619339,0.60054,-0.00578442,0.00057474,0.0958806,1,0.000199571,-4.37317e-05,9.86924e-05,0.0399142,-0.00874633,0.0197385,0.999573,-0.0134853,0.0259074,0.000395265,0.598835,0.132802,-0.705347,34.8125,1,20984,21816634
7,2,0.999573,-0.0134853,0.0259074,0.000395265,-0.577592,0.0614151,9.58809,-0.545553,-0.0619339,0.60054,-0.00578442,0.00057474,0.0958806,1,0.000199571,-4.37317e-05,9.86924e-05,0.0399142,-0.00874633,0.0197385,0.999573,-0.0134853,0.0259074,0.000395265,0.598835,0.132802,-0.705347,34.8125,1,20984,21816634
7,3,0.999573,-0.0134853,0.0259074,0.000395265,-0.577592,0.0614151,9.58809,-0.545553,-0.0619339,0.60054,-0.00578442,0.00057474,0.0958806,1,0.000199571,-4.37317e-05,9.86924e-05,0.0399142,-0.00874633,0.0197385,0.999573,-0.0134853,0.0259074,0.000395265,0.598835,0.132802,-0.705347,34.8125,1,20984,21816634
7,4,0.999574,-0.013486,0.0258886,0.000498507,-0.262855,0.25982,9.88507,-0.194438,0.455518,0.859148,-0.00263292,0.00259865,0.0988506,1,-4.99561e-06,-1.93499e-05,0.000103027,-0.000999123,-0.00386999,0.0206055,0.999574,-0.013486,0.0258886,0.000498507,0.598913,0.131782,-0.702845,34.8125,1,20985,21816734
8,1,0.999574,-0.013486,0.0258886,0.000498507,-0.262855,0.25982,9.88507,-0.194438,0.455518,0.859148,-0.00263292,0.00259865,0.0988506,1,-4.99561e-06,-1.93499e-05,0.000103027,-0.000999123,-0.00386999,0.0206055,0.999574,-0.013486,0.0258886,0.000498507,0.598913,0.131782,-0.702845,34.8125,1,20985,21816734
8,2,0.999574,-0.013486,0.0258886,0.000498507,-0.262855,0.25982,9.88507,-0.194438,0.455518,0.859148,-0.00263292,0.00259865,0.0988506,1,-4.99561e-06,-1.93499e-05,0.000103027,-0.000999123,-0.00386999,0.0206055,0.999574,-0.013486,0.0258886,0.000498507,0.598913,0.131782,-0.702845,34.8125,1,20985,21816734
8,3,0.999575,-0.0134237,0.0258635,0.000596167,-0.367399,0.076812,9.97415,-0.106265,0.323935,0.865019,-0.00367938,0.000755918,0.0997415,1,5.7546e-05,-2.62577e-05,9.83094e-05,0.0115092,-0.00525155,0.0196619,0.999575,-0.0134237,0.0258635,0.000596167,0.599259,0.134767,-0.706315,34.8125,1,20986,21816834
8,4,0.999575,-0.0134237,0.0258635,0.000596167,-0.367399,0.076812,9.97415,-0.106265,0.323935,0.865019,-0.00367938,0.000755918,0.0997415,1,5.7546e-05,-2.62577e-05,9.83094e-05,0.0115092,-0.00525155,0.0196619,0.999575,-0.0134237,0.0258635,0.000596167,0.599259,0.134767,-0.706315,34.8125,1,20986,21816834
9,1,0.999575,-0.0134237,0.0258635,0.000596167,-0.367399,0.076812,9.97415,-0.106265,0.323935,0.865019,-0.00367938,0.000755918,0.0997415,1,5.7546e-05,-2.62577e-05,9.83094e-05,0.0115092,-0.00525155,0.0196619,0.999575,-0.0134237,0.0258635,0.000596167,0.599259,0.134767,-0.706315,34.8125,1,20986,21816834
9,2,0.999577,-0.0133607,0.0258358,0.000691506,-0.348812,-0.0773073,9.77519,-0.390351,0.121038,0.697817,-0.00349347,-0.000785039,0.0977516,1,5.77694e-05,-2.80891e-05,9.61554e-05,0.0115539,-0.00561782,0.0192311,0.999577,-0.0133607,0.0258358,0.000691506,0.5997,0.135757,-0.707305,34.8125,1,20987,21816934
9,3,0.999577,-0.0133607,0.0258358,0.000691506,-0.348812,-0.0773073,9.77519,-0.390351,0.121038,0.697817,-0.00349347,-0.000785039,0.0977516,1,5.77694e-05,-2.80891e-05,9.61554e-05,0.0115539,-0.00561782,0.0192311,0.999577,-0.0133607,0.0258358,0.000691506,0.5997,0.135757,-0.707305,34.8125,1,20987,21816934
9,4,0.999577,-0.0133607,0.0258358,0.000691506,-0.348812,-0.0773073,9.77519,-0.390351,0.121038,0.697817,-0.00349347,-0.000785039,0.0977516,1,5.77694e-05,-2.80891e-05,9.61554e-05,0.0115539,-0.00561782,0.0192311,0.999577,-0.0133607,0.0258358,0.000691506,0.5997,0.135757,-0.707305,34.8125,1,20987,21816934
10,1,0.999578,-0.0133048,0.0258113,0.000775125,-0.173774,9.43232e-05,9.83634,-0.345287,0.0613682,0.766146,-0.0017426,-9.33302e-06,0.0983633,1,5.07464e-05,-2.47257e-05,8.42099e-05,0.0101493,-0.00494515,0.016842,0.999578,-0.0133048,0.0258113,0.000775125,0.600201,0.135256,-0.706814,34.8125,1,20988,21817034
10,2,0.999578,-0.0133048,0.0258113,0.000775125,-0.173774,9.43232e-05,9.83634,-0.345287,0.0613682,0.766146,-0.0017426,-9.33302e-06,0.0983633,1,5.07464e-05,-2.47257e-05,8.42099e-05,0.0101493,-0.00494515,0.016842,0.999578,-0.0133048,0.0258113,0.000775125,0.600201,0.135256,-0.706814,34.8125,1,20988,21817034
10,3,0.999578,-0.0133048,0.0258113,0.000775125,-0.173774,9.43232e-05,9.83634,-0.345287,0.0613682,0.766146,-0.0017426,-9.33302e-06,0.0983633,1,5.07464e-05,-2.47257e-05,8.42099e-05,0.0101493,-0.00494515,0.016842,0.999578,-0.0133048,0.0258113,0.000775125,0.600201,0.135256,-0.706814,34.8125,1,20988,21817034
10,4,0.999578,-0.0132962,0.025803,0.000870047,-0.215311,0.23683,9.77566,-0.531216,0.245301,0.734795,-0.00215514,0.0023673,0.0977565,1,2.99225e-06,-8.09095e-06,9.47975e-05,0.00059845,-0.00161819,0.0189595,0.999578,-0.0132962,0.025803,0.000870047,0.601192,0.134264,-0.706335,34.8125,1,20989,21817134
11,1,0.999578,-0.0132962,0.025803,0.000870047,-0.215311,0.23683,9.77566,-0.531216,0.245301,0.734795,-0.00215514,0.0023673,0.0977565,1,2.99225e-06,-8.09095e-06,9.47975e-05,0.00059845,-0.00161819,0.0189595,0.999578,-0.0132962,0.025803,0.000870047,0.601192,0.134264,-0.706335,34.8125,1,20989,21817134
11,2,0.999578,-0.0132962,0.025803,0.000870047,-0.215311,0.23683,9.77566,-0.531216,0.245301,0.734795,-0.00215514,0.0023673,0.0977565,1,2.99225e-06,-8.09095e-06,9.47975e-05,0.00059845,-0.00161819,0.0189595,0.999578,-0.0132962,0.025803,0.000870047,0.601192,0.134264,-0.706335,34.8125,1,20989,21817134
11,3,0.999578,-0.0133078,0.02582,0.000972777,-0.174149,0.0796081,9.7632,-0.440422,0.235574,0.757747,-0.00173826,0.000799331,0.097632,1,-1.84641e-05,1.73536e-05,0.000102183,-0.00369282,0.00347073,0.0204367,0.999578,-0.0133078,0.02582,0.000972777,0.602183,0.133271,-0.705857,34.8125,1,20990,21817234
11,4,0.999578,-0.0133078,0.02582,0.000972777,-0.174149,0.0796081,9.7632,-0.440422,0.235574,0.757747,-0.00173826,0.000799331,0.097632,1,-1.84641e-05,1.73536e-05,0.000102183,-0.00369282,0.00347073,0.0204367,0.999578,-0.0133078,0.02582,0.000972777,0.602183,0.133271,-0.705857,34.8125,1,20990,21817234
12,1,0.999578,-0.0133078,0.02582,0.000972777,-0.174149,0.0796081,9.7632,-0.440422,0.235574,0.757747,-0.00173826,0.000799331,0.097632,1,-1.84641e-05,1.73536e-05,0.000102183,-0.00369282,0.00347073,0.0204367,0.999578,-0.0133078,0.02582,0.000972777,0.602183,0.133271,-0.705857,34.8125,1,20990,21817234
12,2,0.999577,-0.0132934,0.0258424,0.00106342,-0.356964,-0.138603,9.85957,-0.315189,0.190379,0.880379,-0.00356468,-0.00138812,0.0985958,1,7.31754e-06,2.38587e-05,9.08347e-05,0.00146351,0.00477173,0.0181669,0.999577,-0.0132934,0.0258424,0.00106342,0.604107,0.133255,-0.705866,34.8125,1,20991,21817334
12,3,0.999577,-0.0132934,0.0258424,0.00106342,-0.356964,-0.138603,9.85957,-0.315189,0.190379,0.880379,-0.00356468,-0.00138812,0.0985958,1,7.31754e-06,2.38587e-05,9.08347e-05,0.00146351,0.00477173,0.0181669,0.999577,-0.0132934,0.0258424,0.00106342,0.604107,0.133255,-0.705866,34.8125,1,20991,21817334
12,4,0.999577,-0.0132934,0.0258424,0.00106342,-0.356964,-0.138603,9.85957,-0.315189,0.190379,0.880379,-0.00356468,-0.00138812,0.0985958,1,7.31754e-06,2.38587e-05,9.08347e-05,0.00146351,0.00477173,0.0181669,0.999577,-0.0132934,0.0258424,0.00106342,0.604107,0.133255,-0.705866,34.8125,1,20991,21817334
12,5,0.999578,-0.0132282,0.0258373,0.00115019,-0.539334,-0.153567,9.86986,-0.309863,0.398086,0.80624,-0.00539366,-0.00154805,0.0986984,1,5.7875e-05,-3.01092e-06,8.84555e-05,0.011575,-0.000602185,0.0176911,0.999578,-0.0132282,0.0258373,0.00115019,0.604045,0.1333,-0.70839,34.8125,1,20992,21817434
12,6,0.999578,-0.0132282,0.0258373,0.00115019,-0.539334,-0.153567,9.86986,-0.309863,0.398086,0.80624,-0.00539366,-0.00154805,0.0986984,1,5.7875e-05,-3.01092e-06,8.84555e-05,0.011575,-0.000602185,0.0176911,0.999578,-0.0132282,0.0258373,0.00115019,0.604045,0.1333,-0.70839,34.8125,1,20992,21817434
10,1,0.999578,-0.0132282,0.0258373,0.00115019,-0.539334,-0.153567,9.86986,-0.309863,0.398086,0.80624,-0.00539366,-0.00154805,0.0986984,1,5.7875e-05,-3.01092e-06,8.84555e-05,0.011575,-0.000602185,0.0176911,0.999578,-0.0132282,0.0258373,0.00115019,0.604045,0.1333,-0.70839,34.8125,1,20992,21817434
10,2,0.99958,-0.013125,0.0257969,0.0012315,-0.390688,-0.269874,9.84715,-0.263691,0.28517,0.719172,-0.00391409,-0.00271822,0.0984707,1,9.56023e-05,-3.88521e-05,8.29337e-05,0.0191205,-0.00777041,0.0165867,0.99958,-0.013125,0.0257969,0.0012315,0.604065,0.131358,-0.708938,34.8125,1,20993,21817534
10,3,0.99958,-0.013125,0.0257969,0.0012315,-0.390688,-0.269874,9.84715,-0.263691,0.28517,0.719172,-0.00391409,-0.00271822,0.0984707,1,9.56023e-05,-3.88521e-05,8.29337e-05,0.0191205,-0.00777041,0.0165867,0.99958,-0.013125,0.0257969,0.0012315,0.604065,0.131358,-0.708938,34.8125,1,20993,21817534
10,4,0.99958,-0.013125,0.0257969,0.0012315,-0.390688,-0.269874,9.84715,-0.263691,0.28517,0.719172,-0.00391409,-0.00271822,0.0984707,1,9.56023e-05,-3.88521e-05,8.29337e-05,0.0191205,-0.00777041,0.0165867,0.99958,-0.013125,0.0257969,0.0012315,0.604065,0.131358,-0.708938,34.8125,1,20993,21817534
14,1,0.999583,-0.0130281,0.0257364,0.00130931,-0.121563,-0.0208856,9.81622,-0.247911,0.292047,0.727929,-0.00122702,-0.000226608,0.098162,1,8.94346e-05,-5.81992e-05,7.92866e-05,0.0178869,-0.0116398,0.0158573,0.999583,-0.0130281,0.0257364,0.00130931,0.604094,0.130373,-0.708455,34.8125,1,20994,21817634
14,2,0.999583,-0.0130281,0.0257364,0.00130931,-0.121563,-0.0208856,9.81622,-0.247911,0.292047,0.727929,-0.00122702,-0.000226608,0.098162,1,8.94346e-05,-5.81992e-05,7.92866e-05,0.0178869,-0.0116398,0.0158573,0.999583,-0.0130281,0.0257364,0.00130931,0.604094,0.130373,-0.708455,34.8125,1,20994,21817634
14,3,0.999583,-0.0130281,0.0257364,0.00130931,-0.121563,-0.0208856,9.81622,-0.247911,0.292047,0.727929,-0.00122702,-0.000226608,0.098162,1,8.94346e-05,-5.81992e-05,7.92866e-05,0.0178869,-0.0116398,0.0158573,0.999583,-0.0130281,0.0257364,0.00130931,0.604094,0.130373,-0.708455,34.8125,1,20994,21817634
14,4,0.999584,-0.0129623,0.0257292,0.00141534,-0.0252154,0.119,9.76208,-0.257515,0.0915808,0.748938,-0.000253288,0.00117877,0.0976209,1,5.7217e-05,-4.5058e-06,0.000107021,0.0114434,-0.000901159,0.0214041,0.999584,-0.0129623,0.0257292,0.00141534,0.60411,0.130843,-0.707435,34.8125,1,20995,21817734
15,1,0.999584,-0.0129623,0.0257292,0.00141534,-0.0252154,0.119,9.76208,-0.257515,0.0915808,0.748938,-0.000253288,0.00117877,0.0976209,1,5.7217e-05,-4.5058e-06,0.000107021,0.0114434,-0.000901159,0.0214041,0.999584,-0.0129623,0.0257292,0.00141534,0.60411,0.130843,-0.707435,34.8125,1,20995,21817734
15,2,0.999584,-0.0129623,0.0257292,0.00141534,-0.0252154,0.119,9.76208,-0.257515,0.0915808,0.748938,-0.000253288,0.00117877,0.0976209,1,5.7217e-05,-4.5058e-06,0.000107021,0.0114434,-0.000901159,0.0214041,0.999584,-0.0129623,0.0257292,0.00141534,0.60411,0.130843,-0.707435,34.8125,1,20995,21817734
15,3,0.999583,-0.0129524,0.0257577,0.00152625,-0.216465,0.074435,9.7867,-0.291487,0.0910011,0.784361,-0.00215851,0.000743802,0.0978671,1,3.5567e-07,3.21992e-05,0.0001108,7.11341e-05,0.00643985,0.0221601,0.999583,-0.0129524,0.0257577,0.00152625,0.602721,0.131298,-0.704893,34.8125,1,20996,21817834
15,4,0.999583,-0.0129524,0.0257577,0.00152625,-0.216465,0.074435,9.7867,-0.291487,0.0910011,0.784361,-0.00215851,0.000743802,0.0978671,1,3.5567e-07,3.21992e-05,0.0001108,7.11341e-05,0.00643985,0.0221601,0.999583,-0.0129524,0.0257577,0.00152625,0.602721,0.131298,-0.704893,34.8125,1,20996,21817834
16,1,0.999583,-0.0129524,0.0257577,0.00152625,-0.216465,0.074435,9.7867,-0.291487,0.0910011,0.784361,-0.00215851,0.000743802,0.0978671,1,3.5567e-07,3.21992e-05,0.0001108,7.11341e-05,0.00643985,0.0221601,0.999583,-0.0129524,0.0257577,0.00152625,0.602721,0.131298,-0.704893,34.8125,1,20996,21817834
16,2,0.999583,-0.0129272,0.0257653,0.00162961,-0.354447,-0.0863932,9.8717,-0.36471,0.149283,0.791603,-0.00354196,-0.000867641,0.0987171,1,1.50803e-05,1.18072e-05,0.000103176,0.00301605,0.00236144,0.0206352,0.999583,-0.0129272,0.0257653,0.00162961,0.6027,0.131795,-0.705387,34.8125,1,20997,21817934
16,3,0.999583,-0.0129272,0.0257653,0.00162961,-0.354447,-0.0863932,9.8717,-0.36471,0.149283,0.791603,-0.00354196,-0.000867641,0.0987171,1,1.50803e-05,1.18072e-05,0.000103176,0.00301605,0.00236144,0.0206352,0.999583,-0.0129272,0.0257653,0.00162961,0.6027,0.131795,-0.705387,34.8125,1,20997,21817934
16,4,0.999583,-0.0129272,0.0257653,0.00162961,-0.354447,-0.0863932,9.8717,-0.36471,0.149283,0.791603,-0.00354196,-0.000867641,0.0987171,1,1.50803e-05,1.18072e-05,0.000103176,0.00301605,0.00236144,0.0206352,0.999583,-0.0129272,0.0257653,0.00162961,0.6027,0.131795,-0.705387,34.8125,1,20997,21817934
17,1,0.999584,-0.0128518,0.0257583,0.00173657,-0.315942,-0.053651,9.84424,-0.269367,0.256371,0.773108,-0.00315983,-0.000549932,0.0984423,1,6.47011e-05,-2.70343e-06,0.000108049,0.0129402,-0.000540686,0.0216098,0.999584,-0.0128518,0.0257583,0.00173657,0.604575,0.131815,-0.707415,34.8125,1,20998,21818034
17,2,0.999584,-0.0128518,0.0257583,0.00173657,-0.315942,-0.053651,9.84424,-0.269367,0.256371,0.773108,-0.00315983,-0.000549932,0.0984423,1,6.47011e-05,-2.70343e-06,0.000108049,0.0129402,-0.000540686,0.0216098,0.999584,-0.0128518,0.0257583,0.00173657,0.604575,0.131815,-0.707415,34.8125,1,20998,21818034
17,3,0.999584,-0.0128518,0.0257583,0.00173657,-0.315942,-0.053651,9.84424,-0.269367,0.256371,0.773108,-0.00315983,-0.000549932,0.0984423,1,6.47011e-05,-2.70343e-06,0.000108049,0.0129402,-0.000540686,0.0216098,0.999584,-0.0128518,0.0257583,0.00173657,0.604575,0.131815,-0.707415,34.8125,1,20998,21818034
17,4,0.999586,-0.0127676,0.0257317,0.00184388,-0.37279,0.0193853,9.7801,-0.353784,0.232706,0.755173,-0.00373229,0.000178763,0.0978009,1,7.30318e-05,-2.21989e-05,0.00010797,0.0146064,-0.00443977,0.021594,0.999586,-0.0127676,0.0257317,0.00184388,0.606067,0.128876,-0.707488,34.8125,1,20999,21818134
18,1,0.999586,-0.0127676,0.0257317,0.00184388,-0.37279,0.0193853,9.7801,-0.353784,0.232706,0.755173,-0.00373229,0.000178763,0.0978009,1,7.30318e-05,-2.21989e-05,0.00010797,0.0146064,-0.00443977,0.021594,0.999586,-0.0127676,0.0257317,0.00184388,0.606067,0.128876,-0.707488,34.8125,1,20999,21818134
18,2,0.999586,-0.0127676,0.0257317,0.00184388,-0.37279,0.0193853,9.7801,-0.353784,0.232706,0.755173,-0.00373229,0.000178763,0.0978009,1,7.30318e-05,-2.21989e-05,0.00010797,0.0146064,-0.00443977,0.021594,0.999586,-0.0127676,0.0257317,0.00184388,0.606067,0.128876,-0.707488,34.8125,1,20999,21818134
18,3,0.999587,-0.0127052,0.0257024,0.00194489,-0.198353,0.0543675,9.85926,-0.216476,0.242991,0.819538,-0.00198833,0.000533286,0.0985926,1,5.06513e-05,-2.3828e-05,0.000101162,0.0101303,-0.00476561,0.0202324,0.999587,-0.0127052,0.0257024,0.00194489,0.607037,0.12838,-0.707503,34.8125,1,21000,21818234
18,4,0.999587,-0.0127052,0.0257024,0.00194489,-0.198353,0.0543675,9.85926,-0.216476,0.242991,0.819538,-0.00198833,0.000533286,0.0985926,1,5.06513e-05,-2.3828e-05,0.000101162,0.0101303,-0.00476561,0.0202324,0.999587,-0.0127052,0.0257024,0.00194489,0.607037,0.12838,-0.707503,34.8125,1,21000,21818234
19,1,0.999587,-0.0127052,0.0257024,0.00194489,-0.198353,0.0543675,9.85926,-0.216476,0.242991,0.819538,-0.00198833,0.000533286,0.0985926,1,5.06513e-05,-2.3828e-05,0.000101162,0.0101303,-0.00476561,0.0202324,0.999587,-0.0127052,0.0257024,0.00194489,0.607037,0.12838,-0.707503,34.8125,1,21000,21818234
19,2,0.999588,-0.0126343,0.0256905,0.00205441,-0.169344,-0.135125,9.8795,-0.181121,0.0171324,0.836992,-0.00169412,-0.00136313,0.0987948,1,5.818e-05,-4.97769e-06,0.000111142,0.011636,-0.000995537,0.0222284,0.999588,-0.0126343,0.0256905,0.00205441,0.608477,0.13078,-0.705941,34.8125,1,21001,21818334
19,3,0.999588,-0.0126343,0.0256905,0.00205441,-0.169344,-0.135125,9.8795,-0.181121,0.0171324,0.836992,-0.00169412,-0.00136313,0.0987948,1,5.818e-05,-4.97769e-06,0.000111142,0.011636,-0.000995537,0.0222284,0.999588,-0.0126343,0.0256905,0.00205441,0.608477,0.13078,-0.705941,34.8125,1,21001,21818334
19,4,0.999588,-0.0126343,0.0256905,0.00205441,-0.169344,-0.135125,9.8795,-0.181121,0.0171324,0.836992,-0.00169412,-0.00136313,0.0987948,1,5.818e-05,-4.97769e-06,0.000111142,0.011636,-0.000995537,0.0222284,0.999588,-0.0126343,0.0256905,0.00205441,0.608477,0.13078,-0.705941,34.8125,1,21001,21818334
20,1,0.999589,-0.0125595,0.0256804,0.00217169,-0.124189,-0.0592036,9.76892,-0.171229,0.0427032,0.712991,-0.00124228,-0.000604333,0.0976892,1,6.14392e-05,-2.72335e-06,0.00011814,0.0122878,-0.00054467,0.023628,0.999589,-0.0125595,0.0256804,0.00217169,0.609399,0.133211,-0.705891,34.8125,1,21002,21818434
20,2,0.999589,-0.0125595,0.0256804,0.00217169,-0.124189,-0.0592036,9.76892,-0.171229,0.0427032,0.712991,-0.00124228,-0.000604333,0.0976892,1,6.14392e-05,-2.72335e-06,0.00011814,0.0122878,-0.00054467,0.023628,0.999589,-0.0125595,0.0256804,0.00217169,0.609399,0.133211,-0.705891,34.8125,1,21002,21818434
20,3,0.999589,-0.0125595,0.0256804,0.00217169,-0.124189,-0.0592036,9.76892,-0.171229,0.0427032,0.712991,-0.00124228,-0.000604333,0.0976892,1,6.14392e-05,-2.72335e-06,0.00011814,0.0122878,-0.00054467,0.023628,0.999589,-0.0125595,0.0256804,0.00217169,0.609399,0.133211,-0.705891,34.8125,1,21002,21818434
20,4,0.999589,-0.0125116,0.0256731,0.00227711,-0.322768,-0.118483,9.7511,-0.351815,-0.0113727,0.722383,-0.00322716,-0.00119222,0.097511,1,3.43791e-05,1.32484e-06,0.000106251,0.00687582,0.000264968,0.0212502,0.999589,-0.0125116,0.0256731,0.00227711,0.609419,0.131269,-0.70644,34.8125,1,21003,21818534
21,1,0.999589,-0.0125116,0.0256731,0.00227711,-0.322768,-0.118483,9.7511,-0.351815,-0.0113727,0.722383,-0.00322716,-0.00119222,0.097511,1,3.43791e-05,1.32484e-06,0.000106251,0.00687582,0.000264968,0.0212502,0.999589,-0.0125116,0.0256731,0.00227711,0.609419,0.131269,-0.70644,34.8125,1,21003,21818534
21,2,0.999589,-0.0125116,0.0256731,0.00227711,-0.322768,-0.118483,9.7511,-0.351815,-0.0113727,0.722383,-0.00322716,-0.00119222,0.097511,1,3.43791e-05,1.32484e-06,0.000106251,0.00687582,0.000264968,0.0212502,0.999589,-0.0125116,0.0256731,0.00227711,0.609419,0.131269,-0.70644,34.8125,1,21003,21818534
21,3,0.999591,-0.0124197,0.025638,0.00238432,-0.279482,-0.0838178,9.7691,-0.305865,0.0199981,0.717299,-0.0027998,-0.000853986,0.0976907,1,7.78138e-05,-2.64028e-05,0.000108017,0.0155628,-0.00528055,0.0216034,0.999591,-0.0124197,0.025638,0.00238432,0.609369,0.12986,-0.709501,34.8125,1,21004,21818634
21,4,0.999591,-0.0124197,0.025638,0.00238432,-0.279482,-0.0838178,9.7691,-0.305865,0.0199981,0.717299,-0.0027998,-0.000853986,0.0976907,1,7.78138e-05,-2.64028e-05,0.000108017,0.0155628,-0.00528055,0.0216034,0.999591,-0.0124197,0.025638,0.00238432,0.609369,0.12986,-0.709501,34.8125,1,21004,21818634
22,1,0.999591,-0.0124197,0.025638,0.00238432,-0.279482,-0.0838178,9.7691,-0.305865,0.0199981,0.717299,-0.0027998,-0.000853986,0.0976907,1,7.78138e-05,-2.64028e-05,0.000108017,0.0155628,-0.00528055,0.0216034,0.999591,-0.0124197,0.025638,0.00238432,0.609369,0.12986,-0.709501,34.8125,1,21004,21818634
22,2,0.999592,-0.0123383,0.0256308,0.0025056,-0.22081,0.0556885,9.77123,-0.253269,0.186652,0.748224,-0.00220775,0.000543323,0.0977124,1,6.66384e-05,2.49169e-06,0.000122179,0.0133277,0.000498338,0.0244358,0.999592,-0.0123383,0.0256308,0.0025056,0.610788,0.129866,-0.710518,34.8125,1,21005,21818734
22,3,0.999592,-0.0123383,0.0256308,0.0025056,-0.22081,0.0556885,9.77123,-0.253269,0.186652,0.748224,-0.00220775,0.000543323,0.0977124,1,6.66384e-05,2.49169e-06,0.000122179,0.0133277,0.000498338,0.0244358,0.999592,-0.0123383,0.0256308,0.0025056,0.610788,0.129866,-0.710518,34.8125,1,21005,21818734
22,4,0.999592,-0.0123383,0.0256308,0.0025056,-0.22081,0.0556885,9.77123,-0.253269,0.186652,0.748224,-0.00220775,0.000543323,0.0977124,1,6.66384e-05,2.49169e-06,0.000122179,0.0133277,0.000498338,0.0244358,0.999592,-0.0123383,0.0256308,0.0025056,0.610788,0.129866,-0.710518,34.8125,1,21005,21818734
23,1,0.999594,-0.0122345,0.0255974,0.00261198,-0.329398,0.0318791,9.82537,-0.315987,0.199182,0.742046,-0.00329861,0.000300718,0.0982536,1,8.83687e-05,-2.32448e-05,0.000107408,0.0176738,-0.00464897,0.0214816,0.999594,-0.0122345,0.0255974,0.00261198,0.61076,0.13085,-0.711001,34.8125,1,21006,21818834
23,2,0.999594,-0.0122345,0.0255974,0.00261198,-0.329398,0.0318791,9.82537,-0.315987,0.199182,0.742046,-0.00329861,0.000300718,0.0982536,1,8.83687e-05,-2.32448e-05,0.000107408,0.0176738,-0.00464897,0.0214816,0.999594,-0.0122345,0.0255974,0.00261198,0.61076,0.13085,-0.711001,34.8125,1,21006,21818834
23,3,0.999594,-0.0122345,0.0255974,0.00261198,-0.329398,0.0318791,9.82537,-0.315987,0.199182,0.742046,-0.00329861,0.000300718,0.0982536,1,8.83687e-05,-2.32448e-05,0.000107408,0.0176738,-0.00464897,0.0214816,0.999594,-0.0122345,0.0255974,0.00261198,0.61076,0.13085,-0.711001,34.8125,1,21006,21818834
23,4,0.999595,-0.0121715,0.0255647,0.002712,-0.0760004,0.241651,9.71929,-0.216464,0.327096,0.692199,-0.00076453,0.00240727,0.0971931,1,4.67183e-05,-2.07937e-05,0.000100443,0.00934367,-0.00415874,0.0200886,0.999595,-0.0121715,0.0255647,0.002712,0.610788,0.129866,-0.710518,34.8125,1,21007,21818934
24,1,0.999595,-0.0121715,0.0255647,0.002712,-0.0760004,0.241651,9.71929,-0.216464,0.327096,0.692199,-0.00076453,0.00240727,0.0971931,1,4.67183e-05,-2.07937e-05,0.000100443,0.00934367,-0.00415874,0.0200886,0.999595,-0.0121715,0.0255647,0.002712,0.610788,0.129866,-0.710518,34.8125,1,21007,21818934
24,2,0.999595,-0.0121715,0.0255647,0.002712,-0.0760004,0.241651,9.71929,-0.216464,0.327096,0.692199,-0.00076453,0.00240727,0.0971931,1,4.67183e-05,-2.07937e-05,0.000100443,0.00934367,-0.00415874,0.0200886,0.999595,-0.0121715,0.0255647,0.002712,0.610788,0.129866,-0.710518,34.8125,1,21007,21818934
24,3,0.999596,-0.0121313,0.0255375,0.00283807,-0.386531,0.0103557,9.79845,-0.308017,0.177261,0.742955,-0.00386835,9.8328e-05,0.0979843,1,2.17465e-05,-1.54171e-05,0.000125124,0.00434929,-0.00308343,0.0250248,0.999596,-0.0121313,0.0255375,0.00283807,0.610352,0.129355,-0.709012,34.8125,1,21008,21819034
24,4,0.999596,-0.0121313,0.0255375,0.00283807,-0.386531,0.0103557,9.79845,-0.308017,0.177261,0.742955,-0.00386835,9.8328e-05,0.0979843,1,2.17465e-05,-1.54171e-05,0.000125124,0.00434929,-0.00308343,0.0250248,0.999596,-0.0121313,0.0255375,0.00283807,0.610352,0.129355,-0.709012,34.8125,1,21008,21819034
25,1,0.999596,-0.0121313,0.0255375,0.00283807,-0.386531,0.0103557,9.79845,-0.308017,0.177261,0.742955,-0.00386835,9.8328e-05,0.0979843,1,2.17465e-05,-1.54171e-05,0.000125124,0.00434929,-0.00308343,0.0250248,0.999596,-0.0121313,0.0255375,0.00283807,0.610352,0.129355,-0.709012,34.8125,1,21008,21819034
25,2,0.999597,-0.0120683,0.0255046,0.00294155,-0.0482678,-0.0380334,9.74995,-0.207214,0.0928419,0.71658,-0.000486567,-0.000389068,0.0974995,1,4.42781e-05,-2.03503e-05,0.000103071,0.00885562,-0.00407006,0.0206143,0.999597,-0.0120683,0.0255046,0.00294155,0.610389,0.129328,-0.707498,34.8125,1,21009,21819134
25,3,0.999597,-0.0120683,0.0255046,0.00294155,-0.0482678,-0.0380334,9.74995,-0.207214,0.0928419,0.71658,-0.000486567,-0.000389068,0.0974995,1,4.42781e-05,-2.03503e-05,0.000103071,0.00885562,-0.00407006,0.0206143,0.999597,-0.0120683,0.0255046,0.00294155,0.610389,0.129328,-0.707498,34.8125,1,21009,21819134
25,4,0.999597,-0.0120683,0.0255046,0.00294155,-0.0482678,-0.0380334,9.74995,-0.207214,0.0928419,0.71658,-0.000486567,-0.000389068,0.0974995,1,4.42781e-05,-2.03503e-05,0.000103071,0.00885562,-0.00407006,0.0206143,0.999597,-0.0120683,0.0255046,0.00294155,0.610389,0.129328,-0.707498,34.8125,1,21009,21819134
26,1,0.999599,-0.011983,0.0254659,0.00304994,-0.472083,-0.124035,9.78533,-0.398676,0.052482,0.73667,-0.00472533,-0.00125423,0.0978529,1,6.57037e-05,-2.44094e-05,0.000108717,0.0131407,-0.00488188,0.0217433,0.999599,-0.011983,0.0254659,0.00304994,0.610805,0.130336,-0.709497,34.8125,1,21010,21819234
26,2,0.999599,-0.011983,0.0254659,0.00304994,-0.472083,-0.124035,9.78533,-0.398676,0.052482,0.73667,-0.00472533,-0.00125423,0.0978529,1,6.57037e-05,-2.44094e-05,0.000108717,0.0131407,-0.00488188,0.0217433,0.999599,-0.011983,0.0254659,0.00304994,0.610805,0.130336,-0.709497,34.8125,1,21010,21819234
26,3,0.999599,-0.011983,0.0254659,0.00304994,-0.472083,-0.124035,9.78533,-0.398676,0.052482,0.73667,-0.00472533,-0.00125423,0.0978529,1,6.57037e-05,-2.44094e-05,0.000108717,0.0131407,-0.00488188,0.0217433,0.999599,-0.011983,0.0254659,0.00304994,0.610805,0.130336,-0.709497,34.8125,1,21010,21819234
26,4,0.999601,-0.0118703,0.0254394,0.00316219,-0.0932994,-0.00558407,9.73051,-0.202478,0.0827057,0.689008,-0.000935372,-7.40913e-05,0.0973051,1,9.26933e-05,-1.22929e-05,0.000113225,0.0185387,-0.00245858,0.0226451,0.999601,-0.0118703,0.0254394,0.00316219,0.613679,0.128875,-0.711058,34.8125,1,21011,21819334
27,1,0.999601,-0.0118703,0.0254394,0.00316219,-0.0932994,-0.00558407,9.73051,-0.202478,0.0827057,0.689008,-0.000935372,-7.40913e-05,0.0973051,1,9.26933e-05,-1.22929e-05,0.000113225,0.0185387,-0.00245858,0.0226451,0.999601,-0.0118703,0.0254394,0.00316219,0.613679,0.128875,-0.711058,34.8125,1,21011,21819334
27,2,0.999601,-0.0118703,0.0254394,0.00316219,-0.0932994,-0.00558407,9.73051,-0.202478,0.0827057,0.689008,-0.000935372,-7.40913e-05,0.0973051,1,9.26933e-05,-1.22929e-05,0.000113225,0.0185387,-0.00245858,0.0226451,0.999601,-0.0118703,0.0254394,0.00316219,0.613679,0.128875,-0.711058,34.8125,1,21011,21819334
27,3,0.999603,-0.0117693,0.025394,0.00327455,-0.281284,0.0850804,9.89367,-0.323663,0.213528,0.836053,-0.00281889,0.000834342,0.0989367,1,7.99932e-05,-2.96565e-05,0.000112495,0.0159986,-0.00593129,0.0224989,0.999603,-0.0117693,0.025394,0.00327455,0.614254,0.126875,-0.70858,34.8125,1,21012,21819434
27,4,0.999603,-0.0117693,0.025394,0.00327455,-0.281284,0.0850804,9.89367,-0.323663,0.213528,0.836053,-0.00281889,0.000834342,0.0989367,1,7.99932e-05,-2.96565e-05,0.000112495,0.0159986,-0.00593129,0.0224989,0.999603,-0.0117693,0.025394,0.00327455,0.614254,0.126875,-0.70858,34.8125,1,21012,21819434
28,1,0.999603,-0.0117693,0.025394,0.00327455,-0.281284,0.0850804,9.89367,-0.323663,0.213528,0.836053,-0.00281889,0.000834342,0.0989367,1,7.99932e-05,-2.96565e-05,0.000112495,0.0159986,-0.00593129,0.0224989,0.999603,-0.0117693,0.025394,0.00327455,0.614254,0.126875,-0.70858,34.8125,1,21012,21819434
28,2,0.999604,-0.0117251,0.025375,0.00337082,-0.120482,0.231749,10.0526,-0.175301,0.349086,0.965631,-0.00120562,0.00231268,0.100526,1,2.27746e-05,-1.77467e-06,9.57247e-05,0.00455492,-0.000354935,0.0191449,0.999604,-0.0117251,0.025375,0.00337082,0.613325,0.127823,-0.706534,34.8125,1,21013,21819534
28,3,0.999604,-0.0117251,0.025375,0.00337082,-0.120482,0.231749,10.0526,-0.175301,0.349086,0.965631,-0.00120562,0.00231268,0.100526,1,2.27746e-05,-1.77467e-06,9.57247e-05,0.00455492,-0.000354935,0.0191449,0.999604,-0.0117251,0.025375,0.00337082,0.613325,0.127823,-0.706534,34.8125,1,21013,21819534
28,4,0.999604,-0.0117251,0.025375,0.00337082,-0.120482,0.231749,10.0526,-0.175301,0.349086,0.965631,-0.00120562,0.00231268,0.100526,1,2.27746e-05,-1.77467e-06,9.57247e-05,0.00455492,-0.000354935,0.0191449,0.999604,-0.0117251,0.025375,0.00337082,0.613325,0.127823,-0.706534,34.8125,1,21013,21819534
29,1,0.999604,-0.0116589,0.025367,0.00346889,-0.391272,0.0755346,9.97031,-0.422043,0.195052,0.967448,-0.00391074,0.00074604,0.0997032,1,4.28148e-05,1.06539e-05,9.82824e-05,0.00856297,0.00213078,0.0196565,0.999604,-0.0116589,0.025367,0.00346889,0.613785,0.128315,-0.707031,34.8125,1,21014,21819634
29,2,0.999604,-0.0116589,0.025367,0.00346889,-0.391272,0.0755346,9.97031,-0.422043,0.195052,0.967448,-0.00391074,0.00074604,0.0997032,1,4.28148e-05,1.06539e-05,9.82824e-05,0.00856297,0.00213078,0.0196565,0.999604,-0.0116589,0.025367,0.00346889,0.613785,0.128315,-0.707031,34.8125,1,21014,21819634
29,3,0.999604,-0.0116589,0.025367,0.00346889,-0.391272,0.0755346,9.97031,-0.422043,0.195052,0.967448,-0.00391074,0.00074604,0.0997032,1,4.28148e-05,1.06539e-05,9.82824e-05,0.00856297,0.00213078,0.0196565,0.999604,-0.0116589,0.025367,0.00346889,0.613785,0.128315,-0.707031,34.8125,1,21014,21819634
29,4,0.999605,-0.0116205,0.0253514,0.00356709,-0.237932,-0.423971,10.2204,-0.298332,-0.207936,1.13315,-0.00237776,-0.00424301,0.102204,1,1.39135e-05,3.6055e-06,9.70199e-05,0.0027827,0.0007211,0.019404,0.999605,-0.0116205,0.0253514,0.00356709,0.615759,0.126818,-0.706063,34.8125,1,21015,21819734
30,1,0.999605,-0.0116205,0.0253514,0.00356709,-0.237932,-0.423971,10.2204,-0.298332,-0.207936,1.13315,-0.00237776,-0.00424301,0.102204,1,1.39135e-05,3.6055e-06,9.70199e-05,0.0027827,0.0007211,0.019404,0.999605,-0.0116205,0.0253514,0.00356709,0.615759,0.126818,-0.706063,34.8125,1,21015,21819734
30,2,0.999605,-0.0116205,0.0253514,0.00356709,-0.237932,-0.423971,10.2204,-0.298332,-0.207936,1.13315,-0.00237776,-0.00424301,0.102204,1,1.39135e-05,3.6055e-06,9.70199e-05,0.0027827,0.0007211,0.019404,0.999605,-0.0116205,0.0253514,0.00356709,0.615759,0.126818,-0.706063,34.8125,1,21015,21819734
30,3,0.999604,-0.0114983,0.0254046,0.00368002,-0.620355,-0.328053,9.94158,-0.583199,-0.213705,0.958866,-0.00618836,-0.00330157,0.099416,1,9.86268e-05,7.25836e-05,0.000115481,0.0197254,0.0145167,0.0230963,0.999604,-0.0114983,0.0254046,0.00368002,0.61624,0.128259,-0.705023,34.8125,1,21016,21819834
30,4,0.999604,-0.0114983,0.0254046,0.00368002,-0.620355,-0.328053,9.94158,-0.583199,-0.213705,0.958866,-0.00618836,-0.00330157,0.099416,1,9.86268e-05,7.25836e-05,0.000115481,0.0197254,0.0145167,0.0230963,0.999604,-0.0114983,0.0254046,0.00368002,0.61624,0.128259,-0.705023,34.8125,1,21016,21819834
31,1,0.999604,-0.0114983,0.0254046,0.00368002,-0.620355,-0.328053,9.94158,-0.583199,-0.213705,0.958866,-0.00618836,-0.00330157,0.099416,1,9.86268e-05,7.25836e-05,0.000115481,0.0197254,0.0145167,0.0230963,0.999604,-0.0114983,0.0254046,0.00368002,0.61624,0.128259,-0.705023,34.8125,1,21016,21819834
31,2,0.999606,-0.0113876,0.0253693,0.00381037,-0.525822,-0.228705,9.63316,-0.632065,-0.100029,0.603,-0.00526076,-0.00230512,0.096331,1,8.6638e-05,-1.63492e-05,0.000131292,0.0173276,-0.00326984,0.0262584,0.999606,-0.0113876,0.0253693,0.00381037,0.617104,0.128323,-0.709066,34.8125,1,21017,21819934
31,3,0.999606,-0.0113876,0.0253693,0.00381037,-0.525822,-0.228705,9.63316,-0.632065,-0.100029,0.603,-0.00526076,-0.00230512,0.096331,1,8.6638e-05,-1.63492e-05,0.000131292,0.0173276,-0.00326984,0.0262584,0.999606,-0.0113876,0.0253693,0.00381037,0.617104,0.128323,-0.709066,34.8125,1,21017,21819934
31,4,0.999606,-0.0113876,0.0253693,0.00381037,-0.525822,-0.228705,9.63316,-0.632065,-0.100029,0.603,-0.00526076,-0.00230512,0.096331,1,8.6638e-05,-1.63492e-05,0.000131292,0.0173276,-0.00326984,0.0262584,0.999606,-0.0113876,0.0253693,0.00381037,0.617104,0.128323,-0.709066,34.8125,1,21017,21819934
32,1,0.999607,-0.0112715,0.0253689,0.00395083,-0.312068,0.151394,9.82184,-0.33908,0.242632,0.791051,-0.00311762,0.00149499,0.0982188,1,9.19453e-05,1.77193e-05,0.000141599,0.0183891,0.00354385,0.0283198,0.999607,-0.0112715,0.0253689,0.00395083,0.618025,0.127864,-0.711101,34.8125,1,21018,21820034
32,2,0.999607,-0.0112715,0.0253689,0.00395083,-0.312068,0.151394,9.82184,-0.33908,0.242632,0.791051,-0.00311762,0.00149499,0.0982188,1,9.19453e-05,1.77193e-05,0.000141599,0.0183891,0.00354385,0.0283198,0.999607,-0.0112715,0.0253689,0.00395083,0.618025,0.127864,-0.711101,34.8125,1,21018,21820034
32,3,0.999607,-0.0112715,0.0253689,0.00395083,-0.312068,0.151394,9.82184,-0.33908,0.242632,0.791051,-0.00311762,0.00149499,0.0982188,1,9.19453e-05,1.77193e-05,0.000141599,0.0183891,0.00354385,0.0283198,0.999607,-0.0112715,0.0253689,0.00395083,0.618025,0.127864,-0.711101,34.8125,1,21018,21820034
32,4,0.999608,-0.0111741,0.0253528,0.00409265,-0.156817,0.364958,9.78937,-0.199927,0.468264,0.741741,-0.00156848,0.00363509,0.0978943,1,7.17107e-05,3.70893e-06,0.000142586,0.0143421,0.000741785,0.0285172,0.999608,-0.0111741,0.0253528,0.00409265,0.618604,0.126342,-0.708107,34.8125,1,21019,21820134
33,1,0.999608,-0.0111741,0.0253528,0.00409265,-0.156817,0.364958,9.78937,-0.199927,0.468264,0.741741,-0.00156848,0.00363509,0.0978943,1,7.17107e-05,3.70893e-06,0.000142586,0.0143421,0.000741785,0.0285172,0.999608,-0.0111741,0.0253528,0.00409265,0.618604,0.126342,-0.708107,34.8125,1,21019,21820134
33,2,0.999608,-0.0111741,0.0253528,0.00409265,-0.156817,0.364958,9.78937,-0.199927,0.468264,0.741741,-0.00156848,0.00363509,0.0978943,1,7.17107e-05,3.70893e-06,0.000142586,0.0143421,0.000741785,0.0285172,0.999608,-0.0111741,0.0253528,0.00409265,0.618604,0.126342,-0.708107,34.8125,1,21019,21820134
33,3,0.999608,-0.0111294,0.025359,0.0042203,-0.600539,0.408843,9.6452,-0.621089,0.581376,0.545137,-0.00600112,0.00408366,0.0964525,1,1.68791e-05,2.74905e-05,0.000126533,0.00337581,0.0054981,0.0253066,0.999608,-0.0111294,0.025359,0.0042203,0.61964,0.124835,-0.706125,34.8125,1,21020,21820234
33,4,0.999608,-0.0111294,0.025359,0.0042203,-0.600539,0.408843,9.6452,-0.621089,0.581376,0.545137,-0.00600112,0.00408366,0.0964525,1,1.68791e-05,2.74905e-05,0.000126533,0.00337581,0.0054981,0.0253066,0.999608,-0.0111294,0.025359,0.0042203,0.61964,0.124835,-0.706125,34.8125,1,21020,21820234
33,5,0.999608,-0.0111294,0.025359,0.0042203,-0.600539,0.408843,9.6452,-0.621089,0.581376,0.545137,-0.00600112,0.00408366,0.0964525,1,1.68791e-05,2.74905e-05,0.000126533,0.00337581,0.0054981,0.0253066,0.999608,-0.0111294,0.025359,0.0042203,0.61964,0.124835,-0.706125,34.8125,1,21020,21820234
33,6,0.999607,-0.0111111,0.0253801,0.00434756,-0.146008,0.17211,9.77139,-0.157186,0.327668,0.747123,-0.00145235,0.00172311,0.097714,1,-1.21781e-05,4.17332e-05,0.000124579,-0.00243561,0.00834665,0.0249159,0.999607,-0.0111111,0.0253801,0.00434756,0.621145,0.123333,-0.70465,34.8125,1,21021,21820334
34,1,0.999607,-0.0111111,0.0253801,0.00434756,-0.146008,0.17211,9.77139,-0.157186,0.327668,0.747123,-0.00145235,0.00172311,0.097714,1,-1.21781e-05,4.17332e-05,0.000124579,-0.00243561,0.00834665,0.0249159,0.999607,-0.0111111,0.0253801,0.00434756,0.621145,0.123333,-0.70465,34.8125,1,21021,21820334
34,2,0.999607,-0.0111111,0.0253801,0.00434756,-0.146008,0.17211,9.77139,-0.157186,0.327668,0.747123,-0.00145235,0.00172311,0.097714,1,-1.21781e-05,4.17332e-05,0.000124579,-0.00243561,0.00834665,0.0249159,0.999607,-0.0111111,0.0253801,0.00434756,0.621145,0.123333,-0.70465,34.8125,1,21021,21820334
35,1,0.999608,-0.0110518,0.0253489,0.00447663,-0.602012,-0.23793,9.82049,-0.772514,-0.121935,0.836697,-0.00602142,-0.0023861,0.0982046,1,2.6892e-05,-9.67495e-06,0.0001262,0.0053784,-0.00193499,0.0252399,0.999608,-0.0110518,0.0253489,0.00447663,0.621585,0.124322,-0.70564,34.8125,1,21022,21820434
35,2,0.999608,-0.0110518,0.0253489,0.00447663,-0.602012,-0.23793,9.82049,-0.772514,-0.121935,0.836697,-0.00602142,-0.0023861,0.0982046,1,2.6892e-05,-9.67495e-06,0.0001262,0.0053784,-0.00193499,0.0252399,0.999608,-0.0110518,0.0253489,0.00447663,0.621585,0.124322,-0.70564,34.8125,1,21022,21820434
35,3,0.999608,-0.0110518,0.0253489,0.00447663,-0.602012,-0.23793,9.82049,-0.772514,-0.121935,0.836697,-0.00602142,-0.0023861,0.0982046,1,2.6892e-05,-9.67495e-06,0.0001262,0.0053784,-0.00193499,0.0252399,0.999608,-0.0110518,0.0253489,0.00447663,0.621585,0.124322,-0.70564,34.8125,1,21022,21820434
35,4,0.999608,-0.0109928,0.0253202,0.00461375,-0.46603,-0.076584,9.83996,-0.437418,0.034166,0.710729,-0.00466161,-0.000772322,0.0983994,1,2.65621e-05,-7.73113e-06,0.000134622,0.00531242,-0.00154623,0.0269244,0.999608,-0.0109928,0.0253202,0.00461375,0.623497,0.12576,-0.705112,34.8125,1,21023,21820534
36,1,0.999608,-0.0109928,0.0253202,0.00461375,-0.46603,-0.076584,9.83996,-0.437418,0.034166,0.710729,-0.00466161,-0.000772322,0.0983994,1,2.65621e-05,-7.73113e-06,0.000134622,0.00531242,-0.00154623,0.0269244,0.999608,-0.0109928,0.0253202,0.00461375,0.623497,0.12576,-0.705112,34.8125,1,21023,21820534
36,2,0.999608,-0.0109928,0.0253202,0.00461375,-0.46603,-0.076584,9.83996,-0.437418,0.034166,0.710729,-0.00466161,-0.000772322,0.0983994,1,2.65621e-05,-7.73113e-06,0.000134622,0.00531242,-0.00154623,0.0269244,0.999608,-0.0109928,0.0253202,0.00461375,0.623497,0.12576,-0.705112,34.8125,1,21023,21820534
54,1,0.999609,-0.0109518,0.0253008,0.00473624,-0.354102,0.0458476,9.70998,-0.427028,0.13993,0.640248,-0.00354066,0.000455996,0.0970999,1,8.40285e-06,2.38251e-06,0.000119861,0.00168057,0.000476502,0.0239722,0.999609,-0.0109518,0.0253008,0.00473624,0.622519,0.126744,-0.705086,34.8125,1,21024,21820634
54,2,0.999609,-0.0109518,0.0253008,0.00473624,-0.354102,0.0458476,9.70998,-0.427028,0.13993,0.640248,-0.00354066,0.000455996,0.0970999,1,8.40285e-06,2.38251e-06,0.000119861,0.00168057,0.000476502,0.0239722,0.999609,-0.0109518,0.0253008,0.00473624,0.622519,0.126744,-0.705086,34.8125,1,21024,21820634
54,3,0.999609,-0.0109518,0.0253008,0.00473624,-0.354102,0.0458476,9.70998,-0.427028,0.13993,0.640248,-0.00354066,0.000455996,0.0970999,1,8.40285e-06,2.38251e-06,0.000119861,0.00168057,0.000476502,0.0239722,0.999609,-0.0109518,0.0253008,0.00473624,0.622519,0.126744,-0.705086,34.8125,1,21024,21820634
54,4,0.99961,-0.0109012,0.025256,0.0048792,-0.210002,0.10262,9.94423,-0.331073,0.215535,1.01652,-0.00210487,0.00102235,0.0994422,1,1.64049e-05,-2.29477e-05,0.000139952,0.00328098,-0.00458954,0.0279904,0.99961,-0.0109012,0.025256,0.0048792,0.622988,0.126749,-0.705593,34.8125,1,21025,21820734
55,1,0.99961,-0.0109012,0.025256,0.0048792,-0.210002,0.10262,9.94423,-0.331073,0.215535,1.01652,-0.00210487,0.00102235,0.0994422,1,1.64049e-05,-2.29477e-05,0.000139952,0.00328098,-0.00458954,0.0279904,0.99961,-0.0109012,0.025256,0.0048792,0.622988,0.126749,-0.705593,34.8125,1,21025,21820734
55,2,0.99961,-0.0109012,0.025256,0.0048792,-0.210002,0.10262,9.94423,-0.331073,0.215535,1.01652,-0.00210487,0.00102235,0.0994422,1,1.64049e-05,-2.29477e-05,0.000139952,0.00328098,-0.00458954,0.0279904,0.99961,-0.0109012,0.025256,0.0048792,0.622988,0.126749,-0.705593,34.8125,1,21025,21820734
55,3,0.99961,-0.0108584,0.0252273,0.00502073,-0.517061,0.227838,9.86089,-0.472227,0.382557,0.824769,-0.00517236,0.00227552,0.0986089,1,7.21356e-06,-5.6816e-06,0.000138376,0.00144271,-0.00113632,0.0276752,0.99961,-0.0108584,0.0252273,0.00502073,0.624012,0.126696,-0.703073,34.8125,1,21026,21820834
55,4,0.99961,-0.0108584,0.0252273,0.00502073,-0.517061,0.227838,9.86089,-0.472227,0.382557,0.824769,-0.00517236,0.00227552,0.0986089,1,7.21356e-06,-5.6816e-06,0.000138376,0.00144271,-0.00113632,0.0276752,0.99961,-0.0108584,0.0252273,0.00502073,0.624012,0.126696,-0.703073,34.8125,1,21026,21820834
55,5,0.99961,-0.0108584,0.0252273,0.00502073,-0.517061,0.227838,9.86089,-0.472227,0.382557,0.824769,-0.00517236,0.00227552,0.0986089,1,7.21356e-06,-5.6816e-06,0.000138376,0.00144271,-0.00113632,0.0276752,0.99961,-0.0108584,0.0252273,0.00502073,0.624012,0.126696,-0.703073,34.8125,1,21026,21820834
55,6,0.99961,-0.010826,0.0252067,0.00515142,-0.638028,0.117258,9.61177,-0.610266,0.29391,0.50174,-0.00638008,0.00117189,0.0961177,1,-4.8641e-06,2.59047e-06,0.00012752,-0.00097282,0.000518094,0.0255041,0.99961,-0.010826,0.0252067,0.00515142,0.624045,0.12619,-0.702075,34.8125,1,21027,21820934
39,1,0.99961,-0.010826,0.0252067,0.00515142,-0.638028,0.117258,9.61177,-0.610266,0.29391,0.50174,-0.00638008,0.00117189,0.0961177,1,-4.8641e-06,2.59047e-06,0.00012752,-0.00097282,0.000518094,0.0255041,0.99961,-0.010826,0.0252067,0.00515142,0.624045,0.12619,-0.702075,34.8125,1,21027,21820934
39,2,0.99961,-0.010826,0.0252067,0.00515142,-0.638028,0.117258,9.61177,-0.610266,0.29391,0.50174,-0.00638008,0.00117189,0.0961177,1,-4.8641e-06,2.59047e-06,0.00012752,-0.00097282,0.000518094,0.0255041,0.99961,-0.010826,0.0252067,0.00515142,0.624045,0.12619,-0.702075,34.8125,1,21027,21820934
40,1,0.999612,-0.0107885,0.0251332,0.00527432,-0.243561,0.0815178,9.70956,-0.402588,0.207146,0.662102,-0.00244579,0.000814863,0.0970954,1,-1.35395e-06,-5.14278e-05,0.000118482,-0.00027079,-0.0102856,0.0236964,0.999612,-0.0107885,0.0251332,0.00527432,0.625446,0.124281,-0.705154,34.8125,1,21028,21821034
40,2,0.999612,-0.0107885,0.0251332,0.00527432,-0.243561,0.0815178,9.70956,-0.402588,0.207146,0.662102,-0.00244579,0.000814863,0.0970954,1,-1.35395e-06,-5.14278e-05,0.000118482,-0.00027079,-0.0102856,0.0236964,0.999612,-0.0107885,0.0251332,0.00527432,0.625446,0.124281,-0.705154,34.8125,1,21028,21821034
58,1,0.999612,-0.0107885,0.0251332,0.00527432,-0.243561,0.0815178,9.70956,-0.402588,0.207146,0.662102,-0.00244579,0.000814863,0.0970954,1,-1.35395e-06,-5.14278e-05,0.000118482,-0.00027079,-0.0102856,0.0236964,0.999612,-0.0107885,0.0251332,0.00527432,0.625446,0.124281,-0.705154,34.8125,1,21028,21821034
58,2,0.999613,-0.0107914,0.0250706,0.00541428,-0.318143,-0.0395191,9.89559,-0.366832,0.0368042,0.868942,-0.00318908,-0.000387442,0.0989557,1,-4.34781e-05,-3.9162e-05,0.000134441,-0.00869563,-0.00783239,0.0268882,0.999613,-0.0107914,0.0250706,0.00541428,0.627382,0.121366,-0.706743,34.8125,1,21029,21821134
58,3,0.999613,-0.0107914,0.0250706,0.00541428,-0.318143,-0.0395191,9.89559,-0.366832,0.0368042,0.868942,-0.00318908,-0.000387442,0.0989557,1,-4.34781e-05,-3.9162e-05,0.000134441,-0.00869563,-0.00783239,0.0268882,0.999613,-0.0107914,0.0250706,0.00541428,0.627382,0.121366,-0.706743,34.8125,1,21029,21821134
58,4,0.999613,-0.0107914,0.0250706,0.00541428,-0.318143,-0.0395191,9.89559,-0.366832,0.0368042,0.868942,-0.00318908,-0.000387442,0.0989557,1,-4.34781e-05,-3.9162e-05,0.000134441,-0.00869563,-0.00783239,0.0268882,0.999613,-0.0107914,0.0250706,0.00541428,0.627382,0.121366,-0.706743,34.8125,1,21029,21821134
42,1,0.999613,-0.0108001,0.0250319,0.00554691,-0.395541,-0.100628,9.88032,-0.441917,-0.00779493,0.764154,-0.00395793,-0.000997494,0.0988031,1,-4.95556e-05,-1.40522e-05,0.000127589,-0.00991112,-0.00281044,0.0255177,0.999613,-0.0108001,0.0250319,0.00554691,0.627872,0.122319,-0.705714,34.8125,1,21030,21821234
42,2,0.999613,-0.0108001,0.0250319,0.00554691,-0.395541,-0.100628,9.88032,-0.441917,-0.00779493,0.764154,-0.00395793,-0.000997494,0.0988031,1,-4.95556e-05,-1.40522e-05,0.000127589,-0.00991112,-0.00281044,0.0255177,0.999613,-0.0108001,0.0250319,0.00554691,0.627872,0.122319,-0.705714,34.8125,1,21030,21821234
60,1,0.999613,-0.0108001,0.0250319,0.00554691,-0.395541,-0.100628,9.88032,-0.441917,-0.00779493,0.764154,-0.00395793,-0.000997494,0.0988031,1,-4.95556e-05,-1.40522e-05,0.000127589,-0.00991112,-0.00281044,0.0255177,0.999613,-0.0108001,0.0250319,0.00554691,0.627872,0.122319,-0.705714,34.8125,1,21030,21821234
60,2,0.999613,-0.0107696,0.0250061,0.00568024,-0.370029,-0.148927,9.7949,-0.393752,-0.100528,0.79826,-0.00370013,-0.00148812,0.0979491,1,-1.0763e-05,-1.10345e-06,0.000129374,-0.0021526,-0.00022069,0.0258747,0.999613,-0.0107696,0.0250061,0.00568024,0.627913,0.122771,-0.703684,34.8125,1,21031,21821334
60,3,0.999613,-0.0107696,0.0250061,0.00568024,-0.370029,-0.148927,9.7949,-0.393752,-0.100528,0.79826,-0.00370013,-0.00148812,0.0979491,1,-1.0763e-05,-1.10345e-06,0.000129374,-0.0021526,-0.00022069,0.0258747,0.999613,-0.0107696,0.0250061,0.00568024,0.627913,0.122771,-0.703684,34.8125,1,21031,21821334
60,4,0.999613,-0.0107696,0.0250061,0.00568024,-0.370029,-0.148927,9.7949,-0.393752,-0.100528,0.79826,-0.00370013,-0.00148812,0.0979491,1,-1.0763e-05,-1.10345e-06,0.000129374,-0.0021526,-0.00022069,0.0258747,0.999613,-0.0107696,0.0250061,0.00568024,0.627913,0.122771,-0.703684,34.8125,1,21031,21821334
61,1,0.999614,-0.0107603,0.0249376,0.00583203,-0.417168,-0.11863,9.86403,-0.593594,-0.00937433,0.898552,-0.00417986,-0.00118109,0.09864,1,-3.26321e-05,-4.32252e-05,0.000146732,-0.00652643,-0.00864503,0.0293464,0.999614,-0.0107603,0.0249376,0.00583203,0.627946,0.12371,-0.701643,34.8125,1,21032,21821434
61,2,0.999614,-0.0107603,0.0249376,0.00583203,-0.417168,-0.11863,9.86403,-0.593594,-0.00937433,0.898552,-0.00417986,-0.00118109,0.09864,1,-3.26321e-05,-4.32252e-05,0.000146732,-0.00652643,-0.00864503,0.0293464,0.999614,-0.0107603,0.0249376,0.00583203,0.627946,0.12371,-0.701643,34.8125,1,21032,21821434
61,3,0.999614,-0.0107603,0.0249376,0.00583203,-0.417168,-0.11863,9.86403,-0.593594,-0.00937433,0.898552,-0.00417986,-0.00118109,0.09864,1,-3.26321e-05,-4.32252e-05,0.000146732,-0.00652643,-0.00864503,0.0293464,0.999614,-0.0107603,0.0249376,0.00583203,0.627946,0.12371,-0.701643,34.8125,1,21032,21821434
61,4,0.999615,-0.0106952,0.024892,0.00597665,-0.424404,-0.109852,9.76205,-0.492955,-0.0671806,0.77518,-0.00424765,-0.00110425,0.0976203,1,2.32058e-05,-2.00869e-05,0.00014167,0.00464115,-0.00401738,0.0283341,0.999615,-0.0106952,0.024892,0.00597665,0.62939,0.123698,-0.70165,34.8125,1,21033,21821534
62,1,0.999615,-0.0106952,0.024892,0.00597665,-0.424404,-0.109852,9.76205,-0.492955,-0.0671806,0.77518,-0.00424765,-0.00110425,0.0976203,1,2.32058e-05,-2.00869e-05,0.00014167,0.00464115,-0.00401738,0.0283341,0.999615,-0.0106952,0.024892,0.00597665,0.62939,0.123698,-0.70165,34.8125,1,21033,21821534
62,2,0.999615,-0.0106952,0.024892,0.00597665,-0.424404,-0.109852,9.76205,-0.492955,-0.0671806,0.77518,-0.00424765,-0.00110425,0.0976203,1,2.32058e-05,-2.00869e-05,0.00014167,0.00464115,-0.00401738,0.0283341,0.999615,-0.0106952,0.024892,0.00597665,0.62939,0.123698,-0.70165,34.8125,1,21033,21821534
62,3,0.999616,-0.01064,0.0248324,0.00612234,-0.182656,0.0130513,9.80759,-0.268039,0.121319,0.767407,-0.00183318,0.000127463,0.0980758,1,1.28824e-05,-3.35902e-05,0.000142852,0.00257648,-0.00671803,0.0285703,0.999616,-0.01064,0.0248324,0.00612234,0.63223,0.121299,-0.705252,34.8125,1,21034,21821634
62,4,0.999616,-0.01064,0.0248324,0.00612234,-0.182656,0.0130513,9.80759,-0.268039,0.121319,0.767407,-0.00183318,0.000127463,0.0980758,1,1.28824e-05,-3.35902e-05,0.000142852,0.00257648,-0.00671803,0.0285703,0.999616,-0.01064,0.0248324,0.00612234,0.63223,0.121299,-0.705252,34.8125,1,21034,21821634
63,1,0.999616,-0.01064,0.0248324,0.00612234,-0.182656,0.0130513,9.80759,-0.268039,0.121319,0.767407,-0.00183318,0.000127463,0.0980758,1,1.28824e-05,-3.35902e-05,0.000142852,0.00257648,-0.00671803,0.0285703,0.999616,-0.01064,0.0248324,0.00612234,0.63223,0.121299,-0.705252,34.8125,1,21034,21821634
63,2,0.999617,-0.0105798,0.0248022,0.00627261,-0.0101715,-0.07143,9.97564,-0.112827,0.0147419,0.907743,-0.000102112,-0.00071771,0.0997564,1,1.69419e-05,-3.0456e-06,0.000147192,0.00338838,-0.000609119,0.0294384,0.999617,-0.0105798,0.0248022,0.00627261,0.63318,0.1213,-0.705761,34.8125,1,21035,21821734
63,3,0.999617,-0.0105798,0.0248022,0.00627261,-0.0101715,-0.07143,9.97564,-0.112827,0.0147419,0.907743,-0.000102112,-0.00071771,0.0997564,1,1.69419e-05,-3.0456e-06,0.000147192,0.00338838,-0.000609119,0.0294384,0.999617,-0.0105798,0.0248022,0.00627261,0.63318,0.1213,-0.705761,34.8125,1,21035,21821734
63,4,0.999617,-0.0105798,0.0248022,0.00627261,-0.0101715,-0.07143,9.97564,-0.112827,0.0147419,0.907743,-0.000102112,-0.00071771,0.0997564,1,1.69419e-05,-3.0456e-06,0.000147192,0.00338838,-0.000609119,0.0294384,0.999617,-0.0105798,0.0248022,0.00627261,0.63318,0.1213,-0.705761,34.8125,1,21035,21821734
47,1,0.999616,-0.0105305,0.0248215,0.00641951,-0.38442,0.125508,9.82924,-0.36463,0.274351,0.742736,-0.00383494,0.0012528,0.0982928,1,5.98092e-06,4.89488e-05,0.000143589,0.00119618,0.00978976,0.0287178,0.999616,-0.0105305,0.0248215,0.00641951,0.634158,0.120316,-0.705787,34.8125,1,21036,21821834
47,2,0.999616,-0.0105305,0.0248215,0.00641951,-0.38442,0.125508,9.82924,-0.36463,0.274351,0.742736,-0.00383494,0.0012528,0.0982928,1,5.98092e-06,4.89488e-05,0.000143589,0.00119618,0.00978976,0.0287178,0.999616,-0.0105305,0.0248215,0.00641951,0.634158,0.120316,-0.705787,34.8125,1,21036,21821834
65,1,0.999616,-0.0105305,0.0248215,0.00641951,-0.38442,0.125508,9.82924,-0.36463,0.274351,0.742736,-0.00383494,0.0012528,0.0982928,1,5.98092e-06,4.89488e-05,0.000143589,0.00119618,0.00978976,0.0287178,0.999616,-0.0105305,0.0248215,0.00641951,0.634158,0.120316,-0.705787,34.8125,1,21036,21821834
65,2,0.999616,-0.0104802,0.0247908,0.00654245,-0.291351,-0.0175269,9.67441,-0.41229,0.10655,0.576418,-0.00291349,-0.000177021,0.0967441,1,5.48871e-06,-1.47373e-07,0.000118474,0.00109774,-2.94747e-05,0.0236947,0.999616,-0.0104802,0.0247908,0.00654245,0.635606,0.119337,-0.706321,34.8125,1,21037,21821934
65,3,0.999616,-0.0104802,0.0247908,0.00654245,-0.291351,-0.0175269,9.67441,-0.41229,0.10655,0.576418,-0.00291349,-0.000177021,0.0967441,1,5.48871e-06,-1.47373e-07,0.000118474,0.00109774,-2.94747e-05,0.0236947,0.999616,-0.0104802,0.0247908,0.00654245,0.635606,0.119337,-0.706321,34.8125,1,21037,21821934
65,4,0.999616,-0.0104802,0.0247908,0.00654245,-0.291351,-0.0175269,9.67441,-0.41229,0.10655,0.576418,-0.00291349,-0.000177021,0.0967441,1,5.48871e-06,-1.47373e-07,0.000118474,0.00109774,-2.94747e-05,0.0236947,0.999616,-0.0104802,0.0247908,0.00654245,0.635606,0.119337,-0.706321,34.8125,1,21037,21821934
65,5,0.999617,-0.0104232,0.0247423,0.0066719,-0.31987,-0.0999806,9.69799,-0.427275,-0.0627172,0.601172,-0.00320193,-0.00100279,0.0969798,1,1.12492e-05,-1.79316e-05,0.000125156,0.00224983,-0.00358632,0.0250313,0.999617,-0.0104232,0.0247423,0.0066719,0.632674,0.119876,-0.707811,34.8125,1,21038,21822034
65,6,0.999617,-0.0104232,0.0247423,0.0066719,-0.31987,-0.0999806,9.69799,-0.427275,-0.0627172,0.601172,-0.00320193,-0.00100279,0.0969798,1,1.12492e-05,-1.79316e-05,0.000125156,0.00224983,-0.00358632,0.0250313,0.999617,-0.0104232,0.0247423,0.0066719,0.632674,0.119876,-0.707811,34.8125,1,21038,21822034
49,1,0.999617,-0.0104232,0.0247423,0.0066719,-0.31987,-0.0999806,9.69799,-0.427275,-0.0627172,0.601172,-0.00320193,-0.00100279,0.0969798,1,1.12492e-05,-1.79316e-05,0.000125156,0.00224983,-0.00358632,0.0250313,0.999617,-0.0104232,0.0247423,0.0066719,0.632674,0.119876,-0.707811,34.8125,1,21038,21822034
49,2,0.999618,-0.0103521,0.0246951,0.00682358,0.0721456,-0.102932,9.87713,-0.0206183,-0.0110164,0.784104,0.000718593,-0.00103398,0.0987713,1,2.46791e-05,-1.60365e-05,0.000147969,0.00493582,-0.00320731,0.0295937,0.999618,-0.0103521,0.0246951,0.00682358,0.632718,0.117916,-0.707349,34.8125,1,21039,21822134
50,1,0.999618,-0.0103521,0.0246951,0.00682358,0.0721456,-0.102932,9.87713,-0.0206183,-0.0110164,0.784104,0.000718593,-0.00103398,0.0987713,1,2.46791e-05,-1.60365e-05,0.000147969,0.00493582,-0.00320731,0.0295937,0.999618,-0.0103521,0.0246951,0.00682358,0.632718,0.117916,-0.707349,34.8125,1,21039,21822134
50,2,0.999618,-0.0103521,0.0246951,0.00682358,0.0721456,-0.102932,9.87713,-0.0206183,-0.0110164,0.784104,0.000718593,-0.00103398,0.0987713,1,2.46791e-05,-1.60365e-05,0.000147969,0.00493582,-0.00320731,0.0295937,0.999618,-0.0103521,0.0246951,0.00682358,0.632718,0.117916,-0.707349,34.8125,1,21039,21822134
50,3,0.999618,-0.0102709,0.0246872,0.00697162,0.184975,0.0572999,9.8547,0.192417,0.107145,0.81191,0.0018549,0.000566706,0.0985469,1,3.46596e-05,2.69816e-05,0.0001452,0.00693191,0.00539632,0.0290401,0.999618,-0.0102709,0.0246872,0.00697162,0.635136,0.116442,-0.707898,34.8125,1,21040,21822234
50,4,0.999618,-0.0102709,0.0246872,0.00697162,0.184975,0.0572999,9.8547,0.192417,0.107145,0.81191,0.0018549,0.000566706,0.0985469,1,3.46596e-05,2.69816e-05,0.0001452,0.00693191,0.00539632,0.0290401,0.999618,-0.0102709,0.0246872,0.00697162,0.635136,0.116442,-0.707898,34.8125,1,21040,21822234
52,1,0.999618,-0.0102709,0.0246872,0.00697162,0.184975,0.0572999,9.8547,0.192417,0.107145,0.81191,0.0018549,0.000566706,0.0985469,1,3.46596e-05,2.69816e-05,0.0001452,0.00693191,0.00539632,0.0290401,0.999618,-0.0102709,0.0246872,0.00697162,0.635136,0.116442,-0.707898,34.8125,1,21040,21822234
52,2,0.999618,-0.0102492,0.0246688,0.00713964,-0.295224,0.0623268,9.65205,-0.354864,0.204811,0.611199,-0.00294849,0.000627391,0.0965206,1,-2.63983e-05,2.0465e-05,0.000164926,-0.00527965,0.004093,0.0329852,0.999618,-0.0102492,0.0246688,0.00713964,0.637578,0.11495,-0.707438,34.8125,1,21041,21822334
52,3,0.999618,-0.0102492,0.0246688,0.00713964,-0.295224,0.0623268,9.65205,-0.354864,0.204811,0.611199,-0.00294849,0.000627391,0.0965206,1,-2.63983e-05,2.0465e-05,0.000164926,-0.00527965,0.004093,0.0329852,0.999618,-0.0102492,0.0246688,0.00713964,0.637578,0.11495,-0.707438,34.8125,1,21041,21822334
52,4,0.999618,-0.0102492,0.0246688,0.00713964,-0.295224,0.0623268,9.65205,-0.354864,0.204811,0.611199,-0.00294849,0.000627391,0.0965206,1,-2.63983e-05,2.0465e-05,0.000164926,-0.00527965,0.004093,0.0329852,0.999618,-0.0102492,0.0246688,0.00713964,0.637578,0.11495,-0.707438,34.8125,1,21041,21822334
69,1,0.999618,-0.0101877,0.0246548,0.00729342,0.0318371,-0.101098,9.80991,0.0103689,0.0742783,0.696579,0.000323562,-0.00101335,0.0980991,1,1.25959e-05,2.49041e-05,0.000150595,0.00251918,0.00498083,0.030119,0.999618,-0.0101877,0.0246548,0.00729342,0.637594,0.113974,-0.707459,34.8125,1,21042,21822434
69,2,0.999618,-0.0101877,0.0246548,0.00729342,0.0318371,-0.101098,9.80991,0.0103689,0.0742783,0.696579,0.000323562,-0.00101335,0.0980991,1,1.25959e-05,2.49041e-05,0.000150595,0.00251918,0.00498083,0.030119,0.999618,-0.0101877,0.0246548,0.00729342,0.637594,0.113974,-0.707459,34.8125,1,21042,21822434
69,3,0.999618,-0.0101877,0.0246548,0.00729342,0.0318371,-0.101098,9.80991,0.0103689,0.0742783,0.696579,0.000323562,-0.00101335,0.0980991,1,1.25959e-05,2.49041e-05,0.000150595,0.00251918,0.00498083,0.030119,0.999618,-0.0101877,0.0246548,0.00729342,0.637594,0.113974,-0.707459,34.8125,1,21042,21822434
69,4,0.999618,-0.0100887,0.0246299,0.00745616,-0.154783,-0.0532582,9.76239,-0.165128,0.0495768,0.658368,-0.00154437,-0.000542726,0.0976239,1,4.94131e-05,1.68331e-05,0.000160467,0.00988261,0.00336662,0.0320934,0.999618,-0.0100887,0.0246299,0.00745616,0.637084,0.113517,-0.708982,34.8125,1,21043,21822534
69,5,0.999618,-0.0100887,0.0246299,0.00745616,-0.154783,-0.0532582,9.76239,-0.165128,0.0495768,0.658368,-0.00154437,-0.000542726,0.0976239,1,4.94131e-05,1.68331e-05,0.000160467,0.00988261,0.00336662,0.0320934,0.999618,-0.0100887,0.0246299,0.00745616,0.637084,0.113517,-0.708982,34.8125,1,21043,21822534
69,6,0.999618,-0.0100887,0.0246299,0.00745616,-0.154783,-0.0532582,9.76239,-0.165128,0.0495768,0.658368,-0.00154437,-0.000542726,0.0976239,1,4.94131e-05,1.68331e-05,0.000160467,0.00988261,0.00336662,0.0320934,0.999618,-0.0100887,0.0246299,0.00745616,0.637084,0.113517,-0.708982,34.8125,1,21043,21822534
54,1,0.999619,-0.0100052,0.0245883,0.00763179,0.159824,0.0283018,9.89055,0.0644497,0.145638,0.713752,0.00159856,0.000277026,0.0989055,1,3.31026e-05,2.07866e-06,0.00017376,0.00662052,0.000415733,0.0347521,0.999619,-0.0100052,0.0245883,0.00763179,0.638548,0.114454,-0.707453,34.8125,1,21044,21822634
54,2,0.999619,-0.0100052,0.0245883,0.00763179,0.159824,0.0283018,9.89055,0.0644497,0.145638,0.713752,0.00159856,0.000277026,0.0989055,1,3.31026e-05,2.07866e-06,0.00017376,0.00662052,0.000415733,0.0347521,0.999619,-0.0100052,0.0245883,0.00763179,0.638548,0.114454,-0.707453,34.8125,1,21044,21822634
54,3,0.999619,-0.0100052,0.0245883,0.00763179,0.159824,0.0283018,9.89055,0.0644497,0.145638,0.713752,0.00159856,0.000277026,0.0989055,1,3.31026e-05,2.07866e-06,0.00017376,0.00662052,0.000415733,0.0347521,0.999619,-0.0100052,0.0245883,0.00763179,0.638548,0.114454,-0.707453,34.8125,1,21044,21822634
54,4,0.999618,-0.00993662,0.024573,0.00781029,0.0221934,0.151771,9.91221,-0.0341121,0.242478,0.791044,0.000227811,0.00151435,0.0991222,1,1.732e-05,3.23458e-05,0.000176576,0.003464,0.00646916,0.0353151,0.999618,-0.00993662,0.024573,0.00781029,0.641015,0.112943,-0.705983,34.8125,1,21045,21822734
54,5,0.999618,-0.00993662,0.024573,0.00781029,0.0221934,0.151771,9.91221,-0.0341121,0.242478,0.791044,0.000227811,0.00151435,0.0991222,1,1.732e-05,3.23458e-05,0.000176576,0.003464,0.00646916,0.0353151,0.999618,-0.00993662,0.024573,0.00781029,0.641015,0.112943,-0.705983,34.8125,1,21045,21822734
54,6,0.999618,-0.00993662,0.024573,0.00781029,0.0221934,0.151771,9.91221,-0.0341121,0.242478,0.791044,0.000227811,0.00151435,0.0991222,1,1.732e-05,3.23458e-05,0.000176576,0.003464,0.00646916,0.0353151,0.999618,-0.00993662,0.024573,0.00781029,0.641015,0.112943,-0.705983,34.8125,1,21045,21822734
55,1,0.999618,-0.00992725,0.0245418,0.00798913,-0.0682246,0.183838,9.791,-0.195685,0.308253,0.792351,-0.000679101,0.00184671,0.0979098,1,-4.37865e-05,1.93534e-05,0.000174812,-0.0087573,0.00387068,0.0349623,0.999618,-0.00992725,0.0245418,0.00798913,0.642409,0.111522,-0.709051,34.8125,1,21046,21822834
55,2,0.999618,-0.00992725,0.0245418,0.00798913,-0.0682246,0.183838,9.791,-0.195685,0.308253,0.792351,-0.000679101,0.00184671,0.0979098,1,-4.37865e-05,1.93534e-05,0.000174812,-0.0087573,0.00387068,0.0349623,0.999618,-0.00992725,0.0245418,0.00798913,0.642409,0.111522,-0.709051,34.8125,1,21046,21822834
56,1,0.999618,-0.00992725,0.0245418,0.00798913,-0.0682246,0.183838,9.791,-0.195685,0.308253,0.792351,-0.000679101,0.00184671,0.0979098,1,-4.37865e-05,1.93534e-05,0.000174812,-0.0087573,0.00387068,0.0349623,0.999618,-0.00992725,0.0245418,0.00798913,0.642409,0.111522,-0.709051,34.8125,1,21046,21822834
56,2,0.999617,-0.00987777,0.0245352,0.00817756,-0.00530206,-0.171374,9.91675,0.0311349,-0.143432,1.07045,-4.32616e-05,-0.00171264,0.0991675,1,-5.61769e-06,4.59952e-05,0.000185772,-0.00112354,0.00919905,0.0371545,0.999617,-0.00987777,0.0245352,0.00817756,0.643354,0.111045,-0.710076,34.8125,1,21047,21822934
57,1,0.999617,-0.00987777,0.0245352,0.00817756,-0.00530206,-0.171374,9.91675,0.0311349,-0.143432,1.07045,-4.32616e-05,-0.00171264,0.0991675,1,-5.61769e-06,4.59952e-05,0.000185772,-0.00112354,0.00919905,0.0371545,0.999617,-0.00987777,0.0245352,0.00817756,0.643354,0.111045,-0.710076,34.8125,1,21047,21822934
57,2,0.999617,-0.00987777,0.0245352,0.00817756,-0.00530206,-0.171374,9.91675,0.0311349,-0.143432,1.07045,-4.32616e-05,-0.00171264,0.0991675,1,-5.61769e-06,4.59952e-05,0.000185772,-0.00112354,0.00919905,0.0371545,0.999617,-0.00987777,0.0245352,0.00817756,0.643354,0.111045,-0.710076,34.8125,1,21047,21822934
74,1,0.999617,-0.00982114,0.0244878,0.00837699,-0.137736,-0.249319,9.93529,-0.265817,-0.114706,0.981948,-0.0013749,-0.002494,0.0993529,1,1.35278e-06,7.42292e-06,0.000196591,0.000270555,0.00148458,0.0393182,0.999617,-0.00982114,0.0244878,0.00837699,0.642894,0.110552,-0.70958,34.8125,1,21048,21823034
74,2,0.999617,-0.00982114,0.0244878,0.00837699,-0.137736,-0.249319,9.93529,-0.265817,-0.114706,0.981948,-0.0013749,-0.002494,0.0993529,1,1.35278e-06,7.42292e-06,0.000196591,0.000270555,0.00148458,0.0393182,0.999617,-0.00982114,0.0244878,0.00837699,0.642894,0.110552,-0.70958,34.8125,1,21048,21823034
74,3,0.999617,-0.00982114,0.0244878,0.00837699,-0.137736,-0.249319,9.93529,-0.265817,-0.114706,0.981948,-0.0013749,-0.002494,0.0993529,1,1.35278e-06,7.42292e-06,0.000196591,0.000270555,0.00148458,0.0393182,0.999617,-0.00982114,0.0244878,0.00837699,0.642894,0.110552,-0.70958,34.8125,1,21048,21823034
74,4,0.999617,-0.00971175,0.0244491,0.00855901,0.080297,-0.308001,10.1864,0.0753735,-0.194477,1.01209,0.00080755,-0.00309102,0.101863,1,5.54856e-05,1.70109e-05,0.000180629,0.0110971,0.00340219,0.0361257,0.999617,-0.00971175,0.0244491,0.00855901,0.642934,0.109558,-0.708592,34.8125,1,21049,21823134
74,5,0.999617,-0.00971175,0.0244491,0.00855901,0.080297,-0.308001,10.1864,0.0753735,-0.194477,1.01209,0.00080755,-0.00309102,0.101863,1,5.54856e-05,1.70109e-05,0.000180629,0.0110971,0.00340219,0.0361257,0.999617,-0.00971175,0.0244491,0.00855901,0.642934,0.109558,-0.708592,34.8125,1,21049,21823134
74,6,0.999617,-0.00971175,0.0244491,0.00855901,0.080297,-0.308001,10.1864,0.0753735,-0.194477,1.01209,0.00080755,-0.00309102,0.101863,1,5.54856e-05,1.70109e-05,0.000180629,0.0110971,0.00340219,0.0361257,0.999617,-0.00971175,0.0244491,0.00855901,0.642934,0.109558,-0.708592,34.8125,1,21049,21823134
60,1,0.999617,-0.00962453,0.0244065,0.00876279,-0.0493501,0.0683905,9.78817,-0.171009,0.208522,0.630628,-0.000490561,0.000677044,0.0978817,1,3.40317e-05,1.64241e-05,0.000202171,0.00680634,0.00328483,0.0404342,0.999617,-0.00962453,0.0244065,0.00876279,0.643481,0.108543,-0.706597,34.8125,1,21050,21823234
60,2,0.999617,-0.00962453,0.0244065,0.00876279,-0.0493501,0.0683905,9.78817,-0.171009,0.208522,0.630628,-0.000490561,0.000677044,0.0978817,1,3.40317e-05,1.64241e-05,0.000202171,0.00680634,0.00328483,0.0404342,0.999617,-0.00962453,0.0244065,0.00876279,0.643481,0.108543,-0.706597,34.8125,1,21050,21823234
76,1,0.999617,-0.00962453,0.0244065,0.00876279,-0.0493501,0.0683905,9.78817,-0.171009,0.208522,0.630628,-0.000490561,0.000677044,0.0978817,1,3.40317e-05,1.64241e-05,0.000202171,0.00680634,0.00328483,0.0404342,0.999617,-0.00962453,0.0244065,0.00876279,0.643481,0.108543,-0.706597,34.8125,1,21050,21823234
76,2,0.999617,-0.00955274,0.0243781,0.00896585,-0.0859741,0.160558,9.38622,-0.187469,0.125268,0.432374,-0.000854184,0.00160195,0.0938624,1,1.74977e-05,3.30306e-05,0.000200805,0.00349954,0.00660613,0.040161,0.999617,-0.00955274,0.0243781,0.00896585,0.644965,0.106092,-0.706658,34.8125,1,21051,21823334
76,3,0.999617,-0.00955274,0.0243781,0.00896585,-0.0859741,0.160558,9.38622,-0.187469,0.125268,0.432374,-0.000854184,0.00160195,0.0938624,1,1.74977e-05,3.30306e-05,0.000200805,0.00349954,0.00660613,0.040161,0.999617,-0.00955274,0.0243781,0.00896585,0.644965,0.106092,-0.706658,34.8125,1,21051,21823334
76,4,0.999617,-0.00955274,0.0243781,0.00896585,-0.0859741,0.160558,9.38622,-0.187469,0.125268,0.432374,-0.000854184,0.00160195,0.0938624,1,1.74977e-05,3.30306e-05,0.000200805,0.00349954,0.00660613,0.040161,0.999617,-0.00955274,0.0243781,0.00896585,0.644965,0.106092,-0.706658,34.8125,1,21051,21823334
62,1,0.999617,-0.00952199,0.0243177,0.00915321,0.0751895,-0.0411019,9.86203,-0.0728061,0.0607955,0.817374,0.00075282,-0.000405784,0.0986203,1,-2.51363e-05,3.92743e-06,0.000184648,-0.00502727,0.000785486,0.0369295,0.999617,-0.00952199,0.0243177,0.00915321,0.646346,0.106125,-0.709189,34.8125,1,21052,21823434
62,2,0.999617,-0.00952199,0.0243177,0.00915321,0.0751895,-0.0411019,9.86203,-0.0728061,0.0607955,0.817374,0.00075282,-0.000405784,0.0986203,1,-2.51363e-05,3.92743e-06,0.000184648,-0.00502727,0.000785486,0.0369295,0.999617,-0.00952199,0.0243177,0.00915321,0.646346,0.106125,-0.709189,34.8125,1,21052,21823434
63,1,0.999617,-0.00952199,0.0243177,0.00915321,0.0751895,-0.0411019,9.86203,-0.0728061,0.0607955,0.817374,0.00075282,-0.000405784,0.0986203,1,-2.51363e-05,3.92743e-06,0.000184648,-0.00502727,0.000785486,0.0369295,0.999617,-0.00952199,0.0243177,0.00915321,0.646346,0.106125,-0.709189,34.8125,1,21052,21823434
63,2,0.999617,-0.00942106,0.0242864,0.00932101,0.075266,0.187083,9.94642,0.0437085,0.25178,0.799831,0.000759127,0.00186207,0.0994643,1,4.53081e-05,3.56347e-05,0.000166817,0.00906162,0.00712695,0.0333635,0.999617,-0.00942106,0.0242864,0.00932101,0.648706,0.105174,-0.711747,34.8125,1,21053,21823534
64,1,0.999617,-0.00942106,0.0242864,0.00932101,0.075266,0.187083,9.94642,0.0437085,0.25178,0.799831,0.000759127,0.00186207,0.0994643,1,4.53081e-05,3.56347e-05,0.000166817,0.00906162,0.00712695,0.0333635,0.999617,-0.00942106,0.0242864,0.00932101,0.648706,0.105174,-0.711747,34.8125,1,21053,21823534
64,2,0.999617,-0.00942106,0.0242864,0.00932101,0.075266,0.187083,9.94642,0.0437085,0.25178,0.799831,0.000759127,0.00186207,0.0994643,1,4.53081e-05,3.56347e-05,0.000166817,0.00906162,0.00712695,0.0333635,0.999617,-0.00942106,0.0242864,0.00932101,0.648706,0.105174,-0.711747,34.8125,1,21053,21823534
65,1,0.999618,-0.00935777,0.0242306,0.00948393,-0.178241,0.0507113,9.69764,-0.278404,0.128279,0.702327,-0.00177977,0.000505435,0.0969764,1,5.70637e-06,1.44398e-05,0.000160396,0.00114127,0.00288795,0.0320791,0.999618,-0.00935777,0.0242306,0.00948393,0.647226,0.103768,-0.714296,34.8125,1,21054,21823634
65,2,0.999618,-0.00935777,0.0242306,0.00948393,-0.178241,0.0507113,9.69764,-0.278404,0.128279,0.702327,-0.00177977,0.000505435,0.0969764,1,5.70637e-06,1.44398e-05,0.000160396,0.00114127,0.00288795,0.0320791,0.999618,-0.00935777,0.0242306,0.00948393,0.647226,0.103768,-0.714296,34.8125,1,21054,21823634
66,1,0.999618,-0.00935777,0.0242306,0.00948393,-0.178241,0.0507113,9.69764,-0.278404,0.128279,0.702327,-0.00177977,0.000505435,0.0969764,1,5.70637e-06,1.44398e-05,0.000160396,0.00114127,0.00288795,0.0320791,0.999618,-0.00935777,0.0242306,0.00948393,0.647226,0.103768,-0.714296,34.8125,1,21054,21823634
66,2,0.999618,-0.00928973,0.0241689,0.00966959,0.0209297,-0.0548053,10.0268,-0.0151322,0.021306,0.951298,0.000211455,-0.000549777,0.100268,1,8.98317e-06,9.75497e-06,0.000184093,0.00179663,0.00195099,0.0368185,0.999618,-0.00928973,0.0241689,0.00966959,0.644947,0.101286,-0.710806,34.8125,1,21055,21823734
67,1,0.999618,-0.00928973,0.0241689,0.00966959,0.0209297,-0.0548053,10.0268,-0.0151322,0.021306,0.951298,0.000211455,-0.000549777,0.100268,1,8.98317e-06,9.75497e-06,0.000184093,0.00179663,0.00195099,0.0368185,0.999618,-0.00928973,0.0241689,0.00966959,0.644947,0.101286,-0.710806,34.8125,1,21055,21823734
67,2,0.999618,-0.00928973,0.0241689,0.00966959,0.0209297,-0.0548053,10.0268,-0.0151322,0.021306,0.951298,0.000211455,-0.000549777,0.100268,1,8.98317e-06,9.75497e-06,0.000184093,0.00179663,0.00195099,0.0368185,0.999618,-0.00928973,0.0241689,0.00966959,0.644947,0.101286,-0.710806,34.8125,1,21055,21823734
71,1,0.999619,-0.009227,0.0240966,0.00985744,-0.0530427,-0.410232,9.79462,-0.216292,-0.316369,0.740741,-0.000528678,-0.00410315,0.0979461,1,3.22976e-06,1.16299e-06,0.000185372,0.000645952,0.000232597,0.0370745,0.999619,-0.009227,0.0240966,0.00985744,0.645506,0.100262,-0.708306,34.8125,1,21056,21823834
71,2,0.999619,-0.009227,0.0240966,0.00985744,-0.0530427,-0.410232,9.79462,-0.216292,-0.316369,0.740741,-0.000528678,-0.00410315,0.0979461,1,3.22976e-06,1.16299e-06,0.000185372,0.000645952,0.000232597,0.0370745,0.999619,-0.009227,0.0240966,0.00985744,0.645506,0.100262,-0.708306,34.8125,1,21056,21823834
71,3,0.999619,-0.009227,0.0240966,0.00985744,-0.0530427,-0.410232,9.79462,-0.216292,-0.316369,0.740741,-0.000528678,-0.00410315,0.0979461,1,3.22976e-06,1.16299e-06,0.000185372,0.000645952,0.000232597,0.0370745,0.999619,-0.009227,0.0240966,0.00985744,0.645506,0.100262,-0.708306,34.8125,1,21056,21823834
71,4,0.999619,-0.00911626,0.0240301,0.0100525,-0.0446833,0.0746603,10.0114,-0.140912,0.0970862,0.955828,-0.000445456,0.000735747,0.100114,1,5.33541e-05,8.31481e-06,0.000194079,0.0106708,0.00166296,0.0388159,0.999619,-0.00911626,0.0240301,0.0100525,0.646978,0.099265,-0.70783,34.8125,1,21057,21823934
72,1,0.999619,-0.00911626,0.0240301,0.0100525,-0.0446833,0.0746603,10.0114,-0.140912,0.0970862,0.955828,-0.000445456,0.000735747,0.100114,1,5.33541e-05,8.31481e-06,0.000194079,0.0106708,0.00166296,0.0388159,0.999619,-0.00911626,0.0240301,0.0100525,0.646978,0.099265,-0.70783,34.8125,1,21057,21823934
72,2,0.999619,-0.00911626,0.0240301,0.0100525,-0.0446833,0.0746603,10.0114,-0.140912,0.0970862,0.955828,-0.000445456,0.000735747,0.100114,1,5.33541e-05,8.31481e-06,0.000194079,0.0106708,0.00166296,0.0388159,0.999619,-0.00911626,0.0240301,0.0100525,0.646978,0.099265,-0.70783,34.8125,1,21057,21823934
73,1,0.999619,-0.00902474,0.0239738,0.0102532,0.112178,-0.0493483,9.878,0.0807581,0.00815174,0.919053,0.00112609,-0.00049956,0.09878,1,3.30331e-05,2.08296e-05,0.00019954,0.00660662,0.00416591,0.039908,0.999619,-0.00902474,0.0239738,0.0102532,0.648408,0.0963714,-0.710426,34.8125,1,21058,21824034
73,2,0.999619,-0.00902474,0.0239738,0.0102532,0.112178,-0.0493483,9.878,0.0807581,0.00815174,0.919053,0.00112609,-0.00049956,0.09878,1,3.30331e-05,2.08296e-05,0.00019954,0.00660662,0.00416591,0.039908,0.999619,-0.00902474,0.0239738,0.0102532,0.648408,0.0963714,-0.710426,34.8125,1,21058,21824034
74,1,0.999619,-0.00902474,0.0239738,0.0102532,0.112178,-0.0493483,9.878,0.0807581,0.00815174,0.919053,0.00112609,-0.00049956,0.09878,1,3.30331e-05,2.08296e-05,0.00019954,0.00660662,0.00416591,0.039908,0.999619,-0.00902474,0.0239738,0.0102532,0.648408,0.0963714,-0.710426,34.8125,1,21058,21824034
74,2,0.99962,-0.00895185,0.0239017,0.0104643,-0.211195,0.276623,9.44641,-0.264492,0.382018,0.384738,-0.00211139,0.00276275,0.0944642,1,1.37038e-05,9.10889e-06,0.000210285,0.00274075,0.00182178,0.0420571,0.99962,-0.00895185,0.0239017,0.0104643,0.650303,0.0958947,-0.71196,34.8125,1,21059,21824134
75,1,0.99962,-0.00895185,0.0239017,0.0104643,-0.211195,0.276623,9.44641,-0.264492,0.382018,0.384738,-0.00211139,0.00276275,0.0944642,1,1.37038e-05,9.10889e-06,0.000210285,0.00274075,0.00182178,0.0420571,0.99962,-0.00895185,0.0239017,0.0104643,0.650303,0.0958947,-0.71196,34.8125,1,21059,21824134
75,2,0.99962,-0.00895185,0.0239017,0.0104643,-0.211195,0.276623,9.44641,-0.264492,0.382018,0.384738,-0.00211139,0.00276275,0.0944642,1,1.37038e-05,9.10889e-06,0.000210285,0.00274075,0.00182178,0.0420571,0.99962,-0.00895185,0.0239017,0.0104643,0.650303,0.0958947,-0.71196,34.8125,1,21059,21824134
76,1,0.999621,-0.00890988,0.0237821,0.0106644,0.0806485,0.0135206,9.64166,-0.0573243,0.165927,0.58252,0.000799199,0.000139338,0.0964166,1,-1.97879e-05,-3.75049e-05,0.000197256,-0.00395757,-0.00750097,0.0394511,0.999621,-0.00890988,0.0237821,0.0106644,0.649814,0.0963865,-0.711947,34.8125,1,21060,21824234
76,2,0.999621,-0.00890988,0.0237821,0.0106644,0.0806485,0.0135206,9.64166,-0.0573243,0.165927,0.58252,0.000799199,0.000139338,0.0964166,1,-1.97879e-05,-3.75049e-05,0.000197256,-0.00395757,-0.00750097,0.0394511,0.999621,-0.00890988,0.0237821,0.0106644,0.649814,0.0963865,-0.711947,34.8125,1,21060,21824234
77,1,0.999621,-0.00890988,0.0237821,0.0106644,0.0806485,0.0135206,9.64166,-0.0573243,0.165927,0.58252,0.000799199,0.000139338,0.0964166,1,-1.97879e-05,-3.75049e-05,0.000197256,-0.00395757,-0.00750097,0.0394511,0.999621,-0.00890988,0.0237821,0.0106644,0.649814,0.0963865,-0.711947,34.8125,1,21060,21824234
77,2,0.999622,-0.00882072,0.0236779,0.0108394,0.381015,-0.519848,10.1958,0.260307,-0.438442,0.985051,0.00380792,-0.0052028,0.101958,1,2.76736e-05,-1.9798e-05,0.000174018,0.00553472,-0.0039596,0.0348036,0.999622,-0.00882072,0.0236779,0.0108394,0.648904,0.0939466,-0.711492,34.8125,1,21061,21824334
78,1,0.999622,-0.00882072,0.0236779,0.0108394,0.381015,-0.519848,10.1958,0.260307,-0.438442,0.985051,0.00380792,-0.0052028,0.101958,1,2.76736e-05,-1.9798e-05,0.000174018,0.00553472,-0.0039596,0.0348036,0.999622,-0.00882072,0.0236779,0.0108394,0.648904,0.0939466,-0.711492,34.8125,1,21061,21824334
78,2,0.999622,-0.00882072,0.0236779,0.0108394,0.381015,-0.519848,10.1958,0.260307,-0.438442,0.985051,0.00380792,-0.0052028,0.101958,1,2.76736e-05,-1.9798e-05,0.000174018,0.00553472,-0.0039596,0.0348036,0.999622,-0.00882072,0.0236779,0.0108394,0.648904,0.0939466,-0.711492,34.8125,1,21061,21824334
79,1,0.999622,-0.00865129,0.0236505,0.0110477,0.014885,-0.0927375,9.96378,-0.101737,-0.131431,1.05306,0.000161382,-0.000949444,0.0996376,1,0.000111072,6.09032e-05,0.000210682,0.0222145,0.0121806,0.0421364,0.999622,-0.00865129,0.0236505,0.0110477,0.647465,0.0929921,-0.712012,34.8125,1,21062,21824434
79,2,0.999622,-0.00865129,0.0236505,0.0110477,0.014885,-0.0927375,9.96378,-0.101737,-0.131431,1.05306,0.000161382,-0.000949444,0.0996376,1,0.000111072,6.09032e-05,0.000210682,0.0222145,0.0121806,0.0421364,0.999622,-0.00865129,0.0236505,0.0110477,0.647465,0.0929921,-0.712012,34.8125,1,21062,21824434
80,1,0.999622,-0.00865129,0.0236505,0.0110477,0.014885,-0.0927375,9.96378,-0.101737,-0.131431,1.05306,0.000161382,-0.000949444,0.0996376,1,0.000111072,6.09032e-05,0.000210682,0.0222145,0.0121806,0.0421364,0.999622,-0.00865129,0.0236505,0.0110477,0.647465,0.0929921,-0.712012,34.8125,1,21062,21824434
80,2,0.999623,-0.00857349,0.0235398,0.0112508,-0.387876,0.237628,9.67931,-0.626431,0.339273,0.53094,-0.00388333,0.00237105,0.096793,1,1.88625e-05,-1.86349e-05,0.000203018,0.0037725,-0.00372698,0.0406036,0.999623,-0.00857349,0.0235398,0.0112508,0.64797,0.0915248,-0.712047,34.8125,1,21063,21824534
81,1,0.999623,-0.00857349,0.0235398,0.0112508,-0.387876,0.237628,9.67931,-0.626431,0.339273,0.53094,-0.00388333,0.00237105,0.096793,1,1.88625e-05,-1.86349e-05,0.000203018,0.0037725,-0.00372698,0.0406036,0.999623,-0.00857349,0.0235398,0.0112508,0.64797,0.0915248,-0.712047,34.8125,1,21063,21824534
81,2,0.999623,-0.00857349,0.0235398,0.0112508,-0.387876,0.237628,9.67931,-0.626431,0.339273,0.53094,-0.00388333,0.00237105,0.096793,1,1.88625e-05,-1.86349e-05,0.000203018,0.0037725,-0.00372698,0.0406036,0.999623,-0.00857349,0.0235398,0.0112508,0.64797,0.0915248,-0.712047,34.8125,1,21063,21824534
82,1,0.999624,-0.00847356,0.0234018,0.0114615,-0.020197,0.011244,9.80177,-0.329766,0.0430554,0.696194,-0.000211331,0.000104833,0.0980177,1,3.83655e-05,-4.75193e-05,0.00021004,0.00767309,-0.00950386,0.0420081,0.999624,-0.00847356,0.0234018,0.0114615,0.649915,0.0895667,-0.712604,34.8125,1,21064,21824634
82,2,0.999624,-0.00847356,0.0234018,0.0114615,-0.020197,0.011244,9.80177,-0.329766,0.0430554,0.696194,-0.000211331,0.000104833,0.0980177,1,3.83655e-05,-4.75193e-05,0.00021004,0.00767309,-0.00950386,0.0420081,0.999624,-0.00847356,0.0234018,0.0114615,0.649915,0.0895667,-0.712604,34.8125,1,21064,21824634
83,1,0.999624,-0.00847356,0.0234018,0.0114615,-0.020197,0.011244,9.80177,-0.329766,0.0430554,0.696194,-0.000211331,0.000104833,0.0980177,1,3.83655e-05,-4.75193e-05,0.00021004,0.00767309,-0.00950386,0.0420081,0.999624,-0.00847356,0.0234018,0.0114615,0.649915,0.0895667,-0.712604,34.8125,1,21064,21824634
83,2,0.999624,-0.00838745,0.0233377,0.0116656,0.53277,-0.0892208,10.5329,0.443352,0.00216913,1.47199,0.00533414,-0.000895298,0.105329,1,2.49584e-05,2.88603e-05,0.000203273,0.00499168,0.00577206,0.0406547,0.999624,-0.00838745,0.0233377,0.0116656,0.650864,0.0866772,-0.715198,34.8125,1,21065,21824734
84,1,0.999624,-0.00838745,0.0233377,0.0116656,0.53277,-0.0892208,10.5329,0.443352,0.00216913,1.47199,0.00533414,-0.000895298,0.105329,1,2.49584e-05,2.88603e-05,0.000203273,0.00499168,0.00577206,0.0406547,0.999624,-0.00838745,0.0233377,0.0116656,0.650864,0.0866772,-0.715198,34.8125,1,21065,21824734
84,2,0.999624,-0.00838745,0.0233377,0.0116656,0.53277,-0.0892208,10.5329,0.443352,0.00216913,1.47199,0.00533414,-0.000895298,0.105329,1,2.49584e-05,2.88603e-05,0.000203273,0.00499168,0.00577206,0.0406547,0.999624,-0.00838745,0.0233377,0.0116656,0.650864,0.0866772,-0.715198,34.8125,1,21065,21824734
101,1,0.999623,-0.00825159,0.0233516,0.0118692,-0.104577,0.0216891,9.82615,-0.0754531,0.0511565,0.902212,-0.00102383,0.00020156,0.0982617,1,7.58489e-05,0.000112109,0.000205528,0.0151698,0.0224219,0.0411056,0.999623,-0.00825159,0.0233516,0.0118692,0.651353,0.0861854,-0.715211,34.8125,1,21066,21824834
101,2,0.999623,-0.00825159,0.0233516,0.0118692,-0.104577,0.0216891,9.82615,-0.0754531,0.0511565,0.902212,-0.00102383,0.00020156,0.0982617,1,7.58489e-05,0.000112109,0.000205528,0.0151698,0.0224219,0.0411056,0.999623,-0.00825159,0.0233516,0.0118692,0.651353,0.0861854,-0.715211,34.8125,1,21066,21824834
101,3,0.999623,-0.00825159,0.0233516,0.0118692,-0.104577,0.0216891,9.82615,-0.0754531,0.0511565,0.902212,-0.00102383,0.00020156,0.0982617,1,7.58489e-05,0.000112109,0.000205528,0.0151698,0.0224219,0.0411056,0.999623,-0.00825159,0.0233516,0.0118692,0.651353,0.0861854,-0.715211,34.8125,1,21066,21824834
101,4,0.999623,-0.00816378,0.023258,0.0120792,-0.585602,0.168824,9.14205,-0.729187,0.264522,0.0863166,-0.00585547,0.001681,0.0914206,1,2.60536e-05,6.87637e-06,0.000211109,0.00521072,0.00137527,0.0422217,0.999623,-0.00816378,0.023258,0.0120792,0.652376,0.0832418,-0.714777,34.8125,1,21067,21824934
86,1,0.999623,-0.00816378,0.023258,0.0120792,-0.585602,0.168824,9.14205,-0.729187,0.264522,0.0863166,-0.00585547,0.001681,0.0914206,1,2.60536e-05,6.87637e-06,0.000211109,0.00521072,0.00137527,0.0422217,0.999623,-0.00816378,0.023258,0.0120792,0.652376,0.0832418,-0.714777,34.8125,1,21067,21824934
86,2,0.999623,-0.00816378,0.023258,0.0120792,-0.585602,0.168824,9.14205,-0.729187,0.264522,0.0863166,-0.00585547,0.001681,0.0914206,1,2.60536e-05,6.87637e-06,0.000211109,0.00521072,0.00137527,0.0422217,0.999623,-0.00816378,0.023258,0.0120792,0.652376,0.0832418,-0.714777,34.8125,1,21067,21824934
87,1,0.999624,-0.00807761,0.0231413,0.0122988,0.345853,-0.00516426,9.93446,0.215118,0.133679,0.729589,0.00345478,-5.45696e-05,0.0993448,1,2.23566e-05,-1.89609e-05,0.000219142,0.00447132,-0.00379219,0.0438284,0.999624,-0.00807761,0.0231413,0.0122988,0.650912,0.0823053,-0.716306,34.8125,1,21068,21825034
87,2,0.999624,-0.00807761,0.0231413,0.0122988,0.345853,-0.00516426,9.93446,0.215118,0.133679,0.729589,0.00345478,-5.45696e-05,0.0993448,1,2.23566e-05,-1.89609e-05,0.000219142,0.00447132,-0.00379219,0.0438284,0.999624,-0.00807761,0.0231413,0.0122988,0.650912,0.0823053,-0.716306,34.8125,1,21068,21825034
89,1,0.999624,-0.00807761,0.0231413,0.0122988,0.345853,-0.00516426,9.93446,0.215118,0.133679,0.729589,0.00345478,-5.45696e-05,0.0993448,1,2.23566e-05,-1.89609e-05,0.000219142,0.00447132,-0.00379219,0.0438284,0.999624,-0.00807761,0.0231413,0.0122988,0.650912,0.0823053,-0.716306,34.8125,1,21068,21825034
89,2,0.999623,-0.00796019,0.0231147,0.0125144,0.332343,-0.209413,10.0913,0.367454,-0.208833,1.15626,0.00333948,-0.00210369,0.100912,1,5.44833e-05,7.50559e-05,0.000216414,0.0108967,0.0150112,0.0432828,0.999623,-0.00796019,0.0231147,0.0125144,0.650968,0.0803362,-0.71534,34.8125,1,21069,21825134
90,1,0.999623,-0.00796019,0.0231147,0.0125144,0.332343,-0.209413,10.0913,0.367454,-0.208833,1.15626,0.00333948,-0.00210369,0.100912,1,5.44833e-05,7.50559e-05,0.000216414,0.0108967,0.0150112,0.0432828,0.999623,-0.00796019,0.0231147,0.0125144,0.650968,0.0803362,-0.71534,34.8125,1,21069,21825134
90,2,0.999623,-0.00796019,0.0231147,0.0125144,0.332343,-0.209413,10.0913,0.367454,-0.208833,1.15626,0.00333948,-0.00210369,0.100912,1,5.44833e-05,7.50559e-05,0.000216414,0.0108967,0.0150112,0.0432828,0.999623,-0.00796019,0.0231147,0.0125144,0.650968,0.0803362,-0.71534,34.8125,1,21069,21825134
90,3,0.999622,-0.00784033,0.0230609,0.0127376,-0.565931,-0.191019,9.30847,-0.621365,-0.254649,0.295803,-0.00564869,-0.00192347,0.0930851,1,5.77078e-05,5.24269e-05,0.000224839,0.0115416,0.0104854,0.0449677,0.999622,-0.00784033,0.0230609,0.0127376,0.651926,0.0784041,-0.716902,34.8125,1,21070,21825234
90,4,0.999622,-0.00784033,0.0230609,0.0127376,-0.565931,-0.191019,9.30847,-0.621365,-0.254649,0.295803,-0.00564869,-0.00192347,0.0930851,1,5.77078e-05,5.24269e-05,0.000224839,0.0115416,0.0104854,0.0449677,0.999622,-0.00784033,0.0230609,0.0127376,0.651926,0.0784041,-0.716902,34.8125,1,21070,21825234
91,1,0.999622,-0.00784033,0.0230609,0.0127376,-0.565931,-0.191019,9.30847,-0.621365,-0.254649,0.295803,-0.00564869,-0.00192347,0.0930851,1,5.77078e-05,5.24269e-05,0.000224839,0.0115416,0.0104854,0.0449677,0.999622,-0.00784033,0.0230609,0.0127376,0.651926,0.0784041,-0.716902,34.8125,1,21070,21825234
91,2,0.999623,-0.00779942,0.0228925,0.0129689,-0.228084,1.20912,9.87634,-0.446097,1.13683,0.840798,-0.00229903,0.0120944,0.0987625,1,-2.16887e-05,-6.39274e-05,0.000229897,-0.00433775,-0.0127855,0.0459795,0.999623,-0.00779942,0.0228925,0.0129689,0.652855,0.0774566,-0.718948,34.8125,1,21071,21825334
92,1,0.999623,-0.00779942,0.0228925,0.0129689,-0.228084,1.20912,9.87634,-0.446097,1.13683,0.840798,-0.00229903,0.0120944,0.0987625,1,-2.16887e-05,-6.39274e-05,0.000229897,-0.00433775,-0.0127855,0.0459795,0.999623,-0.00779942,0.0228925,0.0129689,0.652855,0.0774566,-0.718948,34.8125,1,21071,21825334
92,2,0.999623,-0.00779942,0.0228925,0.0129689,-0.228084,1.20912,9.87634,-0.446097,1.13683,0.840798,-0.00229903,0.0120944,0.0987625,1,-2.16887e-05,-6.39274e-05,0.000229897,-0.00433775,-0.0127855,0.0459795,0.999623,-0.00779942,0.0228925,0.0129689,0.652855,0.0774566,-0.718948,34.8125,1,21071,21825334
108,1,0.999621,-0.00787839,0.0228121,0.0132295,0.817077,-1.03795,10.718,0.911112,-1.43612,1.62147,0.00818158,-0.0103431,0.107183,1,-0.000150186,2.575e-05,0.000255656,-0.0300372,0.00515,0.0511312,0.999621,-0.00787839,0.0228121,0.0132295,0.653368,0.0755016,-0.718994,34.8125,1,21072,21825434
108,2,0.999621,-0.00787839,0.0228121,0.0132295,0.817077,-1.03795,10.718,0.911112,-1.43612,1.62147,0.00818158,-0.0103431,0.107183,1,-0.000150186,2.575e-05,0.000255656,-0.0300372,0.00515,0.0511312,0.999621,-0.00787839,0.0228121,0.0132295,0.653368,0.0755016,-0.718994,34.8125,1,21072,21825434
108,3,0.999621,-0.00787839,0.0228121,0.0132295,0.817077,-1.03795,10.718,0.911112,-1.43612,1.62147,0.00818158,-0.0103431,0.107183,1,-0.000150186,2.575e-05,0.000255656,-0.0300372,0.00515,0.0511312,0.999621,-0.00787839,0.0228121,0.0132295,0.653368,0.0755016,-0.718994,34.8125,1,21072,21825434
108,4,0.99962,-0.00755772,0.0228064,0.0134924,-0.72144,-1.24571,9.37613,-0.382962,-1.7033,0.83878,-0.00718835,-0.0125093,0.0937563,1,0.00025769,0.000102986,0.000270115,0.0515379,0.0205972,0.0540231,0.99962,-0.00755772,0.0228064,0.0134924,0.652406,0.0740643,-0.720031,34.8125,1,21073,21825534
96,1,0.99962,-0.00755772,0.0228064,0.0134924,-0.72144,-1.24571,9.37613,-0.382962,-1.7033,0.83878,-0.00718835,-0.0125093,0.0937563,1,0.00025769,0.000102986,0.000270115,0.0515379,0.0205972,0.0540231,0.99962,-0.00755772,0.0228064,0.0134924,0.652406,0.0740643,-0.720031,34.8125,1,21073,21825534
96,2,0.99962,-0.00755772,0.0228064,0.0134924,-0.72144,-1.24571,9.37613,-0.382962,-1.7033,0.83878,-0.00718835,-0.0125093,0.0937563,1,0.00025769,0.000102986,0.000270115,0.0515379,0.0205972,0.0540231,0.99962,-0.00755772,0.0228064,0.0134924,0.652406,0.0740643,-0.720031,34.8125,1,21073,21825534
96,3,0.999623,-0.00712628,0.0226776,0.0137197,-0.142043,0.578915,9.54611,-0.176896,0.328921,0.572748,-0.00142796,0.00571656,0.0954653,1,0.000376661,-2.51737e-05,0.000237221,0.0753323,-0.00503474,0.0474443,0.999623,-0.00712628,0.0226776,0.0137197,0.651455,0.072618,-0.720564,34.8125,1,21074,21825634
96,4,0.999623,-0.00712628,0.0226776,0.0137197,-0.142043,0.578915,9.54611,-0.176896,0.328921,0.572748,-0.00142796,0.00571656,0.0954653,1,0.000376661,-2.51737e-05,0.000237221,0.0753323,-0.00503474,0.0474443,0.999623,-0.00712628,0.0226776,0.0137197,0.651455,0.072618,-0.720564,34.8125,1,21074,21825634
96,5,0.999623,-0.00712628,0.0226776,0.0137197,-0.142043,0.578915,9.54611,-0.176896,0.328921,0.572748,-0.00142796,0.00571656,0.0954653,1,0.000376661,-2.51737e-05,0.000237221,0.0753323,-0.00503474,0.0474443,0.999623,-0.00712628,0.0226776,0.0137197,0.651455,0.072618,-0.720564,34.8125,1,21074,21825634
96,6,0.999623,-0.00706358,0.0225778,0.0139535,0.618142,1.25952,10.1347,0.673825,1.04548,1.05234,0.00617751,0.0125973,0.101347,1,3.79202e-06,9.84936e-06,0.000234437,0.000758403,0.00196987,0.0468875,0.999623,-0.00706358,0.0225778,0.0139535,0.651981,0.0706539,-0.720105,34.8125,1,21075,21825734
96,7,0.999623,-0.00706358,0.0225778,0.0139535,0.618142,1.25952,10.1347,0.673825,1.04548,1.05234,0.00617751,0.0125973,0.101347,1,3.79202e-06,9.84936e-06,0.000234437,0.000758403,0.00196987,0.0468875,0.999623,-0.00706358,0.0225778,0.0139535,0.651981,0.0706539,-0.720105,34.8125,1,21075,21825734
96,8,0.999623,-0.00706358,0.0225778,0.0139535,0.618142,1.25952,10.1347,0.673825,1.04548,1.05234,0.00617751,0.0125973,0.101347,1,3.79202e-06,9.84936e-06,0.000234437,0.000758403,0.00196987,0.0468875,0.999623,-0.00706358,0.0225778,0.0139535,0.651981,0.0706539,-0.720105,34.8125,1,21075,21825734
110,1,0.999618,-0.00715988,0.0225941,0.0142173,-0.178004,0.241915,9.9373,-0.0502719,0.0520252,0.974702,-0.00175466,0.00245077,0.0993726,1,-0.00016372,0.000134064,0.000260783,-0.032744,0.0268127,0.0521565,0.999618,-0.00715988,0.0225941,0.0142173,0.651956,0.0692267,-0.722157,34.8125,1,21076,21825834
110,2,0.999618,-0.00715988,0.0225941,0.0142173,-0.178004,0.241915,9.9373,-0.0502719,0.0520252,0.974702,-0.00175466,0.00245077,0.0993726,1,-0.00016372,0.000134064,0.000260783,-0.032744,0.0268127,0.0521565,0.999618,-0.00715988,0.0225941,0.0142173,0.651956,0.0692267,-0.722157,34.8125,1,21076,21825834
110,3,0.999618,-0.00715988,0.0225941,0.0142173,-0.178004,0.241915,9.9373,-0.0502719,0.0520252,0.974702,-0.00175466,0.00245077,0.0993726,1,-0.00016372,0.000134064,0.000260783,-0.032744,0.0268127,0.0521565,0.999618,-0.00715988,0.0225941,0.0142173,0.651956,0.0692267,-0.722157,34.8125,1,21076,21825834
110,4,0.999617,-0.00703125,0.0225407,0.0144519,-0.335206,-1.15624,9.32138,-0.306254,-1.41821,0.357942,-0.00333522,-0.011575,0.0932129,1,5.90459e-05,6.11069e-05,0.00023546,0.0118092,0.0122214,0.0470921,0.999617,-0.00703125,0.0225407,0.0144519,0.653439,0.0653305,-0.72326,34.8125,1,21077,21825934
98,1,0.999617,-0.00703125,0.0225407,0.0144519,-0.335206,-1.15624,9.32138,-0.306254,-1.41821,0.357942,-0.00333522,-0.011575,0.0932129,1,5.90459e-05,6.11069e-05,0.00023546,0.0118092,0.0122214,0.0470921,0.999617,-0.00703125,0.0225407,0.0144519,0.653439,0.0653305,-0.72326,34.8125,1,21077,21825934
98,2,0.999617,-0.00703125,0.0225407,0.0144519,-0.335206,-1.15624,9.32138,-0.306254,-1.41821,0.357942,-0.00333522,-0.011575,0.0932129,1,5.90459e-05,6.11069e-05,0.00023546,0.0118092,0.0122214,0.0470921,0.999617,-0.00703125,0.0225407,0.0144519,0.653439,0.0653305,-0.72326,34.8125,1,21077,21825934
98,3,0.999617,-0.00688388,0.0224266,0.0146906,-0.150292,0.420462,10.0823,-0.24086,0.194967,0.99885,-0.00150509,0.00418664,0.100823,1,8.55533e-05,-6.98424e-07,0.000241211,0.0171107,-0.000139685,0.0482423,0.999617,-0.00688388,0.0224266,0.0146906,0.653422,0.0634155,-0.725323,34.8125,1,21078,21826034
98,4,0.999617,-0.00688388,0.0224266,0.0146906,-0.150292,0.420462,10.0823,-0.24086,0.194967,0.99885,-0.00150509,0.00418664,0.100823,1,8.55533e-05,-6.98424e-07,0.000241211,0.0171107,-0.000139685,0.0482423,0.999617,-0.00688388,0.0224266,0.0146906,0.653422,0.0634155,-0.725323,34.8125,1,21078,21826034
99,1,0.999617,-0.00688388,0.0224266,0.0146906,-0.150292,0.420462,10.0823,-0.24086,0.194967,0.99885,-0.00150509,0.00418664,0.100823,1,8.55533e-05,-6.98424e-07,0.000241211,0.0171107,-0.000139685,0.0482423,0.999617,-0.00688388,0.0224266,0.0146906,0.653422,0.0634155,-0.725323,34.8125,1,21078,21826034
99,2,0.999615,-0.00684827,0.0223377,0.0149418,-0.0173552,0.276781,10.0248,-0.149285,0.251789,0.996915,-0.00016961,0.00277362,0.100248,1,-2.93659e-05,2.65995e-05,0.00025108,-0.00587318,0.0053199,0.050216,0.999615,-0.00684827,0.0223377,0.0149418,0.652516,0.0600091,-0.725395,34.8125,1,21079,21826134
100,1,0.999615,-0.00684827,0.0223377,0.0149418,-0.0173552,0.276781,10.0248,-0.149285,0.251789,0.996915,-0.00016961,0.00277362,0.100248,1,-2.93659e-05,2.65995e-05,0.00025108,-0.00587318,0.0053199,0.050216,0.999615,-0.00684827,0.0223377,0.0149418,0.652516,0.0600091,-0.725395,34.8125,1,21079,21826134
100,2,0.999615,-0.00684827,0.0223377,0.0149418,-0.0173552,0.276781,10.0248,-0.149285,0.251789,0.996915,-0.00016961,0.00277362,0.100248,1,-2.93659e-05,2.65995e-05,0.00025108,-0.00587318,0.0053199,0.050216,0.999615,-0.00684827,0.0223377,0.0149418,0.652516,0.0600091,-0.725395,34.8125,1,21079,21826134
114,1,0.999615,-0.00677784,0.0222213,0.0151938,-0.366735,0.32909,9.46356,-0.613295,0.201429,0.443094,-0.00366901,0.00328847,0.0946356,1,3.07515e-06,3.14104e-10,0.0002521,0.000615031,6.28207e-08,0.0504199,0.999615,-0.00677784,0.0222213,0.0151938,0.652524,0.0580761,-0.726448,34.8125,1,21080,21826234
114,2,0.999615,-0.00677784,0.0222213,0.0151938,-0.366735,0.32909,9.46356,-0.613295,0.201429,0.443094,-0.00366901,0.00328847,0.0946356,1,3.07515e-06,3.14104e-10,0.0002521,0.000615031,6.28207e-08,0.0504199,0.999615,-0.00677784,0.0222213,0.0151938,0.652524,0.0580761,-0.726448,34.8125,1,21080,21826234
114,3,0.999615,-0.00677784,0.0222213,0.0151938,-0.366735,0.32909,9.46356,-0.613295,0.201429,0.443094,-0.00366901,0.00328847,0.0946356,1,3.07515e-06,3.14104e-10,0.0002521,0.000615031,6.28207e-08,0.0504199,0.999615,-0.00677784,0.0222213,0.0151938,0.652524,0.0580761,-0.726448,34.8125,1,21080,21826234
114,4,0.999614,-0.00678138,0.0221001,0.0154457,0.0133281,0.192266,9.79945,-0.352324,-0.0330387,0.655223,0.000131384,0.0019371,0.0979942,1,-7.33391e-05,-4.75136e-06,0.00025011,-0.0146678,-0.000950273,0.050022,0.999614,-0.00678138,0.0221001,0.0154457,0.653499,0.0580591,-0.725948,34.8125,1,21081,21826334
102,1,0.999614,-0.00678138,0.0221001,0.0154457,0.0133281,0.192266,9.79945,-0.352324,-0.0330387,0.655223,0.000131384,0.0019371,0.0979942,1,-7.33391e-05,-4.75136e-06,0.00025011,-0.0146678,-0.000950273,0.050022,0.999614,-0.00678138,0.0221001,0.0154457,0.653499,0.0580591,-0.725948,34.8125,1,21081,21826334
102,2,0.999614,-0.00678138,0.0221001,0.0154457,0.0133281,0.192266,9.79945,-0.352324,-0.0330387,0.655223,0.000131384,0.0019371,0.0979942,1,-7.33391e-05,-4.75136e-06,0.00025011,-0.0146678,-0.000950273,0.050022,0.999614,-0.00678138,0.0221001,0.0154457,0.653499,0.0580591,-0.725948,34.8125,1,21081,21826334
103,1,0.999611,-0.0067479,0.0220633,0.015695,-0.0710123,-0.743889,10.2214,-0.179439,-0.882172,1.28239,-0.000690101,-0.0074318,0.102215,1,-3.63764e-05,7.98992e-05,0.000248056,-0.00727528,0.0159798,0.0496112,0.999611,-0.0067479,0.0220633,0.015695,0.654493,0.0546547,-0.727038,34.8125,1,21082,21826434
103,2,0.999611,-0.0067479,0.0220633,0.015695,-0.0710123,-0.743889,10.2214,-0.179439,-0.882172,1.28239,-0.000690101,-0.0074318,0.102215,1,-3.63764e-05,7.98992e-05,0.000248056,-0.00727528,0.0159798,0.0496112,0.999611,-0.0067479,0.0220633,0.015695,0.654493,0.0546547,-0.727038,34.8125,1,21082,21826434
104,1,0.999611,-0.0067479,0.0220633,0.015695,-0.0710123,-0.743889,10.2214,-0.179439,-0.882172,1.28239,-0.000690101,-0.0074318,0.102215,1,-3.63764e-05,7.98992e-05,0.000248056,-0.00727528,0.0159798,0.0496112,0.999611,-0.0067479,0.0220633,0.015695,0.654493,0.0546547,-0.727038,34.8125,1,21082,21826434
104,2,0.99961,-0.00659127,0.0219806,0.0159473,-0.848629,-0.310121,9.45256,-1.1037,-0.402259,0.583664,-0.00847838,-0.00312286,0.0945256,1,9.16681e-05,3.34581e-05,0.000254764,0.0183336,0.00669161,0.0509527,0.99961,-0.00659127,0.0219806,0.0159473,0.656375,0.0512964,-0.731162,34.8125,1,21083,21826534
105,1,0.99961,-0.00659127,0.0219806,0.0159473,-0.848629,-0.310121,9.45256,-1.1037,-0.402259,0.583664,-0.00847838,-0.00312286,0.0945256,1,9.16681e-05,3.34581e-05,0.000254764,0.0183336,0.00669161,0.0509527,0.99961,-0.00659127,0.0219806,0.0159473,0.656375,0.0512964,-0.731162,34.8125,1,21083,21826534
105,2,0.99961,-0.00659127,0.0219806,0.0159473,-0.848629,-0.310121,9.45256,-1.1037,-0.402259,0.583664,-0.00847838,-0.00312286,0.0945256,1,9.16681e-05,3.34581e-05,0.000254764,0.0183336,0.00669161,0.0509527,0.99961,-0.00659127,0.0219806,0.0159473,0.656375,0.0512964,-0.731162,34.8125,1,21083,21826534
119,1,0.99961,-0.00646909,0.0217801,0.0162125,-0.605975,-0.516255,9.53264,-0.933002,-0.444901,0.430686,-0.00607403,-0.00517676,0.0953247,1,5.75504e-05,-8.93224e-05,0.000266152,0.0115101,-0.0178645,0.0532304,0.99961,-0.00646909,0.0217801,0.0162125,0.655351,0.0513495,-0.733681,34.8125,1,21084,21826634
119,2,0.99961,-0.00646909,0.0217801,0.0162125,-0.605975,-0.516255,9.53264,-0.933002,-0.444901,0.430686,-0.00607403,-0.00517676,0.0953247,1,5.75504e-05,-8.93224e-05,0.000266152,0.0115101,-0.0178645,0.0532304,0.99961,-0.00646909,0.0217801,0.0162125,0.655351,0.0513495,-0.733681,34.8125,1,21084,21826634
119,3,0.99961,-0.00646909,0.0217801,0.0162125,-0.605975,-0.516255,9.53264,-0.933002,-0.444901,0.430686,-0.00607403,-0.00517676,0.0953247,1,5.75504e-05,-8.93224e-05,0.000266152,0.0115101,-0.0178645,0.0532304,0.99961,-0.00646909,0.0217801,0.0162125,0.655351,0.0513495,-0.733681,34.8125,1,21084,21826634
119,4,0.99961,-0.00633492,0.0216203,0.0165058,-0.228576,0.0862567,10.0128,-0.458912,0.212067,0.914856,-0.00229672,0.000846495,0.100128,1,7.3505e-05,-5.21967e-05,0.000295113,0.014701,-0.0104393,0.0590226,0.99961,-0.00633492,0.0216203,0.0165058,0.653467,0.0489267,-0.733726,34.8125,1,21085,21826734
108,1,0.99961,-0.00633492,0.0216203,0.0165058,-0.228576,0.0862567,10.0128,-0.458912,0.212067,0.914856,-0.00229672,0.000846495,0.100128,1,7.3505e-05,-5.21967e-05,0.000295113,0.014701,-0.0104393,0.0590226,0.99961,-0.00633492,0.0216203,0.0165058,0.653467,0.0489267,-0.733726,34.8125,1,21085,21826734
108,2,0.99961,-0.00633492,0.0216203,0.0165058,-0.228576,0.0862567,10.0128,-0.458912,0.212067,0.914856,-0.00229672,0.000846495,0.100128,1,7.3505e-05,-5.21967e-05,0.000295113,0.014701,-0.0104393,0.0590226,0.99961,-0.00633492,0.0216203,0.0165058,0.653467,0.0489267,-0.733726,34.8125,1,21085,21826734
108,3,0.999608,-0.00620316,0.0215141,0.0168065,-0.368881,0.0111563,9.72506,-0.450326,0.136238,0.794163,-0.00368866,9.54722e-05,0.0972506,1,7.12464e-05,1.08199e-06,0.000302737,0.0142493,0.000216398,0.0605475,0.999608,-0.00620316,0.0215141,0.0168065,0.652578,0.04599,-0.732778,34.8125,1,21086,21826834
108,4,0.999608,-0.00620316,0.0215141,0.0168065,-0.368881,0.0111563,9.72506,-0.450326,0.136238,0.794163,-0.00368866,9.54722e-05,0.0972506,1,7.12464e-05,1.08199e-06,0.000302737,0.0142493,0.000216398,0.0605475,0.999608,-0.00620316,0.0215141,0.0168065,0.652578,0.04599,-0.732778,34.8125,1,21086,21826834
108,5,0.999608,-0.00620316,0.0215141,0.0168065,-0.368881,0.0111563,9.72506,-0.450326,0.136238,0.794163,-0.00368866,9.54722e-05,0.0972506,1,7.12464e-05,1.08199e-06,0.000302737,0.0142493,0.000216398,0.0605475,0.999608,-0.00620316,0.0215141,0.0168065,0.652578,0.04599,-0.732778,34.8125,1,21086,21826834
108,6,0.999607,-0.00603395,0.0213464,0.0171092,-0.575656,0.59593,9.70634,-0.770274,0.575647,0.614541,-0.00577233,0.00593489,0.0970639,1,0.00010763,-6.25475e-05,0.000304507,0.021526,-0.0125095,0.0609013,0.999607,-0.00603395,0.0213464,0.0171092,0.655533,0.0425426,-0.732363,34.8125,1,21087,21826934
108,7,0.999607,-0.00603395,0.0213464,0.0171092,-0.575656,0.59593,9.70634,-0.770274,0.575647,0.614541,-0.00577233,0.00593489,0.0970639,1,0.00010763,-6.25475e-05,0.000304507,0.021526,-0.0125095,0.0609013,0.999607,-0.00603395,0.0213464,0.0171092,0.655533,0.0425426,-0.732363,34.8125,1,21087,21826934
108,8,0.999607,-0.00603395,0.0213464,0.0171092,-0.575656,0.59593,9.70634,-0.770274,0.575647,0.614541,-0.00577233,0.00593489,0.0970639,1,0.00010763,-6.25475e-05,0.000304507,0.021526,-0.0125095,0.0609013,0.999607,-0.00603395,0.0213464,0.0171092,0.655533,0.0425426,-0.732363,34.8125,1,21087,21826934
109,1,0.999605,-0.00598163,0.0212277,0.0174228,0.0167071,0.146345,10.6582,-0.227226,0.220217,1.66731,0.000163066,0.00146631,0.106581,1,-1.29355e-05,-1.44885e-05,0.000312813,-0.0025871,-0.00289771,0.0625626,0.999605,-0.00598163,0.0212277,0.0174228,0.656429,0.0406557,-0.736449,34.8125,1,21088,21827034
109,2,0.999605,-0.00598163,0.0212277,0.0174228,0.0167071,0.146345,10.6582,-0.227226,0.220217,1.66731,0.000163066,0.00146631,0.106581,1,-1.29355e-05,-1.44885e-05,0.000312813,-0.0025871,-0.00289771,0.0625626,0.999605,-0.00598163,0.0212277,0.0174228,0.656429,0.0406557,-0.736449,34.8125,1,21088,21827034
109,3,0.999605,-0.00598163,0.0212277,0.0174228,0.0167071,0.146345,10.6582,-0.227226,0.220217,1.66731,0.000163066,0.00146631,0.106581,1,-1.29355e-05,-1.44885e-05,0.000312813,-0.0025871,-0.00289771,0.0625626,0.999605,-0.00598163,0.0212277,0.0174228,0.656429,0.0406557,-0.736449,34.8125,1,21088,21827034
109,4,0.999602,-0.00588744,0.0211466,0.0177046,-0.973221,0.356208,9.57062,-1.12074,0.276187,0.67153,-0.00972965,0.003551,0.0957069,1,2.9305e-05,2.38007e-05,0.000281452,0.005861,0.00476015,0.0562904,0.999602,-0.00588744,0.0211466,0.0177046,0.655935,0.0377781,-0.739036,34.8125,1,21089,21827134
110,1,0.999602,-0.00588744,0.0211466,0.0177046,-0.973221,0.356208,9.57062,-1.12074,0.276187,0.67153,-0.00972965,0.003551,0.0957069,1,2.9305e-05,2.38007e-05,0.000281452,0.005861,0.00476015,0.0562904,0.999602,-0.00588744,0.0211466,0.0177046,0.655935,0.0377781,-0.739036,34.8125,1,21089,21827134
110,2,0.999602,-0.00588744,0.0211466,0.0177046,-0.973221,0.356208,9.57062,-1.12074,0.276187,0.67153,-0.00972965,0.003551,0.0957069,1,2.9305e-05,2.38007e-05,0.000281452,0.005861,0.00476015,0.0562904,0.999602,-0.00588744,0.0211466,0.0177046,0.655935,0.0377781,-0.739036,34.8125,1,21089,21827134
111,1,0.999602,-0.00586124,0.0209609,0.0179719,-0.685354,0.504207,9.46021,-0.971955,0.60235,0.410481,-0.0068722,0.0050465,0.0946005,1,-4.25882e-05,-8.45489e-05,0.000264467,-0.00851764,-0.0169098,0.0528933,0.999602,-0.00586124,0.0209609,0.0179719,0.655914,0.0368296,-0.740572,34.8125,1,21090,21827234
111,2,0.999602,-0.00586124,0.0209609,0.0179719,-0.685354,0.504207,9.46021,-0.971955,0.60235,0.410481,-0.0068722,0.0050465,0.0946005,1,-4.25882e-05,-8.45489e-05,0.000264467,-0.00851764,-0.0169098,0.0528933,0.999602,-0.00586124,0.0209609,0.0179719,0.655914,0.0368296,-0.740572,34.8125,1,21090,21827234
112,1,0.999602,-0.00586124,0.0209609,0.0179719,-0.685354,0.504207,9.46021,-0.971955,0.60235,0.410481,-0.0068722,0.0050465,0.0946005,1,-4.25882e-05,-8.45489e-05,0.000264467,-0.00851764,-0.0169098,0.0528933,0.999602,-0.00586124,0.0209609,0.0179719,0.655914,0.0368296,-0.740572,34.8125,1,21090,21827234
112,2,0.999599,-0.00582595,0.0208523,0.0182256,0.328496,-0.468069,10.3269,0.427014,-0.216718,1.26032,0.00328488,-0.00467174,0.103269,1,-3.53546e-05,-1.17517e-05,0.000250748,-0.00707092,-0.00235033,0.0501495,0.999599,-0.00582595,0.0208523,0.0182256,0.65593,0.0344088,-0.741636,34.8125,1,21091,21827334
113,1,0.999599,-0.00582595,0.0208523,0.0182256,0.328496,-0.468069,10.3269,0.427014,-0.216718,1.26032,0.00328488,-0.00467174,0.103269,1,-3.53546e-05,-1.17517e-05,0.000250748,-0.00707092,-0.00235033,0.0501495,0.999599,-0.00582595,0.0208523,0.0182256,0.65593,0.0344088,-0.741636,34.8125,1,21091,21827334
113,2,0.999599,-0.00582595,0.0208523,0.0182256,0.328496,-0.468069,10.3269,0.427014,-0.216718,1.26032,0.00328488,-0.00467174,0.103269,1,-3.53546e-05,-1.17517e-05,0.000250748,-0.00707092,-0.00235033,0.0501495,0.999599,-0.00582595,0.0208523,0.0182256,0.65593,0.0344088,-0.741636,34.8125,1,21091,21827334
114,1,0.999596,-0.00567561,0.020865,0.0184558,-0.397583,-0.16864,9.64402,-0.280452,-0.0314126,0.719381,-0.00395354,-0.00170485,0.0964408,1,8.61624e-05,0.000111493,0.000230805,0.0172325,0.0222986,0.046161,0.999596,-0.00567561,0.020865,0.0184558,0.65356,0.0315112,-0.742195,34.8125,1,21092,21827434
114,2,0.999596,-0.00567561,0.020865,0.0184558,-0.397583,-0.16864,9.64402,-0.280452,-0.0314126,0.719381,-0.00395354,-0.00170485,0.0964408,1,8.61624e-05,0.000111493,0.000230805,0.0172325,0.0222986,0.046161,0.999596,-0.00567561,0.020865,0.0184558,0.65356,0.0315112,-0.742195,34.8125,1,21092,21827434
115,1,0.999596,-0.00567561,0.020865,0.0184558,-0.397583,-0.16864,9.64402,-0.280452,-0.0314126,0.719381,-0.00395354,-0.00170485,0.0964408,1,8.61624e-05,0.000111493,0.000230805,0.0172325,0.0222986,0.046161,0.999596,-0.00567561,0.020865,0.0184558,0.65356,0.0315112,-0.742195,34.8125,1,21092,21827434
115,2,0.999594,-0.00552317,0.0208034,0.0186869,-0.841129,-0.0919269,9.14602,-0.963974,-0.103859,0.119703,-0.00840439,-0.000939364,0.0914606,1,8.85215e-05,3.53777e-05,0.000232072,0.0177043,0.00707554,0.0464144,0.999594,-0.00552317,0.0208034,0.0186869,0.654122,0.0280748,-0.741264,34.8125,1,21093,21827534
117,1,0.999594,-0.00552317,0.0208034,0.0186869,-0.841129,-0.0919269,9.14602,-0.963974,-0.103859,0.119703,-0.00840439,-0.000939364,0.0914606,1,8.85215e-05,3.53777e-05,0.000232072,0.0177043,0.00707554,0.0464144,0.999594,-0.00552317,0.0208034,0.0186869,0.654122,0.0280748,-0.741264,34.8125,1,21093,21827534
117,2,0.999594,-0.00552317,0.0208034,0.0186869,-0.841129,-0.0919269,9.14602,-0.963974,-0.103859,0.119703,-0.00840439,-0.000939364,0.0914606,1,8.85215e-05,3.53777e-05,0.000232072,0.0177043,0.00707554,0.0464144,0.999594,-0.00552317,0.0208034,0.0186869,0.654122,0.0280748,-0.741264,34.8125,1,21093,21827534
117,3,0.999592,-0.00543592,0.0206997,0.0189376,-0.535054,0.483258,9.51763,-0.857398,0.392643,0.438144,-0.00535503,0.00482548,0.0951764,1,2.32355e-05,-1.09693e-05,0.000249436,0.00464711,-0.00219385,0.0498872,0.999592,-0.00543592,0.0206997,0.0189376,0.656009,0.0251953,-0.744872,34.8125,1,21094,21827634
117,4,0.999592,-0.00543592,0.0206997,0.0189376,-0.535054,0.483258,9.51763,-0.857398,0.392643,0.438144,-0.00535503,0.00482548,0.0951764,1,2.32355e-05,-1.09693e-05,0.000249436,0.00464711,-0.00219385,0.0498872,0.999592,-0.00543592,0.0206997,0.0189376,0.656009,0.0251953,-0.744872,34.8125,1,21094,21827634
118,1,0.999592,-0.00543592,0.0206997,0.0189376,-0.535054,0.483258,9.51763,-0.857398,0.392643,0.438144,-0.00535503,0.00482548,0.0951764,1,2.32355e-05,-1.09693e-05,0.000249436,0.00464711,-0.00219385,0.0498872,0.999592,-0.00543592,0.0206997,0.0189376,0.656009,0.0251953,-0.744872,34.8125,1,21094,21827634
118,2,0.999588,-0.00537788,0.0206317,0.0192014,-0.277361,-0.438191,10.0322,-0.603046,-0.657067,0.947,-0.00276692,-0.00438159,0.100322,1,-8.80677e-06,2.19334e-05,0.000260896,-0.00176135,0.00438667,0.0521792,0.999588,-0.00537788,0.0206317,0.0192014,0.656452,0.0223278,-0.748473,34.8125,1,21095,21827734
120,1,0.999588,-0.00537788,0.0206317,0.0192014,-0.277361,-0.438191,10.0322,-0.603046,-0.657067,0.947,-0.00276692,-0.00438159,0.100322,1,-8.80677e-06,2.19334e-05,0.000260896,-0.00176135,0.00438667,0.0521792,0.999588,-0.00537788,0.0206317,0.0192014,0.656452,0.0223278,-0.748473,34.8125,1,21095,21827734
120,2,0.999588,-0.00537788,0.0206317,0.0192014,-0.277361,-0.438191,10.0322,-0.603046,-0.657067,0.947,-0.00276692,-0.00438159,0.100322,1,-8.80677e-06,2.19334e-05,0.000260896,-0.00176135,0.00438667,0.0521792,0.999588,-0.00537788,0.0206317,0.0192014,0.656452,0.0223278,-0.748473,34.8125,1,21095,21827734
120,3,0.999584,-0.0052671,0.0206157,0.0194813,-0.449427,-0.115727,10.3335,-0.702019,-0.332593,1.37173,-0.00447852,-0.00116974,0.103335,1,4.81977e-05,7.30493e-05,0.000279832,0.00963954,0.0146099,0.0559664,0.999584,-0.0052671,0.0206157,0.0194813,0.656884,0.0223598,-0.750495,34.8125,1,21096,21827834
120,4,0.999584,-0.0052671,0.0206157,0.0194813,-0.449427,-0.115727,10.3335,-0.702019,-0.332593,1.37173,-0.00447852,-0.00116974,0.103335,1,4.81977e-05,7.30493e-05,0.000279832,0.00963954,0.0146099,0.0559664,0.999584,-0.0052671,0.0206157,0.0194813,0.656884,0.0223598,-0.750495,34.8125,1,21096,21827834
121,1,0.999584,-0.0052671,0.0206157,0.0194813,-0.449427,-0.115727,10.3335,-0.702019,-0.332593,1.37173,-0.00447852,-0.00116974,0.103335,1,4.81977e-05,7.30493e-05,0.000279832,0.00963954,0.0146099,0.0559664,0.999584,-0.0052671,0.0206157,0.0194813,0.656884,0.0223598,-0.750495,34.8125,1,21096,21827834
121,2,0.999579,-0.00519432,0.0205897,0.0197715,-1.13296,-0.156788,9.52048,-1.27597,-0.158059,0.618006,-0.0113169,-0.00157652,0.0952062,1,1.10132e-05,6.1791e-05,0.000289058,0.00220265,0.0123582,0.0578116,0.999579,-0.00519432,0.0205897,0.0197715,0.655502,0.0208815,-0.749006,34.8125,1,21097,21827934
134,1,0.999579,-0.00519432,0.0205897,0.0197715,-1.13296,-0.156788,9.52048,-1.27597,-0.158059,0.618006,-0.0113169,-0.00157652,0.0952062,1,1.10132e-05,6.1791e-05,0.000289058,0.00220265,0.0123582,0.0578116,0.999579,-0.00519432,0.0205897,0.0197715,0.655502,0.0208815,-0.749006,34.8125,1,21097,21827934
134,2,0.999579,-0.00519432,0.0205897,0.0197715,-1.13296,-0.156788,9.52048,-1.27597,-0.158059,0.618006,-0.0113169,-0.00157652,0.0952062,1,1.10132e-05,6.1791e-05,0.000289058,0.00220265,0.0123582,0.0578116,0.999579,-0.00519432,0.0205897,0.0197715,0.655502,0.0208815,-0.749006,34.8125,1,21097,21827934
134,3,0.999576,-0.00504344,0.0204973,0.0200734,-0.901907,-0.0681453,9.39968,-0.851227,-0.00838926,0.444565,-0.00902124,-0.000703646,0.0939964,1,8.91265e-05,-1.37749e-05,0.000301454,0.0178253,-0.00275498,0.0602908,0.999576,-0.00504344,0.0204973,0.0200734,0.653169,0.0165116,-0.749092,34.8125,1,21098,21828034
134,4,0.999576,-0.00504344,0.0204973,0.0200734,-0.901907,-0.0681453,9.39968,-0.851227,-0.00838926,0.444565,-0.00902124,-0.000703646,0.0939964,1,8.91265e-05,-1.37749e-05,0.000301454,0.0178253,-0.00275498,0.0602908,0.999576,-0.00504344,0.0204973,0.0200734,0.653169,0.0165116,-0.749092,34.8125,1,21098,21828034
123,1,0.999576,-0.00504344,0.0204973,0.0200734,-0.901907,-0.0681453,9.39968,-0.851227,-0.00838926,0.444565,-0.00902124,-0.000703646,0.0939964,1,8.91265e-05,-1.37749e-05,0.000301454,0.0178253,-0.00275498,0.0602908,0.999576,-0.00504344,0.0204973,0.0200734,0.653169,0.0165116,-0.749092,34.8125,1,21098,21828034
123,2,0.999572,-0.00495789,0.0204063,0.0203748,0.0239833,0.197489,10.1027,0.025259,0.53386,0.997822,0.000235318,0.00197003,0.101027,1,2.47391e-05,-1.65016e-05,0.000299378,0.00494783,-0.00330032,0.0598756,0.999572,-0.00495789,0.0204063,0.0203748,0.655565,0.0126435,-0.75222,34.8125,1,21099,21828134
126,1,0.999572,-0.00495789,0.0204063,0.0203748,0.0239833,0.197489,10.1027,0.025259,0.53386,0.997822,0.000235318,0.00197003,0.101027,1,2.47391e-05,-1.65016e-05,0.000299378,0.00494783,-0.00330032,0.0598756,0.999572,-0.00495789,0.0204063,0.0203748,0.655565,0.0126435,-0.75222,34.8125,1,21099,21828134
126,2,0.999572,-0.00495789,0.0204063,0.0203748,0.0239833,0.197489,10.1027,0.025259,0.53386,0.997822,0.000235318,0.00197003,0.101027,1,2.47391e-05,-1.65016e-05,0.000299378,0.00494783,-0.00330032,0.0598756,0.999572,-0.00495789,0.0204063,0.0203748,0.655565,0.0126435,-0.75222,34.8125,1,21099,21828134
127,1,0.999567,-0.00480987,0.0203872,0.0206506,-0.226771,-0.299788,9.79316,-0.423221,-0.230599,0.727772,-0.00225503,-0.00301638,0.0979314,1,8.80863e-05,5.62558e-05,0.000275366,0.0176173,0.0112512,0.0550733,0.999567,-0.00480987,0.0203872,0.0206506,0.65644,0.0112533,-0.7568,34.8125,1,21100,21828234
127,2,0.999567,-0.00480987,0.0203872,0.0206506,-0.226771,-0.299788,9.79316,-0.423221,-0.230599,0.727772,-0.00225503,-0.00301638,0.0979314,1,8.80863e-05,5.62558e-05,0.000275366,0.0176173,0.0112512,0.0550733,0.999567,-0.00480987,0.0203872,0.0206506,0.65644,0.0112533,-0.7568,34.8125,1,21100,21828234
128,1,0.999567,-0.00480987,0.0203872,0.0206506,-0.226771,-0.299788,9.79316,-0.423221,-0.230599,0.727772,-0.00225503,-0.00301638,0.0979314,1,8.80863e-05,5.62558e-05,0.000275366,0.0176173,0.0112512,0.0550733,0.999567,-0.00480987,0.0203872,0.0206506,0.65644,0.0112533,-0.7568,34.8125,1,21100,21828234
128,2,0.999563,-0.00461537,0.0203764,0.0209137,-0.58194,-0.0255809,9.96857,-0.999342,-0.315533,0.908882,-0.00580653,-0.000286303,0.0996863,1,0.000137532,6.38495e-05,0.000264394,0.0275064,0.0127699,0.0528788,0.999563,-0.00461537,0.0203764,0.0209137,0.656456,0.00883251,-0.757864,34.8125,1,21101,21828334
128,3,0.999563,-0.00461537,0.0203764,0.0209137,-0.58194,-0.0255809,9.96857,-0.999342,-0.315533,0.908882,-0.00580653,-0.000286303,0.0996863,1,0.000137532,6.38495e-05,0.000264394,0.0275064,0.0127699,0.0528788,0.999563,-0.00461537,0.0203764,0.0209137,0.656456,0.00883251,-0.757864,34.8125,1,21101,21828334
128,4,0.999563,-0.00461537,0.0203764,0.0209137,-0.58194,-0.0255809,9.96857,-0.999342,-0.315533,0.908882,-0.00580653,-0.000286303,0.0996863,1,0.000137532,6.38495e-05,0.000264394,0.0275064,0.0127699,0.0528788,0.999563,-0.00461537,0.0203764,0.0209137,0.656456,0.00883251,-0.757864,34.8125,1,21101,21828334
129,1,0.999557,-0.00444716,0.0204094,0.0212087,-0.562028,-0.196577,10.4077,-0.916695,-0.629979,1.54234,-0.00559725,-0.00199243,0.104078,1,0.000112133,0.000105025,0.000295693,0.0224266,0.0210049,0.0591386,0.999557,-0.00444716,0.0204094,0.0212087,0.656517,0.00589688,-0.757425,34.8125,1,21102,21828434
129,2,0.999557,-0.00444716,0.0204094,0.0212087,-0.562028,-0.196577,10.4077,-0.916695,-0.629979,1.54234,-0.00559725,-0.00199243,0.104078,1,0.000112133,0.000105025,0.000295693,0.0224266,0.0210049,0.0591386,0.999557,-0.00444716,0.0204094,0.0212087,0.656517,0.00589688,-0.757425,34.8125,1,21102,21828434
130,1,0.999557,-0.00444716,0.0204094,0.0212087,-0.562028,-0.196577,10.4077,-0.916695,-0.629979,1.54234,-0.00559725,-0.00199243,0.104078,1,0.000112133,0.000105025,0.000295693,0.0224266,0.0210049,0.0591386,0.999557,-0.00444716,0.0204094,0.0212087,0.656517,0.00589688,-0.757425,34.8125,1,21102,21828434
130,2,0.999551,-0.00434483,0.0204002,0.0215107,-1.48365,0.564978,9.13507,-1.84579,0.257609,0.341104,-0.0148285,0.00563224,0.0913531,1,4.70935e-05,6.23512e-05,0.00030121,0.0094187,0.0124702,0.0602419,0.999551,-0.00434483,0.0204002,0.0215107,0.656549,0.0039458,-0.757468,34.8125,1,21103,21828534
146,1,0.999551,-0.00434483,0.0204002,0.0215107,-1.48365,0.564978,9.13507,-1.84579,0.257609,0.341104,-0.0148285,0.00563224,0.0913531,1,4.70935e-05,6.23512e-05,0.00030121,0.0094187,0.0124702,0.0602419,0.999551,-0.00434483,0.0204002,0.0215107,0.656549,0.0039458,-0.757468,34.8125,1,21103,21828534
146,2,0.999548,-0.00432119,0.0202109,0.0218356,-1.19834,0.448984,9.02013,-1.61738,0.396347,-0.0697122,-0.0120091,0.00448928,0.0901979,1,-3.95668e-05,-0.000126144,0.000320616,-0.00791336,-0.0252287,0.0641231,0.999548,-0.00432119,0.0202109,0.0218356,0.654648,0.00105321,-0.758534,34.8125,1,21104,21828634
146,3,0.999548,-0.00432119,0.0202109,0.0218356,-1.19834,0.448984,9.02013,-1.61738,0.396347,-0.0697122,-0.0120091,0.00448928,0.0901979,1,-3.95668e-05,-0.000126144,0.000320616,-0.00791336,-0.0252287,0.0641231,0.999548,-0.00432119,0.0202109,0.0218356,0.654648,0.00105321,-0.758534,34.8125,1,21104,21828634
146,4,0.999548,-0.00432119,0.0202109,0.0218356,-1.19834,0.448984,9.02013,-1.61738,0.396347,-0.0697122,-0.0120091,0.00448928,0.0901979,1,-3.95668e-05,-0.000126144,0.000320616,-0.00791336,-0.0252287,0.0641231,0.999548,-0.00432119,0.0202109,0.0218356,0.654648,0.00105321,-0.758534,34.8125,1,21104,21828634
132,1,0.999545,-0.00436852,0.0200435,0.0221256,0.30118,-0.270166,10.4723,0.0937004,0.185466,1.36615,0.00299029,-0.00267649,0.104724,1,-0.000112076,-0.000109957,0.000283006,-0.0224153,-0.0219913,0.0566012,0.999545,-0.00436852,0.0200435,0.0221256,0.653714,-0.0028139,-0.760131,34.8125,1,21105,21828734
132,2,0.999545,-0.00436852,0.0200435,0.0221256,0.30118,-0.270166,10.4723,0.0937004,0.185466,1.36615,0.00299029,-0.00267649,0.104724,1,-0.000112076,-0.000109957,0.000283006,-0.0224153,-0.0219913,0.0566012,0.999545,-0.00436852,0.0200435,0.0221256,0.653714,-0.0028139,-0.760131,34.8125,1,21105,21828734
133,1,0.999545,-0.00436852,0.0200435,0.0221256,0.30118,-0.270166,10.4723,0.0937004,0.185466,1.36615,0.00299029,-0.00267649,0.104724,1,-0.000112076,-0.000109957,0.000283006,-0.0224153,-0.0219913,0.0566012,0.999545,-0.00436852,0.0200435,0.0221256,0.653714,-0.0028139,-0.760131,34.8125,1,21105,21828734
133,2,0.99954,-0.00414301,0.0199957,0.0224029,-0.457031,-0.317918,10.0082,-0.518015,-0.168465,1.07335,-0.00456692,-0.00321494,0.100081,1,0.000165992,8.04757e-06,0.00027718,0.0331983,0.00160952,0.055436,0.99954,-0.00414301,0.0199957,0.0224029,0.65558,-0.00375135,-0.763191,34.8125,1,21106,21828834
133,3,0.99954,-0.00414301,0.0199957,0.0224029,-0.457031,-0.317918,10.0082,-0.518015,-0.168465,1.07335,-0.00456692,-0.00321494,0.100081,1,0.000165992,8.04757e-06,0.00027718,0.0331983,0.00160952,0.055436,0.99954,-0.00414301,0.0199957,0.0224029,0.65558,-0.00375135,-0.763191,34.8125,1,21106,21828834
133,4,0.99954,-0.00414301,0.0199957,0.0224029,-0.457031,-0.317918,10.0082,-0.518015,-0.168465,1.07335,-0.00456692,-0.00321494,0.100081,1,0.000165992,8.04757e-06,0.00027718,0.0331983,0.00160952,0.055436,0.99954,-0.00414301,0.0199957,0.0224029,0.65558,-0.00375135,-0.763191,34.8125,1,21106,21828834
133,5,0.999537,-0.00398586,0.0198912,0.0226559,-1.31262,0.0911285,9.07654,-1.60025,0.217493,0.133008,-0.0131355,0.000886575,0.0907643,1,9.97388e-05,-4.86273e-05,0.000251474,0.0199478,-0.00972545,0.0502947,0.999537,-0.00398586,0.0198912,0.0226559,0.657027,-0.00617515,-0.764766,34.8125,1,21107,21828934
133,6,0.999537,-0.00398586,0.0198912,0.0226559,-1.31262,0.0911285,9.07654,-1.60025,0.217493,0.133008,-0.0131355,0.000886575,0.0907643,1,9.97388e-05,-4.86273e-05,0.000251474,0.0199478,-0.00972545,0.0502947,0.999537,-0.00398586,0.0198912,0.0226559,0.657027,-0.00617515,-0.764766,34.8125,1,21107,21828934
134,1,0.999537,-0.00398586,0.0198912,0.0226559,-1.31262,0.0911285,9.07654,-1.60025,0.217493,0.133008,-0.0131355,0.000886575,0.0907643,1,9.97388e-05,-4.86273e-05,0.000251474,0.0199478,-0.00972545,0.0502947,0.999537,-0.00398586,0.0198912,0.0226559,0.657027,-0.00617515,-0.764766,34.8125,1,21107,21828934
134,2,0.999536,-0.00386717,0.019699,0.0229119,-0.452494,0.0567813,9.42419,-0.732529,0.0988107,0.431973,-0.00455225,0.000554368,0.0942407,1,5.91439e-05,-0.000143395,0.000253028,0.0118288,-0.0286789,0.0506055,0.999536,-0.00386717,0.019699,0.0229119,0.657027,-0.00762042,-0.765808,34.8125,1,21108,21829034
135,1,0.999536,-0.00386717,0.019699,0.0229119,-0.452494,0.0567813,9.42419,-0.732529,0.0988107,0.431973,-0.00455225,0.000554368,0.0942407,1,5.91439e-05,-0.000143395,0.000253028,0.0118288,-0.0286789,0.0506055,0.999536,-0.00386717,0.019699,0.0229119,0.657027,-0.00762042,-0.765808,34.8125,1,21108,21829034
135,2,0.999536,-0.00386717,0.019699,0.0229119,-0.452494,0.0567813,9.42419,-0.732529,0.0988107,0.431973,-0.00455225,0.000554368,0.0942407,1,5.91439e-05,-0.000143395,0.000253028,0.0118288,-0.0286789,0.0506055,0.999536,-0.00386717,0.019699,0.0229119,0.657027,-0.00762042,-0.765808,34.8125,1,21108,21829034
136,1,0.999533,-0.00377511,0.0195477,0.0231693,-0.23533,0.108198,9.62257,-0.545649,0.165627,0.581812,-0.00237375,0.00107433,0.0962253,1,3.35346e-05,-0.000103438,0.000254009,0.00670692,-0.0206876,0.0508017,0.999533,-0.00377511,0.0195477,0.0231693,0.655599,-0.0100292,-0.766866,34.8125,1,21109,21829134
