frame_id,imu_idx,quat_w,quat_x,quat_y,quat_z,accel_x,accel_y,accel_z,free_accel_x,free_accel_y,free_accel_z,delta_v_x,delta_v_y,delta_v_z,delta_q_w,delta_q_x,delta_q_y,delta_q_z,rate_x,rate_y,rate_z,quat_w,quat_x,quat_y,quat_z,mag_x,mag_y,mag_z,temperature,status_byte,packet_counter,time_fine
1,1,0.999342,0.000787904,0.0362051,-0.00223809,-0.744542,-0.0944345,9.78034,0.304954,-0.31313,0.893009,-0.00744752,-0.000955642,0.0978031,1,5.74327e-05,-1.07401e-05,4.24338e-06,0.0114865,-0.00214802,0.000848677,0.999342,0.000787904,0.0362051,-0.00223809,-0.206109,0.201729,-0.937982,35.3125,1,8182,20533537
1,2,0.999342,0.000787904,0.0362051,-0.00223809,-0.626437,-0.706495,7.18669,0.304954,-0.31313,0.893009,-0.00626873,-0.00704741,0.0718683,1,-0.000121859,-3.01469e-05,-1.84637e-06,-0.0243719,-0.00602939,-0.000369273,0.999342,0.000787904,0.0362051,-0.00223809,0.572761,0.135417,-0.647591,35.25,1,12889,21005693
2,1,0.999342,0.000787904,0.0362051,-0.00223809,-0.626437,-0.706495,7.18669,0.304954,-0.31313,0.893009,-0.00626873,-0.00704741,0.0718683,1,-0.000121859,-3.01469e-05,-1.84637e-06,-0.0243719,-0.00602939,-0.000369273,0.999342,0.000787904,0.0362051,-0.00223809,0.572761,0.135417,-0.647591,35.25,1,12889,21005693
2,2,0.999342,0.000787904,0.0362051,-0.00223809,-0.626437,-0.706495,7.18669,0.304954,-0.31313,0.893009,-0.00626873,-0.00704741,0.0718683,1,-0.000121859,-3.01469e-05,-1.84637e-06,-0.0243719,-0.00602939,-0.000369273,0.999342,0.000787904,0.0362051,-0.00223809,0.572761,0.135417,-0.647591,35.25,1,12889,21005693
2,3,0.997875,-0.0485268,0.0434322,-0.00214272,-0.0415173,-0.21514,9.82248,0.360912,0.740787,0.700784,-0.000416002,-0.00217088,0.0982244,1,9.92176e-05,-3.73576e-06,-2.20035e-05,0.0198435,-0.000747153,-0.00440071,0.997875,-0.0485268,0.0434322,-0.00214272,0.574657,0.13494,-0.649126,35.25,1,12890,21005793
2,4,0.997875,-0.0485268,0.0434322,-0.00214272,-0.0415173,-0.21514,9.82248,0.360912,0.740787,0.700784,-0.000416002,-0.00217088,0.0982244,1,9.92176e-05,-3.73576e-06,-2.20035e-05,0.0198435,-0.000747153,-0.00440071,0.997875,-0.0485268,0.0434322,-0.00214272,0.574657,0.13494,-0.649126,35.25,1,12890,21005793
3,1,0.997875,-0.0485268,0.0434322,-0.00214272,-0.0415173,-0.21514,9.82248,0.360912,0.740787,0.700784,-0.000416002,-0.00217088,0.0982244,1,9.92176e-05,-3.73576e-06,-2.20035e-05,0.0198435,-0.000747153,-0.00440071,0.997875,-0.0485268,0.0434322,-0.00214272,0.574657,0.13494,-0.649126,35.25,1,12890,21005793
3,2,0.997877,-0.0484517,0.0434647,-0.00215854,-0.261636,-0.0541244,9.87894,0.121304,1.00854,0.769301,-0.00261022,-0.000555622,0.0987895,1,7.33195e-05,3.11904e-05,-2.06512e-05,0.0146639,0.00623808,-0.00413025,0.997877,-0.0484517,0.0434647,-0.00215854,0.576482,0.133551,-0.654216,35.25,1,12891,21005893
3,3,0.997877,-0.0484517,0.0434647,-0.00215854,-0.261636,-0.0541244,9.87894,0.121304,1.00854,0.769301,-0.00261022,-0.000555622,0.0987895,1,7.33195e-05,3.11904e-05,-2.06512e-05,0.0146639,0.00623808,-0.00413025,0.997877,-0.0484517,0.0434647,-0.00215854,0.576482,0.133551,-0.654216,35.25,1,12891,21005893
3,4,0.997877,-0.0484517,0.0434647,-0.00215854,-0.261636,-0.0541244,9.87894,0.121304,1.00854,0.769301,-0.00261022,-0.000555622,0.0987895,1,7.33195e-05,3.11904e-05,-2.06512e-05,0.0146639,0.00623808,-0.00413025,0.997877,-0.0484517,0.0434647,-0.00215854,0.576482,0.133551,-0.654216,35.25,1,12891,21005893
4,1,0.997878,-0.0483804,0.043525,-0.00216694,-0.546766,-0.0697823,9.72602,-0.180838,0.861375,0.62502,-0.00545569,-0.000711582,0.0972608,1,7.08551e-05,6.151e-05,-2.1439e-06,0.014171,0.012302,-0.00042878,0.997878,-0.0483804,0.043525,-0.00216694,0.578825,0.132131,-0.657794,35.25,1,12892,21005993
4,2,0.997878,-0.0483804,0.043525,-0.00216694,-0.546766,-0.0697823,9.72602,-0.180838,0.861375,0.62502,-0.00545569,-0.000711582,0.0972608,1,7.08551e-05,6.151e-05,-2.1439e-06,0.014171,0.012302,-0.00042878,0.997878,-0.0483804,0.043525,-0.00216694,0.578825,0.132131,-0.657794,35.25,1,12892,21005993
4,3,0.997878,-0.0483804,0.043525,-0.00216694,-0.546766,-0.0697823,9.72602,-0.180838,0.861375,0.62502,-0.00545569,-0.000711582,0.0972608,1,7.08551e-05,6.151e-05,-2.1439e-06,0.014171,0.012302,-0.00042878,0.997878,-0.0483804,0.043525,-0.00216694,0.578825,0.132131,-0.657794,35.25,1,12892,21005993
4,4,0.997882,-0.0483062,0.0435227,-0.0021832,-0.65129,0.0533662,9.80413,-0.315318,1.0291,0.680445,-0.00651298,0.000519327,0.0980414,1,7.39655e-05,-4.98889e-07,-1.29316e-05,0.0147931,-9.97779e-05,-0.00258632,0.997882,-0.0483062,0.0435227,-0.0021832,0.578324,0.132632,-0.658285,35.25,1,12893,21006093
5,1,0.997882,-0.0483062,0.0435227,-0.0021832,-0.65129,0.0533662,9.80413,-0.315318,1.0291,0.680445,-0.00651298,0.000519327,0.0980414,1,7.39655e-05,-4.98889e-07,-1.29316e-05,0.0147931,-9.97779e-05,-0.00258632,0.997882,-0.0483062,0.0435227,-0.0021832,0.578324,0.132632,-0.658285,35.25,1,12893,21006093
5,2,0.997882,-0.0483062,0.0435227,-0.0021832,-0.65129,0.0533662,9.80413,-0.315318,1.0291,0.680445,-0.00651298,0.000519327,0.0980414,1,7.39655e-05,-4.98889e-07,-1.29316e-05,0.0147931,-9.97779e-05,-0.00258632,0.997882,-0.0483062,0.0435227,-0.0021832,0.578324,0.132632,-0.658285,35.25,1,12893,21006093
5,3,0.997885,-0.0482288,0.0435351,-0.00220366,-0.450228,0.141625,9.91579,-0.0332943,1.15993,0.81092,-0.0044993,0.00140123,0.0991582,1,7.64392e-05,1.47972e-05,-1.622e-05,0.0152878,0.00295943,-0.00324399,0.997885,-0.0482288,0.0435351,-0.00220366,0.576946,0.131632,-0.656281,35.25,1,12894,21006193
5,4,0.997885,-0.0482288,0.0435351,-0.00220366,-0.450228,0.141625,9.91579,-0.0332943,1.15993,0.81092,-0.0044993,0.00140123,0.0991582,1,7.64392e-05,1.47972e-05,-1.622e-05,0.0152878,0.00295943,-0.00324399,0.997885,-0.0482288,0.0435351,-0.00220366,0.576946,0.131632,-0.656281,35.25,1,12894,21006193
5,5,0.997885,-0.0482288,0.0435351,-0.00220366,-0.450228,0.141625,9.91579,-0.0332943,1.15993,0.81092,-0.0044993,0.00140123,0.0991582,1,7.64392e-05,1.47972e-05,-1.622e-05,0.0152878,0.00295943,-0.00324399,0.997885,-0.0482288,0.0435351,-0.00220366,0.576946,0.131632,-0.656281,35.25,1,12894,21006193
5,6,0.997888,-0.0481734,0.0435087,-0.00223559,-0.522843,0.26687,9.78678,-0.121516,1.26096,0.683511,-0.00523287,0.00265842,0.0978678,1,5.41864e-05,-2.35526e-05,-3.11567e-05,0.0108373,-0.00471052,-0.00623135,0.997888,-0.0481734,0.0435087,-0.00223559,0.574566,0.133079,-0.654217,35.25,1,12895,21006293
6,1,0.997888,-0.0481734,0.0435087,-0.00223559,-0.522843,0.26687,9.78678,-0.121516,1.26096,0.683511,-0.00523287,0.00265842,0.0978678,1,5.41864e-05,-2.35526e-05,-3.11567e-05,0.0108373,-0.00471052,-0.00623135,0.997888,-0.0481734,0.0435087,-0.00223559,0.574566,0.133079,-0.654217,35.25,1,12895,21006293
6,2,0.997888,-0.0481734,0.0435087,-0.00223559,-0.522843,0.26687,9.78678,-0.121516,1.26096,0.683511,-0.00523287,0.00265842,0.0978678,1,5.41864e-05,-2.35526e-05,-3.11567e-05,0.0108373,-0.00471052,-0.00623135,0.997888,-0.0481734,0.0435087,-0.00223559,0.574566,0.133079,-0.654217,35.25,1,12895,21006293
6,3,0.997891,-0.0481524,0.0434633,-0.00227628,-0.334374,-0.0504969,9.75024,0.0649786,0.981528,0.635554,-0.00335183,-0.00050841,0.0975021,1,1.91022e-05,-4.12633e-05,-4.23527e-05,0.00382043,-0.00825266,-0.00847054,0.997891,-0.0481524,0.0434633,-0.00227628,0.575565,0.133044,-0.652708,35.25,1,12896,21006393
6,4,0.997891,-0.0481524,0.0434633,-0.00227628,-0.334374,-0.0504969,9.75024,0.0649786,0.981528,0.635554,-0.00335183,-0.00050841,0.0975021,1,1.91022e-05,-4.12633e-05,-4.23527e-05,0.00382043,-0.00825266,-0.00847054,0.997891,-0.0481524,0.0434633,-0.00227628,0.575565,0.133044,-0.652708,35.25,1,12896,21006393
7,1,0.997891,-0.0481524,0.0434633,-0.00227628,-0.334374,-0.0504969,9.75024,0.0649786,0.981528,0.635554,-0.00335183,-0.00050841,0.0975021,1,1.91022e-05,-4.12633e-05,-4.23527e-05,0.00382043,-0.00825266,-0.00847054,0.997891,-0.0481524,0.0434633,-0.00227628,0.575565,0.133044,-0.652708,35.25,1,12896,21006393
7,2,0.997896,-0.0480808,0.0434255,-0.00232395,-0.271231,-0.0876276,9.86209,0.155542,0.885918,0.74964,-0.00271898,-0.000889649,0.0986207,1,6.90916e-05,-3.34032e-05,-4.68729e-05,0.0138183,-0.00668064,-0.00937457,0.997896,-0.0480808,0.0434255,-0.00232395,0.577436,0.132585,-0.655252,35.25,1,12897,21006493
7,3,0.997896,-0.0480808,0.0434255,-0.00232395,-0.271231,-0.0876276,9.86209,0.155542,0.885918,0.74964,-0.00271898,-0.000889649,0.0986207,1,6.90916e-05,-3.34032e-05,-4.68729e-05,0.0138183,-0.00668064,-0.00937457,0.997896,-0.0480808,0.0434255,-0.00232395,0.577436,0.132585,-0.655252,35.25,1,12897,21006493
7,4,0.997896,-0.0480808,0.0434255,-0.00232395,-0.271231,-0.0876276,9.86209,0.155542,0.885918,0.74964,-0.00271898,-0.000889649,0.0986207,1,6.90916e-05,-3.34032e-05,-4.68729e-05,0.0138183,-0.00668064,-0.00937457,0.997896,-0.0480808,0.0434255,-0.00232395,0.577436,0.132585,-0.655252,35.25,1,12897,21006493
8,1,0.997899,-0.0480466,0.043406,-0.00235807,-0.346904,-0.0890403,9.83377,0.0196391,0.891823,0.724097,-0.00347196,-0.00089603,0.0983375,1,2.98023e-05,-1.45198e-05,-3.38195e-05,0.00596046,-0.00290395,-0.00676389,0.997899,-0.0480466,0.043406,-0.00235807,0.578287,0.132659,-0.6598,35.25,1,12898,21006593
8,2,0.997899,-0.0480466,0.043406,-0.00235807,-0.346904,-0.0890403,9.83377,0.0196391,0.891823,0.724097,-0.00347196,-0.00089603,0.0983375,1,2.98023e-05,-1.45198e-05,-3.38195e-05,0.00596046,-0.00290395,-0.00676389,0.997899,-0.0480466,0.043406,-0.00235807,0.578287,0.132659,-0.6598,35.25,1,12898,21006593
8,3,0.997899,-0.0480466,0.043406,-0.00235807,-0.346904,-0.0890403,9.83377,0.0196391,0.891823,0.724097,-0.00347196,-0.00089603,0.0983375,1,2.98023e-05,-1.45198e-05,-3.38195e-05,0.00596046,-0.00290395,-0.00676389,0.997899,-0.0480466,0.043406,-0.00235807,0.578287,0.132659,-0.6598,35.25,1,12898,21006593
8,4,0.997902,-0.0479874,0.0433916,-0.00240601,-0.505075,-0.0815195,9.74094,-0.0755158,0.822121,0.667617,-0.0050525,-0.000825262,0.0974092,1,5.41021e-05,-8.58764e-06,-4.68158e-05,0.0108204,-0.00171753,-0.00936316,0.997902,-0.0479874,0.0433916,-0.00240601,0.577724,0.13465,-0.661773,35.25,1,12899,21006693
9,1,0.997902,-0.0479874,0.0433916,-0.00240601,-0.505075,-0.0815195,9.74094,-0.0755158,0.822121,0.667617,-0.0050525,-0.000825262,0.0974092,1,5.41021e-05,-8.58764e-06,-4.68158e-05,0.0108204,-0.00171753,-0.00936316,0.997902,-0.0479874,0.0433916,-0.00240601,0.577724,0.13465,-0.661773,35.25,1,12899,21006693
9,2,0.997908,-0.0479003,0.0433617,-0.00243586,-0.504536,-0.0544182,9.78052,-0.123241,0.839059,0.704621,-0.00505017,-0.000559555,0.0978049,1,8.00882e-05,-2.44324e-05,-2.90086e-05,0.0160176,-0.00488649,-0.00580171,0.997908,-0.0479003,0.0433617,-0.00243586,0.575907,0.134106,-0.657736,35.25,1,12900,21006793
9,3,0.997908,-0.0479003,0.0433617,-0.00243586,-0.504536,-0.0544182,9.78052,-0.123241,0.839059,0.704621,-0.00505017,-0.000559555,0.0978049,1,8.00882e-05,-2.44324e-05,-2.90086e-05,0.0160176,-0.00488649,-0.00580171,0.997908,-0.0479003,0.0433617,-0.00243586,0.575907,0.134106,-0.657736,35.25,1,12900,21006793
9,4,0.997908,-0.0479003,0.0433617,-0.00243586,-0.504536,-0.0544182,9.78052,-0.123241,0.839059,0.704621,-0.00505017,-0.000559555,0.0978049,1,8.00882e-05,-2.44324e-05,-2.90086e-05,0.0160176,-0.00488649,-0.00580171,0.997908,-0.0479003,0.0433617,-0.00243586,0.575907,0.134106,-0.657736,35.25,1,12900,21006793
10,1,0.997912,-0.0478386,0.0433211,-0.00246411,-0.33959,0.0879054,9.8627,0.0834357,0.981112,0.759824,-0.00340265,0.000868746,0.0986269,1,5.3259e-05,-3.44668e-05,-2.90297e-05,0.0106518,-0.00689335,-0.00580595,0.997912,-0.0478386,0.0433211,-0.00246411,0.574089,0.133562,-0.653699,35.25,1,12901,21006893
10,2,0.997912,-0.0478386,0.0433211,-0.00246411,-0.33959,0.0879054,9.8627,0.0834357,0.981112,0.759824,-0.00340265,0.000868746,0.0986269,1,5.3259e-05,-3.44668e-05,-2.90297e-05,0.0106518,-0.00689335,-0.00580595,0.997912,-0.0478386,0.0433211,-0.00246411,0.574089,0.133562,-0.653699,35.25,1,12901,21006893
11,1,0.997912,-0.0478386,0.0433211,-0.00246411,-0.33959,0.0879054,9.8627,0.0834357,0.981112,0.759824,-0.00340265,0.000868746,0.0986269,1,5.3259e-05,-3.44668e-05,-2.90297e-05,0.0106518,-0.00689335,-0.00580595,0.997912,-0.0478386,0.0433211,-0.00246411,0.574089,0.133562,-0.653699,35.25,1,12901,21006893
11,2,0.997915,-0.0478043,0.0432945,-0.00250209,-0.391665,0.041288,9.81346,0.00931608,0.984705,0.710452,-0.00392041,0.000408368,0.0981345,1,2.4559e-05,-1.92977e-05,-3.92717e-05,0.00491181,-0.00385953,-0.00785434,0.997915,-0.0478043,0.0432945,-0.00250209,0.576058,0.133031,-0.652205,35.25,1,12902,21006993
11,3,0.997915,-0.0478043,0.0432945,-0.00250209,-0.391665,0.041288,9.81346,0.00931608,0.984705,0.710452,-0.00392041,0.000408368,0.0981345,1,2.4559e-05,-1.92977e-05,-3.92717e-05,0.00491181,-0.00385953,-0.00785434,0.997915,-0.0478043,0.0432945,-0.00250209,0.576058,0.133031,-0.652205,35.25,1,12902,21006993
11,4,0.997915,-0.0478043,0.0432945,-0.00250209,-0.391665,0.041288,9.81346,0.00931608,0.984705,0.710452,-0.00392041,0.000408368,0.0981345,1,2.4559e-05,-1.92977e-05,-3.92717e-05,0.00491181,-0.00385953,-0.00785434,0.997915,-0.0478043,0.0432945,-0.00250209,0.576058,0.133031,-0.652205,35.25,1,12902,21006993
12,1,0.997918,-0.0477534,0.0432674,-0.00255934,-0.391714,-0.0392267,9.76461,0.000955129,0.850985,0.672263,-0.00392067,-0.00039967,0.0976459,1,4.02315e-05,-1.78819e-05,-5.79354e-05,0.0080463,-0.00357638,-0.0115871,0.997918,-0.0477534,0.0432674,-0.00255934,0.577896,0.133078,-0.655748,35.25,1,12903,21007093
12,2,0.997918,-0.0477534,0.0432674,-0.00255934,-0.391714,-0.0392267,9.76461,0.000955129,0.850985,0.672263,-0.00392067,-0.00039967,0.0976459,1,4.02315e-05,-1.78819e-05,-5.79354e-05,0.0080463,-0.00357638,-0.0115871,0.997918,-0.0477534,0.0432674,-0.00255934,0.577896,0.133078,-0.655748,35.25,1,12903,21007093
12,3,0.997918,-0.0477534,0.0432674,-0.00255934,-0.391714,-0.0392267,9.76461,0.000955129,0.850985,0.672263,-0.00392067,-0.00039967,0.0976459,1,4.02315e-05,-1.78819e-05,-5.79354e-05,0.0080463,-0.00357638,-0.0115871,0.997918,-0.0477534,0.0432674,-0.00255934,0.577896,0.133078,-0.655748,35.25,1,12903,21007093
12,4,0.997922,-0.047703,0.0432301,-0.0026026,-0.2768,-0.0994517,9.84269,0.120234,0.824171,0.741957,-0.00277359,-0.00100167,0.0984267,1,3.75854e-05,-2.79473e-05,-4.48474e-05,0.00751708,-0.00558947,-0.00896948,0.997922,-0.047703,0.0432301,-0.0026026,0.579262,0.132642,-0.659299,35.25,1,12904,21007193
10,1,0.997922,-0.047703,0.0432301,-0.0026026,-0.2768,-0.0994517,9.84269,0.120234,0.824171,0.741957,-0.00277359,-0.00100167,0.0984267,1,3.75854e-05,-2.79473e-05,-4.48474e-05,0.00751708,-0.00558947,-0.00896948,0.997922,-0.047703,0.0432301,-0.0026026,0.579262,0.132642,-0.659299,35.25,1,12904,21007193
10,2,0.997922,-0.047703,0.0432301,-0.0026026,-0.2768,-0.0994517,9.84269,0.120234,0.824171,0.741957,-0.00277359,-0.00100167,0.0984267,1,3.75854e-05,-2.79473e-05,-4.48474e-05,0.00751708,-0.00558947,-0.00896948,0.997922,-0.047703,0.0432301,-0.0026026,0.579262,0.132642,-0.659299,35.25,1,12904,21007193
10,3,0.997926,-0.047642,0.0432153,-0.00264818,-0.485222,-0.0930599,9.80006,-0.0679664,0.836818,0.724044,-0.00485311,-0.000939274,0.0980005,1,4.65211e-05,-4.12216e-06,-4.57097e-05,0.00930422,-0.000824431,-0.00914195,0.997926,-0.047642,0.0432153,-0.00264818,0.579216,0.133156,-0.660803,35.25,1,12905,21007293
10,4,0.997926,-0.047642,0.0432153,-0.00264818,-0.485222,-0.0930599,9.80006,-0.0679664,0.836818,0.724044,-0.00485311,-0.000939274,0.0980005,1,4.65211e-05,-4.12216e-06,-4.57097e-05,0.00930422,-0.000824431,-0.00914195,0.997926,-0.047642,0.0432153,-0.00264818,0.579216,0.133156,-0.660803,35.25,1,12905,21007293
14,1,0.997926,-0.047642,0.0432153,-0.00264818,-0.485222,-0.0930599,9.80006,-0.0679664,0.836818,0.724044,-0.00485311,-0.000939274,0.0980005,1,4.65211e-05,-4.12216e-06,-4.57097e-05,0.00930422,-0.000824431,-0.00914195,0.997926,-0.047642,0.0432153,-0.00264818,0.579216,0.133156,-0.660803,35.25,1,12905,21007293
14,2,0.99793,-0.0475731,0.0431883,-0.00270925,-0.410699,-0.0360963,9.77562,-0.0355474,0.911894,0.675061,-0.00411004,-0.000370886,0.097756,1,5.33648e-05,-1.53459e-05,-6.21193e-05,0.010673,-0.00306917,-0.0124239,0.99793,-0.0475731,0.0431883,-0.00270925,0.57781,0.133141,-0.659282,35.25,1,12906,21007393
15,1,0.99793,-0.0475731,0.0431883,-0.00270925,-0.410699,-0.0360963,9.77562,-0.0355474,0.911894,0.675061,-0.00411004,-0.000370886,0.097756,1,5.33648e-05,-1.53459e-05,-6.21193e-05,0.010673,-0.00306917,-0.0124239,0.99793,-0.0475731,0.0431883,-0.00270925,0.57781,0.133141,-0.659282,35.25,1,12906,21007393
15,2,0.99793,-0.0475731,0.0431883,-0.00270925,-0.410699,-0.0360963,9.77562,-0.0355474,0.911894,0.675061,-0.00411004,-0.000370886,0.097756,1,5.33648e-05,-1.53459e-05,-6.21193e-05,0.010673,-0.00306917,-0.0124239,0.99793,-0.0475731,0.0431883,-0.00270925,0.57781,0.133141,-0.659282,35.25,1,12906,21007393
15,3,0.997935,-0.0474875,0.0431648,-0.00277387,-0.539377,-0.0243721,9.77116,-0.113083,0.902328,0.691721,-0.00539584,-0.00025638,0.0977115,1,6.83665e-05,-1.0419e-05,-6.50381e-05,0.0136733,-0.00208381,-0.0130076,0.997935,-0.0474875,0.0431648,-0.00277387,0.577399,0.134058,-0.655724,35.25,1,12907,21007493
15,4,0.997935,-0.0474875,0.0431648,-0.00277387,-0.539377,-0.0243721,9.77116,-0.113083,0.902328,0.691721,-0.00539584,-0.00025638,0.0977115,1,6.83665e-05,-1.0419e-05,-6.50381e-05,0.0136733,-0.00208381,-0.0130076,0.997935,-0.0474875,0.0431648,-0.00277387,0.577399,0.134058,-0.655724,35.25,1,12907,21007493
15,5,0.997935,-0.0474875,0.0431648,-0.00277387,-0.539377,-0.0243721,9.77116,-0.113083,0.902328,0.691721,-0.00539584,-0.00025638,0.0977115,1,6.83665e-05,-1.0419e-05,-6.50381e-05,0.0136733,-0.00208381,-0.0130076,0.997935,-0.0474875,0.0431648,-0.00277387,0.577399,0.134058,-0.655724,35.25,1,12907,21007493
15,6,0.997941,-0.0474148,0.0430986,-0.00282373,-0.401931,0.0570068,9.81268,-0.0689645,1.00149,0.703333,-0.00402964,0.000560106,0.0981264,1,5.29252e-05,-5.29525e-05,-5.27712e-05,0.010585,-0.0105905,-0.0105542,0.997941,-0.0474148,0.0430986,-0.00282373,0.578904,0.134001,-0.653207,35.25,1,12908,21007593
16,1,0.997941,-0.0474148,0.0430986,-0.00282373,-0.401931,0.0570068,9.81268,-0.0689645,1.00149,0.703333,-0.00402964,0.000560106,0.0981264,1,5.29252e-05,-5.29525e-05,-5.27712e-05,0.010585,-0.0105905,-0.0105542,0.997941,-0.0474148,0.0430986,-0.00282373,0.578904,0.134001,-0.653207,35.25,1,12908,21007593
16,2,0.997941,-0.0474148,0.0430986,-0.00282373,-0.401931,0.0570068,9.81268,-0.0689645,1.00149,0.703333,-0.00402964,0.000560106,0.0981264,1,5.29252e-05,-5.29525e-05,-5.27712e-05,0.010585,-0.0105905,-0.0105542,0.997941,-0.0474148,0.0430986,-0.00282373,0.578904,0.134001,-0.653207,35.25,1,12908,21007593
16,3,0.997946,-0.0473315,0.0430677,-0.0028893,-0.367829,0.000283898,9.82007,0.0870102,0.926822,0.731144,-0.00368136,-8.81748e-06,0.0982006,1,6.18397e-05,-1.5607e-05,-6.64369e-05,0.0123679,-0.0031214,-0.0132874,0.997946,-0.0473315,0.0430677,-0.0028893,0.580261,0.134052,-0.656747,35.25,1,12909,21007693
16,4,0.997946,-0.0473315,0.0430677,-0.0028893,-0.367829,0.000283898,9.82007,0.0870102,0.926822,0.731144,-0.00368136,-8.81748e-06,0.0982006,1,6.18397e-05,-1.5607e-05,-6.64369e-05,0.0123679,-0.0031214,-0.0132874,0.997946,-0.0473315,0.0430677,-0.0028893,0.580261,0.134052,-0.656747,35.25,1,12909,21007693
17,1,0.997946,-0.0473315,0.0430677,-0.0028893,-0.367829,0.000283898,9.82007,0.0870102,0.926822,0.731144,-0.00368136,-8.81748e-06,0.0982006,1,6.18397e-05,-1.5607e-05,-6.64369e-05,0.0123679,-0.0031214,-0.0132874,0.997946,-0.0473315,0.0430677,-0.0028893,0.580261,0.134052,-0.656747,35.25,1,12909,21007693
17,2,0.997951,-0.0472787,0.0430079,-0.00294449,-0.477729,-0.0813633,9.75434,-0.166161,0.854806,0.65487,-0.00478603,-0.00081867,0.0975429,1,2.87434e-05,-4.43169e-05,-5.96082e-05,0.00574868,-0.00886338,-0.0119216,0.997951,-0.0472787,0.0430079,-0.00294449,0.582083,0.133629,-0.661311,35.25,1,12910,21007793
17,3,0.997951,-0.0472787,0.0430079,-0.00294449,-0.477729,-0.0813633,9.75434,-0.166161,0.854806,0.65487,-0.00478603,-0.00081867,0.0975429,1,2.87434e-05,-4.43169e-05,-5.96082e-05,0.00574868,-0.00886338,-0.0119216,0.997951,-0.0472787,0.0430079,-0.00294449,0.582083,0.133629,-0.661311,35.25,1,12910,21007793
17,4,0.997951,-0.0472787,0.0430079,-0.00294449,-0.477729,-0.0813633,9.75434,-0.166161,0.854806,0.65487,-0.00478603,-0.00081867,0.0975429,1,2.87434e-05,-4.43169e-05,-5.96082e-05,0.00574868,-0.00886338,-0.0119216,0.997951,-0.0472787,0.0430079,-0.00294449,0.582083,0.133629,-0.661311,35.25,1,12910,21007793
18,1,0.997956,-0.047202,0.0429784,-0.00299909,-0.334186,-0.110177,9.84637,0.125701,0.815271,0.753278,-0.00334445,-0.00111131,0.0984635,1,5.03569e-05,-1.24984e-05,-5.64676e-05,0.0100714,-0.00249969,-0.0112935,0.997956,-0.047202,0.0429784,-0.00299909,0.58152,0.134175,-0.664326,35.25,1,12911,21007893
18,2,0.997956,-0.047202,0.0429784,-0.00299909,-0.334186,-0.110177,9.84637,0.125701,0.815271,0.753278,-0.00334445,-0.00111131,0.0984635,1,5.03569e-05,-1.24984e-05,-5.64676e-05,0.0100714,-0.00249969,-0.0112935,0.997956,-0.047202,0.0429784,-0.00299909,0.58152,0.134175,-0.664326,35.25,1,12911,21007893
18,3,0.997956,-0.047202,0.0429784,-0.00299909,-0.334186,-0.110177,9.84637,0.125701,0.815271,0.753278,-0.00334445,-0.00111131,0.0984635,1,5.03569e-05,-1.24984e-05,-5.64676e-05,0.0100714,-0.00249969,-0.0112935,0.997956,-0.047202,0.0429784,-0.00299909,0.58152,0.134175,-0.664326,35.25,1,12911,21007893
18,4,0.997962,-0.0471137,0.0429269,-0.00304694,-0.477794,-0.0806737,9.82014,-0.162361,0.82833,0.721544,-0.00478483,-0.000817961,0.098201,1,5.96532e-05,-3.46803e-05,-5.14407e-05,0.0119306,-0.00693607,-0.0102881,0.997962,-0.0471137,0.0429269,-0.00304694,0.580586,0.134644,-0.662796,35.25,1,12912,21007993
19,1,0.997962,-0.0471137,0.0429269,-0.00304694,-0.477794,-0.0806737,9.82014,-0.162361,0.82833,0.721544,-0.00478483,-0.000817961,0.098201,1,5.96532e-05,-3.46803e-05,-5.14407e-05,0.0119306,-0.00693607,-0.0102881,0.997962,-0.0471137,0.0429269,-0.00304694,0.580586,0.134644,-0.662796,35.25,1,12912,21007993
19,2,0.997962,-0.0471137,0.0429269,-0.00304694,-0.477794,-0.0806737,9.82014,-0.162361,0.82833,0.721544,-0.00478483,-0.000817961,0.098201,1,5.96532e-05,-3.46803e-05,-5.14407e-05,0.0119306,-0.00693607,-0.0102881,0.997962,-0.0471137,0.0429269,-0.00304694,0.580586,0.134644,-0.662796,35.25,1,12912,21007993
19,3,0.997966,-0.0470423,0.0429044,-0.00309626,-0.413082,0.0232322,9.81922,0.0463704,0.957192,0.730376,-0.00413158,0.000224806,0.0981922,1,4.04569e-05,-3.97993e-06,-5.18856e-05,0.00809138,-0.000795985,-0.0103771,0.997966,-0.0470423,0.0429044,-0.00309626,0.578748,0.134597,-0.659254,35.25,1,12913,21008093
19,4,0.997966,-0.0470423,0.0429044,-0.00309626,-0.413082,0.0232322,9.81922,0.0463704,0.957192,0.730376,-0.00413158,0.000224806,0.0981922,1,4.04569e-05,-3.97993e-06,-5.18856e-05,0.00809138,-0.000795985,-0.0103771,0.997966,-0.0470423,0.0429044,-0.00309626,0.578748,0.134597,-0.659254,35.25,1,12913,21008093
20,1,0.997966,-0.0470423,0.0429044,-0.00309626,-0.413082,0.0232322,9.81922,0.0463704,0.957192,0.730376,-0.00413158,0.000224806,0.0981922,1,4.04569e-05,-3.97993e-06,-5.18856e-05,0.00809138,-0.000795985,-0.0103771,0.997966,-0.0470423,0.0429044,-0.00309626,0.578748,0.134597,-0.659254,35.25,1,12913,21008093
20,2,0.997973,-0.0469483,0.0428477,-0.00315502,-0.469639,0.0272614,9.79015,-0.179354,0.966285,0.688,-0.00470355,0.000261283,0.0979012,1,6.08709e-05,-3.67284e-05,-6.24722e-05,0.0121742,-0.00734569,-0.0124944,0.997973,-0.0469483,0.0428477,-0.00315502,0.578328,0.13311,-0.65777,35.25,1,12914,21008193
20,3,0.997973,-0.0469483,0.0428477,-0.00315502,-0.469639,0.0272614,9.79015,-0.179354,0.966285,0.688,-0.00470355,0.000261283,0.0979012,1,6.08709e-05,-3.67284e-05,-6.24722e-05,0.0121742,-0.00734569,-0.0124944,0.997973,-0.0469483,0.0428477,-0.00315502,0.578328,0.13311,-0.65777,35.25,1,12914,21008193
20,4,0.997973,-0.0469483,0.0428477,-0.00315502,-0.469639,0.0272614,9.79015,-0.179354,0.966285,0.688,-0.00470355,0.000261283,0.0979012,1,6.08709e-05,-3.67284e-05,-6.24722e-05,0.0121742,-0.00734569,-0.0124944,0.997973,-0.0469483,0.0428477,-0.00315502,0.578328,0.13311,-0.65777,35.25,1,12914,21008193
21,1,0.997978,-0.0468612,0.0428231,-0.00320801,-0.359585,-0.0760967,9.86515,0.0911784,0.851288,0.789808,-0.00359674,-0.000770612,0.0986514,1,5.09362e-05,-4.07359e-06,-5.62442e-05,0.0101872,-0.000814718,-0.0112488,0.997978,-0.0468612,0.0428231,-0.00320801,0.578789,0.132158,-0.659308,35.25,1,12915,21008293
21,2,0.997978,-0.0468612,0.0428231,-0.00320801,-0.359585,-0.0760967,9.86515,0.0911784,0.851288,0.789808,-0.00359674,-0.000770612,0.0986514,1,5.09362e-05,-4.07359e-06,-5.62442e-05,0.0101872,-0.000814718,-0.0112488,0.997978,-0.0468612,0.0428231,-0.00320801,0.578789,0.132158,-0.659308,35.25,1,12915,21008293
21,3,0.997978,-0.0468612,0.0428231,-0.00320801,-0.359585,-0.0760967,9.86515,0.0911784,0.851288,0.789808,-0.00359674,-0.000770612,0.0986514,1,5.09362e-05,-4.07359e-06,-5.62442e-05,0.0101872,-0.000814718,-0.0112488,0.997978,-0.0468612,0.0428231,-0.00320801,0.578789,0.132158,-0.659308,35.25,1,12915,21008293
21,4,0.997984,-0.0467581,0.0427817,-0.00326753,-0.30327,-0.0815817,9.82098,0.0521778,0.873309,0.720712,-0.00303634,-0.000828147,0.0982095,1,6.47032e-05,-1.80431e-05,-6.24504e-05,0.0129406,-0.00360862,-0.0124901,0.997984,-0.0467581,0.0427817,-0.00326753,0.581108,0.132201,-0.662853,35.25,1,12916,21008393
22,1,0.997984,-0.0467581,0.0427817,-0.00326753,-0.30327,-0.0815817,9.82098,0.0521778,0.873309,0.720712,-0.00303634,-0.000828147,0.0982095,1,6.47032e-05,-1.80431e-05,-6.24504e-05,0.0129406,-0.00360862,-0.0124901,0.997984,-0.0467581,0.0427817,-0.00326753,0.581108,0.132201,-0.662853,35.25,1,12916,21008393
22,2,0.997984,-0.0467581,0.0427817,-0.00326753,-0.30327,-0.0815817,9.82098,0.0521778,0.873309,0.720712,-0.00303634,-0.000828147,0.0982095,1,6.47032e-05,-1.80431e-05,-6.24504e-05,0.0129406,-0.00360862,-0.0124901,0.997984,-0.0467581,0.0427817,-0.00326753,0.581108,0.132201,-0.662853,35.25,1,12916,21008393
22,3,0.99799,-0.0466439,0.0427612,-0.00331771,-0.547202,-0.0922688,9.70923,-0.143673,0.828335,0.629007,-0.00547144,-0.000936265,0.0970922,1,7.28442e-05,3.4832e-06,-5.19139e-05,0.0145688,0.00069664,-0.0103828,0.99799,-0.0466439,0.0427612,-0.00331771,0.582469,0.132731,-0.665878,35.25,1,12917,21008493
22,4,0.99799,-0.0466439,0.0427612,-0.00331771,-0.547202,-0.0922688,9.70923,-0.143673,0.828335,0.629007,-0.00547144,-0.000936265,0.0970922,1,7.28442e-05,3.4832e-06,-5.19139e-05,0.0145688,0.00069664,-0.0103828,0.99799,-0.0466439,0.0427612,-0.00331771,0.582469,0.132731,-0.665878,35.25,1,12917,21008493
23,1,0.99799,-0.0466439,0.0427612,-0.00331771,-0.547202,-0.0922688,9.70923,-0.143673,0.828335,0.629007,-0.00547144,-0.000936265,0.0970922,1,7.28442e-05,3.4832e-06,-5.19139e-05,0.0145688,0.00069664,-0.0103828,0.99799,-0.0466439,0.0427612,-0.00331771,0.582469,0.132731,-0.665878,35.25,1,12917,21008493
23,2,0.997998,-0.0465387,0.0427042,-0.00336692,-0.274223,-0.0787654,9.82759,0.108309,0.87573,0.711773,-0.00274879,-0.000799442,0.0982756,1,6.14884e-05,-3.29325e-05,-5.40538e-05,0.0122977,-0.0065865,-0.0108108,0.997998,-0.0465387,0.0427042,-0.00336692,0.581622,0.131691,-0.661857,35.25,1,12918,21008593
23,3,0.997998,-0.0465387,0.0427042,-0.00336692,-0.274223,-0.0787654,9.82759,0.108309,0.87573,0.711773,-0.00274879,-0.000799442,0.0982756,1,6.14884e-05,-3.29325e-05,-5.40538e-05,0.0122977,-0.0065865,-0.0108108,0.997998,-0.0465387,0.0427042,-0.00336692,0.581622,0.131691,-0.661857,35.25,1,12918,21008593
23,4,0.997998,-0.0465387,0.0427042,-0.00336692,-0.274223,-0.0787654,9.82759,0.108309,0.87573,0.711773,-0.00274879,-0.000799442,0.0982756,1,6.14884e-05,-3.29325e-05,-5.40538e-05,0.0122977,-0.0065865,-0.0108108,0.997998,-0.0465387,0.0427042,-0.00336692,0.581622,0.131691,-0.661857,35.25,1,12918,21008593
24,1,0.998005,-0.0464025,0.0426678,-0.00341233,-0.460353,-0.0182015,9.84971,-0.0902412,0.892999,0.77068,-0.00460558,-0.000199208,0.0984969,1,8.95429e-05,-1.02949e-05,-4.84418e-05,0.0179086,-0.00205898,-0.00968836,0.998005,-0.0464025,0.0426678,-0.00341233,0.578809,0.133106,-0.657772,35.25,1,12919,21008693
24,2,0.998005,-0.0464025,0.0426678,-0.00341233,-0.460353,-0.0182015,9.84971,-0.0902412,0.892999,0.77068,-0.00460558,-0.000199208,0.0984969,1,8.95429e-05,-1.02949e-05,-4.84418e-05,0.0179086,-0.00205898,-0.00968836,0.998005,-0.0464025,0.0426678,-0.00341233,0.578809,0.133106,-0.657772,35.25,1,12919,21008693
24,3,0.998005,-0.0464025,0.0426678,-0.00341233,-0.460353,-0.0182015,9.84971,-0.0902412,0.892999,0.77068,-0.00460558,-0.000199208,0.0984969,1,8.95429e-05,-1.02949e-05,-4.84418e-05,0.0179086,-0.00205898,-0.00968836,0.998005,-0.0464025,0.0426678,-0.00341233,0.578809,0.133106,-0.657772,35.25,1,12919,21008693
24,4,0.998012,-0.0462919,0.042618,-0.00346742,-0.393563,0.0741131,9.80834,0.00296301,0.997307,0.708303,-0.00393991,0.000729534,0.0980833,1,6.15192e-05,-2.227e-05,-5.97073e-05,0.0123038,-0.004454,-0.0119415,0.998012,-0.0462919,0.042618,-0.00346742,0.576416,0.133117,-0.657256,35.25,1,12920,21008793
25,1,0.998012,-0.0462919,0.042618,-0.00346742,-0.393563,0.0741131,9.80834,0.00296301,0.997307,0.708303,-0.00393991,0.000729534,0.0980833,1,6.15192e-05,-2.227e-05,-5.97073e-05,0.0123038,-0.004454,-0.0119415,0.998012,-0.0462919,0.042618,-0.00346742,0.576416,0.133117,-0.657256,35.25,1,12920,21008793
25,2,0.998012,-0.0462919,0.042618,-0.00346742,-0.393563,0.0741131,9.80834,0.00296301,0.997307,0.708303,-0.00393991,0.000729534,0.0980833,1,6.15192e-05,-2.227e-05,-5.97073e-05,0.0123038,-0.004454,-0.0119415,0.998012,-0.0462919,0.042618,-0.00346742,0.576416,0.133117,-0.657256,35.25,1,12920,21008793
25,3,0.99802,-0.0461799,0.0425636,-0.00351679,-0.311652,0.00759423,9.82892,0.0621237,0.903301,0.726766,-0.0031214,6.46181e-05,0.0982891,1,5.93329e-05,-2.48366e-05,-5.44131e-05,0.0118666,-0.00496733,-0.0108826,0.99802,-0.0461799,0.0425636,-0.00351679,0.577264,0.134157,-0.661277,35.25,1,12921,21008893
25,4,0.99802,-0.0461799,0.0425636,-0.00351679,-0.311652,0.00759423,9.82892,0.0621237,0.903301,0.726766,-0.0031214,6.46181e-05,0.0982891,1,5.93329e-05,-2.48366e-05,-5.44131e-05,0.0118666,-0.00496733,-0.0108826,0.99802,-0.0461799,0.0425636,-0.00351679,0.577264,0.134157,-0.661277,35.25,1,12921,21008893
26,1,0.99802,-0.0461799,0.0425636,-0.00351679,-0.311652,0.00759423,9.82892,0.0621237,0.903301,0.726766,-0.0031214,6.46181e-05,0.0982891,1,5.93329e-05,-2.48366e-05,-5.44131e-05,0.0118666,-0.00496733,-0.0108826,0.99802,-0.0461799,0.0425636,-0.00351679,0.577264,0.134157,-0.661277,35.25,1,12921,21008893
26,2,0.998026,-0.0460635,0.0425305,-0.00358534,-0.397975,-0.0337821,9.81353,-0.0485933,0.876475,0.715232,-0.00398008,-0.000349242,0.0981353,1,6.11616e-05,-1.40645e-06,-7.31984e-05,0.0122323,-0.000281291,-0.0146397,0.998026,-0.0460635,0.0425305,-0.00358534,0.581483,0.134202,-0.665841,35.25,1,12922,21008993
26,3,0.998026,-0.0460635,0.0425305,-0.00358534,-0.397975,-0.0337821,9.81353,-0.0485933,0.876475,0.715232,-0.00398008,-0.000349242,0.0981353,1,6.11616e-05,-1.40645e-06,-7.31984e-05,0.0122323,-0.000281291,-0.0146397,0.998026,-0.0460635,0.0425305,-0.00358534,0.581483,0.134202,-0.665841,35.25,1,12922,21008993
26,4,0.998026,-0.0460635,0.0425305,-0.00358534,-0.397975,-0.0337821,9.81353,-0.0485933,0.876475,0.715232,-0.00398008,-0.000349242,0.0981353,1,6.11616e-05,-1.40645e-06,-7.31984e-05,0.0122323,-0.000281291,-0.0146397,0.998026,-0.0460635,0.0425305,-0.00358534,0.581483,0.134202,-0.665841,35.25,1,12922,21008993
27,1,0.998033,-0.0459387,0.0424953,-0.00367496,-0.382721,-0.0117755,9.77937,0.0429626,0.888688,0.687665,-0.00382736,-0.000130246,0.0977937,1,6.7539e-05,-6.1976e-07,-9.40062e-05,0.0135078,-0.000123952,-0.0188012,0.998033,-0.0459387,0.0424953,-0.00367496,0.582868,0.133269,-0.668898,35.25,1,12923,21009093
27,2,0.998033,-0.0459387,0.0424953,-0.00367496,-0.382721,-0.0117755,9.77937,0.0429626,0.888688,0.687665,-0.00382736,-0.000130246,0.0977937,1,6.7539e-05,-6.1976e-07,-9.40062e-05,0.0135078,-0.000123952,-0.0188012,0.998033,-0.0459387,0.0424953,-0.00367496,0.582868,0.133269,-0.668898,35.25,1,12923,21009093
27,3,0.998033,-0.0459387,0.0424953,-0.00367496,-0.382721,-0.0117755,9.77937,0.0429626,0.888688,0.687665,-0.00382736,-0.000130246,0.0977937,1,6.7539e-05,-6.1976e-07,-9.40062e-05,0.0135078,-0.000123952,-0.0188012,0.998033,-0.0459387,0.0424953,-0.00367496,0.582868,0.133269,-0.668898,35.25,1,12923,21009093
27,4,0.998041,-0.045826,0.0424281,-0.00374965,-0.396627,-0.0676017,9.79391,-0.0467254,0.845862,0.707865,-0.00397274,-0.000685534,0.0979388,1,5.19089e-05,-3.2421e-05,-8.2038e-05,0.0103818,-0.0064842,-0.0164076,0.998041,-0.045826,0.0424281,-0.00374965,0.581021,0.132264,-0.666387,35.25,1,12924,21009193
28,1,0.998041,-0.045826,0.0424281,-0.00374965,-0.396627,-0.0676017,9.79391,-0.0467254,0.845862,0.707865,-0.00397274,-0.000685534,0.0979388,1,5.19089e-05,-3.2421e-05,-8.2038e-05,0.0103818,-0.0064842,-0.0164076,0.998041,-0.045826,0.0424281,-0.00374965,0.581021,0.132264,-0.666387,35.25,1,12924,21009193
28,2,0.998041,-0.045826,0.0424281,-0.00374965,-0.396627,-0.0676017,9.79391,-0.0467254,0.845862,0.707865,-0.00397274,-0.000685534,0.0979388,1,5.19089e-05,-3.2421e-05,-8.2038e-05,0.0103818,-0.0064842,-0.0164076,0.998041,-0.045826,0.0424281,-0.00374965,0.581021,0.132264,-0.666387,35.25,1,12924,21009193
28,3,0.998049,-0.0456841,0.0423952,-0.00381477,-0.378979,-0.0961424,9.82916,-0.0223771,0.817873,0.740631,-0.00378942,-0.000976094,0.0982914,1,7.73383e-05,2.57333e-06,-7.04142e-05,0.0154677,0.000514665,-0.0140828,0.998049,-0.0456841,0.0423952,-0.00381477,0.579726,0.132168,-0.660322,35.25,1,12925,21009293
28,4,0.998049,-0.0456841,0.0423952,-0.00381477,-0.378979,-0.0961424,9.82916,-0.0223771,0.817873,0.740631,-0.00378942,-0.000976094,0.0982914,1,7.73383e-05,2.57333e-06,-7.04142e-05,0.0154677,0.000514665,-0.0140828,0.998049,-0.0456841,0.0423952,-0.00381477,0.579726,0.132168,-0.660322,35.25,1,12925,21009293
29,1,0.998049,-0.0456841,0.0423952,-0.00381477,-0.378979,-0.0961424,9.82916,-0.0223771,0.817873,0.740631,-0.00378942,-0.000976094,0.0982914,1,7.73383e-05,2.57333e-06,-7.04142e-05,0.0154677,0.000514665,-0.0140828,0.998049,-0.0456841,0.0423952,-0.00381477,0.579726,0.132168,-0.660322,35.25,1,12925,21009293
29,2,0.998055,-0.0455609,0.042368,-0.00388039,-0.392038,-0.0487297,9.83643,0.0183018,0.855564,0.75461,-0.00391834,-0.000497716,0.0983643,1,5.57972e-05,1.06937e-05,-7.12034e-05,0.0111594,0.00213873,-0.0142407,0.998055,-0.0455609,0.042368,-0.00388039,0.579323,0.131151,-0.657818,35.25,1,12926,21009393
30,1,0.998055,-0.0455609,0.042368,-0.00388039,-0.392038,-0.0487297,9.83643,0.0183018,0.855564,0.75461,-0.00391834,-0.000497716,0.0983643,1,5.57972e-05,1.06937e-05,-7.12034e-05,0.0111594,0.00213873,-0.0142407,0.998055,-0.0455609,0.042368,-0.00388039,0.579323,0.131151,-0.657818,35.25,1,12926,21009393
30,2,0.998055,-0.0455609,0.042368,-0.00388039,-0.392038,-0.0487297,9.83643,0.0183018,0.855564,0.75461,-0.00391834,-0.000497716,0.0983643,1,5.57972e-05,1.06937e-05,-7.12034e-05,0.0111594,0.00213873,-0.0142407,0.998055,-0.0455609,0.042368,-0.00388039,0.579323,0.131151,-0.657818,35.25,1,12926,21009393
31,1,0.998063,-0.0454188,0.0423238,-0.0039574,-0.37787,-0.0114819,9.79189,-0.00642993,0.873692,0.707241,-0.0037796,-0.000128305,0.0979188,1,7.20767e-05,-4.52914e-06,-8.32567e-05,0.0144153,-0.000905828,-0.0166513,0.998063,-0.0454188,0.0423238,-0.0039574,0.580692,0.131193,-0.660853,35.25,1,12927,21009493
31,2,0.998063,-0.0454188,0.0423238,-0.0039574,-0.37787,-0.0114819,9.79189,-0.00642993,0.873692,0.707241,-0.0037796,-0.000128305,0.0979188,1,7.20767e-05,-4.52914e-06,-8.32567e-05,0.0144153,-0.000905828,-0.0166513,0.998063,-0.0454188,0.0423238,-0.0039574,0.580692,0.131193,-0.660853,35.25,1,12927,21009493
31,3,0.998071,-0.0452824,0.0422864,-0.00401824,-0.395229,-0.018162,9.79398,-0.0423327,0.884777,0.689371,-0.00395159,-0.000193289,0.0979398,1,6.22959e-05,3.67679e-06,-6.75192e-05,0.0124592,0.000735359,-0.0135038,0.998071,-0.0452824,0.0422864,-0.00401824,0.584003,0.131689,-0.662878,35.25,1,12928,21009593
31,4,0.998071,-0.0452824,0.0422864,-0.00401824,-0.395229,-0.018162,9.79398,-0.0423327,0.884777,0.689371,-0.00395159,-0.000193289,0.0979398,1,6.22959e-05,3.67679e-06,-6.75192e-05,0.0124592,0.000735359,-0.0135038,0.998071,-0.0452824,0.0422864,-0.00401824,0.584003,0.131689,-0.662878,35.25,1,12928,21009593
32,1,0.998071,-0.0452824,0.0422864,-0.00401824,-0.395229,-0.018162,9.79398,-0.0423327,0.884777,0.689371,-0.00395159,-0.000193289,0.0979398,1,6.22959e-05,3.67679e-06,-6.75192e-05,0.0124592,0.000735359,-0.0135038,0.998071,-0.0452824,0.0422864,-0.00401824,0.584003,0.131689,-0.662878,35.25,1,12928,21009593
32,2,0.99808,-0.0451465,0.0422157,-0.00409377,-0.357451,-0.00713563,9.82096,-0.00881145,0.888317,0.717778,-0.00357985,-8.23707e-05,0.0982094,1,5.91278e-05,-2.71186e-05,-8.37798e-05,0.0118256,-0.00542373,-0.016756,0.99808,-0.0451465,0.0422157,-0.00409377,0.583448,0.133193,-0.664862,35.25,1,12929,21009693
33,1,0.99808,-0.0451465,0.0422157,-0.00409377,-0.357451,-0.00713563,9.82096,-0.00881145,0.888317,0.717778,-0.00357985,-8.23707e-05,0.0982094,1,5.91278e-05,-2.71186e-05,-8.37798e-05,0.0118256,-0.00542373,-0.016756,0.99808,-0.0451465,0.0422157,-0.00409377,0.583448,0.133193,-0.664862,35.25,1,12929,21009693
33,2,0.99808,-0.0451465,0.0422157,-0.00409377,-0.357451,-0.00713563,9.82096,-0.00881145,0.888317,0.717778,-0.00357985,-8.23707e-05,0.0982094,1,5.91278e-05,-2.71186e-05,-8.37798e-05,0.0118256,-0.00542373,-0.016756,0.99808,-0.0451465,0.0422157,-0.00409377,0.583448,0.133193,-0.664862,35.25,1,12929,21009693
34,1,0.998087,-0.0450152,0.0421683,-0.00416357,-0.303374,0.0859845,9.81257,0.0777661,0.985114,0.710714,-0.00303402,0.000850374,0.0981258,1,5.06654e-05,-2.12704e-06,-7.77471e-05,0.0101331,-0.000425409,-0.0155494,0.998087,-0.0450152,0.0421683,-0.00416357,0.582442,0.136606,-0.664277,35.25,1,12930,21009793
34,2,0.998087,-0.0450152,0.0421683,-0.00416357,-0.303374,0.0859845,9.81257,0.0777661,0.985114,0.710714,-0.00303402,0.000850374,0.0981258,1,5.06654e-05,-2.12704e-06,-7.77471e-05,0.0101331,-0.000425409,-0.0155494,0.998087,-0.0450152,0.0421683,-0.00416357,0.582442,0.136606,-0.664277,35.25,1,12930,21009793
48,1,0.998087,-0.0450152,0.0421683,-0.00416357,-0.303374,0.0859845,9.81257,0.0777661,0.985114,0.710714,-0.00303402,0.000850374,0.0981258,1,5.06654e-05,-2.12704e-06,-7.77471e-05,0.0101331,-0.000425409,-0.0155494,0.998087,-0.0450152,0.0421683,-0.00416357,0.582442,0.136606,-0.664277,35.25,1,12930,21009793
48,2,0.998096,-0.04487,0.0421156,-0.0042399,-0.336398,-0.0430306,9.79914,0.0347775,0.831106,0.723653,-0.0033651,-0.000441687,0.0979913,1,6.0977e-05,-5.33653e-06,-8.46147e-05,0.0121954,-0.00106731,-0.0169229,0.998096,-0.04487,0.0421156,-0.0042399,0.581064,0.137052,-0.66123,35.25,1,12931,21009893
48,3,0.998096,-0.04487,0.0421156,-0.0042399,-0.336398,-0.0430306,9.79914,0.0347775,0.831106,0.723653,-0.0033651,-0.000441687,0.0979913,1,6.0977e-05,-5.33653e-06,-8.46147e-05,0.0121954,-0.00106731,-0.0169229,0.998096,-0.04487,0.0421156,-0.0042399,0.581064,0.137052,-0.66123,35.25,1,12931,21009893
48,4,0.998096,-0.04487,0.0421156,-0.0042399,-0.336398,-0.0430306,9.79914,0.0347775,0.831106,0.723653,-0.0033651,-0.000441687,0.0979913,1,6.0977e-05,-5.33653e-06,-8.46147e-05,0.0121954,-0.00106731,-0.0169229,0.998096,-0.04487,0.0421156,-0.0042399,0.581064,0.137052,-0.66123,35.25,1,12931,21009893
36,1,0.998104,-0.0447198,0.0420765,-0.00433197,-0.239483,0.0137301,9.81152,0.133195,0.879078,0.70554,-0.00239268,0.000125395,0.0981153,1,6.31036e-05,1.08318e-05,-9.96192e-05,0.0126207,0.00216636,-0.0199238,0.998104,-0.0447198,0.0420765,-0.00433197,0.583099,0.134064,-0.658781,35.25,1,12932,21009993
36,2,0.998104,-0.0447198,0.0420765,-0.00433197,-0.239483,0.0137301,9.81152,0.133195,0.879078,0.70554,-0.00239268,0.000125395,0.0981153,1,6.31036e-05,1.08318e-05,-9.96192e-05,0.0126207,0.00216636,-0.0199238,0.998104,-0.0447198,0.0420765,-0.00433197,0.583099,0.134064,-0.658781,35.25,1,12932,21009993
36,3,0.998104,-0.0447198,0.0420765,-0.00433197,-0.239483,0.0137301,9.81152,0.133195,0.879078,0.70554,-0.00239268,0.000125395,0.0981153,1,6.31036e-05,1.08318e-05,-9.96192e-05,0.0126207,0.00216636,-0.0199238,0.998104,-0.0447198,0.0420765,-0.00433197,0.583099,0.134064,-0.658781,35.25,1,12932,21009993
36,4,0.998111,-0.0445917,0.0420354,-0.00441662,-0.254792,0.0132987,9.79636,0.108496,0.898914,0.690037,-0.0025457,0.000126202,0.0979636,1,3.70684e-05,1.12048e-05,-9.3639e-05,0.00741369,0.00224097,-0.0187278,0.998111,-0.0445917,0.0420354,-0.00441662,0.584472,0.133139,-0.662343,35.25,1,12933,21010093
37,1,0.998111,-0.0445917,0.0420354,-0.00441662,-0.254792,0.0132987,9.79636,0.108496,0.898914,0.690037,-0.0025457,0.000126202,0.0979636,1,3.70684e-05,1.12048e-05,-9.3639e-05,0.00741369,0.00224097,-0.0187278,0.998111,-0.0445917,0.0420354,-0.00441662,0.584472,0.133139,-0.662343,35.25,1,12933,21010093
37,2,0.998111,-0.0445917,0.0420354,-0.00441662,-0.254792,0.0132987,9.79636,0.108496,0.898914,0.690037,-0.0025457,0.000126202,0.0979636,1,3.70684e-05,1.12048e-05,-9.3639e-05,0.00741369,0.00224097,-0.0187278,0.998111,-0.0445917,0.0420354,-0.00441662,0.584472,0.133139,-0.662343,35.25,1,12933,21010093
37,3,0.998118,-0.0444632,0.0419896,-0.00451821,-0.29548,-0.0419498,9.83414,0.0268593,0.866017,0.719838,-0.00295314,-0.000425629,0.0983415,1,3.45178e-05,8.92644e-06,-0.000111385,0.00690357,0.00178529,-0.0222769,0.998118,-0.0444632,0.0419896,-0.00451821,0.586779,0.133192,-0.666393,35.25,1,12934,21010193
37,4,0.998118,-0.0444632,0.0419896,-0.00451821,-0.29548,-0.0419498,9.83414,0.0268593,0.866017,0.719838,-0.00295314,-0.000425629,0.0983415,1,3.45178e-05,8.92644e-06,-0.000111385,0.00690357,0.00178529,-0.0222769,0.998118,-0.0444632,0.0419896,-0.00451821,0.586779,0.133192,-0.666393,35.25,1,12934,21010193
38,1,0.998118,-0.0444632,0.0419896,-0.00451821,-0.29548,-0.0419498,9.83414,0.0268593,0.866017,0.719838,-0.00295314,-0.000425629,0.0983415,1,3.45178e-05,8.92644e-06,-0.000111385,0.00690357,0.00178529,-0.0222769,0.998118,-0.0444632,0.0419896,-0.00451821,0.586779,0.133192,-0.666393,35.25,1,12934,21010193
38,2,0.998127,-0.0443082,0.0419366,-0.0046013,-0.240174,-0.1574,9.82601,0.134202,0.698765,0.739654,-0.00240132,-0.00158472,0.0982599,1,5.67994e-05,3.6285e-06,-9.22438e-05,0.0113599,0.0007257,-0.0184488,0.998127,-0.0443082,0.0419366,-0.0046013,0.587157,0.134226,-0.669907,35.25,1,12935,21010293
38,3,0.998127,-0.0443082,0.0419366,-0.0046013,-0.240174,-0.1574,9.82601,0.134202,0.698765,0.739654,-0.00240132,-0.00158472,0.0982599,1,5.67994e-05,3.6285e-06,-9.22438e-05,0.0113599,0.0007257,-0.0184488,0.998127,-0.0443082,0.0419366,-0.0046013,0.587157,0.134226,-0.669907,35.25,1,12935,21010293
38,4,0.998127,-0.0443082,0.0419366,-0.0046013,-0.240174,-0.1574,9.82601,0.134202,0.698765,0.739654,-0.00240132,-0.00158472,0.0982599,1,5.67994e-05,3.6285e-06,-9.22438e-05,0.0113599,0.0007257,-0.0184488,0.998127,-0.0443082,0.0419366,-0.0046013,0.587157,0.134226,-0.669907,35.25,1,12935,21010293
39,1,0.998137,-0.0441487,0.0418502,-0.00469349,-0.428715,-0.0443073,9.72684,-0.11186,0.808187,0.639791,-0.00429245,-0.00045366,0.0972681,1,5.89324e-05,-2.67699e-05,-0.00010232,0.0117865,-0.00535398,-0.0204639,0.998137,-0.0441487,0.0418502,-0.00469349,0.585735,0.135187,-0.668364,35.25,1,12936,21010393
39,2,0.998137,-0.0441487,0.0418502,-0.00469349,-0.428715,-0.0443073,9.72684,-0.11186,0.808187,0.639791,-0.00429245,-0.00045366,0.0972681,1,5.89324e-05,-2.67699e-05,-0.00010232,0.0117865,-0.00535398,-0.0204639,0.998137,-0.0441487,0.0418502,-0.00469349,0.585735,0.135187,-0.668364,35.25,1,12936,21010393
39,3,0.998137,-0.0441487,0.0418502,-0.00469349,-0.428715,-0.0443073,9.72684,-0.11186,0.808187,0.639791,-0.00429245,-0.00045366,0.0972681,1,5.89324e-05,-2.67699e-05,-0.00010232,0.0117865,-0.00535398,-0.0204639,0.998137,-0.0441487,0.0418502,-0.00469349,0.585735,0.135187,-0.668364,35.25,1,12936,21010393
39,4,0.998146,-0.0439936,0.0417842,-0.00477319,-0.178593,-0.0302706,9.82125,0.248634,0.82814,0.744664,-0.00178694,-0.000312265,0.0982125,1,5.02949e-05,-4.86192e-06,-8.97107e-05,0.010059,-0.000972384,-0.0179421,0.998146,-0.0439936,0.0417842,-0.00477319,0.583433,0.137059,-0.662756,35.25,1,12937,21010493
40,1,0.998146,-0.0439936,0.0417842,-0.00477319,-0.178593,-0.0302706,9.82125,0.248634,0.82814,0.744664,-0.00178694,-0.000312265,0.0982125,1,5.02949e-05,-4.86192e-06,-8.97107e-05,0.010059,-0.000972384,-0.0179421,0.998146,-0.0439936,0.0417842,-0.00477319,0.583433,0.137059,-0.662756,35.25,1,12937,21010493
40,2,0.998146,-0.0439936,0.0417842,-0.00477319,-0.178593,-0.0302706,9.82125,0.248634,0.82814,0.744664,-0.00178694,-0.000312265,0.0982125,1,5.02949e-05,-4.86192e-06,-8.97107e-05,0.010059,-0.000972384,-0.0179421,0.998146,-0.0439936,0.0417842,-0.00477319,0.583433,0.137059,-0.662756,35.25,1,12937,21010493
40,3,0.998155,-0.0438413,0.0417257,-0.0048629,-0.0954427,-0.0882468,9.87955,0.33501,0.792113,0.792105,-0.000953375,-0.000891051,0.0987954,1,4.43946e-05,6.20958e-06,-9.89707e-05,0.00887893,0.00124192,-0.0197941,0.998155,-0.0438413,0.0417257,-0.0048629,0.583,0.135581,-0.661777,35.25,1,12938,21010593
40,4,0.998155,-0.0438413,0.0417257,-0.0048629,-0.0954427,-0.0882468,9.87955,0.33501,0.792113,0.792105,-0.000953375,-0.000891051,0.0987954,1,4.43946e-05,6.20958e-06,-9.89707e-05,0.00887893,0.00124192,-0.0197941,0.998155,-0.0438413,0.0417257,-0.0048629,0.583,0.135581,-0.661777,35.25,1,12938,21010593
41,1,0.998155,-0.0438413,0.0417257,-0.0048629,-0.0954427,-0.0882468,9.87955,0.33501,0.792113,0.792105,-0.000953375,-0.000891051,0.0987954,1,4.43946e-05,6.20958e-06,-9.89707e-05,0.00887893,0.00124192,-0.0197941,0.998155,-0.0438413,0.0417257,-0.0048629,0.583,0.135581,-0.661777,35.25,1,12938,21010593
41,2,0.998164,-0.0436514,0.0416896,-0.00496032,-0.166726,-0.0820428,9.83869,0.297215,0.772257,0.765311,-0.00166123,-0.000835586,0.0983869,1,7.88034e-05,3.15021e-05,-0.000104508,0.0157607,0.00630042,-0.0209016,0.998164,-0.0436514,0.0416896,-0.00496032,0.585364,0.132219,-0.665903,35.25,1,12939,21010693
41,3,0.998164,-0.0436514,0.0416896,-0.00496032,-0.166726,-0.0820428,9.83869,0.297215,0.772257,0.765311,-0.00166123,-0.000835586,0.0983869,1,7.88034e-05,3.15021e-05,-0.000104508,0.0157607,0.00630042,-0.0209016,0.998164,-0.0436514,0.0416896,-0.00496032,0.585364,0.132219,-0.665903,35.25,1,12939,21010693
41,4,0.998164,-0.0436514,0.0416896,-0.00496032,-0.166726,-0.0820428,9.83869,0.297215,0.772257,0.765311,-0.00166123,-0.000835586,0.0983869,1,7.88034e-05,3.15021e-05,-0.000104508,0.0157607,0.00630042,-0.0209016,0.998164,-0.0436514,0.0416896,-0.00496032,0.585364,0.132219,-0.665903,35.25,1,12939,21010693
42,1,0.998175,-0.0434699,0.0416043,-0.00505456,-0.168457,0.0725893,9.80612,0.182268,0.953121,0.690441,-0.00168733,0.000713073,0.0980613,1,6.71523e-05,-1.48783e-05,-0.000104031,0.0134305,-0.00297566,-0.0208063,0.998175,-0.0434699,0.0416043,-0.00505456,0.589163,0.130778,-0.668983,35.25,1,12940,21010793
42,2,0.998175,-0.0434699,0.0416043,-0.00505456,-0.168457,0.0725893,9.80612,0.182268,0.953121,0.690441,-0.00168733,0.000713073,0.0980613,1,6.71523e-05,-1.48783e-05,-0.000104031,0.0134305,-0.00297566,-0.0208063,0.998175,-0.0434699,0.0416043,-0.00505456,0.589163,0.130778,-0.668983,35.25,1,12940,21010793
42,3,0.998175,-0.0434699,0.0416043,-0.00505456,-0.168457,0.0725893,9.80612,0.182268,0.953121,0.690441,-0.00168733,0.000713073,0.0980613,1,6.71523e-05,-1.48783e-05,-0.000104031,0.0134305,-0.00297566,-0.0208063,0.998175,-0.0434699,0.0416043,-0.00505456,0.589163,0.130778,-0.668983,35.25,1,12940,21010793
42,4,0.998184,-0.0433154,0.0415447,-0.00514799,-0.0400913,0.0589088,9.85671,0.254457,0.971574,0.730858,-0.000398063,0.000582114,0.0985671,1,3.5791e-05,1.38495e-05,-0.000102885,0.0071582,0.0027699,-0.020577,0.998184,-0.0433154,0.0415447,-0.00514799,0.590553,0.131768,-0.670482,35.25,1,12941,21010893
43,1,0.998184,-0.0433154,0.0415447,-0.00514799,-0.0400913,0.0589088,9.85671,0.254457,0.971574,0.730858,-0.000398063,0.000582114,0.0985671,1,3.5791e-05,1.38495e-05,-0.000102885,0.0071582,0.0027699,-0.020577,0.998184,-0.0433154,0.0415447,-0.00514799,0.590553,0.131768,-0.670482,35.25,1,12941,21010893
43,2,0.998184,-0.0433154,0.0415447,-0.00514799,-0.0400913,0.0589088,9.85671,0.254457,0.971574,0.730858,-0.000398063,0.000582114,0.0985671,1,3.5791e-05,1.38495e-05,-0.000102885,0.0071582,0.0027699,-0.020577,0.998184,-0.0433154,0.0415447,-0.00514799,0.590553,0.131768,-0.670482,35.25,1,12941,21010893
43,3,0.998194,-0.0431496,0.0414768,-0.00525156,-0.052588,-0.0422685,9.86645,0.162232,0.879215,0.741531,-0.000524136,-0.000431163,0.0986644,1,4.35656e-05,9.3326e-06,-0.000113464,0.00871311,0.00186652,-0.0226927,0.998194,-0.0431496,0.0414768,-0.00525156,0.587239,0.132239,-0.667931,35.25,1,12942,21010993
43,4,0.998194,-0.0431496,0.0414768,-0.00525156,-0.052588,-0.0422685,9.86645,0.162232,0.879215,0.741531,-0.000524136,-0.000431163,0.0986644,1,4.35656e-05,9.3326e-06,-0.000113464,0.00871311,0.00186652,-0.0226927,0.998194,-0.0431496,0.0414768,-0.00525156,0.587239,0.132239,-0.667931,35.25,1,12942,21010993
44,1,0.998194,-0.0431496,0.0414768,-0.00525156,-0.052588,-0.0422685,9.86645,0.162232,0.879215,0.741531,-0.000524136,-0.000431163,0.0986644,1,4.35656e-05,9.3326e-06,-0.000113464,0.00871311,0.00186652,-0.0226927,0.998194,-0.0431496,0.0414768,-0.00525156,0.587239,0.132239,-0.667931,35.25,1,12942,21010993
44,2,0.998204,-0.0429669,0.0413962,-0.00537449,-0.272947,-0.0687355,9.80056,-0.119618,0.828707,0.689563,-0.00272941,-0.000697932,0.0980055,1,5.76548e-05,1.25204e-06,-0.000132625,0.011531,0.000250408,-0.0265249,0.998204,-0.0429669,0.0413962,-0.00537449,0.583889,0.135627,-0.66481,35.25,1,12943,21011093
44,3,0.998204,-0.0429669,0.0413962,-0.00537449,-0.272947,-0.0687355,9.80056,-0.119618,0.828707,0.689563,-0.00272941,-0.000697932,0.0980055,1,5.76548e-05,1.25204e-06,-0.000132625,0.011531,0.000250408,-0.0265249,0.998204,-0.0429669,0.0413962,-0.00537449,0.583889,0.135627,-0.66481,35.25,1,12943,21011093
44,4,0.998204,-0.0429669,0.0413962,-0.00537449,-0.272947,-0.0687355,9.80056,-0.119618,0.828707,0.689563,-0.00272941,-0.000697932,0.0980055,1,5.76548e-05,1.25204e-06,-0.000132625,0.011531,0.000250408,-0.0265249,0.998204,-0.0429669,0.0413962,-0.00537449,0.583889,0.135627,-0.66481,35.25,1,12943,21011093
44,5,0.998215,-0.0427891,0.0413123,-0.00548645,-0.0731224,-0.00930835,9.8384,0.0335683,0.88319,0.705847,-0.000731178,-0.000102529,0.098384,1,4.89083e-05,3.56336e-07,-0.00012174,0.00978166,7.12673e-05,-0.024348,0.998215,-0.0427891,0.0413123,-0.00548645,0.584378,0.135136,-0.664823,35.25,1,12944,21011193
44,6,0.998215,-0.0427891,0.0413123,-0.00548645,-0.0731224,-0.00930835,9.8384,0.0335683,0.88319,0.705847,-0.000731178,-0.000102529,0.098384,1,4.89083e-05,3.56336e-07,-0.00012174,0.00978166,7.12673e-05,-0.024348,0.998215,-0.0427891,0.0413123,-0.00548645,0.584378,0.135136,-0.664823,35.25,1,12944,21011193
45,1,0.998215,-0.0427891,0.0413123,-0.00548645,-0.0731224,-0.00930835,9.8384,0.0335683,0.88319,0.705847,-0.000731178,-0.000102529,0.098384,1,4.89083e-05,3.56336e-07,-0.00012174,0.00978166,7.12673e-05,-0.024348,0.998215,-0.0427891,0.0413123,-0.00548645,0.584378,0.135136,-0.664823,35.25,1,12944,21011193
45,2,0.998225,-0.0425901,0.0412488,-0.00558492,0.00804386,-0.0937972,9.86866,0.205773,0.777641,0.742751,8.47072e-05,-0.000951027,0.0986864,1,6.60539e-05,2.26327e-05,-0.000105096,0.0132108,0.00452653,-0.0210191,0.998225,-0.0425901,0.0412488,-0.00558492,0.585742,0.133254,-0.669417,35.25,1,12945,21011293
45,3,0.998225,-0.0425901,0.0412488,-0.00558492,0.00804386,-0.0937972,9.86866,0.205773,0.777641,0.742751,8.47072e-05,-0.000951027,0.0986864,1,6.60539e-05,2.26327e-05,-0.000105096,0.0132108,0.00452653,-0.0210191,0.998225,-0.0425901,0.0412488,-0.00558492,0.585742,0.133254,-0.669417,35.25,1,12945,21011293
45,4,0.998225,-0.0425901,0.0412488,-0.00558492,0.00804386,-0.0937972,9.86866,0.205773,0.777641,0.742751,8.47072e-05,-0.000951027,0.0986864,1,6.60539e-05,2.26327e-05,-0.000105096,0.0132108,0.00452653,-0.0210191,0.998225,-0.0425901,0.0412488,-0.00558492,0.585742,0.133254,-0.669417,35.25,1,12945,21011293
45,5,0.998235,-0.0424003,0.0411944,-0.00570019,-0.156301,-0.118398,9.84208,0.108095,0.790917,0.760277,-0.00155605,-0.00119419,0.0984208,1,5.38329e-05,3.68434e-05,-0.000122817,0.0107666,0.00736867,-0.0245633,0.998235,-0.0424003,0.0411944,-0.00570019,0.590044,0.132757,-0.670963,35.25,1,12946,21011393
45,6,0.998235,-0.0424003,0.0411944,-0.00570019,-0.156301,-0.118398,9.84208,0.108095,0.790917,0.760277,-0.00155605,-0.00119419,0.0984208,1,5.38329e-05,3.68434e-05,-0.000122817,0.0107666,0.00736867,-0.0245633,0.998235,-0.0424003,0.0411944,-0.00570019,0.590044,0.132757,-0.670963,35.25,1,12946,21011393
59,1,0.998235,-0.0424003,0.0411944,-0.00570019,-0.156301,-0.118398,9.84208,0.108095,0.790917,0.760277,-0.00155605,-0.00119419,0.0984208,1,5.38329e-05,3.68434e-05,-0.000122817,0.0107666,0.00736867,-0.0245633,0.998235,-0.0424003,0.0411944,-0.00570019,0.590044,0.132757,-0.670963,35.25,1,12946,21011393
59,2,0.998246,-0.0421848,0.0411382,-0.00581739,-0.134247,-0.0405045,9.77204,0.194757,0.870565,0.683103,-0.00133509,-0.000419647,0.0977204,1,7.64027e-05,3.82935e-05,-0.000123383,0.0152805,0.0076587,-0.0246767,0.998246,-0.0421848,0.0411382,-0.00581739,0.590993,0.132758,-0.671472,35.25,1,12947,21011493
59,3,0.998246,-0.0421848,0.0411382,-0.00581739,-0.134247,-0.0405045,9.77204,0.194757,0.870565,0.683103,-0.00133509,-0.000419647,0.0977204,1,7.64027e-05,3.82935e-05,-0.000123383,0.0152805,0.0076587,-0.0246767,0.998246,-0.0421848,0.0411382,-0.00581739,0.590993,0.132758,-0.671472,35.25,1,12947,21011493
59,4,0.998246,-0.0421848,0.0411382,-0.00581739,-0.134247,-0.0405045,9.77204,0.194757,0.870565,0.683103,-0.00133509,-0.000419647,0.0977204,1,7.64027e-05,3.82935e-05,-0.000123383,0.0152805,0.0076587,-0.0246767,0.998246,-0.0421848,0.0411382,-0.00581739,0.590993,0.132758,-0.671472,35.25,1,12947,21011493
47,1,0.998256,-0.041987,0.0410669,-0.00594659,0.00134316,-0.0823129,9.91392,0.463479,0.890727,0.79589,1.85906e-05,-0.000834213,0.0991391,1,5.58765e-05,2.71582e-05,-0.000136307,0.0111753,0.00543163,-0.0272613,0.998256,-0.041987,0.0410669,-0.00594659,0.590558,0.133692,-0.668924,35.25,1,12948,21011593
47,2,0.998256,-0.041987,0.0410669,-0.00594659,0.00134316,-0.0823129,9.91392,0.463479,0.890727,0.79589,1.85906e-05,-0.000834213,0.0991391,1,5.58765e-05,2.71582e-05,-0.000136307,0.0111753,0.00543163,-0.0272613,0.998256,-0.041987,0.0410669,-0.00594659,0.590558,0.133692,-0.668924,35.25,1,12948,21011593
47,3,0.998256,-0.041987,0.0410669,-0.00594659,0.00134316,-0.0823129,9.91392,0.463479,0.890727,0.79589,1.85906e-05,-0.000834213,0.0991391,1,5.58765e-05,2.71582e-05,-0.000136307,0.0111753,0.00543163,-0.0272613,0.998256,-0.041987,0.0410669,-0.00594659,0.590558,0.133692,-0.668924,35.25,1,12948,21011593
47,4,0.998268,-0.0417613,0.0409969,-0.00607524,-0.201896,-0.0883439,9.90844,0.268981,0.874806,0.801946,-0.0020128,-0.000898826,0.0990844,1,8.03848e-05,3.23105e-05,-0.0001347,0.016077,0.0064621,-0.0269399,0.998268,-0.0417613,0.0409969,-0.00607524,0.590127,0.135106,-0.665861,35.25,1,12949,21011693
48,1,0.998268,-0.0417613,0.0409969,-0.00607524,-0.201896,-0.0883439,9.90844,0.268981,0.874806,0.801946,-0.0020128,-0.000898826,0.0990844,1,8.03848e-05,3.23105e-05,-0.0001347,0.016077,0.0064621,-0.0269399,0.998268,-0.0417613,0.0409969,-0.00607524,0.590127,0.135106,-0.665861,35.25,1,12949,21011693
48,2,0.998268,-0.0417613,0.0409969,-0.00607524,-0.201896,-0.0883439,9.90844,0.268981,0.874806,0.801946,-0.0020128,-0.000898826,0.0990844,1,8.03848e-05,3.23105e-05,-0.0001347,0.016077,0.0064621,-0.0269399,0.998268,-0.0417613,0.0409969,-0.00607524,0.590127,0.135106,-0.665861,35.25,1,12949,21011693
49,1,0.998282,-0.0415198,0.0408698,-0.00621224,-0.0917014,0.0813129,9.79993,0.198493,0.926145,0.651883,-0.000921041,0.000795012,0.0979994,1,9.37956e-05,-2.17354e-05,-0.000144866,0.0187591,-0.00434708,-0.0289732,0.998282,-0.0415198,0.0408698,-0.00621224,0.590155,0.135566,-0.664335,35.25,1,12950,21011793
49,2,0.998282,-0.0415198,0.0408698,-0.00621224,-0.0917014,0.0813129,9.79993,0.198493,0.926145,0.651883,-0.000921041,0.000795012,0.0979994,1,9.37956e-05,-2.17354e-05,-0.000144866,0.0187591,-0.00434708,-0.0289732,0.998282,-0.0415198,0.0408698,-0.00621224,0.590155,0.135566,-0.664335,35.25,1,12950,21011793
50,1,0.998282,-0.0415198,0.0408698,-0.00621224,-0.0917014,0.0813129,9.79993,0.198493,0.926145,0.651883,-0.000921041,0.000795012,0.0979994,1,9.37956e-05,-2.17354e-05,-0.000144866,0.0187591,-0.00434708,-0.0289732,0.998282,-0.0415198,0.0408698,-0.00621224,0.590155,0.135566,-0.664335,35.25,1,12950,21011793
50,2,0.998295,-0.0412977,0.0407609,-0.00633953,-0.237914,0.406269,9.71176,0.0824139,1.04679,0.660838,-0.00237816,0.00404981,0.0971182,1,6.95992e-05,-6.14189e-07,-0.000135267,0.0139198,-0.000122838,-0.0270534,0.998295,-0.0412977,0.0407609,-0.00633953,0.590603,0.133178,-0.667421,35.25,1,12951,21011893
51,1,0.998295,-0.0412977,0.0407609,-0.00633953,-0.237914,0.406269,9.71176,0.0824139,1.04679,0.660838,-0.00237816,0.00404981,0.0971182,1,6.95992e-05,-6.14189e-07,-0.000135267,0.0139198,-0.000122838,-0.0270534,0.998295,-0.0412977,0.0407609,-0.00633953,0.590603,0.133178,-0.667421,35.25,1,12951,21011893
51,2,0.998295,-0.0412977,0.0407609,-0.00633953,-0.237914,0.406269,9.71176,0.0824139,1.04679,0.660838,-0.00237816,0.00404981,0.0971182,1,6.95992e-05,-6.14189e-07,-0.000135267,0.0139198,-0.000122838,-0.0270534,0.998295,-0.0412977,0.0407609,-0.00633953,0.590603,0.133178,-0.667421,35.25,1,12951,21011893
51,3,0.998306,-0.0411155,0.0406439,-0.00646939,-0.0184533,-0.0930937,9.82483,0.414228,0.48361,0.792188,-0.000185989,-0.000935588,0.0982482,1,2.3934e-05,-6.0732e-06,-0.000140655,0.00478679,-0.00121464,-0.0281309,0.998306,-0.0411155,0.0406439,-0.00646939,0.592909,0.131784,-0.672513,35.25,1,12952,21011993
51,4,0.998306,-0.0411155,0.0406439,-0.00646939,-0.0184533,-0.0930937,9.82483,0.414228,0.48361,0.792188,-0.000185989,-0.000935588,0.0982482,1,2.3934e-05,-6.0732e-06,-0.000140655,0.00478679,-0.00121464,-0.0281309,0.998306,-0.0411155,0.0406439,-0.00646939,0.592909,0.131784,-0.672513,35.25,1,12952,21011993
65,1,0.998306,-0.0411155,0.0406439,-0.00646939,-0.0184533,-0.0930937,9.82483,0.414228,0.48361,0.792188,-0.000185989,-0.000935588,0.0982482,1,2.3934e-05,-6.0732e-06,-0.000140655,0.00478679,-0.00121464,-0.0281309,0.998306,-0.0411155,0.0406439,-0.00646939,0.592909,0.131784,-0.672513,35.25,1,12952,21011993
65,2,0.998317,-0.0409433,0.0405306,-0.00661199,0.327976,-0.284227,10.0783,0.859115,0.513355,0.889319,0.00327931,-0.00284557,0.100783,1,1.14021e-05,2.05728e-06,-0.000153093,0.00228041,0.000411457,-0.0306186,0.998317,-0.0409433,0.0405306,-0.00661199,0.595225,0.134239,-0.674489,35.25,1,12953,21012093
65,3,0.998317,-0.0409433,0.0405306,-0.00661199,0.327976,-0.284227,10.0783,0.859115,0.513355,0.889319,0.00327931,-0.00284557,0.100783,1,1.14021e-05,2.05728e-06,-0.000153093,0.00228041,0.000411457,-0.0306186,0.998317,-0.0409433,0.0405306,-0.00661199,0.595225,0.134239,-0.674489,35.25,1,12953,21012093
65,4,0.998317,-0.0409433,0.0405306,-0.00661199,0.327976,-0.284227,10.0783,0.859115,0.513355,0.889319,0.00327931,-0.00284557,0.100783,1,1.14021e-05,2.05728e-06,-0.000153093,0.00228041,0.000411457,-0.0306186,0.998317,-0.0409433,0.0405306,-0.00661199,0.595225,0.134239,-0.674489,35.25,1,12953,21012093
53,1,0.998333,-0.0406331,0.0404143,-0.00677912,-0.0930265,-0.0688159,9.85466,0.18149,0.628115,0.726255,-0.000929286,-0.000717073,0.0985464,1,0.000148317,6.18673e-06,-0.000171135,0.0296633,0.00123735,-0.034227,0.998333,-0.0406331,0.0404143,-0.00677912,0.593794,0.134242,-0.673978,35.25,1,12954,21012193
53,2,0.998333,-0.0406331,0.0404143,-0.00677912,-0.0930265,-0.0688159,9.85466,0.18149,0.628115,0.726255,-0.000929286,-0.000717073,0.0985464,1,0.000148317,6.18673e-06,-0.000171135,0.0296633,0.00123735,-0.034227,0.998333,-0.0406331,0.0404143,-0.00677912,0.593794,0.134242,-0.673978,35.25,1,12954,21012193
53,3,0.998333,-0.0406331,0.0404143,-0.00677912,-0.0930265,-0.0688159,9.85466,0.18149,0.628115,0.726255,-0.000929286,-0.000717073,0.0985464,1,0.000148317,6.18673e-06,-0.000171135,0.0296633,0.00123735,-0.034227,0.998333,-0.0406331,0.0404143,-0.00677912,0.593794,0.134242,-0.673978,35.25,1,12954,21012193
53,4,0.998345,-0.0404314,0.0403036,-0.00692866,-0.109293,0.358558,9.57689,0.0295443,0.923268,0.51017,-0.00108914,0.00357905,0.0957692,1,3.58769e-05,1.38867e-05,-0.000157434,0.00717539,0.00277734,-0.0314868,0.998345,-0.0404314,0.0403036,-0.00692866,0.590936,0.134727,-0.672439,35.25,1,12955,21012293
54,1,0.998345,-0.0404314,0.0403036,-0.00692866,-0.109293,0.358558,9.57689,0.0295443,0.923268,0.51017,-0.00108914,0.00357905,0.0957692,1,3.58769e-05,1.38867e-05,-0.000157434,0.00717539,0.00277734,-0.0314868,0.998345,-0.0404314,0.0403036,-0.00692866,0.590936,0.134727,-0.672439,35.25,1,12955,21012293
54,2,0.998345,-0.0404314,0.0403036,-0.00692866,-0.109293,0.358558,9.57689,0.0295443,0.923268,0.51017,-0.00108914,0.00357905,0.0957692,1,3.58769e-05,1.38867e-05,-0.000157434,0.00717539,0.00277734,-0.0314868,0.998345,-0.0404314,0.0403036,-0.00692866,0.590936,0.134727,-0.672439,35.25,1,12955,21012293
54,3,0.998354,-0.040281,0.0401956,-0.00708541,-0.207614,-0.0348175,9.86693,0.188374,0.585654,0.819218,-0.00207246,-0.000343409,0.0986694,1,-2.06278e-05,1.92234e-05,-0.000167561,-0.00412555,0.00384468,-0.0335121,0.998354,-0.040281,0.0401956,-0.00708541,0.591988,0.132244,-0.670478,35.25,1,12956,21012393
54,4,0.998354,-0.040281,0.0401956,-0.00708541,-0.207614,-0.0348175,9.86693,0.188374,0.585654,0.819218,-0.00207246,-0.000343409,0.0986694,1,-2.06278e-05,1.92234e-05,-0.000167561,-0.00412555,0.00384468,-0.0335121,0.998354,-0.040281,0.0401956,-0.00708541,0.591988,0.132244,-0.670478,35.25,1,12956,21012393
55,1,0.998354,-0.040281,0.0401956,-0.00708541,-0.207614,-0.0348175,9.86693,0.188374,0.585654,0.819218,-0.00207246,-0.000343409,0.0986694,1,-2.06278e-05,1.92234e-05,-0.000167561,-0.00412555,0.00384468,-0.0335121,0.998354,-0.040281,0.0401956,-0.00708541,0.591988,0.132244,-0.670478,35.25,1,12956,21012393
55,2,0.998367,-0.0400786,0.0400502,-0.00725755,0.133421,-0.0618888,10.0082,0.310829,0.701242,0.901664,0.00133113,-0.000625163,0.100082,1,2.89245e-05,-1.43006e-05,-0.000182003,0.00578491,-0.00286012,-0.0364006,0.998367,-0.0400786,0.0400502,-0.00725755,0.593427,0.130308,-0.672043,35.25,1,12957,21012493
56,1,0.998367,-0.0400786,0.0400502,-0.00725755,0.133421,-0.0618888,10.0082,0.310829,0.701242,0.901664,0.00133113,-0.000625163,0.100082,1,2.89245e-05,-1.43006e-05,-0.000182003,0.00578491,-0.00286012,-0.0364006,0.998367,-0.0400786,0.0400502,-0.00725755,0.593427,0.130308,-0.672043,35.25,1,12957,21012493
56,2,0.998367,-0.0400786,0.0400502,-0.00725755,0.133421,-0.0618888,10.0082,0.310829,0.701242,0.901664,0.00133113,-0.000625163,0.100082,1,2.89245e-05,-1.43006e-05,-0.000182003,0.00578491,-0.00286012,-0.0364006,0.998367,-0.0400786,0.0400502,-0.00725755,0.593427,0.130308,-0.672043,35.25,1,12957,21012493
57,1,0.998378,-0.039876,0.0399553,-0.00743719,-0.313873,-0.0018941,9.643,0.197902,0.81162,0.593029,-0.0031308,-2.27597e-05,0.0964302,1,2.58707e-05,4.11332e-05,-0.000186728,0.00517414,0.00822665,-0.0373456,0.998378,-0.039876,0.0399553,-0.00743719,0.595763,0.130821,-0.674568,35.25,1,12958,21012593
57,2,0.998378,-0.039876,0.0399553,-0.00743719,-0.313873,-0.0018941,9.643,0.197902,0.81162,0.593029,-0.0031308,-2.27597e-05,0.0964302,1,2.58707e-05,4.11332e-05,-0.000186728,0.00517414,0.00822665,-0.0373456,0.998378,-0.039876,0.0399553,-0.00743719,0.595763,0.130821,-0.674568,35.25,1,12958,21012593
72,1,0.998378,-0.039876,0.0399553,-0.00743719,-0.313873,-0.0018941,9.643,0.197902,0.81162,0.593029,-0.0031308,-2.27597e-05,0.0964302,1,2.58707e-05,4.11332e-05,-0.000186728,0.00517414,0.00822665,-0.0373456,0.998378,-0.039876,0.0399553,-0.00743719,0.595763,0.130821,-0.674568,35.25,1,12958,21012593
72,2,0.998394,-0.039646,0.0397358,-0.00761152,-0.0511133,-0.375719,9.79373,0.0945835,0.483276,0.64425,-0.000528558,-0.00376698,0.0979369,1,5.09859e-05,-8.18368e-05,-0.000185441,0.0101972,-0.0163673,-0.0370883,0.998394,-0.039646,0.0397358,-0.00761152,0.596647,0.131834,-0.677075,35.25,1,12959,21012693
72,3,0.998394,-0.039646,0.0397358,-0.00761152,-0.0511133,-0.375719,9.79373,0.0945835,0.483276,0.64425,-0.000528558,-0.00376698,0.0979369,1,5.09859e-05,-8.18368e-05,-0.000185441,0.0101972,-0.0163673,-0.0370883,0.998394,-0.039646,0.0397358,-0.00761152,0.596647,0.131834,-0.677075,35.25,1,12959,21012693
72,4,0.998394,-0.039646,0.0397358,-0.00761152,-0.0511133,-0.375719,9.79373,0.0945835,0.483276,0.64425,-0.000528558,-0.00376698,0.0979369,1,5.09859e-05,-8.18368e-05,-0.000185441,0.0101972,-0.0163673,-0.0370883,0.998394,-0.039646,0.0397358,-0.00761152,0.596647,0.131834,-0.677075,35.25,1,12959,21012693
59,1,0.998406,-0.0394189,0.0396431,-0.00779585,0.203221,-0.013925,10.0224,0.692833,0.794731,0.930739,0.0020419,-0.000149295,0.100223,1,4.62558e-05,4.86511e-05,-0.000189819,0.00925115,0.00973022,-0.0379638,0.998406,-0.0394189,0.0396431,-0.00779585,0.595188,0.132821,-0.677046,35.25,1,12960,21012793
59,2,0.998406,-0.0394189,0.0396431,-0.00779585,0.203221,-0.013925,10.0224,0.692833,0.794731,0.930739,0.0020419,-0.000149295,0.100223,1,4.62558e-05,4.86511e-05,-0.000189819,0.00925115,0.00973022,-0.0379638,0.998406,-0.0394189,0.0396431,-0.00779585,0.595188,0.132821,-0.677046,35.25,1,12960,21012793
60,1,0.998406,-0.0394189,0.0396431,-0.00779585,0.203221,-0.013925,10.0224,0.692833,0.794731,0.930739,0.0020419,-0.000149295,0.100223,1,4.62558e-05,4.86511e-05,-0.000189819,0.00925115,0.00973022,-0.0379638,0.998406,-0.0394189,0.0396431,-0.00779585,0.595188,0.132821,-0.677046,35.25,1,12960,21012793
60,2,0.998421,-0.0391693,0.03946,-0.00798019,-0.611274,-0.0192534,9.73001,-0.386794,0.75814,0.677706,-0.00611986,-0.000203078,0.0972997,1,6.62382e-05,-3.62165e-05,-0.00019179,0.0132476,-0.00724331,-0.038358,0.998421,-0.0391693,0.03946,-0.00798019,0.595739,0.13373,-0.673493,35.25,1,12961,21012893
61,1,0.998421,-0.0391693,0.03946,-0.00798019,-0.611274,-0.0192534,9.73001,-0.386794,0.75814,0.677706,-0.00611986,-0.000203078,0.0972997,1,6.62382e-05,-3.62165e-05,-0.00019179,0.0132476,-0.00724331,-0.038358,0.998421,-0.0391693,0.03946,-0.00798019,0.595739,0.13373,-0.673493,35.25,1,12961,21012893
61,2,0.998421,-0.0391693,0.03946,-0.00798019,-0.611274,-0.0192534,9.73001,-0.386794,0.75814,0.677706,-0.00611986,-0.000203078,0.0972997,1,6.62382e-05,-3.62165e-05,-0.00019179,0.0132476,-0.00724331,-0.038358,0.998421,-0.0391693,0.03946,-0.00798019,0.595739,0.13373,-0.673493,35.25,1,12961,21012893
61,3,0.998435,-0.0389496,0.0392982,-0.0081446,-0.128085,-0.0741251,9.71981,0.189089,0.666413,0.647163,-0.00128435,-0.000747122,0.097198,1,3.24865e-05,-1.66612e-05,-0.000173125,0.00649731,-0.00333224,-0.0346249,0.998435,-0.0389496,0.0392982,-0.0081446,0.597717,0.132711,-0.67201,35.25,1,12962,21012993
61,4,0.998435,-0.0389496,0.0392982,-0.0081446,-0.128085,-0.0741251,9.71981,0.189089,0.666413,0.647163,-0.00128435,-0.000747122,0.097198,1,3.24865e-05,-1.66612e-05,-0.000173125,0.00649731,-0.00333224,-0.0346249,0.998435,-0.0389496,0.0392982,-0.0081446,0.597717,0.132711,-0.67201,35.25,1,12962,21012993
79,1,0.998435,-0.0389496,0.0392982,-0.0081446,-0.128085,-0.0741251,9.71981,0.189089,0.666413,0.647163,-0.00128435,-0.000747122,0.097198,1,3.24865e-05,-1.66612e-05,-0.000173125,0.00649731,-0.00333224,-0.0346249,0.998435,-0.0389496,0.0392982,-0.0081446,0.597717,0.132711,-0.67201,35.25,1,12962,21012993
79,2,0.998452,-0.0387005,0.0390648,-0.0083201,-0.0849708,-0.223856,9.93432,0.102794,0.500449,0.857054,-0.000867451,-0.00225022,0.0993428,1,6.02904e-05,-8.50886e-05,-0.000186289,0.0120581,-0.0170177,-0.0372579,0.998452,-0.0387005,0.0390648,-0.0083201,0.599106,0.132256,-0.674551,35.25,1,12963,21013093
79,3,0.998452,-0.0387005,0.0390648,-0.0083201,-0.0849708,-0.223856,9.93432,0.102794,0.500449,0.857054,-0.000867451,-0.00225022,0.0993428,1,6.02904e-05,-8.50886e-05,-0.000186289,0.0120581,-0.0170177,-0.0372579,0.998452,-0.0387005,0.0390648,-0.0083201,0.599106,0.132256,-0.674551,35.25,1,12963,21013093
79,4,0.998452,-0.0387005,0.0390648,-0.0083201,-0.0849708,-0.223856,9.93432,0.102794,0.500449,0.857054,-0.000867451,-0.00225022,0.0993428,1,6.02904e-05,-8.50886e-05,-0.000186289,0.0120581,-0.0170177,-0.0372579,0.998452,-0.0387005,0.0390648,-0.0083201,0.599106,0.132256,-0.674551,35.25,1,12963,21013093
79,5,0.998466,-0.0384448,0.0389234,-0.00850773,0.110271,-0.189947,9.9421,0.550289,0.580667,0.850249,0.00110408,-0.00191278,0.0994207,1,6.47927e-05,1.06104e-05,-0.000193735,0.0129585,0.00212208,-0.0387469,0.998466,-0.0384448,0.0389234,-0.00850773,0.601931,0.130832,-0.678132,35.25,1,12964,21013193
79,6,0.998466,-0.0384448,0.0389234,-0.00850773,0.110271,-0.189947,9.9421,0.550289,0.580667,0.850249,0.00110408,-0.00191278,0.0994207,1,6.47927e-05,1.06104e-05,-0.000193735,0.0129585,0.00212208,-0.0387469,0.998466,-0.0384448,0.0389234,-0.00850773,0.601931,0.130832,-0.678132,35.25,1,12964,21013193
79,7,0.998466,-0.0384448,0.0389234,-0.00850773,0.110271,-0.189947,9.9421,0.550289,0.580667,0.850249,0.00110408,-0.00191278,0.0994207,1,6.47927e-05,1.06104e-05,-0.000193735,0.0129585,0.00212208,-0.0387469,0.998466,-0.0384448,0.0389234,-0.00850773,0.601931,0.130832,-0.678132,35.25,1,12964,21013193
79,8,0.998482,-0.0381675,0.0387367,-0.00871639,-0.206611,-0.0269712,9.68004,-0.0717017,0.692287,0.621569,-0.00207188,-0.000285412,0.0968002,1,8.56689e-05,-2.92096e-05,-0.000214192,0.0171338,-0.00584193,-0.0428384,0.998482,-0.0381675,0.0387367,-0.00871639,0.600871,0.132357,-0.681123,35.25,1,12965,21013293
63,1,0.998482,-0.0381675,0.0387367,-0.00871639,-0.206611,-0.0269712,9.68004,-0.0717017,0.692287,0.621569,-0.00207188,-0.000285412,0.0968002,1,8.56689e-05,-2.92096e-05,-0.000214192,0.0171338,-0.00584193,-0.0428384,0.998482,-0.0381675,0.0387367,-0.00871639,0.600871,0.132357,-0.681123,35.25,1,12965,21013293
63,2,0.998482,-0.0381675,0.0387367,-0.00871639,-0.206611,-0.0269712,9.68004,-0.0717017,0.692287,0.621569,-0.00207188,-0.000285412,0.0968002,1,8.56689e-05,-2.92096e-05,-0.000214192,0.0171338,-0.00584193,-0.0428384,0.998482,-0.0381675,0.0387367,-0.00871639,0.600871,0.132357,-0.681123,35.25,1,12965,21013293
64,1,0.998496,-0.0379215,0.038566,-0.00892833,-0.0932186,0.0500855,9.91499,0.2596,0.790948,0.790434,-0.000934264,0.000491024,0.0991499,1,5.16354e-05,-1.15726e-05,-0.000218726,0.0103271,-0.00231453,-0.0437452,0.998496,-0.0379215,0.038566,-0.00892833,0.598947,0.135264,-0.679029,35.25,1,12966,21013393
64,2,0.998496,-0.0379215,0.038566,-0.00892833,-0.0932186,0.0500855,9.91499,0.2596,0.790948,0.790434,-0.000934264,0.000491024,0.0991499,1,5.16354e-05,-1.15726e-05,-0.000218726,0.0103271,-0.00231453,-0.0437452,0.998496,-0.0379215,0.038566,-0.00892833,0.598947,0.135264,-0.679029,35.25,1,12966,21013393
82,1,0.998496,-0.0379215,0.038566,-0.00892833,-0.0932186,0.0500855,9.91499,0.2596,0.790948,0.790434,-0.000934264,0.000491024,0.0991499,1,5.16354e-05,-1.15726e-05,-0.000218726,0.0103271,-0.00231453,-0.0437452,0.998496,-0.0379215,0.038566,-0.00892833,0.598947,0.135264,-0.679029,35.25,1,12966,21013393
82,2,0.99851,-0.0376717,0.038411,-0.00913074,-0.285238,0.122455,9.84228,-0.0541287,0.888924,0.767179,-0.00285057,0.00121555,0.0984229,1,5.17176e-05,6.65109e-06,-0.000208078,0.0103435,0.00133022,-0.0416156,0.99851,-0.0376717,0.038411,-0.00913074,0.598071,0.133764,-0.676533,35.25,1,12967,21013493
82,3,0.99851,-0.0376717,0.038411,-0.00913074,-0.285238,0.122455,9.84228,-0.0541287,0.888924,0.767179,-0.00285057,0.00121555,0.0984229,1,5.17176e-05,6.65109e-06,-0.000208078,0.0103435,0.00133022,-0.0416156,0.99851,-0.0376717,0.038411,-0.00913074,0.598071,0.133764,-0.676533,35.25,1,12967,21013493
82,4,0.99851,-0.0376717,0.038411,-0.00913074,-0.285238,0.122455,9.84228,-0.0541287,0.888924,0.767179,-0.00285057,0.00121555,0.0984229,1,5.17176e-05,6.65109e-06,-0.000208078,0.0103435,0.00133022,-0.0416156,0.99851,-0.0376717,0.038411,-0.00913074,0.598071,0.133764,-0.676533,35.25,1,12967,21013493
66,1,0.998526,-0.0373936,0.0382102,-0.00935169,-0.0299531,0.194308,9.72516,0.234686,0.90311,0.662997,-0.000305772,0.00192816,0.0972519,1,7.74153e-05,-3.66149e-05,-0.000227466,0.0154831,-0.00732297,-0.0454932,0.998526,-0.0373936,0.0382102,-0.00935169,0.599094,0.13082,-0.676099,35.25,1,12968,21013593
66,2,0.998526,-0.0373936,0.0382102,-0.00935169,-0.0299531,0.194308,9.72516,0.234686,0.90311,0.662997,-0.000305772,0.00192816,0.0972519,1,7.74153e-05,-3.66149e-05,-0.000227466,0.0154831,-0.00732297,-0.0454932,0.998526,-0.0373936,0.0382102,-0.00935169,0.599094,0.13082,-0.676099,35.25,1,12968,21013593
66,3,0.998526,-0.0373936,0.0382102,-0.00935169,-0.0299531,0.194308,9.72516,0.234686,0.90311,0.662997,-0.000305772,0.00192816,0.0972519,1,7.74153e-05,-3.66149e-05,-0.000227466,0.0154831,-0.00732297,-0.0454932,0.998526,-0.0373936,0.0382102,-0.00935169,0.599094,0.13082,-0.676099,35.25,1,12968,21013593
66,4,0.99854,-0.0371389,0.0380325,-0.0095861,-0.321272,-0.0619968,9.62657,-0.0422669,0.702577,0.52547,-0.00321511,-0.000628085,0.0962656,1,5.0235e-05,-1.08298e-05,-0.000241826,0.010047,-0.00216595,-0.0483652,0.99854,-0.0371389,0.0380325,-0.0095861,0.601449,0.129391,-0.679172,35.25,1,12969,21013693
66,5,0.99854,-0.0371389,0.0380325,-0.0095861,-0.321272,-0.0619968,9.62657,-0.0422669,0.702577,0.52547,-0.00321511,-0.000628085,0.0962656,1,5.0235e-05,-1.08298e-05,-0.000241826,0.010047,-0.00216595,-0.0483652,0.99854,-0.0371389,0.0380325,-0.0095861,0.601449,0.129391,-0.679172,35.25,1,12969,21013693
66,6,0.99854,-0.0371389,0.0380325,-0.0095861,-0.321272,-0.0619968,9.62657,-0.0422669,0.702577,0.52547,-0.00321511,-0.000628085,0.0962656,1,5.0235e-05,-1.08298e-05,-0.000241826,0.010047,-0.00216595,-0.0483652,0.99854,-0.0371389,0.0380325,-0.0095861,0.601449,0.129391,-0.679172,35.25,1,12969,21013693
67,1,0.998555,-0.0368721,0.0378342,-0.00982577,0.114348,-0.159365,9.86905,0.394661,0.58219,0.728907,0.00113683,-0.00160618,0.0986904,1,6.05844e-05,-2.97195e-05,-0.000247126,0.0121169,-0.0059439,-0.0494252,0.998555,-0.0368721,0.0378342,-0.00982577,0.603781,0.129425,-0.682212,35.25,1,12970,21013793
67,2,0.998555,-0.0368721,0.0378342,-0.00982577,0.114348,-0.159365,9.86905,0.394661,0.58219,0.728907,0.00113683,-0.00160618,0.0986904,1,6.05844e-05,-2.97195e-05,-0.000247126,0.0121169,-0.0059439,-0.0494252,0.998555,-0.0368721,0.0378342,-0.00982577,0.603781,0.129425,-0.682212,35.25,1,12970,21013793
67,3,0.998555,-0.0368721,0.0378342,-0.00982577,0.114348,-0.159365,9.86905,0.394661,0.58219,0.728907,0.00113683,-0.00160618,0.0986904,1,6.05844e-05,-2.97195e-05,-0.000247126,0.0121169,-0.0059439,-0.0494252,0.998555,-0.0368721,0.0378342,-0.00982577,0.603781,0.129425,-0.682212,35.25,1,12970,21013793
67,4,0.998569,-0.0365969,0.0376801,-0.0100772,0.0249947,-0.16284,10.0335,0.296051,0.558207,0.967058,0.000252846,-0.00164204,0.100334,1,6.73333e-05,1.86204e-05,-0.000256192,0.0134667,0.00372408,-0.0512385,0.998569,-0.0365969,0.0376801,-0.0100772,0.604711,0.129923,-0.683215,35.25,1,12971,21013893
67,5,0.998569,-0.0365969,0.0376801,-0.0100772,0.0249947,-0.16284,10.0335,0.296051,0.558207,0.967058,0.000252846,-0.00164204,0.100334,1,6.73333e-05,1.86204e-05,-0.000256192,0.0134667,0.00372408,-0.0512385,0.998569,-0.0365969,0.0376801,-0.0100772,0.604711,0.129923,-0.683215,35.25,1,12971,21013893
67,6,0.998569,-0.0365969,0.0376801,-0.0100772,0.0249947,-0.16284,10.0335,0.296051,0.558207,0.967058,0.000252846,-0.00164204,0.100334,1,6.73333e-05,1.86204e-05,-0.000256192,0.0134667,0.00372408,-0.0512385,0.998569,-0.0365969,0.0376801,-0.0100772,0.604711,0.129923,-0.683215,35.25,1,12971,21013893
68,1,0.998582,-0.0363045,0.0375408,-0.0103368,-0.276837,-0.134116,9.93601,0.0488814,0.551392,0.839613,-0.00276163,-0.00135622,0.0993601,1,8.30947e-05,3.7464e-05,-0.000262636,0.0166189,0.00749279,-0.0525272,0.998582,-0.0363045,0.0375408,-0.0103368,0.6052,0.130876,-0.682186,35.25,1,12972,21013993
68,2,0.998582,-0.0363045,0.0375408,-0.0103368,-0.276837,-0.134116,9.93601,0.0488814,0.551392,0.839613,-0.00276163,-0.00135622,0.0993601,1,8.30947e-05,3.7464e-05,-0.000262636,0.0166189,0.00749279,-0.0525272,0.998582,-0.0363045,0.0375408,-0.0103368,0.6052,0.130876,-0.682186,35.25,1,12972,21013993
68,3,0.998582,-0.0363045,0.0375408,-0.0103368,-0.276837,-0.134116,9.93601,0.0488814,0.551392,0.839613,-0.00276163,-0.00135622,0.0993601,1,8.30947e-05,3.7464e-05,-0.000262636,0.0166189,0.00749279,-0.0525272,0.998582,-0.0363045,0.0375408,-0.0103368,0.6052,0.130876,-0.682186,35.25,1,12972,21013993
68,4,0.998597,-0.0359919,0.0373688,-0.0105727,-0.367768,-0.00659308,9.83562,-0.151081,0.654934,0.761917,-0.00367674,-8.41027e-05,0.0983562,1,0.000101311,4.96139e-06,-0.000238928,0.0202622,0.000992278,-0.0477856,0.998597,-0.0359919,0.0373688,-0.0105727,0.603741,0.133309,-0.681115,35.25,1,12973,21014093
86,1,0.998597,-0.0359919,0.0373688,-0.0105727,-0.367768,-0.00659308,9.83562,-0.151081,0.654934,0.761917,-0.00367674,-8.41027e-05,0.0983562,1,0.000101311,4.96139e-06,-0.000238928,0.0202622,0.000992278,-0.0477856,0.998597,-0.0359919,0.0373688,-0.0105727,0.603741,0.133309,-0.681115,35.25,1,12973,21014093
86,2,0.998597,-0.0359919,0.0373688,-0.0105727,-0.367768,-0.00659308,9.83562,-0.151081,0.654934,0.761917,-0.00367674,-8.41027e-05,0.0983562,1,0.000101311,4.96139e-06,-0.000238928,0.0202622,0.000992278,-0.0477856,0.998597,-0.0359919,0.0373688,-0.0105727,0.603741,0.133309,-0.681115,35.25,1,12973,21014093
86,3,0.99861,-0.0357133,0.0372191,-0.0108179,-0.0161996,0.0797888,9.81058,0.239381,0.739738,0.774724,-0.000156171,0.000785212,0.0981059,1,6.50085e-05,2.7674e-05,-0.000249703,0.0130017,0.00553479,-0.0499406,0.99861,-0.0357133,0.0372191,-0.0108179,0.604769,0.132289,-0.679122,35.25,1,12974,21014193
86,4,0.99861,-0.0357133,0.0372191,-0.0108179,-0.0161996,0.0797888,9.81058,0.239381,0.739738,0.774724,-0.000156171,0.000785212,0.0981059,1,6.50085e-05,2.7674e-05,-0.000249703,0.0130017,0.00553479,-0.0499406,0.99861,-0.0357133,0.0372191,-0.0108179,0.604769,0.132289,-0.679122,35.25,1,12974,21014193
87,1,0.99861,-0.0357133,0.0372191,-0.0108179,-0.0161996,0.0797888,9.81058,0.239381,0.739738,0.774724,-0.000156171,0.000785212,0.0981059,1,6.50085e-05,2.7674e-05,-0.000249703,0.0130017,0.00553479,-0.0499406,0.99861,-0.0357133,0.0372191,-0.0108179,0.604769,0.132289,-0.679122,35.25,1,12974,21014193
87,2,0.998623,-0.0354752,0.0370335,-0.0110543,-0.403585,-0.0407515,9.60662,-0.247748,0.671911,0.529314,-0.00403724,-0.000409727,0.0960662,1,2.17427e-05,-6.22021e-06,-0.00024339,0.00434853,-0.00124404,-0.0486781,0.998623,-0.0354752,0.0370335,-0.0110543,0.606664,0.130367,-0.681699,35.25,1,12975,21014293
87,3,0.998623,-0.0354752,0.0370335,-0.0110543,-0.403585,-0.0407515,9.60662,-0.247748,0.671911,0.529314,-0.00403724,-0.000409727,0.0960662,1,2.17427e-05,-6.22021e-06,-0.00024339,0.00434853,-0.00124404,-0.0486781,0.998623,-0.0354752,0.0370335,-0.0110543,0.606664,0.130367,-0.681699,35.25,1,12975,21014293
87,4,0.998623,-0.0354752,0.0370335,-0.0110543,-0.403585,-0.0407515,9.60662,-0.247748,0.671911,0.529314,-0.00403724,-0.000409727,0.0960662,1,2.17427e-05,-6.22021e-06,-0.00024339,0.00434853,-0.00124404,-0.0486781,0.998623,-0.0354752,0.0370335,-0.0110543,0.606664,0.130367,-0.681699,35.25,1,12975,21014293
71,1,0.998637,-0.0351911,0.0368529,-0.0113032,0.0192897,-0.245807,9.91713,0.269781,0.457985,0.772898,0.000191659,-0.00247132,0.0991709,1,6.62796e-05,8.08463e-08,-0.000254404,0.0132559,1.61693e-05,-0.0508807,0.998637,-0.0351911,0.0368529,-0.0113032,0.609456,0.129449,-0.686278,35.25,1,12976,21014393
71,2,0.998637,-0.0351911,0.0368529,-0.0113032,0.0192897,-0.245807,9.91713,0.269781,0.457985,0.772898,0.000191659,-0.00247132,0.0991709,1,6.62796e-05,8.08463e-08,-0.000254404,0.0132559,1.61693e-05,-0.0508807,0.998637,-0.0351911,0.0368529,-0.0113032,0.609456,0.129449,-0.686278,35.25,1,12976,21014393
71,3,0.998637,-0.0351911,0.0368529,-0.0113032,0.0192897,-0.245807,9.91713,0.269781,0.457985,0.772898,0.000191659,-0.00247132,0.0991709,1,6.62796e-05,8.08463e-08,-0.000254404,0.0132559,1.61693e-05,-0.0508807,0.998637,-0.0351911,0.0368529,-0.0113032,0.609456,0.129449,-0.686278,35.25,1,12976,21014393
71,4,0.99865,-0.0348922,0.0367071,-0.0115476,-0.120919,-0.125234,9.99304,0.148431,0.601884,0.901178,-0.0012021,-0.00126773,0.0999302,1,7.99641e-05,3.86232e-05,-0.000246387,0.0159928,0.00772463,-0.0492774,0.99865,-0.0348922,0.0367071,-0.0115476,0.60983,0.130005,-0.690308,35.25,1,12977,21014493
72,1,0.99865,-0.0348922,0.0367071,-0.0115476,-0.120919,-0.125234,9.99304,0.148431,0.601884,0.901178,-0.0012021,-0.00126773,0.0999302,1,7.99641e-05,3.86232e-05,-0.000246387,0.0159928,0.00772463,-0.0492774,0.99865,-0.0348922,0.0367071,-0.0115476,0.60983,0.130005,-0.690308,35.25,1,12977,21014493
72,2,0.99865,-0.0348922,0.0367071,-0.0115476,-0.120919,-0.125234,9.99304,0.148431,0.601884,0.901178,-0.0012021,-0.00126773,0.0999302,1,7.99641e-05,3.86232e-05,-0.000246387,0.0159928,0.00772463,-0.0492774,0.99865,-0.0348922,0.0367071,-0.0115476,0.60983,0.130005,-0.690308,35.25,1,12977,21014493
72,3,0.998665,-0.034558,0.0365466,-0.0118,-0.322665,-0.379888,9.95255,-0.110258,0.29252,0.966842,-0.00322341,-0.00382004,0.0995248,1,0.000114504,2.59884e-05,-0.000253866,0.0229008,0.00519769,-0.0507732,0.998665,-0.034558,0.0365466,-0.0118,0.607983,0.129,-0.687796,35.25,1,12978,21014593
72,4,0.998665,-0.034558,0.0365466,-0.0118,-0.322665,-0.379888,9.95255,-0.110258,0.29252,0.966842,-0.00322341,-0.00382004,0.0995248,1,0.000114504,2.59884e-05,-0.000253866,0.0229008,0.00519769,-0.0507732,0.998665,-0.034558,0.0365466,-0.0118,0.607983,0.129,-0.687796,35.25,1,12978,21014593
74,1,0.998665,-0.034558,0.0365466,-0.0118,-0.322665,-0.379888,9.95255,-0.110258,0.29252,0.966842,-0.00322341,-0.00382004,0.0995248,1,0.000114504,2.59884e-05,-0.000253866,0.0229008,0.00519769,-0.0507732,0.998665,-0.034558,0.0365466,-0.0118,0.607983,0.129,-0.687796,35.25,1,12978,21014593
74,2,0.998679,-0.0342298,0.0363817,-0.0120466,-0.480032,-0.140494,9.74059,-0.290924,0.551213,0.689349,-0.00479681,-0.00142381,0.0974058,1,0.000109061,2.16151e-05,-0.000248319,0.0218123,0.00432303,-0.0496638,0.998679,-0.0342298,0.0363817,-0.0120466,0.607576,0.12895,-0.684765,35.25,1,12979,21014693
75,1,0.998679,-0.0342298,0.0363817,-0.0120466,-0.480032,-0.140494,9.74059,-0.290924,0.551213,0.689349,-0.00479681,-0.00142381,0.0974058,1,0.000109061,2.16151e-05,-0.000248319,0.0218123,0.00432303,-0.0496638,0.998679,-0.0342298,0.0363817,-0.0120466,0.607576,0.12895,-0.684765,35.25,1,12979,21014693
75,2,0.998679,-0.0342298,0.0363817,-0.0120466,-0.480032,-0.140494,9.74059,-0.290924,0.551213,0.689349,-0.00479681,-0.00142381,0.0974058,1,0.000109061,2.16151e-05,-0.000248319,0.0218123,0.00432303,-0.0496638,0.998679,-0.0342298,0.0363817,-0.0120466,0.607576,0.12895,-0.684765,35.25,1,12979,21014693
92,1,0.998694,-0.0339101,0.0361874,-0.0122909,-0.0487302,-0.254149,9.89479,0.056971,0.485244,0.813604,-0.000490349,-0.00256104,0.0989474,1,0.000100012,-8.99893e-06,-0.000248002,0.0200023,-0.00179979,-0.0496004,0.998694,-0.0339101,0.0361874,-0.0122909,0.60809,0.126995,-0.684811,35.25,1,12980,21014793
92,2,0.998694,-0.0339101,0.0361874,-0.0122909,-0.0487302,-0.254149,9.89479,0.056971,0.485244,0.813604,-0.000490349,-0.00256104,0.0989474,1,0.000100012,-8.99893e-06,-0.000248002,0.0200023,-0.00179979,-0.0496004,0.998694,-0.0339101,0.0361874,-0.0122909,0.60809,0.126995,-0.684811,35.25,1,12980,21014793
92,3,0.998694,-0.0339101,0.0361874,-0.0122909,-0.0487302,-0.254149,9.89479,0.056971,0.485244,0.813604,-0.000490349,-0.00256104,0.0989474,1,0.000100012,-8.99893e-06,-0.000248002,0.0200023,-0.00179979,-0.0496004,0.998694,-0.0339101,0.0361874,-0.0122909,0.60809,0.126995,-0.684811,35.25,1,12980,21014793
92,4,0.998709,-0.0335534,0.0360314,-0.0125339,-0.120977,-0.0424795,9.91915,0.0585778,0.673389,0.807268,-0.00120364,-0.000451261,0.0991914,1,0.000136372,3.19668e-05,-0.000243598,0.0272743,0.00639336,-0.0487197,0.998709,-0.0335534,0.0360314,-0.0125339,0.610013,0.124089,-0.686905,35.25,1,12981,21014893
77,1,0.998709,-0.0335534,0.0360314,-0.0125339,-0.120977,-0.0424795,9.91915,0.0585778,0.673389,0.807268,-0.00120364,-0.000451261,0.0991914,1,0.000136372,3.19668e-05,-0.000243598,0.0272743,0.00639336,-0.0487197,0.998709,-0.0335534,0.0360314,-0.0125339,0.610013,0.124089,-0.686905,35.25,1,12981,21014893
77,2,0.998709,-0.0335534,0.0360314,-0.0125339,-0.120977,-0.0424795,9.91915,0.0585778,0.673389,0.807268,-0.00120364,-0.000451261,0.0991914,1,0.000136372,3.19668e-05,-0.000243598,0.0272743,0.00639336,-0.0487197,0.998709,-0.0335534,0.0360314,-0.0125339,0.610013,0.124089,-0.686905,35.25,1,12981,21014893
78,1,0.998723,-0.0331748,0.0358998,-0.0127966,-0.209767,0.166789,9.81839,0.0568376,0.815707,0.719878,-0.0020852,0.00163813,0.0981847,1,0.000157142,5.90892e-05,-0.000260998,0.0314284,0.0118178,-0.0521995,0.998723,-0.0331748,0.0358998,-0.0127966,0.613295,0.124124,-0.690455,35.25,1,12982,21014993
78,2,0.998723,-0.0331748,0.0358998,-0.0127966,-0.209767,0.166789,9.81839,0.0568376,0.815707,0.719878,-0.0020852,0.00163813,0.0981847,1,0.000157142,5.90892e-05,-0.000260998,0.0314284,0.0118178,-0.0521995,0.998723,-0.0331748,0.0358998,-0.0127966,0.613295,0.124124,-0.690455,35.25,1,12982,21014993
78,3,0.998723,-0.0331748,0.0358998,-0.0127966,-0.209767,0.166789,9.81839,0.0568376,0.815707,0.719878,-0.0020852,0.00163813,0.0981847,1,0.000157142,5.90892e-05,-0.000260998,0.0314284,0.0118178,-0.0521995,0.998723,-0.0331748,0.0358998,-0.0127966,0.613295,0.124124,-0.690455,35.25,1,12982,21014993
78,4,0.998735,-0.0328418,0.0357677,-0.0130631,-0.319746,0.213204,9.84867,-0.121437,0.894521,0.730174,-0.00318471,0.0021123,0.0984875,1,0.000108877,5.89712e-05,-0.000267638,0.0217754,0.0117942,-0.0535277,0.998735,-0.0328418,0.0357677,-0.0130631,0.614127,0.127584,-0.693412,35.25,1,12983,21015093
78,5,0.998735,-0.0328418,0.0357677,-0.0130631,-0.319746,0.213204,9.84867,-0.121437,0.894521,0.730174,-0.00318471,0.0021123,0.0984875,1,0.000108877,5.89712e-05,-0.000267638,0.0217754,0.0117942,-0.0535277,0.998735,-0.0328418,0.0357677,-0.0130631,0.614127,0.127584,-0.693412,35.25,1,12983,21015093
78,6,0.998735,-0.0328418,0.0357677,-0.0130631,-0.319746,0.213204,9.84867,-0.121437,0.894521,0.730174,-0.00318471,0.0021123,0.0984875,1,0.000108877,5.89712e-05,-0.000267638,0.0217754,0.0117942,-0.0535277,0.998735,-0.0328418,0.0357677,-0.0130631,0.614127,0.127584,-0.693412,35.25,1,12983,21015093
79,1,0.998747,-0.0325479,0.0356068,-0.0133389,-0.500458,0.119668,9.81688,-0.317666,0.868969,0.714756,-0.00499798,0.00118626,0.0981693,1,6.7333e-05,3.02174e-05,-0.000280233,0.0134666,0.00604347,-0.0560467,0.998747,-0.0325479,0.0356068,-0.0133389,0.614641,0.129965,-0.690331,35.25,1,12984,21015193
79,2,0.998747,-0.0325479,0.0356068,-0.0133389,-0.500458,0.119668,9.81688,-0.317666,0.868969,0.714756,-0.00499798,0.00118626,0.0981693,1,6.7333e-05,3.02174e-05,-0.000280233,0.0134666,0.00604347,-0.0560467,0.998747,-0.0325479,0.0356068,-0.0133389,0.614641,0.129965,-0.690331,35.25,1,12984,21015193
80,1,0.998747,-0.0325479,0.0356068,-0.0133389,-0.500458,0.119668,9.81688,-0.317666,0.868969,0.714756,-0.00499798,0.00118626,0.0981693,1,6.7333e-05,3.02174e-05,-0.000280233,0.0134666,0.00604347,-0.0560467,0.998747,-0.0325479,0.0356068,-0.0133389,0.614641,0.129965,-0.690331,35.25,1,12984,21015193
80,2,0.998759,-0.032233,0.0354423,-0.0136251,-0.358646,-0.215839,9.6567,-0.155008,0.483426,0.596026,-0.00358266,-0.00217302,0.0965668,1,8.64968e-05,2.61575e-05,-0.000290301,0.0172994,0.00523151,-0.0580603,0.998759,-0.032233,0.0354423,-0.0136251,0.614246,0.128461,-0.687837,35.25,1,12985,21015293
99,1,0.998759,-0.032233,0.0354423,-0.0136251,-0.358646,-0.215839,9.6567,-0.155008,0.483426,0.596026,-0.00358266,-0.00217302,0.0965668,1,8.64968e-05,2.61575e-05,-0.000290301,0.0172994,0.00523151,-0.0580603,0.998759,-0.032233,0.0354423,-0.0136251,0.614246,0.128461,-0.687837,35.25,1,12985,21015293
99,2,0.998759,-0.032233,0.0354423,-0.0136251,-0.358646,-0.215839,9.6567,-0.155008,0.483426,0.596026,-0.00358266,-0.00217302,0.0965668,1,8.64968e-05,2.61575e-05,-0.000290301,0.0172994,0.00523151,-0.0580603,0.998759,-0.032233,0.0354423,-0.0136251,0.614246,0.128461,-0.687837,35.25,1,12985,21015293
99,3,0.998772,-0.0318828,0.0352619,-0.0139299,-0.145247,-0.307446,9.71386,-0.0442077,0.272921,0.666844,-0.00145226,-0.00309747,0.0971379,1,0.000123042,1.08835e-05,-0.000308396,0.0246083,0.0021767,-0.0616792,0.998772,-0.0318828,0.0352619,-0.0139299,0.61385,0.125511,-0.686386,35.25,1,12986,21015393
99,4,0.998772,-0.0318828,0.0352619,-0.0139299,-0.145247,-0.307446,9.71386,-0.0442077,0.272921,0.666844,-0.00145226,-0.00309747,0.0971379,1,0.000123042,1.08835e-05,-0.000308396,0.0246083,0.0021767,-0.0616792,0.998772,-0.0318828,0.0352619,-0.0139299,0.61385,0.125511,-0.686386,35.25,1,12986,21015393
82,1,0.998772,-0.0318828,0.0352619,-0.0139299,-0.145247,-0.307446,9.71386,-0.0442077,0.272921,0.666844,-0.00145226,-0.00309747,0.0971379,1,0.000123042,1.08835e-05,-0.000308396,0.0246083,0.0021767,-0.0616792,0.998772,-0.0318828,0.0352619,-0.0139299,0.61385,0.125511,-0.686386,35.25,1,12986,21015393
82,2,0.998786,-0.0315188,0.0350996,-0.0142119,-0.146112,-0.104145,9.75326,0.00966671,0.432575,0.699562,-0.00145593,-0.00106732,0.0975323,1,0.000136851,2.96437e-05,-0.000283665,0.0273703,0.00592874,-0.0567329,0.998786,-0.0315188,0.0350996,-0.0142119,0.615754,0.123101,-0.688974,35.25,1,12987,21015493
83,1,0.998786,-0.0315188,0.0350996,-0.0142119,-0.146112,-0.104145,9.75326,0.00966671,0.432575,0.699562,-0.00145593,-0.00106732,0.0975323,1,0.000136851,2.96437e-05,-0.000283665,0.0273703,0.00592874,-0.0567329,0.998786,-0.0315188,0.0350996,-0.0142119,0.615754,0.123101,-0.688974,35.25,1,12987,21015493
83,2,0.998786,-0.0315188,0.0350996,-0.0142119,-0.146112,-0.104145,9.75326,0.00966671,0.432575,0.699562,-0.00145593,-0.00106732,0.0975323,1,0.000136851,2.96437e-05,-0.000283665,0.0273703,0.00592874,-0.0567329,0.998786,-0.0315188,0.0350996,-0.0142119,0.615754,0.123101,-0.688974,35.25,1,12987,21015493
83,3,0.998797,-0.0312104,0.0349492,-0.0144802,-0.26452,-0.0081225,9.79453,-0.0637928,0.651376,0.74322,-0.00263703,-9.54951e-05,0.0979455,1,8.01494e-05,4.19403e-05,-0.000270802,0.0160299,0.00838806,-0.0541603,0.998797,-0.0312104,0.0349492,-0.0144802,0.618541,0.121704,-0.694068,35.25,1,12988,21015593
83,4,0.998797,-0.0312104,0.0349492,-0.0144802,-0.26452,-0.0081225,9.79453,-0.0637928,0.651376,0.74322,-0.00263703,-9.54951e-05,0.0979455,1,8.01494e-05,4.19403e-05,-0.000270802,0.0160299,0.00838806,-0.0541603,0.998797,-0.0312104,0.0349492,-0.0144802,0.618541,0.121704,-0.694068,35.25,1,12988,21015593
85,1,0.998797,-0.0312104,0.0349492,-0.0144802,-0.26452,-0.0081225,9.79453,-0.0637928,0.651376,0.74322,-0.00263703,-9.54951e-05,0.0979455,1,8.01494e-05,4.19403e-05,-0.000270802,0.0160299,0.00838806,-0.0541603,0.998797,-0.0312104,0.0349492,-0.0144802,0.618541,0.121704,-0.694068,35.25,1,12988,21015593
85,2,0.998809,-0.0308663,0.0347865,-0.0147566,-0.248732,-0.21278,9.90802,-0.0506538,0.379603,0.934615,-0.00248255,-0.00214928,0.0990798,1,0.000115368,3.00597e-05,-0.000278791,0.0230735,0.00601193,-0.0557582,0.998809,-0.0308663,0.0347865,-0.0147566,0.619907,0.122713,-0.696577,35.25,1,12989,21015693
88,1,0.998809,-0.0308663,0.0347865,-0.0147566,-0.248732,-0.21278,9.90802,-0.0506538,0.379603,0.934615,-0.00248255,-0.00214928,0.0990798,1,0.000115368,3.00597e-05,-0.000278791,0.0230735,0.00601193,-0.0557582,0.998809,-0.0308663,0.0347865,-0.0147566,0.619907,0.122713,-0.696577,35.25,1,12989,21015693
88,2,0.998809,-0.0308663,0.0347865,-0.0147566,-0.248732,-0.21278,9.90802,-0.0506538,0.379603,0.934615,-0.00248255,-0.00214928,0.0990798,1,0.000115368,3.00597e-05,-0.000278791,0.0230735,0.00601193,-0.0557582,0.998809,-0.0308663,0.0347865,-0.0147566,0.619907,0.122713,-0.696577,35.25,1,12989,21015693
88,3,0.998821,-0.0305291,0.0346179,-0.0150312,-0.540476,-0.0636206,9.7118,-0.359606,0.555224,0.706306,-0.00540037,-0.0006544,0.0971181,1,0.00010908,2.44343e-05,-0.000277027,0.0218161,0.00488687,-0.0554054,0.998821,-0.0305291,0.0346179,-0.0150312,0.619471,0.122202,-0.695071,35.25,1,12990,21015793
88,4,0.998821,-0.0305291,0.0346179,-0.0150312,-0.540476,-0.0636206,9.7118,-0.359606,0.555224,0.706306,-0.00540037,-0.0006544,0.0971181,1,0.00010908,2.44343e-05,-0.000277027,0.0218161,0.00488687,-0.0554054,0.998821,-0.0305291,0.0346179,-0.0150312,0.619471,0.122202,-0.695071,35.25,1,12990,21015793
88,5,0.998821,-0.0305291,0.0346179,-0.0150312,-0.540476,-0.0636206,9.7118,-0.359606,0.555224,0.706306,-0.00540037,-0.0006544,0.0971181,1,0.00010908,2.44343e-05,-0.000277027,0.0218161,0.00488687,-0.0554054,0.998821,-0.0305291,0.0346179,-0.0150312,0.619471,0.122202,-0.695071,35.25,1,12990,21015793
88,6,0.998835,-0.0301817,0.0343914,-0.015316,-0.356116,0.129873,9.67797,-0.241532,0.755883,0.564132,-0.00356721,0.00127754,0.0967797,1,0.000120113,-3.51396e-05,-0.000289143,0.0240227,-0.00702792,-0.0578285,0.998835,-0.0301817,0.0343914,-0.015316,0.617077,0.122213,-0.694555,35.25,1,12991,21015893
90,1,0.998835,-0.0301817,0.0343914,-0.015316,-0.356116,0.129873,9.67797,-0.241532,0.755883,0.564132,-0.00356721,0.00127754,0.0967797,1,0.000120113,-3.51396e-05,-0.000289143,0.0240227,-0.00702792,-0.0578285,0.998835,-0.0301817,0.0343914,-0.015316,0.617077,0.122213,-0.694555,35.25,1,12991,21015893
90,2,0.998835,-0.0301817,0.0343914,-0.015316,-0.356116,0.129873,9.67797,-0.241532,0.755883,0.564132,-0.00356721,0.00127754,0.0967797,1,0.000120113,-3.51396e-05,-0.000289143,0.0240227,-0.00702792,-0.0578285,0.998835,-0.0301817,0.0343914,-0.015316,0.617077,0.122213,-0.694555,35.25,1,12991,21015893
90,3,0.998849,-0.0298261,0.03418,-0.0155908,-0.165338,0.0189976,9.81479,0.0359355,0.651931,0.618345,-0.00165735,0.000166168,0.0981479,1,0.000125997,-2.07194e-05,-0.000279039,0.0251994,-0.00414387,-0.0558079,0.998849,-0.0298261,0.03418,-0.0155908,0.619059,0.121673,-0.692556,35.25,1,12992,21015993
90,4,0.998849,-0.0298261,0.03418,-0.0155908,-0.165338,0.0189976,9.81479,0.0359355,0.651931,0.618345,-0.00165735,0.000166168,0.0981479,1,0.000125997,-2.07194e-05,-0.000279039,0.0251994,-0.00414387,-0.0558079,0.998849,-0.0298261,0.03418,-0.0155908,0.619059,0.121673,-0.692556,35.25,1,12992,21015993
109,1,0.998849,-0.0298261,0.03418,-0.0155908,-0.165338,0.0189976,9.81479,0.0359355,0.651931,0.618345,-0.00165735,0.000166168,0.0981479,1,0.000125997,-2.07194e-05,-0.000279039,0.0251994,-0.00414387,-0.0558079,0.998849,-0.0298261,0.03418,-0.0155908,0.619059,0.121673,-0.692556,35.25,1,12992,21015993
109,2,0.998861,-0.0294819,0.0339909,-0.015878,0.0292542,0.0459146,10.1512,0.200238,0.693135,1.01708,0.000293358,0.000435901,0.101512,1,0.000113653,2.73171e-06,-0.000291306,0.0227306,0.000546343,-0.0582612,0.998861,-0.0294819,0.0339909,-0.015878,0.621424,0.121201,-0.694598,35.25,1,12993,21016093
109,3,0.998861,-0.0294819,0.0339909,-0.015878,0.0292542,0.0459146,10.1512,0.200238,0.693135,1.01708,0.000293358,0.000435901,0.101512,1,0.000113653,2.73171e-06,-0.000291306,0.0227306,0.000546343,-0.0582612,0.998861,-0.0294819,0.0339909,-0.015878,0.621424,0.121201,-0.694598,35.25,1,12993,21016093
109,4,0.998861,-0.0294819,0.0339909,-0.015878,0.0292542,0.0459146,10.1512,0.200238,0.693135,1.01708,0.000293358,0.000435901,0.101512,1,0.000113653,2.73171e-06,-0.000291306,0.0227306,0.000546343,-0.0582612,0.998861,-0.0294819,0.0339909,-0.015878,0.621424,0.121201,-0.694598,35.25,1,12993,21016093
92,1,0.998871,-0.029137,0.033845,-0.0161718,-0.40313,-0.188827,9.83361,-0.219984,0.391124,0.868677,-0.00402289,-0.00190809,0.0983361,1,0.000112885,4.84625e-05,-0.000295865,0.0225771,0.0096925,-0.059173,0.998871,-0.029137,0.033845,-0.0161718,0.623726,0.120775,-0.699163,35.25,1,12994,21016193
92,2,0.998871,-0.029137,0.033845,-0.0161718,-0.40313,-0.188827,9.83361,-0.219984,0.391124,0.868677,-0.00402289,-0.00190809,0.0983361,1,0.000112885,4.84625e-05,-0.000295865,0.0225771,0.0096925,-0.059173,0.998871,-0.029137,0.033845,-0.0161718,0.623726,0.120775,-0.699163,35.25,1,12994,21016193
111,1,0.998871,-0.029137,0.033845,-0.0161718,-0.40313,-0.188827,9.83361,-0.219984,0.391124,0.868677,-0.00402289,-0.00190809,0.0983361,1,0.000112885,4.84625e-05,-0.000295865,0.0225771,0.0096925,-0.059173,0.998871,-0.029137,0.033845,-0.0161718,0.623726,0.120775,-0.699163,35.25,1,12994,21016193
111,2,0.998883,-0.0287925,0.0336465,-0.0164615,-0.656112,0.238385,9.52623,-0.554864,0.752992,0.575224,-0.00656075,0.00236599,0.0952628,1,0.000113952,-5.36528e-06,-0.000293658,0.0227903,-0.00107306,-0.0587317,0.998883,-0.0287925,0.0336465,-0.0164615,0.624207,0.119325,-0.700208,35.25,1,12995,21016293
111,3,0.998883,-0.0287925,0.0336465,-0.0164615,-0.656112,0.238385,9.52623,-0.554864,0.752992,0.575224,-0.00656075,0.00236599,0.0952628,1,0.000113952,-5.36528e-06,-0.000293658,0.0227903,-0.00107306,-0.0587317,0.998883,-0.0287925,0.0336465,-0.0164615,0.624207,0.119325,-0.700208,35.25,1,12995,21016293
111,4,0.998883,-0.0287925,0.0336465,-0.0164615,-0.656112,0.238385,9.52623,-0.554864,0.752992,0.575224,-0.00656075,0.00236599,0.0952628,1,0.000113952,-5.36528e-06,-0.000293658,0.0227903,-0.00107306,-0.0587317,0.998883,-0.0287925,0.0336465,-0.0164615,0.624207,0.119325,-0.700208,35.25,1,12995,21016293
94,1,0.998895,-0.0284818,0.0334244,-0.0167745,-0.208041,0.152491,9.83014,-0.0943152,0.670578,0.804095,-0.00208575,0.00151062,0.0983015,1,7.95002e-05,-3.20845e-05,-0.000320591,0.0159,-0.00641691,-0.0641182,0.998895,-0.0284818,0.0334244,-0.0167745,0.625231,0.119272,-0.697688,35.25,1,12996,21016393
94,2,0.998895,-0.0284818,0.0334244,-0.0167745,-0.208041,0.152491,9.83014,-0.0943152,0.670578,0.804095,-0.00208575,0.00151062,0.0983015,1,7.95002e-05,-3.20845e-05,-0.000320591,0.0159,-0.00641691,-0.0641182,0.998895,-0.0284818,0.0334244,-0.0167745,0.625231,0.119272,-0.697688,35.25,1,12996,21016393
95,1,0.998895,-0.0284818,0.0334244,-0.0167745,-0.208041,0.152491,9.83014,-0.0943152,0.670578,0.804095,-0.00208575,0.00151062,0.0983015,1,7.95002e-05,-3.20845e-05,-0.000320591,0.0159,-0.00641691,-0.0641182,0.998895,-0.0284818,0.0334244,-0.0167745,0.625231,0.119272,-0.697688,35.25,1,12996,21016393
95,2,0.998905,-0.0281699,0.0332144,-0.0170885,-0.0347778,0.173683,10.011,0.0797635,0.744812,0.910491,-0.000350637,0.00172124,0.10011,1,7.8984e-05,-1.98318e-05,-0.000321565,0.0157968,-0.00396636,-0.0643129,0.998905,-0.0281699,0.0332144,-0.0170885,0.624799,0.11924,-0.695667,35.25,1,12997,21016493
96,1,0.998905,-0.0281699,0.0332144,-0.0170885,-0.0347778,0.173683,10.011,0.0797635,0.744812,0.910491,-0.000350637,0.00172124,0.10011,1,7.8984e-05,-1.98318e-05,-0.000321565,0.0157968,-0.00396636,-0.0643129,0.998905,-0.0281699,0.0332144,-0.0170885,0.624799,0.11924,-0.695667,35.25,1,12997,21016493
96,2,0.998905,-0.0281699,0.0332144,-0.0170885,-0.0347778,0.173683,10.011,0.0797635,0.744812,0.910491,-0.000350637,0.00172124,0.10011,1,7.8984e-05,-1.98318e-05,-0.000321565,0.0157968,-0.00396636,-0.0643129,0.998905,-0.0281699,0.0332144,-0.0170885,0.624799,0.11924,-0.695667,35.25,1,12997,21016493
97,1,0.998913,-0.0278763,0.0330444,-0.0174144,-0.252495,0.150588,9.78666,0.0016155,0.704823,0.745705,-0.00251974,0.00149608,0.0978668,1,5.86214e-05,2.15161e-05,-0.000332649,0.0117243,0.00430322,-0.0665298,0.998913,-0.0278763,0.0330444,-0.0174144,0.624371,0.116796,-0.695214,35.25,1,12998,21016593
97,2,0.998913,-0.0278763,0.0330444,-0.0174144,-0.252495,0.150588,9.78666,0.0016155,0.704823,0.745705,-0.00251974,0.00149608,0.0978668,1,5.86214e-05,2.15161e-05,-0.000332649,0.0117243,0.00430322,-0.0665298,0.998913,-0.0278763,0.0330444,-0.0174144,0.624371,0.116796,-0.695214,35.25,1,12998,21016593
98,1,0.998913,-0.0278763,0.0330444,-0.0174144,-0.252495,0.150588,9.78666,0.0016155,0.704823,0.745705,-0.00251974,0.00149608,0.0978668,1,5.86214e-05,2.15161e-05,-0.000332649,0.0117243,0.00430322,-0.0665298,0.998913,-0.0278763,0.0330444,-0.0174144,0.624371,0.116796,-0.695214,35.25,1,12998,21016593
98,2,0.998922,-0.0276067,0.032838,-0.0177405,-0.250693,-0.115161,9.8261,-0.1321,0.496812,0.714765,-0.00251073,-0.00115662,0.0982608,1,3.40574e-05,-1.5395e-05,-0.000335455,0.00681148,-0.003079,-0.0670909,0.998922,-0.0276067,0.032838,-0.0177405,0.627191,0.114893,-0.69931,35.25,1,12999,21016693
99,1,0.998922,-0.0276067,0.032838,-0.0177405,-0.250693,-0.115161,9.8261,-0.1321,0.496812,0.714765,-0.00251073,-0.00115662,0.0982608,1,3.40574e-05,-1.5395e-05,-0.000335455,0.00681148,-0.003079,-0.0670909,0.998922,-0.0276067,0.032838,-0.0177405,0.627191,0.114893,-0.69931,35.25,1,12999,21016693
99,2,0.998922,-0.0276067,0.032838,-0.0177405,-0.250693,-0.115161,9.8261,-0.1321,0.496812,0.714765,-0.00251073,-0.00115662,0.0982608,1,3.40574e-05,-1.5395e-05,-0.000335455,0.00681148,-0.003079,-0.0670909,0.998922,-0.0276067,0.032838,-0.0177405,0.627191,0.114893,-0.69931,35.25,1,12999,21016693
100,1,0.998931,-0.0272879,0.0326476,-0.0180764,-0.35933,-0.267675,9.86387,-0.213991,0.366578,0.732156,-0.00359477,-0.00269089,0.0986382,1,8.41297e-05,1.84591e-06,-0.000342016,0.0168259,0.000369182,-0.0684031,0.998931,-0.0272879,0.0326476,-0.0180764,0.630978,0.113461,-0.702895,35.25,1,13000,21016793
100,2,0.998931,-0.0272879,0.0326476,-0.0180764,-0.35933,-0.267675,9.86387,-0.213991,0.366578,0.732156,-0.00359477,-0.00269089,0.0986382,1,8.41297e-05,1.84591e-06,-0.000342016,0.0168259,0.000369182,-0.0684031,0.998931,-0.0272879,0.0326476,-0.0180764,0.630978,0.113461,-0.702895,35.25,1,13000,21016793
100,3,0.998931,-0.0272879,0.0326476,-0.0180764,-0.35933,-0.267675,9.86387,-0.213991,0.366578,0.732156,-0.00359477,-0.00269089,0.0986382,1,8.41297e-05,1.84591e-06,-0.000342016,0.0168259,0.000369182,-0.0684031,0.998931,-0.0272879,0.0326476,-0.0180764,0.630978,0.113461,-0.702895,35.25,1,13000,21016793
100,4,0.99894,-0.0269444,0.0324644,-0.0184108,-0.202407,-0.236211,9.7871,-0.0829269,0.270065,0.795579,-0.00202419,-0.00238238,0.0978705,1,0.000110578,7.63749e-06,-0.000340475,0.0221156,0.0015275,-0.068095,0.99894,-0.0269444,0.0324644,-0.0184108,0.630403,0.116907,-0.704331,35.25,1,13001,21016893
101,1,0.99894,-0.0269444,0.0324644,-0.0184108,-0.202407,-0.236211,9.7871,-0.0829269,0.270065,0.795579,-0.00202419,-0.00238238,0.0978705,1,0.000110578,7.63749e-06,-0.000340475,0.0221156,0.0015275,-0.068095,0.99894,-0.0269444,0.0324644,-0.0184108,0.630403,0.116907,-0.704331,35.25,1,13001,21016893
101,2,0.99894,-0.0269444,0.0324644,-0.0184108,-0.202407,-0.236211,9.7871,-0.0829269,0.270065,0.795579,-0.00202419,-0.00238238,0.0978705,1,0.000110578,7.63749e-06,-0.000340475,0.0221156,0.0015275,-0.068095,0.99894,-0.0269444,0.0324644,-0.0184108,0.630403,0.116907,-0.704331,35.25,1,13001,21016893
102,1,0.998948,-0.0266375,0.0322915,-0.0187188,-0.216709,-0.174349,9.83521,-0.0276235,0.274732,0.902429,-0.00216485,-0.00175686,0.0983519,1,7.49232e-05,1.69909e-05,-0.000314138,0.0149846,0.00339818,-0.0628277,0.998948,-0.0266375,0.0322915,-0.0187188,0.63042,0.118822,-0.702268,35.25,1,13002,21016993
102,2,0.998948,-0.0266375,0.0322915,-0.0187188,-0.216709,-0.174349,9.83521,-0.0276235,0.274732,0.902429,-0.00216485,-0.00175686,0.0983519,1,7.49232e-05,1.69909e-05,-0.000314138,0.0149846,0.00339818,-0.0628277,0.998948,-0.0266375,0.0322915,-0.0187188,0.63042,0.118822,-0.702268,35.25,1,13002,21016993
104,1,0.998948,-0.0266375,0.0322915,-0.0187188,-0.216709,-0.174349,9.83521,-0.0276235,0.274732,0.902429,-0.00216485,-0.00175686,0.0983519,1,7.49232e-05,1.69909e-05,-0.000314138,0.0149846,0.00339818,-0.0628277,0.998948,-0.0266375,0.0322915,-0.0187188,0.63042,0.118822,-0.702268,35.25,1,13002,21016993
104,2,0.998958,-0.0262979,0.0321024,-0.0190082,-0.14701,0.0126745,9.89636,-0.121004,0.525824,0.851148,-0.00146993,0.000106094,0.0989636,1,0.000108713,5.1224e-07,-0.000294567,0.0217427,0.000102448,-0.0589133,0.998958,-0.0262979,0.0321024,-0.0190082,0.630053,0.116333,-0.699291,35.25,1,13003,21017093
105,1,0.998958,-0.0262979,0.0321024,-0.0190082,-0.14701,0.0126745,9.89636,-0.121004,0.525824,0.851148,-0.00146993,0.000106094,0.0989636,1,0.000108713,5.1224e-07,-0.000294567,0.0217427,0.000102448,-0.0589133,0.998958,-0.0262979,0.0321024,-0.0190082,0.630053,0.116333,-0.699291,35.25,1,13003,21017093
105,2,0.998958,-0.0262979,0.0321024,-0.0190082,-0.14701,0.0126745,9.89636,-0.121004,0.525824,0.851148,-0.00146993,0.000106094,0.0989636,1,0.000108713,5.1224e-07,-0.000294567,0.0217427,0.000102448,-0.0589133,0.998958,-0.0262979,0.0321024,-0.0190082,0.630053,0.116333,-0.699291,35.25,1,13003,21017093
105,3,0.998966,-0.0260067,0.0319183,-0.0193016,-0.46551,0.229604,9.56388,-0.380425,0.781033,0.457606,-0.0046527,0.00228727,0.0956391,1,6.04403e-05,5.34209e-06,-0.000299546,0.0120881,0.00106842,-0.0599091,0.998966,-0.0260067,0.0319183,-0.0193016,0.631064,0.113398,-0.699361,35.25,1,13004,21017193
105,4,0.998966,-0.0260067,0.0319183,-0.0193016,-0.46551,0.229604,9.56388,-0.380425,0.781033,0.457606,-0.0046527,0.00228727,0.0956391,1,6.04403e-05,5.34209e-06,-0.000299546,0.0120881,0.00106842,-0.0599091,0.998966,-0.0260067,0.0319183,-0.0193016,0.631064,0.113398,-0.699361,35.25,1,13004,21017193
105,5,0.998966,-0.0260067,0.0319183,-0.0193016,-0.46551,0.229604,9.56388,-0.380425,0.781033,0.457606,-0.0046527,0.00228727,0.0956391,1,6.04403e-05,5.34209e-06,-0.000299546,0.0120881,0.00106842,-0.0599091,0.998966,-0.0260067,0.0319183,-0.0193016,0.631064,0.113398,-0.699361,35.25,1,13004,21017193
105,6,0.998975,-0.0257186,0.0316804,-0.0196104,-0.264156,0.0252393,9.57913,-0.288765,0.492758,0.452533,-0.00265109,0.000243049,0.0957911,1,5.75513e-05,-5.05905e-05,-0.000317782,0.0115103,-0.0101181,-0.0635564,0.998975,-0.0257186,0.0316804,-0.0196104,0.633827,0.113464,-0.704423,35.25,1,13005,21017293
106,1,0.998975,-0.0257186,0.0316804,-0.0196104,-0.264156,0.0252393,9.57913,-0.288765,0.492758,0.452533,-0.00265109,0.000243049,0.0957911,1,5.75513e-05,-5.05905e-05,-0.000317782,0.0115103,-0.0101181,-0.0635564,0.998975,-0.0257186,0.0316804,-0.0196104,0.633827,0.113464,-0.704423,35.25,1,13005,21017293
106,2,0.998975,-0.0257186,0.0316804,-0.0196104,-0.264156,0.0252393,9.57913,-0.288765,0.492758,0.452533,-0.00265109,0.000243049,0.0957911,1,5.75513e-05,-5.05905e-05,-0.000317782,0.0115103,-0.0101181,-0.0635564,0.998975,-0.0257186,0.0316804,-0.0196104,0.633827,0.113464,-0.704423,35.25,1,13005,21017293
126,1,0.99898,-0.0254562,0.0315105,-0.0199366,0.0356577,-0.0278963,10.1699,0.214066,0.49868,1.14735,0.00035982,-0.000285561,0.101699,1,3.12611e-05,1.68701e-05,-0.000334408,0.00625222,0.00337402,-0.0668816,0.99898,-0.0254562,0.0315105,-0.0199366,0.636652,0.11204,-0.708003,35.25,1,13006,21017393
126,2,0.99898,-0.0254562,0.0315105,-0.0199366,0.0356577,-0.0278963,10.1699,0.214066,0.49868,1.14735,0.00035982,-0.000285561,0.101699,1,3.12611e-05,1.68701e-05,-0.000334408,0.00625222,0.00337402,-0.0668816,0.99898,-0.0254562,0.0315105,-0.0199366,0.636652,0.11204,-0.708003,35.25,1,13006,21017393
126,3,0.99898,-0.0254562,0.0315105,-0.0199366,0.0356577,-0.0278963,10.1699,0.214066,0.49868,1.14735,0.00035982,-0.000285561,0.101699,1,3.12611e-05,1.68701e-05,-0.000334408,0.00625222,0.00337402,-0.0668816,0.99898,-0.0254562,0.0315105,-0.0199366,0.636652,0.11204,-0.708003,35.25,1,13006,21017393
126,4,0.998986,-0.0251664,0.0313674,-0.0202537,-0.192039,-0.321076,10.2164,-0.0180417,0.210332,1.21999,-0.00191312,-0.00322145,0.102164,1,5.83347e-05,4.57103e-05,-0.000322394,0.0116669,0.00914206,-0.0644788,0.998986,-0.0251664,0.0313674,-0.0202537,0.638046,0.112064,-0.710029,35.25,1,13007,21017493
126,5,0.998986,-0.0251664,0.0313674,-0.0202537,-0.192039,-0.321076,10.2164,-0.0180417,0.210332,1.21999,-0.00191312,-0.00322145,0.102164,1,5.83347e-05,4.57103e-05,-0.000322394,0.0116669,0.00914206,-0.0644788,0.998986,-0.0251664,0.0313674,-0.0202537,0.638046,0.112064,-0.710029,35.25,1,13007,21017493
126,6,0.998986,-0.0251664,0.0313674,-0.0202537,-0.192039,-0.321076,10.2164,-0.0180417,0.210332,1.21999,-0.00191312,-0.00322145,0.102164,1,5.83347e-05,4.57103e-05,-0.000322394,0.0116669,0.00914206,-0.0644788,0.998986,-0.0251664,0.0313674,-0.0202537,0.638046,0.112064,-0.710029,35.25,1,13007,21017493
127,1,0.998993,-0.0248502,0.0311916,-0.0205831,-0.620161,-0.315008,9.69936,-0.598318,0.214805,0.687326,-0.00620107,-0.00316313,0.0969932,1,8.86146e-05,1.36529e-05,-0.00033445,0.0177229,0.00273059,-0.0668901,0.998993,-0.0248502,0.0311916,-0.0205831,0.638577,0.113469,-0.70697,35.25,1,13008,21017593
127,2,0.998993,-0.0248502,0.0311916,-0.0205831,-0.620161,-0.315008,9.69936,-0.598318,0.214805,0.687326,-0.00620107,-0.00316313,0.0969932,1,8.86146e-05,1.36529e-05,-0.00033445,0.0177229,0.00273059,-0.0668901,0.998993,-0.0248502,0.0311916,-0.0205831,0.638577,0.113469,-0.70697,35.25,1,13008,21017593
127,3,0.998993,-0.0248502,0.0311916,-0.0205831,-0.620161,-0.315008,9.69936,-0.598318,0.214805,0.687326,-0.00620107,-0.00316313,0.0969932,1,8.86146e-05,1.36529e-05,-0.00033445,0.0177229,0.00273059,-0.0668901,0.998993,-0.0248502,0.0311916,-0.0205831,0.638577,0.113469,-0.70697,35.25,1,13008,21017593
127,4,0.999001,-0.0245183,0.0309671,-0.0208844,-0.138047,-0.222642,9.93368,-0.132549,0.186617,0.891463,-0.0013895,-0.00224689,0.0993362,1,0.000107311,-3.85444e-05,-0.000307043,0.0214622,-0.00770888,-0.0614086,0.999001,-0.0245183,0.0309671,-0.0208844,0.635834,0.112906,-0.701414,35.25,1,13009,21017693
110,1,0.999001,-0.0245183,0.0309671,-0.0208844,-0.138047,-0.222642,9.93368,-0.132549,0.186617,0.891463,-0.0013895,-0.00224689,0.0993362,1,0.000107311,-3.85444e-05,-0.000307043,0.0214622,-0.00770888,-0.0614086,0.999001,-0.0245183,0.0309671,-0.0208844,0.635834,0.112906,-0.701414,35.25,1,13009,21017693
110,2,0.999001,-0.0245183,0.0309671,-0.0208844,-0.138047,-0.222642,9.93368,-0.132549,0.186617,0.891463,-0.0013895,-0.00224689,0.0993362,1,0.000107311,-3.85444e-05,-0.000307043,0.0214622,-0.00770888,-0.0614086,0.999001,-0.0245183,0.0309671,-0.0208844,0.635834,0.112906,-0.701414,35.25,1,13009,21017693
135,1,0.999009,-0.0241576,0.0307878,-0.0212131,-0.129892,0.156986,9.70315,-0.15664,0.557477,0.630764,-0.00129632,0.00154393,0.0970319,1,0.000138088,8.09648e-06,-0.000331303,0.0276176,0.0016193,-0.0662605,0.999009,-0.0241576,0.0307878,-0.0212131,0.635887,0.110458,-0.700964,35.25,1,13010,21017793
135,2,0.999009,-0.0241576,0.0307878,-0.0212131,-0.129892,0.156986,9.70315,-0.15664,0.557477,0.630764,-0.00129632,0.00154393,0.0970319,1,0.000138088,8.09648e-06,-0.000331303,0.0276176,0.0016193,-0.0662605,0.999009,-0.0241576,0.0307878,-0.0212131,0.635887,0.110458,-0.700964,35.25,1,13010,21017793
135,3,0.999009,-0.0241576,0.0307878,-0.0212131,-0.129892,0.156986,9.70315,-0.15664,0.557477,0.630764,-0.00129632,0.00154393,0.0970319,1,0.000138088,8.09648e-06,-0.000331303,0.0276176,0.0016193,-0.0662605,0.999009,-0.0241576,0.0307878,-0.0212131,0.635887,0.110458,-0.700964,35.25,1,13010,21017793
135,4,0.999013,-0.0239196,0.030626,-0.0215277,-0.173588,0.436777,9.73025,-0.00810138,0.847948,0.694558,-0.00172871,0.00436612,0.0973027,1,1.41827e-05,2.24381e-05,-0.000321659,0.00283654,0.00448762,-0.0643318,0.999013,-0.0239196,0.030626,-0.0215277,0.639155,0.109057,-0.706061,35.25,1,13011,21017893
112,1,0.999013,-0.0239196,0.030626,-0.0215277,-0.173588,0.436777,9.73025,-0.00810138,0.847948,0.694558,-0.00172871,0.00436612,0.0973027,1,1.41827e-05,2.24381e-05,-0.000321659,0.00283654,0.00448762,-0.0643318,0.999013,-0.0239196,0.030626,-0.0215277,0.639155,0.109057,-0.706061,35.25,1,13011,21017893
112,2,0.999013,-0.0239196,0.030626,-0.0215277,-0.173588,0.436777,9.73025,-0.00810138,0.847948,0.694558,-0.00172871,0.00436612,0.0973027,1,1.41827e-05,2.24381e-05,-0.000321659,0.00283654,0.00448762,-0.0643318,0.999013,-0.0239196,0.030626,-0.0215277,0.639155,0.109057,-0.706061,35.25,1,13011,21017893
137,1,0.999017,-0.0236538,0.030465,-0.0218686,-0.255374,-0.094741,9.45489,-0.154134,0.347454,0.458285,-0.00254985,-0.000953261,0.0945489,1,4.03237e-05,2.40581e-05,-0.000347592,0.00806473,0.00481161,-0.0695185,0.999017,-0.0236538,0.030465,-0.0218686,0.643452,0.106637,-0.709165,35.25,1,13012,21017993
137,2,0.999017,-0.0236538,0.030465,-0.0218686,-0.255374,-0.094741,9.45489,-0.154134,0.347454,0.458285,-0.00254985,-0.000953261,0.0945489,1,4.03237e-05,2.40581e-05,-0.000347592,0.00806473,0.00481161,-0.0695185,0.999017,-0.0236538,0.030465,-0.0218686,0.643452,0.106637,-0.709165,35.25,1,13012,21017993
137,3,0.999017,-0.0236538,0.030465,-0.0218686,-0.255374,-0.094741,9.45489,-0.154134,0.347454,0.458285,-0.00254985,-0.000953261,0.0945489,1,4.03237e-05,2.40581e-05,-0.000347592,0.00806473,0.00481161,-0.0695185,0.999017,-0.0236538,0.030465,-0.0218686,0.643452,0.106637,-0.709165,35.25,1,13012,21017993
137,4,0.999022,-0.0233673,0.0302627,-0.0222042,-0.115428,-0.227681,9.83882,-0.0368158,0.26801,0.771763,-0.00115933,-0.0022885,0.0983879,1,6.34121e-05,-1.77121e-05,-0.000342859,0.0126824,-0.00354241,-0.0685717,0.999022,-0.0233673,0.0302627,-0.0222042,0.644842,0.107627,-0.710664,35.25,1,13013,21018093
114,1,0.999022,-0.0233673,0.0302627,-0.0222042,-0.115428,-0.227681,9.83882,-0.0368158,0.26801,0.771763,-0.00115933,-0.0022885,0.0983879,1,6.34121e-05,-1.77121e-05,-0.000342859,0.0126824,-0.00354241,-0.0685717,0.999022,-0.0233673,0.0302627,-0.0222042,0.644842,0.107627,-0.710664,35.25,1,13013,21018093
114,2,0.999022,-0.0233673,0.0302627,-0.0222042,-0.115428,-0.227681,9.83882,-0.0368158,0.26801,0.771763,-0.00115933,-0.0022885,0.0983879,1,6.34121e-05,-1.77121e-05,-0.000342859,0.0126824,-0.00354241,-0.0685717,0.999022,-0.0233673,0.0302627,-0.0222042,0.644842,0.107627,-0.710664,35.25,1,13013,21018093
115,1,0.999028,-0.0230295,0.0300853,-0.0225414,0.0183501,-0.309954,10.1201,0.0922572,0.138521,1.05583,0.000183048,-0.00312326,0.101201,1,0.000116572,8.24704e-06,-0.000341074,0.0233143,0.00164941,-0.0682149,0.999028,-0.0230295,0.0300853,-0.0225414,0.642946,0.108104,-0.70913,35.25,1,13014,21018193
115,2,0.999028,-0.0230295,0.0300853,-0.0225414,0.0183501,-0.309954,10.1201,0.0922572,0.138521,1.05583,0.000183048,-0.00312326,0.101201,1,0.000116572,8.24704e-06,-0.000341074,0.0233143,0.00164941,-0.0682149,0.999028,-0.0230295,0.0300853,-0.0225414,0.642946,0.108104,-0.70913,35.25,1,13014,21018193
116,1,0.999028,-0.0230295,0.0300853,-0.0225414,0.0183501,-0.309954,10.1201,0.0922572,0.138521,1.05583,0.000183048,-0.00312326,0.101201,1,0.000116572,8.24704e-06,-0.000341074,0.0233143,0.00164941,-0.0682149,0.999028,-0.0230295,0.0300853,-0.0225414,0.642946,0.108104,-0.70913,35.25,1,13014,21018193
116,2,0.999031,-0.0227077,0.0299457,-0.0228905,-0.357249,-0.0326056,9.86991,-0.258598,0.441362,0.877816,-0.00356333,-0.000343932,0.0986994,1,0.000103253,4.75884e-05,-0.000351159,0.0206506,0.00951768,-0.0702318,0.999031,-0.0227077,0.0299457,-0.0228905,0.642025,0.107118,-0.708137,35.25,1,13015,21018293
117,1,0.999031,-0.0227077,0.0299457,-0.0228905,-0.357249,-0.0326056,9.86991,-0.258598,0.441362,0.877816,-0.00356333,-0.000343932,0.0986994,1,0.000103253,4.75884e-05,-0.000351159,0.0206506,0.00951768,-0.0702318,0.999031,-0.0227077,0.0299457,-0.0228905,0.642025,0.107118,-0.708137,35.25,1,13015,21018293
117,2,0.999031,-0.0227077,0.0299457,-0.0228905,-0.357249,-0.0326056,9.86991,-0.258598,0.441362,0.877816,-0.00356333,-0.000343932,0.0986994,1,0.000103253,4.75884e-05,-0.000351159,0.0206506,0.00951768,-0.0702318,0.999031,-0.0227077,0.0299457,-0.0228905,0.642025,0.107118,-0.708137,35.25,1,13015,21018293
117,3,0.999036,-0.0224368,0.0297538,-0.0232174,-0.336232,0.0927142,9.49944,-0.286271,0.555297,0.482185,-0.00336325,0.000919116,0.0949944,1,5.39948e-05,-8.10587e-06,-0.000331959,0.0107989,-0.00162117,-0.0663918,0.999036,-0.0224368,0.0297538,-0.0232174,0.643521,0.106104,-0.706652,35.25,1,13016,21018393
117,4,0.999036,-0.0224368,0.0297538,-0.0232174,-0.336232,0.0927142,9.49944,-0.286271,0.555297,0.482185,-0.00336325,0.000919116,0.0949944,1,5.39948e-05,-8.10587e-06,-0.000331959,0.0107989,-0.00162117,-0.0663918,0.999036,-0.0224368,0.0297538,-0.0232174,0.643521,0.106104,-0.706652,35.25,1,13016,21018393
119,1,0.999036,-0.0224368,0.0297538,-0.0232174,-0.336232,0.0927142,9.49944,-0.286271,0.555297,0.482185,-0.00336325,0.000919116,0.0949944,1,5.39948e-05,-8.10587e-06,-0.000331959,0.0107989,-0.00162117,-0.0663918,0.999036,-0.0224368,0.0297538,-0.0232174,0.643521,0.106104,-0.706652,35.25,1,13016,21018393
119,2,0.99904,-0.0221411,0.0295535,-0.0235621,-0.0161357,0.210563,9.56341,-0.0115233,0.63656,0.501165,-0.000163234,0.00209047,0.0956344,1,7.9837e-05,-1.74841e-05,-0.000349668,0.0159674,-0.00349682,-0.0699336,0.99904,-0.0221411,0.0295535,-0.0235621,0.647891,0.102184,-0.707769,35.25,1,13017,21018493
119,3,0.99904,-0.0221411,0.0295535,-0.0235621,-0.0161357,0.210563,9.56341,-0.0115233,0.63656,0.501165,-0.000163234,0.00209047,0.0956344,1,7.9837e-05,-1.74841e-05,-0.000349668,0.0159674,-0.00349682,-0.0699336,0.99904,-0.0221411,0.0295535,-0.0235621,0.647891,0.102184,-0.707769,35.25,1,13017,21018493
119,4,0.99904,-0.0221411,0.0295535,-0.0235621,-0.0161357,0.210563,9.56341,-0.0115233,0.63656,0.501165,-0.000163234,0.00209047,0.0956344,1,7.9837e-05,-1.74841e-05,-0.000349668,0.0159674,-0.00349682,-0.0699336,0.99904,-0.0221411,0.0295535,-0.0235621,0.647891,0.102184,-0.707769,35.25,1,13017,21018493
120,1,0.999043,-0.0219136,0.029367,-0.0238955,0.0263565,0.380552,9.77354,0.0762695,0.830716,0.616442,0.000265178,0.00380326,0.0977354,1,1.06299e-05,-4.99499e-06,-0.000340402,0.00212597,-0.000998999,-0.0680804,0.999043,-0.0219136,0.029367,-0.0238955,0.650744,0.0997748,-0.710866,35.25,1,13018,21018593
120,2,0.999043,-0.0219136,0.029367,-0.0238955,0.0263565,0.380552,9.77354,0.0762695,0.830716,0.616442,0.000265178,0.00380326,0.0977354,1,1.06299e-05,-4.99499e-06,-0.000340402,0.00212597,-0.000998999,-0.0680804,0.999043,-0.0219136,0.029367,-0.0238955,0.650744,0.0997748,-0.710866,35.25,1,13018,21018593
121,1,0.999043,-0.0219136,0.029367,-0.0238955,0.0263565,0.380552,9.77354,0.0762695,0.830716,0.616442,0.000265178,0.00380326,0.0977354,1,1.06299e-05,-4.99499e-06,-0.000340402,0.00212597,-0.000998999,-0.0680804,0.999043,-0.0219136,0.029367,-0.0238955,0.650744,0.0997748,-0.710866,35.25,1,13018,21018593
121,2,0.999044,-0.0216746,0.0292165,-0.024239,0.188145,0.0217093,10.2107,0.182305,0.457144,1.16075,0.00188828,0.000211732,0.102107,1,1.98161e-05,3.26726e-05,-0.000348742,0.00396321,0.00653453,-0.0697484,0.999044,-0.0216746,0.0292165,-0.024239,0.651094,0.100349,-0.715906,35.25,1,13019,21018693
122,1,0.999044,-0.0216746,0.0292165,-0.024239,0.188145,0.0217093,10.2107,0.182305,0.457144,1.16075,0.00188828,0.000211732,0.102107,1,1.98161e-05,3.26726e-05,-0.000348742,0.00396321,0.00653453,-0.0697484,0.999044,-0.0216746,0.0292165,-0.024239,0.651094,0.100349,-0.715906,35.25,1,13019,21018693
122,2,0.999044,-0.0216746,0.0292165,-0.024239,0.188145,0.0217093,10.2107,0.182305,0.457144,1.16075,0.00188828,0.000211732,0.102107,1,1.98161e-05,3.26726e-05,-0.000348742,0.00396321,0.00653453,-0.0697484,0.999044,-0.0216746,0.0292165,-0.024239,0.651094,0.100349,-0.715906,35.25,1,13019,21018693
123,1,0.999043,-0.0214398,0.0291153,-0.0245972,-0.214805,-0.354215,10.104,-0.178879,0.083668,1.11846,-0.00213364,-0.00354378,0.10104,1,1.57082e-05,8.39824e-05,-0.000362243,0.00314164,0.0167965,-0.0724487,0.999043,-0.0214398,0.0291153,-0.0245972,0.651127,0.0998429,-0.714907,35.25,1,13020,21018793
123,2,0.999043,-0.0214398,0.0291153,-0.0245972,-0.214805,-0.354215,10.104,-0.178879,0.083668,1.11846,-0.00213364,-0.00354378,0.10104,1,1.57082e-05,8.39824e-05,-0.000362243,0.00314164,0.0167965,-0.0724487,0.999043,-0.0214398,0.0291153,-0.0245972,0.651127,0.0998429,-0.714907,35.25,1,13020,21018793
124,1,0.999043,-0.0214398,0.0291153,-0.0245972,-0.214805,-0.354215,10.104,-0.178879,0.083668,1.11846,-0.00213364,-0.00354378,0.10104,1,1.57082e-05,8.39824e-05,-0.000362243,0.00314164,0.0167965,-0.0724487,0.999043,-0.0214398,0.0291153,-0.0245972,0.651127,0.0998429,-0.714907,35.25,1,13020,21018793
124,2,0.999047,-0.0211206,0.0289325,-0.0249428,-0.979518,-0.590537,9.36134,-1.10348,-0.218615,0.434236,-0.00979857,-0.0059183,0.0936122,1,0.000105401,3.82127e-06,-0.000347578,0.0210802,0.000764255,-0.0695157,0.999047,-0.0211206,0.0289325,-0.0249428,0.651747,0.0987733,-0.709883,35.25,1,13021,21018893
125,1,0.999047,-0.0211206,0.0289325,-0.0249428,-0.979518,-0.590537,9.36134,-1.10348,-0.218615,0.434236,-0.00979857,-0.0059183,0.0936122,1,0.000105401,3.82127e-06,-0.000347578,0.0210802,0.000764255,-0.0695157,0.999047,-0.0211206,0.0289325,-0.0249428,0.651747,0.0987733,-0.709883,35.25,1,13021,21018893
125,2,0.999047,-0.0211206,0.0289325,-0.0249428,-0.979518,-0.590537,9.36134,-1.10348,-0.218615,0.434236,-0.00979857,-0.0059183,0.0936122,1,0.000105401,3.82127e-06,-0.000347578,0.0210802,0.000764255,-0.0695157,0.999047,-0.0211206,0.0289325,-0.0249428,0.651747,0.0987733,-0.709883,35.25,1,13021,21018893
