frame_id,imu_idx,accel_x,accel_y,accel_z,free_accel_x,free_accel_y,free_accel_z,delta_v_x,delta_v_y,delta_v_z,delta_q_w,delta_q_x,delta_q_y,delta_q_z,rate_x,rate_y,rate_z,quat_w,quat_x,quat_y,quat_z,mag_x,mag_y,mag_z,temperature,status_byte,packet_counter,time_fine
2,1,-0.742602,-0.0603161,9.80294,0.380384,-0.894502,0.893641,-0.00742689,-0.000614048,0.0980293,1,5.49741e-05,-4.50023e-06,7.36632e-06,0.0109948,-0.000900047,0.00147327,0,0,0,0,0.263775,0.305132,-0.911085,35.375,3,33238,3366937
2,2,-0.121687,-0.21572,7.11619,0.380384,-0.894502,0.893641,-0.00121766,-0.00219067,0.0711608,1,0.000235161,-5.58066e-06,9.99222e-07,0.0470322,-0.00111613,0.000199844,0,0,0,0,0.045111,0.511403,-0.994381,35.4375,1,52044,5249083
4,1,-0.121687,-0.21572,7.11619,0.380384,-0.894502,0.893641,-0.00121766,-0.00219067,0.0711608,1,0.000235161,-5.58066e-06,9.99222e-07,0.0470322,-0.00111613,0.000199844,0,0,0,0,0.045111,0.511403,-0.994381,35.4375,1,52044,5249083
4,2,-1.16611,0.517999,9.64059,-1.01186,0.363805,0.850929,-0.0116613,0.0051656,0.0964067,1,8.03639e-05,-3.30362e-06,-4.72244e-05,0.0160728,-0.000660724,-0.00944489,0,0,0,0,0.0437531,0.508461,-0.992925,35.4375,1,52045,5249183
4,3,-1.16611,0.517999,9.64059,-1.01186,0.363805,0.850929,-0.0116613,0.0051656,0.0964067,1,8.03639e-05,-3.30362e-06,-4.72244e-05,0.0160728,-0.000660724,-0.00944489,0,0,0,0,0.0437531,0.508461,-0.992925,35.4375,1,52045,5249183
4,4,-0.207692,0.106718,10.1997,0.0310268,0.31244,1.40895,-0.00208452,0.0010915,0.101997,1,-0.000119314,-3.72419e-05,4.18707e-06,-0.0238628,-0.00744839,0.000837414,0,0,0,0,0.0410832,0.504954,-0.986425,35.4375,1,52046,5249283
4,5,-0.207692,0.106718,10.1997,0.0310268,0.31244,1.40895,-0.00208452,0.0010915,0.101997,1,-0.000119314,-3.72419e-05,4.18707e-06,-0.0238628,-0.00744839,0.000837414,0,0,0,0,0.0410832,0.504954,-0.986425,35.4375,1,52046,5249283
4,6,-0.77462,-0.791653,9.62116,-0.479857,-0.883375,0.90783,-0.00774272,-0.00793463,0.0962104,1,9.10985e-05,1.50585e-05,3.69198e-05,0.0182197,0.00301171,0.00738395,0,0,0,0,0.0427154,0.50384,-0.979387,35.4375,1,52047,5249383
7,1,-0.77462,-0.791653,9.62116,-0.479857,-0.883375,0.90783,-0.00774272,-0.00793463,0.0962104,1,9.10985e-05,1.50585e-05,3.69198e-05,0.0182197,0.00301171,0.00738395,0,0,0,0,0.0427154,0.50384,-0.979387,35.4375,1,52047,5249383
7,2,-0.675013,-0.0773926,9.64533,-0.666093,-0.0262222,0.790471,-0.00676256,-0.000782851,0.0964523,1,4.37144e-05,-6.47116e-05,3.64588e-05,0.00874288,-0.0129423,0.00729176,0,0,0,0,0.0450318,0.50774,-0.980321,35.4375,1,52048,5249483
9,1,-0.675013,-0.0773926,9.64533,-0.666093,-0.0262222,0.790471,-0.00676256,-0.000782851,0.0964523,1,4.37144e-05,-6.47116e-05,3.64588e-05,0.00874288,-0.0129423,0.00729176,0,0,0,0,0.0450318,0.50774,-0.980321,35.4375,1,52048,5249483
9,2,-0.198717,-0.59597,10.0009,-0.0218189,-0.594995,1.23121,-0.00198282,-0.00596467,0.100009,1,2.3996e-05,1.91858e-05,4.2731e-05,0.0047992,0.00383716,0.0085462,0,0,0,0,0.046328,0.510727,-0.984301,35.4375,1,52049,5249583
9,3,-0.198717,-0.59597,10.0009,-0.0218189,-0.594995,1.23121,-0.00198282,-0.00596467,0.100009,1,2.3996e-05,1.91858e-05,4.2731e-05,0.0047992,0.00383716,0.0085462,0,0,0,0,0.046328,0.510727,-0.984301,35.4375,1,52049,5249583
9,4,-0.963536,-0.0445539,9.69802,-0.728979,-0.401202,0.928543,-0.00963383,-0.000469023,0.0969802,1,0.000122547,7.94454e-06,-1.48188e-05,0.0245094,0.00158891,-0.00296377,0,0,0,0,0.0466691,0.510343,-0.990372,35.4375,1,52050,5249683
9,5,-0.963536,-0.0445539,9.69802,-0.728979,-0.401202,0.928543,-0.00963383,-0.000469023,0.0969802,1,0.000122547,7.94454e-06,-1.48188e-05,0.0245094,0.00158891,-0.00296377,0,0,0,0,0.0466691,0.510343,-0.990372,35.4375,1,52050,5249683
9,6,-0.614253,0.517549,9.79135,-0.554722,0.305922,0.981026,-0.0061492,0.00516751,0.0979135,1,4.22654e-05,-3.53255e-05,-2.40554e-05,0.00845308,-0.00706511,-0.00481108,0,0,0,0,0.0428848,0.506473,-0.99044,35.4375,1,52051,5249783
9,7,-0.614253,0.517549,9.79135,-0.554722,0.305922,0.981026,-0.0061492,0.00516751,0.0979135,1,4.22654e-05,-3.53255e-05,-2.40554e-05,0.00845308,-0.00706511,-0.00481108,0,0,0,0,0.0428848,0.506473,-0.99044,35.4375,1,52051,5249783
9,8,-0.401416,0.159873,9.84043,-0.151637,-0.000182364,1.0699,-0.00401072,0.0015932,0.0984046,1,2.90164e-05,1.70824e-05,-2.27759e-05,0.00580329,0.00341647,-0.00455517,0,0,0,0,0.0406837,0.502971,-0.984447,35.4375,1,52052,5249883
10,1,-0.401416,0.159873,9.84043,-0.151637,-0.000182364,1.0699,-0.00401072,0.0015932,0.0984046,1,2.90164e-05,1.70824e-05,-2.27759e-05,0.00580329,0.00341647,-0.00455517,0,0,0,0,0.0406837,0.502971,-0.984447,35.4375,1,52052,5249883
10,2,-0.793983,-0.23081,9.78074,-0.647397,-0.310248,0.993098,-0.0079446,-0.00231263,0.0978069,1,2.33836e-05,-2.43206e-05,-2.72157e-06,0.00467672,-0.00486411,-0.000544313,0,0,0,0,0.0427111,0.503361,-0.979902,35.4375,1,52053,5249983
10,3,-0.793983,-0.23081,9.78074,-0.647397,-0.310248,0.993098,-0.0079446,-0.00231263,0.0978069,1,2.33836e-05,-2.43206e-05,-2.72157e-06,0.00467672,-0.00486411,-0.000544313,0,0,0,0,0.0427111,0.503361,-0.979902,35.4375,1,52053,5249983
10,4,-0.69821,-0.634634,9.77801,-0.566031,-0.75895,0.993225,-0.00698585,-0.00635958,0.097779,1,6.76121e-05,-1.9206e-05,1.04447e-06,0.0135224,-0.0038412,0.000208895,0,0,0,0,0.0455048,0.508224,-0.980312,35.4375,1,52054,5250083
11,1,-0.69821,-0.634634,9.77801,-0.566031,-0.75895,0.993225,-0.00698585,-0.00635958,0.097779,1,6.76121e-05,-1.9206e-05,1.04447e-06,0.0135224,-0.0038412,0.000208895,0,0,0,0,0.0455048,0.508224,-0.980312,35.4375,1,52054,5250083
11,2,-0.617925,-0.0995073,9.83459,-0.445587,-0.241337,1.04713,-0.00618346,-0.00100829,0.0983455,1,6.75636e-05,-2.13164e-05,-6.22489e-06,0.0135127,-0.00426327,-0.00124498,0,0,0,0,0.0468257,0.511193,-0.983283,35.4375,1,52055,5250183
12,1,-0.617925,-0.0995073,9.83459,-0.445587,-0.241337,1.04713,-0.00618346,-0.00100829,0.0983455,1,6.75636e-05,-2.13164e-05,-6.22489e-06,0.0135127,-0.00426327,-0.00124498,0,0,0,0,0.0468257,0.511193,-0.983283,35.4375,1,52055,5250183
12,2,-0.632949,-0.161033,9.79416,-0.474963,-0.32941,1.00214,-0.00633324,-0.00161689,0.0979412,1,3.14005e-05,-1.96953e-05,3.27977e-05,0.00628011,-0.00393906,0.00655954,0,0,0,0,0.0457397,0.509846,-0.989368,35.4375,1,52056,5250283
12,3,-0.632949,-0.161033,9.79416,-0.474963,-0.32941,1.00214,-0.00633324,-0.00161689,0.0979412,1,3.14005e-05,-1.96953e-05,3.27977e-05,0.00628011,-0.00393906,0.00655954,0,0,0,0,0.0457397,0.509846,-0.989368,35.4375,1,52056,5250283
12,4,-0.669693,0.0823638,9.78292,-0.539501,-0.120284,0.972056,-0.00669983,0.000813404,0.097829,1,5.10702e-05,-1.46252e-05,1.80617e-05,0.010214,-0.00292504,0.00361234,0,0,0,0,0.0433702,0.506948,-0.989927,35.4375,1,52057,5250383
10,1,-0.669693,0.0823638,9.78292,-0.539501,-0.120284,0.972056,-0.00669983,0.000813404,0.097829,1,5.10702e-05,-1.46252e-05,1.80617e-05,0.010214,-0.00292504,0.00361234,0,0,0,0,0.0433702,0.506948,-0.989927,35.4375,1,52057,5250383
10,2,-0.51938,0.170087,9.81588,-0.378974,0.0142357,1.02614,-0.00519633,0.00169318,0.0981588,1,3.95142e-05,-1.29492e-05,-6.12207e-06,0.00790284,-0.00258984,-0.00122441,0,0,0,0,0.0411368,0.505397,-0.98389,35.4375,1,52058,5250483
14,1,-0.51938,0.170087,9.81588,-0.378974,0.0142357,1.02614,-0.00519633,0.00169318,0.0981588,1,3.95142e-05,-1.29492e-05,-6.12207e-06,0.00790284,-0.00258984,-0.00122441,0,0,0,0,0.0411368,0.505397,-0.98389,35.4375,1,52058,5250483
14,2,-0.613241,-0.110835,9.77103,-0.446205,-0.254023,0.985324,-0.00613285,-0.0011164,0.0977102,1,4.13843e-05,-2.23495e-06,-2.65092e-06,0.00827685,-0.00044699,-0.000530184,0,0,0,0,0.0446199,0.505766,-0.978848,35.4375,1,52059,5250583
18,1,-0.613241,-0.110835,9.77103,-0.446205,-0.254023,0.985324,-0.00613285,-0.0011164,0.0977102,1,4.13843e-05,-2.23495e-06,-2.65092e-06,0.00827685,-0.00044699,-0.000530184,0,0,0,0,0.0446199,0.505766,-0.978848,35.4375,1,52059,5250583
18,2,-0.704235,-0.284389,9.78949,-0.539238,-0.408729,0.999484,-0.00704317,-0.00285288,0.0978946,1,4.6052e-05,-4.11867e-06,-1.85522e-06,0.0092104,-0.000823734,-0.000371044,0,0,0,0,0.0464471,0.510158,-0.979769,35.4375,1,52060,5250683
18,3,-0.704235,-0.284389,9.78949,-0.539238,-0.408729,0.999484,-0.00704317,-0.00285288,0.0978946,1,4.6052e-05,-4.11867e-06,-1.85522e-06,0.0092104,-0.000823734,-0.000371044,0,0,0,0,0.0464471,0.510158,-0.979769,35.4375,1,52060,5250683
18,4,-0.642558,-0.231191,9.80752,-0.502477,-0.400976,1.01223,-0.00642785,-0.00232589,0.0980747,1,7.08364e-05,-1.17738e-05,6.33081e-06,0.0141673,-0.00235476,0.00126616,0,0,0,0,0.0462995,0.511712,-0.984784,35.4375,1,52061,5250783
18,5,-0.642558,-0.231191,9.80752,-0.502477,-0.400976,1.01223,-0.00642785,-0.00232589,0.0980747,1,7.08364e-05,-1.17738e-05,6.33081e-06,0.0141673,-0.00235476,0.00126616,0,0,0,0,0.0462995,0.511712,-0.984784,35.4375,1,52061,5250783
18,6,-0.561749,-0.282428,9.78652,-0.394611,-0.444692,1.00791,-0.00562076,-0.00283233,0.0978648,1,4.06504e-05,-1.69499e-05,8.5089e-06,0.00813008,-0.00338998,0.00170178,0,0,0,0,0.0457112,0.51083,-0.989851,35.4375,1,52062,5250883
19,1,-0.561749,-0.282428,9.78652,-0.394611,-0.444692,1.00791,-0.00562076,-0.00283233,0.0978648,1,4.06504e-05,-1.69499e-05,8.5089e-06,0.00813008,-0.00338998,0.00170178,0,0,0,0,0.0457112,0.51083,-0.989851,35.4375,1,52062,5250883
19,2,-0.665005,-0.0926892,9.76341,-0.518443,-0.290446,0.972944,-0.00665415,-0.000940225,0.0976337,1,6.73494e-05,-2.11393e-05,1.36888e-05,0.0134699,-0.00422786,0.00273776,0,0,0,0,0.0448463,0.50643,-0.988935,35.4375,1,52063,5250983
19,3,-0.665005,-0.0926892,9.76341,-0.518443,-0.290446,0.972944,-0.00665415,-0.000940225,0.0976337,1,6.73494e-05,-2.11393e-05,1.36888e-05,0.0134699,-0.00422786,0.00273776,0,0,0,0,0.0448463,0.50643,-0.988935,35.4375,1,52063,5250983
19,4,-0.492492,0.0810055,9.83224,-0.363531,-0.107863,1.03291,-0.00493076,0.000794922,0.0983222,1,7.64132e-05,-2.96157e-05,1.08597e-05,0.0152826,-0.00592313,0.00217194,0,0,0,0,0.0411938,0.503427,-0.982924,35.4375,1,52064,5251083
20,1,-0.492492,0.0810055,9.83224,-0.363531,-0.107863,1.03291,-0.00493076,0.000794922,0.0983222,1,7.64132e-05,-2.96157e-05,1.08597e-05,0.0152826,-0.00592313,0.00217194,0,0,0,0,0.0411938,0.503427,-0.982924,35.4375,1,52064,5251083
20,2,-0.477764,0.0691401,9.81542,-0.317438,-0.0859809,1.02786,-0.0047779,0.000684275,0.0981542,1,3.56101e-05,-1.24051e-06,1.41169e-05,0.00712202,-0.000248102,0.00282338,0,0,0,0,0.0412806,0.50481,-0.978348,35.4375,1,52065,5251183
21,1,-0.477764,0.0691401,9.81542,-0.317438,-0.0859809,1.02786,-0.0047779,0.000684275,0.0981542,1,3.56101e-05,-1.24051e-06,1.41169e-05,0.00712202,-0.000248102,0.00282338,0,0,0,0,0.0412806,0.50481,-0.978348,35.4375,1,52065,5251183
21,2,-0.531653,-0.0996797,9.79805,-0.381109,-0.247034,1.00269,-0.00531456,-0.00100362,0.0979805,1,3.47067e-05,1.00768e-05,1.59594e-06,0.00694134,0.00201536,0.000319188,0,0,0,0,0.0431524,0.507241,-0.978808,35.4375,1,52066,5251283
22,1,-0.531653,-0.0996797,9.79805,-0.381109,-0.247034,1.00269,-0.00531456,-0.00100362,0.0979805,1,3.47067e-05,1.00768e-05,1.59594e-06,0.00694134,0.00201536,0.000319188,0,0,0,0,0.0431524,0.507241,-0.978808,35.4375,1,52066,5251283
22,2,-0.504806,-0.245175,9.81121,-0.350272,-0.406236,1.01021,-0.00504883,-0.0024616,0.0981118,1,5.04031e-05,-3.8131e-06,-4.73488e-06,0.0100806,-0.00076262,-0.000946975,0,0,0,0,0.0458801,0.511671,-0.982258,35.4375,1,52067,5251383
23,1,-0.504806,-0.245175,9.81121,-0.350272,-0.406236,1.01021,-0.00504883,-0.0024616,0.0981118,1,5.04031e-05,-3.8131e-06,-4.73488e-06,0.0100806,-0.00076262,-0.000946975,0,0,0,0,0.0458801,0.511671,-0.982258,35.4375,1,52067,5251383
23,2,-0.466684,-0.216259,9.80577,-0.324642,-0.383398,1.01243,-0.00466775,-0.00217029,0.0980575,1,3.94899e-05,-4.54696e-06,-4.49266e-06,0.00789798,-0.000909392,-0.000898531,0,0,0,0,0.0447451,0.511805,-0.98932,35.4375,1,52068,5251483
24,1,-0.466684,-0.216259,9.80577,-0.324642,-0.383398,1.01243,-0.00466775,-0.00217029,0.0980575,1,3.94899e-05,-4.54696e-06,-4.49266e-06,0.00789798,-0.000909392,-0.000898531,0,0,0,0,0.0447451,0.511805,-0.98932,35.4375,1,52068,5251483
24,2,-0.451459,-0.154869,9.79332,-0.303819,-0.345501,1.00146,-0.00451775,-0.00156087,0.0979328,1,6.14749e-05,-1.6378e-05,1.51578e-05,0.012295,-0.00327559,0.00303157,0,0,0,0,0.0429175,0.505967,-0.989441,35.4375,1,52069,5251583
25,1,-0.451459,-0.154869,9.79332,-0.303819,-0.345501,1.00146,-0.00451775,-0.00156087,0.0979328,1,6.14749e-05,-1.6378e-05,1.51578e-05,0.012295,-0.00327559,0.00303157,0,0,0,0,0.0429175,0.505967,-0.989441,35.4375,1,52069,5251583
25,2,-0.347225,-0.0341468,9.81841,-0.208613,-0.218991,1.02096,-0.0034751,-0.000354192,0.0981839,1,6.45183e-05,-1.4499e-05,7.87128e-06,0.0129037,-0.00289981,0.00157426,0,0,0,0,0.0421071,0.504901,-0.983906,35.4375,1,52070,5251683
25,3,-0.347225,-0.0341468,9.81841,-0.208613,-0.218991,1.02096,-0.0034751,-0.000354192,0.0981839,1,6.45183e-05,-1.4499e-05,7.87128e-06,0.0129037,-0.00289981,0.00157426,0,0,0,0,0.0421071,0.504901,-0.983906,35.4375,1,52070,5251683
25,4,-0.276934,0.00635451,9.81488,-0.122574,-0.138409,1.01459,-0.00277089,5.23223e-05,0.0981488,1,5.7023e-05,-7.91646e-06,5.29341e-06,0.0114046,-0.00158329,0.00105868,0,0,0,0,0.0436377,0.507716,-0.978295,35.4375,1,52071,5251783
29,1,-0.276934,0.00635451,9.81488,-0.122574,-0.138409,1.01459,-0.00277089,5.23223e-05,0.0981488,1,5.7023e-05,-7.91646e-06,5.29341e-06,0.0114046,-0.00158329,0.00105868,0,0,0,0,0.0436377,0.507716,-0.978295,35.4375,1,52071,5251783
29,2,-0.327262,-0.0819242,9.80565,-0.164841,-0.229873,1.00202,-0.00327469,-0.000829191,0.0980563,1,5.02653e-05,-1.06619e-05,1.39269e-05,0.0100531,-0.00213238,0.00278539,0,0,0,0,0.0454891,0.510645,-0.979248,35.4375,1,52072,5251883
30,1,-0.327262,-0.0819242,9.80565,-0.164841,-0.229873,1.00202,-0.00327469,-0.000829191,0.0980563,1,5.02653e-05,-1.06619e-05,1.39269e-05,0.0100531,-0.00213238,0.00278539,0,0,0,0,0.0454891,0.510645,-0.979248,35.4375,1,52072,5251883
30,2,-0.344552,-0.150656,9.79262,-0.205807,-0.331252,0.985306,-0.00344536,-0.00151551,0.0979261,1,4.59142e-05,9.01489e-07,-6.41507e-06,0.00918284,0.000180298,-0.00128301,0,0,0,0,0.0452965,0.512713,-0.985767,35.4375,1,52073,5251983
33,1,-0.344552,-0.150656,9.79262,-0.205807,-0.331252,0.985306,-0.00344536,-0.00151551,0.0979261,1,4.59142e-05,9.01489e-07,-6.41507e-06,0.00918284,0.000180298,-0.00128301,0,0,0,0,0.0452965,0.512713,-0.985767,35.4375,1,52073,5251983
33,2,-0.280795,-0.135929,9.82895,-0.13432,-0.321657,1.02853,-0.00280968,-0.00136971,0.0982894,1,5.34598e-05,-8.56824e-06,-1.53705e-05,0.010692,-0.00171365,-0.0030741,0,0,0,0,0.0437791,0.512779,-0.988789,35.4375,1,52074,5252083
33,3,-0.280795,-0.135929,9.82895,-0.13432,-0.321657,1.02853,-0.00280968,-0.00136971,0.0982894,1,5.34598e-05,-8.56824e-06,-1.53705e-05,0.010692,-0.00171365,-0.0030741,0,0,0,0,0.0437791,0.512779,-0.988789,35.4375,1,52074,5252083
33,4,-0.196345,-0.142008,9.85818,-0.0386481,-0.339276,1.06544,-0.00196222,-0.00142973,0.0985817,1,4.90713e-05,6.32399e-06,-7.51394e-06,0.00981427,0.0012648,-0.00150279,0,0,0,0,0.0424245,0.507426,-0.988902,35.4375,1,52075,5252183
33,5,-0.196345,-0.142008,9.85818,-0.0386481,-0.339276,1.06544,-0.00196222,-0.00142973,0.0985817,1,4.90713e-05,6.32399e-06,-7.51394e-06,0.00981427,0.0012648,-0.00150279,0,0,0,0,0.0424245,0.507426,-0.988902,35.4375,1,52075,5252183
33,6,-0.221798,-0.162177,9.83545,-0.0625617,-0.36366,1.04764,-0.00221901,-0.00163124,0.0983544,1,4.81904e-05,-5.20629e-06,-2.98541e-06,0.00963807,-0.00104126,-0.000597083,0,0,0,0,0.0420782,0.50444,-0.985431,35.4375,1,52076,5252283
34,1,-0.221798,-0.162177,9.83545,-0.0625617,-0.36366,1.04764,-0.00221901,-0.00163124,0.0983544,1,4.81904e-05,-5.20629e-06,-2.98541e-06,0.00963807,-0.00104126,-0.000597083,0,0,0,0,0.0420782,0.50444,-0.985431,35.4375,1,52076,5252283
34,2,-0.285151,-0.122585,9.78161,-0.13744,-0.320687,0.98398,-0.00285625,-0.0012366,0.0978158,1,5.50506e-05,-2.41619e-05,-3.29679e-06,0.0110101,-0.00483239,-0.000659358,0,0,0,0,0.0431277,0.50726,-0.979818,35.4375,1,52077,5252383
34,3,-0.285151,-0.122585,9.78161,-0.13744,-0.320687,0.98398,-0.00285625,-0.0012366,0.0978158,1,5.50506e-05,-2.41619e-05,-3.29679e-06,0.0110101,-0.00483239,-0.000659358,0,0,0,0,0.0431277,0.50726,-0.979818,35.4375,1,52077,5252383
34,4,-0.14085,-0.00306138,9.83831,-0.00688707,-0.204129,1.0243,-0.00141462,-4.4295e-05,0.098383,1,6.97095e-05,-3.11024e-05,-1.24796e-05,0.0139419,-0.00622048,-0.00249592,0,0,0,0,0.0440092,0.512129,-0.979713,35.4375,1,52078,5252483
34,5,-0.14085,-0.00306138,9.83831,-0.00688707,-0.204129,1.0243,-0.00141462,-4.4295e-05,0.098383,1,6.97095e-05,-3.11024e-05,-1.24796e-05,0.0139419,-0.00622048,-0.00249592,0,0,0,0,0.0440092,0.512129,-0.979713,35.4375,1,52078,5252483
34,6,-0.0263878,0.0617571,9.87744,0.149081,-0.124117,1.07938,-0.000266174,0.000606451,0.0987744,1,5.63471e-05,-1.17566e-05,-2.18635e-05,0.0112694,-0.00235132,-0.00437269,0,0,0,0,0.0467488,0.515104,-0.9837,35.4375,1,52079,5252583
34,7,-0.0263878,0.0617571,9.87744,0.149081,-0.124117,1.07938,-0.000266174,0.000606451,0.0987744,1,5.63471e-05,-1.17566e-05,-2.18635e-05,0.0112694,-0.00235132,-0.00437269,0,0,0,0,0.0467488,0.515104,-0.9837,35.4375,1,52079,5252583
34,8,-0.184971,-0.134837,9.77981,-0.0219585,-0.313005,0.980149,-0.00185195,-0.00135616,0.0977979,1,4.06695e-05,-1.08105e-05,-4.46789e-05,0.0081339,-0.00216209,-0.00893577,0,0,0,0,0.0452059,0.512298,-0.989816,35.4375,1,52080,5252683
35,1,-0.184971,-0.134837,9.77981,-0.0219585,-0.313005,0.980149,-0.00185195,-0.00135616,0.0977979,1,4.06695e-05,-1.08105e-05,-4.46789e-05,0.0081339,-0.00216209,-0.00893577,0,0,0,0,0.0452059,0.512298,-0.989816,35.4375,1,52080,5252683
35,2,-0.0205529,-0.242914,9.80594,0.110759,-0.453612,0.994439,-0.000207952,-0.00244141,0.0980591,1,6.26331e-05,-1.15805e-05,-3.12778e-05,0.0125266,-0.00231609,-0.00625557,0,0,0,0,0.0424075,0.505511,-0.990964,35.4375,1,52081,5252783
35,3,-0.0205529,-0.242914,9.80594,0.110759,-0.453612,0.994439,-0.000207952,-0.00244141,0.0980591,1,6.26331e-05,-1.15805e-05,-3.12778e-05,0.0125266,-0.00231609,-0.00625557,0,0,0,0,0.0424075,0.505511,-0.990964,35.4375,1,52081,5252783
35,4,-0.0186937,-0.128968,9.89847,0.160222,-0.319316,1.1045,-0.000185726,-0.00129966,0.0989846,1,5.04573e-05,6.41657e-06,-2.28173e-05,0.0100915,0.00128331,-0.00456346,0,0,0,0,0.0411525,0.502976,-0.984954,35.4375,1,52082,5252883
35,5,-0.0186937,-0.128968,9.89847,0.160222,-0.319316,1.1045,-0.000185726,-0.00129966,0.0989846,1,5.04573e-05,6.41657e-06,-2.28173e-05,0.0100915,0.00128331,-0.00456346,0,0,0,0,0.0411525,0.502976,-0.984954,35.4375,1,52082,5252883
35,6,-0.116635,-0.132188,9.86756,0.0405379,-0.308518,1.06977,-0.00116843,-0.00133216,0.0986754,1,5.25378e-05,-9.9725e-06,-4.0168e-05,0.0105076,-0.0019945,-0.00803359,0,0,0,0,0.0412564,0.506273,-0.978316,35.4375,1,52083,5252983
36,1,-0.116635,-0.132188,9.86756,0.0405379,-0.308518,1.06977,-0.00116843,-0.00133216,0.0986754,1,5.25378e-05,-9.9725e-06,-4.0168e-05,0.0105076,-0.0019945,-0.00803359,0,0,0,0,0.0412564,0.506273,-0.978316,35.4375,1,52083,5252983
36,2,0.0254158,-0.109115,9.83187,0.184501,-0.289789,1.02583,0.000252082,-0.00109962,0.0983186,1,4.29917e-05,-1.01683e-05,-3.48725e-05,0.00859833,-0.00203366,-0.00697449,0,0,0,0,0.0431282,0.508705,-0.978775,35.4375,1,52084,5253083
37,1,0.0254158,-0.109115,9.83187,0.184501,-0.289789,1.02583,0.000252082,-0.00109962,0.0983186,1,4.29917e-05,-1.01683e-05,-3.48725e-05,0.00859833,-0.00203366,-0.00697449,0,0,0,0,0.0431282,0.508705,-0.978775,35.4375,1,52084,5253083
37,2,0.00579276,-0.127669,9.83625,0.154492,-0.32497,1.02068,5.74936e-05,-0.00128775,0.0983624,1,5.62351e-05,-1.85855e-06,-2.66619e-05,0.011247,-0.000371709,-0.00533238,0,0,0,0,0.0444567,0.50974,-0.982799,35.4375,1,52085,5253183
38,1,0.00579276,-0.127669,9.83625,0.154492,-0.32497,1.02068,5.74936e-05,-0.00128775,0.0983624,1,5.62351e-05,-1.85855e-06,-2.66619e-05,0.011247,-0.000371709,-0.00533238,0,0,0,0,0.0444567,0.50974,-0.982799,35.4375,1,52085,5253183
38,2,0.0691216,-0.0876278,9.8901,0.224605,-0.309503,1.07461,0.00068938,-0.000886214,0.0989009,1,5.00401e-05,-9.03745e-06,-2.78724e-05,0.010008,-0.00180749,-0.00557447,0,0,0,0,0.0423965,0.509856,-0.988343,35.4375,1,52086,5253283
44,1,0.0691216,-0.0876278,9.8901,0.224605,-0.309503,1.07461,0.00068938,-0.000886214,0.0989009,1,5.00401e-05,-9.03745e-06,-2.78724e-05,0.010008,-0.00180749,-0.00557447,0,0,0,0,0.0423965,0.509856,-0.988343,35.4375,1,52086,5253283
44,2,0.0202654,-0.0645106,9.8472,0.205252,-0.265899,1.04636,0.000202458,-0.000654272,0.098472,1,4.646e-05,-7.24269e-07,-4.14494e-05,0.009292,-0.000144854,-0.00828988,0,0,0,0,0.0414742,0.505979,-0.989435,35.4375,1,52087,5253383
45,1,0.0202654,-0.0645106,9.8472,0.205252,-0.265899,1.04636,0.000202458,-0.000654272,0.098472,1,4.646e-05,-7.24269e-07,-4.14494e-05,0.009292,-0.000144854,-0.00828988,0,0,0,0,0.0414742,0.505979,-0.989435,35.4375,1,52087,5253383
45,2,-0.103846,-0.107905,9.77881,0.0456075,-0.293746,0.982747,-0.0010402,-0.0010862,0.0977881,1,3.69325e-05,-8.47094e-06,-3.65099e-05,0.00738649,-0.00169419,-0.00730198,0,0,0,0,0.0392451,0.504907,-0.982882,35.4375,1,52088,5253483
45,3,-0.103846,-0.107905,9.77881,0.0456075,-0.293746,0.982747,-0.0010402,-0.0010862,0.0977881,1,3.69325e-05,-8.47094e-06,-3.65099e-05,0.00738649,-0.00169419,-0.00730198,0,0,0,0,0.0392451,0.504907,-0.982882,35.4375,1,52088,5253483
45,4,-0.0619286,-0.217236,9.84002,0.0901464,-0.414307,1.03187,-0.000623662,-0.00218484,0.0983998,1,6.36781e-05,-2.13086e-05,-4.19731e-05,0.0127356,-0.00426172,-0.00839462,0,0,0,0,0.0408327,0.505753,-0.976305,35.4375,1,52089,5253583
45,5,-0.0619286,-0.217236,9.84002,0.0901464,-0.414307,1.03187,-0.000623662,-0.00218484,0.0983998,1,6.36781e-05,-2.13086e-05,-4.19731e-05,0.0127356,-0.00426172,-0.00839462,0,0,0,0,0.0408327,0.505753,-0.976305,35.4375,1,52089,5253583
45,6,0.100896,-0.137932,9.89081,0.266279,-0.346523,1.08651,0.00100444,-0.00139279,0.098908,1,6.76552e-05,-2.22024e-05,-4.4951e-05,0.013531,-0.00444048,-0.0089902,0,0,0,0,0.044087,0.511109,-0.977211,35.4375,1,52090,5253683
46,1,0.100896,-0.137932,9.89081,0.266279,-0.346523,1.08651,0.00100444,-0.00139279,0.098908,1,6.76552e-05,-2.22024e-05,-4.4951e-05,0.013531,-0.00444048,-0.0089902,0,0,0,0,0.044087,0.511109,-0.977211,35.4375,1,52090,5253683
46,2,0.116237,-0.101678,9.8035,0.276702,-0.318282,1.00382,0.00116096,-0.00102975,0.0980349,1,6.55837e-05,-6.65186e-06,-5.03287e-05,0.0131167,-0.00133037,-0.0100657,0,0,0,0,0.0443798,0.513652,-0.983217,35.4375,1,52091,5253783
46,3,0.116237,-0.101678,9.8035,0.276702,-0.318282,1.00382,0.00116096,-0.00102975,0.0980349,1,6.55837e-05,-6.65186e-06,-5.03287e-05,0.0131167,-0.00133037,-0.0100657,0,0,0,0,0.0443798,0.513652,-0.983217,35.4375,1,52091,5253783
46,4,0.0795394,-0.0242448,9.79763,0.205159,-0.229666,0.954011,0.000793744,-0.000252404,0.0979763,1,5.04366e-05,-8.30358e-06,-4.58044e-05,0.0100873,-0.00166072,-0.00916088,0,0,0,0,0.0423557,0.510849,-0.98933,35.4375,1,52092,5253883
46,5,0.0795394,-0.0242448,9.79763,0.205159,-0.229666,0.954011,0.000793744,-0.000252404,0.0979763,1,5.04366e-05,-8.30358e-06,-4.58044e-05,0.0100873,-0.00166072,-0.00916088,0,0,0,0,0.0423557,0.510849,-0.98933,35.4375,1,52092,5253883
46,6,0.0728272,-0.0835463,9.88162,0.265773,-0.303304,1.07619,0.000726116,-0.000842776,0.0988162,1,3.66213e-05,-1.0472e-05,-5.17462e-05,0.00732427,-0.0020944,-0.0103492,0,0,0,0,0.0410177,0.505965,-0.988423,35.4375,1,52093,5253983
46,7,0.0728272,-0.0835463,9.88162,0.265773,-0.303304,1.07619,0.000726116,-0.000842776,0.0988162,1,3.66213e-05,-1.0472e-05,-5.17462e-05,0.00732427,-0.0020944,-0.0103492,0,0,0,0,0.0410177,0.505965,-0.988423,35.4375,1,52093,5253983
46,8,0.046577,-0.110703,9.88429,0.265252,-0.329502,1.11602,0.000468456,-0.0011168,0.0988428,1,4.9213e-05,1.41356e-05,-4.91234e-05,0.00984261,0.00282712,-0.00982469,0,0,0,0,0.0387516,0.50492,-0.983385,35.4375,1,52094,5254083
47,1,0.046577,-0.110703,9.88429,0.265252,-0.329502,1.11602,0.000468456,-0.0011168,0.0988428,1,4.9213e-05,1.41356e-05,-4.91234e-05,0.00984261,0.00282712,-0.00982469,0,0,0,0,0.0387516,0.50492,-0.983385,35.4375,1,52094,5254083
47,2,0.0174475,-0.0664062,9.84517,0.199481,-0.27955,1.05306,0.000173528,-0.00067701,0.0984516,1,6.56425e-05,-4.37095e-06,-6.46942e-05,0.0131285,-0.00087419,-0.0129389,0,0,0,0,0.0397807,0.508236,-0.978265,35.4375,1,52095,5254183
48,1,0.0174475,-0.0664062,9.84517,0.199481,-0.27955,1.05306,0.000173528,-0.00067701,0.0984516,1,6.56425e-05,-4.37095e-06,-6.46942e-05,0.0131285,-0.00087419,-0.0129389,0,0,0,0,0.0397807,0.508236,-0.978265,35.4375,1,52095,5254183
48,2,0.0601431,-0.0329,9.83364,0.169363,-0.243321,1.01256,0.000597817,-0.000339175,0.0983364,1,5.13183e-05,-1.81419e-05,-6.86288e-05,0.0102637,-0.00362839,-0.0137258,0,0,0,0,0.0429862,0.515073,-0.980148,35.4375,1,52096,5254283
49,1,0.0601431,-0.0329,9.83364,0.169363,-0.243321,1.01256,0.000597817,-0.000339175,0.0983364,1,5.13183e-05,-1.81419e-05,-6.86288e-05,0.0102637,-0.00362839,-0.0137258,0,0,0,0,0.0429862,0.515073,-0.980148,35.4375,1,52096,5254283
49,2,0.06816,-0.0508823,9.84124,0.119417,-0.267991,0.986974,0.000679692,-0.000513863,0.0984123,1,2.51141e-05,-9.32461e-06,-7.12721e-05,0.00502283,-0.00186492,-0.0142544,0,0,0,0,0.0442777,0.516136,-0.985686,35.4375,1,52097,5254383
50,1,0.06816,-0.0508823,9.84124,0.119417,-0.267991,0.986974,0.000679692,-0.000513863,0.0984123,1,2.51141e-05,-9.32461e-06,-7.12721e-05,0.00502283,-0.00186492,-0.0142544,0,0,0,0,0.0442777,0.516136,-0.985686,35.4375,1,52097,5254383
50,2,0.0108416,-0.14699,9.79672,-0.00974994,-0.366396,0.940683,0.00010397,-0.00147751,0.0979671,1,3.87787e-05,-2.17169e-05,-6.47073e-05,0.00775574,-0.00434338,-0.0129415,0,0,0,0,0.0422945,0.51234,-0.990812,35.4375,1,52098,5254483
50,3,0.0108416,-0.14699,9.79672,-0.00974994,-0.366396,0.940683,0.00010397,-0.00147751,0.0979671,1,3.87787e-05,-2.17169e-05,-6.47073e-05,0.00775574,-0.00434338,-0.0129415,0,0,0,0,0.0422945,0.51234,-0.990812,35.4375,1,52098,5254483
50,4,0.0101182,-0.111872,9.84723,-0.0465718,-0.338717,0.985759,0.000100752,-0.00112833,0.0984721,1,4.87248e-05,-1.51956e-06,-5.85576e-05,0.00974497,-0.000303912,-0.0117115,0,0,0,0,0.0395255,0.507459,-0.989393,35.4375,1,52099,5254583
54,1,0.0101182,-0.111872,9.84723,-0.0465718,-0.338717,0.985759,0.000100752,-0.00112833,0.0984721,1,4.87248e-05,-1.51956e-06,-5.85576e-05,0.00974497,-0.000303912,-0.0117115,0,0,0,0,0.0395255,0.507459,-0.989393,35.4375,1,52099,5254583
54,2,-0.0143989,-0.0977285,9.84718,-0.0364751,-0.313155,1.01029,-0.000144765,-0.000987022,0.0984717,1,4.95273e-05,-3.36127e-06,-5.84034e-05,0.00990545,-0.000672254,-0.0116807,0,0,0,0,0.0383203,0.506333,-0.980321,35.4375,1,52100,5254683
54,3,-0.0143989,-0.0977285,9.84718,-0.0364751,-0.313155,1.01029,-0.000144765,-0.000987022,0.0984717,1,4.95273e-05,-3.36127e-06,-5.84034e-05,0.00990545,-0.000672254,-0.0116807,0,0,0,0,0.0383203,0.506333,-0.980321,35.4375,1,52100,5254683
54,4,0.0138778,-0.153017,9.76308,-0.0325888,-0.348264,0.895797,0.000136056,-0.00153566,0.0976307,1,2.80182e-05,-1.2753e-05,-7.53287e-05,0.00560364,-0.0025506,-0.0150657,0,0,0,0,0.0408583,0.508626,-0.973211,35.4375,1,52101,5254783
54,5,0.0138778,-0.153017,9.76308,-0.0325888,-0.348264,0.895797,0.000136056,-0.00153566,0.0976307,1,2.80182e-05,-1.2753e-05,-7.53287e-05,0.00560364,-0.0025506,-0.0150657,0,0,0,0,0.0408583,0.508626,-0.973211,35.4375,1,52101,5254783
54,6,0.227844,-0.318635,9.97594,0.171824,-0.506301,1.07739,0.00228006,-0.00319705,0.099759,1,5.19446e-05,1.04983e-05,-7.42914e-05,0.0103889,0.00209966,-0.0148583,0,0,0,0,0.0426527,0.513523,-0.975131,35.4375,1,52102,5254883
55,1,0.227844,-0.318635,9.97594,0.171824,-0.506301,1.07739,0.00228006,-0.00319705,0.099759,1,5.19446e-05,1.04983e-05,-7.42914e-05,0.0103889,0.00209966,-0.0148583,0,0,0,0,0.0426527,0.513523,-0.975131,35.4375,1,52102,5254883
55,2,0.0170818,-0.156196,9.86921,-0.0837827,-0.38555,1.0048,0.000172376,-0.00157843,0.0986918,1,8.33058e-05,9.05736e-06,-7.31402e-05,0.0166612,0.00181147,-0.014628,0,0,0,0,0.0434061,0.516559,-0.981632,35.4375,1,52103,5254983
55,3,0.0170818,-0.156196,9.86921,-0.0837827,-0.38555,1.0048,0.000172376,-0.00157843,0.0986918,1,8.33058e-05,9.05736e-06,-7.31402e-05,0.0166612,0.00181147,-0.014628,0,0,0,0,0.0434061,0.516559,-0.981632,35.4375,1,52103,5254983
55,4,0.0894564,-0.0312213,9.87996,0.00675285,-0.241143,1.0254,0.000899404,-0.000320736,0.0987996,1,4.2363e-05,2.47632e-05,-8.46878e-05,0.0084726,0.00495265,-0.0169376,0,0,0,0,0.0423609,0.514219,-0.98673,35.4375,1,52104,5255083
56,1,0.0894564,-0.0312213,9.87996,0.00675285,-0.241143,1.0254,0.000899404,-0.000320736,0.0987996,1,4.2363e-05,2.47632e-05,-8.46878e-05,0.0084726,0.00495265,-0.0169376,0,0,0,0,0.0423609,0.514219,-0.98673,35.4375,1,52104,5255083
56,2,-0.106606,-0.00657119,9.85572,0.0376973,-0.198237,1.07453,-0.00105948,-7.52466e-05,0.0985572,1,4.92005e-05,3.34108e-05,-7.68895e-05,0.0098401,0.00668216,-0.0153779,0,0,0,0,0.0410395,0.509805,-0.984802,35.4375,1,52105,5255183
57,1,-0.106606,-0.00657119,9.85572,0.0376973,-0.198237,1.07453,-0.00105948,-7.52466e-05,0.0985572,1,4.92005e-05,3.34108e-05,-7.68895e-05,0.0098401,0.00668216,-0.0153779,0,0,0,0,0.0410395,0.509805,-0.984802,35.4375,1,52105,5255183
57,2,-0.261074,-0.0247562,9.80914,0.0993287,-0.215633,1.05437,-0.0026112,-0.000258047,0.0980913,1,5.5681e-05,-2.09575e-06,-8.40566e-05,0.0111362,-0.000419149,-0.0168113,0,0,0,0,0.0387858,0.50875,-0.979259,35.4375,1,52106,5255283
57,3,-0.261074,-0.0247562,9.80914,0.0993287,-0.215633,1.05437,-0.0026112,-0.000258047,0.0980913,1,5.5681e-05,-2.09575e-06,-8.40566e-05,0.0111362,-0.000419149,-0.0168113,0,0,0,0,0.0387858,0.50875,-0.979259,35.4375,1,52106,5255283
57,4,-0.216383,-0.1713,9.81847,0.34271,-0.479113,1.11613,-0.00216492,-0.00173194,0.0981844,1,9.88221e-05,-3.65331e-06,-0.000107161,0.0197644,-0.000730661,-0.0214322,0,0,0,0,0.0397983,0.511596,-0.97516,35.4375,1,52107,5255383
58,1,-0.216383,-0.1713,9.81847,0.34271,-0.479113,1.11613,-0.00216492,-0.00173194,0.0981844,1,9.88221e-05,-3.65331e-06,-0.000107161,0.0197644,-0.000730661,-0.0214322,0,0,0,0,0.0397983,0.511596,-0.97516,35.4375,1,52107,5255383
58,2,-0.064639,-0.134441,9.82389,0.189224,-0.576295,1.05121,-0.000651682,-0.00135501,0.0982388,1,5.46114e-05,-2.55555e-05,-0.000100462,0.0109223,-0.00511111,-0.0200924,0,0,0,0,0.0416496,0.514525,-0.976114,35.4375,1,52108,5255483
60,1,-0.064639,-0.134441,9.82389,0.189224,-0.576295,1.05121,-0.000651682,-0.00135501,0.0982388,1,5.46114e-05,-2.55555e-05,-0.000100462,0.0109223,-0.00511111,-0.0200924,0,0,0,0,0.0416496,0.514525,-0.976114,35.4375,1,52108,5255483
60,2,0.243216,-0.1321,9.81267,0.230175,-0.549692,0.955338,0.00243338,-0.00132603,0.0981266,1,2.35741e-05,7.3467e-06,-8.26686e-05,0.00471482,0.00146934,-0.0165337,0,0,0,0,0.0429535,0.515579,-0.981147,35.4375,1,52109,5255583
60,3,0.243216,-0.1321,9.81267,0.230175,-0.549692,0.955338,0.00243338,-0.00132603,0.0981266,1,2.35741e-05,7.3467e-06,-8.26686e-05,0.00471482,0.00146934,-0.0165337,0,0,0,0,0.0429535,0.515579,-0.981147,35.4375,1,52109,5255583
60,4,-0.195358,-0.318368,9.87844,-0.0650874,-0.533426,1.05142,-0.00194429,-0.00318796,0.0987845,1,2.32967e-05,4.973e-05,-8.38443e-05,0.00465933,0.00994599,-0.0167689,0,0,0,0,0.0418798,0.514223,-0.986728,35.4375,1,52110,5255683
60,5,-0.195358,-0.318368,9.87844,-0.0650874,-0.533426,1.05142,-0.00194429,-0.00318796,0.0987845,1,2.32967e-05,4.973e-05,-8.38443e-05,0.00465933,0.00994599,-0.0167689,0,0,0,0,0.0418798,0.514223,-0.986728,35.4375,1,52110,5255683
60,6,-0.185754,-0.323234,9.90683,-0.092261,-0.397116,1.09106,-0.00186073,-0.00325057,0.0990676,1,9.36571e-05,-1.32672e-05,-8.69548e-05,0.0187314,-0.00265344,-0.017391,0,0,0,0,0.0390866,0.510805,-0.985276,35.4375,1,52111,5255783
61,1,-0.185754,-0.323234,9.90683,-0.092261,-0.397116,1.09106,-0.00186073,-0.00325057,0.0990676,1,9.36571e-05,-1.32672e-05,-8.69548e-05,0.0187314,-0.00265344,-0.017391,0,0,0,0,0.0390866,0.510805,-0.985276,35.4375,1,52111,5255783
61,2,-0.0255996,0.0761547,9.64658,0.130943,-0.111132,0.832797,-0.000252426,0.000738091,0.096466,1,0.000121819,1.77849e-05,-9.2947e-05,0.0243638,0.00355697,-0.0185894,0,0,0,0,0.0368005,0.511701,-0.97969,35.4375,1,52112,5255883
68,1,-0.0255996,0.0761547,9.64658,0.130943,-0.111132,0.832797,-0.000252426,0.000738091,0.096466,1,0.000121819,1.77849e-05,-9.2947e-05,0.0243638,0.00355697,-0.0185894,0,0,0,0,0.0368005,0.511701,-0.97969,35.4375,1,52112,5255883
68,2,-0.193166,0.121298,9.76987,-0.0559559,-0.128661,0.895462,-0.00193503,0.0012044,0.0976987,1,4.60621e-05,-1.85771e-05,-0.000109167,0.00921243,-0.00371541,-0.0218334,0,0,0,0,0.0383069,0.51598,-0.974046,35.4375,1,52113,5255983
68,3,-0.193166,0.121298,9.76987,-0.0559559,-0.128661,0.895462,-0.00193503,0.0012044,0.0976987,1,4.60621e-05,-1.85771e-05,-0.000109167,0.00921243,-0.00371541,-0.0218334,0,0,0,0,0.0383069,0.51598,-0.974046,35.4375,1,52113,5255983
68,4,0.202987,-0.00205367,9.99917,0.315231,-0.367594,1.18758,0.00203016,-2.78982e-05,0.0999917,1,3.50537e-05,1.45105e-06,-8.65348e-05,0.00701073,0.000290209,-0.017307,0,0,0,0,0.0406926,0.517902,-0.973509,35.4375,1,52114,5256083
68,5,0.202987,-0.00205367,9.99917,0.315231,-0.367594,1.18758,0.00203016,-2.78982e-05,0.0999917,1,3.50537e-05,1.45105e-06,-8.65348e-05,0.00701073,0.000290209,-0.017307,0,0,0,0,0.0406926,0.517902,-0.973509,35.4375,1,52114,5256083
68,6,-0.397105,-0.326475,9.76945,-0.068719,-0.615406,1.01604,-0.00396344,-0.00326924,0.0976946,1,2.69123e-05,4.21766e-05,-9.69812e-05,0.00538245,0.00843531,-0.0193962,0,0,0,0,0.0429876,0.519409,-0.977022,35.4375,1,52115,5256183
71,1,-0.397105,-0.326475,9.76945,-0.068719,-0.615406,1.01604,-0.00396344,-0.00326924,0.0976946,1,2.69123e-05,4.21766e-05,-9.69812e-05,0.00538245,0.00843531,-0.0193962,0,0,0,0,0.0429876,0.519409,-0.977022,35.4375,1,52115,5256183
71,2,-0.201801,-0.413737,9.77794,-0.158071,-0.678175,0.927579,-0.00202988,-0.00414949,0.0977787,1,6.39142e-05,-5.66507e-05,-9.50526e-05,0.0127828,-0.0113301,-0.0190105,0,0,0,0,0.0404254,0.518579,-0.984099,35.4375,1,52116,5256283
71,3,-0.201801,-0.413737,9.77794,-0.158071,-0.678175,0.927579,-0.00202988,-0.00414949,0.0977787,1,6.39142e-05,-5.66507e-05,-9.50526e-05,0.0127828,-0.0113301,-0.0190105,0,0,0,0,0.0404254,0.518579,-0.984099,35.4375,1,52116,5256283
71,4,-0.164993,-0.264485,9.90408,0.0792407,-0.467594,1.16072,-0.00163978,-0.0026553,0.0990407,1,5.43417e-05,5.37698e-05,-9.3264e-05,0.0108683,0.010754,-0.0186528,0,0,0,0,0.0362008,0.51372,-0.983177,35.4375,1,52117,5256383
72,1,-0.164993,-0.264485,9.90408,0.0792407,-0.467594,1.16072,-0.00163978,-0.0026553,0.0990407,1,5.43417e-05,5.37698e-05,-9.3264e-05,0.0108683,0.010754,-0.0186528,0,0,0,0,0.0362008,0.51372,-0.983177,35.4375,1,52117,5256383
72,2,-0.274255,-0.11858,9.6921,-0.0881395,-0.351117,0.902127,-0.002753,-0.00120593,0.0969205,1,0.00010648,-5.27844e-05,-9.17834e-05,0.021296,-0.0105569,-0.0183567,0,0,0,0,0.0339712,0.511202,-0.977667,35.4375,1,52118,5256483
73,1,-0.274255,-0.11858,9.6921,-0.0881395,-0.351117,0.902127,-0.002753,-0.00120593,0.0969205,1,0.00010648,-5.27844e-05,-9.17834e-05,0.021296,-0.0105569,-0.0183567,0,0,0,0,0.0339712,0.511202,-0.977667,35.4375,1,52118,5256483
73,2,0.034916,0.177296,9.73117,0.0909177,-0.124159,0.862966,0.000353229,0.00175717,0.097312,1,8.07032e-05,1.88004e-05,-0.000116133,0.0161406,0.00376009,-0.0232267,0,0,0,0,0.0374425,0.513026,-0.972087,35.4375,1,52119,5256583
73,3,0.034916,0.177296,9.73117,0.0909177,-0.124159,0.862966,0.000353229,0.00175717,0.097312,1,8.07032e-05,1.88004e-05,-0.000116133,0.0161406,0.00376009,-0.0232267,0,0,0,0,0.0374425,0.513026,-0.972087,35.4375,1,52119,5256583
73,4,-0.221294,0.230915,10.0844,0.0667589,-0.0557405,1.28336,-0.00221894,0.00229588,0.100844,1,6.83563e-05,-3.24013e-05,-0.000116588,0.0136713,-0.00648026,-0.0233176,0,0,0,0,0.0407215,0.518363,-0.971984,35.4375,1,52120,5256683
74,1,-0.221294,0.230915,10.0844,0.0667589,-0.0557405,1.28336,-0.00221894,0.00229588,0.100844,1,6.83563e-05,-3.24013e-05,-0.000116588,0.0136713,-0.00648026,-0.0233176,0,0,0,0,0.0407215,0.518363,-0.971984,35.4375,1,52120,5256683
74,2,-0.312645,0.116225,9.7133,-0.227684,-0.161405,0.891661,-0.0031244,0.00115657,0.0971332,1,3.3282e-05,9.06756e-06,-0.000125912,0.00665639,0.00181351,-0.0251824,0,0,0,0,0.0409976,0.520436,-0.97901,35.4375,1,52121,5256783
77,1,-0.312645,0.116225,9.7133,-0.227684,-0.161405,0.891661,-0.0031244,0.00115657,0.0971332,1,3.3282e-05,9.06756e-06,-0.000125912,0.00665639,0.00181351,-0.0251824,0,0,0,0,0.0409976,0.520436,-0.97901,35.4375,1,52121,5256783
77,2,-0.332981,-0.227142,9.99711,-0.105755,-0.471601,1.20526,-0.00333176,-0.00227885,0.0999709,1,4.17614e-05,-6.62902e-06,-0.000137316,0.00835228,-0.0013258,-0.0274631,0,0,0,0,0.0389494,0.519097,-0.985091,35.4375,1,52122,5256883
87,1,-0.332981,-0.227142,9.99711,-0.105755,-0.471601,1.20526,-0.00333176,-0.00227885,0.0999709,1,4.17614e-05,-6.62902e-06,-0.000137316,0.00835228,-0.0013258,-0.0274631,0,0,0,0,0.0389494,0.519097,-0.985091,35.4375,1,52122,5256883
87,2,-0.257126,-0.462465,10.0194,-0.0939089,-0.672868,1.21163,-0.00257999,-0.00463467,0.100193,1,5.34155e-05,-3.74327e-05,-0.00013327,0.0106831,-0.00748655,-0.0266541,0,0,0,0,0.0361932,0.515653,-0.982124,35.4375,1,52123,5256983
87,3,-0.257126,-0.462465,10.0194,-0.0939089,-0.672868,1.21163,-0.00257999,-0.00463467,0.100193,1,5.34155e-05,-3.74327e-05,-0.00013327,0.0106831,-0.00748655,-0.0266541,0,0,0,0,0.0361932,0.515653,-0.982124,35.4375,1,52123,5256983
87,4,-0.288608,-0.39457,9.665,-0.0894434,-0.687171,0.915361,-0.00288225,-0.00395688,0.0966497,1,6.08022e-05,2.39452e-05,-0.000100409,0.0121604,0.00478904,-0.0200819,0,0,0,0,0.0334583,0.514602,-0.976579,35.4375,1,52124,5257083
87,5,-0.288608,-0.39457,9.665,-0.0894434,-0.687171,0.915361,-0.00288225,-0.00395688,0.0966497,1,6.08022e-05,2.39452e-05,-0.000100409,0.0121604,0.00478904,-0.0200819,0,0,0,0,0.0334583,0.514602,-0.976579,35.4375,1,52124,5257083
87,6,-0.448423,-0.0466203,9.63007,-0.321267,-0.39254,0.807755,-0.00449306,-0.000480117,0.0963003,1,7.76089e-05,-4.52952e-05,-0.000115097,0.0155218,-0.00905905,-0.0230194,0,0,0,0,0.0345401,0.51547,-0.971009,35.4375,1,52125,5257183
89,1,-0.448423,-0.0466203,9.63007,-0.321267,-0.39254,0.807755,-0.00449306,-0.000480117,0.0963003,1,7.76089e-05,-4.52952e-05,-0.000115097,0.0155218,-0.00905905,-0.0230194,0,0,0,0,0.0345401,0.51547,-0.971009,35.4375,1,52125,5257183
89,2,-0.200173,0.282593,9.64442,-0.0411549,-0.0157257,0.816275,-0.00200887,0.00281662,0.0964443,1,5.07814e-05,-4.05037e-05,-0.000120019,0.0101563,-0.00810073,-0.0240039,0,0,0,0,0.0368645,0.518883,-0.971954,35.4375,1,52126,5257283
89,3,-0.200173,0.282593,9.64442,-0.0411549,-0.0157257,0.816275,-0.00200887,0.00281662,0.0964443,1,5.07814e-05,-4.05037e-05,-0.000120019,0.0101563,-0.00810073,-0.0240039,0,0,0,0,0.0368645,0.518883,-0.971954,35.4375,1,52126,5257283
89,4,-0.0525769,0.153071,9.80208,0.0468338,-0.122267,0.951058,-0.00053256,0.00152823,0.0980208,1,1.34508e-05,-3.69486e-05,-0.000148065,0.00269016,-0.00738971,-0.0296131,0,0,0,0,0.0376431,0.523346,-0.976404,35.4375,1,52127,5257383
89,5,-0.0525769,0.153071,9.80208,0.0468338,-0.122267,0.951058,-0.00053256,0.00152823,0.0980208,1,1.34508e-05,-3.69486e-05,-0.000148065,0.00269016,-0.00738971,-0.0296131,0,0,0,0,0.0376431,0.523346,-0.976404,35.4375,1,52127,5257383
89,6,-0.315592,0.0573447,9.79795,-0.0728955,-0.254057,1.01416,-0.00315587,0.000566226,0.0979795,1,4.12143e-05,-5.6469e-07,-0.000135481,0.00824285,-0.000112938,-0.0270963,0,0,0,0,0.0356361,0.522458,-0.980455,35.4375,1,52128,5257483
98,1,-0.315592,0.0573447,9.79795,-0.0728955,-0.254057,1.01416,-0.00315587,0.000566226,0.0979795,1,4.12143e-05,-5.6469e-07,-0.000135481,0.00824285,-0.000112938,-0.0270963,0,0,0,0,0.0356361,0.522458,-0.980455,35.4375,1,52128,5257483
98,2,-0.0161491,-0.138844,9.93976,0.0655449,-0.335115,1.08881,-0.000165976,-0.00138961,0.0993976,1,6.08693e-06,-2.06295e-05,-0.000138355,0.00121739,-0.00412591,-0.0276711,0,0,0,0,0.0323532,0.518088,-0.980032,35.4375,1,52129,5257583
98,3,-0.0161491,-0.138844,9.93976,0.0655449,-0.335115,1.08881,-0.000165976,-0.00138961,0.0993976,1,6.08693e-06,-2.06295e-05,-0.000138355,0.00121739,-0.00412591,-0.0276711,0,0,0,0,0.0323532,0.518088,-0.980032,35.4375,1,52129,5257583
98,4,-0.263346,-0.471752,9.95012,-0.0101925,-0.790389,1.23833,-0.00263288,-0.00472692,0.0995008,1,5.12521e-05,1.00794e-05,-0.000150509,0.0102504,0.00201588,-0.0301019,0,0,0,0,0.0310413,0.517522,-0.974988,35.4375,1,52130,5257683
102,1,-0.263346,-0.471752,9.95012,-0.0101925,-0.790389,1.23833,-0.00263288,-0.00472692,0.0995008,1,5.12521e-05,1.00794e-05,-0.000150509,0.0102504,0.00201588,-0.0301019,0,0,0,0,0.0310413,0.517522,-0.974988,35.4375,1,52130,5257683
102,2,-0.267932,-0.0757302,9.98271,-0.0984187,-0.384612,1.10826,-0.00268134,-0.000764243,0.0998269,1,3.90859e-05,-8.89534e-06,-0.000160968,0.00781718,-0.00177907,-0.0321936,0,0,0,0,0.0335133,0.51938,-0.970918,35.4375,1,52131,5257783
105,1,-0.267932,-0.0757302,9.98271,-0.0984187,-0.384612,1.10826,-0.00268134,-0.000764243,0.0998269,1,3.90859e-05,-8.89534e-06,-0.000160968,0.00781718,-0.00177907,-0.0321936,0,0,0,0,0.0335133,0.51938,-0.970918,35.4375,1,52131,5257783
105,2,-0.224105,-0.0302951,9.89189,-0.0108237,-0.250338,1.09251,-0.00223828,-0.000298062,0.0989189,1,-2.13351e-05,1.44299e-05,-0.000148956,-0.00426701,0.00288598,-0.0297912,0,0,0,0,0.0362699,0.52427,-0.972842,35.4375,1,52132,5257883
105,3,-0.224105,-0.0302951,9.89189,-0.0108237,-0.250338,1.09251,-0.00223828,-0.000298062,0.0989189,1,-2.13351e-05,1.44299e-05,-0.000148956,-0.00426701,0.00288598,-0.0297912,0,0,0,0,0.0362699,0.52427,-0.972842,35.4375,1,52132,5257883
105,4,-0.595088,-0.182443,9.49897,-0.48302,-0.463914,0.718506,-0.00595687,-0.00182581,0.0949893,1,1.58763e-05,-2.88877e-05,-0.000137426,0.00317526,-0.00577754,-0.0274853,0,0,0,0,0.0361309,0.526781,-0.976826,35.4375,1,52133,5257983
105,5,-0.595088,-0.182443,9.49897,-0.48302,-0.463914,0.718506,-0.00595687,-0.00182581,0.0949893,1,1.58763e-05,-2.88877e-05,-0.000137426,0.00317526,-0.00577754,-0.0274853,0,0,0,0,0.0361309,0.526781,-0.976826,35.4375,1,52133,5257983
105,6,-0.120603,0.286134,9.90545,-0.0500901,-0.0517296,1.07183,-0.00121342,0.00285525,0.0990546,1,3.26142e-05,-4.17198e-05,-0.000153409,0.00652284,-0.00834397,-0.0306819,0,0,0,0,0.0322198,0.525413,-0.980374,35.4375,1,52134,5258083
106,1,-0.120603,0.286134,9.90545,-0.0500901,-0.0517296,1.07183,-0.00121342,0.00285525,0.0990546,1,3.26142e-05,-4.17198e-05,-0.000153409,0.00652284,-0.00834397,-0.0306819,0,0,0,0,0.0322198,0.525413,-0.980374,35.4375,1,52134,5258083
106,2,-0.0649103,-0.115693,9.8521,0.10519,-0.399932,1.04755,-0.00065064,-0.00115305,0.098521,1,-1.86617e-05,-5.9543e-06,-0.000157477,-0.00373234,-0.00119086,-0.0314954,0,0,0,0,0.030405,0.521012,-0.978948,35.4375,1,52135,5258183
106,3,-0.0649103,-0.115693,9.8521,0.10519,-0.399932,1.04755,-0.00065064,-0.00115305,0.098521,1,-1.86617e-05,-5.9543e-06,-0.000157477,-0.00373234,-0.00119086,-0.0314954,0,0,0,0,0.030405,0.521012,-0.978948,35.4375,1,52135,5258183
106,4,-0.231745,-0.479664,9.85281,-0.111434,-0.714502,0.996703,-0.00232214,-0.00479429,0.0985281,1,-8.41073e-06,-1.65631e-05,-0.000149527,-0.00168215,-0.00331261,-0.0299055,0,0,0,0,0.0296069,0.519936,-0.972908,35.4375,1,52136,5258283
106,5,-0.231745,-0.479664,9.85281,-0.111434,-0.714502,0.996703,-0.00232214,-0.00479429,0.0985281,1,-8.41073e-06,-1.65631e-05,-0.000149527,-0.00168215,-0.00331261,-0.0299055,0,0,0,0,0.0296069,0.519936,-0.972908,35.4375,1,52136,5258283
106,6,-0.0847777,-0.81177,10.1777,0.0714658,-1.1435,1.37853,-0.000843908,-0.00813444,0.101776,1,8.33514e-05,2.96708e-05,-0.000133571,0.0166703,0.00593417,-0.0267141,0,0,0,0,0.0301587,0.52229,-0.968312,35.4375,1,52137,5258383
111,1,-0.0847777,-0.81177,10.1777,0.0714658,-1.1435,1.37853,-0.000843908,-0.00813444,0.101776,1,8.33514e-05,2.96708e-05,-0.000133571,0.0166703,0.00593417,-0.0267141,0,0,0,0,0.0301587,0.52229,-0.968312,35.4375,1,52137,5258383
111,2,-0.742457,-0.0753529,9.71355,-0.54651,-0.390624,0.921415,-0.00742242,-0.000768283,0.0971355,1,8.57651e-05,1.20489e-05,-0.000128513,0.017153,0.00240978,-0.0257025,0,0,0,0,0.0319617,0.528145,-0.969201,35.4375,1,52138,5258483
111,3,-0.742457,-0.0753529,9.71355,-0.54651,-0.390624,0.921415,-0.00742242,-0.000768283,0.0971355,1,8.57651e-05,1.20489e-05,-0.000128513,0.017153,0.00240978,-0.0257025,0,0,0,0,0.0319617,0.528145,-0.969201,35.4375,1,52138,5258483
111,4,-0.391912,0.0879253,9.70409,-0.203379,-0.226559,0.89766,-0.00392299,0.0008725,0.0970408,1,3.96603e-05,-2.1021e-05,-0.000120373,0.00793207,-0.00420419,-0.0240747,0,0,0,0,0.0332868,0.531593,-0.971655,35.4375,1,52139,5258583
111,5,-0.391912,0.0879253,9.70409,-0.203379,-0.226559,0.89766,-0.00392299,0.0008725,0.0970408,1,3.96603e-05,-2.1021e-05,-0.000120373,0.00793207,-0.00420419,-0.0240747,0,0,0,0,0.0332868,0.531593,-0.971655,35.4375,1,52139,5258583
111,6,0.0335114,0.117341,10.0681,0.130016,-0.171487,1.20735,0.000333052,0.00117069,0.100681,1,1.30428e-05,-1.18576e-05,-0.000139156,0.00260856,-0.00237152,-0.0278312,0,0,0,0,0.0312504,0.528799,-0.978274,35.4375,1,52140,5258683
111,7,0.0335114,0.117341,10.0681,0.130016,-0.171487,1.20735,0.000333052,0.00117069,0.100681,1,1.30428e-05,-1.18576e-05,-0.000139156,0.00260856,-0.00237152,-0.0278312,0,0,0,0,0.0312504,0.528799,-0.978274,35.4375,1,52140,5258683
111,8,-0.191117,-0.0217622,9.69839,0.0829832,-0.314582,0.94151,-0.0019019,-0.000222074,0.0969841,1,2.60597e-05,4.81527e-05,-0.000158092,0.00521193,0.00963053,-0.0316184,0,0,0,0,0.02703,0.524418,-0.976837,35.4375,1,52141,5258783
111,9,-0.191117,-0.0217622,9.69839,0.0829832,-0.314582,0.94151,-0.0019019,-0.000222074,0.0969841,1,2.60597e-05,4.81527e-05,-0.000158092,0.00521193,0.00963053,-0.0316184,0,0,0,0,0.02703,0.524418,-0.976837,35.4375,1,52141,5258783
111,10,-0.60952,-0.621442,9.39526,-0.461536,-0.963413,0.57486,-0.00609936,-0.00622635,0.0939516,1,7.37416e-05,-1.172e-05,-0.000157855,0.0147483,-0.002344,-0.0315711,0,0,0,0,0.0253143,0.521391,-0.97033,35.4375,1,52142,5258883
112,1,-0.60952,-0.621442,9.39526,-0.461536,-0.963413,0.57486,-0.00609936,-0.00622635,0.0939516,1,7.37416e-05,-1.172e-05,-0.000157855,0.0147483,-0.002344,-0.0315711,0,0,0,0,0.0253143,0.521391,-0.97033,35.4375,1,52142,5258883
112,2,-0.460225,0.0276947,9.95743,-0.345809,-0.301376,1.06471,-0.00460835,0.000258259,0.099574,1,9.96536e-05,-3.09396e-05,-0.000125744,0.0199307,-0.00618791,-0.0251488,0,0,0,0,0.0277413,0.523764,-0.967763,35.4375,1,52143,5258983
112,3,-0.460225,0.0276947,9.95743,-0.345809,-0.301376,1.06471,-0.00460835,0.000258259,0.099574,1,9.96536e-05,-3.09396e-05,-0.000125744,0.0199307,-0.00618791,-0.0251488,0,0,0,0,0.0277413,0.523764,-0.967763,35.4375,1,52143,5258983
112,4,-0.287819,-0.258877,9.96464,-0.0350105,-0.572781,1.25691,-0.00287969,-0.00259837,0.0996461,1,5.2398e-05,-3.69148e-06,-0.000146584,0.0104796,-0.000738295,-0.0293168,0,0,0,0,0.0305311,0.529594,-0.967647,35.4375,1,52144,5259083
112,5,-0.287819,-0.258877,9.96464,-0.0350105,-0.572781,1.25691,-0.00287969,-0.00259837,0.0996461,1,5.2398e-05,-3.69148e-06,-0.000146584,0.0104796,-0.000738295,-0.0293168,0,0,0,0,0.0305311,0.529594,-0.967647,35.4375,1,52144,5259083
112,6,-0.517047,0.0781047,9.64928,-0.51091,-0.235104,0.71115,-0.00518296,0.000767218,0.0964922,1,8.05819e-05,-6.60691e-05,-0.000166343,0.0161164,-0.0132138,-0.0332686,0,0,0,0,0.0328385,0.531091,-0.970654,35.4375,1,52145,5259183
112,7,-0.517047,0.0781047,9.64928,-0.51091,-0.235104,0.71115,-0.00518296,0.000767218,0.0964922,1,8.05819e-05,-6.60691e-05,-0.000166343,0.0161164,-0.0132138,-0.0332686,0,0,0,0,0.0328385,0.531091,-0.970654,35.4375,1,52145,5259183
112,8,-0.144544,-0.223347,9.82763,0.0712793,-0.546227,1.10833,-0.00144622,-0.00224745,0.098276,1,7.34864e-05,-2.69175e-07,-0.000161891,0.0146973,-5.38349e-05,-0.0323782,0,0,0,0,0.029343,0.53073,-0.976202,35.4375,1,52146,5259283
113,1,-0.144544,-0.223347,9.82763,0.0712793,-0.546227,1.10833,-0.00144622,-0.00224745,0.098276,1,7.34864e-05,-2.69175e-07,-0.000161891,0.0146973,-5.38349e-05,-0.0323782,0,0,0,0,0.029343,0.53073,-0.976202,35.4375,1,52146,5259283
113,2,-0.587019,-0.187789,9.43549,-0.557231,-0.52082,0.526331,-0.00588385,-0.00189751,0.0943536,1,0.000114456,-6.90329e-05,-0.00016869,0.0228912,-0.0138066,-0.033738,0,0,0,0,0.0260687,0.527317,-0.974747,35.4375,1,52147,5259383
113,3,-0.587019,-0.187789,9.43549,-0.557231,-0.52082,0.526331,-0.00588385,-0.00189751,0.0943536,1,0.000114456,-6.90329e-05,-0.00016869,0.0228912,-0.0138066,-0.033738,0,0,0,0,0.0260687,0.527317,-0.974747,35.4375,1,52147,5259383
113,4,0.300782,-0.177264,10.6045,0.473228,-0.51117,1.80096,0.00300444,-0.00179625,0.106045,1,0.000106806,-1.32561e-05,-0.000158243,0.0213611,-0.00265123,-0.0316485,0,0,0,0,0.024353,0.524289,-0.968241,35.4375,1,52148,5259483
113,5,0.300782,-0.177264,10.6045,0.473228,-0.51117,1.80096,0.00300444,-0.00179625,0.106045,1,0.000106806,-1.32561e-05,-0.000158243,0.0213611,-0.00265123,-0.0316485,0,0,0,0,0.024353,0.524289,-0.968241,35.4375,1,52148,5259483
113,6,-0.670763,-0.0513189,9.65421,-0.451627,-0.331764,0.934526,-0.00669647,-0.00052389,0.0965428,1,6.72249e-05,5.87345e-05,-0.000170058,0.013445,0.0117469,-0.0340117,0,0,0,0,0.0259159,0.525153,-0.962673,35.4375,1,52149,5259583
116,1,-0.670763,-0.0513189,9.65421,-0.451627,-0.331764,0.934526,-0.00669647,-0.00052389,0.0965428,1,6.72249e-05,5.87345e-05,-0.000170058,0.013445,0.0117469,-0.0340117,0,0,0,0,0.0259159,0.525153,-0.962673,35.4375,1,52149,5259583
116,2,-0.665367,-0.19948,9.45014,-0.645342,-0.548337,0.614882,-0.00666085,-0.00200563,0.0945006,1,6.7344e-05,-3.49695e-05,-0.000142494,0.0134688,-0.0069939,-0.0284989,0,0,0,0,0.027727,0.530521,-0.963573,35.4375,1,52150,5259683
122,1,-0.665367,-0.19948,9.45014,-0.645342,-0.548337,0.614882,-0.00666085,-0.00200563,0.0945006,1,6.7344e-05,-3.49695e-05,-0.000142494,0.0134688,-0.0069939,-0.0284989,0,0,0,0,0.027727,0.530521,-0.963573,35.4375,1,52150,5259683
122,2,-0.535133,0.0470808,9.57143,-0.402186,-0.324036,0.796759,-0.00536233,0.00045565,0.0957137,1,8.67485e-05,-5.81474e-05,-0.000135172,0.0173497,-0.0116295,-0.0270344,0,0,0,0,0.029418,0.533567,-0.971089,35.4375,1,52151,5259783
126,1,-0.535133,0.0470808,9.57143,-0.402186,-0.324036,0.796759,-0.00536233,0.00045565,0.0957137,1,8.67485e-05,-5.81474e-05,-0.000135172,0.0173497,-0.0116295,-0.0270344,0,0,0,0,0.029418,0.533567,-0.971089,35.4375,1,52151,5259783
126,2,-0.0198498,0.0498721,10.0021,0.115038,-0.301982,1.14209,-0.000206549,0.00048939,0.100021,1,4.69947e-05,-4.10881e-05,-0.000170112,0.00939894,-0.00821762,-0.0340224,0,0,0,0,0.0288249,0.530761,-0.977714,35.4375,1,52152,5259883
127,1,-0.0198498,0.0498721,10.0021,0.115038,-0.301982,1.14209,-0.000206549,0.00048939,0.100021,1,4.69947e-05,-4.10881e-05,-0.000170112,0.00939894,-0.00821762,-0.0340224,0,0,0,0,0.0288249,0.530761,-0.977714,35.4375,1,52152,5259883
127,2,-0.253773,0.0236008,9.98785,0.0213506,-0.345958,1.21088,-0.00253571,0.000221162,0.0998786,1,7.90051e-05,9.70677e-06,-0.000184412,0.015801,0.00194135,-0.0368824,0,0,0,0,0.0246292,0.526362,-0.975267,35.4375,1,52153,5259983
127,3,-0.253773,0.0236008,9.98785,0.0213506,-0.345958,1.21088,-0.00253571,0.000221162,0.0998786,1,7.90051e-05,9.70677e-06,-0.000184412,0.015801,0.00194135,-0.0368824,0,0,0,0,0.0246292,0.526362,-0.975267,35.4375,1,52153,5259983
127,4,-0.38888,-0.206954,9.76157,-0.170065,-0.530368,0.993215,-0.0038912,-0.00207846,0.0976155,1,5.33125e-05,-8.26047e-06,-0.000191591,0.0106625,-0.00165209,-0.0383182,0,0,0,0,0.0209975,0.524308,-0.96772,35.4375,1,52154,5260083
129,1,-0.38888,-0.206954,9.76157,-0.170065,-0.530368,0.993215,-0.0038912,-0.00207846,0.0976155,1,5.33125e-05,-8.26047e-06,-0.000191591,0.0106625,-0.00165209,-0.0383182,0,0,0,0,0.0209975,0.524308,-0.96772,35.4375,1,52154,5260083
129,2,-0.38275,-0.319003,9.66323,-0.313885,-0.583632,0.815805,-0.00383208,-0.00319395,0.096632,1,2.70969e-05,-1.80039e-05,-0.000172318,0.00541938,-0.00360079,-0.0344636,0,0,0,0,0.0225239,0.526645,-0.962625,35.4375,1,52155,5260183
129,3,-0.38275,-0.319003,9.66323,-0.313885,-0.583632,0.815805,-0.00383208,-0.00319395,0.096632,1,2.70969e-05,-1.80039e-05,-0.000172318,0.00541938,-0.00360079,-0.0344636,0,0,0,0,0.0225239,0.526645,-0.962625,35.4375,1,52155,5260183
129,4,-0.193009,-0.407532,9.4774,-0.0234022,-0.813898,0.697229,-0.00193649,-0.00409557,0.094773,1,0.000110415,-2.62105e-05,-0.000175511,0.022083,-0.0052421,-0.0351023,0,0,0,0,0.0262556,0.532963,-0.963006,35.4375,1,52156,5260283
133,1,-0.193009,-0.407532,9.4774,-0.0234022,-0.813898,0.697229,-0.00193649,-0.00409557,0.094773,1,0.000110415,-2.62105e-05,-0.000175511,0.022083,-0.0052421,-0.0351023,0,0,0,0,0.0262556,0.532963,-0.963006,35.4375,1,52156,5260283
133,2,0.238237,0.0563297,9.59985,0.333823,-0.383124,0.742579,0.00237837,0.000546648,0.0959987,1,8.25823e-05,-2.17865e-05,-0.000166782,0.0165165,-0.00435729,-0.0333565,0,0,0,0,0.0299774,0.533988,-0.967546,35.4375,1,52157,5260383
134,1,0.238237,0.0563297,9.59985,0.333823,-0.383124,0.742579,0.00237837,0.000546648,0.0959987,1,8.25823e-05,-2.17865e-05,-0.000166782,0.0165165,-0.00435729,-0.0333565,0,0,0,0,0.0299774,0.533988,-0.967546,35.4375,1,52157,5260383
134,2,-0.0205268,-0.0851189,10.0573,0.0245345,-0.485022,0.995106,-0.000206817,-0.000865868,0.100573,1,7.33307e-05,-6.23948e-06,-0.000171715,0.0146661,-0.0012479,-0.034343,0,0,0,0,0.0269668,0.532656,-0.973623,35.4375,1,52158,5260483
135,1,-0.0205268,-0.0851189,10.0573,0.0245345,-0.485022,0.995106,-0.000206817,-0.000865868,0.100573,1,7.33307e-05,-6.23948e-06,-0.000171715,0.0146661,-0.0012479,-0.034343,0,0,0,0,0.0269668,0.532656,-0.973623,35.4375,1,52158,5260483
135,2,-0.339848,0.335955,10.6044,0.00189883,-0.066863,1.78439,-0.00337711,0.00334449,0.106045,1,7.5804e-05,9.60546e-05,-0.000149139,0.0151608,0.0192109,-0.0298278,0,0,0,0,0.0222738,0.529237,-0.971152,35.4375,1,52159,5260583
137,1,-0.339848,0.335955,10.6044,0.00189883,-0.066863,1.78439,-0.00337711,0.00334449,0.106045,1,7.5804e-05,9.60546e-05,-0.000149139,0.0151608,0.0192109,-0.0298278,0,0,0,0,0.0222738,0.529237,-0.971152,35.4375,1,52159,5260583
137,2,-0.938995,0.0271359,9.59531,-0.78209,-0.2209,1.02405,-0.00938047,0.000280973,0.095954,1,-3.36942e-05,4.89159e-05,-0.000167705,-0.00673884,0.00978317,-0.0335411,0,0,0,0,0.0209448,0.526756,-0.968171,35.4375,1,52160,5260683
138,1,-0.938995,0.0271359,9.59531,-0.78209,-0.2209,1.02405,-0.00938047,0.000280973,0.095954,1,-3.36942e-05,4.89159e-05,-0.000167705,-0.00673884,0.00978317,-0.0335411,0,0,0,0,0.0209448,0.526756,-0.968171,35.4375,1,52160,5260683
138,2,-0.921318,-0.536557,9.14004,-0.883736,-0.896796,0.413521,-0.00923038,-0.00536516,0.0913987,1,1.54281e-05,-8.38723e-05,-0.000174704,0.00308562,-0.0167744,-0.0349409,0,0,0,0,0.0224831,0.527638,-0.963612,35.4375,1,52161,5260783
138,3,-0.921318,-0.536557,9.14004,-0.883736,-0.896796,0.413521,-0.00923038,-0.00536516,0.0913987,1,1.54281e-05,-8.38723e-05,-0.000174704,0.00308562,-0.0167744,-0.0349409,0,0,0,0,0.0224831,0.527638,-0.963612,35.4375,1,52161,5260783
138,4,0.209922,-0.298225,10.1936,0.341848,-0.618825,1.00113,0.00207243,-0.00299073,0.101937,1,3.77711e-05,-0.000125972,-0.00018664,0.00755422,-0.0251944,-0.037328,0,0,0,0,0.0228673,0.533488,-0.963484,35.4375,1,52162,5260883
139,1,0.209922,-0.298225,10.1936,0.341848,-0.618825,1.00113,0.00207243,-0.00299073,0.101937,1,3.77711e-05,-0.000125972,-0.00018664,0.00755422,-0.0251944,-0.037328,0,0,0,0,0.0228673,0.533488,-0.963484,35.4375,1,52162,5260883
139,2,0.201513,-0.0397005,9.9738,0.546848,-0.5083,1.13314,0.00202247,-0.000422638,0.0997377,1,0.000124418,3.76622e-05,-0.000201762,0.0248836,0.00753244,-0.0403524,0,0,0,0,0.0236455,0.536505,-0.968976,35.4375,1,52163,5260983
139,3,0.201513,-0.0397005,9.9738,0.546848,-0.5083,1.13314,0.00202247,-0.000422638,0.0997377,1,0.000124418,3.76622e-05,-0.000201762,0.0248836,0.00753244,-0.0403524,0,0,0,0,0.0236455,0.536505,-0.968976,35.4375,1,52163,5260983
139,4,-0.572618,0.302535,9.42661,-0.469427,0.0301845,1.03924,-0.00570952,0.00302751,0.094267,1,1.2516e-06,8.16391e-05,-0.000210099,0.000250319,0.0163278,-0.0420198,0,0,0,0,0.0211981,0.534628,-0.972037,35.4375,1,52164,5261083
140,1,-0.572618,0.302535,9.42661,-0.469427,0.0301845,1.03924,-0.00570952,0.00302751,0.094267,1,1.2516e-06,8.16391e-05,-0.000210099,0.000250319,0.0163278,-0.0420198,0,0,0,0,0.0211981,0.534628,-0.972037,35.4375,1,52164,5261083
140,2,-0.665918,-0.60885,10.2058,-0.469561,-1.09227,1.2455,-0.00666773,-0.00609916,0.102057,1,6.61159e-05,-2.91718e-05,-0.000213019,0.0132232,-0.00583437,-0.0426039,0,0,0,0,0.0188984,0.531198,-0.970083,35.4375,1,52165,5261183
140,3,-0.665918,-0.60885,10.2058,-0.469561,-1.09227,1.2455,-0.00666773,-0.00609916,0.102057,1,6.61159e-05,-2.91718e-05,-0.000213019,0.0132232,-0.00583437,-0.0426039,0,0,0,0,0.0188984,0.531198,-0.970083,35.4375,1,52165,5261183
140,4,-0.278037,-0.178136,10.1356,-0.151561,-0.493594,0.962715,-0.00279453,-0.00179113,0.101355,1,5.36666e-05,-6.63326e-05,-0.000199713,0.0107333,-0.0132665,-0.0399426,0,0,0,0,0.0200125,0.530115,-0.964556,35.4375,1,52166,5261283
141,1,-0.278037,-0.178136,10.1356,-0.151561,-0.493594,0.962715,-0.00279453,-0.00179113,0.101355,1,5.36666e-05,-6.63326e-05,-0.000199713,0.0107333,-0.0132665,-0.0399426,0,0,0,0,0.0200125,0.530115,-0.964556,35.4375,1,52166,5261283
141,2,-0.349622,-0.246841,9.46421,-0.175334,-0.688119,1.02042,-0.00348861,-0.00248574,0.0946419,1,9.85112e-05,4.51314e-05,-0.000187716,0.0197022,0.00902627,-0.0375432,0,0,0,0,0.0210492,0.531498,-0.96049,35.4375,1,52167,5261383
142,1,-0.349622,-0.246841,9.46421,-0.175334,-0.688119,1.02042,-0.00348861,-0.00248574,0.0946419,1,9.85112e-05,4.51314e-05,-0.000187716,0.0197022,0.00902627,-0.0375432,0,0,0,0,0.0210492,0.531498,-0.96049,35.4375,1,52167,5261383
142,2,-0.577936,-0.311035,9.72507,-0.69594,-0.675817,0.848211,-0.00579041,-0.00312199,0.0972497,1,7.02875e-05,-5.11712e-05,-0.000175479,0.0140575,-0.0102342,-0.0350957,0,0,0,0,0.0223905,0.53397,-0.962966,35.4375,1,52168,5261483
142,3,-0.577936,-0.311035,9.72507,-0.69594,-0.675817,0.848211,-0.00579041,-0.00312199,0.0972497,1,7.02875e-05,-5.11712e-05,-0.000175479,0.0140575,-0.0102342,-0.0350957,0,0,0,0,0.0223905,0.53397,-0.962966,35.4375,1,52168,5261483
142,4,-0.480061,-0.843488,9.7644,-0.32222,-1.38809,0.773453,-0.0048042,-0.008456,0.097642,1,0.000117467,-2.00532e-06,-0.000189284,0.0234935,-0.000401064,-0.0378569,0,0,0,0,0.0232213,0.53454,-0.968008,35.4375,1,52169,5261583
142,5,-0.480061,-0.843488,9.7644,-0.32222,-1.38809,0.773453,-0.0048042,-0.008456,0.097642,1,0.000117467,-2.00532e-06,-0.000189284,0.0234935,-0.000401064,-0.0378569,0,0,0,0,0.0232213,0.53454,-0.968008,35.4375,1,52169,5261583
142,6,-0.958999,-0.131076,9.29344,-0.933506,-0.373047,0.455539,-0.00961235,-0.00132958,0.0929318,1,0.000118006,-0.000117968,-0.000161978,0.0236011,-0.0235937,-0.0323956,0,0,0,0,0.0197714,0.53511,-0.97101,35.4375,1,52170,5261683
143,1,-0.958999,-0.131076,9.29344,-0.933506,-0.373047,0.455539,-0.00961235,-0.00132958,0.0929318,1,0.000118006,-0.000117968,-0.000161978,0.0236011,-0.0235937,-0.0323956,0,0,0,0,0.0197714,0.53511,-0.97101,35.4375,1,52170,5261683
143,2,-0.219537,0.67818,9.69068,-0.117363,0.30175,0.896583,-0.00221207,0.00675157,0.0969085,1,0.000159996,-9.84092e-05,-0.000175802,0.0319991,-0.0196818,-0.0351605,0,0,0,0,0.018479,0.531157,-0.967556,35.4375,1,52171,5261783
143,3,-0.219537,0.67818,9.69068,-0.117363,0.30175,0.896583,-0.00221207,0.00675157,0.0969085,1,0.000159996,-9.84092e-05,-0.000175802,0.0319991,-0.0196818,-0.0351605,0,0,0,0,0.018479,0.531157,-0.967556,35.4375,1,52171,5261783
143,4,-0.314016,0.555987,9.90296,-0.145534,0.193995,1.14058,-0.00314564,0.00555551,0.0990296,1,2.84913e-05,-3.91825e-05,-0.000204643,0.00569825,-0.00783649,-0.0409286,0,0,0,0,0.0176681,0.528645,-0.963063,35.4375,1,52172,5261883
144,1,-0.314016,0.555987,9.90296,-0.145534,0.193995,1.14058,-0.00314564,0.00555551,0.0990296,1,2.84913e-05,-3.91825e-05,-0.000204643,0.00569825,-0.00783649,-0.0409286,0,0,0,0,0.0176681,0.528645,-0.963063,35.4375,1,52172,5261883
144,2,-0.289762,0.0553112,9.85511,0.00652616,-0.379604,0.80076,-0.00291288,0.000549958,0.0985506,1,2.29611e-05,-7.87473e-05,-0.000236091,0.00459221,-0.0157495,-0.0472181,0,0,0,0,0.0182322,0.53099,-0.957963,35.4375,1,52173,5261983
144,3,-0.289762,0.0553112,9.85511,0.00652616,-0.379604,0.80076,-0.00291288,0.000549958,0.0985506,1,2.29611e-05,-7.87473e-05,-0.000236091,0.00459221,-0.0157495,-0.0472181,0,0,0,0,0.0182322,0.53099,-0.957963,35.4375,1,52173,5261983
144,4,-0.233634,-0.397393,9.77382,-0.03603,-0.767702,1.18379,-0.0023384,-0.00397641,0.0977381,1,1.80568e-05,-1.44813e-06,-0.000223531,0.00361136,-0.000289625,-0.0447062,0,0,0,0,0.0200352,0.536845,-0.958851,35.4375,1,52174,5262083
145,1,-0.233634,-0.397393,9.77382,-0.03603,-0.767702,1.18379,-0.0023384,-0.00397641,0.0977381,1,1.80568e-05,-1.44813e-06,-0.000223531,0.00361136,-0.000289625,-0.0447062,0,0,0,0,0.0200352,0.536845,-0.958851,35.4375,1,52174,5262083
145,2,-1.28326,-0.645523,9.03372,-1.17999,-0.991611,0.301854,-0.0128472,-0.00646046,0.0903348,1,5.86419e-05,-6.55837e-05,-0.000208659,0.0117284,-0.0131167,-0.0417319,0,0,0,0,0.0217874,0.5384,-0.964885,35.4375,1,52175,5262183
145,3,-1.28326,-0.645523,9.03372,-1.17999,-0.991611,0.301854,-0.0128472,-0.00646046,0.0903348,1,5.86419e-05,-6.55837e-05,-0.000208659,0.0117284,-0.0131167,-0.0417319,0,0,0,0,0.0217874,0.5384,-0.964885,35.4375,1,52175,5262183
145,4,-0.256726,-1.07743,9.68901,-0.155951,-1.44569,0.493914,-0.00261258,-0.0107998,0.0968861,1,0.000137474,-0.000210018,-0.000214455,0.0274949,-0.0420037,-0.042891,0,0,0,0,0.0188419,0.534612,-0.970006,35.4375,1,52176,5262283
145,5,-0.256726,-1.07743,9.68901,-0.155951,-1.44569,0.493914,-0.00261258,-0.0107998,0.0968861,1,0.000137474,-0.000210018,-0.000214455,0.0274949,-0.0420037,-0.042891,0,0,0,0,0.0188419,0.534612,-0.970006,35.4375,1,52176,5262283
145,6,0.336603,-0.0916833,10.1366,0.454576,-0.679554,1.52046,0.00335308,-0.000959613,0.101366,1,0.000204736,-6.21164e-05,-0.000189496,0.0409473,-0.0124233,-0.0378992,0,0,0,0,0.0151306,0.527798,-0.969131,35.4375,1,52177,5262383
146,1,0.336603,-0.0916833,10.1366,0.454576,-0.679554,1.52046,0.00335308,-0.000959613,0.101366,1,0.000204736,-6.21164e-05,-0.000189496,0.0409473,-0.0124233,-0.0378992,0,0,0,0,0.0151306,0.527798,-0.969131,35.4375,1,52177,5262383
146,2,-0.464393,0.183808,10.0809,-0.215394,-0.11653,1.33835,-0.00464484,0.00182802,0.100809,1,5.75381e-05,-7.5547e-06,-0.00016605,0.0115076,-0.00151094,-0.03321,0,0,0,0,0.0124162,0.52625,-0.963092,35.4375,1,52178,5262483
146,3,-0.464393,0.183808,10.0809,-0.215394,-0.11653,1.33835,-0.00464484,0.00182802,0.100809,1,5.75381e-05,-7.5547e-06,-0.00016605,0.0115076,-0.00151094,-0.03321,0,0,0,0,0.0124162,0.52625,-0.963092,35.4375,1,52178,5262483
146,4,-0.883025,0.174235,9.134,-0.727136,-0.34071,0.118914,-0.00885067,0.00171775,0.0913385,1,0.000154102,-0.000115542,-0.000200795,0.0308205,-0.0231084,-0.0401589,0,0,0,0,0.0134453,0.529566,-0.957972,35.4375,1,52179,5262583
146,5,-0.883025,0.174235,9.134,-0.727136,-0.34071,0.118914,-0.00885067,0.00171775,0.0913385,1,0.000154102,-0.000115542,-0.000200795,0.0308205,-0.0231084,-0.0401589,0,0,0,0,0.0134453,0.529566,-0.957972,35.4375,1,52179,5262583
146,6,0.346099,-0.168409,10.7152,0.348259,-0.471008,1.85707,0.00344139,-0.00170032,0.107152,1,6.88937e-05,-8.8072e-05,-0.000211991,0.0137787,-0.0176144,-0.0423981,0,0,0,0,0.0167243,0.534904,-0.957869,35.4375,1,52180,5262683
146,7,0.346099,-0.168409,10.7152,0.348259,-0.471008,1.85707,0.00344139,-0.00170032,0.107152,1,6.88937e-05,-8.8072e-05,-0.000211991,0.0137787,-0.0176144,-0.0423981,0,0,0,0,0.0167243,0.534904,-0.957869,35.4375,1,52180,5262683
146,8,-0.0440759,0.161679,11.0958,0.211702,-0.404696,2.263,-0.00042005,0.001565,0.110959,1,0.000234262,9.01471e-05,-0.000221202,0.0468523,0.0180294,-0.0442403,0,0,0,0,0.017502,0.536476,-0.964403,35.4375,1,52181,5262783
147,1,-0.0440759,0.161679,11.0958,0.211702,-0.404696,2.263,-0.00042005,0.001565,0.110959,1,0.000234262,9.01471e-05,-0.000221202,0.0468523,0.0180294,-0.0442403,0,0,0,0,0.017502,0.536476,-0.964403,35.4375,1,52181,5262783
147,2,-0.995508,0.439094,10.3043,-0.699525,0.255871,1.51321,-0.00993142,0.00439511,0.103046,1,1.71709e-06,0.000105096,-0.000227353,0.000343419,0.0210192,-0.0454707,0,0,0,0,0.0144952,0.534179,-0.971006,35.4375,1,52182,5262883
147,3,-0.995508,0.439094,10.3043,-0.699525,0.255871,1.51321,-0.00993142,0.00439511,0.103046,1,1.71709e-06,0.000105096,-0.000227353,0.000343419,0.0210192,-0.0454707,0,0,0,0,0.0144952,0.534179,-0.971006,35.4375,1,52182,5262883
147,4,-1.40887,-0.11407,9.30155,-1.25006,-0.504629,0.550644,-0.0140891,-0.00114397,0.0930154,1,5.10563e-05,7.2749e-07,-0.000221095,0.0102113,0.000145498,-0.044219,0,0,0,0,0.0127174,0.529751,-0.968066,35.4375,1,52183,5262983
147,5,-1.40887,-0.11407,9.30155,-1.25006,-0.504629,0.550644,-0.0140891,-0.00114397,0.0930154,1,5.10563e-05,7.2749e-07,-0.000221095,0.0102113,0.000145498,-0.044219,0,0,0,0,0.0127174,0.529751,-0.968066,35.4375,1,52183,5262983
147,6,-0.195012,0.110425,9.84984,-0.0786709,-0.435815,1.11667,-0.00195723,0.00110057,0.0984983,1,2.31465e-05,-3.858e-05,-0.00022448,0.00462929,-0.007716,-0.044896,0,0,0,0,0.0109695,0.528674,-0.961516,35.4375,1,52184,5263083
148,1,-0.195012,0.110425,9.84984,-0.0786709,-0.435815,1.11667,-0.00195723,0.00110057,0.0984983,1,2.31465e-05,-3.858e-05,-0.00022448,0.00462929,-0.007716,-0.044896,0,0,0,0,0.0109695,0.528674,-0.961516,35.4375,1,52184,5263083
148,2,-0.334425,0.275912,9.43637,-0.223592,-0.0582863,0.517378,-0.00334787,0.00277007,0.0943633,1,-4.97425e-05,-2.60117e-05,-0.00023387,-0.0099485,-0.00520233,-0.0467741,0,0,0,0,0.012549,0.530008,-0.954928,35.4375,1,52185,5263183
148,3,-0.334425,0.275912,9.43637,-0.223592,-0.0582863,0.517378,-0.00334787,0.00277007,0.0943633,1,-4.97425e-05,-2.60117e-05,-0.00023387,-0.0099485,-0.00520233,-0.0467741,0,0,0,0,0.012549,0.530008,-0.954928,35.4375,1,52185,5263183
148,4,-0.128935,-0.971941,9.74148,0.031769,-1.42959,0.97957,-0.00128313,-0.00973204,0.0974136,1,6.77957e-05,5.44921e-05,-0.00022589,0.0135591,0.0108984,-0.045178,0,0,0,0,0.0153583,0.53245,-0.956402,35.4375,1,52186,5263283
148,5,-0.128935,-0.971941,9.74148,0.031769,-1.42959,0.97957,-0.00128313,-0.00973204,0.0974136,1,6.77957e-05,5.44921e-05,-0.00022589,0.0135591,0.0108984,-0.045178,0,0,0,0,0.0153583,0.53245,-0.956402,35.4375,1,52186,5263283
148,6,-1.02426,-0.133821,9.63487,-0.943228,-0.391266,0.640275,-0.0102345,-0.00135144,0.0963494,1,9.27578e-05,4.5615e-05,-0.00022695,0.0185516,0.00912299,-0.04539,0,0,0,0,0.0161402,0.534501,-0.96242,35.4375,1,52187,5263383
149,1,-1.02426,-0.133821,9.63487,-0.943228,-0.391266,0.640275,-0.0102345,-0.00135144,0.0963494,1,9.27578e-05,4.5615e-05,-0.00022695,0.0185516,0.00912299,-0.04539,0,0,0,0,0.0161402,0.534501,-0.96242,35.4375,1,52187,5263383
149,2,-0.721254,-0.495344,9.76545,-0.320267,-0.999218,1.11443,-0.00720414,-0.00497073,0.0976542,1,0.000104503,5.39659e-05,-0.000216537,0.0209007,0.0107932,-0.0433074,0,0,0,0,0.0136644,0.533609,-0.965964,35.4375,1,52188,5263483
149,3,-0.721254,-0.495344,9.76545,-0.320267,-0.999218,1.11443,-0.00720414,-0.00497073,0.0976542,1,0.000104503,5.39659e-05,-0.000216537,0.0209007,0.0107932,-0.0433074,0,0,0,0,0.0136644,0.533609,-0.965964,35.4375,1,52188,5263483
149,4,-0.706302,0.202259,9.87138,-0.553855,-0.243477,1.00501,-0.00707323,0.00201202,0.0987133,1,6.89622e-05,-5.61478e-05,-0.000215172,0.0137924,-0.0112296,-0.0430344,0,0,0,0,0.0108627,0.529234,-0.965544,35.4375,1,52189,5263583
150,1,-0.706302,0.202259,9.87138,-0.553855,-0.243477,1.00501,-0.00707323,0.00201202,0.0987133,1,6.89622e-05,-5.61478e-05,-0.000215172,0.0137924,-0.0112296,-0.0430344,0,0,0,0,0.0108627,0.529234,-0.965544,35.4375,1,52189,5263583
150,2,-0.530468,0.331371,9.5342,-0.482211,-0.0711632,0.677962,-0.00531297,0.00332028,0.0953413,1,-2.26746e-05,-5.08103e-05,-0.000211917,-0.00453492,-0.0101621,-0.0423834,0,0,0,0,0.010068,0.525746,-0.961072,35.4375,1,52190,5263683
150,3,-0.530468,0.331371,9.5342,-0.482211,-0.0711632,0.677962,-0.00531297,0.00332028,0.0953413,1,-2.26746e-05,-5.08103e-05,-0.000211917,-0.00453492,-0.0101621,-0.0423834,0,0,0,0,0.010068,0.525746,-0.961072,35.4375,1,52190,5263683
150,4,-0.28256,0.103886,9.48336,-0.13525,-0.319196,0.675096,-0.00283236,0.00103926,0.0948334,1,4.98084e-06,-3.82779e-05,-0.000237692,0.000996168,-0.00765558,-0.0475384,0,0,0,0,0.013535,0.527091,-0.956007,35.4375,1,52191,5263783
150,5,-0.28256,0.103886,9.48336,-0.13525,-0.319196,0.675096,-0.00283236,0.00103926,0.0948334,1,4.98084e-06,-3.82779e-05,-0.000237692,0.000996168,-0.00765558,-0.0475384,0,0,0,0,0.013535,0.527091,-0.956007,35.4375,1,52191,5263783
150,6,-0.311465,-0.12531,9.53724,-0.362704,-0.484283,0.537438,-0.00312075,-0.00124805,0.0953723,1,-1.90152e-05,-2.89864e-05,-0.000229371,-0.00380304,-0.00579728,-0.0458743,0,0,0,0,0.0143956,0.531013,-0.957439,35.4375,1,52192,5263883
151,1,-0.311465,-0.12531,9.53724,-0.362704,-0.484283,0.537438,-0.00312075,-0.00124805,0.0953723,1,-1.90152e-05,-2.89864e-05,-0.000229371,-0.00380304,-0.00579728,-0.0458743,0,0,0,0,0.0143956,0.531013,-0.957439,35.4375,1,52192,5263883
151,2,0.152801,-0.668876,10.622,0.327037,-1.16007,1.79427,0.0015367,-0.0067076,0.106219,1,8.53833e-05,5.52175e-05,-0.000227387,0.0170767,0.0110435,-0.0454774,0,0,0,0,0.0137385,0.533555,-0.962936,35.4375,1,52193,5263983
151,3,0.152801,-0.668876,10.622,0.327037,-1.16007,1.79427,0.0015367,-0.0067076,0.106219,1,8.53833e-05,5.52175e-05,-0.000227387,0.0170767,0.0110435,-0.0454774,0,0,0,0,0.0137385,0.533555,-0.962936,35.4375,1,52193,5263983
151,4,-0.641543,-0.161181,10.2426,-0.311015,-0.604115,1.53499,-0.00638976,-0.00162658,0.102427,1,8.67841e-05,0.000129008,-0.00023481,0.0173568,0.0258015,-0.0469619,0,0,0,0,0.0117234,0.533155,-0.966976,35.4375,1,52194,5264083
152,1,-0.641543,-0.161181,10.2426,-0.311015,-0.604115,1.53499,-0.00638976,-0.00162658,0.102427,1,8.67841e-05,0.000129008,-0.00023481,0.0173568,0.0258015,-0.0469619,0,0,0,0,0.0117234,0.533155,-0.966976,35.4375,1,52194,5264083
152,2,-1.37456,-0.0154053,8.985,-1.19678,-0.370601,0.144654,-0.0137455,-0.000142572,0.08985,1,-3.22658e-05,8.42525e-07,-0.000206699,-0.00645317,0.000168505,-0.0413398,0,0,0,0,0.0104471,0.528226,-0.963544,35.4375,1,52195,5264183
152,3,-1.37456,-0.0154053,8.985,-1.19678,-0.370601,0.144654,-0.0137455,-0.000142572,0.08985,1,-3.22658e-05,8.42525e-07,-0.000206699,-0.00645317,0.000168505,-0.0413398,0,0,0,0,0.0104471,0.528226,-0.963544,35.4375,1,52195,5264183
152,4,0.254472,-0.535207,10.1086,0.419905,-1.05093,1.24305,0.0025323,-0.00535786,0.101086,1,2.40952e-05,-5.17836e-05,-0.000181667,0.00481905,-0.0103567,-0.0363333,0,0,0,0,0.00962435,0.527168,-0.958513,35.4375,1,52196,5264283
153,1,0.254472,-0.535207,10.1086,0.419905,-1.05093,1.24305,0.0025323,-0.00535786,0.101086,1,2.40952e-05,-5.17836e-05,-0.000181667,0.00481905,-0.0103567,-0.0363333,0,0,0,0,0.00962435,0.527168,-0.958513,35.4375,1,52196,5264283
153,2,-0.00663246,0.167357,10.1496,0.357877,-0.389176,1.43685,-5.44449e-05,0.00165604,0.101496,1,8.64359e-05,5.52563e-05,-0.000199157,0.0172872,0.0110513,-0.0398313,0,0,0,0,0.0121205,0.527564,-0.954475,35.4375,1,52197,5264383
153,3,-0.00663246,0.167357,10.1496,0.357877,-0.389176,1.43685,-5.44449e-05,0.00165604,0.101496,1,8.64359e-05,5.52563e-05,-0.000199157,0.0172872,0.0110513,-0.0398313,0,0,0,0,0.0121205,0.527564,-0.954475,35.4375,1,52197,5264383
153,4,-0.791938,0.0377182,9.0992,-0.7457,-0.285531,0.182367,-0.00791794,0.000376524,0.0909921,1,2.19825e-05,7.04702e-06,-0.000211079,0.0043965,0.0014094,-0.0422159,0,0,0,0,0.0149588,0.530467,-0.954424,35.4375,1,52198,5264483
154,1,-0.791938,0.0377182,9.0992,-0.7457,-0.285531,0.182367,-0.00791794,0.000376524,0.0909921,1,2.19825e-05,7.04702e-06,-0.000211079,0.0043965,0.0014094,-0.0422159,0,0,0,0,0.0149588,0.530467,-0.954424,35.4375,1,52198,5264483
154,2,-0.442459,-0.501399,9.61834,-0.38782,-0.908944,0.731823,-0.00443209,-0.00502083,0.0961827,1,4.49927e-05,-2.83177e-05,-0.000204753,0.00899854,-0.00566354,-0.0409507,0,0,0,0,0.0143221,0.532512,-0.959426,35.4375,1,52199,5264583
154,3,-0.442459,-0.501399,9.61834,-0.38782,-0.908944,0.731823,-0.00443209,-0.00502083,0.0961827,1,4.49927e-05,-2.83177e-05,-0.000204753,0.00899854,-0.00566354,-0.0409507,0,0,0,0,0.0143221,0.532512,-0.959426,35.4375,1,52199,5264583
154,4,-0.15744,-0.461032,10.0425,0.0377279,-0.982951,1.25699,-0.00157525,-0.00463154,0.100424,1,0.000108641,4.47932e-06,-0.000190227,0.0217281,0.000895863,-0.0380454,0,0,0,0,0.0118093,0.531647,-0.964484,35.4375,1,52200,5264683
154,5,-0.15744,-0.461032,10.0425,0.0377279,-0.982951,1.25699,-0.00157525,-0.00463154,0.100424,1,0.000108641,4.47932e-06,-0.000190227,0.0217281,0.000895863,-0.0380454,0,0,0,0,0.0118093,0.531647,-0.964484,35.4375,1,52200,5264683
154,6,-0.345354,-0.323448,10.246,-0.16153,-0.715456,1.34414,-0.00345407,-0.00324825,0.10246,1,7.36996e-05,3.47809e-06,-0.00019217,0.0147399,0.000695619,-0.0384339,0,0,0,0,0.0104803,0.529166,-0.961503,35.4375,1,52201,5264783
155,1,-0.345354,-0.323448,10.246,-0.16153,-0.715456,1.34414,-0.00345407,-0.00324825,0.10246,1,7.36996e-05,3.47809e-06,-0.00019217,0.0147399,0.000695619,-0.0384339,0,0,0,0,0.0104803,0.529166,-0.961503,35.4375,1,52201,5264783
155,2,-0.675837,0.16029,9.70427,-0.581809,-0.294119,0.856774,-0.00676105,0.00158352,0.0970428,1,0.000113865,-1.71268e-05,-0.000201187,0.022773,-0.00342537,-0.0402373,0,0,0,0,0.0102203,0.526117,-0.954499,35.4375,1,52202,5264883
155,3,-0.675837,0.16029,9.70427,-0.581809,-0.294119,0.856774,-0.00676105,0.00158352,0.0970428,1,0.000113865,-1.71268e-05,-0.000201187,0.022773,-0.00342537,-0.0402373,0,0,0,0,0.0102203,0.526117,-0.954499,35.4375,1,52202,5264883
155,4,-0.246992,0.159217,10.0202,0.00238168,-0.310705,1.24276,-0.00246339,0.00157794,0.100202,1,7.62043e-05,2.92435e-05,-0.000211732,0.0152409,0.00584871,-0.0423464,0,0,0,0,0.0102786,0.528484,-0.950406,35.4375,1,52203,5264983
156,1,-0.246992,0.159217,10.0202,0.00238168,-0.310705,1.24276,-0.00246339,0.00157794,0.100202,1,7.62043e-05,2.92435e-05,-0.000211732,0.0152409,0.00584871,-0.0423464,0,0,0,0,0.0102786,0.528484,-0.950406,35.4375,1,52203,5264983
156,2,-0.674639,0.0761488,9.40947,-0.513862,-0.323312,0.521272,-0.0067528,0.000754575,0.0940943,1,5.35122e-05,-3.59859e-05,-0.000233897,0.0107024,-0.00719718,-0.0467795,0,0,0,0,0.0120973,0.531918,-0.952358,35.4375,1,52204,5265083
156,3,-0.674639,0.0761488,9.40947,-0.513862,-0.323312,0.521272,-0.0067528,0.000754575,0.0940943,1,5.35122e-05,-3.59859e-05,-0.000233897,0.0107024,-0.00719718,-0.0467795,0,0,0,0,0.0120973,0.531918,-0.952358,35.4375,1,52204,5265083
156,4,-0.0313713,-0.12812,9.85346,0.204803,-0.612145,1.07193,-0.000311946,-0.001303,0.0985344,1,0.000111355,1.19383e-05,-0.000226737,0.0222709,0.00238765,-0.0453474,0,0,0,0,0.0133764,0.53299,-0.958401,35.4375,1,52205,5265183
157,1,-0.0313713,-0.12812,9.85346,0.204803,-0.612145,1.07193,-0.000311946,-0.001303,0.0985344,1,0.000111355,1.19383e-05,-0.000226737,0.0222709,0.00238765,-0.0453474,0,0,0,0,0.0133764,0.53299,-0.958401,35.4375,1,52205,5265183
157,2,-0.0964648,-0.47152,9.94796,0.0571449,-0.787379,1.05696,-0.000960953,-0.00472682,0.0994791,1,6.06771e-05,2.97006e-05,-0.000234516,0.0121354,0.00594012,-0.0469031,0,0,0,0,0.0113571,0.532111,-0.962957,35.4375,1,52206,5265283
157,3,-0.0964648,-0.47152,9.94796,0.0571449,-0.787379,1.05696,-0.000960953,-0.00472682,0.0994791,1,6.06771e-05,2.97006e-05,-0.000234516,0.0121354,0.00594012,-0.0469031,0,0,0,0,0.0113571,0.532111,-0.962957,35.4375,1,52206,5265283
157,4,-0.597439,-0.73356,9.42551,-0.492237,-1.22152,0.578015,-0.00597148,-0.00736869,0.0942526,1,0.000189883,3.30445e-05,-0.000226275,0.0379766,0.00660891,-0.0452549,0,0,0,0,0.00910668,0.528645,-0.958983,35.4375,1,52207,5265383
158,1,-0.597439,-0.73356,9.42551,-0.492237,-1.22152,0.578015,-0.00597148,-0.00736869,0.0942526,1,0.000189883,3.30445e-05,-0.000226275,0.0379766,0.00660891,-0.0452549,0,0,0,0,0.00910668,0.528645,-0.958983,35.4375,1,52207,5265383
158,2,-0.678031,-0.387724,9.53751,-0.55779,-0.845542,0.713918,-0.00678247,-0.00391118,0.0953735,1,0.000193011,-2.69436e-06,-0.000211668,0.0386023,-0.000538872,-0.0423337,0,0,0,0,0.00787685,0.527537,-0.950921,35.4375,1,52208,5265483
158,3,-0.678031,-0.387724,9.53751,-0.55779,-0.845542,0.713918,-0.00678247,-0.00391118,0.0953735,1,0.000193011,-2.69436e-06,-0.000211668,0.0386023,-0.000538872,-0.0423337,0,0,0,0,0.00787685,0.527537,-0.950921,35.4375,1,52208,5265483
158,4,-0.746963,0.135459,9.33862,-0.658457,-0.284039,0.374818,-0.00748888,0.00132704,0.093385,1,0.000163728,-0.000105954,-0.000202454,0.0327455,-0.0211908,-0.0404909,0,0,0,0,0.0103531,0.529875,-0.946335,35.4375,1,52209,5265583
158,5,-0.746963,0.135459,9.33862,-0.658457,-0.284039,0.374818,-0.00748888,0.00132704,0.093385,1,0.000163728,-0.000105954,-0.000202454,0.0327455,-0.0211908,-0.0404909,0,0,0,0,0.0103531,0.529875,-0.946335,35.4375,1,52209,5265583
158,6,0.242302,0.194943,10.6457,0.48033,-0.237094,1.69201,0.002414,0.00192648,0.106458,1,0.000103057,-4.6201e-05,-0.000209003,0.0206114,-0.0092402,-0.0418006,0,0,0,0,0.0116617,0.532852,-0.94981,35.4375,1,52210,5265683
158,7,0.242302,0.194943,10.6457,0.48033,-0.237094,1.69201,0.002414,0.00192648,0.106458,1,0.000103057,-4.6201e-05,-0.000209003,0.0206114,-0.0092402,-0.0418006,0,0,0,0,0.0116617,0.532852,-0.94981,35.4375,1,52210,5265683
158,8,-0.517034,0.221802,10.4822,0.114508,-0.322288,1.91165,-0.00515247,0.00219939,0.104823,1,0.000100174,8.03706e-05,-0.000229413,0.0200348,0.0160741,-0.0458827,0,0,0,0,0.0124593,0.532483,-0.956893,35.4375,1,52211,5265783
159,1,-0.517034,0.221802,10.4822,0.114508,-0.322288,1.91165,-0.00515247,0.00219939,0.104823,1,0.000100174,8.03706e-05,-0.000229413,0.0200348,0.0160741,-0.0458827,0,0,0,0,0.0124593,0.532483,-0.956893,35.4375,1,52211,5265783
159,2,-1.14476,0.135354,9.34809,-0.960003,-0.149327,0.517011,-0.0114587,0.00136267,0.0934794,1,-2.14122e-05,-6.26462e-05,-0.000223797,-0.00428244,-0.0125292,-0.0447594,0,0,0,0,0.0110231,0.529117,-0.958981,35.4375,1,52212,5265883
160,1,-1.14476,0.135354,9.34809,-0.960003,-0.149327,0.517011,-0.0114587,0.00136267,0.0934794,1,-2.14122e-05,-6.26462e-05,-0.000223797,-0.00428244,-0.0125292,-0.0447594,0,0,0,0,0.0110231,0.529117,-0.958981,35.4375,1,52212,5265883
160,2,-0.307184,-0.255611,9.52291,-0.0550433,-0.843713,0.714535,-0.00309462,-0.00257218,0.095228,1,9.14404e-05,-0.000113705,-0.000218628,0.0182881,-0.022741,-0.0437257,0,0,0,0,0.00780237,0.526146,-0.954992,35.4375,1,52213,5265983
161,1,-0.307184,-0.255611,9.52291,-0.0550433,-0.843713,0.714535,-0.00309462,-0.00257218,0.095228,1,9.14404e-05,-0.000113705,-0.000218628,0.0182881,-0.022741,-0.0437257,0,0,0,0,0.00780237,0.526146,-0.954992,35.4375,1,52213,5265983
161,2,0.602106,-0.536036,10.4729,0.824252,-0.964391,1.53543,0.00601149,-0.00537171,0.104729,1,4.23532e-05,-3.51463e-05,-0.000205908,0.00847063,-0.00702925,-0.0411816,0,0,0,0,0.00793807,0.526047,-0.949439,35.4375,1,52214,5266083
161,3,0.602106,-0.536036,10.4729,0.824252,-0.964391,1.53543,0.00601149,-0.00537171,0.104729,1,4.23532e-05,-3.51463e-05,-0.000205908,0.00847063,-0.00702925,-0.0411816,0,0,0,0,0.00793807,0.526047,-0.949439,35.4375,1,52214,5266083
161,4,-0.36805,-0.336575,10.1644,-0.0696262,-0.907404,1.37234,-0.00366092,-0.00340012,0.101643,1,0.000176756,0.000103382,-0.000211708,0.0353512,0.0206763,-0.0423417,0,0,0,0,0.0108627,0.528886,-0.945854,35.4375,1,52215,5266183
161,5,-0.36805,-0.336575,10.1644,-0.0696262,-0.907404,1.37234,-0.00366092,-0.00340012,0.101643,1,0.000176756,0.000103382,-0.000211708,0.0353512,0.0206763,-0.0423417,0,0,0,0,0.0108627,0.528886,-0.945854,35.4375,1,52215,5266183
161,6,-0.860223,0.518215,9.5657,-0.465296,0.0128534,0.921785,-0.00858457,0.00516755,0.0956594,1,9.47671e-05,8.11944e-05,-0.000205369,0.0189534,0.0162389,-0.0410738,0,0,0,0,0.0131795,0.534232,-0.945746,35.4375,1,52216,5266283
162,1,-0.860223,0.518215,9.5657,-0.465296,0.0128534,0.921785,-0.00858457,0.00516755,0.0956594,1,9.47671e-05,8.11944e-05,-0.000205369,0.0189534,0.0162389,-0.0410738,0,0,0,0,0.0131795,0.534232,-0.945746,35.4375,1,52216,5266283
162,2,-0.730501,0.58083,9.41291,-0.645824,0.24509,0.42213,-0.00731115,0.00582061,0.0941278,1,-4.68355e-05,-4.73878e-05,-0.000239001,-0.00936711,-0.00947757,-0.0478002,0,0,0,0,0.0135539,0.534787,-0.949776,35.4375,1,52217,5266383
163,1,-0.730501,0.58083,9.41291,-0.645824,0.24509,0.42213,-0.00731115,0.00582061,0.0941278,1,-4.68355e-05,-4.73878e-05,-0.000239001,-0.00936711,-0.00947757,-0.0478002,0,0,0,0,0.0135539,0.534787,-0.949776,35.4375,1,52217,5266383
163,2,-0.226895,-0.162033,9.96576,-0.12717,-0.571247,1.09051,-0.00227506,-0.00161744,0.0996575,1,-9.041e-06,-2.67536e-05,-0.000238317,-0.0018082,-0.00535073,-0.0476633,0,0,0,0,0.00962192,0.532471,-0.95486,35.4375,1,52218,5266483
164,1,-0.226895,-0.162033,9.96576,-0.12717,-0.571247,1.09051,-0.00227506,-0.00161744,0.0996575,1,-9.041e-06,-2.67536e-05,-0.000238317,-0.0018082,-0.00535073,-0.0476633,0,0,0,0,0.00962192,0.532471,-0.95486,35.4375,1,52218,5266483
164,2,0.375938,-0.0524242,10.2849,0.604425,-0.617538,1.52325,0.00377281,-0.000538299,0.102848,1,5.88849e-05,6.66532e-05,-0.000258252,0.011777,0.0133306,-0.0516504,0,0,0,0,0.00693121,0.528015,-0.949896,35.4375,1,52219,5266583
165,1,0.375938,-0.0524242,10.2849,0.604425,-0.617538,1.52325,0.00377281,-0.000538299,0.102848,1,5.88849e-05,6.66532e-05,-0.000258252,0.011777,0.0133306,-0.0516504,0,0,0,0,0.00693121,0.528015,-0.949896,35.4375,1,52219,5266583
165,2,-0.776471,-0.656485,9.29659,-0.735916,-0.967716,0.386949,-0.00775566,-0.00655697,0.0929672,1,-2.06172e-05,6.70512e-05,-0.000260632,-0.00412344,0.0134102,-0.0521265,0,0,0,0,0.00614976,0.527409,-0.942835,35.4375,1,52220,5266683
165,3,-0.776471,-0.656485,9.29659,-0.735916,-0.967716,0.386949,-0.00775566,-0.00655697,0.0929672,1,-2.06172e-05,6.70512e-05,-0.000260632,-0.00412344,0.0134102,-0.0521265,0,0,0,0,0.00614976,0.527409,-0.942835,35.4375,1,52220,5266683
165,4,-0.805727,-1.15416,9.89309,-0.779731,-1.6854,1.07888,-0.00805412,-0.0115642,0.0989285,1,0.000130826,3.98512e-05,-0.000204779,0.0261651,0.00797023,-0.0409557,0,0,0,0,0.00907439,0.530248,-0.93925,35.4375,1,52221,5266783
166,1,-0.805727,-1.15416,9.89309,-0.779731,-1.6854,1.07888,-0.00805412,-0.0115642,0.0989285,1,0.000130826,3.98512e-05,-0.000204779,0.0261651,0.00797023,-0.0409557,0,0,0,0,0.00907439,0.530248,-0.93925,35.4375,1,52221,5266783
166,2,-0.235657,-0.615538,10.3097,-0.286395,-1.12277,1.37464,-0.00235611,-0.00618812,0.103095,1,0.000163005,1.31635e-05,-0.000182733,0.032601,0.0026327,-0.0365467,0,0,0,0,0.0128298,0.533658,-0.940706,35.4375,1,52222,5266883
167,1,-0.235657,-0.615538,10.3097,-0.286395,-1.12277,1.37464,-0.00235611,-0.00618812,0.103095,1,0.000163005,1.31635e-05,-0.000182733,0.032601,0.0026327,-0.0365467,0,0,0,0,0.0128298,0.533658,-0.940706,35.4375,1,52222,5266883
167,2,-0.667173,0.320094,9.43043,-0.536999,-0.134463,0.639637,-0.00665937,0.00317644,0.094306,1,0.000142668,5.94185e-05,-0.000180855,0.0285337,0.0118837,-0.036171,0,0,0,0,0.0126699,0.53522,-0.946227,35.4375,1,52223,5266983
168,1,-0.667173,0.320094,9.43043,-0.536999,-0.134463,0.639637,-0.00665937,0.00317644,0.094306,1,0.000142668,5.94185e-05,-0.000180855,0.0285337,0.0118837,-0.036171,0,0,0,0,0.0126699,0.53522,-0.946227,35.4375,1,52223,5266983
168,2,-0.428172,-0.264468,9.32285,-0.493714,-0.811462,0.379324,-0.00428782,-0.00266526,0.0932276,1,0.000118218,-2.78853e-05,-0.000171459,0.0236435,-0.00557707,-0.0342918,0,0,0,0,0.00877878,0.53191,-0.950323,35.4375,1,52224,5267083
169,1,-0.428172,-0.264468,9.32285,-0.493714,-0.811462,0.379324,-0.00428782,-0.00266526,0.0932276,1,0.000118218,-2.78853e-05,-0.000171459,0.0236435,-0.00557707,-0.0342918,0,0,0,0,0.00877878,0.53191,-0.950323,35.4375,1,52224,5267083
169,2,-0.0237082,1.04016,9.65682,0.0387882,0.417629,0.721402,-0.000233347,0.010379,0.0965706,1,0.000117264,-2.59605e-06,-0.000203833,0.0234529,-0.000519211,-0.0407666,0,0,0,0,0.00697249,0.528466,-0.947866,35.4375,1,52225,5267183
170,1,-0.0237082,1.04016,9.65682,0.0387882,0.417629,0.721402,-0.000233347,0.010379,0.0965706,1,0.000117264,-2.59605e-06,-0.000203833,0.0234529,-0.000519211,-0.0407666,0,0,0,0,0.00697249,0.528466,-0.947866,35.4375,1,52225,5267183
170,2,0.20798,0.904544,10.1471,0.481158,0.526649,1.26656,0.00210258,0.00905286,0.10147,1,-4.12624e-05,9.17934e-05,-0.000229136,-0.00825248,0.0183587,-0.0458272,0,0,0,0,0.00759783,0.529321,-0.941284,35.4375,1,52226,5267283
171,1,0.20798,0.904544,10.1471,0.481158,0.526649,1.26656,0.00210258,0.00905286,0.10147,1,-4.12624e-05,9.17934e-05,-0.000229136,-0.00825248,0.0183587,-0.0458272,0,0,0,0,0.00759783,0.529321,-0.941284,35.4375,1,52226,5267283
171,2,-0.848014,-0.143495,10.0358,-0.618725,-0.725093,1.2853,-0.00846327,-0.00143198,0.10036,1,7.32412e-06,8.77756e-05,-0.000262111,0.00146482,0.0175551,-0.0524222,0,0,0,0,0.00911612,0.532145,-0.936177,35.4375,1,52227,5267383
172,1,-0.848014,-0.143495,10.0358,-0.618725,-0.725093,1.2853,-0.00846327,-0.00143198,0.10036,1,7.32412e-06,8.77756e-05,-0.000262111,0.00146482,0.0175551,-0.0524222,0,0,0,0,0.00911612,0.532145,-0.936177,35.4375,1,52227,5267383
172,2,-0.791888,-0.108999,9.71712,-0.908326,-0.418383,0.753971,-0.00793106,-0.00106453,0.0971704,1,-0.000111052,-5.99412e-05,-0.000245051,-0.0222104,-0.0119882,-0.0490101,0,0,0,0,0.0109594,0.535562,-0.93712,35.4375,1,52228,5267483
173,1,-0.791888,-0.108999,9.71712,-0.908326,-0.418383,0.753971,-0.00793106,-0.00106453,0.0971704,1,-0.000111052,-5.99412e-05,-0.000245051,-0.0222104,-0.0119882,-0.0490101,0,0,0,0,0.0109594,0.535562,-0.93712,35.4375,1,52228,5267483
173,2,-0.606663,-0.409217,9.33597,-0.393923,-0.913425,0.516263,-0.00607826,-0.00407642,0.0933596,1,-6.90957e-05,-5.20424e-05,-0.000234482,-0.0138191,-0.0104085,-0.0468965,0,0,0,0,0.0118106,0.535635,-0.941668,35.4375,1,52229,5267583
174,1,-0.606663,-0.409217,9.33597,-0.393923,-0.913425,0.516263,-0.00607826,-0.00407642,0.0933596,1,-6.90957e-05,-5.20424e-05,-0.000234482,-0.0138191,-0.0104085,-0.0468965,0,0,0,0,0.0118106,0.535635,-0.941668,35.4375,1,52229,5267583
174,2,0.354542,-1.27499,10.1714,0.302174,-1.75526,1.18673,0.00351695,-0.0127472,0.101716,1,-2.02946e-05,-0.000114604,-0.000202057,-0.00405892,-0.0229207,-0.0404114,0,0,0,0,0.00790762,0.533779,-0.945226,35.4375,1,52230,5267683
175,1,0.354542,-1.27499,10.1714,0.302174,-1.75526,1.18673,0.00351695,-0.0127472,0.101716,1,-2.02946e-05,-0.000114604,-0.000202057,-0.00405892,-0.0229207,-0.0404114,0,0,0,0,0.00790762,0.533779,-0.945226,35.4375,1,52230,5267683
175,2,0.36456,-0.558903,10.0477,0.570569,-1.27263,1.23499,0.00364922,-0.00562373,0.100475,1,0.000166176,2.80008e-05,-0.000178762,0.0332352,0.00560015,-0.0357523,0,0,0,0,0.0056857,0.529328,-0.94077,35.4375,1,52231,5267783
175,3,0.36456,-0.558903,10.0477,0.570569,-1.27263,1.23499,0.00364922,-0.00562373,0.100475,1,0.000166176,2.80008e-05,-0.000178762,0.0332352,0.00560015,-0.0357523,0,0,0,0,0.0056857,0.529328,-0.94077,35.4375,1,52231,5267783
175,4,-0.0217357,0.154535,9.55905,0.342494,-0.423842,0.760247,-0.000203323,0.0015352,0.0955907,1,5.34998e-05,7.05857e-05,-0.000175392,0.0107,0.0141171,-0.0350784,0,0,0,0,0.00639694,0.528674,-0.931696,35.4375,1,52232,5267883
176,1,-0.0217357,0.154535,9.55905,0.342494,-0.423842,0.760247,-0.000203323,0.0015352,0.0955907,1,5.34998e-05,7.05857e-05,-0.000175392,0.0107,0.0141171,-0.0350784,0,0,0,0,0.00639694,0.528674,-0.931696,35.4375,1,52232,5267883
176,2,-0.552703,0.246384,9.47964,-0.358402,-0.136534,0.584989,-0.00552453,0.00246487,0.0947966,1,6.03372e-06,8.09633e-06,-0.000196905,0.00120674,0.00161927,-0.0393809,0,0,0,0,0.00880817,0.533468,-0.928065,35.4375,1,52233,5267983
176,3,-0.552703,0.246384,9.47964,-0.358402,-0.136534,0.584989,-0.00552453,0.00246487,0.0947966,1,6.03372e-06,8.09633e-06,-0.000196905,0.00120674,0.00161927,-0.0393809,0,0,0,0,0.00880817,0.533468,-0.928065,35.4375,1,52233,5267983
176,4,0.300603,-0.0883063,10.1799,0.576328,-0.561707,1.29186,0.00300665,-0.000894219,0.101799,1,4.93912e-05,4.65181e-06,-0.000182991,0.00987825,0.000930362,-0.0365983,0,0,0,0,0.0105902,0.538375,-0.93049,35.4375,1,52234,5268083
177,1,0.300603,-0.0883063,10.1799,0.576328,-0.561707,1.29186,0.00300665,-0.000894219,0.101799,1,4.93912e-05,4.65181e-06,-0.000182991,0.00987825,0.000930362,-0.0365983,0,0,0,0,0.0105902,0.538375,-0.93049,35.4375,1,52234,5268083
177,2,-0.172277,0.085831,9.87593,0.338226,-0.385145,1.08612,-0.00170411,0.000848828,0.0987597,1,5.18224e-05,9.25785e-05,-0.000219869,0.0103645,0.0185157,-0.0439739,0,0,0,0,0.0109807,0.537955,-0.934542,35.4375,1,52235,5268183
177,3,-0.172277,0.085831,9.87593,0.338226,-0.385145,1.08612,-0.00170411,0.000848828,0.0987597,1,5.18224e-05,9.25785e-05,-0.000219869,0.0103645,0.0185157,-0.0439739,0,0,0,0,0.0109807,0.537955,-0.934542,35.4375,1,52235,5268183
177,4,-0.610153,-0.113592,9.61664,-0.279144,-0.650066,0.844047,-0.00609508,-0.00114472,0.0961667,1,6.15449e-05,3.64846e-05,-0.000248624,0.012309,0.00729693,-0.0497248,0,0,0,0,0.00806891,0.536552,-0.93658,35.4375,1,52236,5268283
178,1,-0.610153,-0.113592,9.61664,-0.279144,-0.650066,0.844047,-0.00609508,-0.00114472,0.0961667,1,6.15449e-05,3.64846e-05,-0.000248624,0.012309,0.00729693,-0.0497248,0,0,0,0,0.00806891,0.536552,-0.93658,35.4375,1,52236,5268283
178,2,-0.42634,0.453396,9.53209,-0.240162,-0.114334,0.600232,-0.00426569,0.00452728,0.0953211,1,4.74466e-05,-2.51291e-05,-0.000276832,0.00948932,-0.00502583,-0.0553664,0,0,0,0,0.0053782,0.532096,-0.931616,35.4375,1,52237,5268383
178,3,-0.42634,0.453396,9.53209,-0.240162,-0.114334,0.600232,-0.00426569,0.00452728,0.0953211,1,4.74466e-05,-2.51291e-05,-0.000276832,0.00948932,-0.00502583,-0.0553664,0,0,0,0,0.0053782,0.532096,-0.931616,35.4375,1,52237,5268383
178,4,-0.392588,0.298339,9.88162,-0.0123196,-0.198893,1.09919,-0.00392749,0.00299308,0.0988158,1,-3.79189e-05,-1.65814e-05,-0.000279295,-0.00758377,-0.00331627,-0.0558589,0,0,0,0,0.00455973,0.531517,-0.926069,35.4375,1,52238,5268483
178,5,-0.392588,0.298339,9.88162,-0.0123196,-0.198893,1.09919,-0.00392749,0.00299308,0.0988158,1,-3.79189e-05,-1.65814e-05,-0.000279295,-0.00758377,-0.00331627,-0.0558589,0,0,0,0,0.00455973,0.531517,-0.926069,35.4375,1,52238,5268483
178,6,-0.204426,-0.453476,9.97873,-0.148982,-0.848096,0.98331,-0.00206276,-0.00452291,0.0997875,1,-5.32652e-05,-7.9242e-05,-0.000296721,-0.010653,-0.0158484,-0.0593442,0,0,0,0,0.00557269,0.535809,-0.920928,35.4375,1,52239,5268583
179,1,-0.204426,-0.453476,9.97873,-0.148982,-0.848096,0.98331,-0.00206276,-0.00452291,0.0997875,1,-5.32652e-05,-7.9242e-05,-0.000296721,-0.010653,-0.0158484,-0.0593442,0,0,0,0,0.00557269,0.535809,-0.920928,35.4375,1,52239,5268583
179,2,0.223161,-1.69095,10.2409,0.541821,-2.28336,1.55374,0.00222323,-0.0169314,0.102405,1,0.000100668,5.36956e-06,-0.000280124,0.0201335,0.00107391,-0.0560248,0,0,0,0,0.00646183,0.538746,-0.921877,35.4375,1,52240,5268683
180,1,0.223161,-1.69095,10.2409,0.541821,-2.28336,1.55374,0.00222323,-0.0169314,0.102405,1,0.000100668,5.36956e-06,-0.000280124,0.0201335,0.00107391,-0.0560248,0,0,0,0,0.00646183,0.538746,-0.921877,35.4375,1,52240,5268683
180,2,-0.61455,-0.0440848,10.0987,-0.255161,-0.593468,1.29293,-0.00614348,-0.000463596,0.100987,1,0.000127671,1.10743e-05,-0.000247255,0.0255341,0.00221485,-0.0494509,0,0,0,0,0.00491979,0.53883,-0.925908,35.4375,1,52241,5268783
180,3,-0.61455,-0.0440848,10.0987,-0.255161,-0.593468,1.29293,-0.00614348,-0.000463596,0.100987,1,0.000127671,1.10743e-05,-0.000247255,0.0255341,0.00221485,-0.0494509,0,0,0,0,0.00491979,0.53883,-0.925908,35.4375,1,52241,5268783
180,4,-0.751754,-0.322485,8.985,-0.511356,-0.764151,0.263351,-0.00753221,-0.0032368,0.0898484,1,8.62435e-05,-7.31933e-05,-0.000235687,0.0172487,-0.0146387,-0.0471375,0,0,0,0,0.00486618,0.538387,-0.928443,35.4375,1,52242,5268883
181,1,-0.751754,-0.322485,8.985,-0.511356,-0.764151,0.263351,-0.00753221,-0.0032368,0.0898484,1,8.62435e-05,-7.31933e-05,-0.000235687,0.0172487,-0.0146387,-0.0471375,0,0,0,0,0.00486618,0.538387,-0.928443,35.4375,1,52242,5268883
181,2,0.107711,0.684928,9.85102,0.548914,0.130749,0.857698,0.00106344,0.00683309,0.0985114,1,8.00247e-05,-8.31568e-05,-0.000197954,0.0160049,-0.0166314,-0.0395909,0,0,0,0,0.00547827,0.53636,-0.92445,35.4375,1,52243,5268983
181,3,0.107711,0.684928,9.85102,0.548914,0.130749,0.857698,0.00106344,0.00683309,0.0985114,1,8.00247e-05,-8.31568e-05,-0.000197954,0.0160049,-0.0166314,-0.0395909,0,0,0,0,0.00547827,0.53636,-0.92445,35.4375,1,52243,5268983
181,4,0.708469,-0.0474098,11.0066,1.07504,-0.797064,2.1149,0.00709218,-0.000481483,0.110065,1,1.96621e-05,3.49432e-05,-0.000215602,0.00393241,0.00698864,-0.0431203,0,0,0,0,0.0023235,0.533823,-0.917421,35.4375,3,52244,5269083
181,5,0.708469,-0.0474098,11.0066,1.07504,-0.797064,2.1149,0.00709218,-0.000481483,0.110065,1,1.96621e-05,3.49432e-05,-0.000215602,0.00393241,0.00698864,-0.0431203,0,0,0,0,0.0023235,0.533823,-0.917421,35.4375,3,52244,5269083
181,6,-0.279061,0.64717,10.2554,-0.0280215,0.330622,1.56373,-0.00275752,0.00649474,0.102553,1,-0.00010637,0.000147456,-0.000219208,-0.021274,0.0294912,-0.0438416,0,0,0,0,0.00336448,0.535685,-0.912839,35.4375,3,52245,5269183
182,1,-0.279061,0.64717,10.2554,-0.0280215,0.330622,1.56373,-0.00275752,0.00649474,0.102553,1,-0.00010637,0.000147456,-0.000219208,-0.021274,0.0294912,-0.0438416,0,0,0,0,0.00336448,0.535685,-0.912839,35.4375,3,52245,5269183
182,2,-1.41929,-0.598776,8.71294,-1.20866,-1.08838,-0.174703,-0.0141837,-0.00597661,0.0871316,1,-1.9741e-05,7.16213e-05,-0.000271622,-0.0039482,0.0143243,-0.0543243,0,0,0,0,0.00611687,0.540096,-0.915279,35.4375,3,52246,5269283
182,3,-1.41929,-0.598776,8.71294,-1.20866,-1.08838,-0.174703,-0.0141837,-0.00597661,0.0871316,1,-1.9741e-05,7.16213e-05,-0.000271622,-0.0039482,0.0143243,-0.0543243,0,0,0,0,0.00611687,0.540096,-0.915279,35.4375,3,52246,5269283
182,4,-0.615662,-0.473336,9.97629,-0.600503,-0.710409,1.01807,-0.00617624,-0.00472082,0.0997623,1,-4.81034e-05,-8.70516e-05,-0.000238277,-0.00962068,-0.0174103,-0.0476554,0,0,0,0,0.00696854,0.541614,-0.918785,35.4375,3,52247,5269383
182,5,-0.615662,-0.473336,9.97629,-0.600503,-0.710409,1.01807,-0.00617624,-0.00472082,0.0997623,1,-4.81034e-05,-8.70516e-05,-0.000238277,-0.00962068,-0.0174103,-0.0476554,0,0,0,0,0.00696854,0.541614,-0.918785,35.4375,3,52247,5269383
182,6,0.10559,-0.159608,10.0036,0.720829,-0.729997,1.33619,0.00106688,-0.00161784,0.100036,1,0.000106142,5.89272e-05,-0.000250117,0.0212284,0.0117854,-0.0500234,0,0,0,0,0.00501559,0.542615,-0.919259,35.4375,3,52248,5269483
183,1,0.10559,-0.159608,10.0036,0.720829,-0.729997,1.33619,0.00106688,-0.00161784,0.100036,1,0.000106142,5.89272e-05,-0.000250117,0.0212284,0.0117854,-0.0500234,0,0,0,0,0.00501559,0.542615,-0.919259,35.4375,3,52248,5269483
183,2,-1.00703,0.0548172,9.38922,-0.547046,-0.341402,0.533456,-0.0100782,0.000557427,0.0938913,1,-2.25013e-05,-4.3716e-05,-0.000249655,-0.00450026,-0.0087432,-0.0499311,0,0,0,0,0.00135504,0.5401,-0.913237,35.4375,3,52249,5269583
184,1,-1.00703,0.0548172,9.38922,-0.547046,-0.341402,0.533456,-0.0100782,0.000557427,0.0938913,1,-2.25013e-05,-4.3716e-05,-0.000249655,-0.00450026,-0.0087432,-0.0499311,0,0,0,0,0.00135504,0.5401,-0.913237,35.4375,3,52249,5269583
184,2,-0.381118,0.0492454,10.1504,-0.0458294,-0.623746,1.21375,-0.00382347,0.000493033,0.101504,1,6.97168e-06,-6.18154e-05,-0.000261217,0.00139434,-0.0123631,-0.0522434,0,0,0,0,0.00013754,0.538983,-0.90467,35.4375,3,52250,5269683
185,1,-0.381118,0.0492454,10.1504,-0.0458294,-0.623746,1.21375,-0.00382347,0.000493033,0.101504,1,6.97168e-06,-6.18154e-05,-0.000261217,0.00139434,-0.0123631,-0.0522434,0,0,0,0,0.00013754,0.538983,-0.90467,35.4375,3,52250,5269683
185,2,-0.585862,-0.198858,9.70437,-0.290195,-0.727846,0.929456,-0.00586744,-0.00197951,0.0970433,1,-3.05567e-05,-4.00106e-05,-0.000267129,-0.00611134,-0.00800212,-0.0534258,0,0,0,0,0.00351861,0.541836,-0.902097,35.4375,3,52251,5269783
186,1,-0.585862,-0.198858,9.70437,-0.290195,-0.727846,0.929456,-0.00586744,-0.00197951,0.0970433,1,-3.05567e-05,-4.00106e-05,-0.000267129,-0.00611134,-0.00800212,-0.0534258,0,0,0,0,0.00351861,0.541836,-0.902097,35.4375,3,52251,5269783
186,2,-0.230738,-1.14072,9.67864,-0.33605,-1.54499,0.644078,-0.00232581,-0.0114084,0.0967858,1,1.28929e-05,-6.35923e-05,-0.000267969,0.00257859,-0.0127185,-0.0535938,0,0,0,0,0.00481104,0.54579,-0.905551,35.4375,3,52252,5269883
186,3,-0.230738,-1.14072,9.67864,-0.33605,-1.54499,0.644078,-0.00232581,-0.0114084,0.0967858,1,1.28929e-05,-6.35923e-05,-0.000267969,0.00257859,-0.0127185,-0.0535938,0,0,0,0,0.00481104,0.54579,-0.905551,35.4375,3,52252,5269883
186,4,0.071055,-0.438397,9.88891,0.0876611,-0.924306,0.960569,0.00071106,-0.00442021,0.0988875,1,0.000181721,1.21858e-05,-0.000215854,0.0363441,0.00243717,-0.0431707,0,0,0,0,0.00420276,0.54685,-0.91007,35.4375,3,52253,5269983
187,1,0.071055,-0.438397,9.88891,0.0876611,-0.924306,0.960569,0.00071106,-0.00442021,0.0988875,1,0.000181721,1.21858e-05,-0.000215854,0.0363441,0.00243717,-0.0431707,0,0,0,0,0.00420276,0.54685,-0.91007,35.4375,3,52253,5269983
187,2,-0.128766,-0.321356,9.72732,0.0260812,-0.633333,0.79532,-0.00127871,-0.00323643,0.0972725,1,0.000120517,5.33923e-05,-0.000223899,0.0241034,0.0106784,-0.0447797,0,0,0,0,0.00321585,0.546876,-0.911075,35.4375,3,52254,5270083
187,3,-0.128766,-0.321356,9.72732,0.0260812,-0.633333,0.79532,-0.00127871,-0.00323643,0.0972725,1,0.000120517,5.33923e-05,-0.000223899,0.0241034,0.0106784,-0.0447797,0,0,0,0,0.00321585,0.546876,-0.911075,35.4375,3,52254,5270083
187,4,-0.888701,-0.0475342,9.66891,-0.48911,-0.56495,0.795241,-0.00887178,-0.000500505,0.0966904,1,0.000148472,7.9732e-05,-0.000199795,0.0296943,0.0159464,-0.039959,0,0,0,0,0.00054602,0.543369,-0.904574,35.4375,3,52255,5270183
187,5,-0.888701,-0.0475342,9.66891,-0.48911,-0.56495,0.795241,-0.00887178,-0.000500505,0.0966904,1,0.000148472,7.9732e-05,-0.000199795,0.0296943,0.0159464,-0.039959,0,0,0,0,0.00054602,0.543369,-0.904574,35.4375,3,52255,5270183
187,6,-0.223923,0.515011,10.8076,0.259647,-0.236411,1.90576,-0.0022275,0.00513215,0.108077,1,8.80249e-05,4.28997e-05,-0.000239233,0.017605,0.00857995,-0.0478465,0,0,0,0,-0.00264956,0.541825,-0.898533,35.4375,3,52256,5270283
188,1,-0.223923,0.515011,10.8076,0.259647,-0.236411,1.90576,-0.0022275,0.00513215,0.108077,1,8.80249e-05,4.28997e-05,-0.000239233,0.017605,0.00857995,-0.0478465,0,0,0,0,-0.00264956,0.541825,-0.898533,35.4375,3,52256,5270283
188,2,-1.36782,0.57986,9.44298,-1.10213,0.165792,0.738664,-0.0136638,0.0058162,0.0944308,1,-5.3446e-05,5.95818e-05,-0.000274659,-0.0106892,0.0119164,-0.0549317,0,0,0,0,0.000262277,0.543228,-0.896495,35.4375,3,52257,5270383
188,3,-1.36782,0.57986,9.44298,-1.10213,0.165792,0.738664,-0.0136638,0.0058162,0.0944308,1,-5.3446e-05,5.95818e-05,-0.000274659,-0.0106892,0.0119164,-0.0549317,0,0,0,0,0.000262277,0.543228,-0.896495,35.4375,3,52257,5270383
188,4,-0.739819,-0.765258,8.87539,-0.729122,-1.36549,-0.0624583,-0.00741716,-0.00764924,0.0887525,1,3.01193e-06,-8.42398e-05,-0.00026213,0.000602387,-0.016848,-0.052426,0,0,0,0,0.00307634,0.547594,-0.896411,35.4375,3,52258,5270483
189,1,-0.739819,-0.765258,8.87539,-0.729122,-1.36549,-0.0624583,-0.00741716,-0.00764924,0.0887525,1,3.01193e-06,-8.42398e-05,-0.00026213,0.000602387,-0.016848,-0.052426,0,0,0,0,0.00307634,0.547594,-0.896411,35.4375,3,52258,5270483
189,2,0.238995,-0.644778,10.1824,0.404039,-1.0926,1.18104,0.00237713,-0.00646051,0.101823,1,5.636e-05,-4.63083e-05,-0.000262372,0.011272,-0.00926166,-0.0524744,0,0,0,0,0.0014944,0.551563,-0.899346,35.4375,3,52259,5270583
190,1,0.238995,-0.644778,10.1824,0.404039,-1.0926,1.18104,0.00237713,-0.00646051,0.101823,1,5.636e-05,-4.63083e-05,-0.000262372,0.011272,-0.00926166,-0.0524744,0,0,0,0,0.0014944,0.551563,-0.899346,35.4375,3,52259,5270583
190,2,0.167766,-0.445707,10.0384,0.34362,-0.808303,1.13395,0.00169388,-0.00448625,0.100383,1,0.000140749,9.29358e-05,-0.00027238,0.0281497,0.0185872,-0.0544761,0,0,0,0,-0.00140936,0.549672,-0.901395,35.4375,3,52260,5270683
190,3,0.167766,-0.445707,10.0384,0.34362,-0.808303,1.13395,0.00169388,-0.00448625,0.100383,1,0.000140749,9.29358e-05,-0.00027238,0.0281497,0.0185872,-0.0544761,0,0,0,0,-0.00140936,0.549672,-0.901395,35.4375,3,52260,5270683
190,4,-0.715332,0.082369,9.47385,-0.319793,-0.202352,0.505392,-0.00713022,0.000817857,0.0947403,1,5.02282e-05,0.00011972,-0.000257892,0.0100456,0.0239439,-0.0515784,0,0,0,0,-0.00267331,0.544734,-0.897458,35.4375,3,52261,5270783
191,1,-0.715332,0.082369,9.47385,-0.319793,-0.202352,0.505392,-0.00713022,0.000817857,0.0947403,1,5.02282e-05,0.00011972,-0.000257892,0.0100456,0.0239439,-0.0515784,0,0,0,0,-0.00267331,0.544734,-0.897458,35.4375,3,52261,5270783
191,2,-0.743972,-0.157957,9.97541,-0.599977,-0.841709,1.04156,-0.0074349,-0.00160581,0.099754,1,0.000150959,2.83123e-05,-0.000260528,0.0301917,0.00566246,-0.0521056,0,0,0,0,-0.00252147,0.543659,-0.891927,35.4375,3,52262,5270883
192,1,-0.743972,-0.157957,9.97541,-0.599977,-0.841709,1.04156,-0.0074349,-0.00160581,0.099754,1,0.000150959,2.83123e-05,-0.000260528,0.0301917,0.00566246,-0.0521056,0,0,0,0,-0.00252147,0.543659,-0.891927,35.4375,3,52262,5270883
192,2,-0.585722,0.71648,9.88752,-0.396874,0.212965,0.981389,-0.00585077,0.00716822,0.0988753,1,-2.36009e-06,1.43402e-05,-0.000252243,-0.000472018,0.00286803,-0.0504486,0,0,0,0,-0.00102359,0.54698,-0.887315,35.4375,3,52263,5270983
193,1,-0.585722,0.71648,9.88752,-0.396874,0.212965,0.981389,-0.00585077,0.00716822,0.0988753,1,-2.36009e-06,1.43402e-05,-0.000252243,-0.000472018,0.00286803,-0.0504486,0,0,0,0,-0.00102359,0.54698,-0.887315,35.4375,3,52263,5270983
193,2,-0.697356,-0.211116,9.26811,-0.417707,-0.786102,0.336952,-0.00697441,-0.00210787,0.0926811,1,2.89848e-06,1.67467e-06,-0.000274288,0.000579696,0.000334934,-0.0548575,0,0,0,0,0.00173351,0.553315,-0.888197,35.4375,3,52264,5271083
193,3,-0.697356,-0.211116,9.26811,-0.417707,-0.786102,0.336952,-0.00697441,-0.00210787,0.0926811,1,2.89848e-06,1.67467e-06,-0.000274288,0.000579696,0.000334934,-0.0548575,0,0,0,0,0.00173351,0.553315,-0.888197,35.4375,3,52264,5271083
193,4,0.512584,-0.262607,11.3296,0.667921,-0.680482,2.31476,0.00513066,-0.00262781,0.113296,1,-5.98654e-06,2.82652e-05,-0.000301873,-0.00119731,0.00565304,-0.0603746,0,0,0,0,0.00352701,0.555323,-0.892201,35.4375,3,52265,5271183
194,1,0.512584,-0.262607,11.3296,0.667921,-0.680482,2.31476,0.00513066,-0.00262781,0.113296,1,-5.98654e-06,2.82652e-05,-0.000301873,-0.00119731,0.00565304,-0.0603746,0,0,0,0,0.00352701,0.555323,-0.892201,35.4375,3,52265,5271183
194,2,-1.19125,-0.769701,9.10274,-1.00035,-1.14161,0.356465,-0.0118915,-0.00770654,0.0910293,1,9.07546e-05,0.000140233,-0.000293795,0.0181509,0.0280465,-0.0587589,0,0,0,0,0.00020289,0.5505,-0.893808,35.4375,3,52266,5271283
194,3,-1.19125,-0.769701,9.10274,-1.00035,-1.14161,0.356465,-0.0118915,-0.00770654,0.0910293,1,9.07546e-05,0.000140233,-0.000293795,0.0181509,0.0280465,-0.0587589,0,0,0,0,0.00020289,0.5505,-0.893808,35.4375,3,52266,5271283
194,4,-1.18035,-0.377009,9.22894,-1.10619,-0.730155,0.298445,-0.0118114,-0.00378454,0.0922878,1,0.000113773,-3.1822e-05,-0.000277563,0.0227546,-0.0063644,-0.0555126,0,0,0,0,-0.00299314,0.547511,-0.888809,35.4375,3,52267,5271383
195,1,-1.18035,-0.377009,9.22894,-1.10619,-0.730155,0.298445,-0.0118114,-0.00378454,0.0922878,1,0.000113773,-3.1822e-05,-0.000277563,0.0227546,-0.0063644,-0.0555126,0,0,0,0,-0.00299314,0.547511,-0.888809,35.4375,3,52267,5271383
195,2,-0.25707,-0.0742359,9.92844,-0.0144741,-0.587648,0.916456,-0.00258256,-0.00075959,0.0992839,1,9.32996e-05,-5.78128e-05,-0.000251419,0.0186599,-0.0115626,-0.0502837,0,0,0,0,-0.00474064,0.54788,-0.881217,35.4375,3,52268,5271483
195,3,-0.25707,-0.0742359,9.92844,-0.0144741,-0.587648,0.916456,-0.00258256,-0.00075959,0.0992839,1,9.32996e-05,-5.78128e-05,-0.000251419,0.0186599,-0.0115626,-0.0502837,0,0,0,0,-0.00474064,0.54788,-0.881217,35.4375,3,52268,5271483
195,4,-0.266228,0.302203,10.1555,0.238014,-0.199889,1.30692,-0.00266107,0.00301427,0.101556,1,4.48631e-05,-1.55271e-06,-0.000252442,0.00897261,-0.000310542,-0.0504883,0,0,0,0,-0.00323469,0.550713,-0.876615,35.4375,3,52269,5271583
195,5,-0.266228,0.302203,10.1555,0.238014,-0.199889,1.30692,-0.00266107,0.00301427,0.101556,1,4.48631e-05,-1.55271e-06,-0.000252442,0.00897261,-0.000310542,-0.0504883,0,0,0,0,-0.00323469,0.550713,-0.876615,35.4375,3,52269,5271583
195,6,-0.343476,-0.444317,10.0938,0.148146,-1.24738,1.42072,-0.00341993,-0.00446071,0.100938,1,9.58612e-05,8.50735e-05,-0.000263391,0.0191722,0.0170147,-0.0526782,0,0,0,0,0.000907896,0.556115,-0.880555,35.4375,3,52270,5271683
197,1,-0.343476,-0.444317,10.0938,0.148146,-1.24738,1.42072,-0.00341993,-0.00446071,0.100938,1,9.58612e-05,8.50735e-05,-0.000263391,0.0191722,0.0170147,-0.0526782,0,0,0,0,0.000907896,0.556115,-0.880555,35.4375,3,52270,5271683
197,2,-0.889158,-0.446046,9.46648,-0.778367,-0.959002,0.501021,-0.00889356,-0.00446628,0.0946643,1,5.4034e-05,1.20404e-06,-0.000247533,0.0108068,0.000240808,-0.0495065,0,0,0,0,0.00129032,0.556183,-0.884596,35.4375,3,52271,5271783
197,3,-0.889158,-0.446046,9.46648,-0.778367,-0.959002,0.501021,-0.00889356,-0.00446628,0.0946643,1,5.4034e-05,1.20404e-06,-0.000247533,0.0108068,0.000240808,-0.0495065,0,0,0,0,0.00129032,0.556183,-0.884596,35.4375,3,52271,5271783
197,4,-0.952225,-0.123729,9.30794,-0.702072,-0.532764,0.362421,-0.00952981,-0.00125007,0.0930785,1,9.66038e-05,-3.69525e-05,-0.000273135,0.0193208,-0.00739051,-0.0546271,0,0,0,0,-0.00110004,0.552337,-0.88669,35.4375,3,52272,5271883
197,5,-0.952225,-0.123729,9.30794,-0.702072,-0.532764,0.362421,-0.00952981,-0.00125007,0.0930785,1,9.66038e-05,-3.69525e-05,-0.000273135,0.0193208,-0.00739051,-0.0546271,0,0,0,0,-0.00110004,0.552337,-0.88669,35.4375,3,52272,5271883
197,6,-0.315937,-0.496338,10.2631,0.117531,-0.888046,1.40394,-0.00316918,-0.00498341,0.102629,1,0.000105577,-3.51766e-05,-0.000260261,0.0211153,-0.00703531,-0.0520522,0,0,0,0,-0.00284085,0.547882,-0.882236,35.4375,3,52273,5271983
197,7,-0.315937,-0.496338,10.2631,0.117531,-0.888046,1.40394,-0.00316918,-0.00498341,0.102629,1,0.000105577,-3.51766e-05,-0.000260261,0.0211153,-0.00703531,-0.0520522,0,0,0,0,-0.00284085,0.547882,-0.882236,35.4375,3,52273,5271983
197,8,-0.316303,0.229157,9.86492,0.0111319,-0.249278,0.889603,-0.00316668,0.00227109,0.0986496,1,0.00011207,-2.44434e-05,-0.000257621,0.022414,-0.00488869,-0.0515243,0,0,0,0,-0.00598662,0.547747,-0.873133,35.4375,3,52274,5272083
198,1,-0.316303,0.229157,9.86492,0.0111319,-0.249278,0.889603,-0.00316668,0.00227109,0.0986496,1,0.00011207,-2.44434e-05,-0.000257621,0.022414,-0.00488869,-0.0515243,0,0,0,0,-0.00598662,0.547747,-0.873133,35.4375,3,52274,5272083
198,2,-0.711864,-0.0285358,9.07654,-0.671455,-0.691438,0.206875,-0.00711502,-0.000301701,0.0907656,1,0.000111839,2.08228e-05,-0.000278198,0.0223677,0.00416456,-0.0556396,0,0,0,0,-0.00409778,0.552094,-0.87153,35.4375,3,52275,5272183
199,1,-0.711864,-0.0285358,9.07654,-0.671455,-0.691438,0.206875,-0.00711502,-0.000301701,0.0907656,1,0.000111839,2.08228e-05,-0.000278198,0.0223677,0.00416456,-0.0556396,0,0,0,0,-0.00409778,0.552094,-0.87153,35.4375,3,52275,5272183
199,2,-0.104146,0.209749,9.93564,-0.0583156,-0.447757,0.88442,-0.00104561,0.00208827,0.0993566,1,4.93934e-05,-2.68892e-05,-0.000286188,0.00987867,-0.00537784,-0.0572375,0,0,0,0,-0.00179804,0.555525,-0.873485,35.4375,3,52276,5272283
200,1,-0.104146,0.209749,9.93564,-0.0583156,-0.447757,0.88442,-0.00104561,0.00208827,0.0993566,1,4.93934e-05,-2.68892e-05,-0.000286188,0.00987867,-0.00537784,-0.0572375,0,0,0,0,-0.00179804,0.555525,-0.873485,35.4375,3,52276,5272283
200,2,-0.0351268,-0.267193,10.2858,0.21061,-0.688068,1.39803,-0.000335684,-0.00267907,0.102858,1,3.57053e-05,8.37409e-05,-0.00030696,0.00714105,0.0167482,-0.061392,0,0,0,0,-0.0013786,0.555566,-0.876011,35.4375,3,52277,5272383
201,1,-0.0351268,-0.267193,10.2858,0.21061,-0.688068,1.39803,-0.000335684,-0.00267907,0.102858,1,3.57053e-05,8.37409e-05,-0.00030696,0.00714105,0.0167482,-0.061392,0,0,0,0,-0.0013786,0.555566,-0.876011,35.4375,3,52277,5272383
201,2,-1.02465,-0.365008,9.39848,-0.692996,-0.750604,0.491409,-0.0102307,-0.00367002,0.0939857,1,0.000141619,9.68484e-05,-0.000326156,0.0283237,0.0193697,-0.0652312,0,0,0,0,-0.00287175,0.554169,-0.879066,35.4375,3,52278,5272483
204,1,-1.02465,-0.365008,9.39848,-0.692996,-0.750604,0.491409,-0.0102307,-0.00367002,0.0939857,1,0.000141619,9.68484e-05,-0.000326156,0.0283237,0.0193697,-0.0652312,0,0,0,0,-0.00287175,0.554169,-0.879066,35.4375,3,52278,5272483
204,2,-0.684882,-0.610641,9.63399,-0.637936,-1.0093,0.611165,-0.00685072,-0.00612521,0.0963386,1,0.000118408,8.74623e-06,-0.000293053,0.0236815,0.00174925,-0.0586106,0,0,0,0,-0.00461636,0.55068,-0.874085,35.4375,3,52279,5272583
204,3,-0.684882,-0.610641,9.63399,-0.637936,-1.0093,0.611165,-0.00685072,-0.00612521,0.0963386,1,0.000118408,8.74623e-06,-0.000293053,0.0236815,0.00174925,-0.0586106,0,0,0,0,-0.00461636,0.55068,-0.874085,35.4375,3,52279,5272583
204,4,-0.495371,-0.594783,9.88428,-0.313359,-1.28474,0.997719,-0.00494884,-0.00597991,0.0988411,1,0.000177525,4.29802e-05,-0.000304135,0.0355049,0.00859604,-0.0608271,0,0,0,0,-0.00587087,0.54959,-0.867032,35.4375,3,52280,5272683
206,1,-0.495371,-0.594783,9.88428,-0.313359,-1.28474,0.997719,-0.00494884,-0.00597991,0.0988411,1,0.000177525,4.29802e-05,-0.000304135,0.0355049,0.00859604,-0.0608271,0,0,0,0,-0.00587087,0.54959,-0.867032,35.4375,3,52280,5272683
206,2,-0.735656,-0.322,9.43632,-0.594698,-0.745761,0.469076,-0.00735753,-0.00324316,0.0943624,1,0.000144628,4.4593e-06,-0.000280787,0.0289256,0.000891861,-0.0561574,0,0,0,0,-0.00436111,0.551457,-0.862957,35.4375,3,52281,5272783
206,3,-0.735656,-0.322,9.43632,-0.594698,-0.745761,0.469076,-0.00735753,-0.00324316,0.0943624,1,0.000144628,4.4593e-06,-0.000280787,0.0289256,0.000891861,-0.0561574,0,0,0,0,-0.00436111,0.551457,-0.862957,35.4375,3,52281,5272783
206,4,-0.156859,-0.564431,10.6582,0.199181,-1.01891,1.65252,-0.00156895,-0.0056789,0.106581,1,0.000166181,1.24663e-05,-0.000265825,0.0332363,0.00249326,-0.053165,0,0,0,0,-0.00114041,0.554428,-0.866946,35.4375,3,52282,5272883
208,1,-0.156859,-0.564431,10.6582,0.199181,-1.01891,1.65252,-0.00156895,-0.0056789,0.106581,1,0.000166181,1.24663e-05,-0.000265825,0.0332363,0.00249326,-0.053165,0,0,0,0,-0.00114041,0.554428,-0.866946,35.4375,3,52282,5272883
208,2,-0.514578,-0.336443,10.9351,-0.0368393,-1.13119,2.17723,-0.00511871,-0.00342638,0.10935,1,0.000296403,0.000132481,-0.000279972,0.0592807,0.0264963,-0.0559945,0,0,0,0,0.000167249,0.554515,-0.872506,35.4375,3,52283,5272983
208,3,-0.514578,-0.336443,10.9351,-0.0368393,-1.13119,2.17723,-0.00511871,-0.00342638,0.10935,1,0.000296403,0.000132481,-0.000279972,0.0592807,0.0264963,-0.0559945,0,0,0,0,0.000167249,0.554515,-0.872506,35.4375,3,52283,5272983
208,4,-1.34694,1.51861,9.63649,-0.911468,0.910951,0.845952,-0.0134462,0.0151726,0.0963702,1,0.000106228,7.92954e-05,-0.000261407,0.0212456,0.0158591,-0.0522813,0,0,0,0,-0.00221412,0.553072,-0.872527,35.4375,3,52284,5273083
208,5,-1.34694,1.51861,9.63649,-0.911468,0.910951,0.845952,-0.0134462,0.0151726,0.0963702,1,0.000106228,7.92954e-05,-0.000261407,0.0212456,0.0158591,-0.0522813,0,0,0,0,-0.00221412,0.553072,-0.872527,35.4375,3,52284,5273083
208,6,-1.80607,0.674309,7.86658,-1.34795,0.308889,-0.802123,-0.0180686,0.00676548,0.078662,1,-7.19176e-05,-7.64208e-05,-0.000306599,-0.0143835,-0.0152842,-0.0613198,0,0,0,0,-0.00443178,0.5491,-0.867555,35.4375,3,52285,5273183
209,1,-1.80607,0.674309,7.86658,-1.34795,0.308889,-0.802123,-0.0180686,0.00676548,0.078662,1,-7.19176e-05,-7.64208e-05,-0.000306599,-0.0143835,-0.0152842,-0.0613198,0,0,0,0,-0.00443178,0.5491,-0.867555,35.4375,3,52285,5273183
209,2,0.58183,-0.972818,9.89548,0.455258,-1.4107,0.528991,0.00576516,-0.00973338,0.0989574,1,7.68805e-06,-0.000237295,-0.000317341,0.00153761,-0.047459,-0.0634683,0,0,0,0,-0.00520136,0.547039,-0.861031,35.4375,3,52286,5273283
209,3,0.58183,-0.972818,9.89548,0.455258,-1.4107,0.528991,0.00576516,-0.00973338,0.0989574,1,7.68805e-06,-0.000237295,-0.000317341,0.00153761,-0.047459,-0.0634683,0,0,0,0,-0.00520136,0.547039,-0.861031,35.4375,3,52286,5273283
209,4,1.15588,-1.07203,11.2139,1.66626,-1.66777,2.3318,0.0115798,-0.010776,0.112132,1,0.000217807,0.000122035,-0.000297724,0.0435614,0.024407,-0.0595448,0,0,0,0,-0.00225678,0.547937,-0.857994,35.4375,3,52287,5273383
211,1,1.15588,-1.07203,11.2139,1.66626,-1.66777,2.3318,0.0115798,-0.010776,0.112132,1,0.000217807,0.000122035,-0.000297724,0.0435614,0.024407,-0.0595448,0,0,0,0,-0.00225678,0.547937,-0.857994,35.4375,3,52287,5273383
211,2,-1.84635,-0.49458,8.25926,-1.44511,-1.04571,-0.356515,-0.0184428,-0.00497889,0.0825953,1,0.000269169,0.000143823,-0.000307982,0.0538339,0.0287646,-0.0615963,0,0,0,0,-0.000512175,0.551425,-0.862976,35.4375,3,52288,5273483
215,1,-1.84635,-0.49458,8.25926,-1.44511,-1.04571,-0.356515,-0.0184428,-0.00497889,0.0825953,1,0.000269169,0.000143823,-0.000307982,0.0538339,0.0287646,-0.0615963,0,0,0,0,-0.000512175,0.551425,-0.862976,35.4375,3,52288,5273483
215,2,-0.762845,-0.144046,9.20166,-1.04798,-0.837926,-0.197448,-0.00766713,-0.00147778,0.0920128,1,0.000227876,-0.00020537,-0.0003016,0.0455753,-0.041074,-0.0603201,0,0,0,0,0.000787869,0.553446,-0.867482,35.4375,3,52289,5273583
215,3,-0.762845,-0.144046,9.20166,-1.04798,-0.837926,-0.197448,-0.00766713,-0.00147778,0.0920128,1,0.000227876,-0.00020537,-0.0003016,0.0455753,-0.041074,-0.0603201,0,0,0,0,0.000787869,0.553446,-0.867482,35.4375,3,52289,5273583
215,4,0.317205,0.654582,11.2648,0.35632,0.101948,2.18875,0.00317021,0.00652241,0.11265,1,9.67353e-05,-2.29393e-05,-0.000254573,0.0193471,-0.00458785,-0.0509145,0,0,0,0,-0.000590915,0.549555,-0.867562,35.4375,3,52290,5273683
216,1,0.317205,0.654582,11.2648,0.35632,0.101948,2.18875,0.00317021,0.00652241,0.11265,1,9.67353e-05,-2.29393e-05,-0.000254573,0.0193471,-0.00458785,-0.0509145,0,0,0,0,-0.000590915,0.549555,-0.867562,35.4375,3,52290,5273683
216,2,-0.634622,-0.252697,9.37484,-0.328054,-0.721466,0.629719,-0.00634557,-0.0025378,0.0937481,1,7.74213e-05,1.12992e-05,-0.000290417,0.0154843,0.00225983,-0.0580834,0,0,0,0,-0.00329822,0.54463,-0.863619,35.4375,3,52291,5273783
220,1,-0.634622,-0.252697,9.37484,-0.328054,-0.721466,0.629719,-0.00634557,-0.0025378,0.0937481,1,7.74213e-05,1.12992e-05,-0.000290417,0.0154843,0.00225983,-0.0580834,0,0,0,0,-0.00329822,0.54463,-0.863619,35.4375,3,52291,5273783
220,2,-0.47817,-0.339003,9.00814,-0.242239,-0.802712,0.0174415,-0.00480264,-0.00341383,0.0900794,1,0.000147758,-0.000105113,-0.000294222,0.0295515,-0.0210226,-0.0588444,0,0,0,0,-0.0031013,0.54304,-0.856584,35.4375,3,52292,5273883
220,3,-0.47817,-0.339003,9.00814,-0.242239,-0.802712,0.0174415,-0.00480264,-0.00341383,0.0900794,1,0.000147758,-0.000105113,-0.000294222,0.0295515,-0.0210226,-0.0588444,0,0,0,0,-0.0031013,0.54304,-0.856584,35.4375,3,52292,5273883
220,4,0.46736,-0.48494,9.84272,0.673663,-1.21051,0.865943,0.00466039,-0.00488786,0.0984259,1,0.000182422,-5.35664e-05,-0.000272655,0.0364845,-0.0107133,-0.0545311,0,0,0,0,0.000295917,0.544918,-0.854033,35.4375,3,52293,5273983
220,5,0.46736,-0.48494,9.84272,0.673663,-1.21051,0.865943,0.00466039,-0.00488786,0.0984259,1,0.000182422,-5.35664e-05,-0.000272655,0.0364845,-0.0107133,-0.0545311,0,0,0,0,0.000295917,0.544918,-0.854033,35.4375,3,52293,5273983
220,6,0.800169,-0.607368,10.6249,1.11553,-1.37418,1.61706,0.00802646,-0.00612677,0.106244,1,0.000228588,0.000132763,-0.000282017,0.0457176,0.0265525,-0.0564034,0,0,0,0,0.00155987,0.549856,-0.857969,35.4375,3,52294,5274083
221,1,0.800169,-0.607368,10.6249,1.11553,-1.37418,1.61706,0.00802646,-0.00612677,0.106244,1,0.000228588,0.000132763,-0.000282017,0.0457176,0.0265525,-0.0564034,0,0,0,0,0.00155987,0.549856,-0.857969,35.4375,3,52294,5274083
221,2,-1.23825,0.4551,9.68429,-0.791601,-0.127085,0.828921,-0.0123511,0.00451959,0.0968484,1,0.000193424,0.000150615,-0.000244806,0.0386849,0.030123,-0.0489613,0,0,0,0,0.0029292,0.549898,-0.861005,35.4375,3,52295,5274183
221,3,-1.23825,0.4551,9.68429,-0.791601,-0.127085,0.828921,-0.0123511,0.00451959,0.0968484,1,0.000193424,0.000150615,-0.000244806,0.0386849,0.030123,-0.0489613,0,0,0,0,0.0029292,0.549898,-0.861005,35.4375,3,52295,5274183
221,4,-0.458099,0.716462,9.87382,-0.480664,0.353458,0.733529,-0.00457646,0.00715636,0.098739,1,5.45506e-05,2.99026e-06,-0.000275124,0.0109101,0.000598052,-0.0550248,0,0,0,0,0.00245432,0.543633,-0.865183,35.4375,3,52296,5274283
223,1,-0.458099,0.716462,9.87382,-0.480664,0.353458,0.733529,-0.00457646,0.00715636,0.098739,1,5.45506e-05,2.99026e-06,-0.000275124,0.0109101,0.000598052,-0.0550248,0,0,0,0,0.00245432,0.543633,-0.865183,35.4375,3,52296,5274283
223,2,-0.333539,0.419376,10.3334,0.0138089,-0.370032,1.53974,-0.00330423,0.00417714,0.103335,1,9.09161e-05,0.00013755,-0.000326576,0.0181832,0.02751,-0.0653152,0,0,0,0,0.00123499,0.536735,-0.860785,35.4375,3,52297,5274383
223,3,-0.333539,0.419376,10.3334,0.0138089,-0.370032,1.53974,-0.00330423,0.00417714,0.103335,1,9.09161e-05,0.00013755,-0.000326576,0.0181832,0.02751,-0.0653152,0,0,0,0,0.00123499,0.536735,-0.860785,35.4375,3,52297,5274383
223,4,-0.752679,1.09251,9.74535,-0.367477,0.851713,0.78457,-0.00751665,0.0109593,0.0974504,1,-0.00014897,1.3756e-05,-0.000340861,-0.029794,0.0027512,-0.0681722,0,0,0,0,0.00189308,0.537084,-0.853204,35.4375,3,52298,5274483
224,1,-0.752679,1.09251,9.74535,-0.367477,0.851713,0.78457,-0.00751665,0.0109593,0.0974504,1,-0.00014897,1.3756e-05,-0.000340861,-0.029794,0.0027512,-0.0681722,0,0,0,0,0.00189308,0.537084,-0.853204,35.4375,3,52298,5274483
224,2,-0.234316,-0.972383,9.81678,0.109149,-1.49885,0.931333,-0.00234343,-0.00970789,0.0981693,1,-7.23401e-05,3.5275e-05,-0.000370382,-0.014468,0.007055,-0.0740763,0,0,0,0,0.00531497,0.538944,-0.849643,35.4375,3,52299,5274583
224,3,-0.234316,-0.972383,9.81678,0.109149,-1.49885,0.931333,-0.00234343,-0.00970789,0.0981693,1,-7.23401e-05,3.5275e-05,-0.000370382,-0.014468,0.007055,-0.0740763,0,0,0,0,0.00531497,0.538944,-0.849643,35.4375,3,52299,5274583
224,4,-0.350915,0.255132,9.68933,-0.291591,-0.448116,0.612441,-0.00349677,0.00255699,0.0968936,1,-1.70769e-05,5.49925e-05,-0.000336785,-0.00341538,0.0109985,-0.0673571,0,0,0,0,0.0066074,0.542897,-0.853097,35.4375,3,52300,5274683
231,1,-0.350915,0.255132,9.68933,-0.291591,-0.448116,0.612441,-0.00349677,0.00255699,0.0968936,1,-1.70769e-05,5.49925e-05,-0.000336785,-0.00341538,0.0109985,-0.0673571,0,0,0,0,0.0066074,0.542897,-0.853097,35.4375,3,52300,5274683
231,2,-0.782016,-0.802162,9.22582,-0.355154,-1.12523,0.482563,-0.00780266,-0.00798285,0.092263,1,-0.000185196,0.000120332,-0.000294091,-0.0370393,0.0240664,-0.0588182,0,0,0,0,0.00782535,0.545459,-0.860621,35.4375,3,52301,5274783
232,1,-0.782016,-0.802162,9.22582,-0.355154,-1.12523,0.482563,-0.00780266,-0.00798285,0.092263,1,-0.000185196,0.000120332,-0.000294091,-0.0370393,0.0240664,-0.0588182,0,0,0,0,0.00782535,0.545459,-0.860621,35.4375,3,52301,5274783
232,2,-1.66714,-1.31071,8.28312,-1.72373,-1.926,-0.705072,-0.0166948,-0.0131225,0.0828241,1,0.000150309,-9.62176e-05,-0.000283998,0.0300617,-0.0192435,-0.0567997,0,0,0,0,0.00734713,0.541606,-0.86323,35.4375,3,52302,5274883
234,1,-1.66714,-1.31071,8.28312,-1.72373,-1.926,-0.705072,-0.0166948,-0.0131225,0.0828241,1,0.000150309,-9.62176e-05,-0.000283998,0.0300617,-0.0192435,-0.0567997,0,0,0,0,0.00734713,0.541606,-0.86323,35.4375,3,52302,5274883
234,2,0.800329,0.426109,11.3343,0.793092,-0.047315,1.97311,0.0079751,0.00424191,0.113345,1,6.66104e-05,-0.000133937,-0.000254899,0.0133221,-0.0267874,-0.0509798,0,0,0,0,0.006198,0.53562,-0.855277,35.4375,3,52303,5274983
234,3,0.800329,0.426109,11.3343,0.793092,-0.047315,1.97311,0.0079751,0.00424191,0.113345,1,6.66104e-05,-0.000133937,-0.000254899,0.0133221,-0.0267874,-0.0509798,0,0,0,0,0.006198,0.53562,-0.855277,35.4375,3,52303,5274983
234,4,0.0535444,-0.48842,11.1663,0.576006,-0.780636,2.37726,0.000560596,-0.0048981,0.111662,1,6.08612e-05,0.000125287,-0.000289093,0.0121722,0.0250574,-0.0578186,0,0,0,0,0.00639066,0.533552,-0.848758,35.4375,3,52304,5275083
235,1,0.0535444,-0.48842,11.1663,0.576006,-0.780636,2.37726,0.000560596,-0.0048981,0.111662,1,6.08612e-05,0.000125287,-0.000289093,0.0121722,0.0250574,-0.0578186,0,0,0,0,0.00639066,0.533552,-0.848758,35.4375,3,52304,5275083
235,2,-1.82872,0.0515654,8.62704,-1.54223,-0.496728,-0.0946879,-0.0182767,0.000493387,0.0862727,1,0.000192012,5.91029e-05,-0.00029711,0.0384025,0.0118206,-0.0594221,0,0,0,0,0.0107131,0.535449,-0.847726,35.4375,3,52305,5275183
236,1,-1.82872,0.0515654,8.62704,-1.54223,-0.496728,-0.0946879,-0.0182767,0.000493387,0.0862727,1,0.000192012,5.91029e-05,-0.00029711,0.0384025,0.0118206,-0.0594221,0,0,0,0,0.0107131,0.535449,-0.847726,35.4375,3,52305,5275183
236,2,-0.653827,-0.683482,9.25861,-0.679966,-1.15572,0.132639,-0.00657662,-0.00682844,0.0925838,1,-1.67255e-05,-0.000188597,-0.000250942,-0.0033451,-0.0377194,-0.0501885,0,0,0,0,0.0134408,0.539878,-0.851175,35.4375,3,52306,5275283
