frame_id,subframe_id,acc_x,acc_y,acc_z,gyro_x,gyro_y,gyro_z,mag_x,mag_y,mag_z,roll,pitch,yaw
1,0,-0.7544752955436708,-0.016038386151194576,9.77149772644043,0.005096198525279761,-0.0031534582376480103,0.0013023546198382976,-0.47052952647209173,0.6920498609542847,-0.7393755912780762,-0.5383706141547336,5.536899595149818,0.0915137415057001,,,,,,
1,1,-0.7544752955436708,-0.016038386151194576,9.77149772644043,0.005096198525279761,-0.0031534582376480103,0.0013023546198382976,-0.47052952647209173,0.6920498609542847,-0.7393755912780762,-0.5383706141547336,5.536899595149818,0.0915137415057001,,,,,,
1,2,-0.7544752955436708,-0.016038386151194576,9.77149772644043,0.005096198525279761,-0.0031534582376480103,0.0013023546198382976,-0.47052952647209173,0.6920498609542847,-0.7393755912780762,-0.5383706141547336,5.536899595149818,0.0915137415057001,,,,,,
1,3,-0.7544752955436708,-0.016038386151194576,9.77149772644043,0.005096198525279761,-0.0031534582376480103,0.0013023546198382976,-0.47052952647209173,0.6920498609542847,-0.7393755912780762,-0.5383706141547336,5.536899595149818,0.0915137415057001,,,,,,
1,4,-0.7544752955436708,-0.016038386151194576,9.77149772644043,0.005096198525279761,-0.0031534582376480103,0.0013023546198382976,-0.47052952647209173,0.6920498609542847,-0.7393755912780762,-0.5383706141547336,5.536899595149818,0.0915137415057001,,,,,,
1,5,-0.7599065899848939,-0.02144100330770016,9.774533271789553,0.00628419453278184,-0.002551063895225525,0.001844058162532747,-0.4682549238204956,0.694053053855896,-0.7433820366859437,-0.5213515373083091,5.514993935819845,0.09758615959456977,,,,,,
1,6,-0.7599065899848939,-0.02144100330770016,9.774533271789553,0.00628419453278184,-0.002551063895225525,0.001844058162532747,-0.4682549238204956,0.694053053855896,-0.7433820366859437,-0.5213515373083091,5.514993935819845,0.09758615959456977,,,,,,
1,7,-0.7516857981681825,-0.041685637086629874,9.793989181518555,0.009340775199234487,-0.004688684828579426,0.0005785237299278378,-0.4715861678123474,0.6926087141036987,-0.7428936958312988,-0.5112483386748015,5.502592920218846,0.09922231320732952,,,,,,
1,8,-0.7323377132415771,-0.05757877230644226,9.790991783142092,0.007762018125504256,-0.0009753125486895442,0.0051375371403992185,-0.47245824337005615,0.6915871500968934,-0.7398820519447328,-0.5018410140538765,5.492340173265473,0.10344630976152934,,,,,,
1,9,-0.7364663481712342,-0.032674979418516166,9.776671409606935,0.011644884943962097,-0.006076328456401825,0.003388504730537534,-0.4729597568511963,0.6920878887176514,-0.7403736114501953,-0.4903598580940982,5.479138798467534,0.1066649352720612,,,,,,
1,10,-0.7724897265434266,-0.019711121916770935,9.79195785522461,0.005562998354434967,-0.006023781839758159,0.000807657721452415,-0.4687360227108002,0.6940570473670961,-0.7433797121047974,-0.46334993729733204,5.441792939554746,0.1156413108868314,,,,,,
1,11,-0.7724897265434266,-0.019711121916770935,9.79195785522461,0.005562998354434967,-0.006023781839758159,0.000807657721452415,-0.4687360227108002,0.6940570473670961,-0.7433797121047974,-0.46334993729733204,5.441792939554746,0.1156413108868314,,,,,,
1,12,-0.7724897265434266,-0.019711121916770935,9.79195785522461,0.005562998354434967,-0.006023781839758159,0.000807657721452415,-0.4687360227108002,0.6940570473670961,-0.7433797121047974,-0.46334993729733204,5.441792939554746,0.1156413108868314,,,,,,
1,13,-0.746436357498169,-0.043469659984111786,9.794965744018555,0.005750729236751796,-0.006609791424125434,0.0054776594042778015,-0.4691725075244904,0.6921009421348573,-0.7429161071777344,-0.4552042278570858,5.4283295037886115,0.1200336282831071,,,,,,
1,14,-0.716271460056305,-0.04144861176609994,9.79646968841553,0.006689831148833037,-0.005416602827608585,0.003897422458976507,-0.4710314869880676,0.6911053657531738,-0.7409093976020814,-0.438378211638745,5.402806927667538,0.12538105171649386,,,,,,
1,15,-0.716271460056305,-0.04144861176609994,9.79646968841553,0.006689831148833037,-0.005416602827608585,0.003897422458976507,-0.4710314869880676,0.6911053657531738,-0.7409093976020814,-0.438378211638745,5.402806927667538,0.12538105171649386,,,,,,
1,16,-0.6919960379600526,-0.026903426274657253,9.776413917541506,0.009812800213694572,-0.0060133286751806745,0.004176437854766846,-0.46764326095581055,0.6905806064605713,-0.7404316663742065,-0.428132557819082,5.389682820166819,0.12895692171290465,,,,,,
1,17,-0.7193605303764344,-0.027493817731738094,9.764719963073732,0.0067796651273965836,-0.0029358980245888233,0.0015921626472845676,-0.4681732654571533,0.6920658946037294,-0.7414063811302186,-0.41980717729064976,5.378288474907691,0.13101376816850485,,,,,,
1,18,-0.7482755780220033,-0.03034264408051968,9.782511711120607,0.005935851484537125,-0.002006089081987739,0.0018645545933395624,-0.47206729650497437,0.6926127076148988,-0.7428913712501527,-0.39327668950828165,5.346616924439733,0.139504744520829,,,,,,
1,19,-0.7482755780220033,-0.03034264408051968,9.782511711120607,0.005935851484537125,-0.002006089081987739,0.0018645545933395624,-0.47206729650497437,0.6926127076148988,-0.7428913712501527,-0.39327668950828165,5.346616924439733,0.139504744520829,,,,,,
1,20,-0.7482755780220033,-0.03034264408051968,9.782511711120607,0.005935851484537125,-0.002006089081987739,0.0018645545933395624,-0.47206729650497437,0.6926127076148988,-0.7428913712501527,-0.39327668950828165,5.346616924439733,0.139504744520829,,,,,,
1,21,-0.7681856751441957,-0.0379786491394043,9.783610343933107,0.009391846135258675,-0.003261059522628784,0.003189223119989038,-0.47105616331100464,0.6911234259605409,-0.7419190406799316,-0.38355449124821667,5.335146947866493,0.1424124304699683,,,,,,
1,22,-0.7894967794418335,0.0010622305562719705,9.792236328125,0.00695920642465353,-0.002100737532600761,3.125182774965652e-05,-0.46966502070426946,0.6950044631958008,-0.7413341999053955,-0.36554819317616877,5.314658314767707,0.14624352527397785,,,,,,
1,23,-0.7593448162078857,-0.0368352122604847,9.783222198486328,0.007024771068245173,-0.0030126674100756645,0.0010703142033889892,-0.4682506322860718,0.6945317983627319,-0.742866337299347,-0.35740829248578093,5.303523955390747,0.14789663291699248,,,,,,
1,24,-0.7424854040145874,-0.046748261898756034,9.784728050231935,0.0077814143151044846,-0.004430843051522971,0.002006391528993845,-0.4705755114555359,0.6896741390228271,-0.7429636120796205,-0.3413211557461455,5.279981833198237,0.15266360914118607,,,,,,
2,0,-0.7544752955436708,-0.016038386151194576,9.77149772644043,0.005096198525279761,-0.0031534582376480103,0.0013023546198382976,-0.47052952647209173,0.6920498609542847,-0.7393755912780762,-0.5383706141547336,5.536899595149818,0.0915137415057001,,,,,,
2,1,-0.7544752955436708,-0.016038386151194576,9.77149772644043,0.005096198525279761,-0.0031534582376480103,0.0013023546198382976,-0.47052952647209173,0.6920498609542847,-0.7393755912780762,-0.5383706141547336,5.536899595149818,0.0915137415057001,,,,,,
2,2,-0.7544752955436708,-0.016038386151194576,9.77149772644043,0.005096198525279761,-0.0031534582376480103,0.0013023546198382976,-0.47052952647209173,0.6920498609542847,-0.7393755912780762,-0.5383706141547336,5.536899595149818,0.0915137415057001,,,,,,
2,3,-0.7544752955436708,-0.016038386151194576,9.77149772644043,0.005096198525279761,-0.0031534582376480103,0.0013023546198382976,-0.47052952647209173,0.6920498609542847,-0.7393755912780762,-0.5383706141547336,5.536899595149818,0.0915137415057001,,,,,,
2,4,-0.7544752955436708,-0.016038386151194576,9.77149772644043,0.005096198525279761,-0.0031534582376480103,0.0013023546198382976,-0.47052952647209173,0.6920498609542847,-0.7393755912780762,-0.5383706141547336,5.536899595149818,0.0915137415057001,,,,,,
2,5,-0.7599065899848939,-0.02144100330770016,9.774533271789553,0.00628419453278184,-0.002551063895225525,0.001844058162532747,-0.4682549238204956,0.694053053855896,-0.7433820366859437,-0.5213515373083091,5.514993935819845,0.09758615959456977,,,,,,
2,6,-0.7599065899848939,-0.02144100330770016,9.774533271789553,0.00628419453278184,-0.002551063895225525,0.001844058162532747,-0.4682549238204956,0.694053053855896,-0.7433820366859437,-0.5213515373083091,5.514993935819845,0.09758615959456977,,,,,,
2,7,-0.7516857981681825,-0.041685637086629874,9.793989181518555,0.009340775199234487,-0.004688684828579426,0.0005785237299278378,-0.4715861678123474,0.6926087141036987,-0.7428936958312988,-0.5112483386748015,5.502592920218846,0.09922231320732952,,,,,,
2,8,-0.7323377132415771,-0.05757877230644226,9.790991783142092,0.007762018125504256,-0.0009753125486895442,0.0051375371403992185,-0.47245824337005615,0.6915871500968934,-0.7398820519447328,-0.5018410140538765,5.492340173265473,0.10344630976152934,,,,,,
2,9,-0.7364663481712342,-0.032674979418516166,9.776671409606935,0.011644884943962097,-0.006076328456401825,0.003388504730537534,-0.4729597568511963,0.6920878887176514,-0.7403736114501953,-0.4903598580940982,5.479138798467534,0.1066649352720612,,,,,,
2,10,-0.7724897265434266,-0.019711121916770935,9.79195785522461,0.005562998354434967,-0.006023781839758159,0.000807657721452415,-0.4687360227108002,0.6940570473670961,-0.7433797121047974,-0.46334993729733204,5.441792939554746,0.1156413108868314,,,,,,
2,11,-0.7724897265434266,-0.019711121916770935,9.79195785522461,0.005562998354434967,-0.006023781839758159,0.000807657721452415,-0.4687360227108002,0.6940570473670961,-0.7433797121047974,-0.46334993729733204,5.441792939554746,0.1156413108868314,,,,,,
2,12,-0.7724897265434266,-0.019711121916770935,9.79195785522461,0.005562998354434967,-0.006023781839758159,0.000807657721452415,-0.4687360227108002,0.6940570473670961,-0.7433797121047974,-0.46334993729733204,5.441792939554746,0.1156413108868314,,,,,,
2,13,-0.746436357498169,-0.043469659984111786,9.794965744018555,0.005750729236751796,-0.006609791424125434,0.0054776594042778015,-0.4691725075244904,0.6921009421348573,-0.7429161071777344,-0.4552042278570858,5.4283295037886115,0.1200336282831071,,,,,,
2,14,-0.716271460056305,-0.04144861176609994,9.79646968841553,0.006689831148833037,-0.005416602827608585,0.003897422458976507,-0.4710314869880676,0.6911053657531738,-0.7409093976020814,-0.438378211638745,5.402806927667538,0.12538105171649386,,,,,,
2,15,-0.716271460056305,-0.04144861176609994,9.79646968841553,0.006689831148833037,-0.005416602827608585,0.003897422458976507,-0.4710314869880676,0.6911053657531738,-0.7409093976020814,-0.438378211638745,5.402806927667538,0.12538105171649386,,,,,,
2,16,-0.6919960379600526,-0.026903426274657253,9.776413917541506,0.009812800213694572,-0.0060133286751806745,0.004176437854766846,-0.46764326095581055,0.6905806064605713,-0.7404316663742065,-0.428132557819082,5.389682820166819,0.12895692171290465,,,,,,
2,17,-0.7193605303764344,-0.027493817731738094,9.764719963073732,0.0067796651273965836,-0.0029358980245888233,0.0015921626472845676,-0.4681732654571533,0.6920658946037294,-0.7414063811302186,-0.41980717729064976,5.378288474907691,0.13101376816850485,,,,,,
2,18,-0.7482755780220033,-0.03034264408051968,9.782511711120607,0.005935851484537125,-0.002006089081987739,0.0018645545933395624,-0.47206729650497437,0.6926127076148988,-0.7428913712501527,-0.39327668950828165,5.346616924439733,0.139504744520829,,,,,,
2,19,-0.7482755780220033,-0.03034264408051968,9.782511711120607,0.005935851484537125,-0.002006089081987739,0.0018645545933395624,-0.47206729650497437,0.6926127076148988,-0.7428913712501527,-0.39327668950828165,5.346616924439733,0.139504744520829,,,,,,
2,20,-0.7482755780220033,-0.03034264408051968,9.782511711120607,0.005935851484537125,-0.002006089081987739,0.0018645545933395624,-0.47206729650497437,0.6926127076148988,-0.7428913712501527,-0.39327668950828165,5.346616924439733,0.139504744520829,,,,,,
2,21,-0.7681856751441957,-0.0379786491394043,9.783610343933107,0.009391846135258675,-0.003261059522628784,0.003189223119989038,-0.47105616331100464,0.6911234259605409,-0.7419190406799316,-0.38355449124821667,5.335146947866493,0.1424124304699683,,,,,,
2,22,-0.7894967794418335,0.0010622305562719705,9.792236328125,0.00695920642465353,-0.002100737532600761,3.125182774965652e-05,-0.46966502070426946,0.6950044631958008,-0.7413341999053955,-0.36554819317616877,5.314658314767707,0.14624352527397785,,,,,,
2,23,-0.7593448162078857,-0.0368352122604847,9.783222198486328,0.007024771068245173,-0.0030126674100756645,0.0010703142033889892,-0.4682506322860718,0.6945317983627319,-0.742866337299347,-0.35740829248578093,5.303523955390747,0.14789663291699248,,,,,,
2,24,-0.7424854040145874,-0.046748261898756034,9.784728050231935,0.0077814143151044846,-0.004430843051522971,0.002006391528993845,-0.4705755114555359,0.6896741390228271,-0.7429636120796205,-0.3413211557461455,5.279981833198237,0.15266360914118607,,,,,,
3,0,-0.7544752955436708,-0.016038386151194576,9.77149772644043,0.005096198525279761,-0.0031534582376480103,0.0013023546198382976,-0.47052952647209173,0.6920498609542847,-0.7393755912780762,-0.5383706141547336,5.536899595149818,0.0915137415057001,,,,,,
3,1,-0.7544752955436708,-0.016038386151194576,9.77149772644043,0.005096198525279761,-0.0031534582376480103,0.0013023546198382976,-0.47052952647209173,0.6920498609542847,-0.7393755912780762,-0.5383706141547336,5.536899595149818,0.0915137415057001,,,,,,
3,2,-0.7544752955436708,-0.016038386151194576,9.77149772644043,0.005096198525279761,-0.0031534582376480103,0.0013023546198382976,-0.47052952647209173,0.6920498609542847,-0.7393755912780762,-0.5383706141547336,5.536899595149818,0.0915137415057001,,,,,,
3,3,-0.7544752955436708,-0.016038386151194576,9.77149772644043,0.005096198525279761,-0.0031534582376480103,0.0013023546198382976,-0.47052952647209173,0.6920498609542847,-0.7393755912780762,-0.5383706141547336,5.536899595149818,0.0915137415057001,,,,,,
3,4,-0.7544752955436708,-0.016038386151194576,9.77149772644043,0.005096198525279761,-0.0031534582376480103,0.0013023546198382976,-0.47052952647209173,0.6920498609542847,-0.7393755912780762,-0.5383706141547336,5.536899595149818,0.0915137415057001,,,,,,
3,5,-0.7599065899848939,-0.02144100330770016,9.774533271789553,0.00628419453278184,-0.002551063895225525,0.001844058162532747,-0.4682549238204956,0.694053053855896,-0.7433820366859437,-0.5213515373083091,5.514993935819845,0.09758615959456977,,,,,,
3,6,-0.7599065899848939,-0.02144100330770016,9.774533271789553,0.00628419453278184,-0.002551063895225525,0.001844058162532747,-0.4682549238204956,0.694053053855896,-0.7433820366859437,-0.5213515373083091,5.514993935819845,0.09758615959456977,,,,,,
3,7,-0.7516857981681825,-0.041685637086629874,9.793989181518555,0.009340775199234487,-0.004688684828579426,0.0005785237299278378,-0.4715861678123474,0.6926087141036987,-0.7428936958312988,-0.5112483386748015,5.502592920218846,0.09922231320732952,,,,,,
3,8,-0.7323377132415771,-0.05757877230644226,9.790991783142092,0.007762018125504256,-0.0009753125486895442,0.0051375371403992185,-0.47245824337005615,0.6915871500968934,-0.7398820519447328,-0.5018410140538765,5.492340173265473,0.10344630976152934,,,,,,
3,9,-0.7364663481712342,-0.032674979418516166,9.776671409606935,0.011644884943962097,-0.006076328456401825,0.003388504730537534,-0.4729597568511963,0.6920878887176514,-0.7403736114501953,-0.4903598580940982,5.479138798467534,0.1066649352720612,,,,,,
3,10,-0.7724897265434266,-0.019711121916770935,9.79195785522461,0.005562998354434967,-0.006023781839758159,0.000807657721452415,-0.4687360227108002,0.6940570473670961,-0.7433797121047974,-0.46334993729733204,5.441792939554746,0.1156413108868314,,,,,,
3,11,-0.7724897265434266,-0.019711121916770935,9.79195785522461,0.005562998354434967,-0.006023781839758159,0.000807657721452415,-0.4687360227108002,0.6940570473670961,-0.7433797121047974,-0.46334993729733204,5.441792939554746,0.1156413108868314,,,,,,
3,12,-0.7724897265434266,-0.019711121916770935,9.79195785522461,0.005562998354434967,-0.006023781839758159,0.000807657721452415,-0.4687360227108002,0.6940570473670961,-0.7433797121047974,-0.46334993729733204,5.441792939554746,0.1156413108868314,,,,,,
3,13,-0.746436357498169,-0.043469659984111786,9.794965744018555,0.005750729236751796,-0.006609791424125434,0.0054776594042778015,-0.4691725075244904,0.6921009421348573,-0.7429161071777344,-0.4552042278570858,5.4283295037886115,0.1200336282831071,,,,,,
3,14,-0.716271460056305,-0.04144861176609994,9.79646968841553,0.006689831148833037,-0.005416602827608585,0.003897422458976507,-0.4710314869880676,0.6911053657531738,-0.7409093976020814,-0.438378211638745,5.402806927667538,0.12538105171649386,,,,,,
3,15,-0.716271460056305,-0.04144861176609994,9.79646968841553,0.006689831148833037,-0.005416602827608585,0.003897422458976507,-0.4710314869880676,0.6911053657531738,-0.7409093976020814,-0.438378211638745,5.402806927667538,0.12538105171649386,,,,,,
3,16,-0.6919960379600526,-0.026903426274657253,9.776413917541506,0.009812800213694572,-0.0060133286751806745,0.004176437854766846,-0.46764326095581055,0.6905806064605713,-0.7404316663742065,-0.428132557819082,5.389682820166819,0.12895692171290465,,,,,,
3,17,-0.7193605303764344,-0.027493817731738094,9.764719963073732,0.0067796651273965836,-0.0029358980245888233,0.0015921626472845676,-0.4681732654571533,0.6920658946037294,-0.7414063811302186,-0.41980717729064976,5.378288474907691,0.13101376816850485,,,,,,
3,18,-0.7482755780220033,-0.03034264408051968,9.782511711120607,0.005935851484537125,-0.002006089081987739,0.0018645545933395624,-0.47206729650497437,0.6926127076148988,-0.7428913712501527,-0.39327668950828165,5.346616924439733,0.139504744520829,,,,,,
3,19,-0.7482755780220033,-0.03034264408051968,9.782511711120607,0.005935851484537125,-0.002006089081987739,0.0018645545933395624,-0.47206729650497437,0.6926127076148988,-0.7428913712501527,-0.39327668950828165,5.346616924439733,0.139504744520829,,,,,,
3,20,-0.7482755780220033,-0.03034264408051968,9.782511711120607,0.005935851484537125,-0.002006089081987739,0.0018645545933395624,-0.47206729650497437,0.6926127076148988,-0.7428913712501527,-0.39327668950828165,5.346616924439733,0.139504744520829,,,,,,
3,21,-0.7681856751441957,-0.0379786491394043,9.783610343933107,0.009391846135258675,-0.003261059522628784,0.003189223119989038,-0.47105616331100464,0.6911234259605409,-0.7419190406799316,-0.38355449124821667,5.335146947866493,0.1424124304699683,,,,,,
3,22,-0.7894967794418335,0.0010622305562719705,9.792236328125,0.00695920642465353,-0.002100737532600761,3.125182774965652e-05,-0.46966502070426946,0.6950044631958008,-0.7413341999053955,-0.36554819317616877,5.314658314767707,0.14624352527397785,,,,,,
3,23,-0.7593448162078857,-0.0368352122604847,9.783222198486328,0.007024771068245173,-0.0030126674100756645,0.0010703142033889892,-0.4682506322860718,0.6945317983627319,-0.742866337299347,-0.35740829248578093,5.303523955390747,0.14789663291699248,,,,,,
3,24,-0.7424854040145874,-0.046748261898756034,9.784728050231935,0.0077814143151044846,-0.004430843051522971,0.002006391528993845,-0.4705755114555359,0.6896741390228271,-0.7429636120796205,-0.3413211557461455,5.279981833198237,0.15266360914118607,,,,,,
4,0,-0.7544752955436708,-0.016038386151194576,9.77149772644043,0.005096198525279761,-0.0031534582376480103,0.0013023546198382976,-0.47052952647209173,0.6920498609542847,-0.7393755912780762,-0.5383706141547336,5.536899595149818,0.0915137415057001,,,,,,
4,1,-0.7544752955436708,-0.016038386151194576,9.77149772644043,0.005096198525279761,-0.0031534582376480103,0.0013023546198382976,-0.47052952647209173,0.6920498609542847,-0.7393755912780762,-0.5383706141547336,5.536899595149818,0.0915137415057001,,,,,,
4,2,-0.7544752955436708,-0.016038386151194576,9.77149772644043,0.005096198525279761,-0.0031534582376480103,0.0013023546198382976,-0.47052952647209173,0.6920498609542847,-0.7393755912780762,-0.5383706141547336,5.536899595149818,0.0915137415057001,,,,,,
4,3,-0.7544752955436708,-0.016038386151194576,9.77149772644043,0.005096198525279761,-0.0031534582376480103,0.0013023546198382976,-0.47052952647209173,0.6920498609542847,-0.7393755912780762,-0.5383706141547336,5.536899595149818,0.0915137415057001,,,,,,
4,4,-0.7544752955436708,-0.016038386151194576,9.77149772644043,0.005096198525279761,-0.0031534582376480103,0.0013023546198382976,-0.47052952647209173,0.6920498609542847,-0.7393755912780762,-0.5383706141547336,5.536899595149818,0.0915137415057001,,,,,,
4,5,-0.7599065899848939,-0.02144100330770016,9.774533271789553,0.00628419453278184,-0.002551063895225525,0.001844058162532747,-0.4682549238204956,0.694053053855896,-0.7433820366859437,-0.5213515373083091,5.514993935819845,0.09758615959456977,,,,,,
4,6,-0.7599065899848939,-0.02144100330770016,9.774533271789553,0.00628419453278184,-0.002551063895225525,0.001844058162532747,-0.4682549238204956,0.694053053855896,-0.7433820366859437,-0.5213515373083091,5.514993935819845,0.09758615959456977,,,,,,
4,7,-0.7516857981681825,-0.041685637086629874,9.793989181518555,0.009340775199234487,-0.004688684828579426,0.0005785237299278378,-0.4715861678123474,0.6926087141036987,-0.7428936958312988,-0.5112483386748015,5.502592920218846,0.09922231320732952,,,,,,
4,8,-0.7323377132415771,-0.05757877230644226,9.790991783142092,0.007762018125504256,-0.0009753125486895442,0.0051375371403992185,-0.47245824337005615,0.6915871500968934,-0.7398820519447328,-0.5018410140538765,5.492340173265473,0.10344630976152934,,,,,,
4,9,-0.7364663481712342,-0.032674979418516166,9.776671409606935,0.011644884943962097,-0.006076328456401825,0.003388504730537534,-0.4729597568511963,0.6920878887176514,-0.7403736114501953,-0.4903598580940982,5.479138798467534,0.1066649352720612,,,,,,
4,10,-0.7724897265434266,-0.019711121916770935,9.79195785522461,0.005562998354434967,-0.006023781839758159,0.000807657721452415,-0.4687360227108002,0.6940570473670961,-0.7433797121047974,-0.46334993729733204,5.441792939554746,0.1156413108868314,,,,,,
4,11,-0.7724897265434266,-0.019711121916770935,9.79195785522461,0.005562998354434967,-0.006023781839758159,0.000807657721452415,-0.4687360227108002,0.6940570473670961,-0.7433797121047974,-0.46334993729733204,5.441792939554746,0.1156413108868314,,,,,,
4,12,-0.7724897265434266,-0.019711121916770935,9.79195785522461,0.005562998354434967,-0.006023781839758159,0.000807657721452415,-0.4687360227108002,0.6940570473670961,-0.7433797121047974,-0.46334993729733204,5.441792939554746,0.1156413108868314,,,,,,
4,13,-0.746436357498169,-0.043469659984111786,9.794965744018555,0.005750729236751796,-0.006609791424125434,0.0054776594042778015,-0.4691725075244904,0.6921009421348573,-0.7429161071777344,-0.4552042278570858,5.4283295037886115,0.1200336282831071,,,,,,
4,14,-0.716271460056305,-0.04144861176609994,9.79646968841553,0.006689831148833037,-0.005416602827608585,0.003897422458976507,-0.4710314869880676,0.6911053657531738,-0.7409093976020814,-0.438378211638745,5.402806927667538,0.12538105171649386,,,,,,
4,15,-0.716271460056305,-0.04144861176609994,9.79646968841553,0.006689831148833037,-0.005416602827608585,0.003897422458976507,-0.4710314869880676,0.6911053657531738,-0.7409093976020814,-0.438378211638745,5.402806927667538,0.12538105171649386,,,,,,
4,16,-0.6919960379600526,-0.026903426274657253,9.776413917541506,0.009812800213694572,-0.0060133286751806745,0.004176437854766846,-0.46764326095581055,0.6905806064605713,-0.7404316663742065,-0.428132557819082,5.389682820166819,0.12895692171290465,,,,,,
4,17,-0.7193605303764344,-0.027493817731738094,9.764719963073732,0.0067796651273965836,-0.0029358980245888233,0.0015921626472845676,-0.4681732654571533,0.6920658946037294,-0.7414063811302186,-0.41980717729064976,5.378288474907691,0.13101376816850485,,,,,,
4,18,-0.7482755780220033,-0.03034264408051968,9.782511711120607,0.005935851484537125,-0.002006089081987739,0.0018645545933395624,-0.47206729650497437,0.6926127076148988,-0.7428913712501527,-0.39327668950828165,5.346616924439733,0.139504744520829,,,,,,
4,19,-0.7482755780220033,-0.03034264408051968,9.782511711120607,0.005935851484537125,-0.002006089081987739,0.0018645545933395624,-0.47206729650497437,0.6926127076148988,-0.7428913712501527,-0.39327668950828165,5.346616924439733,0.139504744520829,,,,,,
4,20,-0.7482755780220033,-0.03034264408051968,9.782511711120607,0.005935851484537125,-0.002006089081987739,0.0018645545933395624,-0.47206729650497437,0.6926127076148988,-0.7428913712501527,-0.39327668950828165,5.346616924439733,0.139504744520829,,,,,,
4,21,-0.7681856751441957,-0.0379786491394043,9.783610343933107,0.009391846135258675,-0.003261059522628784,0.003189223119989038,-0.47105616331100464,0.6911234259605409,-0.7419190406799316,-0.38355449124821667,5.335146947866493,0.1424124304699683,,,,,,
4,22,-0.7894967794418335,0.0010622305562719705,9.792236328125,0.00695920642465353,-0.002100737532600761,3.125182774965652e-05,-0.46966502070426946,0.6950044631958008,-0.7413341999053955,-0.36554819317616877,5.314658314767707,0.14624352527397785,,,,,,
4,23,-0.7593448162078857,-0.0368352122604847,9.783222198486328,0.007024771068245173,-0.0030126674100756645,0.0010703142033889892,-0.4682506322860718,0.6945317983627319,-0.742866337299347,-0.35740829248578093,5.303523955390747,0.14789663291699248,,,,,,
4,24,-0.7424854040145874,-0.046748261898756034,9.784728050231935,0.0077814143151044846,-0.004430843051522971,0.002006391528993845,-0.4705755114555359,0.6896741390228271,-0.7429636120796205,-0.3413211557461455,5.279981833198237,0.15266360914118607,,,,,,
5,0,-0.7544752955436708,-0.016038386151194576,9.77149772644043,0.005096198525279761,-0.0031534582376480103,0.0013023546198382976,-0.47052952647209173,0.6920498609542847,-0.7393755912780762,-0.5383706141547336,5.536899595149818,0.0915137415057001,,,,,,
5,1,-0.7544752955436708,-0.016038386151194576,9.77149772644043,0.005096198525279761,-0.0031534582376480103,0.0013023546198382976,-0.47052952647209173,0.6920498609542847,-0.7393755912780762,-0.5383706141547336,5.536899595149818,0.0915137415057001,,,,,,
5,2,-0.7544752955436708,-0.016038386151194576,9.77149772644043,0.005096198525279761,-0.0031534582376480103,0.0013023546198382976,-0.47052952647209173,0.6920498609542847,-0.7393755912780762,-0.5383706141547336,5.536899595149818,0.0915137415057001,,,,,,
5,3,-0.7544752955436708,-0.016038386151194576,9.77149772644043,0.005096198525279761,-0.0031534582376480103,0.0013023546198382976,-0.47052952647209173,0.6920498609542847,-0.7393755912780762,-0.5383706141547336,5.536899595149818,0.0915137415057001,,,,,,
5,4,-0.7544752955436708,-0.016038386151194576,9.77149772644043,0.005096198525279761,-0.0031534582376480103,0.0013023546198382976,-0.47052952647209173,0.6920498609542847,-0.7393755912780762,-0.5383706141547336,5.536899595149818,0.0915137415057001,,,,,,
5,5,-0.7599065899848939,-0.02144100330770016,9.774533271789553,0.00628419453278184,-0.002551063895225525,0.001844058162532747,-0.4682549238204956,0.694053053855896,-0.7433820366859437,-0.5213515373083091,5.514993935819845,0.09758615959456977,,,,,,
5,6,-0.7599065899848939,-0.02144100330770016,9.774533271789553,0.00628419453278184,-0.002551063895225525,0.001844058162532747,-0.4682549238204956,0.694053053855896,-0.7433820366859437,-0.5213515373083091,5.514993935819845,0.09758615959456977,,,,,,
5,7,-0.7516857981681825,-0.041685637086629874,9.793989181518555,0.009340775199234487,-0.004688684828579426,0.0005785237299278378,-0.4715861678123474,0.6926087141036987,-0.7428936958312988,-0.5112483386748015,5.502592920218846,0.09922231320732952,,,,,,
5,8,-0.7323377132415771,-0.05757877230644226,9.790991783142092,0.007762018125504256,-0.0009753125486895442,0.0051375371403992185,-0.47245824337005615,0.6915871500968934,-0.7398820519447328,-0.5018410140538765,5.492340173265473,0.10344630976152934,,,,,,
5,9,-0.7364663481712342,-0.032674979418516166,9.776671409606935,0.011644884943962097,-0.006076328456401825,0.003388504730537534,-0.4729597568511963,0.6920878887176514,-0.7403736114501953,-0.4903598580940982,5.479138798467534,0.1066649352720612,,,,,,
5,10,-0.7724897265434266,-0.019711121916770935,9.79195785522461,0.005562998354434967,-0.006023781839758159,0.000807657721452415,-0.4687360227108002,0.6940570473670961,-0.7433797121047974,-0.46334993729733204,5.441792939554746,0.1156413108868314,,,,,,
5,11,-0.7724897265434266,-0.019711121916770935,9.79195785522461,0.005562998354434967,-0.006023781839758159,0.000807657721452415,-0.4687360227108002,0.6940570473670961,-0.7433797121047974,-0.46334993729733204,5.441792939554746,0.1156413108868314,,,,,,
5,12,-0.7724897265434266,-0.019711121916770935,9.79195785522461,0.005562998354434967,-0.006023781839758159,0.000807657721452415,-0.4687360227108002,0.6940570473670961,-0.7433797121047974,-0.46334993729733204,5.441792939554746,0.1156413108868314,,,,,,
5,13,-0.746436357498169,-0.043469659984111786,9.794965744018555,0.005750729236751796,-0.006609791424125434,0.0054776594042778015,-0.4691725075244904,0.6921009421348573,-0.7429161071777344,-0.4552042278570858,5.4283295037886115,0.1200336282831071,,,,,,
5,14,-0.716271460056305,-0.04144861176609994,9.79646968841553,0.006689831148833037,-0.005416602827608585,0.003897422458976507,-0.4710314869880676,0.6911053657531738,-0.7409093976020814,-0.438378211638745,5.402806927667538,0.12538105171649386,,,,,,
5,15,-0.716271460056305,-0.04144861176609994,9.79646968841553,0.006689831148833037,-0.005416602827608585,0.003897422458976507,-0.4710314869880676,0.6911053657531738,-0.7409093976020814,-0.438378211638745,5.402806927667538,0.12538105171649386,,,,,,
5,16,-0.6919960379600526,-0.026903426274657253,9.776413917541506,0.009812800213694572,-0.0060133286751806745,0.004176437854766846,-0.46764326095581055,0.6905806064605713,-0.7404316663742065,-0.428132557819082,5.389682820166819,0.12895692171290465,,,,,,
5,17,-0.7193605303764344,-0.027493817731738094,9.764719963073732,0.0067796651273965836,-0.0029358980245888233,0.0015921626472845676,-0.4681732654571533,0.6920658946037294,-0.7414063811302186,-0.41980717729064976,5.378288474907691,0.13101376816850485,,,,,,
5,18,-0.7482755780220033,-0.03034264408051968,9.782511711120607,0.005935851484537125,-0.002006089081987739,0.0018645545933395624,-0.47206729650497437,0.6926127076148988,-0.7428913712501527,-0.39327668950828165,5.346616924439733,0.139504744520829,,,,,,
5,19,-0.7482755780220033,-0.03034264408051968,9.782511711120607,0.005935851484537125,-0.002006089081987739,0.0018645545933395624,-0.47206729650497437,0.6926127076148988,-0.7428913712501527,-0.39327668950828165,5.346616924439733,0.139504744520829,,,,,,
5,20,-0.7482755780220033,-0.03034264408051968,9.782511711120607,0.005935851484537125,-0.002006089081987739,0.0018645545933395624,-0.47206729650497437,0.6926127076148988,-0.7428913712501527,-0.39327668950828165,5.346616924439733,0.139504744520829,,,,,,
5,21,-0.7681856751441957,-0.0379786491394043,9.783610343933107,0.009391846135258675,-0.003261059522628784,0.003189223119989038,-0.47105616331100464,0.6911234259605409,-0.7419190406799316,-0.38355449124821667,5.335146947866493,0.1424124304699683,,,,,,
5,22,-0.7894967794418335,0.0010622305562719705,9.792236328125,0.00695920642465353,-0.002100737532600761,3.125182774965652e-05,-0.46966502070426946,0.6950044631958008,-0.7413341999053955,-0.36554819317616877,5.314658314767707,0.14624352527397785,,,,,,
5,23,-0.7593448162078857,-0.0368352122604847,9.783222198486328,0.007024771068245173,-0.0030126674100756645,0.0010703142033889892,-0.4682506322860718,0.6945317983627319,-0.742866337299347,-0.35740829248578093,5.303523955390747,0.14789663291699248,,,,,,
5,24,-0.7424854040145874,-0.046748261898756034,9.784728050231935,0.0077814143151044846,-0.004430843051522971,0.002006391528993845,-0.4705755114555359,0.6896741390228271,-0.7429636120796205,-0.3413211557461455,5.279981833198237,0.15266360914118607,,,,,,
6,0,-0.7544752955436708,-0.016038386151194576,9.77149772644043,0.005096198525279761,-0.0031534582376480103,0.0013023546198382976,-0.47052952647209173,0.6920498609542847,-0.7393755912780762,-0.5383706141547336,5.536899595149818,0.0915137415057001,,,,,,
6,1,-0.7544752955436708,-0.016038386151194576,9.77149772644043,0.005096198525279761,-0.0031534582376480103,0.0013023546198382976,-0.47052952647209173,0.6920498609542847,-0.7393755912780762,-0.5383706141547336,5.536899595149818,0.0915137415057001,,,,,,
6,2,-0.7544752955436708,-0.016038386151194576,9.77149772644043,0.005096198525279761,-0.0031534582376480103,0.0013023546198382976,-0.47052952647209173,0.6920498609542847,-0.7393755912780762,-0.5383706141547336,5.536899595149818,0.0915137415057001,,,,,,
6,3,-0.7544752955436708,-0.016038386151194576,9.77149772644043,0.005096198525279761,-0.0031534582376480103,0.0013023546198382976,-0.47052952647209173,0.6920498609542847,-0.7393755912780762,-0.5383706141547336,5.536899595149818,0.0915137415057001,,,,,,
6,4,-0.7544752955436708,-0.016038386151194576,9.77149772644043,0.005096198525279761,-0.0031534582376480103,0.0013023546198382976,-0.47052952647209173,0.6920498609542847,-0.7393755912780762,-0.5383706141547336,5.536899595149818,0.0915137415057001,,,,,,
6,5,-0.7599065899848939,-0.02144100330770016,9.774533271789553,0.00628419453278184,-0.002551063895225525,0.001844058162532747,-0.4682549238204956,0.694053053855896,-0.7433820366859437,-0.5213515373083091,5.514993935819845,0.09758615959456977,,,,,,
6,6,-0.7599065899848939,-0.02144100330770016,9.774533271789553,0.00628419453278184,-0.002551063895225525,0.001844058162532747,-0.4682549238204956,0.694053053855896,-0.7433820366859437,-0.5213515373083091,5.514993935819845,0.09758615959456977,,,,,,
6,7,-0.7516857981681825,-0.041685637086629874,9.793989181518555,0.009340775199234487,-0.004688684828579426,0.0005785237299278378,-0.4715861678123474,0.6926087141036987,-0.7428936958312988,-0.5112483386748015,5.502592920218846,0.09922231320732952,,,,,,
6,8,-0.7323377132415771,-0.05757877230644226,9.790991783142092,0.007762018125504256,-0.0009753125486895442,0.0051375371403992185,-0.47245824337005615,0.6915871500968934,-0.7398820519447328,-0.5018410140538765,5.492340173265473,0.10344630976152934,,,,,,
6,9,-0.7364663481712342,-0.032674979418516166,9.776671409606935,0.011644884943962097,-0.006076328456401825,0.003388504730537534,-0.4729597568511963,0.6920878887176514,-0.7403736114501953,-0.4903598580940982,5.479138798467534,0.1066649352720612,,,,,,
6,10,-0.7724897265434266,-0.019711121916770935,9.79195785522461,0.005562998354434967,-0.006023781839758159,0.000807657721452415,-0.4687360227108002,0.6940570473670961,-0.7433797121047974,-0.46334993729733204,5.441792939554746,0.1156413108868314,,,,,,
6,11,-0.7724897265434266,-0.019711121916770935,9.79195785522461,0.005562998354434967,-0.006023781839758159,0.000807657721452415,-0.4687360227108002,0.6940570473670961,-0.7433797121047974,-0.46334993729733204,5.441792939554746,0.1156413108868314,,,,,,
6,12,-0.7724897265434266,-0.019711121916770935,9.79195785522461,0.005562998354434967,-0.006023781839758159,0.000807657721452415,-0.4687360227108002,0.6940570473670961,-0.7433797121047974,-0.46334993729733204,5.441792939554746,0.1156413108868314,,,,,,
6,13,-0.746436357498169,-0.043469659984111786,9.794965744018555,0.005750729236751796,-0.006609791424125434,0.0054776594042778015,-0.4691725075244904,0.6921009421348573,-0.7429161071777344,-0.4552042278570858,5.4283295037886115,0.1200336282831071,,,,,,
6,14,-0.716271460056305,-0.04144861176609994,9.79646968841553,0.006689831148833037,-0.005416602827608585,0.003897422458976507,-0.4710314869880676,0.6911053657531738,-0.7409093976020814,-0.438378211638745,5.402806927667538,0.12538105171649386,,,,,,
6,15,-0.716271460056305,-0.04144861176609994,9.79646968841553,0.006689831148833037,-0.005416602827608585,0.003897422458976507,-0.4710314869880676,0.6911053657531738,-0.7409093976020814,-0.438378211638745,5.402806927667538,0.12538105171649386,,,,,,
6,16,-0.6919960379600526,-0.026903426274657253,9.776413917541506,0.009812800213694572,-0.0060133286751806745,0.004176437854766846,-0.46764326095581055,0.6905806064605713,-0.7404316663742065,-0.428132557819082,5.389682820166819,0.12895692171290465,,,,,,
6,17,-0.7193605303764344,-0.027493817731738094,9.764719963073732,0.0067796651273965836,-0.0029358980245888233,0.0015921626472845676,-0.4681732654571533,0.6920658946037294,-0.7414063811302186,-0.41980717729064976,5.378288474907691,0.13101376816850485,,,,,,
6,18,-0.7482755780220033,-0.03034264408051968,9.782511711120607,0.005935851484537125,-0.002006089081987739,0.0018645545933395624,-0.47206729650497437,0.6926127076148988,-0.7428913712501527,-0.39327668950828165,5.346616924439733,0.139504744520829,,,,,,
6,19,-0.7482755780220033,-0.03034264408051968,9.782511711120607,0.005935851484537125,-0.002006089081987739,0.0018645545933395624,-0.47206729650497437,0.6926127076148988,-0.7428913712501527,-0.39327668950828165,5.346616924439733,0.139504744520829,,,,,,
6,20,-0.7482755780220033,-0.03034264408051968,9.782511711120607,0.005935851484537125,-0.002006089081987739,0.0018645545933395624,-0.47206729650497437,0.6926127076148988,-0.7428913712501527,-0.39327668950828165,5.346616924439733,0.139504744520829,,,,,,
6,21,-0.7681856751441957,-0.0379786491394043,9.783610343933107,0.009391846135258675,-0.003261059522628784,0.003189223119989038,-0.47105616331100464,0.6911234259605409,-0.7419190406799316,-0.38355449124821667,5.335146947866493,0.1424124304699683,,,,,,
6,22,-0.7894967794418335,0.0010622305562719705,9.792236328125,0.00695920642465353,-0.002100737532600761,3.125182774965652e-05,-0.46966502070426946,0.6950044631958008,-0.7413341999053955,-0.36554819317616877,5.314658314767707,0.14624352527397785,,,,,,
6,23,-0.7593448162078857,-0.0368352122604847,9.783222198486328,0.007024771068245173,-0.0030126674100756645,0.0010703142033889892,-0.4682506322860718,0.6945317983627319,-0.742866337299347,-0.35740829248578093,5.303523955390747,0.14789663291699248,,,,,,
6,24,-0.7424854040145874,-0.046748261898756034,9.784728050231935,0.0077814143151044846,-0.004430843051522971,0.002006391528993845,-0.4705755114555359,0.6896741390228271,-0.7429636120796205,-0.3413211557461455,5.279981833198237,0.15266360914118607,,,,,,
7,0,-0.7544752955436708,-0.016038386151194576,9.77149772644043,0.005096198525279761,-0.0031534582376480103,0.0013023546198382976,-0.47052952647209173,0.6920498609542847,-0.7393755912780762,-0.5383706141547336,5.536899595149818,0.0915137415057001,,,,,,
7,1,-0.7544752955436708,-0.016038386151194576,9.77149772644043,0.005096198525279761,-0.0031534582376480103,0.0013023546198382976,-0.47052952647209173,0.6920498609542847,-0.7393755912780762,-0.5383706141547336,5.536899595149818,0.0915137415057001,,,,,,
7,2,-0.7544752955436708,-0.016038386151194576,9.77149772644043,0.005096198525279761,-0.0031534582376480103,0.0013023546198382976,-0.47052952647209173,0.6920498609542847,-0.7393755912780762,-0.5383706141547336,5.536899595149818,0.0915137415057001,,,,,,
7,3,-0.7544752955436708,-0.016038386151194576,9.77149772644043,0.005096198525279761,-0.0031534582376480103,0.0013023546198382976,-0.47052952647209173,0.6920498609542847,-0.7393755912780762,-0.5383706141547336,5.536899595149818,0.0915137415057001,,,,,,
7,4,-0.7544752955436708,-0.016038386151194576,9.77149772644043,0.005096198525279761,-0.0031534582376480103,0.0013023546198382976,-0.47052952647209173,0.6920498609542847,-0.7393755912780762,-0.5383706141547336,5.536899595149818,0.0915137415057001,,,,,,
7,5,-0.7599065899848939,-0.02144100330770016,9.774533271789553,0.00628419453278184,-0.002551063895225525,0.001844058162532747,-0.4682549238204956,0.694053053855896,-0.7433820366859437,-0.5213515373083091,5.514993935819845,0.09758615959456977,,,,,,
7,6,-0.7599065899848939,-0.02144100330770016,9.774533271789553,0.00628419453278184,-0.002551063895225525,0.001844058162532747,-0.4682549238204956,0.694053053855896,-0.7433820366859437,-0.5213515373083091,5.514993935819845,0.09758615959456977,,,,,,
7,7,-0.7516857981681825,-0.041685637086629874,9.793989181518555,0.009340775199234487,-0.004688684828579426,0.0005785237299278378,-0.4715861678123474,0.6926087141036987,-0.7428936958312988,-0.5112483386748015,5.502592920218846,0.09922231320732952,,,,,,
7,8,-0.7323377132415771,-0.05757877230644226,9.790991783142092,0.007762018125504256,-0.0009753125486895442,0.0051375371403992185,-0.47245824337005615,0.6915871500968934,-0.7398820519447328,-0.5018410140538765,5.492340173265473,0.10344630976152934,,,,,,
7,9,-0.7364663481712342,-0.032674979418516166,9.776671409606935,0.011644884943962097,-0.006076328456401825,0.003388504730537534,-0.4729597568511963,0.6920878887176514,-0.7403736114501953,-0.4903598580940982,5.479138798467534,0.1066649352720612,,,,,,
7,10,-0.7724897265434266,-0.019711121916770935,9.79195785522461,0.005562998354434967,-0.006023781839758159,0.000807657721452415,-0.4687360227108002,0.6940570473670961,-0.7433797121047974,-0.46334993729733204,5.441792939554746,0.1156413108868314,,,,,,
7,11,-0.7724897265434266,-0.019711121916770935,9.79195785522461,0.005562998354434967,-0.006023781839758159,0.000807657721452415,-0.4687360227108002,0.6940570473670961,-0.7433797121047974,-0.46334993729733204,5.441792939554746,0.1156413108868314,,,,,,
7,12,-0.7724897265434266,-0.019711121916770935,9.79195785522461,0.005562998354434967,-0.006023781839758159,0.000807657721452415,-0.4687360227108002,0.6940570473670961,-0.7433797121047974,-0.46334993729733204,5.441792939554746,0.1156413108868314,,,,,,
7,13,-0.746436357498169,-0.043469659984111786,9.794965744018555,0.005750729236751796,-0.006609791424125434,0.0054776594042778015,-0.4691725075244904,0.6921009421348573,-0.7429161071777344,-0.4552042278570858,5.4283295037886115,0.1200336282831071,,,,,,
7,14,-0.716271460056305,-0.04144861176609994,9.79646968841553,0.006689831148833037,-0.005416602827608585,0.003897422458976507,-0.4710314869880676,0.6911053657531738,-0.7409093976020814,-0.438378211638745,5.402806927667538,0.12538105171649386,,,,,,
7,15,-0.716271460056305,-0.04144861176609994,9.79646968841553,0.006689831148833037,-0.005416602827608585,0.003897422458976507,-0.4710314869880676,0.6911053657531738,-0.7409093976020814,-0.438378211638745,5.402806927667538,0.12538105171649386,,,,,,
7,16,-0.6919960379600526,-0.026903426274657253,9.776413917541506,0.009812800213694572,-0.0060133286751806745,0.004176437854766846,-0.46764326095581055,0.6905806064605713,-0.7404316663742065,-0.428132557819082,5.389682820166819,0.12895692171290465,,,,,,
7,17,-0.7193605303764344,-0.027493817731738094,9.764719963073732,0.0067796651273965836,-0.0029358980245888233,0.0015921626472845676,-0.4681732654571533,0.6920658946037294,-0.7414063811302186,-0.41980717729064976,5.378288474907691,0.13101376816850485,,,,,,
7,18,-0.7482755780220033,-0.03034264408051968,9.782511711120607,0.005935851484537125,-0.002006089081987739,0.0018645545933395624,-0.47206729650497437,0.6926127076148988,-0.7428913712501527,-0.39327668950828165,5.346616924439733,0.139504744520829,,,,,,
7,19,-0.7482755780220033,-0.03034264408051968,9.782511711120607,0.005935851484537125,-0.002006089081987739,0.0018645545933395624,-0.47206729650497437,0.6926127076148988,-0.7428913712501527,-0.39327668950828165,5.346616924439733,0.139504744520829,,,,,,
7,20,-0.7482755780220033,-0.03034264408051968,9.782511711120607,0.005935851484537125,-0.002006089081987739,0.0018645545933395624,-0.47206729650497437,0.6926127076148988,-0.7428913712501527,-0.39327668950828165,5.346616924439733,0.139504744520829,,,,,,
7,21,-0.7681856751441957,-0.0379786491394043,9.783610343933107,0.009391846135258675,-0.003261059522628784,0.003189223119989038,-0.47105616331100464,0.6911234259605409,-0.7419190406799316,-0.38355449124821667,5.335146947866493,0.1424124304699683,,,,,,
7,22,-0.7894967794418335,0.0010622305562719705,9.792236328125,0.00695920642465353,-0.002100737532600761,3.125182774965652e-05,-0.46966502070426946,0.6950044631958008,-0.7413341999053955,-0.36554819317616877,5.314658314767707,0.14624352527397785,,,,,,
7,23,-0.7593448162078857,-0.0368352122604847,9.783222198486328,0.007024771068245173,-0.0030126674100756645,0.0010703142033889892,-0.4682506322860718,0.6945317983627319,-0.742866337299347,-0.35740829248578093,5.303523955390747,0.14789663291699248,,,,,,
7,24,-0.7424854040145874,-0.046748261898756034,9.784728050231935,0.0077814143151044846,-0.004430843051522971,0.002006391528993845,-0.4705755114555359,0.6896741390228271,-0.7429636120796205,-0.3413211557461455,5.279981833198237,0.15266360914118607,,,,,,
8,0,-0.7544752955436708,-0.016038386151194576,9.77149772644043,0.005096198525279761,-0.0031534582376480103,0.0013023546198382976,-0.47052952647209173,0.6920498609542847,-0.7393755912780762,-0.5383706141547336,5.536899595149818,0.0915137415057001,,,,,,
8,1,-0.7544752955436708,-0.016038386151194576,9.77149772644043,0.005096198525279761,-0.0031534582376480103,0.0013023546198382976,-0.47052952647209173,0.6920498609542847,-0.7393755912780762,-0.5383706141547336,5.536899595149818,0.0915137415057001,,,,,,
8,2,-0.7544752955436708,-0.016038386151194576,9.77149772644043,0.005096198525279761,-0.0031534582376480103,0.0013023546198382976,-0.47052952647209173,0.6920498609542847,-0.7393755912780762,-0.5383706141547336,5.536899595149818,0.0915137415057001,,,,,,
8,3,-0.7544752955436708,-0.016038386151194576,9.77149772644043,0.005096198525279761,-0.0031534582376480103,0.0013023546198382976,-0.47052952647209173,0.6920498609542847,-0.7393755912780762,-0.5383706141547336,5.536899595149818,0.0915137415057001,,,,,,
8,4,-0.7544752955436708,-0.016038386151194576,9.77149772644043,0.005096198525279761,-0.0031534582376480103,0.0013023546198382976,-0.47052952647209173,0.6920498609542847,-0.7393755912780762,-0.5383706141547336,5.536899595149818,0.0915137415057001,,,,,,
8,5,-0.7599065899848939,-0.02144100330770016,9.774533271789553,0.00628419453278184,-0.002551063895225525,0.001844058162532747,-0.4682549238204956,0.694053053855896,-0.7433820366859437,-0.5213515373083091,5.514993935819845,0.09758615959456977,,,,,,
8,6,-0.7599065899848939,-0.02144100330770016,9.774533271789553,0.00628419453278184,-0.002551063895225525,0.001844058162532747,-0.4682549238204956,0.694053053855896,-0.7433820366859437,-0.5213515373083091,5.514993935819845,0.09758615959456977,,,,,,
8,7,-0.7516857981681825,-0.041685637086629874,9.793989181518555,0.009340775199234487,-0.004688684828579426,0.0005785237299278378,-0.4715861678123474,0.6926087141036987,-0.7428936958312988,-0.5112483386748015,5.502592920218846,0.09922231320732952,,,,,,
8,8,-0.7323377132415771,-0.05757877230644226,9.790991783142092,0.007762018125504256,-0.0009753125486895442,0.0051375371403992185,-0.47245824337005615,0.6915871500968934,-0.7398820519447328,-0.5018410140538765,5.492340173265473,0.10344630976152934,,,,,,
8,9,-0.7364663481712342,-0.032674979418516166,9.776671409606935,0.011644884943962097,-0.006076328456401825,0.003388504730537534,-0.4729597568511963,0.6920878887176514,-0.7403736114501953,-0.4903598580940982,5.479138798467534,0.1066649352720612,,,,,,
8,10,-0.7724897265434266,-0.019711121916770935,9.79195785522461,0.005562998354434967,-0.006023781839758159,0.000807657721452415,-0.4687360227108002,0.6940570473670961,-0.7433797121047974,-0.46334993729733204,5.441792939554746,0.1156413108868314,,,,,,
8,11,-0.7724897265434266,-0.019711121916770935,9.79195785522461,0.005562998354434967,-0.006023781839758159,0.000807657721452415,-0.4687360227108002,0.6940570473670961,-0.7433797121047974,-0.46334993729733204,5.441792939554746,0.1156413108868314,,,,,,
8,12,-0.7724897265434266,-0.019711121916770935,9.79195785522461,0.005562998354434967,-0.006023781839758159,0.000807657721452415,-0.4687360227108002,0.6940570473670961,-0.7433797121047974,-0.46334993729733204,5.441792939554746,0.1156413108868314,,,,,,
8,13,-0.746436357498169,-0.043469659984111786,9.794965744018555,0.005750729236751796,-0.006609791424125434,0.0054776594042778015,-0.4691725075244904,0.6921009421348573,-0.7429161071777344,-0.4552042278570858,5.4283295037886115,0.1200336282831071,,,,,,
8,14,-0.716271460056305,-0.04144861176609994,9.79646968841553,0.006689831148833037,-0.005416602827608585,0.003897422458976507,-0.4710314869880676,0.6911053657531738,-0.7409093976020814,-0.438378211638745,5.402806927667538,0.12538105171649386,,,,,,
8,15,-0.716271460056305,-0.04144861176609994,9.79646968841553,0.006689831148833037,-0.005416602827608585,0.003897422458976507,-0.4710314869880676,0.6911053657531738,-0.7409093976020814,-0.438378211638745,5.402806927667538,0.12538105171649386,,,,,,
8,16,-0.6919960379600526,-0.026903426274657253,9.776413917541506,0.009812800213694572,-0.0060133286751806745,0.004176437854766846,-0.46764326095581055,0.6905806064605713,-0.7404316663742065,-0.428132557819082,5.389682820166819,0.12895692171290465,,,,,,
8,17,-0.7193605303764344,-0.027493817731738094,9.764719963073732,0.0067796651273965836,-0.0029358980245888233,0.0015921626472845676,-0.4681732654571533,0.6920658946037294,-0.7414063811302186,-0.41980717729064976,5.378288474907691,0.13101376816850485,,,,,,
8,18,-0.7482755780220033,-0.03034264408051968,9.782511711120607,0.005935851484537125,-0.002006089081987739,0.0018645545933395624,-0.47206729650497437,0.6926127076148988,-0.7428913712501527,-0.39327668950828165,5.346616924439733,0.139504744520829,,,,,,
8,19,-0.7482755780220033,-0.03034264408051968,9.782511711120607,0.005935851484537125,-0.002006089081987739,0.0018645545933395624,-0.47206729650497437,0.6926127076148988,-0.7428913712501527,-0.39327668950828165,5.346616924439733,0.139504744520829,,,,,,
8,20,-0.7482755780220033,-0.03034264408051968,9.782511711120607,0.005935851484537125,-0.002006089081987739,0.0018645545933395624,-0.47206729650497437,0.6926127076148988,-0.7428913712501527,-0.39327668950828165,5.346616924439733,0.139504744520829,,,,,,
8,21,-0.7681856751441957,-0.0379786491394043,9.783610343933107,0.009391846135258675,-0.003261059522628784,0.003189223119989038,-0.47105616331100464,0.6911234259605409,-0.7419190406799316,-0.38355449124821667,5.335146947866493,0.1424124304699683,,,,,,
8,22,-0.7894967794418335,0.0010622305562719705,9.792236328125,0.00695920642465353,-0.002100737532600761,3.125182774965652e-05,-0.46966502070426946,0.6950044631958008,-0.7413341999053955,-0.36554819317616877,5.314658314767707,0.14624352527397785,,,,,,
8,23,-0.7593448162078857,-0.0368352122604847,9.783222198486328,0.007024771068245173,-0.0030126674100756645,0.0010703142033889892,-0.4682506322860718,0.6945317983627319,-0.742866337299347,-0.35740829248578093,5.303523955390747,0.14789663291699248,,,,,,
8,24,-0.7424854040145874,-0.046748261898756034,9.784728050231935,0.0077814143151044846,-0.004430843051522971,0.002006391528993845,-0.4705755114555359,0.6896741390228271,-0.7429636120796205,-0.3413211557461455,5.279981833198237,0.15266360914118607,,,,,,
9,0,-0.7544752955436708,-0.016038386151194576,9.77149772644043,0.005096198525279761,-0.0031534582376480103,0.0013023546198382976,-0.47052952647209173,0.6920498609542847,-0.7393755912780762,-0.5383706141547336,5.536899595149818,0.0915137415057001,,,,,,
9,1,-0.7544752955436708,-0.016038386151194576,9.77149772644043,0.005096198525279761,-0.0031534582376480103,0.0013023546198382976,-0.47052952647209173,0.6920498609542847,-0.7393755912780762,-0.5383706141547336,5.536899595149818,0.0915137415057001,,,,,,
9,2,-0.7544752955436708,-0.016038386151194576,9.77149772644043,0.005096198525279761,-0.0031534582376480103,0.0013023546198382976,-0.47052952647209173,0.6920498609542847,-0.7393755912780762,-0.5383706141547336,5.536899595149818,0.0915137415057001,,,,,,
9,3,-0.7544752955436708,-0.016038386151194576,9.77149772644043,0.005096198525279761,-0.0031534582376480103,0.0013023546198382976,-0.47052952647209173,0.6920498609542847,-0.7393755912780762,-0.5383706141547336,5.536899595149818,0.0915137415057001,,,,,,
9,4,-0.7544752955436708,-0.016038386151194576,9.77149772644043,0.005096198525279761,-0.0031534582376480103,0.0013023546198382976,-0.47052952647209173,0.6920498609542847,-0.7393755912780762,-0.5383706141547336,5.536899595149818,0.0915137415057001,,,,,,
9,5,-0.7599065899848939,-0.02144100330770016,9.774533271789553,0.00628419453278184,-0.002551063895225525,0.001844058162532747,-0.4682549238204956,0.694053053855896,-0.7433820366859437,-0.5213515373083091,5.514993935819845,0.09758615959456977,,,,,,
9,6,-0.7599065899848939,-0.02144100330770016,9.774533271789553,0.00628419453278184,-0.002551063895225525,0.001844058162532747,-0.4682549238204956,0.694053053855896,-0.7433820366859437,-0.5213515373083091,5.514993935819845,0.09758615959456977,,,,,,
9,7,-0.7516857981681825,-0.041685637086629874,9.793989181518555,0.009340775199234487,-0.004688684828579426,0.0005785237299278378,-0.4715861678123474,0.6926087141036987,-0.7428936958312988,-0.5112483386748015,5.502592920218846,0.09922231320732952,,,,,,
9,8,-0.7323377132415771,-0.05757877230644226,9.790991783142092,0.007762018125504256,-0.0009753125486895442,0.0051375371403992185,-0.47245824337005615,0.6915871500968934,-0.7398820519447328,-0.5018410140538765,5.492340173265473,0.10344630976152934,,,,,,
9,9,-0.7364663481712342,-0.032674979418516166,9.776671409606935,0.011644884943962097,-0.006076328456401825,0.003388504730537534,-0.4729597568511963,0.6920878887176514,-0.7403736114501953,-0.4903598580940982,5.479138798467534,0.1066649352720612,,,,,,
9,10,-0.7724897265434266,-0.019711121916770935,9.79195785522461,0.005562998354434967,-0.006023781839758159,0.000807657721452415,-0.4687360227108002,0.6940570473670961,-0.7433797121047974,-0.46334993729733204,5.441792939554746,0.1156413108868314,,,,,,
9,11,-0.7724897265434266,-0.019711121916770935,9.79195785522461,0.005562998354434967,-0.006023781839758159,0.000807657721452415,-0.4687360227108002,0.6940570473670961,-0.7433797121047974,-0.46334993729733204,5.441792939554746,0.1156413108868314,,,,,,
9,12,-0.7724897265434266,-0.019711121916770935,9.79195785522461,0.005562998354434967,-0.006023781839758159,0.000807657721452415,-0.4687360227108002,0.6940570473670961,-0.7433797121047974,-0.46334993729733204,5.441792939554746,0.1156413108868314,,,,,,
9,13,-0.746436357498169,-0.043469659984111786,9.794965744018555,0.005750729236751796,-0.006609791424125434,0.0054776594042778015,-0.4691725075244904,0.6921009421348573,-0.7429161071777344,-0.4552042278570858,5.4283295037886115,0.1200336282831071,,,,,,
9,14,-0.716271460056305,-0.04144861176609994,9.79646968841553,0.006689831148833037,-0.005416602827608585,0.003897422458976507,-0.4710314869880676,0.6911053657531738,-0.7409093976020814,-0.438378211638745,5.402806927667538,0.12538105171649386,,,,,,
9,15,-0.716271460056305,-0.04144861176609994,9.79646968841553,0.006689831148833037,-0.005416602827608585,0.003897422458976507,-0.4710314869880676,0.6911053657531738,-0.7409093976020814,-0.438378211638745,5.402806927667538,0.12538105171649386,,,,,,
9,16,-0.6919960379600526,-0.026903426274657253,9.776413917541506,0.009812800213694572,-0.0060133286751806745,0.004176437854766846,-0.46764326095581055,0.6905806064605713,-0.7404316663742065,-0.428132557819082,5.389682820166819,0.12895692171290465,,,,,,
9,17,-0.7193605303764344,-0.027493817731738094,9.764719963073732,0.0067796651273965836,-0.0029358980245888233,0.0015921626472845676,-0.4681732654571533,0.6920658946037294,-0.7414063811302186,-0.41980717729064976,5.378288474907691,0.13101376816850485,,,,,,
9,18,-0.7482755780220033,-0.03034264408051968,9.782511711120607,0.005935851484537125,-0.002006089081987739,0.0018645545933395624,-0.47206729650497437,0.6926127076148988,-0.7428913712501527,-0.39327668950828165,5.346616924439733,0.139504744520829,,,,,,
9,19,-0.7482755780220033,-0.03034264408051968,9.782511711120607,0.005935851484537125,-0.002006089081987739,0.0018645545933395624,-0.47206729650497437,0.6926127076148988,-0.7428913712501527,-0.39327668950828165,5.346616924439733,0.139504744520829,,,,,,
9,20,-0.7482755780220033,-0.03034264408051968,9.782511711120607,0.005935851484537125,-0.002006089081987739,0.0018645545933395624,-0.47206729650497437,0.6926127076148988,-0.7428913712501527,-0.39327668950828165,5.346616924439733,0.139504744520829,,,,,,
9,21,-0.7681856751441957,-0.0379786491394043,9.783610343933107,0.009391846135258675,-0.003261059522628784,0.003189223119989038,-0.47105616331100464,0.6911234259605409,-0.7419190406799316,-0.38355449124821667,5.335146947866493,0.1424124304699683,,,,,,
9,22,-0.7894967794418335,0.0010622305562719705,9.792236328125,0.00695920642465353,-0.002100737532600761,3.125182774965652e-05,-0.46966502070426946,0.6950044631958008,-0.7413341999053955,-0.36554819317616877,5.314658314767707,0.14624352527397785,,,,,,
9,23,-0.7593448162078857,-0.0368352122604847,9.783222198486328,0.007024771068245173,-0.0030126674100756645,0.0010703142033889892,-0.4682506322860718,0.6945317983627319,-0.742866337299347,-0.35740829248578093,5.303523955390747,0.14789663291699248,,,,,,
9,24,-0.7424854040145874,-0.046748261898756034,9.784728050231935,0.0077814143151044846,-0.004430843051522971,0.002006391528993845,-0.4705755114555359,0.6896741390228271,-0.7429636120796205,-0.3413211557461455,5.279981833198237,0.15266360914118607,,,,,,
10,0,-0.7544752955436708,-0.016038386151194576,9.77149772644043,0.005096198525279761,-0.0031534582376480103,0.0013023546198382976,-0.47052952647209173,0.6920498609542847,-0.7393755912780762,-0.5383706141547336,5.536899595149818,0.0915137415057001,,,,,,
10,1,-0.7544752955436708,-0.016038386151194576,9.77149772644043,0.005096198525279761,-0.0031534582376480103,0.0013023546198382976,-0.47052952647209173,0.6920498609542847,-0.7393755912780762,-0.5383706141547336,5.536899595149818,0.0915137415057001,,,,,,
10,2,-0.7544752955436708,-0.016038386151194576,9.77149772644043,0.005096198525279761,-0.0031534582376480103,0.0013023546198382976,-0.47052952647209173,0.6920498609542847,-0.7393755912780762,-0.5383706141547336,5.536899595149818,0.0915137415057001,,,,,,
10,3,-0.7544752955436708,-0.016038386151194576,9.77149772644043,0.005096198525279761,-0.0031534582376480103,0.0013023546198382976,-0.47052952647209173,0.6920498609542847,-0.7393755912780762,-0.5383706141547336,5.536899595149818,0.0915137415057001,,,,,,
10,4,-0.7544752955436708,-0.016038386151194576,9.77149772644043,0.005096198525279761,-0.0031534582376480103,0.0013023546198382976,-0.47052952647209173,0.6920498609542847,-0.7393755912780762,-0.5383706141547336,5.536899595149818,0.0915137415057001,,,,,,
10,5,-0.7599065899848939,-0.02144100330770016,9.774533271789553,0.00628419453278184,-0.002551063895225525,0.001844058162532747,-0.4682549238204956,0.694053053855896,-0.7433820366859437,-0.5213515373083091,5.514993935819845,0.09758615959456977,,,,,,
10,6,-0.7599065899848939,-0.02144100330770016,9.774533271789553,0.00628419453278184,-0.002551063895225525,0.001844058162532747,-0.4682549238204956,0.694053053855896,-0.7433820366859437,-0.5213515373083091,5.514993935819845,0.09758615959456977,,,,,,
10,7,-0.7516857981681825,-0.041685637086629874,9.793989181518555,0.009340775199234487,-0.004688684828579426,0.0005785237299278378,-0.4715861678123474,0.6926087141036987,-0.7428936958312988,-0.5112483386748015,5.502592920218846,0.09922231320732952,,,,,,
10,8,-0.7323377132415771,-0.05757877230644226,9.790991783142092,0.007762018125504256,-0.0009753125486895442,0.0051375371403992185,-0.47245824337005615,0.6915871500968934,-0.7398820519447328,-0.5018410140538765,5.492340173265473,0.10344630976152934,,,,,,
10,9,-0.7364663481712342,-0.032674979418516166,9.776671409606935,0.011644884943962097,-0.006076328456401825,0.003388504730537534,-0.4729597568511963,0.6920878887176514,-0.7403736114501953,-0.4903598580940982,5.479138798467534,0.1066649352720612,,,,,,
10,10,-0.7724897265434266,-0.019711121916770935,9.79195785522461,0.005562998354434967,-0.006023781839758159,0.000807657721452415,-0.4687360227108002,0.6940570473670961,-0.7433797121047974,-0.46334993729733204,5.441792939554746,0.1156413108868314,,,,,,
10,11,-0.7724897265434266,-0.019711121916770935,9.79195785522461,0.005562998354434967,-0.006023781839758159,0.000807657721452415,-0.4687360227108002,0.6940570473670961,-0.7433797121047974,-0.46334993729733204,5.441792939554746,0.1156413108868314,,,,,,
10,12,-0.7724897265434266,-0.019711121916770935,9.79195785522461,0.005562998354434967,-0.006023781839758159,0.000807657721452415,-0.4687360227108002,0.6940570473670961,-0.7433797121047974,-0.46334993729733204,5.441792939554746,0.1156413108868314,,,,,,
10,13,-0.746436357498169,-0.043469659984111786,9.794965744018555,0.005750729236751796,-0.006609791424125434,0.0054776594042778015,-0.4691725075244904,0.6921009421348573,-0.7429161071777344,-0.4552042278570858,5.4283295037886115,0.1200336282831071,,,,,,
10,14,-0.716271460056305,-0.04144861176609994,9.79646968841553,0.006689831148833037,-0.005416602827608585,0.003897422458976507,-0.4710314869880676,0.6911053657531738,-0.7409093976020814,-0.438378211638745,5.402806927667538,0.12538105171649386,,,,,,
10,15,-0.716271460056305,-0.04144861176609994,9.79646968841553,0.006689831148833037,-0.005416602827608585,0.003897422458976507,-0.4710314869880676,0.6911053657531738,-0.7409093976020814,-0.438378211638745,5.402806927667538,0.12538105171649386,,,,,,
10,16,-0.6919960379600526,-0.026903426274657253,9.776413917541506,0.009812800213694572,-0.0060133286751806745,0.004176437854766846,-0.46764326095581055,0.6905806064605713,-0.7404316663742065,-0.428132557819082,5.389682820166819,0.12895692171290465,,,,,,
10,17,-0.7193605303764344,-0.027493817731738094,9.764719963073732,0.0067796651273965836,-0.0029358980245888233,0.0015921626472845676,-0.4681732654571533,0.6920658946037294,-0.7414063811302186,-0.41980717729064976,5.378288474907691,0.13101376816850485,,,,,,
10,18,-0.7482755780220033,-0.03034264408051968,9.782511711120607,0.005935851484537125,-0.002006089081987739,0.0018645545933395624,-0.47206729650497437,0.6926127076148988,-0.7428913712501527,-0.39327668950828165,5.346616924439733,0.139504744520829,,,,,,
10,19,-0.7482755780220033,-0.03034264408051968,9.782511711120607,0.005935851484537125,-0.002006089081987739,0.0018645545933395624,-0.47206729650497437,0.6926127076148988,-0.7428913712501527,-0.39327668950828165,5.346616924439733,0.139504744520829,,,,,,
10,20,-0.7482755780220033,-0.03034264408051968,9.782511711120607,0.005935851484537125,-0.002006089081987739,0.0018645545933395624,-0.47206729650497437,0.6926127076148988,-0.7428913712501527,-0.39327668950828165,5.346616924439733,0.139504744520829,,,,,,
10,21,-0.7681856751441957,-0.0379786491394043,9.783610343933107,0.009391846135258675,-0.003261059522628784,0.003189223119989038,-0.47105616331100464,0.6911234259605409,-0.7419190406799316,-0.38355449124821667,5.335146947866493,0.1424124304699683,,,,,,
10,22,-0.7894967794418335,0.0010622305562719705,9.792236328125,0.00695920642465353,-0.002100737532600761,3.125182774965652e-05,-0.46966502070426946,0.6950044631958008,-0.7413341999053955,-0.36554819317616877,5.314658314767707,0.14624352527397785,,,,,,
10,23,-0.7593448162078857,-0.0368352122604847,9.783222198486328,0.007024771068245173,-0.0030126674100756645,0.0010703142033889892,-0.4682506322860718,0.6945317983627319,-0.742866337299347,-0.35740829248578093,5.303523955390747,0.14789663291699248,,,,,,
10,24,-0.7424854040145874,-0.046748261898756034,9.784728050231935,0.0077814143151044846,-0.004430843051522971,0.002006391528993845,-0.4705755114555359,0.6896741390228271,-0.7429636120796205,-0.3413211557461455,5.279981833198237,0.15266360914118607,,,,,,
11,0,-0.7544752955436708,-0.016038386151194576,9.77149772644043,0.005096198525279761,-0.0031534582376480103,0.0013023546198382976,-0.47052952647209173,0.6920498609542847,-0.7393755912780762,-0.5383706141547336,5.536899595149818,0.0915137415057001,,,,,,
11,1,-0.7544752955436708,-0.016038386151194576,9.77149772644043,0.005096198525279761,-0.0031534582376480103,0.0013023546198382976,-0.47052952647209173,0.6920498609542847,-0.7393755912780762,-0.5383706141547336,5.536899595149818,0.0915137415057001,,,,,,
11,2,-0.7544752955436708,-0.016038386151194576,9.77149772644043,0.005096198525279761,-0.0031534582376480103,0.0013023546198382976,-0.47052952647209173,0.6920498609542847,-0.7393755912780762,-0.5383706141547336,5.536899595149818,0.0915137415057001,,,,,,
11,3,-0.7544752955436708,-0.016038386151194576,9.77149772644043,0.005096198525279761,-0.0031534582376480103,0.0013023546198382976,-0.47052952647209173,0.6920498609542847,-0.7393755912780762,-0.5383706141547336,5.536899595149818,0.0915137415057001,,,,,,
11,4,-0.7544752955436708,-0.016038386151194576,9.77149772644043,0.005096198525279761,-0.0031534582376480103,0.0013023546198382976,-0.47052952647209173,0.6920498609542847,-0.7393755912780762,-0.5383706141547336,5.536899595149818,0.0915137415057001,,,,,,
11,5,-0.7599065899848939,-0.02144100330770016,9.774533271789553,0.00628419453278184,-0.002551063895225525,0.001844058162532747,-0.4682549238204956,0.694053053855896,-0.7433820366859437,-0.5213515373083091,5.514993935819845,0.09758615959456977,,,,,,
11,6,-0.7599065899848939,-0.02144100330770016,9.774533271789553,0.00628419453278184,-0.002551063895225525,0.001844058162532747,-0.4682549238204956,0.694053053855896,-0.7433820366859437,-0.5213515373083091,5.514993935819845,0.09758615959456977,,,,,,
11,7,-0.7516857981681825,-0.041685637086629874,9.793989181518555,0.009340775199234487,-0.004688684828579426,0.0005785237299278378,-0.4715861678123474,0.6926087141036987,-0.7428936958312988,-0.5112483386748015,5.502592920218846,0.09922231320732952,,,,,,
11,8,-0.7323377132415771,-0.05757877230644226,9.790991783142092,0.007762018125504256,-0.0009753125486895442,0.0051375371403992185,-0.47245824337005615,0.6915871500968934,-0.7398820519447328,-0.5018410140538765,5.492340173265473,0.10344630976152934,,,,,,
11,9,-0.7364663481712342,-0.032674979418516166,9.776671409606935,0.011644884943962097,-0.006076328456401825,0.003388504730537534,-0.4729597568511963,0.6920878887176514,-0.7403736114501953,-0.4903598580940982,5.479138798467534,0.1066649352720612,,,,,,
11,10,-0.7724897265434266,-0.019711121916770935,9.79195785522461,0.005562998354434967,-0.006023781839758159,0.000807657721452415,-0.4687360227108002,0.6940570473670961,-0.7433797121047974,-0.46334993729733204,5.441792939554746,0.1156413108868314,,,,,,
11,11,-0.7724897265434266,-0.019711121916770935,9.79195785522461,0.005562998354434967,-0.006023781839758159,0.000807657721452415,-0.4687360227108002,0.6940570473670961,-0.7433797121047974,-0.46334993729733204,5.441792939554746,0.1156413108868314,,,,,,
11,12,-0.7724897265434266,-0.019711121916770935,9.79195785522461,0.005562998354434967,-0.006023781839758159,0.000807657721452415,-0.4687360227108002,0.6940570473670961,-0.7433797121047974,-0.46334993729733204,5.441792939554746,0.1156413108868314,,,,,,
11,13,-0.746436357498169,-0.043469659984111786,9.794965744018555,0.005750729236751796,-0.006609791424125434,0.0054776594042778015,-0.4691725075244904,0.6921009421348573,-0.7429161071777344,-0.4552042278570858,5.4283295037886115,0.1200336282831071,,,,,,
11,14,-0.716271460056305,-0.04144861176609994,9.79646968841553,0.006689831148833037,-0.005416602827608585,0.003897422458976507,-0.4710314869880676,0.6911053657531738,-0.7409093976020814,-0.438378211638745,5.402806927667538,0.12538105171649386,,,,,,
11,15,-0.716271460056305,-0.04144861176609994,9.79646968841553,0.006689831148833037,-0.005416602827608585,0.003897422458976507,-0.4710314869880676,0.6911053657531738,-0.7409093976020814,-0.438378211638745,5.402806927667538,0.12538105171649386,,,,,,
11,16,-0.6919960379600526,-0.026903426274657253,9.776413917541506,0.009812800213694572,-0.0060133286751806745,0.004176437854766846,-0.46764326095581055,0.6905806064605713,-0.7404316663742065,-0.428132557819082,5.389682820166819,0.12895692171290465,,,,,,
11,17,-0.7193605303764344,-0.027493817731738094,9.764719963073732,0.0067796651273965836,-0.0029358980245888233,0.0015921626472845676,-0.4681732654571533,0.6920658946037294,-0.7414063811302186,-0.41980717729064976,5.378288474907691,0.13101376816850485,,,,,,
11,18,-0.7482755780220033,-0.03034264408051968,9.782511711120607,0.005935851484537125,-0.002006089081987739,0.0018645545933395624,-0.47206729650497437,0.6926127076148988,-0.7428913712501527,-0.39327668950828165,5.346616924439733,0.139504744520829,,,,,,
11,19,-0.7482755780220033,-0.03034264408051968,9.782511711120607,0.005935851484537125,-0.002006089081987739,0.0018645545933395624,-0.47206729650497437,0.6926127076148988,-0.7428913712501527,-0.39327668950828165,5.346616924439733,0.139504744520829,,,,,,
11,20,-0.7482755780220033,-0.03034264408051968,9.782511711120607,0.005935851484537125,-0.002006089081987739,0.0018645545933395624,-0.47206729650497437,0.6926127076148988,-0.7428913712501527,-0.39327668950828165,5.346616924439733,0.139504744520829,,,,,,
11,21,-0.7681856751441957,-0.0379786491394043,9.783610343933107,0.009391846135258675,-0.003261059522628784,0.003189223119989038,-0.47105616331100464,0.6911234259605409,-0.7419190406799316,-0.38355449124821667,5.335146947866493,0.1424124304699683,,,,,,
11,22,-0.7894967794418335,0.0010622305562719705,9.792236328125,0.00695920642465353,-0.002100737532600761,3.125182774965652e-05,-0.46966502070426946,0.6950044631958008,-0.7413341999053955,-0.36554819317616877,5.314658314767707,0.14624352527397785,,,,,,
11,23,-0.7593448162078857,-0.0368352122604847,9.783222198486328,0.007024771068245173,-0.0030126674100756645,0.0010703142033889892,-0.4682506322860718,0.6945317983627319,-0.742866337299347,-0.35740829248578093,5.303523955390747,0.14789663291699248,,,,,,
11,24,-0.7424854040145874,-0.046748261898756034,9.784728050231935,0.0077814143151044846,-0.004430843051522971,0.002006391528993845,-0.4705755114555359,0.6896741390228271,-0.7429636120796205,-0.3413211557461455,5.279981833198237,0.15266360914118607,,,,,,
12,0,-0.7544752955436708,-0.016038386151194576,9.77149772644043,0.005096198525279761,-0.0031534582376480103,0.0013023546198382976,-0.47052952647209173,0.6920498609542847,-0.7393755912780762,-0.5383706141547336,5.536899595149818,0.0915137415057001,,,,,,
12,1,-0.7544752955436708,-0.016038386151194576,9.77149772644043,0.005096198525279761,-0.0031534582376480103,0.0013023546198382976,-0.47052952647209173,0.6920498609542847,-0.7393755912780762,-0.5383706141547336,5.536899595149818,0.0915137415057001,,,,,,
12,2,-0.7544752955436708,-0.016038386151194576,9.77149772644043,0.005096198525279761,-0.0031534582376480103,0.0013023546198382976,-0.47052952647209173,0.6920498609542847,-0.7393755912780762,-0.5383706141547336,5.536899595149818,0.0915137415057001,,,,,,
12,3,-0.7544752955436708,-0.016038386151194576,9.77149772644043,0.005096198525279761,-0.0031534582376480103,0.0013023546198382976,-0.47052952647209173,0.6920498609542847,-0.7393755912780762,-0.5383706141547336,5.536899595149818,0.0915137415057001,,,,,,
12,4,-0.7544752955436708,-0.016038386151194576,9.77149772644043,0.005096198525279761,-0.0031534582376480103,0.0013023546198382976,-0.47052952647209173,0.6920498609542847,-0.7393755912780762,-0.5383706141547336,5.536899595149818,0.0915137415057001,,,,,,
12,5,-0.7599065899848939,-0.02144100330770016,9.774533271789553,0.00628419453278184,-0.002551063895225525,0.001844058162532747,-0.4682549238204956,0.694053053855896,-0.7433820366859437,-0.5213515373083091,5.514993935819845,0.09758615959456977,,,,,,
12,6,-0.7599065899848939,-0.02144100330770016,9.774533271789553,0.00628419453278184,-0.002551063895225525,0.001844058162532747,-0.4682549238204956,0.694053053855896,-0.7433820366859437,-0.5213515373083091,5.514993935819845,0.09758615959456977,,,,,,
12,7,-0.7516857981681825,-0.041685637086629874,9.793989181518555,0.009340775199234487,-0.004688684828579426,0.0005785237299278378,-0.4715861678123474,0.6926087141036987,-0.7428936958312988,-0.5112483386748015,5.502592920218846,0.09922231320732952,,,,,,
12,8,-0.7323377132415771,-0.05757877230644226,9.790991783142092,0.007762018125504256,-0.0009753125486895442,0.0051375371403992185,-0.47245824337005615,0.6915871500968934,-0.7398820519447328,-0.5018410140538765,5.492340173265473,0.10344630976152934,,,,,,
12,9,-0.7364663481712342,-0.032674979418516166,9.776671409606935,0.011644884943962097,-0.006076328456401825,0.003388504730537534,-0.4729597568511963,0.6920878887176514,-0.7403736114501953,-0.4903598580940982,5.479138798467534,0.1066649352720612,,,,,,
12,10,-0.7724897265434266,-0.019711121916770935,9.79195785522461,0.005562998354434967,-0.006023781839758159,0.000807657721452415,-0.4687360227108002,0.6940570473670961,-0.7433797121047974,-0.46334993729733204,5.441792939554746,0.1156413108868314,,,,,,
12,11,-0.7724897265434266,-0.019711121916770935,9.79195785522461,0.005562998354434967,-0.006023781839758159,0.000807657721452415,-0.4687360227108002,0.6940570473670961,-0.7433797121047974,-0.46334993729733204,5.441792939554746,0.1156413108868314,,,,,,
12,12,-0.7724897265434266,-0.019711121916770935,9.79195785522461,0.005562998354434967,-0.006023781839758159,0.000807657721452415,-0.4687360227108002,0.6940570473670961,-0.7433797121047974,-0.46334993729733204,5.441792939554746,0.1156413108868314,,,,,,
12,13,-0.746436357498169,-0.043469659984111786,9.794965744018555,0.005750729236751796,-0.006609791424125434,0.0054776594042778015,-0.4691725075244904,0.6921009421348573,-0.7429161071777344,-0.4552042278570858,5.4283295037886115,0.1200336282831071,,,,,,
12,14,-0.716271460056305,-0.04144861176609994,9.79646968841553,0.006689831148833037,-0.005416602827608585,0.003897422458976507,-0.4710314869880676,0.6911053657531738,-0.7409093976020814,-0.438378211638745,5.402806927667538,0.12538105171649386,,,,,,
12,15,-0.716271460056305,-0.04144861176609994,9.79646968841553,0.006689831148833037,-0.005416602827608585,0.003897422458976507,-0.4710314869880676,0.6911053657531738,-0.7409093976020814,-0.438378211638745,5.402806927667538,0.12538105171649386,,,,,,
12,16,-0.6919960379600526,-0.026903426274657253,9.776413917541506,0.009812800213694572,-0.0060133286751806745,0.004176437854766846,-0.46764326095581055,0.6905806064605713,-0.7404316663742065,-0.428132557819082,5.389682820166819,0.12895692171290465,,,,,,
12,17,-0.7193605303764344,-0.027493817731738094,9.764719963073732,0.0067796651273965836,-0.0029358980245888233,0.0015921626472845676,-0.4681732654571533,0.6920658946037294,-0.7414063811302186,-0.41980717729064976,5.378288474907691,0.13101376816850485,,,,,,
12,18,-0.7482755780220033,-0.03034264408051968,9.782511711120607,0.005935851484537125,-0.002006089081987739,0.0018645545933395624,-0.47206729650497437,0.6926127076148988,-0.7428913712501527,-0.39327668950828165,5.346616924439733,0.139504744520829,,,,,,
12,19,-0.7482755780220033,-0.03034264408051968,9.782511711120607,0.005935851484537125,-0.002006089081987739,0.0018645545933395624,-0.47206729650497437,0.6926127076148988,-0.7428913712501527,-0.39327668950828165,5.346616924439733,0.139504744520829,,,,,,
12,20,-0.7482755780220033,-0.03034264408051968,9.782511711120607,0.005935851484537125,-0.002006089081987739,0.0018645545933395624,-0.47206729650497437,0.6926127076148988,-0.7428913712501527,-0.39327668950828165,5.346616924439733,0.139504744520829,,,,,,
12,21,-0.7681856751441957,-0.0379786491394043,9.783610343933107,0.009391846135258675,-0.003261059522628784,0.003189223119989038,-0.47105616331100464,0.6911234259605409,-0.7419190406799316,-0.38355449124821667,5.335146947866493,0.1424124304699683,,,,,,
12,22,-0.7894967794418335,0.0010622305562719705,9.792236328125,0.00695920642465353,-0.002100737532600761,3.125182774965652e-05,-0.46966502070426946,0.6950044631958008,-0.7413341999053955,-0.36554819317616877,5.314658314767707,0.14624352527397785,,,,,,
12,23,-0.7593448162078857,-0.0368352122604847,9.783222198486328,0.007024771068245173,-0.0030126674100756645,0.0010703142033889892,-0.4682506322860718,0.6945317983627319,-0.742866337299347,-0.35740829248578093,5.303523955390747,0.14789663291699248,,,,,,
12,24,-0.7424854040145874,-0.046748261898756034,9.784728050231935,0.0077814143151044846,-0.004430843051522971,0.002006391528993845,-0.4705755114555359,0.6896741390228271,-0.7429636120796205,-0.3413211557461455,5.279981833198237,0.15266360914118607,,,,,,
13,0,-0.7544752955436708,-0.016038386151194576,9.77149772644043,0.005096198525279761,-0.0031534582376480103,0.0013023546198382976,-0.47052952647209173,0.6920498609542847,-0.7393755912780762,-0.5383706141547336,5.536899595149818,0.0915137415057001,,,,,,
13,1,-0.7544752955436708,-0.016038386151194576,9.77149772644043,0.005096198525279761,-0.0031534582376480103,0.0013023546198382976,-0.47052952647209173,0.6920498609542847,-0.7393755912780762,-0.5383706141547336,5.536899595149818,0.0915137415057001,,,,,,
13,2,-0.7544752955436708,-0.016038386151194576,9.77149772644043,0.005096198525279761,-0.0031534582376480103,0.0013023546198382976,-0.47052952647209173,0.6920498609542847,-0.7393755912780762,-0.5383706141547336,5.536899595149818,0.0915137415057001,,,,,,
13,3,-0.7544752955436708,-0.016038386151194576,9.77149772644043,0.005096198525279761,-0.0031534582376480103,0.0013023546198382976,-0.47052952647209173,0.6920498609542847,-0.7393755912780762,-0.5383706141547336,5.536899595149818,0.0915137415057001,,,,,,
13,4,-0.7544752955436708,-0.016038386151194576,9.77149772644043,0.005096198525279761,-0.0031534582376480103,0.0013023546198382976,-0.47052952647209173,0.6920498609542847,-0.7393755912780762,-0.5383706141547336,5.536899595149818,0.0915137415057001,,,,,,
13,5,-0.7599065899848939,-0.02144100330770016,9.774533271789553,0.00628419453278184,-0.002551063895225525,0.001844058162532747,-0.4682549238204956,0.694053053855896,-0.7433820366859437,-0.5213515373083091,5.514993935819845,0.09758615959456977,,,,,,
13,6,-0.7599065899848939,-0.02144100330770016,9.774533271789553,0.00628419453278184,-0.002551063895225525,0.001844058162532747,-0.4682549238204956,0.694053053855896,-0.7433820366859437,-0.5213515373083091,5.514993935819845,0.09758615959456977,,,,,,
13,7,-0.7516857981681825,-0.041685637086629874,9.793989181518555,0.009340775199234487,-0.004688684828579426,0.0005785237299278378,-0.4715861678123474,0.6926087141036987,-0.7428936958312988,-0.5112483386748015,5.502592920218846,0.09922231320732952,,,,,,
13,8,-0.7323377132415771,-0.05757877230644226,9.790991783142092,0.007762018125504256,-0.0009753125486895442,0.0051375371403992185,-0.47245824337005615,0.6915871500968934,-0.7398820519447328,-0.5018410140538765,5.492340173265473,0.10344630976152934,,,,,,
13,9,-0.7364663481712342,-0.032674979418516166,9.776671409606935,0.011644884943962097,-0.006076328456401825,0.003388504730537534,-0.4729597568511963,0.6920878887176514,-0.7403736114501953,-0.4903598580940982,5.479138798467534,0.1066649352720612,,,,,,
13,10,-0.7724897265434266,-0.019711121916770935,9.79195785522461,0.005562998354434967,-0.006023781839758159,0.000807657721452415,-0.4687360227108002,0.6940570473670961,-0.7433797121047974,-0.46334993729733204,5.441792939554746,0.1156413108868314,,,,,,
13,11,-0.7724897265434266,-0.019711121916770935,9.79195785522461,0.005562998354434967,-0.006023781839758159,0.000807657721452415,-0.4687360227108002,0.6940570473670961,-0.7433797121047974,-0.46334993729733204,5.441792939554746,0.1156413108868314,,,,,,
13,12,-0.7724897265434266,-0.019711121916770935,9.79195785522461,0.005562998354434967,-0.006023781839758159,0.000807657721452415,-0.4687360227108002,0.6940570473670961,-0.7433797121047974,-0.46334993729733204,5.441792939554746,0.1156413108868314,,,,,,
13,13,-0.746436357498169,-0.043469659984111786,9.794965744018555,0.005750729236751796,-0.006609791424125434,0.0054776594042778015,-0.4691725075244904,0.6921009421348573,-0.7429161071777344,-0.4552042278570858,5.4283295037886115,0.1200336282831071,,,,,,
13,14,-0.716271460056305,-0.04144861176609994,9.79646968841553,0.006689831148833037,-0.005416602827608585,0.003897422458976507,-0.4710314869880676,0.6911053657531738,-0.7409093976020814,-0.438378211638745,5.402806927667538,0.12538105171649386,,,,,,
13,15,-0.716271460056305,-0.04144861176609994,9.79646968841553,0.006689831148833037,-0.005416602827608585,0.003897422458976507,-0.4710314869880676,0.6911053657531738,-0.7409093976020814,-0.438378211638745,5.402806927667538,0.12538105171649386,,,,,,
13,16,-0.6919960379600526,-0.026903426274657253,9.776413917541506,0.009812800213694572,-0.0060133286751806745,0.004176437854766846,-0.46764326095581055,0.6905806064605713,-0.7404316663742065,-0.428132557819082,5.389682820166819,0.12895692171290465,,,,,,
13,17,-0.7193605303764344,-0.027493817731738094,9.764719963073732,0.0067796651273965836,-0.0029358980245888233,0.0015921626472845676,-0.4681732654571533,0.6920658946037294,-0.7414063811302186,-0.41980717729064976,5.378288474907691,0.13101376816850485,,,,,,
13,18,-0.7482755780220033,-0.03034264408051968,9.782511711120607,0.005935851484537125,-0.002006089081987739,0.0018645545933395624,-0.47206729650497437,0.6926127076148988,-0.7428913712501527,-0.39327668950828165,5.346616924439733,0.139504744520829,,,,,,
13,19,-0.7482755780220033,-0.03034264408051968,9.782511711120607,0.005935851484537125,-0.002006089081987739,0.0018645545933395624,-0.47206729650497437,0.6926127076148988,-0.7428913712501527,-0.39327668950828165,5.346616924439733,0.139504744520829,,,,,,
13,20,-0.7482755780220033,-0.03034264408051968,9.782511711120607,0.005935851484537125,-0.002006089081987739,0.0018645545933395624,-0.47206729650497437,0.6926127076148988,-0.7428913712501527,-0.39327668950828165,5.346616924439733,0.139504744520829,,,,,,
13,21,-0.7681856751441957,-0.0379786491394043,9.783610343933107,0.009391846135258675,-0.003261059522628784,0.003189223119989038,-0.47105616331100464,0.6911234259605409,-0.7419190406799316,-0.38355449124821667,5.335146947866493,0.1424124304699683,,,,,,
13,22,-0.7894967794418335,0.0010622305562719705,9.792236328125,0.00695920642465353,-0.002100737532600761,3.125182774965652e-05,-0.46966502070426946,0.6950044631958008,-0.7413341999053955,-0.36554819317616877,5.314658314767707,0.14624352527397785,,,,,,
13,23,-0.7593448162078857,-0.0368352122604847,9.783222198486328,0.007024771068245173,-0.0030126674100756645,0.0010703142033889892,-0.4682506322860718,0.6945317983627319,-0.742866337299347,-0.35740829248578093,5.303523955390747,0.14789663291699248,,,,,,
13,24,-0.7424854040145874,-0.046748261898756034,9.784728050231935,0.0077814143151044846,-0.004430843051522971,0.002006391528993845,-0.4705755114555359,0.6896741390228271,-0.7429636120796205,-0.3413211557461455,5.279981833198237,0.15266360914118607,,,,,,
14,0,-0.7544752955436708,-0.016038386151194576,9.77149772644043,0.005096198525279761,-0.0031534582376480103,0.0013023546198382976,-0.47052952647209173,0.6920498609542847,-0.7393755912780762,-0.5383706141547336,5.536899595149818,0.0915137415057001,,,,,,
14,1,-0.7544752955436708,-0.016038386151194576,9.77149772644043,0.005096198525279761,-0.0031534582376480103,0.0013023546198382976,-0.47052952647209173,0.6920498609542847,-0.7393755912780762,-0.5383706141547336,5.536899595149818,0.0915137415057001,,,,,,
14,2,-0.7544752955436708,-0.016038386151194576,9.77149772644043,0.005096198525279761,-0.0031534582376480103,0.0013023546198382976,-0.47052952647209173,0.6920498609542847,-0.7393755912780762,-0.5383706141547336,5.536899595149818,0.0915137415057001,,,,,,
14,3,-0.7544752955436708,-0.016038386151194576,9.77149772644043,0.005096198525279761,-0.0031534582376480103,0.0013023546198382976,-0.47052952647209173,0.6920498609542847,-0.7393755912780762,-0.5383706141547336,5.536899595149818,0.0915137415057001,,,,,,
14,4,-0.7544752955436708,-0.016038386151194576,9.77149772644043,0.005096198525279761,-0.0031534582376480103,0.0013023546198382976,-0.47052952647209173,0.6920498609542847,-0.7393755912780762,-0.5383706141547336,5.536899595149818,0.0915137415057001,,,,,,
14,5,-0.7599065899848939,-0.02144100330770016,9.774533271789553,0.00628419453278184,-0.002551063895225525,0.001844058162532747,-0.4682549238204956,0.694053053855896,-0.7433820366859437,-0.5213515373083091,5.514993935819845,0.09758615959456977,,,,,,
14,6,-0.7599065899848939,-0.02144100330770016,9.774533271789553,0.00628419453278184,-0.002551063895225525,0.001844058162532747,-0.4682549238204956,0.694053053855896,-0.7433820366859437,-0.5213515373083091,5.514993935819845,0.09758615959456977,,,,,,
14,7,-0.7516857981681825,-0.041685637086629874,9.793989181518555,0.009340775199234487,-0.004688684828579426,0.0005785237299278378,-0.4715861678123474,0.6926087141036987,-0.7428936958312988,-0.5112483386748015,5.502592920218846,0.09922231320732952,,,,,,
14,8,-0.7323377132415771,-0.05757877230644226,9.790991783142092,0.007762018125504256,-0.0009753125486895442,0.0051375371403992185,-0.47245824337005615,0.6915871500968934,-0.7398820519447328,-0.5018410140538765,5.492340173265473,0.10344630976152934,,,,,,
14,9,-0.7364663481712342,-0.032674979418516166,9.776671409606935,0.011644884943962097,-0.006076328456401825,0.003388504730537534,-0.4729597568511963,0.6920878887176514,-0.7403736114501953,-0.4903598580940982,5.479138798467534,0.1066649352720612,,,,,,
14,10,-0.7724897265434266,-0.019711121916770935,9.79195785522461,0.005562998354434967,-0.006023781839758159,0.000807657721452415,-0.4687360227108002,0.6940570473670961,-0.7433797121047974,-0.46334993729733204,5.441792939554746,0.1156413108868314,,,,,,
14,11,-0.7724897265434266,-0.019711121916770935,9.79195785522461,0.005562998354434967,-0.006023781839758159,0.000807657721452415,-0.4687360227108002,0.6940570473670961,-0.7433797121047974,-0.46334993729733204,5.441792939554746,0.1156413108868314,,,,,,
14,12,-0.7724897265434266,-0.019711121916770935,9.79195785522461,0.005562998354434967,-0.006023781839758159,0.000807657721452415,-0.4687360227108002,0.6940570473670961,-0.7433797121047974,-0.46334993729733204,5.441792939554746,0.1156413108868314,,,,,,
14,13,-0.746436357498169,-0.043469659984111786,9.794965744018555,0.005750729236751796,-0.006609791424125434,0.0054776594042778015,-0.4691725075244904,0.6921009421348573,-0.7429161071777344,-0.4552042278570858,5.4283295037886115,0.1200336282831071,,,,,,
14,14,-0.716271460056305,-0.04144861176609994,9.79646968841553,0.006689831148833037,-0.005416602827608585,0.003897422458976507,-0.4710314869880676,0.6911053657531738,-0.7409093976020814,-0.438378211638745,5.402806927667538,0.12538105171649386,,,,,,
14,15,-0.716271460056305,-0.04144861176609994,9.79646968841553,0.006689831148833037,-0.005416602827608585,0.003897422458976507,-0.4710314869880676,0.6911053657531738,-0.7409093976020814,-0.438378211638745,5.402806927667538,0.12538105171649386,,,,,,
14,16,-0.6919960379600526,-0.026903426274657253,9.776413917541506,0.009812800213694572,-0.0060133286751806745,0.004176437854766846,-0.46764326095581055,0.6905806064605713,-0.7404316663742065,-0.428132557819082,5.389682820166819,0.12895692171290465,,,,,,
14,17,-0.7193605303764344,-0.027493817731738094,9.764719963073732,0.0067796651273965836,-0.0029358980245888233,0.0015921626472845676,-0.4681732654571533,0.6920658946037294,-0.7414063811302186,-0.41980717729064976,5.378288474907691,0.13101376816850485,,,,,,
14,18,-0.7482755780220033,-0.03034264408051968,9.782511711120607,0.005935851484537125,-0.002006089081987739,0.0018645545933395624,-0.47206729650497437,0.6926127076148988,-0.7428913712501527,-0.39327668950828165,5.346616924439733,0.139504744520829,,,,,,
14,19,-0.7482755780220033,-0.03034264408051968,9.782511711120607,0.005935851484537125,-0.002006089081987739,0.0018645545933395624,-0.47206729650497437,0.6926127076148988,-0.7428913712501527,-0.39327668950828165,5.346616924439733,0.139504744520829,,,,,,
14,20,-0.7482755780220033,-0.03034264408051968,9.782511711120607,0.005935851484537125,-0.002006089081987739,0.0018645545933395624,-0.47206729650497437,0.6926127076148988,-0.7428913712501527,-0.39327668950828165,5.346616924439733,0.139504744520829,,,,,,
14,21,-0.7681856751441957,-0.0379786491394043,9.783610343933107,0.009391846135258675,-0.003261059522628784,0.003189223119989038,-0.47105616331100464,0.6911234259605409,-0.7419190406799316,-0.38355449124821667,5.335146947866493,0.1424124304699683,,,,,,
14,22,-0.7894967794418335,0.0010622305562719705,9.792236328125,0.00695920642465353,-0.002100737532600761,3.125182774965652e-05,-0.46966502070426946,0.6950044631958008,-0.7413341999053955,-0.36554819317616877,5.314658314767707,0.14624352527397785,,,,,,
14,23,-0.7593448162078857,-0.0368352122604847,9.783222198486328,0.007024771068245173,-0.0030126674100756645,0.0010703142033889892,-0.4682506322860718,0.6945317983627319,-0.742866337299347,-0.35740829248578093,5.303523955390747,0.14789663291699248,,,,,,
14,24,-0.7424854040145874,-0.046748261898756034,9.784728050231935,0.0077814143151044846,-0.004430843051522971,0.002006391528993845,-0.4705755114555359,0.6896741390228271,-0.7429636120796205,-0.3413211557461455,5.279981833198237,0.15266360914118607,,,,,,
15,0,-0.7544752955436708,-0.016038386151194576,9.77149772644043,0.005096198525279761,-0.0031534582376480103,0.0013023546198382976,-0.47052952647209173,0.6920498609542847,-0.7393755912780762,-0.5383706141547336,5.536899595149818,0.0915137415057001,,,,,,
15,1,-0.7544752955436708,-0.016038386151194576,9.77149772644043,0.005096198525279761,-0.0031534582376480103,0.0013023546198382976,-0.47052952647209173,0.6920498609542847,-0.7393755912780762,-0.5383706141547336,5.536899595149818,0.0915137415057001,,,,,,
15,2,-0.7544752955436708,-0.016038386151194576,9.77149772644043,0.005096198525279761,-0.0031534582376480103,0.0013023546198382976,-0.47052952647209173,0.6920498609542847,-0.7393755912780762,-0.5383706141547336,5.536899595149818,0.0915137415057001,,,,,,
15,3,-0.7544752955436708,-0.016038386151194576,9.77149772644043,0.005096198525279761,-0.0031534582376480103,0.0013023546198382976,-0.47052952647209173,0.6920498609542847,-0.7393755912780762,-0.5383706141547336,5.536899595149818,0.0915137415057001,,,,,,
15,4,-0.7544752955436708,-0.016038386151194576,9.77149772644043,0.005096198525279761,-0.0031534582376480103,0.0013023546198382976,-0.47052952647209173,0.6920498609542847,-0.7393755912780762,-0.5383706141547336,5.536899595149818,0.0915137415057001,,,,,,
15,5,-0.7599065899848939,-0.02144100330770016,9.774533271789553,0.00628419453278184,-0.002551063895225525,0.001844058162532747,-0.4682549238204956,0.694053053855896,-0.7433820366859437,-0.5213515373083091,5.514993935819845,0.09758615959456977,,,,,,
15,6,-0.7599065899848939,-0.02144100330770016,9.774533271789553,0.00628419453278184,-0.002551063895225525,0.001844058162532747,-0.4682549238204956,0.694053053855896,-0.7433820366859437,-0.5213515373083091,5.514993935819845,0.09758615959456977,,,,,,
15,7,-0.7516857981681825,-0.041685637086629874,9.793989181518555,0.009340775199234487,-0.004688684828579426,0.0005785237299278378,-0.4715861678123474,0.6926087141036987,-0.7428936958312988,-0.5112483386748015,5.502592920218846,0.09922231320732952,,,,,,
15,8,-0.7323377132415771,-0.05757877230644226,9.790991783142092,0.007762018125504256,-0.0009753125486895442,0.0051375371403992185,-0.47245824337005615,0.6915871500968934,-0.7398820519447328,-0.5018410140538765,5.492340173265473,0.10344630976152934,,,,,,
15,9,-0.7364663481712342,-0.032674979418516166,9.776671409606935,0.011644884943962097,-0.006076328456401825,0.003388504730537534,-0.4729597568511963,0.6920878887176514,-0.7403736114501953,-0.4903598580940982,5.479138798467534,0.1066649352720612,,,,,,
15,10,-0.7724897265434266,-0.019711121916770935,9.79195785522461,0.005562998354434967,-0.006023781839758159,0.000807657721452415,-0.4687360227108002,0.6940570473670961,-0.7433797121047974,-0.46334993729733204,5.441792939554746,0.1156413108868314,,,,,,
15,11,-0.7724897265434266,-0.019711121916770935,9.79195785522461,0.005562998354434967,-0.006023781839758159,0.000807657721452415,-0.4687360227108002,0.6940570473670961,-0.7433797121047974,-0.46334993729733204,5.441792939554746,0.1156413108868314,,,,,,
15,12,-0.7724897265434266,-0.019711121916770935,9.79195785522461,0.005562998354434967,-0.006023781839758159,0.000807657721452415,-0.4687360227108002,0.6940570473670961,-0.7433797121047974,-0.46334993729733204,5.441792939554746,0.1156413108868314,,,,,,
15,13,-0.746436357498169,-0.043469659984111786,9.794965744018555,0.005750729236751796,-0.006609791424125434,0.0054776594042778015,-0.4691725075244904,0.6921009421348573,-0.7429161071777344,-0.4552042278570858,5.4283295037886115,0.1200336282831071,,,,,,
15,14,-0.716271460056305,-0.04144861176609994,9.79646968841553,0.006689831148833037,-0.005416602827608585,0.003897422458976507,-0.4710314869880676,0.6911053657531738,-0.7409093976020814,-0.438378211638745,5.402806927667538,0.12538105171649386,,,,,,
15,15,-0.716271460056305,-0.04144861176609994,9.79646968841553,0.006689831148833037,-0.005416602827608585,0.003897422458976507,-0.4710314869880676,0.6911053657531738,-0.7409093976020814,-0.438378211638745,5.402806927667538,0.12538105171649386,,,,,,
15,16,-0.6919960379600526,-0.026903426274657253,9.776413917541506,0.009812800213694572,-0.0060133286751806745,0.004176437854766846,-0.46764326095581055,0.6905806064605713,-0.7404316663742065,-0.428132557819082,5.389682820166819,0.12895692171290465,,,,,,
15,17,-0.7193605303764344,-0.027493817731738094,9.764719963073732,0.0067796651273965836,-0.0029358980245888233,0.0015921626472845676,-0.4681732654571533,0.6920658946037294,-0.7414063811302186,-0.41980717729064976,5.378288474907691,0.13101376816850485,,,,,,
15,18,-0.7482755780220033,-0.03034264408051968,9.782511711120607,0.005935851484537125,-0.002006089081987739,0.0018645545933395624,-0.47206729650497437,0.6926127076148988,-0.7428913712501527,-0.39327668950828165,5.346616924439733,0.139504744520829,,,,,,
15,19,-0.7482755780220033,-0.03034264408051968,9.782511711120607,0.005935851484537125,-0.002006089081987739,0.0018645545933395624,-0.47206729650497437,0.6926127076148988,-0.7428913712501527,-0.39327668950828165,5.346616924439733,0.139504744520829,,,,,,
15,20,-0.7482755780220033,-0.03034264408051968,9.782511711120607,0.005935851484537125,-0.002006089081987739,0.0018645545933395624,-0.47206729650497437,0.6926127076148988,-0.7428913712501527,-0.39327668950828165,5.346616924439733,0.139504744520829,,,,,,
15,21,-0.7681856751441957,-0.0379786491394043,9.783610343933107,0.009391846135258675,-0.003261059522628784,0.003189223119989038,-0.47105616331100464,0.6911234259605409,-0.7419190406799316,-0.38355449124821667,5.335146947866493,0.1424124304699683,,,,,,
15,22,-0.7894967794418335,0.0010622305562719705,9.792236328125,0.00695920642465353,-0.002100737532600761,3.125182774965652e-05,-0.46966502070426946,0.6950044631958008,-0.7413341999053955,-0.36554819317616877,5.314658314767707,0.14624352527397785,,,,,,
15,23,-0.7593448162078857,-0.0368352122604847,9.783222198486328,0.007024771068245173,-0.0030126674100756645,0.0010703142033889892,-0.4682506322860718,0.6945317983627319,-0.742866337299347,-0.35740829248578093,5.303523955390747,0.14789663291699248,,,,,,
15,24,-0.7424854040145874,-0.046748261898756034,9.784728050231935,0.0077814143151044846,-0.004430843051522971,0.002006391528993845,-0.4705755114555359,0.6896741390228271,-0.7429636120796205,-0.3413211557461455,5.279981833198237,0.15266360914118607,,,,,,
16,0,-0.7544752955436708,-0.016038386151194576,9.77149772644043,0.005096198525279761,-0.0031534582376480103,0.0013023546198382976,-0.47052952647209173,0.6920498609542847,-0.7393755912780762,-0.5383706141547336,5.536899595149818,0.0915137415057001,,,,,,
16,1,-0.7544752955436708,-0.016038386151194576,9.77149772644043,0.005096198525279761,-0.0031534582376480103,0.0013023546198382976,-0.47052952647209173,0.6920498609542847,-0.7393755912780762,-0.5383706141547336,5.536899595149818,0.0915137415057001,,,,,,
16,2,-0.7544752955436708,-0.016038386151194576,9.77149772644043,0.005096198525279761,-0.0031534582376480103,0.0013023546198382976,-0.47052952647209173,0.6920498609542847,-0.7393755912780762,-0.5383706141547336,5.536899595149818,0.0915137415057001,,,,,,
16,3,-0.7544752955436708,-0.016038386151194576,9.77149772644043,0.005096198525279761,-0.0031534582376480103,0.0013023546198382976,-0.47052952647209173,0.6920498609542847,-0.7393755912780762,-0.5383706141547336,5.536899595149818,0.0915137415057001,,,,,,
16,4,-0.7544752955436708,-0.016038386151194576,9.77149772644043,0.005096198525279761,-0.0031534582376480103,0.0013023546198382976,-0.47052952647209173,0.6920498609542847,-0.7393755912780762,-0.5383706141547336,5.536899595149818,0.0915137415057001,,,,,,
16,5,-0.7599065899848939,-0.02144100330770016,9.774533271789553,0.00628419453278184,-0.002551063895225525,0.001844058162532747,-0.4682549238204956,0.694053053855896,-0.7433820366859437,-0.5213515373083091,5.514993935819845,0.09758615959456977,,,,,,
16,6,-0.7599065899848939,-0.02144100330770016,9.774533271789553,0.00628419453278184,-0.002551063895225525,0.001844058162532747,-0.4682549238204956,0.694053053855896,-0.7433820366859437,-0.5213515373083091,5.514993935819845,0.09758615959456977,,,,,,
16,7,-0.7516857981681825,-0.041685637086629874,9.793989181518555,0.009340775199234487,-0.004688684828579426,0.0005785237299278378,-0.4715861678123474,0.6926087141036987,-0.7428936958312988,-0.5112483386748015,5.502592920218846,0.09922231320732952,,,,,,
16,8,-0.7323377132415771,-0.05757877230644226,9.790991783142092,0.007762018125504256,-0.0009753125486895442,0.0051375371403992185,-0.47245824337005615,0.6915871500968934,-0.7398820519447328,-0.5018410140538765,5.492340173265473,0.10344630976152934,,,,,,
16,9,-0.7364663481712342,-0.032674979418516166,9.776671409606935,0.011644884943962097,-0.006076328456401825,0.003388504730537534,-0.4729597568511963,0.6920878887176514,-0.7403736114501953,-0.4903598580940982,5.479138798467534,0.1066649352720612,,,,,,
16,10,-0.7724897265434266,-0.019711121916770935,9.79195785522461,0.005562998354434967,-0.006023781839758159,0.000807657721452415,-0.4687360227108002,0.6940570473670961,-0.7433797121047974,-0.46334993729733204,5.441792939554746,0.1156413108868314,,,,,,
16,11,-0.7724897265434266,-0.019711121916770935,9.79195785522461,0.005562998354434967,-0.006023781839758159,0.000807657721452415,-0.4687360227108002,0.6940570473670961,-0.7433797121047974,-0.46334993729733204,5.441792939554746,0.1156413108868314,,,,,,
16,12,-0.7724897265434266,-0.019711121916770935,9.79195785522461,0.005562998354434967,-0.006023781839758159,0.000807657721452415,-0.4687360227108002,0.6940570473670961,-0.7433797121047974,-0.46334993729733204,5.441792939554746,0.1156413108868314,,,,,,
16,13,-0.746436357498169,-0.043469659984111786,9.794965744018555,0.005750729236751796,-0.006609791424125434,0.0054776594042778015,-0.4691725075244904,0.6921009421348573,-0.7429161071777344,-0.4552042278570858,5.4283295037886115,0.1200336282831071,,,,,,
16,14,-0.716271460056305,-0.04144861176609994,9.79646968841553,0.006689831148833037,-0.005416602827608585,0.003897422458976507,-0.4710314869880676,0.6911053657531738,-0.7409093976020814,-0.438378211638745,5.402806927667538,0.12538105171649386,,,,,,
16,15,-0.716271460056305,-0.04144861176609994,9.79646968841553,0.006689831148833037,-0.005416602827608585,0.003897422458976507,-0.4710314869880676,0.6911053657531738,-0.7409093976020814,-0.438378211638745,5.402806927667538,0.12538105171649386,,,,,,
16,16,-0.6919960379600526,-0.026903426274657253,9.776413917541506,0.009812800213694572,-0.0060133286751806745,0.004176437854766846,-0.46764326095581055,0.6905806064605713,-0.7404316663742065,-0.428132557819082,5.389682820166819,0.12895692171290465,,,,,,
16,17,-0.7193605303764344,-0.027493817731738094,9.764719963073732,0.0067796651273965836,-0.0029358980245888233,0.0015921626472845676,-0.4681732654571533,0.6920658946037294,-0.7414063811302186,-0.41980717729064976,5.378288474907691,0.13101376816850485,,,,,,
16,18,-0.7482755780220033,-0.03034264408051968,9.782511711120607,0.005935851484537125,-0.002006089081987739,0.0018645545933395624,-0.47206729650497437,0.6926127076148988,-0.7428913712501527,-0.39327668950828165,5.346616924439733,0.139504744520829,,,,,,
16,19,-0.7482755780220033,-0.03034264408051968,9.782511711120607,0.005935851484537125,-0.002006089081987739,0.0018645545933395624,-0.47206729650497437,0.6926127076148988,-0.7428913712501527,-0.39327668950828165,5.346616924439733,0.139504744520829,,,,,,
16,20,-0.7482755780220033,-0.03034264408051968,9.782511711120607,0.005935851484537125,-0.002006089081987739,0.0018645545933395624,-0.47206729650497437,0.6926127076148988,-0.7428913712501527,-0.39327668950828165,5.346616924439733,0.139504744520829,,,,,,
16,21,-0.7681856751441957,-0.0379786491394043,9.783610343933107,0.009391846135258675,-0.003261059522628784,0.003189223119989038,-0.47105616331100464,0.6911234259605409,-0.7419190406799316,-0.38355449124821667,5.335146947866493,0.1424124304699683,,,,,,
16,22,-0.7894967794418335,0.0010622305562719705,9.792236328125,0.00695920642465353,-0.002100737532600761,3.125182774965652e-05,-0.46966502070426946,0.6950044631958008,-0.7413341999053955,-0.36554819317616877,5.314658314767707,0.14624352527397785,,,,,,
16,23,-0.7593448162078857,-0.0368352122604847,9.783222198486328,0.007024771068245173,-0.0030126674100756645,0.0010703142033889892,-0.4682506322860718,0.6945317983627319,-0.742866337299347,-0.35740829248578093,5.303523955390747,0.14789663291699248,,,,,,
16,24,-0.7424854040145874,-0.046748261898756034,9.784728050231935,0.0077814143151044846,-0.004430843051522971,0.002006391528993845,-0.4705755114555359,0.6896741390228271,-0.7429636120796205,-0.3413211557461455,5.279981833198237,0.15266360914118607,,,,,,
17,0,-0.7544752955436708,-0.016038386151194576,9.77149772644043,0.005096198525279761,-0.0031534582376480103,0.0013023546198382976,-0.47052952647209173,0.6920498609542847,-0.7393755912780762,-0.5383706141547336,5.536899595149818,0.0915137415057001,,,,,,
17,1,-0.7544752955436708,-0.016038386151194576,9.77149772644043,0.005096198525279761,-0.0031534582376480103,0.0013023546198382976,-0.47052952647209173,0.6920498609542847,-0.7393755912780762,-0.5383706141547336,5.536899595149818,0.0915137415057001,,,,,,
17,2,-0.7544752955436708,-0.016038386151194576,9.77149772644043,0.005096198525279761,-0.0031534582376480103,0.0013023546198382976,-0.47052952647209173,0.6920498609542847,-0.7393755912780762,-0.5383706141547336,5.536899595149818,0.0915137415057001,,,,,,
17,3,-0.7544752955436708,-0.016038386151194576,9.77149772644043,0.005096198525279761,-0.0031534582376480103,0.0013023546198382976,-0.47052952647209173,0.6920498609542847,-0.7393755912780762,-0.5383706141547336,5.536899595149818,0.0915137415057001,,,,,,
17,4,-0.7544752955436708,-0.016038386151194576,9.77149772644043,0.005096198525279761,-0.0031534582376480103,0.0013023546198382976,-0.47052952647209173,0.6920498609542847,-0.7393755912780762,-0.5383706141547336,5.536899595149818,0.0915137415057001,,,,,,
17,5,-0.7599065899848939,-0.02144100330770016,9.774533271789553,0.00628419453278184,-0.002551063895225525,0.001844058162532747,-0.4682549238204956,0.694053053855896,-0.7433820366859437,-0.5213515373083091,5.514993935819845,0.09758615959456977,,,,,,
17,6,-0.7599065899848939,-0.02144100330770016,9.774533271789553,0.00628419453278184,-0.002551063895225525,0.001844058162532747,-0.4682549238204956,0.694053053855896,-0.7433820366859437,-0.5213515373083091,5.514993935819845,0.09758615959456977,,,,,,
17,7,-0.7516857981681825,-0.041685637086629874,9.793989181518555,0.009340775199234487,-0.004688684828579426,0.0005785237299278378,-0.4715861678123474,0.6926087141036987,-0.7428936958312988,-0.5112483386748015,5.502592920218846,0.09922231320732952,,,,,,
17,8,-0.7323377132415771,-0.05757877230644226,9.790991783142092,0.007762018125504256,-0.0009753125486895442,0.0051375371403992185,-0.47245824337005615,0.6915871500968934,-0.7398820519447328,-0.5018410140538765,5.492340173265473,0.10344630976152934,,,,,,
17,9,-0.7364663481712342,-0.032674979418516166,9.776671409606935,0.011644884943962097,-0.006076328456401825,0.003388504730537534,-0.4729597568511963,0.6920878887176514,-0.7403736114501953,-0.4903598580940982,5.479138798467534,0.1066649352720612,,,,,,
17,10,-0.7724897265434266,-0.019711121916770935,9.79195785522461,0.005562998354434967,-0.006023781839758159,0.000807657721452415,-0.4687360227108002,0.6940570473670961,-0.7433797121047974,-0.46334993729733204,5.441792939554746,0.1156413108868314,,,,,,
17,11,-0.7724897265434266,-0.019711121916770935,9.79195785522461,0.005562998354434967,-0.006023781839758159,0.000807657721452415,-0.4687360227108002,0.6940570473670961,-0.7433797121047974,-0.46334993729733204,5.441792939554746,0.1156413108868314,,,,,,
17,12,-0.7724897265434266,-0.019711121916770935,9.79195785522461,0.005562998354434967,-0.006023781839758159,0.000807657721452415,-0.4687360227108002,0.6940570473670961,-0.7433797121047974,-0.46334993729733204,5.441792939554746,0.1156413108868314,,,,,,
17,13,-0.746436357498169,-0.043469659984111786,9.794965744018555,0.005750729236751796,-0.006609791424125434,0.0054776594042778015,-0.4691725075244904,0.6921009421348573,-0.7429161071777344,-0.4552042278570858,5.4283295037886115,0.1200336282831071,,,,,,
17,14,-0.716271460056305,-0.04144861176609994,9.79646968841553,0.006689831148833037,-0.005416602827608585,0.003897422458976507,-0.4710314869880676,0.6911053657531738,-0.7409093976020814,-0.438378211638745,5.402806927667538,0.12538105171649386,,,,,,
17,15,-0.716271460056305,-0.04144861176609994,9.79646968841553,0.006689831148833037,-0.005416602827608585,0.003897422458976507,-0.4710314869880676,0.6911053657531738,-0.7409093976020814,-0.438378211638745,5.402806927667538,0.12538105171649386,,,,,,
17,16,-0.6919960379600526,-0.026903426274657253,9.776413917541506,0.009812800213694572,-0.0060133286751806745,0.004176437854766846,-0.46764326095581055,0.6905806064605713,-0.7404316663742065,-0.428132557819082,5.389682820166819,0.12895692171290465,,,,,,
17,17,-0.7193605303764344,-0.027493817731738094,9.764719963073732,0.0067796651273965836,-0.0029358980245888233,0.0015921626472845676,-0.4681732654571533,0.6920658946037294,-0.7414063811302186,-0.41980717729064976,5.378288474907691,0.13101376816850485,,,,,,
17,18,-0.7482755780220033,-0.03034264408051968,9.782511711120607,0.005935851484537125,-0.002006089081987739,0.0018645545933395624,-0.47206729650497437,0.6926127076148988,-0.7428913712501527,-0.39327668950828165,5.346616924439733,0.139504744520829,,,,,,
17,19,-0.7482755780220033,-0.03034264408051968,9.782511711120607,0.005935851484537125,-0.002006089081987739,0.0018645545933395624,-0.47206729650497437,0.6926127076148988,-0.7428913712501527,-0.39327668950828165,5.346616924439733,0.139504744520829,,,,,,
17,20,-0.7482755780220033,-0.03034264408051968,9.782511711120607,0.005935851484537125,-0.002006089081987739,0.0018645545933395624,-0.47206729650497437,0.6926127076148988,-0.7428913712501527,-0.39327668950828165,5.346616924439733,0.139504744520829,,,,,,
17,21,-0.7681856751441957,-0.0379786491394043,9.783610343933107,0.009391846135258675,-0.003261059522628784,0.003189223119989038,-0.47105616331100464,0.6911234259605409,-0.7419190406799316,-0.38355449124821667,5.335146947866493,0.1424124304699683,,,,,,
17,22,-0.7894967794418335,0.0010622305562719705,9.792236328125,0.00695920642465353,-0.002100737532600761,3.125182774965652e-05,-0.46966502070426946,0.6950044631958008,-0.7413341999053955,-0.36554819317616877,5.314658314767707,0.14624352527397785,,,,,,
17,23,-0.7593448162078857,-0.0368352122604847,9.783222198486328,0.007024771068245173,-0.0030126674100756645,0.0010703142033889892,-0.4682506322860718,0.6945317983627319,-0.742866337299347,-0.35740829248578093,5.303523955390747,0.14789663291699248,,,,,,
17,24,-0.7424854040145874,-0.046748261898756034,9.784728050231935,0.0077814143151044846,-0.004430843051522971,0.002006391528993845,-0.4705755114555359,0.6896741390228271,-0.7429636120796205,-0.3413211557461455,5.279981833198237,0.15266360914118607,,,,,,
18,0,-0.7544752955436708,-0.016038386151194576,9.77149772644043,0.005096198525279761,-0.0031534582376480103,0.0013023546198382976,-0.47052952647209173,0.6920498609542847,-0.7393755912780762,-0.5383706141547336,5.536899595149818,0.0915137415057001,,,,,,
18,1,-0.7544752955436708,-0.016038386151194576,9.77149772644043,0.005096198525279761,-0.0031534582376480103,0.0013023546198382976,-0.47052952647209173,0.6920498609542847,-0.7393755912780762,-0.5383706141547336,5.536899595149818,0.0915137415057001,,,,,,
18,2,-0.7544752955436708,-0.016038386151194576,9.77149772644043,0.005096198525279761,-0.0031534582376480103,0.0013023546198382976,-0.47052952647209173,0.6920498609542847,-0.7393755912780762,-0.5383706141547336,5.536899595149818,0.0915137415057001,,,,,,
18,3,-0.7544752955436708,-0.016038386151194576,9.77149772644043,0.005096198525279761,-0.0031534582376480103,0.0013023546198382976,-0.47052952647209173,0.6920498609542847,-0.7393755912780762,-0.5383706141547336,5.536899595149818,0.0915137415057001,,,,,,
18,4,-0.7544752955436708,-0.016038386151194576,9.77149772644043,0.005096198525279761,-0.0031534582376480103,0.0013023546198382976,-0.47052952647209173,0.6920498609542847,-0.7393755912780762,-0.5383706141547336,5.536899595149818,0.0915137415057001,,,,,,
18,5,-0.7599065899848939,-0.02144100330770016,9.774533271789553,0.00628419453278184,-0.002551063895225525,0.001844058162532747,-0.4682549238204956,0.694053053855896,-0.7433820366859437,-0.5213515373083091,5.514993935819845,0.09758615959456977,,,,,,
18,6,-0.7599065899848939,-0.02144100330770016,9.774533271789553,0.00628419453278184,-0.002551063895225525,0.001844058162532747,-0.4682549238204956,0.694053053855896,-0.7433820366859437,-0.5213515373083091,5.514993935819845,0.09758615959456977,,,,,,
18,7,-0.7516857981681825,-0.041685637086629874,9.793989181518555,0.009340775199234487,-0.004688684828579426,0.0005785237299278378,-0.4715861678123474,0.6926087141036987,-0.7428936958312988,-0.5112483386748015,5.502592920218846,0.09922231320732952,,,,,,
18,8,-0.7323377132415771,-0.05757877230644226,9.790991783142092,0.007762018125504256,-0.0009753125486895442,0.0051375371403992185,-0.47245824337005615,0.6915871500968934,-0.7398820519447328,-0.5018410140538765,5.492340173265473,0.10344630976152934,,,,,,
18,9,-0.7364663481712342,-0.032674979418516166,9.776671409606935,0.011644884943962097,-0.006076328456401825,0.003388504730537534,-0.4729597568511963,0.6920878887176514,-0.7403736114501953,-0.4903598580940982,5.479138798467534,0.1066649352720612,,,,,,
18,10,-0.7724897265434266,-0.019711121916770935,9.79195785522461,0.005562998354434967,-0.006023781839758159,0.000807657721452415,-0.4687360227108002,0.6940570473670961,-0.7433797121047974,-0.46334993729733204,5.441792939554746,0.1156413108868314,,,,,,
18,11,-0.7724897265434266,-0.019711121916770935,9.79195785522461,0.005562998354434967,-0.006023781839758159,0.000807657721452415,-0.4687360227108002,0.6940570473670961,-0.7433797121047974,-0.46334993729733204,5.441792939554746,0.1156413108868314,,,,,,
18,12,-0.7724897265434266,-0.019711121916770935,9.79195785522461,0.005562998354434967,-0.006023781839758159,0.000807657721452415,-0.4687360227108002,0.6940570473670961,-0.7433797121047974,-0.46334993729733204,5.441792939554746,0.1156413108868314,,,,,,
18,13,-0.746436357498169,-0.043469659984111786,9.794965744018555,0.005750729236751796,-0.006609791424125434,0.0054776594042778015,-0.4691725075244904,0.6921009421348573,-0.7429161071777344,-0.4552042278570858,5.4283295037886115,0.1200336282831071,,,,,,
18,14,-0.716271460056305,-0.04144861176609994,9.79646968841553,0.006689831148833037,-0.005416602827608585,0.003897422458976507,-0.4710314869880676,0.6911053657531738,-0.7409093976020814,-0.438378211638745,5.402806927667538,0.12538105171649386,,,,,,
18,15,-0.716271460056305,-0.04144861176609994,9.79646968841553,0.006689831148833037,-0.005416602827608585,0.003897422458976507,-0.4710314869880676,0.6911053657531738,-0.7409093976020814,-0.438378211638745,5.402806927667538,0.12538105171649386,,,,,,
18,16,-0.6919960379600526,-0.026903426274657253,9.776413917541506,0.009812800213694572,-0.0060133286751806745,0.004176437854766846,-0.46764326095581055,0.6905806064605713,-0.7404316663742065,-0.428132557819082,5.389682820166819,0.12895692171290465,,,,,,
18,17,-0.7193605303764344,-0.027493817731738094,9.764719963073732,0.0067796651273965836,-0.0029358980245888233,0.0015921626472845676,-0.4681732654571533,0.6920658946037294,-0.7414063811302186,-0.41980717729064976,5.378288474907691,0.13101376816850485,,,,,,
18,18,-0.7482755780220033,-0.03034264408051968,9.782511711120607,0.005935851484537125,-0.002006089081987739,0.0018645545933395624,-0.47206729650497437,0.6926127076148988,-0.7428913712501527,-0.39327668950828165,5.346616924439733,0.139504744520829,,,,,,
18,19,-0.7482755780220033,-0.03034264408051968,9.782511711120607,0.005935851484537125,-0.002006089081987739,0.0018645545933395624,-0.47206729650497437,0.6926127076148988,-0.7428913712501527,-0.39327668950828165,5.346616924439733,0.139504744520829,,,,,,
18,20,-0.7482755780220033,-0.03034264408051968,9.782511711120607,0.005935851484537125,-0.002006089081987739,0.0018645545933395624,-0.47206729650497437,0.6926127076148988,-0.7428913712501527,-0.39327668950828165,5.346616924439733,0.139504744520829,,,,,,
18,21,-0.7681856751441957,-0.0379786491394043,9.783610343933107,0.009391846135258675,-0.003261059522628784,0.003189223119989038,-0.47105616331100464,0.6911234259605409,-0.7419190406799316,-0.38355449124821667,5.335146947866493,0.1424124304699683,,,,,,
18,22,-0.7894967794418335,0.0010622305562719705,9.792236328125,0.00695920642465353,-0.002100737532600761,3.125182774965652e-05,-0.46966502070426946,0.6950044631958008,-0.7413341999053955,-0.36554819317616877,5.314658314767707,0.14624352527397785,,,,,,
18,23,-0.7593448162078857,-0.0368352122604847,9.783222198486328,0.007024771068245173,-0.0030126674100756645,0.0010703142033889892,-0.4682506322860718,0.6945317983627319,-0.742866337299347,-0.35740829248578093,5.303523955390747,0.14789663291699248,,,,,,
18,24,-0.7424854040145874,-0.046748261898756034,9.784728050231935,0.0077814143151044846,-0.004430843051522971,0.002006391528993845,-0.4705755114555359,0.6896741390228271,-0.7429636120796205,-0.3413211557461455,5.279981833198237,0.15266360914118607,,,,,,
19,0,-0.7544752955436708,-0.016038386151194576,9.77149772644043,0.005096198525279761,-0.0031534582376480103,0.0013023546198382976,-0.47052952647209173,0.6920498609542847,-0.7393755912780762,-0.5383706141547336,5.536899595149818,0.0915137415057001,,,,,,
19,1,-0.7544752955436708,-0.016038386151194576,9.77149772644043,0.005096198525279761,-0.0031534582376480103,0.0013023546198382976,-0.47052952647209173,0.6920498609542847,-0.7393755912780762,-0.5383706141547336,5.536899595149818,0.0915137415057001,,,,,,
19,2,-0.7544752955436708,-0.016038386151194576,9.77149772644043,0.005096198525279761,-0.0031534582376480103,0.0013023546198382976,-0.47052952647209173,0.6920498609542847,-0.7393755912780762,-0.5383706141547336,5.536899595149818,0.0915137415057001,,,,,,
19,3,-0.7544752955436708,-0.016038386151194576,9.77149772644043,0.005096198525279761,-0.0031534582376480103,0.0013023546198382976,-0.47052952647209173,0.6920498609542847,-0.7393755912780762,-0.5383706141547336,5.536899595149818,0.0915137415057001,,,,,,
19,4,-0.7544752955436708,-0.016038386151194576,9.77149772644043,0.005096198525279761,-0.0031534582376480103,0.0013023546198382976,-0.47052952647209173,0.6920498609542847,-0.7393755912780762,-0.5383706141547336,5.536899595149818,0.0915137415057001,,,,,,
19,5,-0.7599065899848939,-0.02144100330770016,9.774533271789553,0.00628419453278184,-0.002551063895225525,0.001844058162532747,-0.4682549238204956,0.694053053855896,-0.7433820366859437,-0.5213515373083091,5.514993935819845,0.09758615959456977,,,,,,
19,6,-0.7599065899848939,-0.02144100330770016,9.774533271789553,0.00628419453278184,-0.002551063895225525,0.001844058162532747,-0.4682549238204956,0.694053053855896,-0.7433820366859437,-0.5213515373083091,5.514993935819845,0.09758615959456977,,,,,,
19,7,-0.7516857981681825,-0.041685637086629874,9.793989181518555,0.009340775199234487,-0.004688684828579426,0.0005785237299278378,-0.4715861678123474,0.6926087141036987,-0.7428936958312988,-0.5112483386748015,5.502592920218846,0.09922231320732952,,,,,,
19,8,-0.7323377132415771,-0.05757877230644226,9.790991783142092,0.007762018125504256,-0.0009753125486895442,0.0051375371403992185,-0.47245824337005615,0.6915871500968934,-0.7398820519447328,-0.5018410140538765,5.492340173265473,0.10344630976152934,,,,,,
19,9,-0.7364663481712342,-0.032674979418516166,9.776671409606935,0.011644884943962097,-0.006076328456401825,0.003388504730537534,-0.4729597568511963,0.6920878887176514,-0.7403736114501953,-0.4903598580940982,5.479138798467534,0.1066649352720612,,,,,,
19,10,-0.7724897265434266,-0.019711121916770935,9.79195785522461,0.005562998354434967,-0.006023781839758159,0.000807657721452415,-0.4687360227108002,0.6940570473670961,-0.7433797121047974,-0.46334993729733204,5.441792939554746,0.1156413108868314,,,,,,
19,11,-0.7724897265434266,-0.019711121916770935,9.79195785522461,0.005562998354434967,-0.006023781839758159,0.000807657721452415,-0.4687360227108002,0.6940570473670961,-0.7433797121047974,-0.46334993729733204,5.441792939554746,0.1156413108868314,,,,,,
19,12,-0.7724897265434266,-0.019711121916770935,9.79195785522461,0.005562998354434967,-0.006023781839758159,0.000807657721452415,-0.4687360227108002,0.6940570473670961,-0.7433797121047974,-0.46334993729733204,5.441792939554746,0.1156413108868314,,,,,,
19,13,-0.746436357498169,-0.043469659984111786,9.794965744018555,0.005750729236751796,-0.006609791424125434,0.0054776594042778015,-0.4691725075244904,0.6921009421348573,-0.7429161071777344,-0.4552042278570858,5.4283295037886115,0.1200336282831071,,,,,,
19,14,-0.716271460056305,-0.04144861176609994,9.79646968841553,0.006689831148833037,-0.005416602827608585,0.003897422458976507,-0.4710314869880676,0.6911053657531738,-0.7409093976020814,-0.438378211638745,5.402806927667538,0.12538105171649386,,,,,,
19,15,-0.716271460056305,-0.04144861176609994,9.79646968841553,0.006689831148833037,-0.005416602827608585,0.003897422458976507,-0.4710314869880676,0.6911053657531738,-0.7409093976020814,-0.438378211638745,5.402806927667538,0.12538105171649386,,,,,,
19,16,-0.6919960379600526,-0.026903426274657253,9.776413917541506,0.009812800213694572,-0.0060133286751806745,0.004176437854766846,-0.46764326095581055,0.6905806064605713,-0.7404316663742065,-0.428132557819082,5.389682820166819,0.12895692171290465,,,,,,
19,17,-0.7193605303764344,-0.027493817731738094,9.764719963073732,0.0067796651273965836,-0.0029358980245888233,0.0015921626472845676,-0.4681732654571533,0.6920658946037294,-0.7414063811302186,-0.41980717729064976,5.378288474907691,0.13101376816850485,,,,,,
19,18,-0.7482755780220033,-0.03034264408051968,9.782511711120607,0.005935851484537125,-0.002006089081987739,0.0018645545933395624,-0.47206729650497437,0.6926127076148988,-0.7428913712501527,-0.39327668950828165,5.346616924439733,0.139504744520829,,,,,,
19,19,-0.7482755780220033,-0.03034264408051968,9.782511711120607,0.005935851484537125,-0.002006089081987739,0.0018645545933395624,-0.47206729650497437,0.6926127076148988,-0.7428913712501527,-0.39327668950828165,5.346616924439733,0.139504744520829,,,,,,
19,20,-0.7482755780220033,-0.03034264408051968,9.782511711120607,0.005935851484537125,-0.002006089081987739,0.0018645545933395624,-0.47206729650497437,0.6926127076148988,-0.7428913712501527,-0.39327668950828165,5.346616924439733,0.139504744520829,,,,,,
19,21,-0.7681856751441957,-0.0379786491394043,9.783610343933107,0.009391846135258675,-0.003261059522628784,0.003189223119989038,-0.47105616331100464,0.6911234259605409,-0.7419190406799316,-0.38355449124821667,5.335146947866493,0.1424124304699683,,,,,,
19,22,-0.7894967794418335,0.0010622305562719705,9.792236328125,0.00695920642465353,-0.002100737532600761,3.125182774965652e-05,-0.46966502070426946,0.6950044631958008,-0.7413341999053955,-0.36554819317616877,5.314658314767707,0.14624352527397785,,,,,,
19,23,-0.7593448162078857,-0.0368352122604847,9.783222198486328,0.007024771068245173,-0.0030126674100756645,0.0010703142033889892,-0.4682506322860718,0.6945317983627319,-0.742866337299347,-0.35740829248578093,5.303523955390747,0.14789663291699248,,,,,,
19,24,-0.7424854040145874,-0.046748261898756034,9.784728050231935,0.0077814143151044846,-0.004430843051522971,0.002006391528993845,-0.4705755114555359,0.6896741390228271,-0.7429636120796205,-0.3413211557461455,5.279981833198237,0.15266360914118607,,,,,,
20,0,-0.7544752955436708,-0.016038386151194576,9.77149772644043,0.005096198525279761,-0.0031534582376480103,0.0013023546198382976,-0.47052952647209173,0.6920498609542847,-0.7393755912780762,-0.5383706141547336,5.536899595149818,0.0915137415057001,,,,,,
