frame_id,subframe_id,acc_x,acc_y,acc_z,gyro_x,gyro_y,gyro_z,mag_x,mag_y,mag_z,roll,pitch,yaw
1,0,-0.7777982354164125,-0.034977175295352936,9.789403915405273,0.007210355252027512,-0.0034499848261475563,0.006402607541531325,-0.4609744846820832,0.6499068737030029,-0.8716721534729004,0.01480786277264489,4.450168137499284,0.1369148750385018,,,,,,
1,1,-0.7777982354164125,-0.034977175295352936,9.789403915405273,0.007210355252027512,-0.0034499848261475563,0.006402607541531325,-0.4609744846820832,0.6499068737030029,-0.8716721534729004,0.01480786277264489,4.450168137499284,0.1369148750385018,,,,,,
1,2,-0.7777982354164125,-0.034977175295352936,9.789403915405273,0.007210355252027512,-0.0034499848261475563,0.006402607541531325,-0.4609744846820832,0.6499068737030029,-0.8716721534729004,0.01480786277264489,4.450168137499284,0.1369148750385018,,,,,,
1,3,-0.7777982354164125,-0.034977175295352936,9.789403915405273,0.007210355252027512,-0.0034499848261475563,0.006402607541531325,-0.4609744846820832,0.6499068737030029,-0.8716721534729004,0.01480786277264489,4.450168137499284,0.1369148750385018,,,,,,
1,4,-0.7777982354164125,-0.034977175295352936,9.789403915405273,0.007210355252027512,-0.0034499848261475563,0.006402607541531325,-0.4609744846820832,0.6499068737030029,-0.8716721534729004,0.01480786277264489,4.450168137499284,0.1369148750385018,,,,,,
1,5,-0.7864395380020142,-0.08145123720169067,9.778872489929201,0.007853287272155287,-0.0029344079084694386,0.003652650862932205,-0.46294024586677557,0.6494711637496948,-0.8736930489540101,0.02005356726685779,4.447540579178851,0.14026219459854847,,,,,,
1,6,-0.7716255187988281,-0.06075773760676385,9.77725124359131,0.010517628863453865,-0.0031273218337446456,0.0006913718534633517,-0.4614275991916657,0.6474810242652894,-0.872229039669037,0.024442811983820586,4.446331438111014,0.1401540834718598,,,,,,
1,7,-0.7716255187988281,-0.06075773760676385,9.77725124359131,0.010517628863453865,-0.0031273218337446456,0.0006913718534633517,-0.4614275991916657,0.6474810242652894,-0.872229039669037,0.024442811983820586,4.446331438111014,0.1401540834718598,,,,,,
1,8,-0.7585784196853638,-0.04767551273107529,9.789168357849123,0.004753502085804939,-0.006403788458555938,0.0055715017952024945,-0.4628624022006989,0.648450493812561,-0.8711907863616943,0.032390022063718285,4.441082072695888,0.14574077432595847,,,,,,
1,9,-0.7585784196853638,-0.04767551273107529,9.789168357849123,0.004753502085804939,-0.006403788458555938,0.0055715017952024945,-0.4628624022006989,0.648450493812561,-0.8711907863616943,0.032390022063718285,4.441082072695888,0.14574077432595847,,,,,,
1,10,-0.7585784196853638,-0.04767551273107529,9.789168357849123,0.004753502085804939,-0.006403788458555938,0.0055715017952024945,-0.4628624022006989,0.648450493812561,-0.8711907863616943,0.032390022063718285,4.441082072695888,0.14574077432595847,,,,,,
1,11,-0.7491685152053833,-0.061105482280254364,9.764883995056154,0.009956977330148222,-0.004813068080693484,0.0031902906484901905,-0.46053892374038696,0.6489723920822144,-0.8742202520370483,0.03981535014921854,4.436968719033974,0.14774822020019515,,,,,,
1,12,-0.7320421338081361,-0.07061770558357239,9.782329559326172,0.0092364763841033,-0.003575144335627556,0.004765421617776156,-0.46051850914955145,0.6484756469726562,-0.8737263679504395,0.043504472514354166,4.4354432739533145,0.14993406739658222,,,,,,
1,13,-0.7320421338081361,-0.07061770558357239,9.782329559326172,0.0092364763841033,-0.003575144335627556,0.004765421617776156,-0.46051850914955145,0.6484756469726562,-0.8737263679504395,0.043504472514354166,4.4354432739533145,0.14993406739658222,,,,,,
1,14,-0.7088648080825806,-0.0856008231639862,9.780009269714357,0.008377796970307829,-0.003555416129529476,0.0020277160219848156,-0.46198225021362305,0.6489843726158143,-0.8742133378982544,0.04654381475032468,4.4338983301204475,0.15053464877732478,,,,,,
1,15,-0.793411374092102,-0.0735277384519577,9.77694320678711,0.00846082903444767,-0.0030763642862439156,0.0038628487382084136,-0.46048057079315186,0.6513391137123109,-0.8701274394989014,0.05308381535380989,4.430983136150056,0.15352380589075043,,,,,,
1,16,-0.7892003059387207,-0.07193055003881456,9.779991149902344,0.008915011771023275,-0.0030990582890808582,0.0029816729947924614,-0.462430626153946,0.6484825611114502,-0.8732123374938965,0.05956499227993917,4.4283140449045595,0.15668762491677568,,,,,,
1,17,-0.7892003059387207,-0.07193055003881456,9.779991149902344,0.008915011771023275,-0.0030990582890808582,0.0029816729947924614,-0.462430626153946,0.6484825611114502,-0.8732123374938965,0.05956499227993917,4.4283140449045595,0.15668762491677568,,,,,,
1,18,-0.7892003059387207,-0.07193055003881456,9.779991149902344,0.008915011771023275,-0.0030990582890808582,0.0029816729947924614,-0.462430626153946,0.6484825611114502,-0.8732123374938965,0.05956499227993917,4.4283140449045595,0.15668762491677568,,,,,,
1,19,-0.8309152722358705,-0.07169906049966814,9.774492263793945,0.00981723889708519,-0.0007058908813633026,0.004562774673104286,-0.46194523572921753,0.6489573121070863,-0.8726989626884462,0.06332879970927616,4.428416290399206,0.15868083348829842,,,,,,
1,20,-0.9050163626670839,-0.05875290185213089,9.780877113342287,0.010828712955117226,-0.0015724643599241972,0.006760966498404742,-0.4614437222480774,0.6484565734863281,-0.8722072839736938,0.06773608677916941,4.428074480461522,0.1619273994501018,,,,,,
1,21,-0.8870349526405336,-0.03455762192606927,9.771142959594727,0.01169406156986952,-0.005400214344263077,0.00162413134239614,-0.45953917503356934,0.6503826379776001,-0.8716682195663452,0.07562212770549864,4.423970764212233,0.16267889823648107,,,,,,
1,22,-0.8870349526405336,-0.03455762192606927,9.771142959594727,0.01169406156986952,-0.005400214344263077,0.00162413134239614,-0.45953917503356934,0.6503826379776001,-0.8716682195663452,0.07562212770549864,4.423970764212233,0.16267889823648107,,,,,,
2,0,-0.7777982354164125,-0.034977175295352936,9.789403915405273,0.007210355252027512,-0.0034499848261475563,0.006402607541531325,-0.4609744846820832,0.6499068737030029,-0.8716721534729004,0.01480786277264489,4.450168137499284,0.1369148750385018,,,,,,
2,1,-0.7777982354164125,-0.034977175295352936,9.789403915405273,0.007210355252027512,-0.0034499848261475563,0.006402607541531325,-0.4609744846820832,0.6499068737030029,-0.8716721534729004,0.01480786277264489,4.450168137499284,0.1369148750385018,,,,,,
2,2,-0.7777982354164125,-0.034977175295352936,9.789403915405273,0.007210355252027512,-0.0034499848261475563,0.006402607541531325,-0.4609744846820832,0.6499068737030029,-0.8716721534729004,0.01480786277264489,4.450168137499284,0.1369148750385018,,,,,,
2,3,-0.7777982354164125,-0.034977175295352936,9.789403915405273,0.007210355252027512,-0.0034499848261475563,0.006402607541531325,-0.4609744846820832,0.6499068737030029,-0.8716721534729004,0.01480786277264489,4.450168137499284,0.1369148750385018,,,,,,
2,4,-0.7777982354164125,-0.034977175295352936,9.789403915405273,0.007210355252027512,-0.0034499848261475563,0.006402607541531325,-0.4609744846820832,0.6499068737030029,-0.8716721534729004,0.01480786277264489,4.450168137499284,0.1369148750385018,,,,,,
2,5,-0.7864395380020142,-0.08145123720169067,9.778872489929201,0.007853287272155287,-0.0029344079084694386,0.003652650862932205,-0.46294024586677557,0.6494711637496948,-0.8736930489540101,0.02005356726685779,4.447540579178851,0.14026219459854847,,,,,,
2,6,-0.7716255187988281,-0.06075773760676385,9.77725124359131,0.010517628863453865,-0.0031273218337446456,0.0006913718534633517,-0.4614275991916657,0.6474810242652894,-0.872229039669037,0.024442811983820586,4.446331438111014,0.1401540834718598,,,,,,
2,7,-0.7716255187988281,-0.06075773760676385,9.77725124359131,0.010517628863453865,-0.0031273218337446456,0.0006913718534633517,-0.4614275991916657,0.6474810242652894,-0.872229039669037,0.024442811983820586,4.446331438111014,0.1401540834718598,,,,,,
2,8,-0.7585784196853638,-0.04767551273107529,9.789168357849123,0.004753502085804939,-0.006403788458555938,0.0055715017952024945,-0.4628624022006989,0.648450493812561,-0.8711907863616943,0.032390022063718285,4.441082072695888,0.14574077432595847,,,,,,
2,9,-0.7585784196853638,-0.04767551273107529,9.789168357849123,0.004753502085804939,-0.006403788458555938,0.0055715017952024945,-0.4628624022006989,0.648450493812561,-0.8711907863616943,0.032390022063718285,4.441082072695888,0.14574077432595847,,,,,,
2,10,-0.7585784196853638,-0.04767551273107529,9.789168357849123,0.004753502085804939,-0.006403788458555938,0.0055715017952024945,-0.4628624022006989,0.648450493812561,-0.8711907863616943,0.032390022063718285,4.441082072695888,0.14574077432595847,,,,,,
2,11,-0.7491685152053833,-0.061105482280254364,9.764883995056154,0.009956977330148222,-0.004813068080693484,0.0031902906484901905,-0.46053892374038696,0.6489723920822144,-0.8742202520370483,0.03981535014921854,4.436968719033974,0.14774822020019515,,,,,,
2,12,-0.7320421338081361,-0.07061770558357239,9.782329559326172,0.0092364763841033,-0.003575144335627556,0.004765421617776156,-0.46051850914955145,0.6484756469726562,-0.8737263679504395,0.043504472514354166,4.4354432739533145,0.14993406739658222,,,,,,
2,13,-0.7320421338081361,-0.07061770558357239,9.782329559326172,0.0092364763841033,-0.003575144335627556,0.004765421617776156,-0.46051850914955145,0.6484756469726562,-0.8737263679504395,0.043504472514354166,4.4354432739533145,0.14993406739658222,,,,,,
2,14,-0.7088648080825806,-0.0856008231639862,9.780009269714357,0.008377796970307829,-0.003555416129529476,0.0020277160219848156,-0.46198225021362305,0.6489843726158143,-0.8742133378982544,0.04654381475032468,4.4338983301204475,0.15053464877732478,,,,,,
2,15,-0.793411374092102,-0.0735277384519577,9.77694320678711,0.00846082903444767,-0.0030763642862439156,0.0038628487382084136,-0.46048057079315186,0.6513391137123109,-0.8701274394989014,0.05308381535380989,4.430983136150056,0.15352380589075043,,,,,,
2,16,-0.7892003059387207,-0.07193055003881456,9.779991149902344,0.008915011771023275,-0.0030990582890808582,0.0029816729947924614,-0.462430626153946,0.6484825611114502,-0.8732123374938965,0.05956499227993917,4.4283140449045595,0.15668762491677568,,,,,,
2,17,-0.7892003059387207,-0.07193055003881456,9.779991149902344,0.008915011771023275,-0.0030990582890808582,0.0029816729947924614,-0.462430626153946,0.6484825611114502,-0.8732123374938965,0.05956499227993917,4.4283140449045595,0.15668762491677568,,,,,,
2,18,-0.7892003059387207,-0.07193055003881456,9.779991149902344,0.008915011771023275,-0.0030990582890808582,0.0029816729947924614,-0.462430626153946,0.6484825611114502,-0.8732123374938965,0.05956499227993917,4.4283140449045595,0.15668762491677568,,,,,,
2,19,-0.8309152722358705,-0.07169906049966814,9.774492263793945,0.00981723889708519,-0.0007058908813633026,0.004562774673104286,-0.46194523572921753,0.6489573121070863,-0.8726989626884462,0.06332879970927616,4.428416290399206,0.15868083348829842,,,,,,
2,20,-0.9050163626670839,-0.05875290185213089,9.780877113342287,0.010828712955117226,-0.0015724643599241972,0.006760966498404742,-0.4614437222480774,0.6484565734863281,-0.8722072839736938,0.06773608677916941,4.428074480461522,0.1619273994501018,,,,,,
2,21,-0.8870349526405336,-0.03455762192606927,9.771142959594727,0.01169406156986952,-0.005400214344263077,0.00162413134239614,-0.45953917503356934,0.6503826379776001,-0.8716682195663452,0.07562212770549864,4.423970764212233,0.16267889823648107,,,,,,
2,22,-0.8870349526405336,-0.03455762192606927,9.771142959594727,0.01169406156986952,-0.005400214344263077,0.00162413134239614,-0.45953917503356934,0.6503826379776001,-0.8716682195663452,0.07562212770549864,4.423970764212233,0.16267889823648107,,,,,,
3,0,-0.7777982354164125,-0.034977175295352936,9.789403915405273,0.007210355252027512,-0.0034499848261475563,0.006402607541531325,-0.4609744846820832,0.6499068737030029,-0.8716721534729004,0.01480786277264489,4.450168137499284,0.1369148750385018,,,,,,
3,1,-0.7777982354164125,-0.034977175295352936,9.789403915405273,0.007210355252027512,-0.0034499848261475563,0.006402607541531325,-0.4609744846820832,0.6499068737030029,-0.8716721534729004,0.01480786277264489,4.450168137499284,0.1369148750385018,,,,,,
3,2,-0.7777982354164125,-0.034977175295352936,9.789403915405273,0.007210355252027512,-0.0034499848261475563,0.006402607541531325,-0.4609744846820832,0.6499068737030029,-0.8716721534729004,0.01480786277264489,4.450168137499284,0.1369148750385018,,,,,,
3,3,-0.7777982354164125,-0.034977175295352936,9.789403915405273,0.007210355252027512,-0.0034499848261475563,0.006402607541531325,-0.4609744846820832,0.6499068737030029,-0.8716721534729004,0.01480786277264489,4.450168137499284,0.1369148750385018,,,,,,
3,4,-0.7777982354164125,-0.034977175295352936,9.789403915405273,0.007210355252027512,-0.0034499848261475563,0.006402607541531325,-0.4609744846820832,0.6499068737030029,-0.8716721534729004,0.01480786277264489,4.450168137499284,0.1369148750385018,,,,,,
3,5,-0.7864395380020142,-0.08145123720169067,9.778872489929201,0.007853287272155287,-0.0029344079084694386,0.003652650862932205,-0.46294024586677557,0.6494711637496948,-0.8736930489540101,0.02005356726685779,4.447540579178851,0.14026219459854847,,,,,,
3,6,-0.7716255187988281,-0.06075773760676385,9.77725124359131,0.010517628863453865,-0.0031273218337446456,0.0006913718534633517,-0.4614275991916657,0.6474810242652894,-0.872229039669037,0.024442811983820586,4.446331438111014,0.1401540834718598,,,,,,
3,7,-0.7716255187988281,-0.06075773760676385,9.77725124359131,0.010517628863453865,-0.0031273218337446456,0.0006913718534633517,-0.4614275991916657,0.6474810242652894,-0.872229039669037,0.024442811983820586,4.446331438111014,0.1401540834718598,,,,,,
3,8,-0.7585784196853638,-0.04767551273107529,9.789168357849123,0.004753502085804939,-0.006403788458555938,0.0055715017952024945,-0.4628624022006989,0.648450493812561,-0.8711907863616943,0.032390022063718285,4.441082072695888,0.14574077432595847,,,,,,
3,9,-0.7585784196853638,-0.04767551273107529,9.789168357849123,0.004753502085804939,-0.006403788458555938,0.0055715017952024945,-0.4628624022006989,0.648450493812561,-0.8711907863616943,0.032390022063718285,4.441082072695888,0.14574077432595847,,,,,,
3,10,-0.7585784196853638,-0.04767551273107529,9.789168357849123,0.004753502085804939,-0.006403788458555938,0.0055715017952024945,-0.4628624022006989,0.648450493812561,-0.8711907863616943,0.032390022063718285,4.441082072695888,0.14574077432595847,,,,,,
3,11,-0.7491685152053833,-0.061105482280254364,9.764883995056154,0.009956977330148222,-0.004813068080693484,0.0031902906484901905,-0.46053892374038696,0.6489723920822144,-0.8742202520370483,0.03981535014921854,4.436968719033974,0.14774822020019515,,,,,,
3,12,-0.7320421338081361,-0.07061770558357239,9.782329559326172,0.0092364763841033,-0.003575144335627556,0.004765421617776156,-0.46051850914955145,0.6484756469726562,-0.8737263679504395,0.043504472514354166,4.4354432739533145,0.14993406739658222,,,,,,
3,13,-0.7320421338081361,-0.07061770558357239,9.782329559326172,0.0092364763841033,-0.003575144335627556,0.004765421617776156,-0.46051850914955145,0.6484756469726562,-0.8737263679504395,0.043504472514354166,4.4354432739533145,0.14993406739658222,,,,,,
3,14,-0.7088648080825806,-0.0856008231639862,9.780009269714357,0.008377796970307829,-0.003555416129529476,0.0020277160219848156,-0.46198225021362305,0.6489843726158143,-0.8742133378982544,0.04654381475032468,4.4338983301204475,0.15053464877732478,,,,,,
3,15,-0.793411374092102,-0.0735277384519577,9.77694320678711,0.00846082903444767,-0.0030763642862439156,0.0038628487382084136,-0.46048057079315186,0.6513391137123109,-0.8701274394989014,0.05308381535380989,4.430983136150056,0.15352380589075043,,,,,,
3,16,-0.7892003059387207,-0.07193055003881456,9.779991149902344,0.008915011771023275,-0.0030990582890808582,0.0029816729947924614,-0.462430626153946,0.6484825611114502,-0.8732123374938965,0.05956499227993917,4.4283140449045595,0.15668762491677568,,,,,,
3,17,-0.7892003059387207,-0.07193055003881456,9.779991149902344,0.008915011771023275,-0.0030990582890808582,0.0029816729947924614,-0.462430626153946,0.6484825611114502,-0.8732123374938965,0.05956499227993917,4.4283140449045595,0.15668762491677568,,,,,,
3,18,-0.7892003059387207,-0.07193055003881456,9.779991149902344,0.008915011771023275,-0.0030990582890808582,0.0029816729947924614,-0.462430626153946,0.6484825611114502,-0.8732123374938965,0.05956499227993917,4.4283140449045595,0.15668762491677568,,,,,,
3,19,-0.8309152722358705,-0.07169906049966814,9.774492263793945,0.00981723889708519,-0.0007058908813633026,0.004562774673104286,-0.46194523572921753,0.6489573121070863,-0.8726989626884462,0.06332879970927616,4.428416290399206,0.15868083348829842,,,,,,
3,20,-0.9050163626670839,-0.05875290185213089,9.780877113342287,0.010828712955117226,-0.0015724643599241972,0.006760966498404742,-0.4614437222480774,0.6484565734863281,-0.8722072839736938,0.06773608677916941,4.428074480461522,0.1619273994501018,,,,,,
3,21,-0.8870349526405336,-0.03455762192606927,9.771142959594727,0.01169406156986952,-0.005400214344263077,0.00162413134239614,-0.45953917503356934,0.6503826379776001,-0.8716682195663452,0.07562212770549864,4.423970764212233,0.16267889823648107,,,,,,
3,22,-0.8870349526405336,-0.03455762192606927,9.771142959594727,0.01169406156986952,-0.005400214344263077,0.00162413134239614,-0.45953917503356934,0.6503826379776001,-0.8716682195663452,0.07562212770549864,4.423970764212233,0.16267889823648107,,,,,,
4,0,-0.7777982354164125,-0.034977175295352936,9.789403915405273,0.007210355252027512,-0.0034499848261475563,0.006402607541531325,-0.4609744846820832,0.6499068737030029,-0.8716721534729004,0.01480786277264489,4.450168137499284,0.1369148750385018,,,,,,
4,1,-0.7777982354164125,-0.034977175295352936,9.789403915405273,0.007210355252027512,-0.0034499848261475563,0.006402607541531325,-0.4609744846820832,0.6499068737030029,-0.8716721534729004,0.01480786277264489,4.450168137499284,0.1369148750385018,,,,,,
4,2,-0.7777982354164125,-0.034977175295352936,9.789403915405273,0.007210355252027512,-0.0034499848261475563,0.006402607541531325,-0.4609744846820832,0.6499068737030029,-0.8716721534729004,0.01480786277264489,4.450168137499284,0.1369148750385018,,,,,,
4,3,-0.7777982354164125,-0.034977175295352936,9.789403915405273,0.007210355252027512,-0.0034499848261475563,0.006402607541531325,-0.4609744846820832,0.6499068737030029,-0.8716721534729004,0.01480786277264489,4.450168137499284,0.1369148750385018,,,,,,
4,4,-0.7777982354164125,-0.034977175295352936,9.789403915405273,0.007210355252027512,-0.0034499848261475563,0.006402607541531325,-0.4609744846820832,0.6499068737030029,-0.8716721534729004,0.01480786277264489,4.450168137499284,0.1369148750385018,,,,,,
4,5,-0.7864395380020142,-0.08145123720169067,9.778872489929201,0.007853287272155287,-0.0029344079084694386,0.003652650862932205,-0.46294024586677557,0.6494711637496948,-0.8736930489540101,0.02005356726685779,4.447540579178851,0.14026219459854847,,,,,,
4,6,-0.7716255187988281,-0.06075773760676385,9.77725124359131,0.010517628863453865,-0.0031273218337446456,0.0006913718534633517,-0.4614275991916657,0.6474810242652894,-0.872229039669037,0.024442811983820586,4.446331438111014,0.1401540834718598,,,,,,
4,7,-0.7716255187988281,-0.06075773760676385,9.77725124359131,0.010517628863453865,-0.0031273218337446456,0.0006913718534633517,-0.4614275991916657,0.6474810242652894,-0.872229039669037,0.024442811983820586,4.446331438111014,0.1401540834718598,,,,,,
4,8,-0.7585784196853638,-0.04767551273107529,9.789168357849123,0.004753502085804939,-0.006403788458555938,0.0055715017952024945,-0.4628624022006989,0.648450493812561,-0.8711907863616943,0.032390022063718285,4.441082072695888,0.14574077432595847,,,,,,
4,9,-0.7585784196853638,-0.04767551273107529,9.789168357849123,0.004753502085804939,-0.006403788458555938,0.0055715017952024945,-0.4628624022006989,0.648450493812561,-0.8711907863616943,0.032390022063718285,4.441082072695888,0.14574077432595847,,,,,,
4,10,-0.7585784196853638,-0.04767551273107529,9.789168357849123,0.004753502085804939,-0.006403788458555938,0.0055715017952024945,-0.4628624022006989,0.648450493812561,-0.8711907863616943,0.032390022063718285,4.441082072695888,0.14574077432595847,,,,,,
4,11,-0.7491685152053833,-0.061105482280254364,9.764883995056154,0.009956977330148222,-0.004813068080693484,0.0031902906484901905,-0.46053892374038696,0.6489723920822144,-0.8742202520370483,0.03981535014921854,4.436968719033974,0.14774822020019515,,,,,,
4,12,-0.7320421338081361,-0.07061770558357239,9.782329559326172,0.0092364763841033,-0.003575144335627556,0.004765421617776156,-0.46051850914955145,0.6484756469726562,-0.8737263679504395,0.043504472514354166,4.4354432739533145,0.14993406739658222,,,,,,
4,13,-0.7320421338081361,-0.07061770558357239,9.782329559326172,0.0092364763841033,-0.003575144335627556,0.004765421617776156,-0.46051850914955145,0.6484756469726562,-0.8737263679504395,0.043504472514354166,4.4354432739533145,0.14993406739658222,,,,,,
4,14,-0.7088648080825806,-0.0856008231639862,9.780009269714357,0.008377796970307829,-0.003555416129529476,0.0020277160219848156,-0.46198225021362305,0.6489843726158143,-0.8742133378982544,0.04654381475032468,4.4338983301204475,0.15053464877732478,,,,,,
4,15,-0.793411374092102,-0.0735277384519577,9.77694320678711,0.00846082903444767,-0.0030763642862439156,0.0038628487382084136,-0.46048057079315186,0.6513391137123109,-0.8701274394989014,0.05308381535380989,4.430983136150056,0.15352380589075043,,,,,,
4,16,-0.7892003059387207,-0.07193055003881456,9.779991149902344,0.008915011771023275,-0.0030990582890808582,0.0029816729947924614,-0.462430626153946,0.6484825611114502,-0.8732123374938965,0.05956499227993917,4.4283140449045595,0.15668762491677568,,,,,,
4,17,-0.7892003059387207,-0.07193055003881456,9.779991149902344,0.008915011771023275,-0.0030990582890808582,0.0029816729947924614,-0.462430626153946,0.6484825611114502,-0.8732123374938965,0.05956499227993917,4.4283140449045595,0.15668762491677568,,,,,,
4,18,-0.7892003059387207,-0.07193055003881456,9.779991149902344,0.008915011771023275,-0.0030990582890808582,0.0029816729947924614,-0.462430626153946,0.6484825611114502,-0.8732123374938965,0.05956499227993917,4.4283140449045595,0.15668762491677568,,,,,,
4,19,-0.8309152722358705,-0.07169906049966814,9.774492263793945,0.00981723889708519,-0.0007058908813633026,0.004562774673104286,-0.46194523572921753,0.6489573121070863,-0.8726989626884462,0.06332879970927616,4.428416290399206,0.15868083348829842,,,,,,
4,20,-0.9050163626670839,-0.05875290185213089,9.780877113342287,0.010828712955117226,-0.0015724643599241972,0.006760966498404742,-0.4614437222480774,0.6484565734863281,-0.8722072839736938,0.06773608677916941,4.428074480461522,0.1619273994501018,,,,,,
4,21,-0.8870349526405336,-0.03455762192606927,9.771142959594727,0.01169406156986952,-0.005400214344263077,0.00162413134239614,-0.45953917503356934,0.6503826379776001,-0.8716682195663452,0.07562212770549864,4.423970764212233,0.16267889823648107,,,,,,
4,22,-0.8870349526405336,-0.03455762192606927,9.771142959594727,0.01169406156986952,-0.005400214344263077,0.00162413134239614,-0.45953917503356934,0.6503826379776001,-0.8716682195663452,0.07562212770549864,4.423970764212233,0.16267889823648107,,,,,,
5,0,-0.7777982354164125,-0.034977175295352936,9.789403915405273,0.007210355252027512,-0.0034499848261475563,0.006402607541531325,-0.4609744846820832,0.6499068737030029,-0.8716721534729004,0.01480786277264489,4.450168137499284,0.1369148750385018,,,,,,
5,1,-0.7777982354164125,-0.034977175295352936,9.789403915405273,0.007210355252027512,-0.0034499848261475563,0.006402607541531325,-0.4609744846820832,0.6499068737030029,-0.8716721534729004,0.01480786277264489,4.450168137499284,0.1369148750385018,,,,,,
5,2,-0.7777982354164125,-0.034977175295352936,9.789403915405273,0.007210355252027512,-0.0034499848261475563,0.006402607541531325,-0.4609744846820832,0.6499068737030029,-0.8716721534729004,0.01480786277264489,4.450168137499284,0.1369148750385018,,,,,,
5,3,-0.7777982354164125,-0.034977175295352936,9.789403915405273,0.007210355252027512,-0.0034499848261475563,0.006402607541531325,-0.4609744846820832,0.6499068737030029,-0.8716721534729004,0.01480786277264489,4.450168137499284,0.1369148750385018,,,,,,
5,4,-0.7777982354164125,-0.034977175295352936,9.789403915405273,0.007210355252027512,-0.0034499848261475563,0.006402607541531325,-0.4609744846820832,0.6499068737030029,-0.8716721534729004,0.01480786277264489,4.450168137499284,0.1369148750385018,,,,,,
5,5,-0.7864395380020142,-0.08145123720169067,9.778872489929201,0.007853287272155287,-0.0029344079084694386,0.003652650862932205,-0.46294024586677557,0.6494711637496948,-0.8736930489540101,0.02005356726685779,4.447540579178851,0.14026219459854847,,,,,,
5,6,-0.7716255187988281,-0.06075773760676385,9.77725124359131,0.010517628863453865,-0.0031273218337446456,0.0006913718534633517,-0.4614275991916657,0.6474810242652894,-0.872229039669037,0.024442811983820586,4.446331438111014,0.1401540834718598,,,,,,
5,7,-0.7716255187988281,-0.06075773760676385,9.77725124359131,0.010517628863453865,-0.0031273218337446456,0.0006913718534633517,-0.4614275991916657,0.6474810242652894,-0.872229039669037,0.024442811983820586,4.446331438111014,0.1401540834718598,,,,,,
5,8,-0.7585784196853638,-0.04767551273107529,9.789168357849123,0.004753502085804939,-0.006403788458555938,0.0055715017952024945,-0.4628624022006989,0.648450493812561,-0.8711907863616943,0.032390022063718285,4.441082072695888,0.14574077432595847,,,,,,
5,9,-0.7585784196853638,-0.04767551273107529,9.789168357849123,0.004753502085804939,-0.006403788458555938,0.0055715017952024945,-0.4628624022006989,0.648450493812561,-0.8711907863616943,0.032390022063718285,4.441082072695888,0.14574077432595847,,,,,,
5,10,-0.7585784196853638,-0.04767551273107529,9.789168357849123,0.004753502085804939,-0.006403788458555938,0.0055715017952024945,-0.4628624022006989,0.648450493812561,-0.8711907863616943,0.032390022063718285,4.441082072695888,0.14574077432595847,,,,,,
5,11,-0.7491685152053833,-0.061105482280254364,9.764883995056154,0.009956977330148222,-0.004813068080693484,0.0031902906484901905,-0.46053892374038696,0.6489723920822144,-0.8742202520370483,0.03981535014921854,4.436968719033974,0.14774822020019515,,,,,,
5,12,-0.7320421338081361,-0.07061770558357239,9.782329559326172,0.0092364763841033,-0.003575144335627556,0.004765421617776156,-0.46051850914955145,0.6484756469726562,-0.8737263679504395,0.043504472514354166,4.4354432739533145,0.14993406739658222,,,,,,
5,13,-0.7320421338081361,-0.07061770558357239,9.782329559326172,0.0092364763841033,-0.003575144335627556,0.004765421617776156,-0.46051850914955145,0.6484756469726562,-0.8737263679504395,0.043504472514354166,4.4354432739533145,0.14993406739658222,,,,,,
5,14,-0.7088648080825806,-0.0856008231639862,9.780009269714357,0.008377796970307829,-0.003555416129529476,0.0020277160219848156,-0.46198225021362305,0.6489843726158143,-0.8742133378982544,0.04654381475032468,4.4338983301204475,0.15053464877732478,,,,,,
5,15,-0.793411374092102,-0.0735277384519577,9.77694320678711,0.00846082903444767,-0.0030763642862439156,0.0038628487382084136,-0.46048057079315186,0.6513391137123109,-0.8701274394989014,0.05308381535380989,4.430983136150056,0.15352380589075043,,,,,,
5,16,-0.7892003059387207,-0.07193055003881456,9.779991149902344,0.008915011771023275,-0.0030990582890808582,0.0029816729947924614,-0.462430626153946,0.6484825611114502,-0.8732123374938965,0.05956499227993917,4.4283140449045595,0.15668762491677568,,,,,,
5,17,-0.7892003059387207,-0.07193055003881456,9.779991149902344,0.008915011771023275,-0.0030990582890808582,0.0029816729947924614,-0.462430626153946,0.6484825611114502,-0.8732123374938965,0.05956499227993917,4.4283140449045595,0.15668762491677568,,,,,,
5,18,-0.7892003059387207,-0.07193055003881456,9.779991149902344,0.008915011771023275,-0.0030990582890808582,0.0029816729947924614,-0.462430626153946,0.6484825611114502,-0.8732123374938965,0.05956499227993917,4.4283140449045595,0.15668762491677568,,,,,,
5,19,-0.8309152722358705,-0.07169906049966814,9.774492263793945,0.00981723889708519,-0.0007058908813633026,0.004562774673104286,-0.46194523572921753,0.6489573121070863,-0.8726989626884462,0.06332879970927616,4.428416290399206,0.15868083348829842,,,,,,
5,20,-0.9050163626670839,-0.05875290185213089,9.780877113342287,0.010828712955117226,-0.0015724643599241972,0.006760966498404742,-0.4614437222480774,0.6484565734863281,-0.8722072839736938,0.06773608677916941,4.428074480461522,0.1619273994501018,,,,,,
5,21,-0.8870349526405336,-0.03455762192606927,9.771142959594727,0.01169406156986952,-0.005400214344263077,0.00162413134239614,-0.45953917503356934,0.6503826379776001,-0.8716682195663452,0.07562212770549864,4.423970764212233,0.16267889823648107,,,,,,
5,22,-0.8870349526405336,-0.03455762192606927,9.771142959594727,0.01169406156986952,-0.005400214344263077,0.00162413134239614,-0.45953917503356934,0.6503826379776001,-0.8716682195663452,0.07562212770549864,4.423970764212233,0.16267889823648107,,,,,,
6,0,-0.7777982354164125,-0.034977175295352936,9.789403915405273,0.007210355252027512,-0.0034499848261475563,0.006402607541531325,-0.4609744846820832,0.6499068737030029,-0.8716721534729004,0.01480786277264489,4.450168137499284,0.1369148750385018,,,,,,
6,1,-0.7777982354164125,-0.034977175295352936,9.789403915405273,0.007210355252027512,-0.0034499848261475563,0.006402607541531325,-0.4609744846820832,0.6499068737030029,-0.8716721534729004,0.01480786277264489,4.450168137499284,0.1369148750385018,,,,,,
6,2,-0.7777982354164125,-0.034977175295352936,9.789403915405273,0.007210355252027512,-0.0034499848261475563,0.006402607541531325,-0.4609744846820832,0.6499068737030029,-0.8716721534729004,0.01480786277264489,4.450168137499284,0.1369148750385018,,,,,,
6,3,-0.7777982354164125,-0.034977175295352936,9.789403915405273,0.007210355252027512,-0.0034499848261475563,0.006402607541531325,-0.4609744846820832,0.6499068737030029,-0.8716721534729004,0.01480786277264489,4.450168137499284,0.1369148750385018,,,,,,
6,4,-0.7777982354164125,-0.034977175295352936,9.789403915405273,0.007210355252027512,-0.0034499848261475563,0.006402607541531325,-0.4609744846820832,0.6499068737030029,-0.8716721534729004,0.01480786277264489,4.450168137499284,0.1369148750385018,,,,,,
6,5,-0.7864395380020142,-0.08145123720169067,9.778872489929201,0.007853287272155287,-0.0029344079084694386,0.003652650862932205,-0.46294024586677557,0.6494711637496948,-0.8736930489540101,0.02005356726685779,4.447540579178851,0.14026219459854847,,,,,,
6,6,-0.7716255187988281,-0.06075773760676385,9.77725124359131,0.010517628863453865,-0.0031273218337446456,0.0006913718534633517,-0.4614275991916657,0.6474810242652894,-0.872229039669037,0.024442811983820586,4.446331438111014,0.1401540834718598,,,,,,
6,7,-0.7716255187988281,-0.06075773760676385,9.77725124359131,0.010517628863453865,-0.0031273218337446456,0.0006913718534633517,-0.4614275991916657,0.6474810242652894,-0.872229039669037,0.024442811983820586,4.446331438111014,0.1401540834718598,,,,,,
6,8,-0.7585784196853638,-0.04767551273107529,9.789168357849123,0.004753502085804939,-0.006403788458555938,0.0055715017952024945,-0.4628624022006989,0.648450493812561,-0.8711907863616943,0.032390022063718285,4.441082072695888,0.14574077432595847,,,,,,
6,9,-0.7585784196853638,-0.04767551273107529,9.789168357849123,0.004753502085804939,-0.006403788458555938,0.0055715017952024945,-0.4628624022006989,0.648450493812561,-0.8711907863616943,0.032390022063718285,4.441082072695888,0.14574077432595847,,,,,,
6,10,-0.7585784196853638,-0.04767551273107529,9.789168357849123,0.004753502085804939,-0.006403788458555938,0.0055715017952024945,-0.4628624022006989,0.648450493812561,-0.8711907863616943,0.032390022063718285,4.441082072695888,0.14574077432595847,,,,,,
6,11,-0.7491685152053833,-0.061105482280254364,9.764883995056154,0.009956977330148222,-0.004813068080693484,0.0031902906484901905,-0.46053892374038696,0.6489723920822144,-0.8742202520370483,0.03981535014921854,4.436968719033974,0.14774822020019515,,,,,,
6,12,-0.7320421338081361,-0.07061770558357239,9.782329559326172,0.0092364763841033,-0.003575144335627556,0.004765421617776156,-0.46051850914955145,0.6484756469726562,-0.8737263679504395,0.043504472514354166,4.4354432739533145,0.14993406739658222,,,,,,
6,13,-0.7320421338081361,-0.07061770558357239,9.782329559326172,0.0092364763841033,-0.003575144335627556,0.004765421617776156,-0.46051850914955145,0.6484756469726562,-0.8737263679504395,0.043504472514354166,4.4354432739533145,0.14993406739658222,,,,,,
6,14,-0.7088648080825806,-0.0856008231639862,9.780009269714357,0.008377796970307829,-0.003555416129529476,0.0020277160219848156,-0.46198225021362305,0.6489843726158143,-0.8742133378982544,0.04654381475032468,4.4338983301204475,0.15053464877732478,,,,,,
6,15,-0.793411374092102,-0.0735277384519577,9.77694320678711,0.00846082903444767,-0.0030763642862439156,0.0038628487382084136,-0.46048057079315186,0.6513391137123109,-0.8701274394989014,0.05308381535380989,4.430983136150056,0.15352380589075043,,,,,,
6,16,-0.7892003059387207,-0.07193055003881456,9.779991149902344,0.008915011771023275,-0.0030990582890808582,0.0029816729947924614,-0.462430626153946,0.6484825611114502,-0.8732123374938965,0.05956499227993917,4.4283140449045595,0.15668762491677568,,,,,,
6,17,-0.7892003059387207,-0.07193055003881456,9.779991149902344,0.008915011771023275,-0.0030990582890808582,0.0029816729947924614,-0.462430626153946,0.6484825611114502,-0.8732123374938965,0.05956499227993917,4.4283140449045595,0.15668762491677568,,,,,,
6,18,-0.7892003059387207,-0.07193055003881456,9.779991149902344,0.008915011771023275,-0.0030990582890808582,0.0029816729947924614,-0.462430626153946,0.6484825611114502,-0.8732123374938965,0.05956499227993917,4.4283140449045595,0.15668762491677568,,,,,,
6,19,-0.8309152722358705,-0.07169906049966814,9.774492263793945,0.00981723889708519,-0.0007058908813633026,0.004562774673104286,-0.46194523572921753,0.6489573121070863,-0.8726989626884462,0.06332879970927616,4.428416290399206,0.15868083348829842,,,,,,
6,20,-0.9050163626670839,-0.05875290185213089,9.780877113342287,0.010828712955117226,-0.0015724643599241972,0.006760966498404742,-0.4614437222480774,0.6484565734863281,-0.8722072839736938,0.06773608677916941,4.428074480461522,0.1619273994501018,,,,,,
6,21,-0.8870349526405336,-0.03455762192606927,9.771142959594727,0.01169406156986952,-0.005400214344263077,0.00162413134239614,-0.45953917503356934,0.6503826379776001,-0.8716682195663452,0.07562212770549864,4.423970764212233,0.16267889823648107,,,,,,
6,22,-0.8870349526405336,-0.03455762192606927,9.771142959594727,0.01169406156986952,-0.005400214344263077,0.00162413134239614,-0.45953917503356934,0.6503826379776001,-0.8716682195663452,0.07562212770549864,4.423970764212233,0.16267889823648107,,,,,,
7,0,-0.7777982354164125,-0.034977175295352936,9.789403915405273,0.007210355252027512,-0.0034499848261475563,0.006402607541531325,-0.4609744846820832,0.6499068737030029,-0.8716721534729004,0.01480786277264489,4.450168137499284,0.1369148750385018,,,,,,
7,1,-0.7777982354164125,-0.034977175295352936,9.789403915405273,0.007210355252027512,-0.0034499848261475563,0.006402607541531325,-0.4609744846820832,0.6499068737030029,-0.8716721534729004,0.01480786277264489,4.450168137499284,0.1369148750385018,,,,,,
7,2,-0.7777982354164125,-0.034977175295352936,9.789403915405273,0.007210355252027512,-0.0034499848261475563,0.006402607541531325,-0.4609744846820832,0.6499068737030029,-0.8716721534729004,0.01480786277264489,4.450168137499284,0.1369148750385018,,,,,,
7,3,-0.7777982354164125,-0.034977175295352936,9.789403915405273,0.007210355252027512,-0.0034499848261475563,0.006402607541531325,-0.4609744846820832,0.6499068737030029,-0.8716721534729004,0.01480786277264489,4.450168137499284,0.1369148750385018,,,,,,
7,4,-0.7777982354164125,-0.034977175295352936,9.789403915405273,0.007210355252027512,-0.0034499848261475563,0.006402607541531325,-0.4609744846820832,0.6499068737030029,-0.8716721534729004,0.01480786277264489,4.450168137499284,0.1369148750385018,,,,,,
7,5,-0.7864395380020142,-0.08145123720169067,9.778872489929201,0.007853287272155287,-0.0029344079084694386,0.003652650862932205,-0.46294024586677557,0.6494711637496948,-0.8736930489540101,0.02005356726685779,4.447540579178851,0.14026219459854847,,,,,,
7,6,-0.7716255187988281,-0.06075773760676385,9.77725124359131,0.010517628863453865,-0.0031273218337446456,0.0006913718534633517,-0.4614275991916657,0.6474810242652894,-0.872229039669037,0.024442811983820586,4.446331438111014,0.1401540834718598,,,,,,
7,7,-0.7716255187988281,-0.06075773760676385,9.77725124359131,0.010517628863453865,-0.0031273218337446456,0.0006913718534633517,-0.4614275991916657,0.6474810242652894,-0.872229039669037,0.024442811983820586,4.446331438111014,0.1401540834718598,,,,,,
7,8,-0.7585784196853638,-0.04767551273107529,9.789168357849123,0.004753502085804939,-0.006403788458555938,0.0055715017952024945,-0.4628624022006989,0.648450493812561,-0.8711907863616943,0.032390022063718285,4.441082072695888,0.14574077432595847,,,,,,
7,9,-0.7585784196853638,-0.04767551273107529,9.789168357849123,0.004753502085804939,-0.006403788458555938,0.0055715017952024945,-0.4628624022006989,0.648450493812561,-0.8711907863616943,0.032390022063718285,4.441082072695888,0.14574077432595847,,,,,,
7,10,-0.7585784196853638,-0.04767551273107529,9.789168357849123,0.004753502085804939,-0.006403788458555938,0.0055715017952024945,-0.4628624022006989,0.648450493812561,-0.8711907863616943,0.032390022063718285,4.441082072695888,0.14574077432595847,,,,,,
7,11,-0.7491685152053833,-0.061105482280254364,9.764883995056154,0.009956977330148222,-0.004813068080693484,0.0031902906484901905,-0.46053892374038696,0.6489723920822144,-0.8742202520370483,0.03981535014921854,4.436968719033974,0.14774822020019515,,,,,,
7,12,-0.7320421338081361,-0.07061770558357239,9.782329559326172,0.0092364763841033,-0.003575144335627556,0.004765421617776156,-0.46051850914955145,0.6484756469726562,-0.8737263679504395,0.043504472514354166,4.4354432739533145,0.14993406739658222,,,,,,
7,13,-0.7320421338081361,-0.07061770558357239,9.782329559326172,0.0092364763841033,-0.003575144335627556,0.004765421617776156,-0.46051850914955145,0.6484756469726562,-0.8737263679504395,0.043504472514354166,4.4354432739533145,0.14993406739658222,,,,,,
7,14,-0.7088648080825806,-0.0856008231639862,9.780009269714357,0.008377796970307829,-0.003555416129529476,0.0020277160219848156,-0.46198225021362305,0.6489843726158143,-0.8742133378982544,0.04654381475032468,4.4338983301204475,0.15053464877732478,,,,,,
7,15,-0.793411374092102,-0.0735277384519577,9.77694320678711,0.00846082903444767,-0.0030763642862439156,0.0038628487382084136,-0.46048057079315186,0.6513391137123109,-0.8701274394989014,0.05308381535380989,4.430983136150056,0.15352380589075043,,,,,,
7,16,-0.7892003059387207,-0.07193055003881456,9.779991149902344,0.008915011771023275,-0.0030990582890808582,0.0029816729947924614,-0.462430626153946,0.6484825611114502,-0.8732123374938965,0.05956499227993917,4.4283140449045595,0.15668762491677568,,,,,,
7,17,-0.7892003059387207,-0.07193055003881456,9.779991149902344,0.008915011771023275,-0.0030990582890808582,0.0029816729947924614,-0.462430626153946,0.6484825611114502,-0.8732123374938965,0.05956499227993917,4.4283140449045595,0.15668762491677568,,,,,,
7,18,-0.7892003059387207,-0.07193055003881456,9.779991149902344,0.008915011771023275,-0.0030990582890808582,0.0029816729947924614,-0.462430626153946,0.6484825611114502,-0.8732123374938965,0.05956499227993917,4.4283140449045595,0.15668762491677568,,,,,,
7,19,-0.8309152722358705,-0.07169906049966814,9.774492263793945,0.00981723889708519,-0.0007058908813633026,0.004562774673104286,-0.46194523572921753,0.6489573121070863,-0.8726989626884462,0.06332879970927616,4.428416290399206,0.15868083348829842,,,,,,
7,20,-0.9050163626670839,-0.05875290185213089,9.780877113342287,0.010828712955117226,-0.0015724643599241972,0.006760966498404742,-0.4614437222480774,0.6484565734863281,-0.8722072839736938,0.06773608677916941,4.428074480461522,0.1619273994501018,,,,,,
7,21,-0.8870349526405336,-0.03455762192606927,9.771142959594727,0.01169406156986952,-0.005400214344263077,0.00162413134239614,-0.45953917503356934,0.6503826379776001,-0.8716682195663452,0.07562212770549864,4.423970764212233,0.16267889823648107,,,,,,
7,22,-0.8870349526405336,-0.03455762192606927,9.771142959594727,0.01169406156986952,-0.005400214344263077,0.00162413134239614,-0.45953917503356934,0.6503826379776001,-0.8716682195663452,0.07562212770549864,4.423970764212233,0.16267889823648107,,,,,,
8,0,-0.7777982354164125,-0.034977175295352936,9.789403915405273,0.007210355252027512,-0.0034499848261475563,0.006402607541531325,-0.4609744846820832,0.6499068737030029,-0.8716721534729004,0.01480786277264489,4.450168137499284,0.1369148750385018,,,,,,
8,1,-0.7777982354164125,-0.034977175295352936,9.789403915405273,0.007210355252027512,-0.0034499848261475563,0.006402607541531325,-0.4609744846820832,0.6499068737030029,-0.8716721534729004,0.01480786277264489,4.450168137499284,0.1369148750385018,,,,,,
8,2,-0.7777982354164125,-0.034977175295352936,9.789403915405273,0.007210355252027512,-0.0034499848261475563,0.006402607541531325,-0.4609744846820832,0.6499068737030029,-0.8716721534729004,0.01480786277264489,4.450168137499284,0.1369148750385018,,,,,,
8,3,-0.7777982354164125,-0.034977175295352936,9.789403915405273,0.007210355252027512,-0.0034499848261475563,0.006402607541531325,-0.4609744846820832,0.6499068737030029,-0.8716721534729004,0.01480786277264489,4.450168137499284,0.1369148750385018,,,,,,
8,4,-0.7777982354164125,-0.034977175295352936,9.789403915405273,0.007210355252027512,-0.0034499848261475563,0.006402607541531325,-0.4609744846820832,0.6499068737030029,-0.8716721534729004,0.01480786277264489,4.450168137499284,0.1369148750385018,,,,,,
8,5,-0.7864395380020142,-0.08145123720169067,9.778872489929201,0.007853287272155287,-0.0029344079084694386,0.003652650862932205,-0.46294024586677557,0.6494711637496948,-0.8736930489540101,0.02005356726685779,4.447540579178851,0.14026219459854847,,,,,,
8,6,-0.7716255187988281,-0.06075773760676385,9.77725124359131,0.010517628863453865,-0.0031273218337446456,0.0006913718534633517,-0.4614275991916657,0.6474810242652894,-0.872229039669037,0.024442811983820586,4.446331438111014,0.1401540834718598,,,,,,
8,7,-0.7716255187988281,-0.06075773760676385,9.77725124359131,0.010517628863453865,-0.0031273218337446456,0.0006913718534633517,-0.4614275991916657,0.6474810242652894,-0.872229039669037,0.024442811983820586,4.446331438111014,0.1401540834718598,,,,,,
8,8,-0.7585784196853638,-0.04767551273107529,9.789168357849123,0.004753502085804939,-0.006403788458555938,0.0055715017952024945,-0.4628624022006989,0.648450493812561,-0.8711907863616943,0.032390022063718285,4.441082072695888,0.14574077432595847,,,,,,
8,9,-0.7585784196853638,-0.04767551273107529,9.789168357849123,0.004753502085804939,-0.006403788458555938,0.0055715017952024945,-0.4628624022006989,0.648450493812561,-0.8711907863616943,0.032390022063718285,4.441082072695888,0.14574077432595847,,,,,,
8,10,-0.7585784196853638,-0.04767551273107529,9.789168357849123,0.004753502085804939,-0.006403788458555938,0.0055715017952024945,-0.4628624022006989,0.648450493812561,-0.8711907863616943,0.032390022063718285,4.441082072695888,0.14574077432595847,,,,,,
8,11,-0.7491685152053833,-0.061105482280254364,9.764883995056154,0.009956977330148222,-0.004813068080693484,0.0031902906484901905,-0.46053892374038696,0.6489723920822144,-0.8742202520370483,0.03981535014921854,4.436968719033974,0.14774822020019515,,,,,,
8,12,-0.7320421338081361,-0.07061770558357239,9.782329559326172,0.0092364763841033,-0.003575144335627556,0.004765421617776156,-0.46051850914955145,0.6484756469726562,-0.8737263679504395,0.043504472514354166,4.4354432739533145,0.14993406739658222,,,,,,
8,13,-0.7320421338081361,-0.07061770558357239,9.782329559326172,0.0092364763841033,-0.003575144335627556,0.004765421617776156,-0.46051850914955145,0.6484756469726562,-0.8737263679504395,0.043504472514354166,4.4354432739533145,0.14993406739658222,,,,,,
8,14,-0.7088648080825806,-0.0856008231639862,9.780009269714357,0.008377796970307829,-0.003555416129529476,0.0020277160219848156,-0.46198225021362305,0.6489843726158143,-0.8742133378982544,0.04654381475032468,4.4338983301204475,0.15053464877732478,,,,,,
8,15,-0.793411374092102,-0.0735277384519577,9.77694320678711,0.00846082903444767,-0.0030763642862439156,0.0038628487382084136,-0.46048057079315186,0.6513391137123109,-0.8701274394989014,0.05308381535380989,4.430983136150056,0.15352380589075043,,,,,,
8,16,-0.7892003059387207,-0.07193055003881456,9.779991149902344,0.008915011771023275,-0.0030990582890808582,0.0029816729947924614,-0.462430626153946,0.6484825611114502,-0.8732123374938965,0.05956499227993917,4.4283140449045595,0.15668762491677568,,,,,,
8,17,-0.7892003059387207,-0.07193055003881456,9.779991149902344,0.008915011771023275,-0.0030990582890808582,0.0029816729947924614,-0.462430626153946,0.6484825611114502,-0.8732123374938965,0.05956499227993917,4.4283140449045595,0.15668762491677568,,,,,,
8,18,-0.7892003059387207,-0.07193055003881456,9.779991149902344,0.008915011771023275,-0.0030990582890808582,0.0029816729947924614,-0.462430626153946,0.6484825611114502,-0.8732123374938965,0.05956499227993917,4.4283140449045595,0.15668762491677568,,,,,,
8,19,-0.8309152722358705,-0.07169906049966814,9.774492263793945,0.00981723889708519,-0.0007058908813633026,0.004562774673104286,-0.46194523572921753,0.6489573121070863,-0.8726989626884462,0.06332879970927616,4.428416290399206,0.15868083348829842,,,,,,
8,20,-0.9050163626670839,-0.05875290185213089,9.780877113342287,0.010828712955117226,-0.0015724643599241972,0.006760966498404742,-0.4614437222480774,0.6484565734863281,-0.8722072839736938,0.06773608677916941,4.428074480461522,0.1619273994501018,,,,,,
8,21,-0.8870349526405336,-0.03455762192606927,9.771142959594727,0.01169406156986952,-0.005400214344263077,0.00162413134239614,-0.45953917503356934,0.6503826379776001,-0.8716682195663452,0.07562212770549864,4.423970764212233,0.16267889823648107,,,,,,
8,22,-0.8870349526405336,-0.03455762192606927,9.771142959594727,0.01169406156986952,-0.005400214344263077,0.00162413134239614,-0.45953917503356934,0.6503826379776001,-0.8716682195663452,0.07562212770549864,4.423970764212233,0.16267889823648107,,,,,,
9,0,-0.7777982354164125,-0.034977175295352936,9.789403915405273,0.007210355252027512,-0.0034499848261475563,0.006402607541531325,-0.4609744846820832,0.6499068737030029,-0.8716721534729004,0.01480786277264489,4.450168137499284,0.1369148750385018,,,,,,
9,1,-0.7777982354164125,-0.034977175295352936,9.789403915405273,0.007210355252027512,-0.0034499848261475563,0.006402607541531325,-0.4609744846820832,0.6499068737030029,-0.8716721534729004,0.01480786277264489,4.450168137499284,0.1369148750385018,,,,,,
9,2,-0.7777982354164125,-0.034977175295352936,9.789403915405273,0.007210355252027512,-0.0034499848261475563,0.006402607541531325,-0.4609744846820832,0.6499068737030029,-0.8716721534729004,0.01480786277264489,4.450168137499284,0.1369148750385018,,,,,,
9,3,-0.7777982354164125,-0.034977175295352936,9.789403915405273,0.007210355252027512,-0.0034499848261475563,0.006402607541531325,-0.4609744846820832,0.6499068737030029,-0.8716721534729004,0.01480786277264489,4.450168137499284,0.1369148750385018,,,,,,
9,4,-0.7777982354164125,-0.034977175295352936,9.789403915405273,0.007210355252027512,-0.0034499848261475563,0.006402607541531325,-0.4609744846820832,0.6499068737030029,-0.8716721534729004,0.01480786277264489,4.450168137499284,0.1369148750385018,,,,,,
9,5,-0.7864395380020142,-0.08145123720169067,9.778872489929201,0.007853287272155287,-0.0029344079084694386,0.003652650862932205,-0.46294024586677557,0.6494711637496948,-0.8736930489540101,0.02005356726685779,4.447540579178851,0.14026219459854847,,,,,,
9,6,-0.7716255187988281,-0.06075773760676385,9.77725124359131,0.010517628863453865,-0.0031273218337446456,0.0006913718534633517,-0.4614275991916657,0.6474810242652894,-0.872229039669037,0.024442811983820586,4.446331438111014,0.1401540834718598,,,,,,
9,7,-0.7716255187988281,-0.06075773760676385,9.77725124359131,0.010517628863453865,-0.0031273218337446456,0.0006913718534633517,-0.4614275991916657,0.6474810242652894,-0.872229039669037,0.024442811983820586,4.446331438111014,0.1401540834718598,,,,,,
9,8,-0.7585784196853638,-0.04767551273107529,9.789168357849123,0.004753502085804939,-0.006403788458555938,0.0055715017952024945,-0.4628624022006989,0.648450493812561,-0.8711907863616943,0.032390022063718285,4.441082072695888,0.14574077432595847,,,,,,
9,9,-0.7585784196853638,-0.04767551273107529,9.789168357849123,0.004753502085804939,-0.006403788458555938,0.0055715017952024945,-0.4628624022006989,0.648450493812561,-0.8711907863616943,0.032390022063718285,4.441082072695888,0.14574077432595847,,,,,,
9,10,-0.7585784196853638,-0.04767551273107529,9.789168357849123,0.004753502085804939,-0.006403788458555938,0.0055715017952024945,-0.4628624022006989,0.648450493812561,-0.8711907863616943,0.032390022063718285,4.441082072695888,0.14574077432595847,,,,,,
9,11,-0.7491685152053833,-0.061105482280254364,9.764883995056154,0.009956977330148222,-0.004813068080693484,0.0031902906484901905,-0.46053892374038696,0.6489723920822144,-0.8742202520370483,0.03981535014921854,4.436968719033974,0.14774822020019515,,,,,,
9,12,-0.7320421338081361,-0.07061770558357239,9.782329559326172,0.0092364763841033,-0.003575144335627556,0.004765421617776156,-0.46051850914955145,0.6484756469726562,-0.8737263679504395,0.043504472514354166,4.4354432739533145,0.14993406739658222,,,,,,
9,13,-0.7320421338081361,-0.07061770558357239,9.782329559326172,0.0092364763841033,-0.003575144335627556,0.004765421617776156,-0.46051850914955145,0.6484756469726562,-0.8737263679504395,0.043504472514354166,4.4354432739533145,0.14993406739658222,,,,,,
9,14,-0.7088648080825806,-0.0856008231639862,9.780009269714357,0.008377796970307829,-0.003555416129529476,0.0020277160219848156,-0.46198225021362305,0.6489843726158143,-0.8742133378982544,0.04654381475032468,4.4338983301204475,0.15053464877732478,,,,,,
9,15,-0.793411374092102,-0.0735277384519577,9.77694320678711,0.00846082903444767,-0.0030763642862439156,0.0038628487382084136,-0.46048057079315186,0.6513391137123109,-0.8701274394989014,0.05308381535380989,4.430983136150056,0.15352380589075043,,,,,,
9,16,-0.7892003059387207,-0.07193055003881456,9.779991149902344,0.008915011771023275,-0.0030990582890808582,0.0029816729947924614,-0.462430626153946,0.6484825611114502,-0.8732123374938965,0.05956499227993917,4.4283140449045595,0.15668762491677568,,,,,,
9,17,-0.7892003059387207,-0.07193055003881456,9.779991149902344,0.008915011771023275,-0.0030990582890808582,0.0029816729947924614,-0.462430626153946,0.6484825611114502,-0.8732123374938965,0.05956499227993917,4.4283140449045595,0.15668762491677568,,,,,,
9,18,-0.7892003059387207,-0.07193055003881456,9.779991149902344,0.008915011771023275,-0.0030990582890808582,0.0029816729947924614,-0.462430626153946,0.6484825611114502,-0.8732123374938965,0.05956499227993917,4.4283140449045595,0.15668762491677568,,,,,,
9,19,-0.8309152722358705,-0.07169906049966814,9.774492263793945,0.00981723889708519,-0.0007058908813633026,0.004562774673104286,-0.46194523572921753,0.6489573121070863,-0.8726989626884462,0.06332879970927616,4.428416290399206,0.15868083348829842,,,,,,
9,20,-0.9050163626670839,-0.05875290185213089,9.780877113342287,0.010828712955117226,-0.0015724643599241972,0.006760966498404742,-0.4614437222480774,0.6484565734863281,-0.8722072839736938,0.06773608677916941,4.428074480461522,0.1619273994501018,,,,,,
9,21,-0.8870349526405336,-0.03455762192606927,9.771142959594727,0.01169406156986952,-0.005400214344263077,0.00162413134239614,-0.45953917503356934,0.6503826379776001,-0.8716682195663452,0.07562212770549864,4.423970764212233,0.16267889823648107,,,,,,
9,22,-0.8870349526405336,-0.03455762192606927,9.771142959594727,0.01169406156986952,-0.005400214344263077,0.00162413134239614,-0.45953917503356934,0.6503826379776001,-0.8716682195663452,0.07562212770549864,4.423970764212233,0.16267889823648107,,,,,,
10,0,-0.7777982354164125,-0.034977175295352936,9.789403915405273,0.007210355252027512,-0.0034499848261475563,0.006402607541531325,-0.4609744846820832,0.6499068737030029,-0.8716721534729004,0.01480786277264489,4.450168137499284,0.1369148750385018,,,,,,
10,1,-0.7777982354164125,-0.034977175295352936,9.789403915405273,0.007210355252027512,-0.0034499848261475563,0.006402607541531325,-0.4609744846820832,0.6499068737030029,-0.8716721534729004,0.01480786277264489,4.450168137499284,0.1369148750385018,,,,,,
10,2,-0.7777982354164125,-0.034977175295352936,9.789403915405273,0.007210355252027512,-0.0034499848261475563,0.006402607541531325,-0.4609744846820832,0.6499068737030029,-0.8716721534729004,0.01480786277264489,4.450168137499284,0.1369148750385018,,,,,,
10,3,-0.7777982354164125,-0.034977175295352936,9.789403915405273,0.007210355252027512,-0.0034499848261475563,0.006402607541531325,-0.4609744846820832,0.6499068737030029,-0.8716721534729004,0.01480786277264489,4.450168137499284,0.1369148750385018,,,,,,
10,4,-0.7777982354164125,-0.034977175295352936,9.789403915405273,0.007210355252027512,-0.0034499848261475563,0.006402607541531325,-0.4609744846820832,0.6499068737030029,-0.8716721534729004,0.01480786277264489,4.450168137499284,0.1369148750385018,,,,,,
10,5,-0.7864395380020142,-0.08145123720169067,9.778872489929201,0.007853287272155287,-0.0029344079084694386,0.003652650862932205,-0.46294024586677557,0.6494711637496948,-0.8736930489540101,0.02005356726685779,4.447540579178851,0.14026219459854847,,,,,,
10,6,-0.7716255187988281,-0.06075773760676385,9.77725124359131,0.010517628863453865,-0.0031273218337446456,0.0006913718534633517,-0.4614275991916657,0.6474810242652894,-0.872229039669037,0.024442811983820586,4.446331438111014,0.1401540834718598,,,,,,
10,7,-0.7716255187988281,-0.06075773760676385,9.77725124359131,0.010517628863453865,-0.0031273218337446456,0.0006913718534633517,-0.4614275991916657,0.6474810242652894,-0.872229039669037,0.024442811983820586,4.446331438111014,0.1401540834718598,,,,,,
10,8,-0.7585784196853638,-0.04767551273107529,9.789168357849123,0.004753502085804939,-0.006403788458555938,0.0055715017952024945,-0.4628624022006989,0.648450493812561,-0.8711907863616943,0.032390022063718285,4.441082072695888,0.14574077432595847,,,,,,
10,9,-0.7585784196853638,-0.04767551273107529,9.789168357849123,0.004753502085804939,-0.006403788458555938,0.0055715017952024945,-0.4628624022006989,0.648450493812561,-0.8711907863616943,0.032390022063718285,4.441082072695888,0.14574077432595847,,,,,,
10,10,-0.7585784196853638,-0.04767551273107529,9.789168357849123,0.004753502085804939,-0.006403788458555938,0.0055715017952024945,-0.4628624022006989,0.648450493812561,-0.8711907863616943,0.032390022063718285,4.441082072695888,0.14574077432595847,,,,,,
10,11,-0.7491685152053833,-0.061105482280254364,9.764883995056154,0.009956977330148222,-0.004813068080693484,0.0031902906484901905,-0.46053892374038696,0.6489723920822144,-0.8742202520370483,0.03981535014921854,4.436968719033974,0.14774822020019515,,,,,,
10,12,-0.7320421338081361,-0.07061770558357239,9.782329559326172,0.0092364763841033,-0.003575144335627556,0.004765421617776156,-0.46051850914955145,0.6484756469726562,-0.8737263679504395,0.043504472514354166,4.4354432739533145,0.14993406739658222,,,,,,
10,13,-0.7320421338081361,-0.07061770558357239,9.782329559326172,0.0092364763841033,-0.003575144335627556,0.004765421617776156,-0.46051850914955145,0.6484756469726562,-0.8737263679504395,0.043504472514354166,4.4354432739533145,0.14993406739658222,,,,,,
10,14,-0.7088648080825806,-0.0856008231639862,9.780009269714357,0.008377796970307829,-0.003555416129529476,0.0020277160219848156,-0.46198225021362305,0.6489843726158143,-0.8742133378982544,0.04654381475032468,4.4338983301204475,0.15053464877732478,,,,,,
10,15,-0.793411374092102,-0.0735277384519577,9.77694320678711,0.00846082903444767,-0.0030763642862439156,0.0038628487382084136,-0.46048057079315186,0.6513391137123109,-0.8701274394989014,0.05308381535380989,4.430983136150056,0.15352380589075043,,,,,,
10,16,-0.7892003059387207,-0.07193055003881456,9.779991149902344,0.008915011771023275,-0.0030990582890808582,0.0029816729947924614,-0.462430626153946,0.6484825611114502,-0.8732123374938965,0.05956499227993917,4.4283140449045595,0.15668762491677568,,,,,,
10,17,-0.7892003059387207,-0.07193055003881456,9.779991149902344,0.008915011771023275,-0.0030990582890808582,0.0029816729947924614,-0.462430626153946,0.6484825611114502,-0.8732123374938965,0.05956499227993917,4.4283140449045595,0.15668762491677568,,,,,,
10,18,-0.7892003059387207,-0.07193055003881456,9.779991149902344,0.008915011771023275,-0.0030990582890808582,0.0029816729947924614,-0.462430626153946,0.6484825611114502,-0.8732123374938965,0.05956499227993917,4.4283140449045595,0.15668762491677568,,,,,,
10,19,-0.8309152722358705,-0.07169906049966814,9.774492263793945,0.00981723889708519,-0.0007058908813633026,0.004562774673104286,-0.46194523572921753,0.6489573121070863,-0.8726989626884462,0.06332879970927616,4.428416290399206,0.15868083348829842,,,,,,
10,20,-0.9050163626670839,-0.05875290185213089,9.780877113342287,0.010828712955117226,-0.0015724643599241972,0.006760966498404742,-0.4614437222480774,0.6484565734863281,-0.8722072839736938,0.06773608677916941,4.428074480461522,0.1619273994501018,,,,,,
10,21,-0.8870349526405336,-0.03455762192606927,9.771142959594727,0.01169406156986952,-0.005400214344263077,0.00162413134239614,-0.45953917503356934,0.6503826379776001,-0.8716682195663452,0.07562212770549864,4.423970764212233,0.16267889823648107,,,,,,
10,22,-0.8870349526405336,-0.03455762192606927,9.771142959594727,0.01169406156986952,-0.005400214344263077,0.00162413134239614,-0.45953917503356934,0.6503826379776001,-0.8716682195663452,0.07562212770549864,4.423970764212233,0.16267889823648107,,,,,,
11,0,-0.7777982354164125,-0.034977175295352936,9.789403915405273,0.007210355252027512,-0.0034499848261475563,0.006402607541531325,-0.4609744846820832,0.6499068737030029,-0.8716721534729004,0.01480786277264489,4.450168137499284,0.1369148750385018,,,,,,
11,1,-0.7777982354164125,-0.034977175295352936,9.789403915405273,0.007210355252027512,-0.0034499848261475563,0.006402607541531325,-0.4609744846820832,0.6499068737030029,-0.8716721534729004,0.01480786277264489,4.450168137499284,0.1369148750385018,,,,,,
11,2,-0.7777982354164125,-0.034977175295352936,9.789403915405273,0.007210355252027512,-0.0034499848261475563,0.006402607541531325,-0.4609744846820832,0.6499068737030029,-0.8716721534729004,0.01480786277264489,4.450168137499284,0.1369148750385018,,,,,,
11,3,-0.7777982354164125,-0.034977175295352936,9.789403915405273,0.007210355252027512,-0.0034499848261475563,0.006402607541531325,-0.4609744846820832,0.6499068737030029,-0.8716721534729004,0.01480786277264489,4.450168137499284,0.1369148750385018,,,,,,
11,4,-0.7777982354164125,-0.034977175295352936,9.789403915405273,0.007210355252027512,-0.0034499848261475563,0.006402607541531325,-0.4609744846820832,0.6499068737030029,-0.8716721534729004,0.01480786277264489,4.450168137499284,0.1369148750385018,,,,,,
11,5,-0.7864395380020142,-0.08145123720169067,9.778872489929201,0.007853287272155287,-0.0029344079084694386,0.003652650862932205,-0.46294024586677557,0.6494711637496948,-0.8736930489540101,0.02005356726685779,4.447540579178851,0.14026219459854847,,,,,,
11,6,-0.7716255187988281,-0.06075773760676385,9.77725124359131,0.010517628863453865,-0.0031273218337446456,0.0006913718534633517,-0.4614275991916657,0.6474810242652894,-0.872229039669037,0.024442811983820586,4.446331438111014,0.1401540834718598,,,,,,
11,7,-0.7716255187988281,-0.06075773760676385,9.77725124359131,0.010517628863453865,-0.0031273218337446456,0.0006913718534633517,-0.4614275991916657,0.6474810242652894,-0.872229039669037,0.024442811983820586,4.446331438111014,0.1401540834718598,,,,,,
11,8,-0.7585784196853638,-0.04767551273107529,9.789168357849123,0.004753502085804939,-0.006403788458555938,0.0055715017952024945,-0.4628624022006989,0.648450493812561,-0.8711907863616943,0.032390022063718285,4.441082072695888,0.14574077432595847,,,,,,
11,9,-0.7585784196853638,-0.04767551273107529,9.789168357849123,0.004753502085804939,-0.006403788458555938,0.0055715017952024945,-0.4628624022006989,0.648450493812561,-0.8711907863616943,0.032390022063718285,4.441082072695888,0.14574077432595847,,,,,,
11,10,-0.7585784196853638,-0.04767551273107529,9.789168357849123,0.004753502085804939,-0.006403788458555938,0.0055715017952024945,-0.4628624022006989,0.648450493812561,-0.8711907863616943,0.032390022063718285,4.441082072695888,0.14574077432595847,,,,,,
11,11,-0.7491685152053833,-0.061105482280254364,9.764883995056154,0.009956977330148222,-0.004813068080693484,0.0031902906484901905,-0.46053892374038696,0.6489723920822144,-0.8742202520370483,0.03981535014921854,4.436968719033974,0.14774822020019515,,,,,,
11,12,-0.7320421338081361,-0.07061770558357239,9.782329559326172,0.0092364763841033,-0.003575144335627556,0.004765421617776156,-0.46051850914955145,0.6484756469726562,-0.8737263679504395,0.043504472514354166,4.4354432739533145,0.14993406739658222,,,,,,
11,13,-0.7320421338081361,-0.07061770558357239,9.782329559326172,0.0092364763841033,-0.003575144335627556,0.004765421617776156,-0.46051850914955145,0.6484756469726562,-0.8737263679504395,0.043504472514354166,4.4354432739533145,0.14993406739658222,,,,,,
11,14,-0.7088648080825806,-0.0856008231639862,9.780009269714357,0.008377796970307829,-0.003555416129529476,0.0020277160219848156,-0.46198225021362305,0.6489843726158143,-0.8742133378982544,0.04654381475032468,4.4338983301204475,0.15053464877732478,,,,,,
11,15,-0.793411374092102,-0.0735277384519577,9.77694320678711,0.00846082903444767,-0.0030763642862439156,0.0038628487382084136,-0.46048057079315186,0.6513391137123109,-0.8701274394989014,0.05308381535380989,4.430983136150056,0.15352380589075043,,,,,,
11,16,-0.7892003059387207,-0.07193055003881456,9.779991149902344,0.008915011771023275,-0.0030990582890808582,0.0029816729947924614,-0.462430626153946,0.6484825611114502,-0.8732123374938965,0.05956499227993917,4.4283140449045595,0.15668762491677568,,,,,,
11,17,-0.7892003059387207,-0.07193055003881456,9.779991149902344,0.008915011771023275,-0.0030990582890808582,0.0029816729947924614,-0.462430626153946,0.6484825611114502,-0.8732123374938965,0.05956499227993917,4.4283140449045595,0.15668762491677568,,,,,,
11,18,-0.7892003059387207,-0.07193055003881456,9.779991149902344,0.008915011771023275,-0.0030990582890808582,0.0029816729947924614,-0.462430626153946,0.6484825611114502,-0.8732123374938965,0.05956499227993917,4.4283140449045595,0.15668762491677568,,,,,,
11,19,-0.8309152722358705,-0.07169906049966814,9.774492263793945,0.00981723889708519,-0.0007058908813633026,0.004562774673104286,-0.46194523572921753,0.6489573121070863,-0.8726989626884462,0.06332879970927616,4.428416290399206,0.15868083348829842,,,,,,
11,20,-0.9050163626670839,-0.05875290185213089,9.780877113342287,0.010828712955117226,-0.0015724643599241972,0.006760966498404742,-0.4614437222480774,0.6484565734863281,-0.8722072839736938,0.06773608677916941,4.428074480461522,0.1619273994501018,,,,,,
11,21,-0.8870349526405336,-0.03455762192606927,9.771142959594727,0.01169406156986952,-0.005400214344263077,0.00162413134239614,-0.45953917503356934,0.6503826379776001,-0.8716682195663452,0.07562212770549864,4.423970764212233,0.16267889823648107,,,,,,
11,22,-0.8870349526405336,-0.03455762192606927,9.771142959594727,0.01169406156986952,-0.005400214344263077,0.00162413134239614,-0.45953917503356934,0.6503826379776001,-0.8716682195663452,0.07562212770549864,4.423970764212233,0.16267889823648107,,,,,,
12,0,-0.7777982354164125,-0.034977175295352936,9.789403915405273,0.007210355252027512,-0.0034499848261475563,0.006402607541531325,-0.4609744846820832,0.6499068737030029,-0.8716721534729004,0.01480786277264489,4.450168137499284,0.1369148750385018,,,,,,
12,1,-0.7777982354164125,-0.034977175295352936,9.789403915405273,0.007210355252027512,-0.0034499848261475563,0.006402607541531325,-0.4609744846820832,0.6499068737030029,-0.8716721534729004,0.01480786277264489,4.450168137499284,0.1369148750385018,,,,,,
12,2,-0.7777982354164125,-0.034977175295352936,9.789403915405273,0.007210355252027512,-0.0034499848261475563,0.006402607541531325,-0.4609744846820832,0.6499068737030029,-0.8716721534729004,0.01480786277264489,4.450168137499284,0.1369148750385018,,,,,,
12,3,-0.7777982354164125,-0.034977175295352936,9.789403915405273,0.007210355252027512,-0.0034499848261475563,0.006402607541531325,-0.4609744846820832,0.6499068737030029,-0.8716721534729004,0.01480786277264489,4.450168137499284,0.1369148750385018,,,,,,
12,4,-0.7777982354164125,-0.034977175295352936,9.789403915405273,0.007210355252027512,-0.0034499848261475563,0.006402607541531325,-0.4609744846820832,0.6499068737030029,-0.8716721534729004,0.01480786277264489,4.450168137499284,0.1369148750385018,,,,,,
12,5,-0.7864395380020142,-0.08145123720169067,9.778872489929201,0.007853287272155287,-0.0029344079084694386,0.003652650862932205,-0.46294024586677557,0.6494711637496948,-0.8736930489540101,0.02005356726685779,4.447540579178851,0.14026219459854847,,,,,,
12,6,-0.7716255187988281,-0.06075773760676385,9.77725124359131,0.010517628863453865,-0.0031273218337446456,0.0006913718534633517,-0.4614275991916657,0.6474810242652894,-0.872229039669037,0.024442811983820586,4.446331438111014,0.1401540834718598,,,,,,
12,7,-0.7716255187988281,-0.06075773760676385,9.77725124359131,0.010517628863453865,-0.0031273218337446456,0.0006913718534633517,-0.4614275991916657,0.6474810242652894,-0.872229039669037,0.024442811983820586,4.446331438111014,0.1401540834718598,,,,,,
12,8,-0.7585784196853638,-0.04767551273107529,9.789168357849123,0.004753502085804939,-0.006403788458555938,0.0055715017952024945,-0.4628624022006989,0.648450493812561,-0.8711907863616943,0.032390022063718285,4.441082072695888,0.14574077432595847,,,,,,
12,9,-0.7585784196853638,-0.04767551273107529,9.789168357849123,0.004753502085804939,-0.006403788458555938,0.0055715017952024945,-0.4628624022006989,0.648450493812561,-0.8711907863616943,0.032390022063718285,4.441082072695888,0.14574077432595847,,,,,,
12,10,-0.7585784196853638,-0.04767551273107529,9.789168357849123,0.004753502085804939,-0.006403788458555938,0.0055715017952024945,-0.4628624022006989,0.648450493812561,-0.8711907863616943,0.032390022063718285,4.441082072695888,0.14574077432595847,,,,,,
12,11,-0.7491685152053833,-0.061105482280254364,9.764883995056154,0.009956977330148222,-0.004813068080693484,0.0031902906484901905,-0.46053892374038696,0.6489723920822144,-0.8742202520370483,0.03981535014921854,4.436968719033974,0.14774822020019515,,,,,,
12,12,-0.7320421338081361,-0.07061770558357239,9.782329559326172,0.0092364763841033,-0.003575144335627556,0.004765421617776156,-0.46051850914955145,0.6484756469726562,-0.8737263679504395,0.043504472514354166,4.4354432739533145,0.14993406739658222,,,,,,
12,13,-0.7320421338081361,-0.07061770558357239,9.782329559326172,0.0092364763841033,-0.003575144335627556,0.004765421617776156,-0.46051850914955145,0.6484756469726562,-0.8737263679504395,0.043504472514354166,4.4354432739533145,0.14993406739658222,,,,,,
12,14,-0.7088648080825806,-0.0856008231639862,9.780009269714357,0.008377796970307829,-0.003555416129529476,0.0020277160219848156,-0.46198225021362305,0.6489843726158143,-0.8742133378982544,0.04654381475032468,4.4338983301204475,0.15053464877732478,,,,,,
12,15,-0.793411374092102,-0.0735277384519577,9.77694320678711,0.00846082903444767,-0.0030763642862439156,0.0038628487382084136,-0.46048057079315186,0.6513391137123109,-0.8701274394989014,0.05308381535380989,4.430983136150056,0.15352380589075043,,,,,,
12,16,-0.7892003059387207,-0.07193055003881456,9.779991149902344,0.008915011771023275,-0.0030990582890808582,0.0029816729947924614,-0.462430626153946,0.6484825611114502,-0.8732123374938965,0.05956499227993917,4.4283140449045595,0.15668762491677568,,,,,,
12,17,-0.7892003059387207,-0.07193055003881456,9.779991149902344,0.008915011771023275,-0.0030990582890808582,0.0029816729947924614,-0.462430626153946,0.6484825611114502,-0.8732123374938965,0.05956499227993917,4.4283140449045595,0.15668762491677568,,,,,,
12,18,-0.7892003059387207,-0.07193055003881456,9.779991149902344,0.008915011771023275,-0.0030990582890808582,0.0029816729947924614,-0.462430626153946,0.6484825611114502,-0.8732123374938965,0.05956499227993917,4.4283140449045595,0.15668762491677568,,,,,,
12,19,-0.8309152722358705,-0.07169906049966814,9.774492263793945,0.00981723889708519,-0.0007058908813633026,0.004562774673104286,-0.46194523572921753,0.6489573121070863,-0.8726989626884462,0.06332879970927616,4.428416290399206,0.15868083348829842,,,,,,
12,20,-0.9050163626670839,-0.05875290185213089,9.780877113342287,0.010828712955117226,-0.0015724643599241972,0.006760966498404742,-0.4614437222480774,0.6484565734863281,-0.8722072839736938,0.06773608677916941,4.428074480461522,0.1619273994501018,,,,,,
12,21,-0.8870349526405336,-0.03455762192606927,9.771142959594727,0.01169406156986952,-0.005400214344263077,0.00162413134239614,-0.45953917503356934,0.6503826379776001,-0.8716682195663452,0.07562212770549864,4.423970764212233,0.16267889823648107,,,,,,
12,22,-0.8870349526405336,-0.03455762192606927,9.771142959594727,0.01169406156986952,-0.005400214344263077,0.00162413134239614,-0.45953917503356934,0.6503826379776001,-0.8716682195663452,0.07562212770549864,4.423970764212233,0.16267889823648107,,,,,,
13,0,-0.7777982354164125,-0.034977175295352936,9.789403915405273,0.007210355252027512,-0.0034499848261475563,0.006402607541531325,-0.4609744846820832,0.6499068737030029,-0.8716721534729004,0.01480786277264489,4.450168137499284,0.1369148750385018,,,,,,
13,1,-0.7777982354164125,-0.034977175295352936,9.789403915405273,0.007210355252027512,-0.0034499848261475563,0.006402607541531325,-0.4609744846820832,0.6499068737030029,-0.8716721534729004,0.01480786277264489,4.450168137499284,0.1369148750385018,,,,,,
13,2,-0.7777982354164125,-0.034977175295352936,9.789403915405273,0.007210355252027512,-0.0034499848261475563,0.006402607541531325,-0.4609744846820832,0.6499068737030029,-0.8716721534729004,0.01480786277264489,4.450168137499284,0.1369148750385018,,,,,,
13,3,-0.7777982354164125,-0.034977175295352936,9.789403915405273,0.007210355252027512,-0.0034499848261475563,0.006402607541531325,-0.4609744846820832,0.6499068737030029,-0.8716721534729004,0.01480786277264489,4.450168137499284,0.1369148750385018,,,,,,
13,4,-0.7777982354164125,-0.034977175295352936,9.789403915405273,0.007210355252027512,-0.0034499848261475563,0.006402607541531325,-0.4609744846820832,0.6499068737030029,-0.8716721534729004,0.01480786277264489,4.450168137499284,0.1369148750385018,,,,,,
13,5,-0.7864395380020142,-0.08145123720169067,9.778872489929201,0.007853287272155287,-0.0029344079084694386,0.003652650862932205,-0.46294024586677557,0.6494711637496948,-0.8736930489540101,0.02005356726685779,4.447540579178851,0.14026219459854847,,,,,,
13,6,-0.7716255187988281,-0.06075773760676385,9.77725124359131,0.010517628863453865,-0.0031273218337446456,0.0006913718534633517,-0.4614275991916657,0.6474810242652894,-0.872229039669037,0.024442811983820586,4.446331438111014,0.1401540834718598,,,,,,
13,7,-0.7716255187988281,-0.06075773760676385,9.77725124359131,0.010517628863453865,-0.0031273218337446456,0.0006913718534633517,-0.4614275991916657,0.6474810242652894,-0.872229039669037,0.024442811983820586,4.446331438111014,0.1401540834718598,,,,,,
13,8,-0.7585784196853638,-0.04767551273107529,9.789168357849123,0.004753502085804939,-0.006403788458555938,0.0055715017952024945,-0.4628624022006989,0.648450493812561,-0.8711907863616943,0.032390022063718285,4.441082072695888,0.14574077432595847,,,,,,
13,9,-0.7585784196853638,-0.04767551273107529,9.789168357849123,0.004753502085804939,-0.006403788458555938,0.0055715017952024945,-0.4628624022006989,0.648450493812561,-0.8711907863616943,0.032390022063718285,4.441082072695888,0.14574077432595847,,,,,,
13,10,-0.7585784196853638,-0.04767551273107529,9.789168357849123,0.004753502085804939,-0.006403788458555938,0.0055715017952024945,-0.4628624022006989,0.648450493812561,-0.8711907863616943,0.032390022063718285,4.441082072695888,0.14574077432595847,,,,,,
13,11,-0.7491685152053833,-0.061105482280254364,9.764883995056154,0.009956977330148222,-0.004813068080693484,0.0031902906484901905,-0.46053892374038696,0.6489723920822144,-0.8742202520370483,0.03981535014921854,4.436968719033974,0.14774822020019515,,,,,,
13,12,-0.7320421338081361,-0.07061770558357239,9.782329559326172,0.0092364763841033,-0.003575144335627556,0.004765421617776156,-0.46051850914955145,0.6484756469726562,-0.8737263679504395,0.043504472514354166,4.4354432739533145,0.14993406739658222,,,,,,
13,13,-0.7320421338081361,-0.07061770558357239,9.782329559326172,0.0092364763841033,-0.003575144335627556,0.004765421617776156,-0.46051850914955145,0.6484756469726562,-0.8737263679504395,0.043504472514354166,4.4354432739533145,0.14993406739658222,,,,,,
13,14,-0.7088648080825806,-0.0856008231639862,9.780009269714357,0.008377796970307829,-0.003555416129529476,0.0020277160219848156,-0.46198225021362305,0.6489843726158143,-0.8742133378982544,0.04654381475032468,4.4338983301204475,0.15053464877732478,,,,,,
13,15,-0.793411374092102,-0.0735277384519577,9.77694320678711,0.00846082903444767,-0.0030763642862439156,0.0038628487382084136,-0.46048057079315186,0.6513391137123109,-0.8701274394989014,0.05308381535380989,4.430983136150056,0.15352380589075043,,,,,,
13,16,-0.7892003059387207,-0.07193055003881456,9.779991149902344,0.008915011771023275,-0.0030990582890808582,0.0029816729947924614,-0.462430626153946,0.6484825611114502,-0.8732123374938965,0.05956499227993917,4.4283140449045595,0.15668762491677568,,,,,,
13,17,-0.7892003059387207,-0.07193055003881456,9.779991149902344,0.008915011771023275,-0.0030990582890808582,0.0029816729947924614,-0.462430626153946,0.6484825611114502,-0.8732123374938965,0.05956499227993917,4.4283140449045595,0.15668762491677568,,,,,,
13,18,-0.7892003059387207,-0.07193055003881456,9.779991149902344,0.008915011771023275,-0.0030990582890808582,0.0029816729947924614,-0.462430626153946,0.6484825611114502,-0.8732123374938965,0.05956499227993917,4.4283140449045595,0.15668762491677568,,,,,,
13,19,-0.8309152722358705,-0.07169906049966814,9.774492263793945,0.00981723889708519,-0.0007058908813633026,0.004562774673104286,-0.46194523572921753,0.6489573121070863,-0.8726989626884462,0.06332879970927616,4.428416290399206,0.15868083348829842,,,,,,
13,20,-0.9050163626670839,-0.05875290185213089,9.780877113342287,0.010828712955117226,-0.0015724643599241972,0.006760966498404742,-0.4614437222480774,0.6484565734863281,-0.8722072839736938,0.06773608677916941,4.428074480461522,0.1619273994501018,,,,,,
13,21,-0.8870349526405336,-0.03455762192606927,9.771142959594727,0.01169406156986952,-0.005400214344263077,0.00162413134239614,-0.45953917503356934,0.6503826379776001,-0.8716682195663452,0.07562212770549864,4.423970764212233,0.16267889823648107,,,,,,
13,22,-0.8870349526405336,-0.03455762192606927,9.771142959594727,0.01169406156986952,-0.005400214344263077,0.00162413134239614,-0.45953917503356934,0.6503826379776001,-0.8716682195663452,0.07562212770549864,4.423970764212233,0.16267889823648107,,,,,,
14,0,-0.7777982354164125,-0.034977175295352936,9.789403915405273,0.007210355252027512,-0.0034499848261475563,0.006402607541531325,-0.4609744846820832,0.6499068737030029,-0.8716721534729004,0.01480786277264489,4.450168137499284,0.1369148750385018,,,,,,
14,1,-0.7777982354164125,-0.034977175295352936,9.789403915405273,0.007210355252027512,-0.0034499848261475563,0.006402607541531325,-0.4609744846820832,0.6499068737030029,-0.8716721534729004,0.01480786277264489,4.450168137499284,0.1369148750385018,,,,,,
14,2,-0.7777982354164125,-0.034977175295352936,9.789403915405273,0.007210355252027512,-0.0034499848261475563,0.006402607541531325,-0.4609744846820832,0.6499068737030029,-0.8716721534729004,0.01480786277264489,4.450168137499284,0.1369148750385018,,,,,,
14,3,-0.7777982354164125,-0.034977175295352936,9.789403915405273,0.007210355252027512,-0.0034499848261475563,0.006402607541531325,-0.4609744846820832,0.6499068737030029,-0.8716721534729004,0.01480786277264489,4.450168137499284,0.1369148750385018,,,,,,
14,4,-0.7777982354164125,-0.034977175295352936,9.789403915405273,0.007210355252027512,-0.0034499848261475563,0.006402607541531325,-0.4609744846820832,0.6499068737030029,-0.8716721534729004,0.01480786277264489,4.450168137499284,0.1369148750385018,,,,,,
14,5,-0.7864395380020142,-0.08145123720169067,9.778872489929201,0.007853287272155287,-0.0029344079084694386,0.003652650862932205,-0.46294024586677557,0.6494711637496948,-0.8736930489540101,0.02005356726685779,4.447540579178851,0.14026219459854847,,,,,,
14,6,-0.7716255187988281,-0.06075773760676385,9.77725124359131,0.010517628863453865,-0.0031273218337446456,0.0006913718534633517,-0.4614275991916657,0.6474810242652894,-0.872229039669037,0.024442811983820586,4.446331438111014,0.1401540834718598,,,,,,
14,7,-0.7716255187988281,-0.06075773760676385,9.77725124359131,0.010517628863453865,-0.0031273218337446456,0.0006913718534633517,-0.4614275991916657,0.6474810242652894,-0.872229039669037,0.024442811983820586,4.446331438111014,0.1401540834718598,,,,,,
14,8,-0.7585784196853638,-0.04767551273107529,9.789168357849123,0.004753502085804939,-0.006403788458555938,0.0055715017952024945,-0.4628624022006989,0.648450493812561,-0.8711907863616943,0.032390022063718285,4.441082072695888,0.14574077432595847,,,,,,
14,9,-0.7585784196853638,-0.04767551273107529,9.789168357849123,0.004753502085804939,-0.006403788458555938,0.0055715017952024945,-0.4628624022006989,0.648450493812561,-0.8711907863616943,0.032390022063718285,4.441082072695888,0.14574077432595847,,,,,,
14,10,-0.7585784196853638,-0.04767551273107529,9.789168357849123,0.004753502085804939,-0.006403788458555938,0.0055715017952024945,-0.4628624022006989,0.648450493812561,-0.8711907863616943,0.032390022063718285,4.441082072695888,0.14574077432595847,,,,,,
14,11,-0.7491685152053833,-0.061105482280254364,9.764883995056154,0.009956977330148222,-0.004813068080693484,0.0031902906484901905,-0.46053892374038696,0.6489723920822144,-0.8742202520370483,0.03981535014921854,4.436968719033974,0.14774822020019515,,,,,,
14,12,-0.7320421338081361,-0.07061770558357239,9.782329559326172,0.0092364763841033,-0.003575144335627556,0.004765421617776156,-0.46051850914955145,0.6484756469726562,-0.8737263679504395,0.043504472514354166,4.4354432739533145,0.14993406739658222,,,,,,
14,13,-0.7320421338081361,-0.07061770558357239,9.782329559326172,0.0092364763841033,-0.003575144335627556,0.004765421617776156,-0.46051850914955145,0.6484756469726562,-0.8737263679504395,0.043504472514354166,4.4354432739533145,0.14993406739658222,,,,,,
14,14,-0.7088648080825806,-0.0856008231639862,9.780009269714357,0.008377796970307829,-0.003555416129529476,0.0020277160219848156,-0.46198225021362305,0.6489843726158143,-0.8742133378982544,0.04654381475032468,4.4338983301204475,0.15053464877732478,,,,,,
14,15,-0.793411374092102,-0.0735277384519577,9.77694320678711,0.00846082903444767,-0.0030763642862439156,0.0038628487382084136,-0.46048057079315186,0.6513391137123109,-0.8701274394989014,0.05308381535380989,4.430983136150056,0.15352380589075043,,,,,,
14,16,-0.7892003059387207,-0.07193055003881456,9.779991149902344,0.008915011771023275,-0.0030990582890808582,0.0029816729947924614,-0.462430626153946,0.6484825611114502,-0.8732123374938965,0.05956499227993917,4.4283140449045595,0.15668762491677568,,,,,,
14,17,-0.7892003059387207,-0.07193055003881456,9.779991149902344,0.008915011771023275,-0.0030990582890808582,0.0029816729947924614,-0.462430626153946,0.6484825611114502,-0.8732123374938965,0.05956499227993917,4.4283140449045595,0.15668762491677568,,,,,,
14,18,-0.7892003059387207,-0.07193055003881456,9.779991149902344,0.008915011771023275,-0.0030990582890808582,0.0029816729947924614,-0.462430626153946,0.6484825611114502,-0.8732123374938965,0.05956499227993917,4.4283140449045595,0.15668762491677568,,,,,,
14,19,-0.8309152722358705,-0.07169906049966814,9.774492263793945,0.00981723889708519,-0.0007058908813633026,0.004562774673104286,-0.46194523572921753,0.6489573121070863,-0.8726989626884462,0.06332879970927616,4.428416290399206,0.15868083348829842,,,,,,
14,20,-0.9050163626670839,-0.05875290185213089,9.780877113342287,0.010828712955117226,-0.0015724643599241972,0.006760966498404742,-0.4614437222480774,0.6484565734863281,-0.8722072839736938,0.06773608677916941,4.428074480461522,0.1619273994501018,,,,,,
14,21,-0.8870349526405336,-0.03455762192606927,9.771142959594727,0.01169406156986952,-0.005400214344263077,0.00162413134239614,-0.45953917503356934,0.6503826379776001,-0.8716682195663452,0.07562212770549864,4.423970764212233,0.16267889823648107,,,,,,
14,22,-0.8870349526405336,-0.03455762192606927,9.771142959594727,0.01169406156986952,-0.005400214344263077,0.00162413134239614,-0.45953917503356934,0.6503826379776001,-0.8716682195663452,0.07562212770549864,4.423970764212233,0.16267889823648107,,,,,,
15,0,-0.7777982354164125,-0.034977175295352936,9.789403915405273,0.007210355252027512,-0.0034499848261475563,0.006402607541531325,-0.4609744846820832,0.6499068737030029,-0.8716721534729004,0.01480786277264489,4.450168137499284,0.1369148750385018,,,,,,
15,1,-0.7777982354164125,-0.034977175295352936,9.789403915405273,0.007210355252027512,-0.0034499848261475563,0.006402607541531325,-0.4609744846820832,0.6499068737030029,-0.8716721534729004,0.01480786277264489,4.450168137499284,0.1369148750385018,,,,,,
15,2,-0.7777982354164125,-0.034977175295352936,9.789403915405273,0.007210355252027512,-0.0034499848261475563,0.006402607541531325,-0.4609744846820832,0.6499068737030029,-0.8716721534729004,0.01480786277264489,4.450168137499284,0.1369148750385018,,,,,,
15,3,-0.7777982354164125,-0.034977175295352936,9.789403915405273,0.007210355252027512,-0.0034499848261475563,0.006402607541531325,-0.4609744846820832,0.6499068737030029,-0.8716721534729004,0.01480786277264489,4.450168137499284,0.1369148750385018,,,,,,
15,4,-0.7777982354164125,-0.034977175295352936,9.789403915405273,0.007210355252027512,-0.0034499848261475563,0.006402607541531325,-0.4609744846820832,0.6499068737030029,-0.8716721534729004,0.01480786277264489,4.450168137499284,0.1369148750385018,,,,,,
15,5,-0.7864395380020142,-0.08145123720169067,9.778872489929201,0.007853287272155287,-0.0029344079084694386,0.003652650862932205,-0.46294024586677557,0.6494711637496948,-0.8736930489540101,0.02005356726685779,4.447540579178851,0.14026219459854847,,,,,,
15,6,-0.7716255187988281,-0.06075773760676385,9.77725124359131,0.010517628863453865,-0.0031273218337446456,0.0006913718534633517,-0.4614275991916657,0.6474810242652894,-0.872229039669037,0.024442811983820586,4.446331438111014,0.1401540834718598,,,,,,
15,7,-0.7716255187988281,-0.06075773760676385,9.77725124359131,0.010517628863453865,-0.0031273218337446456,0.0006913718534633517,-0.4614275991916657,0.6474810242652894,-0.872229039669037,0.024442811983820586,4.446331438111014,0.1401540834718598,,,,,,
15,8,-0.7585784196853638,-0.04767551273107529,9.789168357849123,0.004753502085804939,-0.006403788458555938,0.0055715017952024945,-0.4628624022006989,0.648450493812561,-0.8711907863616943,0.032390022063718285,4.441082072695888,0.14574077432595847,,,,,,
15,9,-0.7585784196853638,-0.04767551273107529,9.789168357849123,0.004753502085804939,-0.006403788458555938,0.0055715017952024945,-0.4628624022006989,0.648450493812561,-0.8711907863616943,0.032390022063718285,4.441082072695888,0.14574077432595847,,,,,,
15,10,-0.7585784196853638,-0.04767551273107529,9.789168357849123,0.004753502085804939,-0.006403788458555938,0.0055715017952024945,-0.4628624022006989,0.648450493812561,-0.8711907863616943,0.032390022063718285,4.441082072695888,0.14574077432595847,,,,,,
15,11,-0.7491685152053833,-0.061105482280254364,9.764883995056154,0.009956977330148222,-0.004813068080693484,0.0031902906484901905,-0.46053892374038696,0.6489723920822144,-0.8742202520370483,0.03981535014921854,4.436968719033974,0.14774822020019515,,,,,,
15,12,-0.7320421338081361,-0.07061770558357239,9.782329559326172,0.0092364763841033,-0.003575144335627556,0.004765421617776156,-0.46051850914955145,0.6484756469726562,-0.8737263679504395,0.043504472514354166,4.4354432739533145,0.14993406739658222,,,,,,
15,13,-0.7320421338081361,-0.07061770558357239,9.782329559326172,0.0092364763841033,-0.003575144335627556,0.004765421617776156,-0.46051850914955145,0.6484756469726562,-0.8737263679504395,0.043504472514354166,4.4354432739533145,0.14993406739658222,,,,,,
15,14,-0.7088648080825806,-0.0856008231639862,9.780009269714357,0.008377796970307829,-0.003555416129529476,0.0020277160219848156,-0.46198225021362305,0.6489843726158143,-0.8742133378982544,0.04654381475032468,4.4338983301204475,0.15053464877732478,,,,,,
15,15,-0.793411374092102,-0.0735277384519577,9.77694320678711,0.00846082903444767,-0.0030763642862439156,0.0038628487382084136,-0.46048057079315186,0.6513391137123109,-0.8701274394989014,0.05308381535380989,4.430983136150056,0.15352380589075043,,,,,,
15,16,-0.7892003059387207,-0.07193055003881456,9.779991149902344,0.008915011771023275,-0.0030990582890808582,0.0029816729947924614,-0.462430626153946,0.6484825611114502,-0.8732123374938965,0.05956499227993917,4.4283140449045595,0.15668762491677568,,,,,,
15,17,-0.7892003059387207,-0.07193055003881456,9.779991149902344,0.008915011771023275,-0.0030990582890808582,0.0029816729947924614,-0.462430626153946,0.6484825611114502,-0.8732123374938965,0.05956499227993917,4.4283140449045595,0.15668762491677568,,,,,,
15,18,-0.7892003059387207,-0.07193055003881456,9.779991149902344,0.008915011771023275,-0.0030990582890808582,0.0029816729947924614,-0.462430626153946,0.6484825611114502,-0.8732123374938965,0.05956499227993917,4.4283140449045595,0.15668762491677568,,,,,,
15,19,-0.8309152722358705,-0.07169906049966814,9.774492263793945,0.00981723889708519,-0.0007058908813633026,0.004562774673104286,-0.46194523572921753,0.6489573121070863,-0.8726989626884462,0.06332879970927616,4.428416290399206,0.15868083348829842,,,,,,
15,20,-0.9050163626670839,-0.05875290185213089,9.780877113342287,0.010828712955117226,-0.0015724643599241972,0.006760966498404742,-0.4614437222480774,0.6484565734863281,-0.8722072839736938,0.06773608677916941,4.428074480461522,0.1619273994501018,,,,,,
15,21,-0.8870349526405336,-0.03455762192606927,9.771142959594727,0.01169406156986952,-0.005400214344263077,0.00162413134239614,-0.45953917503356934,0.6503826379776001,-0.8716682195663452,0.07562212770549864,4.423970764212233,0.16267889823648107,,,,,,
15,22,-0.8870349526405336,-0.03455762192606927,9.771142959594727,0.01169406156986952,-0.005400214344263077,0.00162413134239614,-0.45953917503356934,0.6503826379776001,-0.8716682195663452,0.07562212770549864,4.423970764212233,0.16267889823648107,,,,,,
16,0,-0.7777982354164125,-0.034977175295352936,9.789403915405273,0.007210355252027512,-0.0034499848261475563,0.006402607541531325,-0.4609744846820832,0.6499068737030029,-0.8716721534729004,0.01480786277264489,4.450168137499284,0.1369148750385018,,,,,,
16,1,-0.7777982354164125,-0.034977175295352936,9.789403915405273,0.007210355252027512,-0.0034499848261475563,0.006402607541531325,-0.4609744846820832,0.6499068737030029,-0.8716721534729004,0.01480786277264489,4.450168137499284,0.1369148750385018,,,,,,
16,2,-0.7777982354164125,-0.034977175295352936,9.789403915405273,0.007210355252027512,-0.0034499848261475563,0.006402607541531325,-0.4609744846820832,0.6499068737030029,-0.8716721534729004,0.01480786277264489,4.450168137499284,0.1369148750385018,,,,,,
16,3,-0.7777982354164125,-0.034977175295352936,9.789403915405273,0.007210355252027512,-0.0034499848261475563,0.006402607541531325,-0.4609744846820832,0.6499068737030029,-0.8716721534729004,0.01480786277264489,4.450168137499284,0.1369148750385018,,,,,,
16,4,-0.7777982354164125,-0.034977175295352936,9.789403915405273,0.007210355252027512,-0.0034499848261475563,0.006402607541531325,-0.4609744846820832,0.6499068737030029,-0.8716721534729004,0.01480786277264489,4.450168137499284,0.1369148750385018,,,,,,
16,5,-0.7864395380020142,-0.08145123720169067,9.778872489929201,0.007853287272155287,-0.0029344079084694386,0.003652650862932205,-0.46294024586677557,0.6494711637496948,-0.8736930489540101,0.02005356726685779,4.447540579178851,0.14026219459854847,,,,,,
16,6,-0.7716255187988281,-0.06075773760676385,9.77725124359131,0.010517628863453865,-0.0031273218337446456,0.0006913718534633517,-0.4614275991916657,0.6474810242652894,-0.872229039669037,0.024442811983820586,4.446331438111014,0.1401540834718598,,,,,,
16,7,-0.7716255187988281,-0.06075773760676385,9.77725124359131,0.010517628863453865,-0.0031273218337446456,0.0006913718534633517,-0.4614275991916657,0.6474810242652894,-0.872229039669037,0.024442811983820586,4.446331438111014,0.1401540834718598,,,,,,
16,8,-0.7585784196853638,-0.04767551273107529,9.789168357849123,0.004753502085804939,-0.006403788458555938,0.0055715017952024945,-0.4628624022006989,0.648450493812561,-0.8711907863616943,0.032390022063718285,4.441082072695888,0.14574077432595847,,,,,,
16,9,-0.7585784196853638,-0.04767551273107529,9.789168357849123,0.004753502085804939,-0.006403788458555938,0.0055715017952024945,-0.4628624022006989,0.648450493812561,-0.8711907863616943,0.032390022063718285,4.441082072695888,0.14574077432595847,,,,,,
16,10,-0.7585784196853638,-0.04767551273107529,9.789168357849123,0.004753502085804939,-0.006403788458555938,0.0055715017952024945,-0.4628624022006989,0.648450493812561,-0.8711907863616943,0.032390022063718285,4.441082072695888,0.14574077432595847,,,,,,
16,11,-0.7491685152053833,-0.061105482280254364,9.764883995056154,0.009956977330148222,-0.004813068080693484,0.0031902906484901905,-0.46053892374038696,0.6489723920822144,-0.8742202520370483,0.03981535014921854,4.436968719033974,0.14774822020019515,,,,,,
16,12,-0.7320421338081361,-0.07061770558357239,9.782329559326172,0.0092364763841033,-0.003575144335627556,0.004765421617776156,-0.46051850914955145,0.6484756469726562,-0.8737263679504395,0.043504472514354166,4.4354432739533145,0.14993406739658222,,,,,,
16,13,-0.7320421338081361,-0.07061770558357239,9.782329559326172,0.0092364763841033,-0.003575144335627556,0.004765421617776156,-0.46051850914955145,0.6484756469726562,-0.8737263679504395,0.043504472514354166,4.4354432739533145,0.14993406739658222,,,,,,
16,14,-0.7088648080825806,-0.0856008231639862,9.780009269714357,0.008377796970307829,-0.003555416129529476,0.0020277160219848156,-0.46198225021362305,0.6489843726158143,-0.8742133378982544,0.04654381475032468,4.4338983301204475,0.15053464877732478,,,,,,
16,15,-0.793411374092102,-0.0735277384519577,9.77694320678711,0.00846082903444767,-0.0030763642862439156,0.0038628487382084136,-0.46048057079315186,0.6513391137123109,-0.8701274394989014,0.05308381535380989,4.430983136150056,0.15352380589075043,,,,,,
16,16,-0.7892003059387207,-0.07193055003881456,9.779991149902344,0.008915011771023275,-0.0030990582890808582,0.0029816729947924614,-0.462430626153946,0.6484825611114502,-0.8732123374938965,0.05956499227993917,4.4283140449045595,0.15668762491677568,,,,,,
16,17,-0.7892003059387207,-0.07193055003881456,9.779991149902344,0.008915011771023275,-0.0030990582890808582,0.0029816729947924614,-0.462430626153946,0.6484825611114502,-0.8732123374938965,0.05956499227993917,4.4283140449045595,0.15668762491677568,,,,,,
16,18,-0.7892003059387207,-0.07193055003881456,9.779991149902344,0.008915011771023275,-0.0030990582890808582,0.0029816729947924614,-0.462430626153946,0.6484825611114502,-0.8732123374938965,0.05956499227993917,4.4283140449045595,0.15668762491677568,,,,,,
16,19,-0.8309152722358705,-0.07169906049966814,9.774492263793945,0.00981723889708519,-0.0007058908813633026,0.004562774673104286,-0.46194523572921753,0.6489573121070863,-0.8726989626884462,0.06332879970927616,4.428416290399206,0.15868083348829842,,,,,,
16,20,-0.9050163626670839,-0.05875290185213089,9.780877113342287,0.010828712955117226,-0.0015724643599241972,0.006760966498404742,-0.4614437222480774,0.6484565734863281,-0.8722072839736938,0.06773608677916941,4.428074480461522,0.1619273994501018,,,,,,
16,21,-0.8870349526405336,-0.03455762192606927,9.771142959594727,0.01169406156986952,-0.005400214344263077,0.00162413134239614,-0.45953917503356934,0.6503826379776001,-0.8716682195663452,0.07562212770549864,4.423970764212233,0.16267889823648107,,,,,,
16,22,-0.8870349526405336,-0.03455762192606927,9.771142959594727,0.01169406156986952,-0.005400214344263077,0.00162413134239614,-0.45953917503356934,0.6503826379776001,-0.8716682195663452,0.07562212770549864,4.423970764212233,0.16267889823648107,,,,,,
17,0,-0.7777982354164125,-0.034977175295352936,9.789403915405273,0.007210355252027512,-0.0034499848261475563,0.006402607541531325,-0.4609744846820832,0.6499068737030029,-0.8716721534729004,0.01480786277264489,4.450168137499284,0.1369148750385018,,,,,,
17,1,-0.7777982354164125,-0.034977175295352936,9.789403915405273,0.007210355252027512,-0.0034499848261475563,0.006402607541531325,-0.4609744846820832,0.6499068737030029,-0.8716721534729004,0.01480786277264489,4.450168137499284,0.1369148750385018,,,,,,
17,2,-0.7777982354164125,-0.034977175295352936,9.789403915405273,0.007210355252027512,-0.0034499848261475563,0.006402607541531325,-0.4609744846820832,0.6499068737030029,-0.8716721534729004,0.01480786277264489,4.450168137499284,0.1369148750385018,,,,,,
17,3,-0.7777982354164125,-0.034977175295352936,9.789403915405273,0.007210355252027512,-0.0034499848261475563,0.006402607541531325,-0.4609744846820832,0.6499068737030029,-0.8716721534729004,0.01480786277264489,4.450168137499284,0.1369148750385018,,,,,,
17,4,-0.7777982354164125,-0.034977175295352936,9.789403915405273,0.007210355252027512,-0.0034499848261475563,0.006402607541531325,-0.4609744846820832,0.6499068737030029,-0.8716721534729004,0.01480786277264489,4.450168137499284,0.1369148750385018,,,,,,
17,5,-0.7864395380020142,-0.08145123720169067,9.778872489929201,0.007853287272155287,-0.0029344079084694386,0.003652650862932205,-0.46294024586677557,0.6494711637496948,-0.8736930489540101,0.02005356726685779,4.447540579178851,0.14026219459854847,,,,,,
17,6,-0.7716255187988281,-0.06075773760676385,9.77725124359131,0.010517628863453865,-0.0031273218337446456,0.0006913718534633517,-0.4614275991916657,0.6474810242652894,-0.872229039669037,0.024442811983820586,4.446331438111014,0.1401540834718598,,,,,,
17,7,-0.7716255187988281,-0.06075773760676385,9.77725124359131,0.010517628863453865,-0.0031273218337446456,0.0006913718534633517,-0.4614275991916657,0.6474810242652894,-0.872229039669037,0.024442811983820586,4.446331438111014,0.1401540834718598,,,,,,
17,8,-0.7585784196853638,-0.04767551273107529,9.789168357849123,0.004753502085804939,-0.006403788458555938,0.0055715017952024945,-0.4628624022006989,0.648450493812561,-0.8711907863616943,0.032390022063718285,4.441082072695888,0.14574077432595847,,,,,,
17,9,-0.7585784196853638,-0.04767551273107529,9.789168357849123,0.004753502085804939,-0.006403788458555938,0.0055715017952024945,-0.4628624022006989,0.648450493812561,-0.8711907863616943,0.032390022063718285,4.441082072695888,0.14574077432595847,,,,,,
17,10,-0.7585784196853638,-0.04767551273107529,9.789168357849123,0.004753502085804939,-0.006403788458555938,0.0055715017952024945,-0.4628624022006989,0.648450493812561,-0.8711907863616943,0.032390022063718285,4.441082072695888,0.14574077432595847,,,,,,
17,11,-0.7491685152053833,-0.061105482280254364,9.764883995056154,0.009956977330148222,-0.004813068080693484,0.0031902906484901905,-0.46053892374038696,0.6489723920822144,-0.8742202520370483,0.03981535014921854,4.436968719033974,0.14774822020019515,,,,,,
17,12,-0.7320421338081361,-0.07061770558357239,9.782329559326172,0.0092364763841033,-0.003575144335627556,0.004765421617776156,-0.46051850914955145,0.6484756469726562,-0.8737263679504395,0.043504472514354166,4.4354432739533145,0.14993406739658222,,,,,,
17,13,-0.7320421338081361,-0.07061770558357239,9.782329559326172,0.0092364763841033,-0.003575144335627556,0.004765421617776156,-0.46051850914955145,0.6484756469726562,-0.8737263679504395,0.043504472514354166,4.4354432739533145,0.14993406739658222,,,,,,
17,14,-0.7088648080825806,-0.0856008231639862,9.780009269714357,0.008377796970307829,-0.003555416129529476,0.0020277160219848156,-0.46198225021362305,0.6489843726158143,-0.8742133378982544,0.04654381475032468,4.4338983301204475,0.15053464877732478,,,,,,
17,15,-0.793411374092102,-0.0735277384519577,9.77694320678711,0.00846082903444767,-0.0030763642862439156,0.0038628487382084136,-0.46048057079315186,0.6513391137123109,-0.8701274394989014,0.05308381535380989,4.430983136150056,0.15352380589075043,,,,,,
17,16,-0.7892003059387207,-0.07193055003881456,9.779991149902344,0.008915011771023275,-0.0030990582890808582,0.0029816729947924614,-0.462430626153946,0.6484825611114502,-0.8732123374938965,0.05956499227993917,4.4283140449045595,0.15668762491677568,,,,,,
17,17,-0.7892003059387207,-0.07193055003881456,9.779991149902344,0.008915011771023275,-0.0030990582890808582,0.0029816729947924614,-0.462430626153946,0.6484825611114502,-0.8732123374938965,0.05956499227993917,4.4283140449045595,0.15668762491677568,,,,,,
17,18,-0.7892003059387207,-0.07193055003881456,9.779991149902344,0.008915011771023275,-0.0030990582890808582,0.0029816729947924614,-0.462430626153946,0.6484825611114502,-0.8732123374938965,0.05956499227993917,4.4283140449045595,0.15668762491677568,,,,,,
17,19,-0.8309152722358705,-0.07169906049966814,9.774492263793945,0.00981723889708519,-0.0007058908813633026,0.004562774673104286,-0.46194523572921753,0.6489573121070863,-0.8726989626884462,0.06332879970927616,4.428416290399206,0.15868083348829842,,,,,,
17,20,-0.9050163626670839,-0.05875290185213089,9.780877113342287,0.010828712955117226,-0.0015724643599241972,0.006760966498404742,-0.4614437222480774,0.6484565734863281,-0.8722072839736938,0.06773608677916941,4.428074480461522,0.1619273994501018,,,,,,
17,21,-0.8870349526405336,-0.03455762192606927,9.771142959594727,0.01169406156986952,-0.005400214344263077,0.00162413134239614,-0.45953917503356934,0.6503826379776001,-0.8716682195663452,0.07562212770549864,4.423970764212233,0.16267889823648107,,,,,,
17,22,-0.8870349526405336,-0.03455762192606927,9.771142959594727,0.01169406156986952,-0.005400214344263077,0.00162413134239614,-0.45953917503356934,0.6503826379776001,-0.8716682195663452,0.07562212770549864,4.423970764212233,0.16267889823648107,,,,,,
18,0,-0.7777982354164125,-0.034977175295352936,9.789403915405273,0.007210355252027512,-0.0034499848261475563,0.006402607541531325,-0.4609744846820832,0.6499068737030029,-0.8716721534729004,0.01480786277264489,4.450168137499284,0.1369148750385018,,,,,,
18,1,-0.7777982354164125,-0.034977175295352936,9.789403915405273,0.007210355252027512,-0.0034499848261475563,0.006402607541531325,-0.4609744846820832,0.6499068737030029,-0.8716721534729004,0.01480786277264489,4.450168137499284,0.1369148750385018,,,,,,
18,2,-0.7777982354164125,-0.034977175295352936,9.789403915405273,0.007210355252027512,-0.0034499848261475563,0.006402607541531325,-0.4609744846820832,0.6499068737030029,-0.8716721534729004,0.01480786277264489,4.450168137499284,0.1369148750385018,,,,,,
18,3,-0.7777982354164125,-0.034977175295352936,9.789403915405273,0.007210355252027512,-0.0034499848261475563,0.006402607541531325,-0.4609744846820832,0.6499068737030029,-0.8716721534729004,0.01480786277264489,4.450168137499284,0.1369148750385018,,,,,,
18,4,-0.7777982354164125,-0.034977175295352936,9.789403915405273,0.007210355252027512,-0.0034499848261475563,0.006402607541531325,-0.4609744846820832,0.6499068737030029,-0.8716721534729004,0.01480786277264489,4.450168137499284,0.1369148750385018,,,,,,
18,5,-0.7864395380020142,-0.08145123720169067,9.778872489929201,0.007853287272155287,-0.0029344079084694386,0.003652650862932205,-0.46294024586677557,0.6494711637496948,-0.8736930489540101,0.02005356726685779,4.447540579178851,0.14026219459854847,,,,,,
18,6,-0.7716255187988281,-0.06075773760676385,9.77725124359131,0.010517628863453865,-0.0031273218337446456,0.0006913718534633517,-0.4614275991916657,0.6474810242652894,-0.872229039669037,0.024442811983820586,4.446331438111014,0.1401540834718598,,,,,,
18,7,-0.7716255187988281,-0.06075773760676385,9.77725124359131,0.010517628863453865,-0.0031273218337446456,0.0006913718534633517,-0.4614275991916657,0.6474810242652894,-0.872229039669037,0.024442811983820586,4.446331438111014,0.1401540834718598,,,,,,
18,8,-0.7585784196853638,-0.04767551273107529,9.789168357849123,0.004753502085804939,-0.006403788458555938,0.0055715017952024945,-0.4628624022006989,0.648450493812561,-0.8711907863616943,0.032390022063718285,4.441082072695888,0.14574077432595847,,,,,,
18,9,-0.7585784196853638,-0.04767551273107529,9.789168357849123,0.004753502085804939,-0.006403788458555938,0.0055715017952024945,-0.4628624022006989,0.648450493812561,-0.8711907863616943,0.032390022063718285,4.441082072695888,0.14574077432595847,,,,,,
18,10,-0.7585784196853638,-0.04767551273107529,9.789168357849123,0.004753502085804939,-0.006403788458555938,0.0055715017952024945,-0.4628624022006989,0.648450493812561,-0.8711907863616943,0.032390022063718285,4.441082072695888,0.14574077432595847,,,,,,
18,11,-0.7491685152053833,-0.061105482280254364,9.764883995056154,0.009956977330148222,-0.004813068080693484,0.0031902906484901905,-0.46053892374038696,0.6489723920822144,-0.8742202520370483,0.03981535014921854,4.436968719033974,0.14774822020019515,,,,,,
18,12,-0.7320421338081361,-0.07061770558357239,9.782329559326172,0.0092364763841033,-0.003575144335627556,0.004765421617776156,-0.46051850914955145,0.6484756469726562,-0.8737263679504395,0.043504472514354166,4.4354432739533145,0.14993406739658222,,,,,,
18,13,-0.7320421338081361,-0.07061770558357239,9.782329559326172,0.0092364763841033,-0.003575144335627556,0.004765421617776156,-0.46051850914955145,0.6484756469726562,-0.8737263679504395,0.043504472514354166,4.4354432739533145,0.14993406739658222,,,,,,
18,14,-0.7088648080825806,-0.0856008231639862,9.780009269714357,0.008377796970307829,-0.003555416129529476,0.0020277160219848156,-0.46198225021362305,0.6489843726158143,-0.8742133378982544,0.04654381475032468,4.4338983301204475,0.15053464877732478,,,,,,
18,15,-0.793411374092102,-0.0735277384519577,9.77694320678711,0.00846082903444767,-0.0030763642862439156,0.0038628487382084136,-0.46048057079315186,0.6513391137123109,-0.8701274394989014,0.05308381535380989,4.430983136150056,0.15352380589075043,,,,,,
18,16,-0.7892003059387207,-0.07193055003881456,9.779991149902344,0.008915011771023275,-0.0030990582890808582,0.0029816729947924614,-0.462430626153946,0.6484825611114502,-0.8732123374938965,0.05956499227993917,4.4283140449045595,0.15668762491677568,,,,,,
18,17,-0.7892003059387207,-0.07193055003881456,9.779991149902344,0.008915011771023275,-0.0030990582890808582,0.0029816729947924614,-0.462430626153946,0.6484825611114502,-0.8732123374938965,0.05956499227993917,4.4283140449045595,0.15668762491677568,,,,,,
18,18,-0.7892003059387207,-0.07193055003881456,9.779991149902344,0.008915011771023275,-0.0030990582890808582,0.0029816729947924614,-0.462430626153946,0.6484825611114502,-0.8732123374938965,0.05956499227993917,4.4283140449045595,0.15668762491677568,,,,,,
18,19,-0.8309152722358705,-0.07169906049966814,9.774492263793945,0.00981723889708519,-0.0007058908813633026,0.004562774673104286,-0.46194523572921753,0.6489573121070863,-0.8726989626884462,0.06332879970927616,4.428416290399206,0.15868083348829842,,,,,,
18,20,-0.9050163626670839,-0.05875290185213089,9.780877113342287,0.010828712955117226,-0.0015724643599241972,0.006760966498404742,-0.4614437222480774,0.6484565734863281,-0.8722072839736938,0.06773608677916941,4.428074480461522,0.1619273994501018,,,,,,
18,21,-0.8870349526405336,-0.03455762192606927,9.771142959594727,0.01169406156986952,-0.005400214344263077,0.00162413134239614,-0.45953917503356934,0.6503826379776001,-0.8716682195663452,0.07562212770549864,4.423970764212233,0.16267889823648107,,,,,,
18,22,-0.8870349526405336,-0.03455762192606927,9.771142959594727,0.01169406156986952,-0.005400214344263077,0.00162413134239614,-0.45953917503356934,0.6503826379776001,-0.8716682195663452,0.07562212770549864,4.423970764212233,0.16267889823648107,,,,,,
19,0,-0.7777982354164125,-0.034977175295352936,9.789403915405273,0.007210355252027512,-0.0034499848261475563,0.006402607541531325,-0.4609744846820832,0.6499068737030029,-0.8716721534729004,0.01480786277264489,4.450168137499284,0.1369148750385018,,,,,,
19,1,-0.7777982354164125,-0.034977175295352936,9.789403915405273,0.007210355252027512,-0.0034499848261475563,0.006402607541531325,-0.4609744846820832,0.6499068737030029,-0.8716721534729004,0.01480786277264489,4.450168137499284,0.1369148750385018,,,,,,
19,2,-0.7777982354164125,-0.034977175295352936,9.789403915405273,0.007210355252027512,-0.0034499848261475563,0.006402607541531325,-0.4609744846820832,0.6499068737030029,-0.8716721534729004,0.01480786277264489,4.450168137499284,0.1369148750385018,,,,,,
19,3,-0.7777982354164125,-0.034977175295352936,9.789403915405273,0.007210355252027512,-0.0034499848261475563,0.006402607541531325,-0.4609744846820832,0.6499068737030029,-0.8716721534729004,0.01480786277264489,4.450168137499284,0.1369148750385018,,,,,,
19,4,-0.7777982354164125,-0.034977175295352936,9.789403915405273,0.007210355252027512,-0.0034499848261475563,0.006402607541531325,-0.4609744846820832,0.6499068737030029,-0.8716721534729004,0.01480786277264489,4.450168137499284,0.1369148750385018,,,,,,
19,5,-0.7864395380020142,-0.08145123720169067,9.778872489929201,0.007853287272155287,-0.0029344079084694386,0.003652650862932205,-0.46294024586677557,0.6494711637496948,-0.8736930489540101,0.02005356726685779,4.447540579178851,0.14026219459854847,,,,,,
19,6,-0.7716255187988281,-0.06075773760676385,9.77725124359131,0.010517628863453865,-0.0031273218337446456,0.0006913718534633517,-0.4614275991916657,0.6474810242652894,-0.872229039669037,0.024442811983820586,4.446331438111014,0.1401540834718598,,,,,,
19,7,-0.7716255187988281,-0.06075773760676385,9.77725124359131,0.010517628863453865,-0.0031273218337446456,0.0006913718534633517,-0.4614275991916657,0.6474810242652894,-0.872229039669037,0.024442811983820586,4.446331438111014,0.1401540834718598,,,,,,
19,8,-0.7585784196853638,-0.04767551273107529,9.789168357849123,0.004753502085804939,-0.006403788458555938,0.0055715017952024945,-0.4628624022006989,0.648450493812561,-0.8711907863616943,0.032390022063718285,4.441082072695888,0.14574077432595847,,,,,,
19,9,-0.7585784196853638,-0.04767551273107529,9.789168357849123,0.004753502085804939,-0.006403788458555938,0.0055715017952024945,-0.4628624022006989,0.648450493812561,-0.8711907863616943,0.032390022063718285,4.441082072695888,0.14574077432595847,,,,,,
19,10,-0.7585784196853638,-0.04767551273107529,9.789168357849123,0.004753502085804939,-0.006403788458555938,0.0055715017952024945,-0.4628624022006989,0.648450493812561,-0.8711907863616943,0.032390022063718285,4.441082072695888,0.14574077432595847,,,,,,
19,11,-0.7491685152053833,-0.061105482280254364,9.764883995056154,0.009956977330148222,-0.004813068080693484,0.0031902906484901905,-0.46053892374038696,0.6489723920822144,-0.8742202520370483,0.03981535014921854,4.436968719033974,0.14774822020019515,,,,,,
19,12,-0.7320421338081361,-0.07061770558357239,9.782329559326172,0.0092364763841033,-0.003575144335627556,0.004765421617776156,-0.46051850914955145,0.6484756469726562,-0.8737263679504395,0.043504472514354166,4.4354432739533145,0.14993406739658222,,,,,,
19,13,-0.7320421338081361,-0.07061770558357239,9.782329559326172,0.0092364763841033,-0.003575144335627556,0.004765421617776156,-0.46051850914955145,0.6484756469726562,-0.8737263679504395,0.043504472514354166,4.4354432739533145,0.14993406739658222,,,,,,
19,14,-0.7088648080825806,-0.0856008231639862,9.780009269714357,0.008377796970307829,-0.003555416129529476,0.0020277160219848156,-0.46198225021362305,0.6489843726158143,-0.8742133378982544,0.04654381475032468,4.4338983301204475,0.15053464877732478,,,,,,
19,15,-0.793411374092102,-0.0735277384519577,9.77694320678711,0.00846082903444767,-0.0030763642862439156,0.0038628487382084136,-0.46048057079315186,0.6513391137123109,-0.8701274394989014,0.05308381535380989,4.430983136150056,0.15352380589075043,,,,,,
19,16,-0.7892003059387207,-0.07193055003881456,9.779991149902344,0.008915011771023275,-0.0030990582890808582,0.0029816729947924614,-0.462430626153946,0.6484825611114502,-0.8732123374938965,0.05956499227993917,4.4283140449045595,0.15668762491677568,,,,,,
19,17,-0.7892003059387207,-0.07193055003881456,9.779991149902344,0.008915011771023275,-0.0030990582890808582,0.0029816729947924614,-0.462430626153946,0.6484825611114502,-0.8732123374938965,0.05956499227993917,4.4283140449045595,0.15668762491677568,,,,,,
19,18,-0.7892003059387207,-0.07193055003881456,9.779991149902344,0.008915011771023275,-0.0030990582890808582,0.0029816729947924614,-0.462430626153946,0.6484825611114502,-0.8732123374938965,0.05956499227993917,4.4283140449045595,0.15668762491677568,,,,,,
19,19,-0.8309152722358705,-0.07169906049966814,9.774492263793945,0.00981723889708519,-0.0007058908813633026,0.004562774673104286,-0.46194523572921753,0.6489573121070863,-0.8726989626884462,0.06332879970927616,4.428416290399206,0.15868083348829842,,,,,,
19,20,-0.9050163626670839,-0.05875290185213089,9.780877113342287,0.010828712955117226,-0.0015724643599241972,0.006760966498404742,-0.4614437222480774,0.6484565734863281,-0.8722072839736938,0.06773608677916941,4.428074480461522,0.1619273994501018,,,,,,
19,21,-0.8870349526405336,-0.03455762192606927,9.771142959594727,0.01169406156986952,-0.005400214344263077,0.00162413134239614,-0.45953917503356934,0.6503826379776001,-0.8716682195663452,0.07562212770549864,4.423970764212233,0.16267889823648107,,,,,,
19,22,-0.8870349526405336,-0.03455762192606927,9.771142959594727,0.01169406156986952,-0.005400214344263077,0.00162413134239614,-0.45953917503356934,0.6503826379776001,-0.8716682195663452,0.07562212770549864,4.423970764212233,0.16267889823648107,,,,,,
20,0,-0.7777982354164125,-0.034977175295352936,9.789403915405273,0.007210355252027512,-0.0034499848261475563,0.006402607541531325,-0.4609744846820832,0.6499068737030029,-0.8716721534729004,0.01480786277264489,4.450168137499284,0.1369148750385018,,,,,,
20,1,-0.7777982354164125,-0.034977175295352936,9.789403915405273,0.007210355252027512,-0.0034499848261475563,0.006402607541531325,-0.4609744846820832,0.6499068737030029,-0.8716721534729004,0.01480786277264489,4.450168137499284,0.1369148750385018,,,,,,
20,2,-0.7777982354164125,-0.034977175295352936,9.789403915405273,0.007210355252027512,-0.0034499848261475563,0.006402607541531325,-0.4609744846820832,0.6499068737030029,-0.8716721534729004,0.01480786277264489,4.450168137499284,0.1369148750385018,,,,,,
20,3,-0.7777982354164125,-0.034977175295352936,9.789403915405273,0.007210355252027512,-0.0034499848261475563,0.006402607541531325,-0.4609744846820832,0.6499068737030029,-0.8716721534729004,0.01480786277264489,4.450168137499284,0.1369148750385018,,,,,,
20,4,-0.7777982354164125,-0.034977175295352936,9.789403915405273,0.007210355252027512,-0.0034499848261475563,0.006402607541531325,-0.4609744846820832,0.6499068737030029,-0.8716721534729004,0.01480786277264489,4.450168137499284,0.1369148750385018,,,,,,
20,5,-0.7864395380020142,-0.08145123720169067,9.778872489929201,0.007853287272155287,-0.0029344079084694386,0.003652650862932205,-0.46294024586677557,0.6494711637496948,-0.8736930489540101,0.02005356726685779,4.447540579178851,0.14026219459854847,,,,,,
20,6,-0.7716255187988281,-0.06075773760676385,9.77725124359131,0.010517628863453865,-0.0031273218337446456,0.0006913718534633517,-0.4614275991916657,0.6474810242652894,-0.872229039669037,0.024442811983820586,4.446331438111014,0.1401540834718598,,,,,,
20,7,-0.7716255187988281,-0.06075773760676385,9.77725124359131,0.010517628863453865,-0.0031273218337446456,0.0006913718534633517,-0.4614275991916657,0.6474810242652894,-0.872229039669037,0.024442811983820586,4.446331438111014,0.1401540834718598,,,,,,
20,8,-0.7585784196853638,-0.04767551273107529,9.789168357849123,0.004753502085804939,-0.006403788458555938,0.0055715017952024945,-0.4628624022006989,0.648450493812561,-0.8711907863616943,0.032390022063718285,4.441082072695888,0.14574077432595847,,,,,,
20,9,-0.7585784196853638,-0.04767551273107529,9.789168357849123,0.004753502085804939,-0.006403788458555938,0.0055715017952024945,-0.4628624022006989,0.648450493812561,-0.8711907863616943,0.032390022063718285,4.441082072695888,0.14574077432595847,,,,,,
20,10,-0.7585784196853638,-0.04767551273107529,9.789168357849123,0.004753502085804939,-0.006403788458555938,0.0055715017952024945,-0.4628624022006989,0.648450493812561,-0.8711907863616943,0.032390022063718285,4.441082072695888,0.14574077432595847,,,,,,
20,11,-0.7491685152053833,-0.061105482280254364,9.764883995056154,0.009956977330148222,-0.004813068080693484,0.0031902906484901905,-0.46053892374038696,0.6489723920822144,-0.8742202520370483,0.03981535014921854,4.436968719033974,0.14774822020019515,,,,,,
20,12,-0.7320421338081361,-0.07061770558357239,9.782329559326172,0.0092364763841033,-0.003575144335627556,0.004765421617776156,-0.46051850914955145,0.6484756469726562,-0.8737263679504395,0.043504472514354166,4.4354432739533145,0.14993406739658222,,,,,,
20,13,-0.7320421338081361,-0.07061770558357239,9.782329559326172,0.0092364763841033,-0.003575144335627556,0.004765421617776156,-0.46051850914955145,0.6484756469726562,-0.8737263679504395,0.043504472514354166,4.4354432739533145,0.14993406739658222,,,,,,
20,14,-0.7088648080825806,-0.0856008231639862,9.780009269714357,0.008377796970307829,-0.003555416129529476,0.0020277160219848156,-0.46198225021362305,0.6489843726158143,-0.8742133378982544,0.04654381475032468,4.4338983301204475,0.15053464877732478,,,,,,
20,15,-0.793411374092102,-0.0735277384519577,9.77694320678711,0.00846082903444767,-0.0030763642862439156,0.0038628487382084136,-0.46048057079315186,0.6513391137123109,-0.8701274394989014,0.05308381535380989,4.430983136150056,0.15352380589075043,,,,,,
20,16,-0.7892003059387207,-0.07193055003881456,9.779991149902344,0.008915011771023275,-0.0030990582890808582,0.0029816729947924614,-0.462430626153946,0.6484825611114502,-0.8732123374938965,0.05956499227993917,4.4283140449045595,0.15668762491677568,,,,,,
20,17,-0.7892003059387207,-0.07193055003881456,9.779991149902344,0.008915011771023275,-0.0030990582890808582,0.0029816729947924614,-0.462430626153946,0.6484825611114502,-0.8732123374938965,0.05956499227993917,4.4283140449045595,0.15668762491677568,,,,,,
20,18,-0.7892003059387207,-0.07193055003881456,9.779991149902344,0.008915011771023275,-0.0030990582890808582,0.0029816729947924614,-0.462430626153946,0.6484825611114502,-0.8732123374938965,0.05956499227993917,4.4283140449045595,0.15668762491677568,,,,,,
20,19,-0.8309152722358705,-0.07169906049966814,9.774492263793945,0.00981723889708519,-0.0007058908813633026,0.004562774673104286,-0.46194523572921753,0.6489573121070863,-0.8726989626884462,0.06332879970927616,4.428416290399206,0.15868083348829842,,,,,,
20,20,-0.9050163626670839,-0.05875290185213089,9.780877113342287,0.010828712955117226,-0.0015724643599241972,0.006760966498404742,-0.4614437222480774,0.6484565734863281,-0.8722072839736938,0.06773608677916941,4.428074480461522,0.1619273994501018,,,,,,
20,21,-0.8870349526405336,-0.03455762192606927,9.771142959594727,0.01169406156986952,-0.005400214344263077,0.00162413134239614,-0.45953917503356934,0.6503826379776001,-0.8716682195663452,0.07562212770549864,4.423970764212233,0.16267889823648107,,,,,,
20,22,-0.8870349526405336,-0.03455762192606927,9.771142959594727,0.01169406156986952,-0.005400214344263077,0.00162413134239614,-0.45953917503356934,0.6503826379776001,-0.8716682195663452,0.07562212770549864,4.423970764212233,0.16267889823648107,,,,,,
21,0,-0.7777982354164125,-0.034977175295352936,9.789403915405273,0.007210355252027512,-0.0034499848261475563,0.006402607541531325,-0.4609744846820832,0.6499068737030029,-0.8716721534729004,0.01480786277264489,4.450168137499284,0.1369148750385018,,,,,,
21,1,-0.7777982354164125,-0.034977175295352936,9.789403915405273,0.007210355252027512,-0.0034499848261475563,0.006402607541531325,-0.4609744846820832,0.6499068737030029,-0.8716721534729004,0.01480786277264489,4.450168137499284,0.1369148750385018,,,,,,
21,2,-0.7777982354164125,-0.034977175295352936,9.789403915405273,0.007210355252027512,-0.0034499848261475563,0.006402607541531325,-0.4609744846820832,0.6499068737030029,-0.8716721534729004,0.01480786277264489,4.450168137499284,0.1369148750385018,,,,,,
21,3,-0.7777982354164125,-0.034977175295352936,9.789403915405273,0.007210355252027512,-0.0034499848261475563,0.006402607541531325,-0.4609744846820832,0.6499068737030029,-0.8716721534729004,0.01480786277264489,4.450168137499284,0.1369148750385018,,,,,,
21,4,-0.7777982354164125,-0.034977175295352936,9.789403915405273,0.007210355252027512,-0.0034499848261475563,0.006402607541531325,-0.4609744846820832,0.6499068737030029,-0.8716721534729004,0.01480786277264489,4.450168137499284,0.1369148750385018,,,,,,
21,5,-0.7864395380020142,-0.08145123720169067,9.778872489929201,0.007853287272155287,-0.0029344079084694386,0.003652650862932205,-0.46294024586677557,0.6494711637496948,-0.8736930489540101,0.02005356726685779,4.447540579178851,0.14026219459854847,,,,,,
21,6,-0.7716255187988281,-0.06075773760676385,9.77725124359131,0.010517628863453865,-0.0031273218337446456,0.0006913718534633517,-0.4614275991916657,0.6474810242652894,-0.872229039669037,0.024442811983820586,4.446331438111014,0.1401540834718598,,,,,,
21,7,-0.7716255187988281,-0.06075773760676385,9.77725124359131,0.010517628863453865,-0.0031273218337446456,0.0006913718534633517,-0.4614275991916657,0.6474810242652894,-0.872229039669037,0.024442811983820586,4.446331438111014,0.1401540834718598,,,,,,
21,8,-0.7585784196853638,-0.04767551273107529,9.789168357849123,0.004753502085804939,-0.006403788458555938,0.0055715017952024945,-0.4628624022006989,0.648450493812561,-0.8711907863616943,0.032390022063718285,4.441082072695888,0.14574077432595847,,,,,,
21,9,-0.7585784196853638,-0.04767551273107529,9.789168357849123,0.004753502085804939,-0.006403788458555938,0.0055715017952024945,-0.4628624022006989,0.648450493812561,-0.8711907863616943,0.032390022063718285,4.441082072695888,0.14574077432595847,,,,,,
21,10,-0.7585784196853638,-0.04767551273107529,9.789168357849123,0.004753502085804939,-0.006403788458555938,0.0055715017952024945,-0.4628624022006989,0.648450493812561,-0.8711907863616943,0.032390022063718285,4.441082072695888,0.14574077432595847,,,,,,
21,11,-0.7491685152053833,-0.061105482280254364,9.764883995056154,0.009956977330148222,-0.004813068080693484,0.0031902906484901905,-0.46053892374038696,0.6489723920822144,-0.8742202520370483,0.03981535014921854,4.436968719033974,0.14774822020019515,,,,,,
21,12,-0.7320421338081361,-0.07061770558357239,9.782329559326172,0.0092364763841033,-0.003575144335627556,0.004765421617776156,-0.46051850914955145,0.6484756469726562,-0.8737263679504395,0.043504472514354166,4.4354432739533145,0.14993406739658222,,,,,,
21,13,-0.7320421338081361,-0.07061770558357239,9.782329559326172,0.0092364763841033,-0.003575144335627556,0.004765421617776156,-0.46051850914955145,0.6484756469726562,-0.8737263679504395,0.043504472514354166,4.4354432739533145,0.14993406739658222,,,,,,
21,14,-0.7088648080825806,-0.0856008231639862,9.780009269714357,0.008377796970307829,-0.003555416129529476,0.0020277160219848156,-0.46198225021362305,0.6489843726158143,-0.8742133378982544,0.04654381475032468,4.4338983301204475,0.15053464877732478,,,,,,
