frame_id,accel_x,accel_y,accel_z,free_accel_x,free_accel_y,free_accel_z,delta_v_x,delta_v_y,delta_v_z,delta_q_w,delta_q_x,delta_q_y,delta_q_z,rate_x,rate_y,rate_z,quat_w,quat_x,quat_y,quat_z,mag_x,mag_y,mag_z,temperature,status_byte,packet_counter,time_fine
15,-0.759084,-0.0635769,9.79114,0.0553751,-0.566229,0.997344,-0.00759463,-0.000645982,0.097911,1,5.04402e-05,-1.94834e-05,2.21062e-05,0.010088,-0.00389668,0.00442123,0,0,0,0,0.0725921,0.510651,-0.992505,34.8125,1,59421,5999594
16,-0.838917,-0.0312796,9.79301,-0.116285,-0.507538,0.97634,-0.0083955,-0.000319984,0.0979295,1,3.567e-05,-3.23765e-05,1.20171e-05,0.00713399,-0.00647529,0.00240343,0,0,0,0,0.0752292,0.514317,-0.980314,34.8125,1,59425,5999994
17,-0.859594,-0.0819269,9.772,-0.0242921,-0.611844,0.998977,-0.00860033,-0.000829105,0.0977195,1,4.82817e-05,-2.26291e-05,2.32814e-05,0.00965633,-0.00452581,0.00465627,0,0,0,0,0.0708797,0.505212,-0.987567,34.8125,1,59428,6000294
18,-0.776899,0.00628561,9.7593,0.0462411,-0.449914,0.95498,-0.00776986,5.02036e-05,0.0975929,1,6.36001e-05,-4.45234e-06,1.53591e-05,0.01272,-0.000890468,0.00307182,0,0,0,0,0.0757307,0.513816,-0.979822,34.8125,1,59431,6000594
19,-0.878292,-0.127951,9.78257,-0.0672247,-0.633087,0.994018,-0.00878523,-0.00129144,0.0978254,1,5.88875e-05,-1.21187e-05,2.27802e-05,0.0117775,-0.00242373,0.00455604,0,0,0,0,0.0705429,0.506074,-0.980981,34.8125,1,59435,6000994
20,-0.767533,-0.0454726,9.77744,0.027586,-0.558418,0.985293,-0.00767722,-0.000463376,0.0977742,1,4.26806e-05,-9.80507e-06,1.97516e-05,0.00853612,-0.00196101,0.00395031,0,0,0,0,0.0750365,0.516385,-0.986833,34.8125,1,59438,6001294
21,-0.665998,-0.117505,9.79381,0.113912,-0.69551,0.947816,-0.00666384,-0.00118487,0.0979377,1,4.85666e-05,-2.00136e-05,2.27491e-05,0.00971333,-0.00400271,0.00454981,0,0,0,0,0.0705263,0.505604,-0.982001,34.8125,1,59441,6001594
22,-0.940726,-0.0861595,9.73858,-0.0782136,-0.673454,0.976651,-0.00940587,-0.000869723,0.0973859,1,3.85714e-05,6.81604e-06,3.27233e-05,0.00771429,0.00136321,0.00654466,0,0,0,0,0.0725845,0.512584,-0.991452,34.8125,1,59445,6001994
23,-0.700953,-0.0806314,9.78823,0.140778,-0.541854,0.986669,-0.00700937,-0.00081924,0.0978822,1,6.40916e-05,5.70452e-07,2.70099e-05,0.0128183,0.00011409,0.00540198,0,0,0,0,0.0739325,0.509885,-0.977376,34.8125,1,59448,6002294
24,-0.736634,-0.0588243,9.79409,0.0702811,-0.608278,0.988935,-0.00736865,-0.000597887,0.0979407,1,4.75739e-05,-1.19112e-05,2.20707e-05,0.00951478,-0.00238224,0.00441415,0,0,0,0,0.0735258,0.511628,-0.992992,34.8125,1,59451,6002594
25,-0.690447,-0.0246598,9.78864,0.129138,-0.555313,0.980113,-0.00690572,-0.000256606,0.0978862,1,5.06266e-05,-6.40422e-06,7.01298e-06,0.0101253,-0.00128084,0.0014026,0,0,0,0,0.0742133,0.513882,-0.982844,34.8125,1,59455,6002994
26,-0.715693,-0.0531184,9.78619,0.0851469,-0.589972,0.987194,-0.0071581,-0.000541784,0.0978617,1,5.12601e-05,-6.21739e-06,3.96127e-05,0.010252,-0.00124348,0.00792255,0,0,0,0,0.0717238,0.508663,-0.99002,34.8125,1,59458,6003294
27,-0.740394,-0.0471924,9.77825,0.0806943,-0.584123,0.970698,-0.00740434,-0.000481881,0.0977824,1,4.94252e-05,-2.15339e-06,1.96828e-05,0.00988504,-0.000430677,0.00393656,0,0,0,0,0.0732876,0.512418,-0.982367,34.8125,1,59461,6003594
28,-0.932119,-0.000913202,9.66463,-0.0442697,-0.537501,0.907145,-0.00932428,-1.47742e-05,0.096646,1,2.64273e-05,-1.59816e-05,2.86381e-05,0.00528546,-0.00319632,0.00572761,0,0,0,0,0.0719701,0.507038,-0.980966,34.8125,1,59465,6003994
29,-0.118506,-0.0922252,9.94296,0.718701,-0.64055,1.08582,-0.0012016,-0.00092934,0.0994293,1,3.5202e-05,-8.35076e-05,3.65998e-05,0.0070404,-0.0167015,0.00731996,0,0,0,0,0.0754925,0.514954,-0.988887,34.8125,1,59468,6004294
30,-0.252576,-0.078476,9.86801,0.56082,-0.622781,1.01433,-0.00253889,-0.000792254,0.0986797,1,3.70164e-05,-6.68673e-05,3.71704e-05,0.00740328,-0.0133735,0.00743409,0,0,0,0,0.0690302,0.508064,-0.982445,34.8125,1,59471,6004594
31,0.356964,-0.102511,10.0217,1.14896,-0.643335,1.06631,0.00355428,-0.00102405,0.100218,1,-2.35158e-06,-7.74703e-05,8.33744e-05,-0.000470317,-0.0154941,0.0166749,0,0,0,0,0.0725883,0.511618,-0.991978,34.8125,1,59475,6004994
32,-0.559891,0.156477,9.85032,0.4703,-0.360142,1.09737,-0.00557558,0.00155331,0.0985047,1,5.53597e-05,0.000119225,5.01739e-05,0.0110719,0.0238449,0.0100348,0,0,0,0,0.0705689,0.510392,-0.976844,34.8125,1,59478,6005294
33,-0.755558,-0.160881,9.87537,0.0150228,-0.759882,1.09145,-0.00754159,-0.00161559,0.0987546,1,2.85706e-05,6.96232e-05,7.50357e-05,0.00571413,0.0139246,0.0150071,0,0,0,0,0.0720663,0.512615,-0.992964,34.8125,1,59481,6005594
34,-0.575328,-0.164511,9.88401,0.336115,-0.647509,1.11158,-0.00575212,-0.00165213,0.0988401,1,3.06595e-05,4.48698e-06,8.40627e-05,0.0061319,0.000897396,0.0168125,0,0,0,0,0.0737659,0.516271,-0.979759,34.8125,1,59485,6005994
35,0.0298224,0.11513,10.1493,0.74891,-0.559647,1.23422,0.000281717,0.0011447,0.101493,1,3.27339e-05,-8.04467e-05,7.72223e-05,0.00654678,-0.0160893,0.0154445,0,0,0,0,0.0698644,0.506222,-0.989055,34.8125,1,59488,6006294
36,-0.966751,-0.122723,9.73845,-0.204007,-0.671623,0.973863,-0.0096675,-0.00124289,0.0973843,1,7.47616e-05,-6.42711e-07,5.69725e-05,0.0149523,-0.000128542,0.0113945,0,0,0,0,0.0737891,0.511917,-0.981876,34.8125,1,59491,6006594
37,-1.04633,0.0873333,9.49587,-0.367153,-0.526601,0.725855,-0.0104614,0.000858852,0.0949591,1,6.71756e-05,1.09601e-05,8.23423e-05,0.0134351,0.00219202,0.0164685,0,0,0,0,0.0676353,0.50515,-0.982503,34.8125,1,59495,6006994
38,-0.636314,-0.146598,9.77232,0.161237,-0.675564,0.981521,-0.00636876,-0.00147169,0.0977227,1,2.43034e-05,-2.98877e-05,7.55303e-05,0.00486067,-0.00597754,0.0151061,0,0,0,0,0.0722025,0.513961,-0.986369,34.8125,1,59498,6007294
39,-0.470177,-0.113729,9.74775,0.243516,-0.682487,0.878875,-0.00471373,-0.00114577,0.0974768,1,4.01662e-05,-6.2158e-05,6.91266e-05,0.00803325,-0.0124316,0.0138253,0,0,0,0,0.0696228,0.509424,-0.976861,34.8125,1,59501,6007594
40,-0.473753,-0.0998047,9.82011,0.349032,-0.678626,1.02083,-0.00473692,-0.00100854,0.0982011,1,4.99639e-05,2.39095e-06,7.20063e-05,0.00999277,0.000478191,0.0144013,0,0,0,0,0.0725939,0.516432,-0.988336,34.8125,1,59505,6007994
41,-0.493409,-0.162493,9.8743,0.364686,-0.69875,1.14071,-0.00492581,-0.00163471,0.0987433,1,4.55614e-05,4.0593e-05,7.97622e-05,0.00911227,0.00811859,0.0159524,0,0,0,0,0.0701257,0.513259,-0.973243,34.8125,1,59508,6008294
42,-0.52062,0.000359827,9.81929,0.292811,-0.622361,0.925521,-0.0052096,4.48909e-06,0.0981927,1,-9.49734e-06,-1.72818e-05,9.35424e-05,-0.00189947,-0.00345635,0.0187085,0,0,0,0,0.071644,0.516431,-0.987826,34.8125,1,59511,6008594
43,-0.48239,-0.141973,9.90124,0.313188,-0.821344,1.08387,-0.0048225,-0.00143077,0.0990123,1,5.09809e-05,5.6693e-06,9.78979e-05,0.0101962,0.00113386,0.0195796,0,0,0,0,0.073808,0.519613,-0.975644,34.8125,1,59515,6008994
44,-0.57769,0.0322158,9.74878,0.121313,-0.400448,0.964525,-0.00579512,0.000314261,0.0974867,1,3.52809e-05,-9.31628e-05,8.79889e-05,0.00705619,-0.0186326,0.0175978,0,0,0,0,0.0717831,0.51392,-0.983842,34.8125,1,59518,6009294
45,-0.484023,-0.151523,9.83744,0.295356,-0.760191,1.00402,-0.00484259,-0.00153002,0.0983741,1,7.03233e-05,-1.35253e-05,9.81907e-05,0.0140646,-0.00270506,0.0196381,0,0,0,0,0.0757283,0.519119,-0.976169,34.8125,1,59521,6009594
46,-0.262903,-0.161346,9.85382,0.51514,-0.530812,0.970655,-0.00263626,-0.00161669,0.0985379,1,1.36599e-05,-3.83607e-05,0.000102286,0.00273199,-0.00767214,0.0204571,0,0,0,0,0.0690729,0.512852,-0.977288,34.8125,1,59525,6009994
47,-0.565632,0.0403771,9.67915,0.107861,-0.552484,0.823197,-0.0056618,0.000392818,0.0967912,1,5.20183e-05,-2.80138e-05,7.80069e-05,0.0104037,-0.00560276,0.0156014,0,0,0,0,0.0750868,0.51924,-0.982729,34.8125,1,59528,6010294
48,-0.657592,-0.252463,9.80923,0.0981411,-0.591626,0.883493,-0.00657502,-0.00253407,0.0980921,1,4.1617e-05,2.10096e-06,9.69348e-05,0.0083234,0.000420191,0.019387,0,0,0,0,0.0701414,0.510839,-0.974307,34.8125,1,59531,6010594
49,-0.912955,0.125717,9.59137,-0.085131,-1.04521,0.931261,-0.00912358,0.00124819,0.0959145,1,3.78553e-05,3.23645e-05,9.39351e-05,0.00757106,0.0064729,0.018787,0,0,0,0,0.0711842,0.518829,-0.985246,34.8125,1,59535,6010994
50,-0.0571096,-0.127757,9.90084,0.749644,-1.29566,1.18937,-0.000576906,-0.00126634,0.0990086,1,-5.74106e-05,-3.08697e-05,0.000119036,-0.0114821,-0.00617394,0.0238072,0,0,0,0,0.0715956,0.51901,-0.968071,34.8125,1,59538,6011294
51,0.180829,-0.141545,10.0878,0.790842,-0.807365,1.2851,0.00181323,-0.00144288,0.100877,1,0.000137917,2.29334e-05,0.000109039,0.0275835,0.00458667,0.0218078,0,0,0,0,0.072637,0.522665,-0.982137,34.8125,1,59541,6011594
52,-0.624824,0.0682681,9.79564,0.104844,-1.04095,1.0634,-0.00624019,0.000692914,0.0979568,1,-5.94797e-05,4.18633e-05,0.000113732,-0.0118959,0.00837267,0.0227465,0,0,0,0,0.0733572,0.524414,-0.97099,34.8125,1,59545,6011994
53,-0.609396,-0.298788,9.84493,0.0177367,-0.679675,1.00466,-0.00607842,-0.00301055,0.0984496,1,0.000110069,7.64007e-05,8.22154e-05,0.0220138,0.0152801,0.0164431,0,0,0,0,0.0693955,0.518746,-0.979684,34.8125,1,59548,6012294
54,-0.341022,-0.324188,9.86965,0.441074,-0.636269,0.977357,-0.00342096,-0.00325609,0.0986956,1,6.86199e-05,-5.76134e-05,9.76321e-05,0.013724,-0.0115227,0.0195264,0,0,0,0,0.0747764,0.525865,-0.970964,34.8125,1,59551,6012594
55,0.17587,0.0579125,9.96708,1.01839,-0.677196,1.08761,0.00174718,0.000576043,0.099671,1,1.66487e-05,-5.73911e-05,6.77066e-05,0.00332975,-0.0114782,0.0135413,0,0,0,0,0.0663075,0.519533,-0.96753,34.8125,1,59555,6012994
56,-0.207025,-0.101914,9.76947,0.441033,-0.676143,0.967846,-0.0020673,-0.0010391,0.0976946,1,0.000100513,1.42733e-05,7.83129e-05,0.0201025,0.00285465,0.0156626,0,0,0,0,0.076558,0.529327,-0.974431,34.8125,1,59558,6013294
57,0.312014,0.146295,9.98891,1.02713,-0.362521,1.08022,0.00311788,0.00145022,0.0998894,1,6.64752e-05,-1.00156e-05,8.81664e-05,0.0132951,-0.00200311,0.0176333,0,0,0,0,0.0695733,0.521989,-0.970016,34.8125,1,59561,6013594
58,0.321471,-0.00449137,9.71724,1.00601,-0.615658,0.829751,0.00321348,-5.11568e-05,0.0971724,1,3.45161e-05,-6.33615e-06,7.23186e-05,0.00690321,-0.00126723,0.0144637,0,0,0,0,0.068362,0.52748,-0.976454,34.8125,1,59565,6013994
59,-0.396925,0.116765,9.77534,0.171032,-0.435853,1.04367,-0.00396884,0.00115665,0.0977535,1,5.42034e-05,2.66715e-06,4.97254e-05,0.0108407,0.000533429,0.00994509,0,0,0,0,0.0730464,0.529594,-0.960267,34.8125,1,59568,6014294
60,-0.0424808,-0.0811307,9.66609,0.559061,-0.679027,0.949294,-0.000433792,-0.000813762,0.0966608,1,1.23636e-05,-4.71165e-05,7.64361e-05,0.00247272,-0.0094233,0.0152872,0,0,0,0,0.0693531,0.527933,-0.974934,34.8125,1,59571,6014594
61,0.344044,0.0625991,10.0263,1.02274,-0.609762,1.07721,0.00343497,0.000627569,0.100264,1,-5.0124e-06,-2.67504e-05,8.32872e-05,-0.00100248,-0.00535008,0.0166574,0,0,0,0,0.0705967,0.533019,-0.959674,34.8125,1,59575,6014994
62,0.56683,0.0857562,9.96426,1.21078,-0.495955,1.06556,0.00565167,0.000848881,0.0996436,1,4.74624e-05,-8.28665e-05,6.8653e-05,0.00949247,-0.0165733,0.0137306,0,0,0,0,0.067663,0.527777,-0.965333,34.8125,1,59578,6015294
63,0.194062,-0.248823,9.63663,0.772919,-0.981974,0.777519,0.00193716,-0.00249372,0.0963662,1,2.99136e-05,-1.97415e-05,7.00004e-05,0.00598272,-0.0039483,0.0140001,0,0,0,0,0.0700624,0.534026,-0.961165,34.8125,1,59581,6015594
64,-0.0912283,-0.407282,9.77798,0.504633,-0.988424,0.908762,-0.00090735,-0.00408971,0.0977791,1,8.57307e-05,2.23707e-05,6.84064e-05,0.0171461,0.00447414,0.0136813,0,0,0,0,0.0635308,0.529114,-0.956193,34.8125,1,59585,6015994
65,-0.358981,-0.204439,9.93823,0.25148,-0.887475,0.867726,-0.00359281,-0.00205621,0.0993819,1,5.73268e-05,-1.63138e-05,5.89923e-05,0.0114654,-0.00326276,0.0117985,0,0,0,0,0.0717581,0.538996,-0.967123,34.8125,1,59588,6016294
66,-0.096791,-0.239884,10.043,0.430955,-0.857511,1.10502,-0.000978091,-0.00240962,0.10043,1,5.27082e-05,-5.30143e-05,9.71065e-05,0.0105416,-0.0106029,0.0194213,0,0,0,0,0.0630055,0.532524,-0.95561,34.8125,1,59591,6016594
67,-0.0389581,0.184446,9.97905,0.373126,-0.417753,1.23908,-0.000395461,0.00182602,0.0997908,1,9.20574e-05,-2.77459e-05,9.34056e-05,0.0184115,-0.00554919,0.0186811,0,0,0,0,0.067448,0.53709,-0.96765,34.8125,1,59595,6016994
68,-0.512768,0.10559,9.86286,-0.022685,-0.558533,0.936811,-0.00514198,0.00103107,0.0986282,1,0.000121578,-7.16153e-05,8.2742e-05,0.0243155,-0.0143231,0.0165484,0,0,0,0,0.0655103,0.533877,-0.950541,34.8125,1,59598,6017294
69,-0.681238,-0.128684,9.37422,0.0314931,-0.650608,0.522235,-0.00681994,-0.00129575,0.0937415,1,4.01193e-05,-4.17529e-05,0.000101475,0.00802386,-0.00835057,0.0202951,0,0,0,0,0.0665436,0.538019,-0.964595,34.8125,1,59601,6017594
70,-0.4251,-0.562101,9.6888,0.198412,-1.39426,0.758275,-0.00425869,-0.00564078,0.0968866,1,9.96588e-05,-4.28341e-05,5.44263e-05,0.0199318,-0.00856682,0.0108853,0,0,0,0,0.066305,0.537364,-0.955013,34.8125,1,59605,6017994
71,0.567091,-0.394637,10.0921,0.961961,-0.801972,1.08703,0.00564263,-0.00395092,0.100923,1,2.16024e-05,-0.00013946,-1.69477e-05,0.00432048,-0.0278921,-0.00338955,0,0,0,0,0.060999,0.533081,-0.958619,34.8125,3,59608,6018294
72,0.4725,0.0672871,10.644,1.02508,-0.466179,1.63737,0.0047062,0.000638388,0.106441,1,0.000160799,-8.84659e-05,-2.67713e-05,0.0321597,-0.0176932,-0.00535425,0,0,0,0,0.0635004,0.536846,-0.951981,34.8125,3,59611,6018594
73,-0.416634,0.426884,9.87322,0.0237673,-0.0719391,0.948778,-0.00416805,0.00428397,0.0987314,1,-7.13271e-05,-1.40453e-05,-0.000124508,-0.0142654,-0.00280906,-0.0249015,0,0,0,0,0.0592757,0.531987,-0.951059,34.8125,3,59615,6018994
74,-0.310151,-0.92675,9.97026,0.214905,-1.29063,0.998302,-0.0031008,-0.00924454,0.0997048,1,-0.000111023,1.57011e-05,-0.00013089,-0.0222047,0.00314023,-0.026178,0,0,0,0,0.0624029,0.538399,-0.956487,34.8125,3,59618,6019294
75,-0.153488,-0.0354833,10.0492,0.351246,-0.631291,1.205,-0.00152001,-0.000373769,0.100493,1,9.6143e-05,7.44114e-05,-0.00012663,0.0192286,0.0148823,-0.0253259,0,0,0,0,0.0578689,0.530526,-0.95058,34.8125,3,59621,6019594
76,0.0595129,-0.0970055,9.56968,0.247598,-0.54592,0.615816,0.000567792,-0.000979743,0.0956969,1,4.96363e-05,-0.000141187,-0.000161184,0.00992725,-0.0282374,-0.0322368,0,0,0,0,0.060107,0.534002,-0.955059,34.8125,3,59625,6019994
77,0.214527,-0.608196,10.0403,0.579061,-1.02883,1.11326,0.00211775,-0.00607611,0.100404,1,-3.26397e-05,-0.000127154,-0.000163559,-0.00652793,-0.0254307,-0.0327119,0,0,0,0,0.0575818,0.532798,-0.940932,34.8125,3,59628,6020294
78,-0.0958855,-0.324362,9.62791,0.382766,-1.24138,0.801734,-0.000964323,-0.00327131,0.0962782,1,0.00014517,-2.37773e-05,-0.000136463,0.0290339,-0.00475545,-0.0272926,0,0,0,0,0.0601976,0.534418,-0.951009,34.8125,3,59631,6020594
79,0.384193,0.246432,9.72234,1.1242,-0.401077,0.730619,0.00382128,0.00245126,0.0972245,1,6.03053e-05,-0.00011058,-0.000173769,0.0120611,-0.0221161,-0.0347538,0,0,0,0,0.059594,0.537055,-0.934281,34.8125,3,59635,6020994
80,0.1516,-0.563551,9.53946,0.365021,-1.2171,0.596725,0.0015101,-0.00565838,0.0953934,1,0.000117677,-2.27888e-05,-0.000137442,0.0235355,-0.00455776,-0.0274884,0,0,0,0,0.0532632,0.529934,-0.942491,34.8125,3,59638,6021294
81,2.24644,-0.240071,11.2815,2.58887,-0.874248,2.22128,0.0224922,-0.0024057,0.112809,1,-1.7341e-05,0.00012728,-0.000197904,-0.00346821,0.0254561,-0.0395808,0,0,0,0,0.0610706,0.537982,-0.932247,34.8125,3,59641,6021594
82,-0.21672,-0.586173,9.51582,0.242626,-1.15893,0.537375,-0.0021678,-0.00587199,0.0951575,1,5.74538e-05,6.50785e-06,-0.000156605,0.0114908,0.00130157,-0.0313209,0,0,0,0,0.0559491,0.532119,-0.929323,34.8125,3,59645,6021994
83,0.605946,0.773929,10.6111,0.653537,0.281624,1.69443,0.00603082,0.00771954,0.106114,1,8.29794e-05,-0.000147807,-0.000176411,0.0165959,-0.0295613,-0.0352822,0,0,0,0,0.0600518,0.541405,-0.932166,34.8125,3,59648,6022294
84,0.727645,-0.4055,10.3279,0.844162,-1.10734,1.56473,0.00726279,-0.00406201,0.103279,1,2.00111e-05,-5.83436e-05,-0.000197941,0.00400221,-0.0116687,-0.0395882,0,0,0,0,0.0536512,0.534469,-0.9232,34.8125,3,59651,6022594
85,1.53556,-0.737041,10.8389,1.8169,-1.29904,1.97011,0.0153522,-0.00738178,0.108388,1,2.27084e-05,-1.38954e-06,-0.000209822,0.00454168,-0.000277908,-0.0419644,0,0,0,0,0.0548706,0.541367,-0.927597,34.8125,3,59655,6022994
86,-0.0602713,-0.766976,9.42741,0.532445,-1.4384,0.581892,-0.00058015,-0.00768911,0.0942726,1,0.000103683,0.00013349,-0.000169663,0.0207367,0.026698,-0.0339326,0,0,0,0,0.057696,0.542486,-0.909403,34.8125,3,59658,6023294
87,1.07104,0.55589,11.6492,1.20083,-0.106348,2.22281,0.0107181,0.00554957,0.116491,1,2.39567e-05,2.49131e-05,-0.000174636,0.00479133,0.00498262,-0.0349271,0,0,0,0,0.05829,0.54853,-0.920383,34.8125,3,59661,6023594
88,-0.163769,0.458852,10.0796,0.499329,-0.352564,1.2292,-0.00163578,0.00459444,0.100796,1,-2.48598e-05,-3.18774e-06,-0.000277314,-0.00497196,-0.000637549,-0.0554628,0,0,0,0,0.061478,0.551659,-0.905682,34.8125,3,59665,6023994
89,0.382613,-0.256587,10.1583,0.860054,-0.939608,1.33494,0.00382202,-0.00256662,0.101583,1,-5.43539e-06,-1.40403e-05,-0.000243449,-0.00108708,-0.00280807,-0.0486897,0,0,0,0,0.0533725,0.550227,-0.903656,34.8125,3,59668,6024294
90,0.323388,-0.682353,9.42258,0.802628,-1.36704,0.665486,0.00325565,-0.00686644,0.0942219,1,0.000221154,0.000129431,-0.000191307,0.0442308,0.0258861,-0.0382615,0,0,0,0,0.0596345,0.560771,-0.895874,34.8125,3,59672,6024694
91,0.160253,0.881814,10.2073,0.616557,0.0300447,1.58927,0.00163844,0.00879874,0.102074,1,9.07993e-05,0.000152695,-0.00026896,0.0181599,0.0305391,-0.0537919,0,0,0,0,0.0524316,0.552281,-0.881383,34.8125,3,59675,6024994
92,-0.830767,-0.690058,9.66691,-0.585041,-1.06183,0.492946,-0.00830301,-0.00690759,0.096669,1,5.82103e-05,4.23435e-05,-0.000255209,0.0116421,0.00846871,-0.0510418,0,0,0,0,0.0564897,0.563527,-0.884687,34.8125,3,59678,6025294
93,0.560973,0.736613,10.4761,0.885083,0.000732619,1.69215,0.00561973,0.00736565,0.10476,1,-1.1306e-05,2.9942e-05,-0.000253223,-0.0022612,0.0059884,-0.0506447,0,0,0,0,0.0502371,0.556484,-0.869663,34.8125,3,59681,6025594
94,0.460705,-0.499278,9.48915,0.606689,-1.06715,0.461377,0.00458281,-0.00500486,0.094892,1,5.06113e-05,-0.000113521,-0.000269258,0.0101223,-0.0227041,-0.0538517,0,0,0,0,0.0548642,0.55947,-0.875174,34.8125,3,59685,6025994
95,-0.377566,0.730723,10.139,0.404973,0.486719,1.31261,-0.00372793,0.00731067,0.101392,1,-6.61445e-06,0.000215145,-0.000280952,-0.00132289,0.043029,-0.0561903,0,0,0,0,0.0568731,0.553262,-0.856129,34.8125,3,59688,6026294
96,-0.19595,-0.927294,9.82374,-0.0497042,-1.59594,1.13205,-0.00194518,-0.0093261,0.0982326,1,0.000275008,9.40405e-05,-0.000223329,0.0550016,0.0188081,-0.0446658,0,0,0,0,0.0539148,0.548038,-0.862797,34.8125,3,59692,6026694
97,0.984451,1.36438,11.5124,1.81115,0.309998,2.91051,0.00984046,0.0135655,0.115134,1,0.000320361,-4.48892e-05,-0.000231206,0.0640722,-0.00897784,-0.0462411,0,0,0,0,0.0617132,0.553683,-0.854627,34.8125,3,59695,6026994
98,-0.943415,0.0647286,8.93962,-0.525456,-1.15166,0.107847,-0.00941757,0.000625775,0.0893981,1,0.000147812,9.0931e-05,-0.00026082,0.0295624,0.0181862,-0.052164,0,0,0,0,0.0608949,0.540575,-0.857945,34.8125,3,59698,6027294
99,0.918968,-0.751735,11.0003,1.56405,-1.85662,2.2322,0.0092532,-0.00757055,0.109994,1,0.000222172,0.000304787,-0.000234221,0.0444344,0.0609573,-0.0468443,0,0,0,0,0.0706259,0.545716,-0.849794,34.8125,3,59701,6027594
100,-0.0926391,0.899053,10.4727,0.0171041,0.959614,1.24629,-0.000948267,0.00902351,0.104724,1,-0.000154629,-0.000131691,-0.000316779,-0.0309258,-0.0263382,-0.0633559,0,0,0,0,0.0714359,0.532461,-0.845547,34.8125,3,59705,6027994
101,-0.03815,-0.294153,9.52246,-0.13287,-1.23582,0.296543,-0.000434139,-0.00299484,0.0952227,1,0.000281071,-0.000268266,-0.00026093,0.0562141,-0.0536531,-0.052186,0,0,0,0,0.0813192,0.538321,-0.850513,34.8125,3,59708,6028294
102,-1.19121,-1.46149,9.55797,-1.26519,-1.61687,0.29591,-0.0119349,-0.0145811,0.095582,1,-0.000135971,-6.90607e-05,-0.0003279,-0.0271942,-0.0138121,-0.06558,0,0,0,0,0.0860986,0.528801,-0.838625,34.8125,3,59712,6028694
103,0.508744,0.726991,11.2186,0.949876,0.334718,2.44515,0.00509441,0.0072464,0.112187,1,8.9316e-05,8.98015e-06,-0.000341037,0.0178632,0.00179603,-0.0682073,0,0,0,0,0.0920775,0.528468,-0.850277,34.8125,3,59715,6028994
104,-0.122711,-0.913286,9.81758,-0.134749,-1.27228,0.888453,-0.00125294,-0.00912892,0.0981758,1,-1.58749e-05,-0.00010063,-0.000332355,-0.00317497,-0.020126,-0.066471,0,0,0,0,0.0966657,0.525352,-0.841781,34.8125,3,59718,6029294
105,-0.98257,-0.138629,8.67628,-0.702454,-0.410849,-0.297161,-0.00981797,-0.00140186,0.0867635,1,0.000123088,4.92941e-05,-0.000294244,0.0246176,0.00985883,-0.0588487,0,0,0,0,0.100671,0.526517,-0.8544,34.8125,3,59721,6029594
106,-2.74681,0.82066,7.88625,-2.76242,0.214273,-0.760685,-0.0274418,0.0082347,0.0788687,1,-5.40168e-05,0.000129515,-0.000356725,-0.0108034,0.0259029,-0.0713451,0,0,0,0,0.10892,0.527362,-0.850884,34.8125,3,59725,6029994
107,-0.122877,-0.0618483,9.82804,0.460247,-0.88418,0.904642,-0.00122956,-0.000627636,0.0982804,1,5.15733e-05,-1.51962e-06,-0.000400475,0.0103147,-0.000303925,-0.0800951,0,0,0,0,0.107472,0.524004,-0.853477,34.8125,3,59728,6030294
108,-1.46745,0.12133,8.45407,-1.31292,-0.346016,-0.783757,-0.0146733,0.00119838,0.0845411,1,0.000147868,2.15568e-06,-0.000343379,0.0295735,0.000431135,-0.0686758,0,0,0,0,0.111158,0.529392,-0.856405,34.8125,3,59731,6030594
109,-0.886614,-0.417381,9.56501,-0.601417,-1.37281,0.735433,-0.00883762,-0.00419841,0.0956516,1,0.000178469,0.000172701,-0.000538955,0.0356938,0.0345402,-0.107791,0,0,0,0,0.110329,0.520629,-0.857101,34.8125,3,59735,6030994
110,-1.91176,-0.805244,8.89148,-1.74818,-1.56756,-0.060343,-0.0191134,-0.00805452,0.0889155,1,0.000138815,7.72248e-05,-0.000591318,0.027763,0.015445,-0.118264,0,0,0,0,0.110408,0.525737,-0.870119,34.8125,3,59738,6031294
111,-1.58896,0.442993,8.69703,-1.35685,0.376756,-0.608183,-0.0159184,0.00447962,0.0869625,1,-0.000156224,-0.000202244,-0.000707738,-0.0312448,-0.0404488,-0.141548,0,0,0,0,0.102856,0.518467,-0.869236,34.8125,3,59741,6031594
112,-0.472875,0.44972,10.4472,0.281919,-0.330685,1.67046,-0.00470999,0.0044822,0.104473,1,9.9195e-05,6.37194e-05,-0.000606859,0.019839,0.0127439,-0.121372,0,0,0,0,0.102173,0.515246,-0.879911,34.8125,3,59745,6031994
113,-1.01433,-0.734857,9.19077,-0.555725,-1.48885,0.529899,-0.0101308,-0.00740205,0.0919048,1,0.000366498,0.000123081,-0.000685466,0.0732996,0.0246163,-0.137093,0,0,0,0,0.101912,0.509306,-0.874991,34.8125,3,59748,6032294
114,0.185452,0.252106,10.6217,0.283404,-0.35199,1.62716,0.00186252,0.00244712,0.106219,1,0.000337052,2.29683e-05,-0.000629325,0.0674103,0.00459366,-0.125865,0,0,0,0,0.0943396,0.504325,-0.893249,34.8125,3,59751,6032594
115,-1.50458,0.636714,8.63455,-1.38301,-0.245664,0.205853,-0.0150384,0.00632991,0.0863495,1,0.000339268,-9.29009e-06,-0.000710005,0.0678535,-0.00185802,-0.142001,0,0,0,0,0.0949091,0.497511,-0.894413,34.8125,3,59755,6032994
116,0.37604,-0.804415,10.0989,0.332074,-1.58394,1.02117,0.00372348,-0.00809201,0.100986,1,0.000209758,-0.000124223,-0.00073343,0.0419516,-0.0248446,-0.146686,0,0,0,0,0.0862993,0.487908,-0.899132,34.8125,3,59758,6033294
117,-0.0170975,-0.193062,9.92846,0.0690706,-1.25899,1.32494,-0.000194175,-0.00198807,0.0992834,1,0.000290698,-0.000101701,-0.000767013,0.0581397,-0.0203403,-0.153403,0,0,0,0,0.0842306,0.487066,-0.905707,34.8125,3,59762,6033694
118,-1.14545,0.373162,9.40266,-1.48521,0.394073,0.520236,-0.0114281,0.00377555,0.0940281,1,-0.000147129,0.000112166,-0.000710553,-0.0294258,0.0224332,-0.142111,0,0,0,0,0.0810821,0.47826,-0.902858,34.8125,3,59765,6033994
119,-1.03501,1.09083,9.90559,-1.01286,0.815351,0.964365,-0.0102995,0.0109223,0.0990596,1,1.04242e-05,0.000170041,-0.000778233,0.00208484,0.0340082,-0.155647,0,0,0,0,0.0798209,0.482341,-0.912358,34.8125,3,59768,6034294
120,0.0735242,-1.46692,10.0768,-0.287912,-2.80416,1.39501,0.000698982,-0.0147326,0.100759,1,0.000309314,-7.27386e-05,-0.000734711,0.0618629,-0.0145477,-0.146942,0,0,0,0,0.0733999,0.475903,-0.903885,34.8125,3,59772,6034694
121,-0.723733,0.123253,9.14972,-0.981381,-0.385912,0.393155,-0.00724074,0.00120455,0.0914974,1,0.000205384,-2.74358e-05,-0.00066355,0.0410767,-0.00548715,-0.13271,0,0,0,0,0.0702508,0.478528,-0.912903,34.8125,3,59775,6034994
122,-1.5059,-1.01701,9.78887,-1.16873,-1.67408,1.42771,-0.0149996,-0.0101237,0.0979026,0.999999,-0.000123565,0.000380171,-0.000739055,-0.0247131,0.0760343,-0.147811,0,0,0,0,0.0680184,0.479867,-0.904782,34.8125,3,59778,6035294
123,-1.61012,-0.277212,8.71738,-1.35028,-0.951132,-0.430598,-0.0160717,-0.00275207,0.0871799,1,3.1302e-05,0.000194127,-0.000793108,0.00626041,0.0388254,-0.158622,0,0,0,0,0.0630834,0.478552,-0.910849,34.8125,3,59782,6035694
124,0.584848,-1.1741,11.2213,0.68868,-2.20991,2.09646,0.00581752,-0.0118093,0.112207,1,0.000271699,-7.25786e-05,-0.000623127,0.0543399,-0.0145157,-0.124625,0,0,0,0,0.0558803,0.482939,-0.907183,34.8125,3,59785,6035994
125,-0.0986404,-0.142952,10.1548,0.028486,-0.881472,1.25462,-0.000977603,-0.00147105,0.101547,1,0.00021177,5.40952e-05,-0.000753141,0.0423539,0.010819,-0.150628,0,0,0,0,0.0501587,0.477649,-0.90879,34.8125,3,59788,6036294
126,-0.0758248,-1.14781,11.2447,0.240827,-2.50141,2.86991,-0.000722758,-0.0115283,0.112442,1,0.000228187,0.000236475,-0.000768918,0.0456375,0.047295,-0.153784,0,0,0,0,0.0437623,0.484069,-0.910133,34.8125,3,59792,6036694
127,-0.97411,-0.0735692,8.51773,-0.979609,-0.982481,-0.20549,-0.00974397,-0.000783628,0.0851766,1,0.000358305,-1.07891e-05,-0.000672469,0.0716611,-0.00215782,-0.134494,0,0,0,0,0.0362794,0.47482,-0.907778,34.8125,3,59795,6036994
128,-3.25856,0.479171,7.09252,-3.0686,-0.155783,-1.62832,-0.032556,0.0048098,0.0709376,1,0.000207148,0.000159405,-0.00072886,0.0414297,0.031881,-0.145772,0,0,0,0,0.0336603,0.47596,-0.915822,34.8125,3,59798,6037294
129,-0.574198,0.262511,10.3432,-0.846588,-0.362428,1.20462,-0.0057748,0.00259666,0.103431,1,0.000180853,-0.000178284,-0.000778103,0.0361705,-0.0356567,-0.155621,0,0,0,0,0.025889,0.464647,-0.906946,34.8125,3,59802,6037694
130,-1.17587,-1.2719,9.447,-1.02968,-1.375,0.731417,-0.0117806,-0.0127099,0.0944685,1,4.80541e-05,-1.19328e-05,-0.000770542,0.00961083,-0.00238655,-0.154108,0,0,0,0,0.0213198,0.46293,-0.918075,34.8125,3,59805,6037994
131,0.775494,-0.362914,10.931,1.53699,-1.14617,2.43443,0.00781189,-0.00363455,0.109306,1,-3.30814e-05,0.000287505,-0.000811926,-0.00661628,0.057501,-0.162385,0,0,0,0,0.0168356,0.456467,-0.909107,34.8125,3,59808,6038294
132,-1.72121,-1.12099,8.56392,-1.96952,-1.70611,-0.191115,-0.0172493,-0.0112138,0.0856312,1,0.000181146,-0.000113902,-0.000788667,0.0362291,-0.0227804,-0.157733,0,0,0,0,0.0133473,0.452728,-0.916749,34.8125,3,59812,6038694
133,0.21957,-0.438803,11.0023,1.11441,-1.10118,2.53367,0.00220131,-0.00439232,0.110023,1,4.57218e-06,5.5305e-05,-0.000746609,0.000914436,0.011061,-0.149322,0,0,0,0,0.0114897,0.456068,-0.911616,34.8125,3,59815,6038994
134,-1.25655,0.170392,9.33381,-1.5575,0.159437,-0.189668,-0.0126123,0.00171115,0.0933317,1,6.80316e-05,-0.000265307,-0.000791604,0.0136063,-0.0530614,-0.158321,0,0,0,0,0.0100697,0.451726,-0.913726,34.8125,3,59818,6039294
135,-1.32877,-1.19003,9.38456,-1.83375,-0.671596,-0.0924072,-0.0133204,-0.0118497,0.0938474,1,-0.000165492,-8.11169e-05,-0.000735165,-0.0330984,-0.0162234,-0.147033,0,0,0,0,0.00755109,0.458575,-0.913562,34.8125,3,59822,6039694
136,-1.08136,-0.0923772,8.04116,-1.13567,-0.438447,-0.802906,-0.0108648,-0.000919283,0.0804047,1,6.97146e-05,-0.000310468,-0.000724264,0.0139429,-0.0620937,-0.144853,0,0,0,0,0.00444475,0.453111,-0.906599,34.8125,3,59825,6039994
137,-1.21297,0.618581,10.3808,-0.346702,0.137998,2.23773,-0.0120222,0.00621344,0.103819,0.999999,-4.68158e-05,0.000473406,-0.000741225,-0.00936317,0.0946812,-0.148245,0,0,0,0,0.00421358,0.4634,-0.908894,34.8125,3,59828,6040294
138,0.0914468,0.27807,9.86784,0.599581,-0.545905,1.42338,0.00092086,0.00276658,0.0986788,1,6.44601e-05,1.09136e-05,-0.000763867,0.012892,0.00218272,-0.152773,0,0,0,0,-0.00033473,0.462284,-0.898797,34.8125,3,59832,6040694
139,-0.70487,-1.98149,9.77081,-0.777659,-2.519,1.21089,-0.00711046,-0.0198117,0.0977043,1,3.79473e-05,-0.000164574,-0.000746915,0.00758947,-0.0329148,-0.149383,0,0,0,0,-0.00350379,0.466851,-0.907267,34.8125,3,59835,6040994
140,-2.08392,1.52546,8.17462,-2.00665,1.18989,-0.782155,-0.020832,0.0152684,0.0817455,1,0.00010233,-9.25382e-05,-0.000732221,0.0204659,-0.0185076,-0.146444,0,0,0,0,-0.00797808,0.465681,-0.89414,34.8125,3,59838,6041294
141,-0.932078,0.701685,9.90947,-1.19296,0.712956,0.270106,-0.00933467,0.00703863,0.0990919,1,-3.7516e-05,-0.000124556,-0.000768762,-0.00750321,-0.0249112,-0.153752,0,0,0,0,-0.0153509,0.466337,-0.900153,34.8125,3,59842,6041694
142,0.412415,-2.44536,10.9182,-0.0911925,-3.90513,1.91707,0.00405761,-0.0245378,0.109166,0.999999,0.000355681,-0.000125537,-0.000798782,0.0711362,-0.0251074,-0.159756,0,0,0,0,-0.0177594,0.470214,-0.89753,34.8125,3,59845,6041994
143,-0.51054,-0.945806,10.3587,-0.486416,-1.9837,1.82887,-0.00507256,-0.00947385,0.103587,1,0.000110826,0.000222926,-0.000704312,0.0221653,0.0445851,-0.140862,0,0,0,0,-0.0244262,0.466847,-0.897069,34.8125,3,59848,6042294
144,0.284326,-1.86323,10.5577,-0.115691,-3.26579,1.60401,0.0027702,-0.0187187,0.105564,1,0.000390379,-0.000220771,-0.000708069,0.0780758,-0.0441543,-0.141614,0,0,0,0,-0.0278719,0.467895,-0.899555,34.8125,3,59852,6042694
145,-3.17195,-0.825641,7.43754,-3.29533,-0.258408,-1.81828,-0.0317617,-0.00820754,0.0743629,1,-9.24333e-07,-0.000198301,-0.000767787,-0.000184867,-0.0396602,-0.153557,0,0,0,0,-0.0323361,0.45949,-0.891135,34.8125,3,59855,6042994
146,0.387946,0.0248728,10.5854,0.58146,-0.959655,1.82693,0.00390254,0.000242537,0.105854,1,9.20011e-07,0.000107245,-0.00077053,0.000184002,0.0214489,-0.154106,0,0,0,0,-0.0382477,0.464939,-0.893007,34.8125,3,59858,6043294
147,-1.56534,-2.6828,9.9987,-2.10474,-3.30723,0.873827,-0.0156792,-0.0268747,0.0999704,1,0.000348959,6.89653e-05,-0.000737428,0.0697918,0.0137931,-0.147486,0,0,0,0,-0.0378419,0.460306,-0.879475,34.8125,3,59862,6043694
148,-0.318017,0.241712,10.971,-0.217061,-0.824256,1.80682,-0.00316505,0.00238397,0.109711,1,0.000170018,5.4616e-05,-0.000654451,0.0340036,0.0109232,-0.13089,0,0,0,0,-0.040946,0.462416,-0.88699,34.8125,3,59865,6043994
149,0.522525,-0.187374,11.2469,0.702127,-1.13258,2.11887,0.00523482,-0.0018934,0.112468,1,5.83323e-05,5.302e-05,-0.000625642,0.0116665,0.010604,-0.125128,0,0,0,0,-0.0400255,0.460164,-0.870377,34.8125,3,59868,6044294
150,-0.819103,0.555509,9.22578,-0.683702,-0.626639,0.810829,-0.00818607,0.00551067,0.0922609,1,0.000300189,-1.32896e-05,-0.000669643,0.0600378,-0.00265792,-0.133929,0,0,0,0,-0.0389394,0.461511,-0.864292,34.8125,3,59872,6044694
151,-0.807168,-1.18761,9.57953,-0.533704,-1.94542,1.1159,-0.0080733,-0.0118909,0.0957933,1,0.000121898,5.72796e-05,-0.000529943,0.0243796,0.0114559,-0.105989,0,0,0,0,-0.0354744,0.469604,-0.854532,34.8125,3,59875,6044994
152,-0.265172,2.53601,11.32,0.780893,1.65614,2.93181,-0.0025467,0.025348,0.113205,1,6.14165e-05,0.000385225,-0.00035101,0.0122833,0.077045,-0.0702019,0,0,0,0,-0.0309484,0.465088,-0.849602,34.8125,3,59878,6045294
153,-0.888065,0.0961823,9.9473,-0.598602,-1.0838,1.42767,-0.00885019,0.000947317,0.0994758,1,9.37266e-05,0.000150871,-0.000233531,0.0187453,0.0301742,-0.0467063,0,0,0,0,-0.0265938,0.477562,-0.839749,34.8125,3,59882,6045694
154,-1.41845,-0.487603,8.85438,-1.46661,-0.752015,-0.374108,-0.0142003,-0.004889,0.0885406,1,9.75182e-05,-8.09211e-05,-0.000151221,0.0195036,-0.0161842,-0.0302442,0,0,0,0,-0.0238527,0.471997,-0.829784,34.8125,3,59885,6045994
155,-1.03796,-0.00154712,9.64658,-1.18184,-0.282175,0.472244,-0.0103937,1.84355e-06,0.0964642,1,-8.17495e-05,-7.30377e-05,-7.42683e-05,-0.0163499,-0.0146075,-0.0148537,0,0,0,0,-0.0187294,0.483641,-0.828539,34.8125,3,59888,6046294
156,-1.55943,0.535761,9.74751,-1.09512,0.278892,0.69485,-0.0155938,0.00540202,0.0974728,1,-0.000204536,-5.33054e-06,-0.000145346,-0.0409071,-0.00106611,-0.0290691,0,0,0,0,-0.0125214,0.47942,-0.813509,34.8125,3,59892,6046694
157,-1.71505,-0.193197,8.02911,-2.11137,-0.519723,-1.27583,-0.0171933,-0.0019552,0.0802814,1,0.000163526,-0.000264486,-8.82494e-05,0.0327052,-0.0528971,-0.0176499,0,0,0,0,-0.00987286,0.480534,-0.822588,34.8125,3,59895,6046994
158,-1.93707,0.446553,7.90572,-1.70754,0.0687913,-0.685148,-0.0193309,0.00448302,0.079066,1,-8.72284e-05,0.000246189,-9.56028e-05,-0.0174457,0.0492378,-0.0191206,0,0,0,0,-0.0056837,0.47688,-0.811072,34.8125,3,59898,6047294
159,-2.63237,1.66779,7.8194,-2.45347,1.84196,-1.46447,-0.026332,0.0166521,0.0781967,1,0.000165174,-5.32855e-05,-1.7118e-06,0.0330348,-0.0106571,-0.00034236,0,0,0,0,0.00338168,0.471077,-0.818314,34.8125,3,59902,6047694
160,-1.34382,-0.829742,10.3888,-1.44438,-1.1475,1.21249,-0.0134091,-0.00823577,0.103897,1,-0.000284578,0.000147341,-9.37291e-05,-0.0569157,0.0294682,-0.0187458,0,0,0,0,0.00964808,0.469571,-0.818881,34.8125,3,59905,6047994
161,0.568058,-1.1903,11.3185,0.573812,-2.45314,2.0692,0.00566886,-0.0119482,0.11318,1,0.000200224,-5.29331e-05,1.087e-05,0.0400447,-0.0105866,0.002174,0,0,0,0,0.015942,0.46419,-0.82105,34.8125,3,59908,6048294
162,-1.96318,-0.405462,8.37421,-1.83632,-0.211425,-0.0121024,-0.01961,-0.00404469,0.0837477,1,-4.53788e-05,0.000132923,-5.94499e-05,-0.00907576,0.0265845,-0.01189,0,0,0,0,0.0268806,0.465154,-0.825625,34.8125,3,59912,6048694
163,-0.662606,-0.53614,9.8642,-0.702488,-0.964422,1.30409,-0.00661979,-0.00538477,0.0986412,1,0.000120203,3.31944e-05,-2.59631e-05,0.0240406,0.00663888,-0.00519263,0,0,0,0,0.0357472,0.454812,-0.824381,34.8125,3,59915,6048994
164,-0.17581,-0.819717,10.7937,-0.485069,-1.21044,1.22359,-0.00176529,-0.00818712,0.107938,1,-4.51222e-05,-2.67468e-05,-8.64061e-05,-0.00902444,-0.00534936,-0.0172812,0,0,0,0,0.0422171,0.459769,-0.831876,34.8125,3,59918,6049294
165,-2.12658,-0.848068,7.64109,-2.23415,-1.19041,-1.31285,-0.0212672,-0.00850839,0.0764074,1,0.000212301,3.49719e-06,-0.000111185,0.0424603,0.000699438,-0.0222371,0,0,0,0,0.0524667,0.453796,-0.830036,34.8125,3,59922,6049694
166,-0.188717,-2.18731,9.94067,-0.287881,-2.90498,1.0605,-0.00187734,-0.0218296,0.0994165,1,-0.000215886,8.43642e-05,-0.00015885,-0.0431772,0.0168728,-0.03177,0,0,0,0,0.0565059,0.457346,-0.839572,34.8125,3,59925,6049994
167,-0.110193,0.946042,10.8783,0.19338,-0.517349,2.32154,-0.00104556,0.00935258,0.108793,1,0.000496031,0.000255757,-3.85751e-05,0.0992062,0.0511514,-0.00771502,0,0,0,0,0.0629526,0.45378,-0.834125,34.8125,3,59928,6050294
168,-0.593412,-1.54685,10.8819,-0.584862,-2.45272,1.48681,-0.00594004,-0.0154285,0.108824,1,-0.000174177,-2.22355e-06,-0.000176101,-0.0348354,-0.00044471,-0.0352202,0,0,0,0,0.0708194,0.454904,-0.846258,34.8125,3,59932,6050694
169,-1.86716,-0.825923,8.66587,-1.86331,-1.4729,-0.447168,-0.0187012,-0.00828613,0.0866498,1,0.000179757,-0.000159674,-0.000113811,0.0359515,-0.0319349,-0.0227622,0,0,0,0,0.0746085,0.460698,-0.844631,34.8125,3,59935,6050994
170,-0.105513,1.24604,9.59636,0.122053,0.682395,0.412885,-0.00104633,0.0125154,0.0959566,1,-0.000285379,2.99392e-05,-0.000122221,-0.0570757,0.00598785,-0.0244442,0,0,0,0,0.0750465,0.454461,-0.850833,34.8125,3,59938,6051294
171,-0.690955,0.115204,10.0361,-0.499395,-1.02837,1.28358,-0.00690815,0.00111928,0.100361,1,0.000168759,6.07113e-06,-8.05342e-05,0.0337517,0.00121423,-0.0161068,0,0,0,0,0.0771982,0.458,-0.858845,34.8125,3,59942,6051694
172,-2.44473,-0.199603,8.43419,-2.17008,-0.292742,-0.389692,-0.0244317,-0.00197984,0.0843468,1,-6.00789e-05,9.52948e-05,-0.000123966,-0.0120158,0.019059,-0.0247933,0,0,0,0,0.0792599,0.449692,-0.859039,34.8125,3,59945,6051994
173,-0.769454,-0.138834,10.6226,-0.62905,-0.75122,1.86132,-0.00764871,-0.00140582,0.106229,1,8.17122e-05,0.000215624,7.89372e-06,0.0163424,0.0431248,0.00157874,0,0,0,0,0.0813291,0.452327,-0.871112,34.8125,3,59948,6052294
174,-0.845752,0.0387353,9.17318,-0.513033,-0.725244,0.259041,-0.00845421,0.000329762,0.0917323,1,0.000319437,1.77885e-05,-5.99521e-05,0.0638873,0.00355771,-0.0119904,0,0,0,0,0.0814412,0.442608,-0.873348,34.8125,3,59952,6052694
175,-0.904873,0.906251,10.5471,-1.01455,0.50947,1.3453,-0.00907021,0.00908587,0.105467,1,-0.000102304,-0.000110307,-9.86496e-05,-0.0204608,-0.0220615,-0.0197299,0,0,0,0,0.0835859,0.436996,-0.88813,34.8125,3,59955,6052994
176,-1.09662,-0.357262,9.36627,-1.08384,-0.714097,0.0266681,-0.0110009,-0.00358947,0.093658,1,9.80014e-05,-0.000182357,-6.86932e-05,0.0196003,-0.0364714,-0.0137386,0,0,0,0,0.0842013,0.432557,-0.885706,34.8125,3,59958,6053294
177,-0.312208,-0.490037,10.4074,-0.433766,-1.40169,1.51927,-0.00314028,-0.0049429,0.104071,1,0.000206246,-8.44243e-05,-6.3909e-05,0.0412491,-0.0168849,-0.0127818,0,0,0,0,0.0854526,0.42353,-0.900054,34.8125,3,59962,6053694
178,-1.24455,-0.467445,9.44461,-1.18779,-0.64689,0.390851,-0.0124624,-0.00471201,0.094442,1,0.000212757,-8.44261e-05,-0.000105251,0.0425514,-0.0168852,-0.0210502,0,0,0,0,0.0862881,0.426024,-0.903538,34.8125,3,59965,6053994
179,-1.0313,1.12505,9.25349,-0.824921,0.752822,0.586541,-0.010308,0.0112423,0.0925364,1,5.21468e-05,1.83485e-05,-7.11741e-05,0.0104294,0.0036697,-0.0142348,0,0,0,0,0.0886463,0.419292,-0.910264,34.8125,3,59968,6054294
180,-0.882935,0.244632,10.4628,-0.62019,-0.685594,1.7567,-0.00879071,0.00242162,0.104632,1,0.000128731,0.000181714,-0.000126752,0.0257463,0.0363427,-0.0253503,0,0,0,0,0.0888617,0.424301,-0.91773,34.8125,3,59972,6054694
181,-0.205908,0.68049,10.0572,-0.167164,-0.0550466,1.20263,-0.0021086,0.00680153,0.100571,1,1.88929e-05,-0.000253158,-0.000103181,0.00377857,-0.0506317,-0.0206362,0,0,0,0,0.0886136,0.419798,-0.911263,34.8125,3,59975,6054994
182,-0.0833547,-1.70462,10.5923,-0.674943,-2.3995,1.50385,-0.000875981,-0.017091,0.105915,1,0.000212715,-0.00018138,-0.00011749,0.0425431,-0.036276,-0.0234979,0,0,0,0,0.0888702,0.425259,-0.916699,34.8125,3,59978,6055294
183,-2.06457,0.490498,8.54144,-2.31482,0.292576,-0.826153,-0.0206864,0.00489637,0.0854051,1,6.98483e-05,-0.000242781,-8.0362e-05,0.0139697,-0.0485563,-0.0160724,0,0,0,0,0.0894823,0.423231,-0.912706,34.8125,3,59982,6055694
184,-1.55101,-0.801645,8.80662,-1.48987,-1.37411,-0.000983238,-0.0155171,-0.00800354,0.0880661,1,-4.08701e-05,-2.31189e-05,-0.000183952,-0.00817403,-0.00462379,-0.0367903,0,0,0,0,0.0887392,0.427282,-0.920693,34.8125,3,59985,6055994
185,-0.201253,-1.67328,10.5249,-0.810437,-2.46314,1.47011,-0.00200479,-0.016756,0.105245,1,0.00011034,4.10397e-05,-2.68877e-05,0.022068,0.00820794,-0.00537754,0,0,0,0,0.0889902,0.42758,-0.910082,34.8125,3,59988,6056294
186,-1.26664,1.6524,9.19071,-1.09821,0.929925,0.287333,-0.0126707,0.0164973,0.0919113,1,0.000154871,-3.61652e-05,-7.17828e-05,0.0309742,-0.00723304,-0.0143566,0,0,0,0,0.0869372,0.424317,-0.917721,34.8125,3,59992,6056694
187,-1.08816,-2.13758,9.73844,-1.74387,-2.52264,0.777586,-0.0108867,-0.0213647,0.0973863,1,-4.28574e-05,9.23976e-07,-0.00012525,-0.00857147,0.000184795,-0.0250499,0,0,0,0,0.0840158,0.431594,-0.91401,34.8125,3,59995,6056994
188,-1.25058,-0.663281,9.1594,-1.61513,-1.19272,0.2319,-0.0125313,-0.00667608,0.0915874,1,0.000241363,-0.000136155,-3.77938e-05,0.0482726,-0.0272309,-0.00755876,0,0,0,0,0.0835039,0.425357,-0.919702,34.8125,3,59998,6057294
189,-0.969554,-1.31738,9.58697,-1.46328,-1.83962,0.311769,-0.00974238,-0.0131801,0.0958641,1,4.03235e-05,-0.000234407,-7.22962e-05,0.0080647,-0.0468814,-0.0144592,0,0,0,0,0.0814371,0.430295,-0.922108,34.8125,3,60002,6057694
190,-0.850772,0.332067,9.40965,-0.611156,-0.337894,0.701462,-0.00852889,0.00326008,0.0940967,1,0.000332513,-0.000116606,-0.00011671,0.0665026,-0.0233213,-0.023342,0,0,0,0,0.0840976,0.417079,-0.920899,34.8125,3,60005,6057994
191,-1.43508,-0.0244021,9.4923,-1.08139,-0.285194,1.39538,-0.0143078,-0.000231185,0.0949296,1,-5.2507e-05,0.000226785,-0.000100039,-0.0105014,0.0453569,-0.0200078,0,0,0,0,0.0838247,0.42547,-0.926267,34.8125,3,60008,6058294
192,-1.31201,0.258388,8.97763,-0.953133,-0.250821,0.89602,-0.0130947,0.00257146,0.0897804,1,7.52619e-05,0.000139832,-4.18802e-05,0.0150524,0.0279665,-0.00837605,0,0,0,0,0.0850299,0.413719,-0.924513,34.8125,3,60012,6058694
193,-1.87067,1.37467,9.14044,-0.988207,0.92391,0.989394,-0.0186539,0.0137467,0.0914152,1,1.77263e-05,0.000276208,-8.51974e-05,0.00354526,0.0552415,-0.0170395,0,0,0,0,0.0885515,0.418745,-0.934519,34.8125,3,60015,6058994
194,0.285692,-0.53975,11.04,0.732737,-1.54643,2.12605,0.00280892,-0.00542669,0.1104,1,0.000129501,-0.000212144,-0.000106409,0.0259002,-0.0424289,-0.0212817,0,0,0,0,0.0931188,0.414681,-0.92756,34.8125,3,60018,6059294
195,-0.274961,0.257408,10.3656,-0.0264705,-0.549084,1.2584,-0.00273944,0.00254579,0.103657,1,0.000138479,4.71631e-05,-7.6289e-05,0.0276957,0.00943261,-0.0152578,0,0,0,0,0.0977981,0.413774,-0.933662,34.8125,3,60022,6059694
196,-1.16303,-0.396302,9.98598,-0.838032,-1.14424,1.41789,-0.0115834,-0.00397657,0.0998648,1,7.47208e-05,0.000237061,-5.90044e-05,0.0149442,0.0474121,-0.0118009,0,0,0,0,0.101951,0.424469,-0.933443,34.8125,3,60025,6059994
197,0.37156,0.164612,11.3785,0.785333,-0.337788,2.5771,0.0037089,0.00170617,0.113784,1,-0.00026782,-3.12004e-05,-0.000121505,-0.0535639,-0.00624009,-0.024301,0,0,0,0,0.105729,0.422079,-0.93806,34.8125,3,60028,6060294
198,-1.36688,0.471117,9.36255,-1.41124,-0.332138,0.415192,-0.0136658,0.00466032,0.0936285,1,0.000266868,1.76134e-05,3.21811e-05,0.0533736,0.00352268,0.00643622,0,0,0,0,0.109816,0.435231,-0.938796,34.8125,3,60032,6060694
199,-1.00248,0.47947,9.26988,-1.05793,0.195266,-0.334291,-0.0100626,0.00483306,0.0926927,1,-0.000195159,-0.000209432,-0.000108407,-0.0390317,-0.0418865,-0.0216814,0,0,0,0,0.111924,0.429298,-0.935402,34.8125,3,60035,6060994
200,-1.51797,-0.712416,9.10703,-1.85967,-1.04689,-0.0454571,-0.0151946,-0.00711211,0.0910688,1,-4.85967e-05,-7.34111e-05,-0.000105219,-0.00971934,-0.0146822,-0.0210437,0,0,0,0,0.117417,0.44102,-0.938703,34.8125,3,60038,6061294
201,-0.695585,0.60683,9.6232,-0.124359,-0.0968218,1.23191,-0.00696495,0.0060762,0.0962308,1,-3.80998e-05,-4.98621e-05,-4.04273e-05,-0.00761997,-0.00997242,-0.00808545,0,0,0,0,0.119897,0.440946,-0.935685,34.8125,3,60042,6061694
202,-1.97878,0.149611,8.54498,-1.64382,-0.102237,-0.298728,-0.0197889,0.00150252,0.0854494,1,-1.90462e-05,-8.023e-06,-7.97032e-05,-0.00380924,-0.0016046,-0.0159406,0,0,0,0,0.119944,0.448005,-0.94866,34.8125,3,60045,6061994
203,-0.408154,-0.452297,10.1787,-0.200826,-1.38744,1.60889,-0.00408932,-0.00453309,0.101786,1,5.3304e-05,-3.42449e-05,-8.94877e-05,0.0106608,-0.00684897,-0.0178975,0,0,0,0,0.121515,0.446936,-0.944146,34.8125,3,60048,6062294
204,0.191087,-1.58587,10.6402,-0.214142,-2.48325,1.52144,0.00186161,-0.0158928,0.106398,1,0.000158735,-0.000218948,-8.39305e-05,0.031747,-0.0437896,-0.0167861,0,0,0,0,0.122679,0.449056,-0.954205,34.8125,3,60052,6062694
205,-2.21992,0.641253,7.75711,-1.95528,0.281056,-0.87198,-0.0222037,0.00638403,0.0775722,1,0.00020482,-3.56347e-05,-7.37931e-05,0.0409641,-0.00712694,-0.0147586,0,0,0,0,0.122479,0.453057,-0.959671,34.8125,3,60055,6062994
206,-2.27516,-0.297554,7.7567,-2.55171,-0.206513,-1.5335,-0.0227808,-0.00300216,0.0775574,1,0.000199086,-0.000184624,-9.37112e-05,0.0398172,-0.0369248,-0.0187422,0,0,0,0,0.125281,0.446348,-0.967914,34.8125,3,60058,6063294
207,-0.583361,0.231172,10.1574,-0.604849,-0.744845,1.37909,-0.00583729,0.00231634,0.101573,1,-1.50236e-05,-2.11705e-05,-0.000135194,-0.00300472,-0.00423411,-0.0270387,0,0,0,0,0.12296,0.453401,-0.979363,34.8125,3,60062,6063694
208,-0.618216,-0.236506,9.77554,-0.24036,-1.11814,1.47967,-0.00616248,-0.00237944,0.0977563,1,7.94885e-05,0.000102961,-9.4132e-05,0.0158977,0.0205921,-0.0188264,0,0,0,0,0.12644,0.443653,-0.981616,34.8125,3,60065,6063994
209,-0.565489,-0.320113,9.78278,-0.504745,-0.777744,1.21249,-0.00563753,-0.00322925,0.0978279,1,0.000145832,8.99358e-05,-3.62154e-05,0.0291664,0.0179872,-0.00724308,0,0,0,0,0.129429,0.454022,-0.989985,34.8125,3,60068,6064294
210,-0.572866,-0.586472,10.2184,-0.326641,-1.37159,1.5155,-0.00574305,-0.00587925,0.102183,1,7.93246e-05,-6.19874e-05,-0.000146844,0.0158649,-0.0123975,-0.0293689,0,0,0,0,0.132297,0.447747,-0.995189,34.8125,3,60072,6064694
211,-0.219586,-1.44311,10.8189,-0.0819042,-1.66194,2.21516,-0.00217818,-0.0144056,0.108193,1,-0.000117959,8.21144e-05,-2.90114e-06,-0.0235918,0.0164229,-0.000580227,0,0,0,0,0.131895,0.452859,-1.0082,34.8125,3,60075,6064994
212,1.11195,0.214335,11.6718,1.203,-0.909875,2.62651,0.0111034,0.00210525,0.11672,1,0.000162194,-6.90666e-05,-1.10627e-05,0.0324387,-0.0138133,-0.00221254,0,0,0,0,0.137813,0.452224,-1.00269,34.8125,3,60078,6065294
213,-0.163006,-0.410619,10.6724,0.0852273,-1.34626,1.392,-0.00164665,-0.0040971,0.106724,1,-4.10486e-05,-7.38507e-05,-9.9628e-05,-0.00820972,-0.0147701,-0.0199256,0,0,0,0,0.14132,0.452923,-1.01633,34.8125,3,60082,6065694
214,0.0061255,-1.72969,11.0579,-0.595217,-2.31861,1.93436,3.76282e-05,-0.0173225,0.110575,1,0.000115929,-9.28757e-05,-8.91686e-05,0.0231857,-0.0185751,-0.0178337,0,0,0,0,0.139736,0.462194,-1.01561,34.8125,3,60085,6065994
215,-1.16749,1.48906,9.60474,-0.72155,0.936583,1.21637,-0.0116197,0.0149035,0.096052,1,-6.1073e-05,0.000278941,-5.1415e-05,-0.0122146,0.0557882,-0.010283,0,0,0,0,0.142495,0.460336,-1.02223,34.8125,3,60088,6066294
216,-0.0734659,-1.04525,9.97052,0.0141907,-1.78324,1.51684,-0.000718016,-0.0104357,0.099707,1,-8.28924e-05,9.92178e-05,-0.000150405,-0.0165785,0.0198436,-0.030081,0,0,0,0,0.143066,0.473624,-1.02901,34.8125,3,60092,6066694
217,-0.843054,-0.205712,9.86754,-0.389304,-1.00006,1.39252,-0.00843588,-0.00207685,0.0986745,1,0.000108864,-2.48413e-05,-0.000103981,0.0217729,-0.00496827,-0.0207961,0,0,0,0,0.14225,0.467743,-1.02711,34.8125,3,60095,6066994
218,-0.933368,-0.630703,9.79777,-0.505573,-1.23946,1.71544,-0.00928292,-0.00633115,0.0979809,1,0.000129408,0.000263324,-6.65135e-05,0.0258816,0.0526648,-0.0133027,0,0,0,0,0.140469,0.480048,-1.03239,34.8125,3,60098,6067294
219,-1.66875,-0.245703,8.81678,-1.51767,-0.494412,0.229633,-0.016685,-0.00245635,0.0881683,1,1.81713e-05,1.72094e-05,-0.000116649,0.00363427,0.00344188,-0.0233298,0,0,0,0,0.140007,0.475219,-1.03502,34.8125,3,60102,6067694
220,-1.85343,0.312212,8.30833,-1.72273,0.68918,-0.596913,-0.0185507,0.003155,0.0830784,1,-0.000176319,-0.000102561,-9.65312e-05,-0.0352638,-0.0205122,-0.0193062,0,0,0,0,0.13766,0.479399,-1.04956,34.8125,3,60105,6067994
221,0.8564,-0.804155,12.1189,0.944883,-2.18165,3.19363,0.00858386,-0.00808625,0.121185,1,0.000178982,8.70814e-05,-7.70267e-05,0.0357965,0.0174163,-0.0154053,0,0,0,0,0.136471,0.474407,-1.0426,34.8125,3,60108,6068294
222,-1.56174,0.177193,9.19217,-0.820045,0.0133498,0.431659,-0.0155916,0.00175998,0.0919263,1,6.40265e-05,0.000139981,5.8863e-06,0.0128053,0.0279962,0.00117726,0,0,0,0,0.133344,0.471233,-1.05477,34.8125,3,60112,6068694
223,-0.223605,0.378031,11.0438,-0.0204589,-0.862428,2.59853,-0.0022056,0.00374417,0.11044,1,0.000165989,0.000133818,-0.000118609,0.0331977,0.0267636,-0.0237217,0,0,0,0,0.135701,0.47414,-1.05472,34.8125,3,60115,6068994
224,-2.28185,-0.833906,7.70157,-2.47298,-0.540503,-1.19732,-0.0228442,-0.00832344,0.0770098,1,-7.81956e-05,-0.000158552,-7.81694e-05,-0.0156391,-0.0317105,-0.0156339,0,0,0,0,0.135975,0.467541,-1.068,34.8125,3,60118,6069294
225,-0.905518,-0.76881,9.69019,-1.15328,-1.69859,0.931192,-0.00910282,-0.00774456,0.096893,1,0.000292046,-0.000245226,-7.44489e-06,0.0584091,-0.0490453,-0.00148898,0,0,0,0,0.136324,0.468115,-1.07304,34.8125,3,60122,6069694
226,-1.3949,-0.904889,8.78847,-1.64943,-1.28281,-0.063988,-0.0139558,-0.0090449,0.087884,1,-1.40823e-05,-3.34962e-05,-5.43232e-05,-0.00281646,-0.00669924,-0.0108646,0,0,0,0,0.137407,0.4579,-1.07529,34.8125,3,60125,6069994
227,-0.217558,0.0714359,10.449,-0.241959,-0.511716,1.0648,-0.00221035,0.000708632,0.104489,1,2.81807e-05,-0.000166656,-3.69561e-05,0.00563613,-0.0333312,-0.00739122,0,0,0,0,0.13989,0.468291,-1.08467,34.8125,3,60128,6070294
228,-1.99835,-1.01947,8.76678,-2.15523,-1.21459,0.277686,-0.0199791,-0.0102168,0.0876663,1,0.000133361,2.92246e-05,-3.27186e-05,0.0266722,0.00584491,-0.00654372,0,0,0,0,0.140953,0.461463,-1.08533,34.8125,3,60132,6070694
229,-1.65657,0.740175,8.75022,-1.63336,0.661664,-0.651992,-0.0166082,0.00739746,0.0874945,1,4.13198e-05,-0.000250062,-8.87574e-05,0.00826397,-0.0500124,-0.0177515,0,0,0,0,0.144922,0.4641,-1.09842,34.8125,3,60135,6070994
230,-0.173378,1.11331,9.62273,0.030957,-0.368278,1.464,-0.0017039,0.0110792,0.0962341,1,0.000282451,0.000141918,-0.00011544,0.0564901,0.0283835,-0.0230879,0,0,0,0,0.146007,0.462557,-1.09442,34.8125,3,60138,6071294
231,-0.594198,1.38253,9.97536,-0.374883,0.5366,1.09038,-0.00593498,0.0137782,0.0997605,1,0.000236936,3.25595e-05,-1.83377e-05,0.0473872,0.00651191,-0.00366755,0,0,0,0,0.14574,0.464679,-1.10397,34.8125,3,60142,6071694
232,1.043,-0.150286,11.7369,1.08029,-1.23065,2.76824,0.0104185,-0.00149729,0.11737,1,-3.52924e-05,-4.73863e-05,-0.000129998,-0.00705847,-0.00947726,-0.0259995,0,0,0,0,0.145611,0.472483,-1.10379,34.8125,3,60145,6071994
233,-2.04878,-0.98022,9.19614,-1.77418,-1.30282,0.477977,-0.0204899,-0.00978913,0.0919624,1,-5.79456e-05,-4.66104e-06,-5.88367e-05,-0.0115891,-0.000932208,-0.0117673,0,0,0,0,0.146839,0.46781,-1.11602,34.8125,3,60148,6072294
234,-0.173739,0.639101,10.1465,0.352769,0.189583,1.30324,-0.00175167,0.00640968,0.101464,1,-9.10186e-05,-7.38885e-05,-5.56958e-05,-0.0182037,-0.0147777,-0.0111392,0,0,0,0,0.141723,0.481083,-1.11924,34.8125,3,60152,6072694
235,-1.679,0.0654633,8.69904,-1.13107,-0.209496,0.341839,-0.016791,0.000666591,0.0869901,1,-6.40284e-05,-6.22478e-06,-2.43514e-05,-0.0128057,-0.00124496,-0.00487028,0,0,0,0,0.138468,0.472837,-1.12042,34.8125,3,60155,6072994
236,-0.309929,0.614965,10.2822,0.040059,-0.0511955,1.35448,-0.00307885,0.00616769,0.102822,1,-8.54239e-05,9.47381e-05,-7.74475e-05,-0.0170848,0.0189476,-0.0154895,0,0,0,0,0.136575,0.480888,-1.13336,34.8125,3,60158,6073294
237,-0.280103,-1.9097,11.0138,-0.672948,-3.02249,2.19244,-0.00281295,-0.0191389,0.110131,1,0.000190298,-5.2422e-05,-9.61274e-06,0.0380595,-0.0104844,-0.00192255,0,0,0,0,0.133181,0.475152,-1.13853,34.8125,3,60162,6073694
238,-0.807848,0.0227812,9.54053,-0.777952,-0.87645,0.711728,-0.00811904,0.000201318,0.0954019,1,0.000130094,-0.000212352,0.000103188,0.0260188,-0.0424705,0.0206375,0,0,0,0,0.128461,0.478846,-1.15206,34.8125,3,60165,6073994
239,-0.503929,-0.658896,9.55976,-0.536936,-1.82869,0.886983,-0.00507077,-0.00664155,0.0955923,1,0.00027336,-0.000166883,3.23573e-05,0.054672,-0.0333765,0.00647146,0,0,0,0,0.125267,0.470555,-1.15071,34.8125,3,60168,6074294
240,-2.22476,0.492088,9.13328,-1.80676,0.269104,0.658241,-0.0222024,0.00493389,0.0913431,1,-9.95438e-05,0.000253965,0.000116468,-0.0199088,0.0507931,0.0232936,0,0,0,0,0.119016,0.468543,-1.17194,34.8125,3,60172,6074694
241,-0.777916,-0.599293,9.93597,-0.526318,-0.99423,1.22594,-0.00777394,-0.00600477,0.0993594,1,4.83341e-05,1.76463e-05,0.00014317,0.00966683,0.00352925,0.028634,0,0,0,0,0.115987,0.47349,-1.17434,34.8125,3,60175,6074994
242,-1.01069,-0.139246,9.50598,-0.857194,-1.02791,1.37155,-0.0100769,-0.00143907,0.0950622,1,0.000223825,0.000154772,0.000201346,0.0447649,0.0309543,0.0402692,0,0,0,0,0.111482,0.466426,-1.1866,34.8125,3,60178,6075294
243,-0.109037,-0.396846,10.0042,0.0948251,-1.48566,1.52737,-0.00110189,-0.00400367,0.100041,1,0.000173571,-6.62601e-05,0.000218484,0.0347142,-0.013252,0.0436969,0,0,0,0,0.106311,0.472029,-1.19756,34.8125,3,60182,6075694
244,-0.259184,-0.828789,10.4621,-0.00449165,-1.39205,1.86298,-0.00257541,-0.00825775,0.104623,1,-0.000149894,5.97485e-05,0.000237704,-0.0299788,0.0119497,0.0475408,0,0,0,0,0.100214,0.464738,-1.19618,34.8125,3,60185,6075994
245,1.0415,-0.600313,11.9209,1.46736,-1.67148,3.40884,0.0104194,-0.00601109,0.119209,1,5.25531e-05,7.33238e-06,0.0002195,0.0105106,0.00146648,0.0439001,0,0,0,0,0.0955092,0.475649,-1.204,34.8125,3,60188,6076294
246,-0.529728,-0.927032,10.362,-0.325173,-1.68655,1.2912,-0.00532134,-0.00922837,0.103623,1,-0.000211859,-0.000132609,0.000184835,-0.0423717,-0.0265217,0.0369669,0,0,0,0,0.0898336,0.472734,-1.20202,34.8125,3,60192,6076694
247,0.323788,-1.20804,11.3575,0.365523,-1.77436,2.56909,0.00319513,-0.0120723,0.113577,1,-3.00461e-05,-0.000209447,0.000199621,-0.00600922,-0.0418895,0.0399241,0,0,0,0,0.0831126,0.480355,-1.21596,34.8125,3,60195,6076994
248,-0.688826,1.6677,9.92614,0.107937,1.09277,1.59966,-0.00687021,0.0167098,0.0992571,1,-0.000183377,0.00013502,0.000262383,-0.0366753,0.027004,0.0524765,0,0,0,0,0.0747851,0.478739,-1.20333,34.8125,3,60198,6077294
249,-1.49365,-1.02793,8.47975,-1.40817,-1.49563,0.359156,-0.0149207,-0.0102631,0.0848022,1,-0.000126085,7.22446e-05,0.00017161,-0.025217,0.0144489,0.034322,0,0,0,0,0.0657615,0.486786,-1.21271,34.8125,3,60202,6077694
250,-0.882242,-0.176209,9.85422,-0.247461,-0.742011,1.17277,-0.00884502,-0.00174769,0.0985405,1,-8.82658e-05,-0.00011769,0.00016918,-0.0176532,-0.023538,0.033836,0,0,0,0,0.0595458,0.492592,-1.20699,34.8125,3,60205,6077994
251,-0.633295,-0.917575,10.6212,-0.31572,-2.18321,2.38795,-0.00631705,-0.00920247,0.10621,1,0.00010773,4.86425e-05,0.000303038,0.0215461,0.0097285,0.0606077,0,0,0,0,0.0484052,0.489848,-1.21205,34.8125,3,60208,6078294
252,-1.36811,1.0186,8.8464,-1.00073,0.638773,0.0537157,-0.0136981,0.0101672,0.0884636,1,6.96191e-05,-6.84766e-05,0.000237087,0.0139238,-0.0136953,0.0474174,0,0,0,0,0.0334112,0.499185,-1.20874,34.8125,3,60212,6078694
253,-2.07069,-0.123827,8.85353,-1.93051,-0.889287,0.245318,-0.0207287,-0.00126556,0.0885298,1,0.000109208,-0.000125868,0.00019184,0.0218415,-0.0251736,0.0383679,0,0,0,0,0.0250406,0.491336,-1.20231,34.8125,3,60215,6078994
254,-0.0186347,0.350462,10.476,0.333941,-0.663965,1.95038,-0.000181364,0.00347203,0.104761,1,0.000155131,3.17686e-05,0.000239754,0.0310262,0.00635372,0.0479508,0,0,0,0,0.0147212,0.497842,-1.20667,34.8125,3,60218,6079294
255,-0.269494,-1.47781,10.1702,0.00769097,-2.69829,1.69205,-0.00270577,-0.0148157,0.101696,1,0.000180122,-7.94747e-05,0.000180136,0.0360244,-0.0158949,0.0360272,0,0,0,0,0.00549462,0.487995,-1.19725,34.8125,3,60222,6079694
256,0.0484768,1.26912,10.7535,0.381913,0.417359,2.2721,0.000467787,0.0126734,0.107537,1,8.35849e-05,-5.49397e-05,0.000203642,0.016717,-0.0109879,0.0407285,0,0,0,0,-0.00381931,0.488197,-1.20427,34.8125,3,60225,6079994
257,-2.14784,0.14495,8.35252,-1.81343,-0.0864548,-0.127432,-0.0214853,0.00145729,0.0835233,1,-8.55187e-05,-3.89785e-05,0.000151272,-0.0171037,-0.00779571,0.0302544,0,0,0,0,-0.0120576,0.482661,-1.19072,34.8125,3,60228,6080294
258,-0.117152,0.931937,9.43713,-0.210776,0.194266,0.283312,-0.00120001,0.00931097,0.0943718,1,4.21459e-05,-0.000132765,0.000184097,0.00842918,-0.026553,0.0368194,0,0,0,0,-0.0182399,0.476877,-1.19183,34.8125,3,60232,6080694
259,-2.687,-0.41671,7.99767,-2.38581,-0.744444,-0.743237,-0.02688,-0.00421334,0.0799709,1,0.000230929,-7.16719e-05,0.000173093,0.0461858,-0.0143344,0.0346186,0,0,0,0,-0.0224168,0.480174,-1.18315,34.8125,3,60235,6080994
260,0.69898,0.405401,11.1638,0.945184,-0.972967,2.27521,0.00694355,0.00401305,0.111642,1,0.000195974,-0.000199897,0.000200895,0.0391948,-0.0399793,0.0401789,0,0,0,0,-0.0289616,0.472381,-1.18077,34.8125,3,60238,6081294
261,-1.12045,0.237349,8.94975,-0.806027,-0.708981,0.0513332,-0.0112286,0.00234852,0.0894951,1,0.000116232,-0.000129679,0.000185959,0.0232464,-0.0259358,0.0371918,0,0,0,0,-0.0327589,0.479603,-1.17352,34.8125,3,60242,6081694
262,-0.361953,0.861982,10.5291,-0.0430766,0.0223153,2.00851,-0.00359936,0.00862133,0.105292,1,-1.53935e-05,0.000115431,0.000239708,-0.0030787,0.0230863,0.0479415,0,0,0,0,-0.0394394,0.471562,-1.157,34.8125,3,60245,6081994
263,0.736876,0.109855,12.094,1.08697,-0.896999,3.37125,0.0073724,0.00113331,0.120939,1,-0.000134899,1.63651e-05,0.000144537,-0.0269798,0.00327302,0.0289074,0,0,0,0,-0.0376147,0.481256,-1.15427,34.8125,3,60248,6082294
264,-0.823738,3.01307,10.4964,0.680761,1.94391,2.24184,-0.00820127,0.0301286,0.104967,1,-1.42991e-05,0.000261661,0.000312291,-0.00285983,0.0523322,0.0624582,0,0,0,0,-0.041819,0.475552,-1.13316,34.8125,3,60252,6082694
265,0.589298,1.06406,10.8357,1.43328,0.0404014,2.29218,0.0058803,0.010653,0.108357,1,-4.68005e-05,-3.95165e-05,0.000193428,-0.0093601,-0.00790331,0.0386855,0,0,0,0,-0.0452271,0.478019,-1.13309,34.8125,3,60255,6082994
266,-1.1972,-1.04626,10.2155,-0.504843,-1.84453,1.6297,-0.0119504,-0.0104634,0.102157,1,-1.48082e-05,8.89487e-05,0.000160641,-0.00296164,0.0177897,0.0321281,0,0,0,0,-0.0475184,0.475198,-1.11042,34.8125,3,60258,6083294
267,-1.01763,-0.268053,9.49261,-0.678301,-1.15491,0.51934,-0.0101638,-0.00268715,0.0949272,1,1.36132e-05,6.01615e-05,0.000198653,0.00272265,0.0120323,0.0397307,0,0,0,0,-0.0502238,0.476053,-1.1023,34.8125,3,60262,6083694
268,-1.34725,0.022661,9.13285,-1.19049,-1.32174,0.556049,-0.013472,0.000193045,0.0913287,1,0.000156381,2.9508e-06,0.000185632,0.0312762,0.000590159,0.0371264,0,0,0,0,-0.050538,0.483645,-1.09001,34.8125,3,60265,6083994
266,-1.3557,0.0968993,8.66007,-1.60096,-0.307818,-0.903676,-0.013574,0.000970298,0.086598,1,-3.09155e-05,-9.61304e-05,0.000149261,-0.00618311,-0.0192261,0.0298523,0,0,0,0,-0.0560547,0.476278,-1.0846,34.8125,3,60268,6084294
270,-0.0184082,-0.0943409,10.7042,0.117294,-1.04698,1.55633,-0.000208836,-0.000960164,0.107042,1,7.79004e-05,-0.000117392,0.000198856,0.0155801,-0.0234785,0.0397713,0,0,0,0,-0.0553468,0.478035,-1.07395,34.8125,3,60272,6084694
271,-2.24025,-0.171924,7.49715,-2.26016,-0.809963,-1.5422,-0.0224128,-0.00176219,0.0749674,1,0.000232463,-7.29617e-05,0.000180665,0.0464926,-0.0145923,0.0361331,0,0,0,0,-0.0552518,0.466053,-1.05856,34.8125,3,60275,6084994
272,-1.53177,0.509497,9.26793,-1.02903,-0.291955,0.565094,-0.0152993,0.00505297,0.0926846,1,0.000197244,0.000108866,0.000177632,0.0394489,0.0217733,0.0355264,0,0,0,0,-0.0539019,0.469483,-1.06001,34.8125,3,60278,6085294
273,-0.356869,-0.804642,10.343,0.0359925,-2.19683,1.88692,-0.00357325,-0.00803851,0.10343,1,-4.3949e-05,-3.49692e-05,0.000166009,-0.0087898,-0.00699384,0.0332018,0,0,0,0,-0.049855,0.457876,-1.04008,34.8125,3,60282,6085694
274,0.755427,-0.798406,10.9153,1.08994,-1.93277,1.70023,0.0075522,-0.00795408,0.109156,1,-0.000127474,-1.99072e-05,0.000142805,-0.0254947,-0.00398144,0.028561,0,0,0,0,-0.0489137,0.456919,-1.04162,34.8125,3,60285,6085994
275,-0.927145,-0.0854917,9.938,-0.588259,-0.811236,1.06589,-0.00926006,-0.000842409,0.0993812,1,-8.05151e-05,5.56973e-05,0.000188621,-0.016103,0.0111395,0.0377242,0,0,0,0,-0.0416698,0.451191,-1.02461,34.8125,3,60288,6086294
276,-1.10563,0.407019,9.80309,-0.0930485,-0.4176,0.748825,-0.0110464,0.00404206,0.0980332,1,0.000124523,5.78521e-05,0.000168143,0.0249046,0.0115704,0.0336287,0,0,0,0,-0.0362963,0.447715,-1.0237,34.8125,3,60292,6086694
277,-1.34004,-0.332383,9.4048,-0.760026,-1.35435,0.995611,-0.0134003,-0.0032972,0.0940489,1,-0.000163882,-5.16781e-06,0.00015672,-0.0327763,-0.00103356,0.031344,0,0,0,0,-0.0303821,0.450937,-1.01558,34.8125,3,60295,6086994
278,-0.668183,-0.0208774,9.46244,-0.0879346,-0.660537,0.688667,-0.00667633,-0.000232773,0.0946247,1,0.000115691,2.8706e-05,0.00015761,0.0231382,0.00574119,0.0315219,0,0,0,0,-0.0244041,0.447366,-1.00963,34.8125,3,60298,6087294
279,-0.727302,0.808862,9.77737,0.0497066,-0.312105,1.08984,-0.00727623,0.00807498,0.0977746,1,6.61963e-05,-1.2465e-05,4.80021e-05,0.0132393,-0.002493,0.00960043,0,0,0,0,-0.0160961,0.452023,-1.00097,34.8125,3,60302,6087694
280,-1.42467,-0.536465,8.74149,-1.59829,-1.01682,-0.457753,-0.0142701,-0.00539243,0.0874094,1,0.000147491,-0.000137986,6.97739e-05,0.0294983,-0.0275973,0.0139548,0,0,0,0,-0.0123681,0.446431,-0.990005,34.8125,3,60305,6087994
281,-2.12649,0.69033,8.85471,-1.63411,0.444527,0.0431292,-0.021229,0.00692843,0.0885538,1,-0.000160326,0.000208905,7.66498e-05,-0.0320652,0.0417811,0.01533,0,0,0,0,-0.0047799,0.450784,-0.991458,34.8125,3,60308,6088294
282,-1.62879,-1.33067,8.89545,-1.40741,-2.15304,0.225115,-0.0162807,-0.0133326,0.088952,1,0.000146453,4.19496e-05,-6.37671e-06,0.0292905,0.00838992,-0.00127534,0,0,0,0,0.00286816,0.448963,-0.974867,34.8125,3,60312,6088694
283,-2.09529,0.136272,8.11261,-1.75837,-0.404817,-0.45468,-0.020963,0.00134176,0.0811239,1,0.000140254,-6.26166e-05,-4.28392e-05,0.0280509,-0.0125233,-0.00856784,0,0,0,0,0.0074544,0.452942,-0.981365,34.8125,3,60315,6088994
284,-1.14063,0.165394,9.1619,-0.721476,-0.377698,0.437685,-0.0114168,0.00166885,0.0916174,1,-8.3228e-05,-5.66286e-05,1.51746e-05,-0.0166456,-0.0113257,0.00303492,0,0,0,0,0.0102742,0.449246,-0.966814,34.8125,3,60318,6089294
285,-0.61817,0.081524,10.4316,-0.551227,-0.882146,1.43496,-0.00617996,0.000809779,0.104316,1,2.60348e-05,8.36156e-06,2.41104e-06,0.00520697,0.00167231,0.000482208,0,0,0,0,0.0160458,0.443417,-0.97101,34.8125,3,60322,6089694
286,-0.317004,-0.413568,10.2337,-0.108921,-1.39402,1.15625,-0.00318532,-0.00414776,0.102336,1,5.85349e-05,-7.52945e-05,1.52986e-05,0.011707,-0.0150589,0.00305972,0,0,0,0,0.0189386,0.449653,-0.96634,34.8125,3,60325,6089994
287,1.06965,1.32275,12.1636,1.57166,0.439346,2.87391,0.010651,0.0132569,0.121637,1,-0.000118716,-0.000184484,2.28797e-05,-0.0237432,-0.0368968,0.00457594,0,0,0,0,0.0219046,0.440416,-0.969589,34.8125,3,60328,6090294
288,-1.21497,0.0144227,8.11688,-0.89066,-0.394789,-0.725007,-0.0121603,0.000156607,0.0811672,1,-8.27142e-05,-6.5073e-05,4.31233e-05,-0.0165428,-0.0130146,0.00862467,0,0,0,0,0.0280609,0.441881,-0.972615,34.8125,3,60332,6090694
289,-0.62133,1.16297,10.7922,0.320565,-0.204376,2.16488,-0.00619682,0.0115837,0.107928,1,0.000208628,8.41753e-05,7.28848e-05,0.0417256,0.0168351,0.014577,0,0,0,0,0.031725,0.429108,-0.969381,34.8125,3,60335,6090994
290,-1.94275,-1.18647,9.04727,-1.69137,-1.87242,0.219803,-0.0194433,-0.0118611,0.0904698,1,-1.75052e-05,-8.62705e-05,-1.01469e-05,-0.00350103,-0.0172541,-0.00202938,0,0,0,0,0.0366984,0.43508,-0.978362,34.8125,3,60338,6091294
291,-0.543707,0.0283693,9.53342,0.261628,-1.14896,1.40589,-0.00542337,0.000270538,0.095335,1,6.23076e-05,7.21453e-05,0.000117378,0.0124615,0.0144291,0.0234756,0,0,0,0,0.0379606,0.42136,-0.975642,34.8125,3,60341,6091594
292,-1.23064,-0.0678089,9.28361,-0.902812,-0.798613,0.306212,-0.0123262,-0.000698171,0.0928333,1,0.00010133,-0.000107224,5.15168e-05,0.0202661,-0.0214448,0.0103034,0,0,0,0,0.0458435,0.421508,-0.987797,34.8125,3,60345,6091994
293,-1.17996,0.642083,9.4676,-1.24641,0.112476,0.298352,-0.0118093,0.00641187,0.0946754,1,4.64814e-05,-5.04611e-05,7.00648e-06,0.00929629,-0.0100922,0.0014013,0,0,0,0,0.0481605,0.413977,-0.976864,34.8125,3,60348,6092294
294,-0.455262,0.108075,9.6618,-0.0439149,-0.752465,1.03693,-0.00455967,0.00106992,0.0966178,1,5.68196e-05,-3.66422e-05,-1.55024e-05,0.0113639,-0.00732844,-0.00310047,0,0,0,0,0.0521897,0.412234,-0.990558,34.8125,3,60352,6092694
295,-1.78182,-1.28149,9.26977,-1.1935,-1.71806,0.441809,-0.017805,-0.0128183,0.0926998,1,1.52364e-05,6.94842e-05,1.42655e-05,0.00304729,0.0138968,0.00285311,0,0,0,0,0.0555419,0.414627,-0.98951,34.8125,3,60355,6092994
296,-0.969657,1.36196,9.17631,-0.179198,0.345964,1.06749,-0.00969845,0.0136293,0.0917615,1,-5.20404e-05,-1.08963e-05,-4.71152e-06,-0.0104081,-0.00217925,-0.000942304,0,0,0,0,0.057456,0.407872,-0.994719,34.8125,3,60358,6093294
297,-0.645711,-0.018754,9.88387,0.350013,-0.568551,1.17929,-0.00645763,-0.000163973,0.0988387,1,-0.000118452,-2.61159e-06,-1.17119e-05,-0.0236904,-0.000522318,-0.00234239,0,0,0,0,0.060345,0.415074,-0.989522,34.8125,3,60361,6093594
298,0.00972297,0.736765,10.4045,0.306213,-0.222563,1.62429,0.000105783,0.00737031,0.104045,1,-1.27585e-05,4.20379e-05,1.31979e-05,-0.00255169,0.00840758,0.00263959,0,0,0,0,0.0619625,0.406743,-0.988199,34.8125,3,60365,6093994
299,-1.3879,0.0933511,8.75736,-1.21461,-0.287257,-0.669243,-0.0138952,0.000969129,0.0875707,1,-0.000197384,-9.29031e-05,-3.77039e-05,-0.0394767,-0.0185806,-0.00754077,0,0,0,0,0.0639443,0.41908,-0.997025,34.8125,3,60368,6094294
300,-0.966519,0.0567617,8.81857,-1.18378,-0.707099,-0.281293,-0.00970779,0.000549588,0.0881811,1,9.50833e-05,-0.000241142,6.50362e-05,0.0190167,-0.0482285,0.0130072,0,0,0,0,0.0580766,0.406802,-0.989695,34.8125,3,60371,6094594
301,0.680358,-0.505484,10.5701,1.40408,-1.82334,1.6176,0.00679336,-0.00508794,0.105701,1,0.000157021,-4.86434e-05,6.81043e-06,0.0314042,-0.00972868,0.00136209,0,0,0,0,0.0573297,0.411819,-0.997156,34.8125,3,60375,6094994
302,-1.89001,0.0322448,9.3256,-1.29035,-0.810954,0.924527,-0.0188428,0.000303866,0.0932676,1,8.35341e-05,0.000307316,7.94996e-05,0.0167068,0.0614632,0.0158999,0,0,0,0,0.0561853,0.407758,-0.987645,34.8125,3,60378,6095294
303,-0.834853,-0.670954,9.4731,-0.231062,-1.55752,0.741051,-0.00834975,-0.00673273,0.0947293,1,0.000120165,-8.22964e-06,2.57865e-05,0.0240329,-0.00164593,0.00515729,0,0,0,0,0.0543804,0.408998,-1.00175,34.8125,3,60381,6095594
304,-1.78963,-0.682337,8.72295,-1.6487,-1.29679,-0.0203707,-0.0178848,-0.00684022,0.0872306,1,7.02707e-05,5.58491e-05,0.000128511,0.0140541,0.0111698,0.0257022,0,0,0,0,0.0512243,0.402125,-0.997849,34.8125,3,60385,6095994
305,-1.05469,-0.476819,8.75568,-0.74499,-0.984791,-0.696425,-0.0105813,-0.00480307,0.0875507,1,0.00019147,-0.00019991,6.42141e-05,0.038294,-0.0399821,0.0128428,0,0,0,0,0.046027,0.390534,-1.00212,34.8125,3,60388,6096294
306,-1.21463,0.270986,10.386,-0.547974,-0.283241,1.61392,-0.0121199,0.00276333,0.103861,1,-0.000255856,0.000126913,-1.32121e-05,-0.0511713,0.0253826,-0.00264242,0,0,0,0,0.0449091,0.392584,-1.00712,34.8125,3,60392,6096694
307,-0.437955,-0.445345,9.85974,0.166051,-1.12516,1.21987,-0.0043978,-0.00446328,0.0985962,1,4.86559e-05,-9.37984e-05,2.69097e-05,0.00973118,-0.0187597,0.00538193,0,0,0,0,0.0400355,0.376902,-1.00088,34.8125,3,60395,6096994
308,-0.519442,-0.329221,10.2761,0.325198,-1.28692,1.82788,-0.00518498,-0.0033016,0.102761,1,4.51126e-05,4.55888e-05,1.09991e-05,0.00902251,0.00911776,0.00219981,0,0,0,0,0.0406869,0.382422,-1.00985,34.8125,3,60398,6097294
309,-1.17989,-0.239933,9.03969,-1.01636,-1.18146,0.166908,-0.0118272,-0.00247514,0.0903912,1,0.000417352,-0.000156806,1.48364e-05,0.0834704,-0.0313612,0.00296727,0,0,0,0,0.0377837,0.369099,-1.00004,34.8125,3,60402,6097694
310,-2.39889,1.28327,8.1405,-2.0131,0.846533,-0.777802,-0.0239881,0.0128451,0.0814033,1,-6.57269e-05,-6.9266e-07,-3.46988e-05,-0.0131454,-0.000138532,-0.00693977,0,0,0,0,0.036069,0.36931,-1.01113,34.8125,3,60405,6097994
311,-0.829226,-1.31971,9.67637,-0.739148,-2.25583,0.598712,-0.00828796,-0.01323,0.0967596,1,0.000169104,2.09078e-05,9.6517e-06,0.0338209,0.00418156,0.00193034,0,0,0,0,0.0326713,0.365639,-0.995039,34.8125,3,60408,6098294
312,-1.17436,0.445364,9.96991,-0.257148,-0.514479,1.43346,-0.0117327,0.00443239,0.0997013,1,0.000109369,5.34073e-05,-2.35705e-05,0.0218738,0.0106815,-0.0047141,0,0,0,0,0.0330855,0.362311,-1.00017,34.8125,3,60412,6098694
313,-0.0345938,-0.971199,10.4037,0.284937,-1.73057,1.5607,-0.000374619,-0.0096739,0.10404,1,-0.000183113,-0.000138556,7.68703e-06,-0.0366226,-0.0277112,0.00153741,0,0,0,0,0.0326437,0.369514,-0.993437,34.8125,3,60415,6098994
314,0.801884,0.16073,12.5521,1.55311,-1.18186,3.98229,0.00803872,0.00158531,0.12552,1,8.97359e-05,7.95877e-05,3.33709e-05,0.0179472,0.0159175,0.00667417,0,0,0,0,0.0289163,0.363675,-0.99254,34.8125,3,60418,6099294
315,0.4238,1.16745,10.7782,1.33973,0.174927,1.55298,0.00422285,0.011704,0.107779,1,-0.000136909,-6.99884e-05,2.72642e-06,-0.0273819,-0.0139977,0.000545284,0,0,0,0,0.0289973,0.372771,-0.982742,34.8125,3,60421,6099594
316,-0.831217,-1.96305,10.0971,-0.697011,-3.1966,1.71629,-0.00827785,-0.0196279,0.100974,1,-1.58997e-05,0.000162877,3.62059e-05,-0.00317994,0.0325755,0.00724117,0,0,0,0,0.0220995,0.366816,-0.973751,34.8125,3,60425,6099994
317,-0.146948,0.853845,10.8487,0.858816,-0.0771781,2.49004,-0.00144781,0.00855544,0.108486,1,-7.89957e-05,0.000103943,5.18463e-05,-0.0157991,0.0207886,0.0103693,0,0,0,0,0.0237752,0.373728,-0.979161,34.8125,3,60428,6100294
318,0.158602,-0.824464,10.8916,0.386356,-1.94325,1.81347,0.0015964,-0.0082771,0.108913,1,0.000150577,3.95356e-05,0.00010698,0.0301155,0.00790712,0.021396,0,0,0,0,0.0171122,0.369046,-0.959537,34.8125,3,60432,6100694
319,-0.000644244,1.21441,10.2307,0.284735,0.226289,1.45503,-1.70032e-05,0.0121342,0.102308,1,4.83897e-05,-4.81831e-05,2.89038e-05,0.00967793,-0.00963662,0.00578076,0,0,0,0,0.0153733,0.37072,-0.970603,34.8125,3,60435,6100994
320,-2.20256,-0.330092,8.59282,-1.96893,-1.1745,-0.481925,-0.0220381,-0.00333819,0.0859236,1,0.000206035,-7.44126e-05,4.23738e-05,0.0412069,-0.0148825,0.00847475,0,0,0,0,0.0129986,0.364105,-0.954072,34.8125,3,60438,6101294
321,-1.26669,0.15932,8.83086,-0.690788,-0.415192,0.140401,-0.0126703,0.00157149,0.0883085,1,0.000119771,-1.9009e-05,2.22896e-05,0.0239543,-0.0038018,0.00445791,0,0,0,0,0.00663165,0.359902,-0.961712,34.8125,3,60442,6101694
322,0.0986297,-0.929917,10.6046,0.556071,-2.20529,1.88531,0.00101658,-0.00935302,0.106041,1,0.000254698,0.000135223,8.60092e-05,0.0509396,0.0270447,0.0172019,0,0,0,0,0.00962984,0.361243,-0.95614,34.8125,3,60445,6101994
323,-0.739095,1.57493,10.766,0.0814663,0.83155,1.84538,-0.00739167,0.0157672,0.107657,1,-8.63228e-05,3.96059e-06,5.00619e-05,-0.0172646,0.000792118,0.0100124,0,0,0,0,0.00499669,0.351997,-0.955314,34.8125,3,60448,6102294
324,-0.702108,-0.498034,9.19131,-0.563493,-1.54559,0.163902,-0.00703501,-0.0049941,0.0919112,1,7.20069e-05,-7.78207e-05,3.71864e-05,0.0144014,-0.0155641,0.00743728,0,0,0,0,0.00928639,0.3544,-0.955281,34.8125,3,60452,6102694
325,-0.491292,0.0889548,9.74149,-0.135288,-0.72205,0.978642,-0.00488608,0.000886835,0.0974163,1,1.25032e-05,0.00013802,2.82518e-05,0.00250064,0.027604,0.00565037,0,0,0,0,0.00647809,0.341972,-0.940897,34.8125,3,60455,6102994
326,-1.86614,-0.118268,8.72488,-1.22825,-0.684976,0.171728,-0.0186575,-0.00118723,0.0872496,1,2.26983e-05,2.1802e-05,1.5816e-05,0.00453966,0.0043604,0.00316321,0,0,0,0,0.0128996,0.349856,-0.948327,34.8125,3,60458,6103294
327,-1.43191,1.22902,9.33886,-1.12336,0.231665,0.0390348,-0.0143679,0.0122931,0.0933807,1,-1.98551e-05,-0.000258178,2.71089e-05,-0.00397101,-0.0516356,0.00542178,0,0,0,0,0.00958304,0.342752,-0.931298,34.8125,3,60462,6103694
328,0.158965,0.148411,10.292,0.422408,-0.892473,1.23772,0.00158456,0.00148468,0.10292,1,-3.02271e-06,-2.49822e-05,-1.53457e-05,-0.000604542,-0.00499645,-0.00306913,0,0,0,0,0.0125656,0.346861,-0.944352,34.8125,3,60465,6103994
329,-0.830915,-1.8097,9.87015,-0.770851,-2.72902,0.985983,-0.00826557,-0.0181306,0.098699,1,0.000167462,0.000214043,3.65469e-05,0.0334924,0.0428086,0.00730938,0,0,0,0,0.0155339,0.344502,-0.922701,34.8125,3,60468,6104294
330,-1.49565,1.06147,9.20234,-0.606118,0.412003,0.479182,-0.0149459,0.0106149,0.0920251,1,-5.21132e-06,6.09256e-05,2.67102e-05,-0.00104226,0.0121851,0.00534205,0,0,0,0,0.0156021,0.35251,-0.934139,34.8125,3,60471,6104594
331,0.397465,-0.468476,11.7695,0.26492,-1.64075,2.05535,0.00394595,-0.00470812,0.117695,1,0.000101805,-0.00012496,7.57696e-05,0.020361,-0.024992,0.0151539,0,0,0,0,0.0231078,0.355612,-0.919963,34.8125,3,60475,6104994
332,-0.646178,1.03834,9.47915,-0.551107,0.315971,0.296592,-0.00650257,0.0103402,0.0947935,1,0.000223935,-0.000208527,6.05148e-05,0.044787,-0.0417054,0.012103,0,0,0,0,0.0213509,0.352132,-0.915487,34.8125,3,60478,6105294
333,-1.35095,-0.212162,9.92752,-0.541321,-0.90595,1.30545,-0.0134872,-0.00210512,0.0992786,1,-8.48938e-05,0.000112066,1.3289e-05,-0.0169788,0.0224131,0.0026578,0,0,0,0,0.0264452,0.363316,-0.915767,34.8125,3,60482,6105694
334,-0.500318,0.844276,10.4254,-0.103667,0.0272138,1.0523,-0.00502578,0.008452,0.104253,1,-4.55191e-05,-0.000106383,2.45609e-05,-0.00910383,-0.0212766,0.00491218,0,0,0,0,0.0217057,0.355728,-0.898237,34.8125,3,60485,6105994
335,-1.07504,0.472594,9.4661,-0.649417,-0.63124,0.333602,-0.0107832,0.00470703,0.0946582,1,9.94979e-05,-0.00017331,3.07536e-06,0.0198996,-0.0346619,0.000615072,0,0,0,0,0.0284578,0.369018,-0.908074,34.8125,3,60488,6106294
336,-2.18796,-0.448815,8.29854,-2.00455,-1.19903,-0.941033,-0.0218966,-0.00448848,0.0829808,1,2.01805e-06,-0.000102771,-1.65555e-08,0.00040361,-0.0205541,-3.31111e-06,0,0,0,0,0.0246512,0.359516,-0.893115,34.8125,3,60491,6106594
337,-0.135753,-0.665056,10.9233,0.166767,-1.52191,1.99065,-0.00135388,-0.00666382,0.109232,1,6.05113e-05,1.59015e-05,1.32554e-05,0.0121023,0.0031803,0.00265108,0,0,0,0,0.029979,0.367985,-0.905578,34.8125,3,60495,6106994
338,-0.622073,1.61282,10.1334,-0.0143451,0.555043,1.11169,-0.00622903,0.016134,0.101333,1,-2.99117e-05,-3.65622e-05,2.76995e-05,-0.00598235,-0.00731244,0.00553991,0,0,0,0,0.0304421,0.362828,-0.890038,34.8125,3,60498,6107294
339,-0.608601,0.396011,9.99705,-0.0226435,-0.126721,1.09788,-0.00608995,0.00396657,0.09997,1,-3.52357e-05,-1.78348e-05,4.77466e-05,-0.00704713,-0.00356695,0.00954932,0,0,0,0,0.0307871,0.361478,-0.896636,34.8125,3,60502,6107694
340,-1.48643,2.17531,9.74692,-0.793016,1.25985,0.692709,-0.0148734,0.0217133,0.0974766,1,0.000202609,-4.43833e-05,1.0183e-05,0.0405218,-0.00887666,0.0020366,0,0,0,0,0.03986,0.366271,-0.896066,34.8125,3,60505,6107994
341,-2.03476,-0.101499,9.37463,-1.47692,-0.90524,0.707977,-0.0203659,-0.00101015,0.0937424,1,-2.17369e-05,-9.74392e-05,-1.88684e-05,-0.00434739,-0.0194878,-0.00377367,0,0,0,0,0.0374895,0.360483,-0.898709,34.8125,3,60508,6108294
342,-0.769917,-0.960554,9.68737,-0.389466,-1.79677,0.727262,-0.00772211,-0.00958721,0.0968737,1,-9.6569e-05,-0.000120838,2.45358e-05,-0.0193138,-0.0241676,0.00490717,0,0,0,0,0.0446991,0.363801,-0.896648,34.8125,3,60511,6108594
343,-1.32152,-0.53436,9.62818,-0.815313,-1.46466,0.688454,-0.0132012,-0.00539208,0.096281,1,0.000242493,6.86383e-05,6.77271e-05,0.0484985,0.0137277,0.0135454,0,0,0,0,0.0453677,0.358359,-0.892732,34.8125,3,60515,6108994
344,-1.10543,0.472383,9.91759,-0.828612,-0.615542,1.09549,-0.0110617,0.00467877,0.0991772,1,0.000219722,-3.41001e-05,6.69276e-05,0.0439444,-0.00682001,0.0133855,0,0,0,0,0.0516331,0.366839,-0.906209,34.8125,3,60518,6109294
345,-1.32824,0.936427,10.2114,-0.731204,0.363469,1.47413,-0.0132848,0.00935972,0.102114,1,2.14427e-05,-1.14227e-05,6.19324e-06,0.00428853,-0.00228453,0.00123865,0,0,0,0,0.0520422,0.359794,-0.894246,34.8125,3,60521,6109594
346,0.129408,-0.955584,10.5347,0.335313,-1.74742,1.52832,0.00129377,-0.00954418,0.105348,1,-5.45493e-05,-7.72305e-06,6.88052e-05,-0.0109099,-0.00154461,0.013761,0,0,0,0,0.0586245,0.369353,-0.913761,34.8125,3,60525,6109994
347,-1.88801,0.624662,9.22,-1.35916,0.194741,0.306239,-0.0188685,0.00626416,0.0922012,1,-0.000103537,6.56484e-05,4.09249e-05,-0.0207074,0.0131297,0.00818497,0,0,0,0,0.065335,0.367522,-0.896156,34.8125,3,60528,6110294
348,-1.0592,-0.452606,9.86218,-0.713639,-1.49607,0.935664,-0.0105823,-0.00455703,0.0986214,1,0.000153154,4.75723e-05,3.60019e-05,0.0306308,0.00951446,0.00720038,0,0,0,0,0.066291,0.374131,-0.91167,34.8125,3,60531,6110594
349,-0.699241,-0.138162,10.0441,-0.474223,-1.5147,1.09905,-0.00699672,-0.00142518,0.10044,1,0.000215046,-2.18178e-05,2.63319e-05,0.0430092,-0.00436355,0.00526637,0,0,0,0,0.0740201,0.381754,-0.904971,34.8125,3,60535,6110994
350,-0.259051,-0.243228,11.7708,0.765479,-1.56055,3.23028,-0.00252487,-0.00244525,0.117709,1,5.40061e-05,0.000277788,4.97643e-05,0.0108012,0.0555576,0.00995286,0,0,0,0,0.0734934,0.380827,-0.907514,34.8125,3,60538,6111294
351,-0.795593,1.2828,10.319,-0.0925843,0.547567,1.48978,-0.00793163,0.0128468,0.103189,1,-9.25227e-05,0.00011986,1.70317e-05,-0.0185045,0.0239719,0.00340634,0,0,0,0,0.0791339,0.38955,-0.906841,34.8125,3,60541,6111594
352,-2.03294,0.464584,9.14526,-1.45601,0.0460243,0.264297,-0.0203198,0.0046497,0.0914546,1,-2.47017e-05,5.3313e-05,1.60796e-05,-0.00494033,0.0106626,0.00321592,0,0,0,0,0.0812306,0.387963,-0.900825,34.8125,3,60545,6111994
353,-1.44226,-0.137799,9.30436,-1.10233,-1.35782,0.696721,-0.0144064,-0.001413,0.0930456,1,0.000191379,8.75618e-05,-2.11631e-05,0.0382758,0.0175124,-0.00423263,0,0,0,0,0.0826287,0.401342,-0.913161,34.8125,3,60548,6112294
354,-1.18808,0.127392,9.23594,-0.900315,-0.468317,0.624913,-0.0118786,0.00129936,0.0923593,1,-0.000142408,1.20694e-05,3.63946e-05,-0.0284816,0.00241388,0.00727892,0,0,0,0,0.0801312,0.396263,-0.900636,34.8125,3,60551,6112594
355,-1.34153,-0.739571,9.64577,-0.984446,-1.59313,0.757593,-0.0134014,-0.00739554,0.0964596,1,-4.3637e-06,6.99594e-05,2.51727e-05,-0.00087274,0.0139919,0.00503455,0,0,0,0,0.0828565,0.406342,-0.920122,34.8125,3,60555,6112994
356,-1.77657,0.662005,9.34789,-1.07029,-0.216684,0.669314,-0.0177491,0.0066015,0.0934834,1,9.8821e-05,8.90173e-05,2.11313e-06,0.0197642,0.0178035,0.000422626,0,0,0,0,0.0847098,0.402175,-0.906081,34.8125,3,60558,6113294
357,-0.980167,-0.423177,9.93525,-0.544181,-1.11219,0.902916,-0.00983275,-0.00421774,0.09935,1,-7.44457e-05,-0.000158075,3.91045e-05,-0.0148891,-0.031615,0.00782091,0,0,0,0,0.0827459,0.407868,-0.923623,34.8125,3,60561,6113594
358,-0.68692,1.3236,10.5377,-0.130683,0.548743,1.58727,-0.00688192,0.0132421,0.105376,1,-3.15591e-05,-5.50853e-05,4.16283e-05,-0.00631182,-0.0110171,0.00832567,0,0,0,0,0.0846096,0.410788,-0.924071,34.8125,3,60565,6113994
359,-1.76493,-0.037035,8.81062,-1.56924,-0.87175,-0.0921798,-0.0176581,-0.000405835,0.0881042,1,0.000204616,-4.97397e-05,-1.61655e-05,0.0409232,-0.00994793,-0.00323311,0,0,0,0,0.08228,0.404006,-0.925727,34.8125,3,60568,6114294
360,-1.24737,-0.360546,9.14976,-0.713617,-0.920324,0.169121,-0.0124614,-0.00359926,0.0914995,1,-3.94875e-05,6.58512e-05,4.12406e-05,-0.0078975,0.0131702,0.00824812,0,0,0,0,0.0863409,0.411395,-0.931642,34.8125,3,60571,6114594
361,-0.927538,0.497791,10.5922,-0.24527,-0.668518,1.92929,-0.00926334,0.00498285,0.105923,1,-2.68895e-05,5.87206e-05,4.10006e-05,-0.0053779,0.0117441,0.00820011,0,0,0,0,0.0842401,0.399627,-0.927348,34.8125,3,60575,6114994
362,-0.782606,-0.373214,10.1703,-0.304796,-1.09023,1.41294,-0.00784429,-0.00371192,0.101702,1,-9.86904e-05,-8.93135e-05,-9.13989e-06,-0.0197381,-0.0178627,-0.00182798,0,0,0,0,0.085485,0.409745,-0.948342,34.8125,3,60578,6115294
363,-0.403609,-0.119479,9.8853,-0.118685,-1.22747,0.977722,-0.00403802,-0.00120182,0.0988528,1,3.36265e-05,-1.0336e-05,4.6406e-05,0.00672529,-0.00206721,0.00928121,0,0,0,0,0.085478,0.400247,-0.935421,34.8125,3,60581,6115594
364,-1.41484,-0.309113,9.26116,-1.03722,-0.990244,0.335117,-0.0141439,-0.00309177,0.0926123,1,-4.39534e-06,2.23897e-05,5.1502e-05,-0.000879068,0.00447795,0.0103004,0,0,0,0,0.0848184,0.408439,-0.956954,34.8125,3,60585,6115994
365,-1.87384,-0.254305,9.2729,-1.40464,-1.40323,0.397012,-0.0187347,-0.00259631,0.0927283,1,0.000282588,1.94704e-05,2.25515e-05,0.0565176,0.00389407,0.00451029,0,0,0,0,0.0865531,0.406287,-0.946403,34.8125,3,60588,6116294
366,-0.589187,-0.367792,10.1026,-0.197124,-1.17544,1.11789,-0.00591319,-0.00369708,0.101024,1,9.18104e-05,-0.00010744,5.15689e-05,0.0183621,-0.0214879,0.0103138,0,0,0,0,0.0861413,0.40466,-0.96462,34.8125,3,60591,6116594
367,-0.848776,1.06688,9.55854,-0.386886,-0.0662923,0.841868,-0.00848364,0.0106516,0.0955877,1,8.62848e-05,2.57997e-05,3.81118e-05,0.017257,0.00515993,0.00762236,0,0,0,0,0.0870356,0.410966,-0.962968,34.8125,3,60595,6116994
368,-1.14003,0.351581,9.65065,-0.526636,-0.468218,0.878272,-0.0113833,0.00350461,0.0965089,1,5.38596e-05,8.94231e-05,3.50811e-05,0.0107719,0.0178846,0.00701621,0,0,0,0,0.0847515,0.405115,-0.962078,34.8125,3,60598,6117294
369,-1.65208,-0.204669,9.56604,-1.24459,-1.1328,0.682141,-0.0165207,-0.00206042,0.0956601,1,7.4013e-05,1.08159e-06,-1.2847e-05,0.0148026,0.000216318,-0.0025694,0,0,0,0,0.0888253,0.41394,-0.966446,34.8125,3,60601,6117594
370,-1.74443,0.345207,8.83121,-1.29075,-0.426499,0.0945632,-0.0174438,0.00344983,0.0883122,1,1.35898e-05,2.25007e-06,-4.5689e-06,0.00271795,0.000450014,-0.000913781,0,0,0,0,0.0838187,0.407029,-0.959506,34.8125,3,60605,6117994
371,-1.1385,0.452743,9.33466,-0.688699,-0.568425,0.472097,-0.0114049,0.00450321,0.0933453,1,0.000131504,-0.000107162,-1.46794e-05,0.0263007,-0.0214324,-0.00293587,0,0,0,0,0.0841593,0.418076,-0.977444,34.8125,3,60608,6118294
372,-1.33027,-0.491941,9.34344,-1.02081,-1.49713,0.38717,-0.013312,-0.00495556,0.0934312,1,0.000194671,-4.92566e-05,-8.40426e-06,0.0389341,-0.00985132,-0.00168085,0,0,0,0,0.0821836,0.412,-0.963933,34.8125,3,60611,6118594
373,-1.28417,-0.376405,10.6628,-0.457668,-1.24195,1.87469,-0.0127853,-0.0037583,0.106635,1,-3.03185e-05,0.000263573,2.81447e-05,-0.0060637,0.0527147,0.00562893,0,0,0,0,0.0802045,0.421559,-0.979368,34.8125,3,60615,6118994
374,-1.39868,0.0718582,9.57321,-0.89794,-0.820301,0.677332,-0.0139958,0.000707102,0.0957308,1,5.75403e-05,-4.67313e-05,1.65315e-05,0.0115081,-0.00934627,0.00330629,0,0,0,0,0.0829797,0.419823,-0.965278,34.8125,3,60618,6119294
375,-1.35546,0.505307,9.32218,-0.850859,-0.687439,0.456108,-0.0135646,0.00503512,0.0932213,1,9.76696e-05,-5.40298e-05,-9.54452e-06,0.0195339,-0.010806,-0.0019089,0,0,0,0,0.0762668,0.426956,-0.97923,34.8125,3,60621,6119594
376,-0.934593,-0.0671632,9.84712,-0.67675,-0.937401,0.88154,-0.00936927,-0.000670854,0.098469,1,-8.01329e-06,-0.000118839,4.2752e-05,-0.00160266,-0.0237678,0.00855041,0,0,0,0,0.0767208,0.432273,-0.976589,34.8125,3,60625,6119994
377,-1.34845,-0.59724,9.14769,-1.02172,-1.73033,0.330645,-0.0135004,-0.00600663,0.0914723,1,0.000180075,-9.03239e-05,4.7798e-05,0.0360151,-0.0180648,0.00955959,0,0,0,0,0.0721298,0.426369,-0.971648,34.8125,3,60628,6120294
378,-1.2731,0.306439,9.56761,-0.801682,-0.825059,0.891663,-0.0127265,0.00304101,0.0956775,1,0.000117924,2.49035e-05,3.19531e-05,0.0235849,0.00498069,0.00639062,0,0,0,0,0.0680863,0.435217,-0.973453,34.8125,3,60631,6120594
379,0.0827305,-0.89594,10.9797,0.547226,-2.11175,2.19879,0.000840807,-0.00896395,0.109796,1,2.06085e-05,6.21844e-05,-8.56814e-06,0.0041217,0.0124369,-0.00171363,0,0,0,0,0.0622033,0.426806,-0.964017,34.8125,3,60635,6120994
380,-1.46485,-0.0173915,9.22795,-1.16396,-1.07435,0.322452,-0.0146559,-0.000194503,0.0922783,1,0.000104955,-4.0131e-05,4.1575e-05,0.0209909,-0.00802619,0.00831501,0,0,0,0,0.0615371,0.439821,-0.982412,34.8125,3,60638,6121294
381,-1.93207,0.297078,9.26319,-1.09508,-0.510768,0.594632,-0.0193178,0.0029509,0.0926331,1,9.53385e-05,1.71394e-05,5.72352e-05,0.0190677,0.00342787,0.011447,0,0,0,0,0.0544494,0.431729,-0.962861,34.8125,3,60641,6121594
382,-1.26292,-0.494112,9.5838,-0.733555,-1.55651,0.752685,-0.0126472,-0.00496425,0.0958345,1,0.000115972,-9.56087e-05,3.56519e-05,0.0231944,-0.0191217,0.00713038,0,0,0,0,0.048266,0.435932,-0.976881,34.8125,3,60645,6121994
383,-0.730453,0.16677,10.1125,-0.0294512,-0.745491,1.35942,-0.00730923,0.00165553,0.101125,1,5.61884e-05,-2.23226e-05,5.50731e-05,0.0112377,-0.00446451,0.0110146,0,0,0,0,0.0481417,0.432784,-0.964324,34.8125,3,60648,6122294
384,-0.949811,0.044828,9.95795,-0.617516,-1.01281,1.063,-0.0094905,0.000466668,0.0995802,1,-9.69404e-05,3.83955e-05,4.83382e-05,-0.0193881,0.00767909,0.00966764,0,0,0,0,0.0458766,0.434976,-0.976891,34.8125,3,60651,6122594
385,-0.555539,0.636786,9.92338,-0.212074,-0.451708,0.909819,-0.00556019,0.00634998,0.0992347,1,8.58438e-05,-1.93475e-05,7.55258e-05,0.0171688,-0.0038695,0.0151052,0,0,0,0,0.04019,0.436407,-0.972288,34.8125,3,60655,6122994
386,-1.38718,-0.0880869,9.60832,-0.636071,-0.926718,0.797369,-0.013879,-0.000901855,0.096082,1,0.000102429,-3.80343e-05,4.696e-05,0.0204858,-0.00760686,0.009392,0,0,0,0,0.0351749,0.428538,-0.966379,34.8125,3,60658,6123294
387,-1.41168,0.526968,9.33125,-1.13892,-0.639425,0.419769,-0.0141187,0.0052363,0.0933141,1,0.000168222,-6.03382e-06,7.02294e-05,0.0336443,-0.00120676,0.0140459,0,0,0,0,0.0330957,0.433486,-0.96929,34.8125,3,60661,6123594
388,-1.12636,0.0913713,9.80132,-0.537766,-0.910698,0.870459,-0.0112878,0.00091891,0.0980104,1,-2.37994e-05,-0.000123532,-2.35864e-05,-0.00475987,-0.0247064,-0.00471728,0,0,0,0,0.0297076,0.421134,-0.958942,34.8125,3,60665,6123994
389,-1.02347,-0.707118,9.66868,-0.677883,-1.68619,0.75382,-0.0102342,-0.00706335,0.0966874,1,-4.13286e-05,1.9388e-06,8.12807e-06,-0.00826572,0.00038776,0.00162561,0,0,0,0,0.0296164,0.43215,-0.974859,34.8125,3,60668,6124294
390,-1.29203,0.21349,9.54956,-0.68758,-0.778507,0.575007,-0.0129276,0.00212301,0.0954949,1,5.956e-05,-3.77427e-05,1.99492e-05,0.011912,-0.00754854,0.00398984,0,0,0,0,0.0259659,0.422052,-0.953854,34.8125,3,60671,6124594
391,-1.536,-0.548695,9.3503,-1.26027,-1.55546,0.469089,-0.0153529,-0.00550298,0.0935032,1,8.40334e-05,3.78014e-05,1.00529e-05,0.0168067,0.00756029,0.00201058,0,0,0,0,0.0236224,0.42382,-0.969966,34.8125,3,60675,6124994
392,-1.66129,0.167635,9.11648,-1.09924,-0.603763,0.261342,-0.0166179,0.00166784,0.0911641,1,4.70726e-05,-2.74873e-05,-2.157e-06,0.00941452,-0.00549745,-0.0004314,0,0,0,0,0.0240129,0.423052,-0.954328,34.8125,3,60678,6125294
393,-1.08408,-0.607406,9.8417,-0.563502,-1.81271,1.01542,-0.0108449,-0.00609728,0.0984151,1,0.000116222,-2.17934e-05,1.58983e-05,0.0232443,-0.00435868,0.00317966,0,0,0,0,0.0184535,0.423773,-0.964892,34.8125,3,60681,6125594
394,-0.839935,0.290302,9.93794,-0.331387,-0.760611,0.952294,-0.00841787,0.00287646,0.0993786,1,0.000133017,-9.29954e-05,6.673e-06,0.0266033,-0.0185991,0.0013346,0,0,0,0,0.0205673,0.424101,-0.956814,34.8125,3,60685,6125994
395,-1.24077,0.588424,9.80411,-0.693237,-0.421289,0.867488,-0.0124158,0.00586766,0.098041,1,8.31953e-05,-4.08237e-05,1.06819e-05,0.0166391,-0.00816475,0.00213638,0,0,0,0,0.0160138,0.419616,-0.949317,34.8125,3,60688,6126294
396,-1.1567,0.106725,9.55045,-0.703101,-0.804651,0.607847,-0.0115767,0.00107027,0.0955033,1,-1.36213e-05,-5.12024e-05,-1.82426e-05,-0.00272427,-0.0102405,-0.00364851,0,0,0,0,0.0163482,0.424056,-0.95225,34.8125,3,60691,6126594
397,-1.35888,0.211889,9.22997,-0.74944,-0.749877,0.434806,-0.0135772,0.00212073,0.0923013,1,-1.1666e-05,6.28495e-05,1.15171e-05,-0.00233321,0.0125699,0.00230343,0,0,0,0,0.0163217,0.417945,-0.937739,34.8125,3,60695,6126994
398,-0.893295,-0.0525994,10.192,-0.428558,-1.20983,1.26046,-0.00891735,-0.000542473,0.101921,1,7.93138e-05,7.64392e-05,1.74539e-05,0.0158628,0.0152878,0.00349078,0,0,0,0,0.0153865,0.425509,-0.951203,34.8125,3,60698,6127294
399,-2.03681,0.237336,9.62337,-1.58622,-0.509843,0.708272,-0.0203463,0.00237203,0.0962383,1,5.19445e-06,0.000113618,8.02504e-06,0.00103889,0.0227235,0.00160501,0,0,0,0,0.0164375,0.419788,-0.931638,34.8125,3,60701,6127594
400,-1.78226,-0.296576,9.99153,-1.14381,-1.39196,1.10696,-0.0177936,-0.00297775,0.0999201,1,5.13696e-05,0.000143437,4.84019e-05,0.0102739,0.0286873,0.00968037,0,0,0,0,0.0137329,0.423881,-0.94113,34.8125,3,60705,6127994
401,-2.44469,0.536097,9.60037,-1.98735,-0.19247,0.647913,-0.0244382,0.00535178,0.0960065,1,4.5367e-05,4.61888e-05,9.68712e-06,0.0090734,0.00923776,0.00193742,0,0,0,0,0.020292,0.424571,-0.928014,34.8125,3,60708,6128294
402,-2.46158,-0.290736,9.53663,-2.09172,-1.28111,0.581223,-0.024602,-0.00291646,0.0953696,1,4.32992e-05,7.17193e-05,1.72023e-05,0.00865983,0.0143439,0.00344045,0,0,0,0,0.0148308,0.423774,-0.935582,34.8125,3,60711,6128594
403,-2.27238,-0.108053,9.68564,-2.28591,-1.05294,0.60356,-0.0227519,-0.0010862,0.0968498,1,3.44185e-05,-0.000144611,-2.19952e-05,0.00688369,-0.0289223,-0.00439904,0,0,0,0,0.0167785,0.431933,-0.928844,34.8125,3,60715,6128994
404,-3.13551,0.198362,9.42028,-2.80741,-0.575182,0.193711,-0.0313677,0.00196423,0.094199,1,9.52421e-05,-6.64754e-05,2.31233e-05,0.0190484,-0.0132951,0.00462466,0,0,0,0,0.017031,0.424039,-0.92397,34.8125,3,60718,6129294
405,-2.667,-0.184778,9.48945,-1.43174,-0.858009,0.731099,-0.0266528,-0.00186053,0.0948991,1,6.21456e-05,9.0348e-05,1.80583e-05,0.0124291,0.0180696,0.00361166,0,0,0,0,0.0159358,0.432818,-0.923265,34.8125,3,60721,6129594
406,-2.43615,0.157513,9.78708,-1.48963,-0.915067,1.09768,-0.0243314,0.00157258,0.0978783,1,7.58868e-06,0.000154518,2.18887e-05,0.00151774,0.0309035,0.00437773,0,0,0,0,0.0173977,0.42618,-0.907257,34.8125,3,60725,6129994
407,-2.36397,0.248737,9.95513,-1.8922,-1.08357,1.08322,-0.023603,0.00248376,0.0995601,1,1.28075e-05,0.000185034,2.24765e-05,0.00256151,0.0370069,0.00449529,0,0,0,0,0.0168112,0.431427,-0.927845,34.8125,3,60728,6130294
408,-3.44481,-0.220355,9.12214,-2.3358,-0.230344,0.525636,-0.0344289,-0.00223496,0.0912279,1,0.000179782,0.000106009,-2.01671e-05,0.0359564,0.0212018,-0.00403341,0,0,0,0,0.0158647,0.428667,-0.909215,34.8125,3,60731,6130594
409,-3.35569,0.253937,8.66724,-2.6913,-0.454567,0.0397584,-0.033568,0.00251727,0.0866687,1,0.000122031,-6.3793e-05,1.41198e-05,0.0244062,-0.0127586,0.00282395,0,0,0,0,0.0136071,0.428926,-0.922835,34.8125,3,60735,6130994
410,-1.35728,-0.0320428,10.3883,-0.699004,-1.46225,1.59016,-0.0135765,-0.00032249,0.103882,1,1.96574e-06,-1.78724e-05,6.0924e-05,0.000393148,-0.00357447,0.0121848,0,0,0,0,0.0169009,0.428605,-0.906191,34.8125,3,60738,6131294
411,-2.14458,-0.0801576,9.79001,-1.45075,-0.756867,0.962868,-0.0214518,-0.000813079,0.0978987,1,5.37772e-05,-3.08672e-05,2.27063e-05,0.0107554,-0.00617344,0.00454127,0,0,0,0,0.0151173,0.432239,-0.917718,34.8125,3,60741,6131594
412,-1.97327,0.0620734,9.71831,-1.3615,-1.00079,0.840415,-0.0197349,0.000613821,0.0971827,1,3.0551e-05,-1.13314e-05,2.46887e-05,0.0061102,-0.00226627,0.00493774,0,0,0,0,0.0141968,0.434144,-0.914641,34.8125,3,60745,6131994
413,-1.83913,0.030185,9.71881,-1.23552,-0.999992,0.85187,-0.01839,0.000292831,0.0971884,1,3.96724e-05,6.9375e-06,3.55489e-05,0.00793448,0.0013875,0.00710978,0,0,0,0,0.014417,0.4282,-0.909724,34.8125,3,60748,6132294
414,-1.81606,-0.0279445,9.60795,-1.20348,-1.02224,0.714603,-0.0181625,-0.000290464,0.0960791,1,5.77178e-05,-9.84599e-06,-1.9952e-06,0.0115436,-0.0019692,-0.000399041,0,0,0,0,0.0170712,0.434129,-0.91516,34.8125,3,60751,6132594
415,-1.42296,0.0573248,9.51901,-0.841913,-1.00619,0.553964,-0.0142512,0.000563545,0.0951869,1,5.08701e-05,-0.000113412,6.54842e-07,0.010174,-0.0226825,0.000130968,0,0,0,0,0.01294,0.425827,-0.9128,34.8125,3,60754,6132894
416,-1.15571,0.129684,9.61884,-0.512425,-0.997671,0.694435,-0.0115721,0.00128896,0.0961867,1,3.72727e-05,-7.75444e-05,3.06777e-05,0.00745454,-0.0155089,0.00613554,0,0,0,0,0.0172805,0.432878,-0.92731,34.8125,3,60758,6133294
417,-1.42695,-0.0654038,9.56318,-0.904256,-1.39236,0.561658,-0.0142855,-0.000663477,0.0956293,1,4.16665e-05,-8.37771e-05,5.14984e-05,0.00833331,-0.0167554,0.0102997,0,0,0,0,0.0145552,0.422799,-0.907824,34.8125,3,60761,6133594
418,-0.65612,0.217592,9.8529,-0.0843868,-0.93081,0.908754,-0.00656629,0.00216211,0.098529,1,6.87632e-05,-2.53904e-05,1.99913e-05,0.0137526,-0.00507808,0.00399826,0,0,0,0,0.0140555,0.429428,-0.923836,34.8125,3,60765,6133994
419,-0.463885,-0.0824537,9.74387,0.0815004,-1.2768,0.775437,-0.00463856,-0.000835514,0.0974386,1,5.59129e-05,1.39887e-06,8.73031e-06,0.0111826,0.000279773,0.00174606,0,0,0,0,0.0171894,0.430669,-0.912712,34.8125,3,60768,6134294
420,-0.692841,-0.00453773,9.67926,-0.129843,-1.21589,0.734552,-0.00692755,-5.21065e-05,0.0967926,1,3.31122e-05,4.46549e-06,2.30298e-05,0.00662244,0.000893099,0.00460597,0,0,0,0,0.0115725,0.431914,-0.925285,34.8125,3,60771,6134594
421,-0.607487,0.0535064,9.77213,-0.0125639,-1.10862,0.772214,-0.00607581,0.000524504,0.0977213,1,5.21932e-05,-4.60714e-06,2.95559e-05,0.0104386,-0.000921427,0.00591119,0,0,0,0,0.0172383,0.429188,-0.911735,34.8125,3,60774,6134894
422,-0.624259,-0.0187264,9.87036,-0.057773,-1.27495,0.919506,-0.00625128,-0.00020081,0.098703,1,6.61242e-05,-4.4126e-05,3.94101e-05,0.0132248,-0.0088252,0.00788202,0,0,0,0,0.0153001,0.424877,-0.915357,34.8125,3,60778,6135294
423,-0.306963,0.0872016,9.8518,0.311058,-1.1891,0.861984,-0.00307281,0.000863182,0.098518,1,4.46514e-05,-1.61264e-05,5.8062e-06,0.00893028,-0.00322527,0.00116124,0,0,0,0,0.0183746,0.433737,-0.921235,34.8125,3,60781,6135594
424,-0.533944,-0.0746495,9.78817,0.068901,-1.27315,0.8115,-0.00534004,-0.000756802,0.0978816,1,5.1694e-05,-3.19898e-06,1.75534e-05,0.0103388,-0.000639797,0.00351068,0,0,0,0,0.0138074,0.424925,-0.91737,34.8125,3,60784,6135894
425,-0.640696,0.0182941,9.79613,-0.0234115,-1.20507,0.826246,-0.00640704,0.00017167,0.0979613,1,5.48125e-05,-3.47919e-07,4.15437e-05,0.0109625,-6.95839e-05,0.00830875,0,0,0,0,0.015736,0.438264,-0.927688,34.8125,3,60788,6136294
426,-0.604392,-0.0299605,9.80498,-0.000491762,-1.23775,0.843938,-0.00604851,-0.000312438,0.0980495,1,6.33262e-05,-2.34881e-05,3.42465e-05,0.0126652,-0.00469762,0.00684931,0,0,0,0,0.0153788,0.426747,-0.910771,34.8125,3,60791,6136594
427,-0.564447,0.0654738,9.79331,0.055246,-1.15919,0.830885,-0.00564948,0.000642934,0.0979329,1,5.83363e-05,-2.53951e-05,3.34736e-05,0.0116673,-0.00507902,0.00669471,0,0,0,0,0.0138633,0.432942,-0.929313,34.8125,3,60794,6136894
428,-0.624074,-0.0187741,9.793,-0.00662939,-1.2144,0.824513,-0.00624274,-0.000202853,0.0979298,1,7.61804e-05,-1.02819e-05,1.53273e-05,0.0152361,-0.00205638,0.00306546,0,0,0,0,0.0166419,0.428794,-0.916792,34.8125,3,60798,6137294
429,-0.661528,-0.000426368,9.79849,-0.0428581,-1.21125,0.844433,-0.00661946,-1.59982e-05,0.0979846,1,5.85857e-05,-2.13349e-05,1.91518e-05,0.0117171,-0.00426698,0.00383036,0,0,0,0,0.0120859,0.429959,-0.925331,34.8125,3,60801,6137594
430,-0.408539,0.0103343,9.8135,0.18255,-1.30545,0.837939,-0.0040894,9.01601e-05,0.0981349,1,6.6519e-05,-2.04395e-05,1.55134e-05,0.0133038,-0.00408791,0.00310268,0,0,0,0,0.015923,0.431381,-0.924812,34.8125,3,60805,6137994
431,-0.763075,-0.0897636,9.7991,-0.143416,-1.2973,0.851245,-0.00763599,-0.000906366,0.0979905,1,4.42082e-05,-2.67526e-05,4.33596e-06,0.00884165,-0.00535051,0.000867191,0,0,0,0,0.013852,0.422965,-0.916908,34.8125,3,60808,6138294
432,-0.875664,0.0201809,9.75807,-0.247762,-1.14644,0.800779,-0.00876299,0.000190848,0.0975801,1,5.36237e-05,-3.24423e-05,2.8319e-05,0.0107247,-0.00648847,0.00566379,0,0,0,0,0.0164046,0.432823,-0.923772,34.8125,3,60811,6138594
433,-0.84824,0.029459,9.78342,-0.247769,-1.17003,0.837597,-0.00849225,0.000286862,0.0978334,1,3.80764e-05,-5.03042e-05,1.63617e-05,0.00761527,-0.0100608,0.00327235,0,0,0,0,0.0133258,0.423484,-0.91841,34.8125,3,60814,6138894
434,-0.691781,-0.100847,9.75543,-0.0857298,-1.30154,0.788122,-0.00691806,-0.00102633,0.0975541,1,8.99267e-05,-1.54236e-06,2.27687e-05,0.0179853,-0.000308472,0.00455374,0,0,0,0,0.0133779,0.432467,-0.929826,34.8125,3,60818,6139294
435,-1.07405,0.0986771,9.794,-0.493587,-1.10068,0.875077,-0.010744,0.000976372,0.0979397,1,5.13553e-05,-1.77822e-05,1.57947e-05,0.0102711,-0.00355645,0.00315895,0,0,0,0,0.012532,0.422887,-0.911853,34.8125,3,60821,6139594
436,0.723427,-0.970859,9.47692,1.43515,-0.929026,0.419431,0.00722215,-0.00972851,0.0947681,1,0.000101102,-5.85854e-05,-5.20623e-05,0.0202204,-0.0117171,-0.0104125,0,0,0,0,0.0138467,0.432472,-0.930334,34.8125,3,60824,6139894
437,-1.62631,0.234479,9.72578,-1.02766,-0.490996,0.797548,-0.0162515,0.0023177,0.0972604,1,0.000129765,6.11021e-05,5.69573e-05,0.025953,0.0122204,0.0113915,0,0,0,0,0.0176582,0.430674,-0.913219,34.8125,3,60828,6140294
438,-1.42085,0.0514419,9.60191,-0.807858,-1.18582,0.690004,-0.0142076,0.000515929,0.0960192,1,-9.24256e-06,4.91996e-06,9.33873e-06,-0.00184851,0.000983991,0.00186775,0,0,0,0,0.0144835,0.430427,-0.925331,34.8125,3,60831,6140594
439,-0.508582,-0.147487,9.70194,0.0717227,-1.28528,0.699636,-0.00509775,-0.00148464,0.0970187,1,5.10664e-05,-6.12432e-05,-1.42457e-05,0.0102133,-0.0122486,-0.00284914,0,0,0,0,0.0168577,0.435248,-0.923215,34.8125,3,60835,6140994
440,-1.43015,-0.186247,9.72233,-0.783228,-1.33603,0.789343,-0.0142945,-0.00187139,0.0972241,1,3.86524e-05,3.50878e-05,4.90912e-05,0.00773047,0.00701756,0.00981825,0,0,0,0,0.0142809,0.426854,-0.916319,34.8125,3,60838,6141294
441,-2.42386,0.399966,9.74318,-1.74832,-0.67151,0.948646,-0.0242605,0.00398796,0.0974268,1,4.56737e-05,-0.000109909,5.76194e-05,0.00913474,-0.0219818,0.0115239,0,0,0,0,0.0149289,0.434786,-0.923721,34.8125,3,60841,6141594
442,-0.464355,0.225889,9.6889,-0.328652,-1.17621,0.695518,-0.0046885,0.00221926,0.0968877,1,0.000207051,-0.000233179,-5.25846e-05,0.0414103,-0.0466358,-0.0105169,0,0,0,0,0.0149381,0.424312,-0.910823,34.8125,3,60845,6141994
443,0.850251,0.0519625,9.71044,1.06324,-1.81288,0.473125,0.00852456,0.000520695,0.0971025,1,-2.63659e-06,0.00011367,3.27717e-05,-0.000527317,0.0227339,0.00655434,0,0,0,0,0.0133703,0.4344,-0.928773,34.8125,3,60848,6142294
444,-1.5813,0.395682,10.1265,-0.990572,-1.15338,1.24863,-0.0158189,0.00394976,0.101264,1,2.37523e-05,-2.65218e-05,7.11068e-05,0.00475047,-0.00530436,0.0142214,0,0,0,0,0.0154277,0.425266,-0.909794,34.8125,3,60851,6142594
445,-0.513607,-0.0892696,9.75874,0.0851363,-1.43402,0.795978,-0.00513259,-0.000901606,0.0975875,1,4.42898e-05,1.75916e-05,2.59249e-05,0.00885797,0.00351832,0.00518498,0,0,0,0,0.0121191,0.430898,-0.92329,34.8125,3,60855,6142994
446,-0.091586,0.0921158,9.81752,0.562466,-1.24611,0.810272,-0.00091188,0.00091487,0.0981753,1,3.17006e-05,2.05904e-05,3.45709e-05,0.00634013,0.00411808,0.00691418,0,0,0,0,0.0172587,0.428691,-0.911241,34.8125,3,60858,6143294
447,-1.19253,-0.132929,9.77647,-0.551038,-1.23323,0.850678,-0.0119189,-0.00134284,0.0977653,1,6.76812e-05,3.24631e-05,1.31993e-05,0.0135363,0.00649262,0.00263986,0,0,0,0,0.0140593,0.428462,-0.924363,34.8125,3,60861,6143594
448,-1.46519,0.094851,9.64803,-0.841389,-1.31451,0.753034,-0.0146478,0.000942499,0.096481,1,2.50209e-05,2.15332e-05,4.03789e-05,0.00500417,0.00430665,0.00807579,0,0,0,0,0.0158822,0.432375,-0.9258,34.8125,3,60865,6143994
449,-1.00744,0.0679691,9.83815,-0.376735,-1.06675,0.884126,-0.0100884,0.000670366,0.0983802,1,4.51144e-05,-7.06411e-05,2.22031e-05,0.00902287,-0.0141282,0.00444062,0,0,0,0,0.0157774,0.425839,-0.914833,34.8125,3,60868,6144294
450,-0.702751,0.0566575,9.74429,-0.0574971,-1.14376,0.783006,-0.00702728,0.000559136,0.097443,1,3.73851e-05,1.22199e-06,1.09411e-05,0.00747701,0.000244398,0.00218821,0,0,0,0,0.0178157,0.434762,-0.923735,34.8125,3,60871,6144594
451,-0.816603,-0.1588,9.81715,-0.167931,-1.38984,0.849254,-0.00816272,-0.00159683,0.0981716,1,4.34929e-05,1.65601e-05,1.7446e-05,0.00869857,0.00331201,0.0034892,0,0,0,0,0.0158642,0.427222,-0.910257,34.8125,3,60875,6144994
452,-0.802542,0.0408795,9.81743,-0.165071,-1.21906,0.848984,-0.00802884,0.000398585,0.0981741,1,5.07143e-05,-1.73671e-05,1.57245e-05,0.0101429,-0.00347342,0.0031449,0,0,0,0,0.016257,0.434376,-0.928787,34.8125,3,60878,6145294
453,-0.92519,-0.0482912,9.7765,-0.277006,-1.2474,0.814657,-0.00926154,-0.000490829,0.0977641,1,3.83611e-05,-4.94126e-05,2.24852e-05,0.00767222,-0.00988252,0.00449704,0,0,0,0,0.0163781,0.426712,-0.909261,34.8125,3,60881,6145594
454,-0.672058,0.0152945,9.75902,-0.0127613,-1.24422,0.797704,-0.00672555,0.000140973,0.0975898,1,5.96922e-05,-2.53898e-05,2.39443e-05,0.0119384,-0.00507796,0.00478886,0,0,0,0,0.0140436,0.430882,-0.923299,34.8125,3,60885,6145994
455,-0.754634,-0.0242357,9.79857,-0.109864,-1.25342,0.826644,-0.00754752,-0.000252731,0.0979856,1,5.1586e-05,-6.05355e-06,1.75144e-05,0.0103172,-0.00121071,0.00350288,0,0,0,0,0.017662,0.429708,-0.913746,34.8125,3,60888,6146294
456,-0.829895,-0.00858807,9.77954,-0.185926,-1.25271,0.833791,-0.00830408,-9.63188e-05,0.097795,1,5.25713e-05,-2.62091e-05,9.37132e-06,0.0105143,-0.00524182,0.00187426,0,0,0,0,0.0139099,0.423886,-0.913858,34.8125,3,60892,6146694
457,-0.841996,0.00238428,9.77704,-0.197954,-1.23163,0.815758,-0.00842776,1.63443e-05,0.0977697,1,3.62885e-05,-3.99089e-05,2.38972e-05,0.0072577,-0.00798179,0.00477945,0,0,0,0,0.0163965,0.43331,-0.923761,34.8125,3,60895,6146994
458,-0.645744,0.0437453,9.78553,0.00149799,-1.21606,0.828508,-0.00646054,0.000431059,0.0978551,1,3.138e-05,-1.57782e-05,1.94946e-05,0.006276,-0.00315564,0.00389892,0,0,0,0,0.014371,0.425824,-0.913312,34.8125,3,60898,6147294
459,-0.747017,-0.0426922,9.79565,-0.108735,-1.28549,0.820656,-0.00746986,-0.000435241,0.0979564,1,4.11199e-05,1.47729e-06,1.7596e-05,0.00822397,0.000295457,0.0035192,0,0,0,0,0.0159159,0.43476,-0.922716,34.8125,3,60901,6147594
460,-0.576207,-0.0150534,10.0342,0.151101,-1.31589,1.04492,-0.00574625,-0.000161084,0.100342,1,5.16139e-05,7.8775e-05,1.67228e-05,0.0103228,0.015755,0.00334457,0,0,0,0,0.0158723,0.426734,-0.910268,34.8125,3,60905,6147994
461,-1.52737,0.0870348,9.6805,-0.923911,-1.09927,0.796592,-0.0152645,0.000861984,0.0968065,1,4.07527e-05,4.78273e-05,1.5497e-05,0.00815055,0.00956546,0.00309939,0,0,0,0,0.0148132,0.432943,-0.929823,34.8125,3,60908,6148294
462,-1.39705,0.0194924,9.77809,-0.735678,-1.1627,0.867286,-0.0139592,0.000186222,0.0977825,1,4.5121e-05,5.79449e-05,-4.37651e-06,0.00902419,0.011589,-0.000875301,0,0,0,0,0.0164431,0.424255,-0.908306,34.8125,3,60911,6148594
463,-1.86128,0.0058343,9.56877,-1.18571,-1.11075,0.707892,-0.0186055,4.70309e-05,0.0956891,1,5.36667e-05,3.77536e-05,2.79846e-05,0.0107333,0.00755072,0.00559692,0,0,0,0,0.0150917,0.429366,-0.920812,34.8125,3,60915,6148994
464,-1.58234,0.0269535,10.0161,-0.945739,-1.05128,1.05153,-0.0158046,0.000261199,0.100164,1,4.25487e-05,9.37394e-05,-5.95622e-06,0.00850973,0.0187479,-0.00119124,0,0,0,0,0.0191623,0.427727,-0.912786,34.8125,3,60918,6149294
465,-1.60895,-0.160244,9.68735,-0.957736,-1.38231,0.734207,-0.016112,-0.00161131,0.0968696,1,3.82524e-05,-0.000116813,4.55395e-05,0.00765047,-0.0233627,0.0091079,0,0,0,0,0.0147203,0.424953,-0.919393,34.8125,3,60921,6149594
466,-4.13633,-0.192957,10.0539,-2.66802,-1.17976,1.77197,-0.041285,-0.00194197,0.100571,1,5.95068e-05,0.000389316,5.17224e-06,0.0119014,0.0778632,0.00103445,0,0,0,0,0.0135715,0.433289,-0.921223,34.8125,3,60925,6149994
467,0.0309351,-0.0896646,11.1269,0.191868,-1.74747,2.07388,0.000320551,-0.000892001,0.111269,1,-2.09149e-05,5.04469e-05,-1.46814e-05,-0.00418298,0.0100894,-0.00293627,0,0,0,0,0.0120836,0.422385,-0.910852,34.8125,3,60928,6150294
468,-1.05246,-0.216216,9.95529,-0.241054,-1.25232,0.842096,-0.010522,-0.00217163,0.099553,1,4.61227e-05,1.27736e-05,1.3741e-05,0.00922453,0.00255473,0.00274821,0,0,0,0,0.0149204,0.433828,-0.924753,34.8125,3,60931,6150594
469,-2.82599,0.135393,9.57826,-2.28293,-0.828809,0.708206,-0.0282439,0.00134511,0.0957875,1,3.80801e-05,8.36278e-05,2.71115e-05,0.00761602,0.0167256,0.0054223,0,0,0,0,0.0169199,0.423772,-0.908824,34.8125,3,60935,6150994
470,-1.99542,-0.154136,9.98869,-1.17819,-1.63259,1.45663,-0.0198893,-0.00154699,0.0998998,1,2.61019e-05,0.000324843,1.04873e-05,0.00522038,0.0649687,0.00209746,0,0,0,0,0.0174722,0.427919,-0.922876,34.8125,3,60938,6151294
471,-2.77179,0.517115,9.90964,-1.99845,-0.617563,1.39555,-0.027675,0.00514081,0.09911,1,0.000146451,0.000217693,2.36424e-05,0.0292903,0.0435386,0.00472848,0,0,0,0,0.0147303,0.41737,-0.90441,34.8125,3,60941,6151594
472,-1.7999,0.587214,8.78958,-1.14663,-0.837128,0.421719,-0.0180206,0.0058441,0.0878932,1,0.000154897,-0.000120983,2.25656e-05,0.0309793,-0.0241967,0.00451312,0,0,0,0,0.0169655,0.42505,-0.925967,34.8125,3,60945,6151994
473,-3.89696,0.0358984,7.77615,-2.92446,-0.574516,-0.758312,-0.0389962,0.000358828,0.0777482,1,-8.89749e-06,-0.000171231,1.97542e-05,-0.0017795,-0.0342462,0.00395084,0,0,0,0,0.0190584,0.424429,-0.919425,34.8125,3,60948,6152294
474,-2.38817,0.16043,8.33601,-2.03972,-0.961471,-0.476943,-0.0239384,0.00158801,0.0833442,1,9.59222e-05,-0.000339911,6.14946e-06,0.0191844,-0.0679821,0.00122989,0,0,0,0,0.0157812,0.425221,-0.935049,34.8125,3,60951,6152594
475,-1.49026,-0.455853,11.9288,-0.472537,-2.2431,3.47522,-0.0148309,-0.0045477,0.119297,1,-5.2689e-05,0.000298103,5.85008e-05,-0.0105378,0.0596206,0.0117002,0,0,0,0,0.0156659,0.424823,-0.940108,34.8125,3,60955,6152994
476,-2.33608,-0.485364,9.62722,-1.33136,-1.63777,0.799724,-0.0233891,-0.00484812,0.0962656,1,-3.24442e-05,-0.000148107,1.56542e-05,-0.00648884,-0.0296214,0.00313085,0,0,0,0,0.0194262,0.41728,-0.929182,34.8125,3,60958,6153294
477,-0.901382,-0.469315,9.13548,-0.130154,-1.55749,0.174183,-0.00904845,-0.00469292,0.0913514,1,-4.59693e-06,-0.000191316,3.39184e-05,-0.000919386,-0.0382633,0.00678369,0,0,0,0,0.0159952,0.425894,-0.945642,34.8125,3,60961,6153594
478,-0.899334,0.0923145,10.0781,-0.101332,-1.35323,1.25032,-0.00900971,0.000913338,0.10078,1,4.49208e-05,-8.08739e-05,4.18007e-05,0.00898416,-0.0161748,0.00836014,0,0,0,0,0.0196696,0.419859,-0.937207,34.8125,3,60965,6153994
479,-1.83343,0.300394,9.24578,-0.940973,-0.87627,0.587558,-0.018321,0.00300352,0.0924605,1,-8.70907e-06,7.40505e-05,5.52838e-05,-0.00174181,0.0148101,0.0110568,0,0,0,0,0.0143702,0.423629,-0.954775,34.8125,3,60968,6154294
480,-1.17045,0.294727,9.51815,-0.261649,-0.952799,0.70421,-0.0117053,0.00295268,0.0951812,1,-3.16946e-05,-3.60487e-06,2.66836e-05,-0.00633893,-0.000720973,0.00533673,0,0,0,0,0.0190651,0.419953,-0.942252,34.8125,3,60971,6154594
481,-1.2775,-0.0874936,9.50424,-0.283201,-1.41081,0.659217,-0.0127886,-0.000872365,0.0950406,1,-1.58521e-05,-7.14837e-05,1.73174e-05,-0.00317043,-0.0142967,0.00346348,0,0,0,0,0.0177247,0.42072,-0.957381,34.8125,3,60975,6154994
482,-0.832971,-0.134622,10.0107,-0.0302733,-1.6017,1.07784,-0.00833767,-0.0013439,0.100106,1,-1.67291e-05,-4.0601e-05,6.18513e-05,-0.00334582,-0.0081202,0.0123703,0,0,0,0,0.0230099,0.424054,-0.955311,34.8125,3,60978,6155294
483,-0.595588,0.136807,9.9956,-0.206614,-1.18909,1.07823,-0.00595808,0.00137652,0.0999558,1,-4.50573e-05,-1.03575e-05,4.68274e-05,-0.00901145,-0.00207149,0.00936547,0,0,0,0,0.0204805,0.422719,-0.96139,34.8125,3,60981,6155594
484,-1.15264,-0.547986,9.56777,-0.993874,-1.47738,0.489819,-0.01154,-0.00549074,0.0956754,1,4.91842e-05,-7.48454e-05,6.36778e-05,0.00983685,-0.0149691,0.0127356,0,0,0,0,0.0230857,0.430128,-0.967803,34.8125,3,60985,6155994
485,-0.992589,-0.528936,9.80898,0.0390898,-1.68962,1.11676,-0.0099281,-0.00529492,0.0980893,1,2.2062e-05,-1.46241e-05,6.23005e-05,0.0044124,-0.00292482,0.0124601,0,0,0,0,0.0265039,0.420079,-0.95289,34.8125,3,60988,6156294
486,-1.25992,-0.214888,9.55577,-0.187501,-1.80732,0.681375,-0.0126099,-0.00216941,0.0955559,1,9.58143e-05,-5.77755e-05,8.80626e-05,0.0191629,-0.0115551,0.0176125,0,0,0,0,0.0292425,0.433039,-0.969787,34.8125,3,60991,6156594
487,-0.716727,0.339569,10.1861,-0.493064,-0.837507,1.19173,-0.00714955,0.00340746,0.101862,1,-6.40022e-05,8.99794e-05,8.90402e-05,-0.0128004,0.0179959,0.017808,0,0,0,0,0.0306394,0.428859,-0.954734,34.8125,3,60995,6156994
488,-0.770604,-0.566745,10.1125,0.16078,-1.57298,1.44958,-0.00769607,-0.00569071,0.101124,1,0.000110099,4.56584e-05,6.49511e-05,0.0220197,0.00913168,0.0129902,0,0,0,0,0.0348436,0.434563,-0.97584,34.8125,3,60998,6157294
489,-0.692958,0.549366,9.50812,-0.154884,-1.0257,0.494998,-0.00695227,0.00550583,0.0950789,1,-7.06793e-05,-0.000114018,9.11212e-05,-0.0141359,-0.0228035,0.0182242,0,0,0,0,0.0399305,0.434803,-0.964241,34.8125,3,61002,6157694
490,-0.971298,-0.355464,9.73489,-0.6834,-1.35515,0.626663,-0.00972635,-0.00353346,0.0973483,1,-0.000118675,-7.22534e-05,9.90446e-05,-0.0237351,-0.0144507,0.0198089,0,0,0,0,0.0398275,0.434396,-0.968795,34.8125,3,61005,6157994
491,-0.987235,0.178212,9.70075,-0.0289272,-0.735598,0.949485,-0.0098876,0.00176585,0.0970063,1,7.05185e-05,-7.62067e-05,0.000131109,0.0141037,-0.0152413,0.0262219,0,0,0,0,0.0465926,0.436246,-0.96626,34.8125,3,61008,6158294
492,-0.644645,-0.347999,9.72335,-0.631575,-2.00689,0.65746,-0.00643121,-0.0034738,0.0972348,1,-3.66532e-05,7.57942e-05,7.22252e-05,-0.00733063,0.0151588,0.014445,0,0,0,0,0.0458387,0.431765,-0.960801,34.8125,3,61012,6158694
493,-1.20796,-0.574757,9.58846,-0.251368,-1.3813,0.894479,-0.012062,-0.00576614,0.0958857,1,8.85173e-05,8.78948e-05,6.59836e-05,0.0177035,0.017579,0.0131967,0,0,0,0,0.0538818,0.444673,-0.977218,34.8125,3,61015,6158994
494,-0.734513,0.306029,9.65784,-0.268865,-1.14363,0.678032,-0.00735881,0.00303606,0.0965782,1,0.000119966,-6.85335e-05,7.20721e-05,0.0239933,-0.0137067,0.0144144,0,0,0,0,0.0554771,0.43071,-0.960869,34.8125,3,61018,6159294
495,-1.26208,-0.201535,9.3771,-0.800941,-1.35276,0.463923,-0.0126234,-0.00200261,0.0937709,1,-7.45029e-05,-1.47331e-05,4.87183e-05,-0.0149006,-0.00294661,0.00974367,0,0,0,0,0.0616035,0.4417,-0.97833,34.8125,3,61021,6159594
496,-0.62747,-0.0724442,10.2829,0.342428,-1.55957,1.40514,-0.00627186,-0.000757316,0.102829,1,0.000157237,1.35269e-05,4.27581e-05,0.0314474,0.00270538,0.00855163,0,0,0,0,0.0655801,0.429181,-0.961959,34.8125,3,61025,6159994
497,-0.289211,0.438067,10.2464,-0.00993934,-0.878125,1.21463,-0.0029033,0.00440116,0.102463,1,-0.000102175,-5.12778e-05,7.83133e-05,-0.0204351,-0.0102556,0.0156627,0,0,0,0,0.0669879,0.433879,-0.980044,34.8125,3,61028,6160294
498,-1.57434,0.177316,9.37873,-0.485447,-0.661753,0.615969,-0.0157411,0.0017672,0.0937879,1,1.9109e-05,1.40187e-05,7.53016e-05,0.00382179,0.00280373,0.0150603,0,0,0,0,0.071382,0.428148,-0.961504,34.8125,3,61031,6160594
499,-0.73362,-0.790864,9.6431,-0.423576,-2.12655,0.614449,-0.00733497,-0.00792032,0.0964302,1,5.72877e-05,2.87899e-06,4.26292e-05,0.0114575,0.000575797,0.00852583,0,0,0,0,0.0720928,0.426396,-0.973163,34.8125,3,61035,6160994
500,-1.06248,-0.576003,9.74213,-0.0412811,-1.62472,0.868788,-0.010623,-0.00579666,0.0974193,1,0.000186025,8.22264e-06,1.84238e-05,0.037205,0.00164453,0.00368476,0,0,0,0,0.0769709,0.42968,-0.968062,34.8125,3,61038,6161294
501,-0.36654,0.104893,9.76542,-0.256646,-1.4198,0.686909,-0.00367388,0.00103679,0.097654,1,6.0284e-05,-4.28752e-05,4.97567e-05,0.0120568,-0.00857504,0.00995135,0,0,0,0,0.0750726,0.421486,-0.97278,34.8125,3,61041,6161594
502,-1.36489,0.227342,8.91714,-0.618087,-0.558235,0.156195,-0.0136774,0.00226117,0.0891674,1,6.24258e-05,-0.000158548,4.09319e-05,0.0124852,-0.0317097,0.00818639,0,0,0,0,0.0825744,0.425902,-0.977768,34.8125,3,61045,6161994
503,-0.0561234,0.288071,10.7817,0.46809,-1.41714,1.82581,-0.00055231,0.00287474,0.107817,1,2.7353e-05,4.30432e-05,6.21411e-05,0.00547061,0.00860864,0.0124282,0,0,0,0,0.081227,0.416822,-0.960286,34.8125,3,61048,6162294
504,-0.938862,0.548958,9.55823,-0.50725,-0.597668,0.673425,-0.00940868,0.00547346,0.0955812,1,7.82521e-05,-0.000101412,6.18874e-05,0.0156504,-0.0202825,0.0123775,0,0,0,0,0.0850204,0.423443,-0.977834,34.8125,3,61051,6162594
505,-0.579389,0.604858,9.69025,-0.0750492,-0.787476,0.807738,-0.00579644,0.00603204,0.0969034,1,8.32206e-05,-1.09557e-05,3.47868e-05,0.0166441,-0.00219113,0.00695735,0,0,0,0,0.085206,0.411876,-0.958394,34.8125,3,61055,6162994
506,-1.149,0.540322,9.40992,-0.429612,-0.421833,0.690872,-0.0114808,0.00540957,0.0941,1,-3.6788e-05,5.06797e-05,2.52702e-05,-0.0073576,0.0101359,0.00505404,0,0,0,0,0.0842205,0.416586,-0.975962,34.8125,3,61058,6163294
507,-0.482515,-0.547157,10.2401,0.162345,-2.08771,1.14906,-0.00484824,-0.00548573,0.102399,1,6.6562e-05,-0.000115677,5.52541e-05,0.0133124,-0.0231355,0.0110508,0,0,0,0,0.0893315,0.415363,-0.964396,34.8125,3,61062,6163694
508,-0.770202,-0.0936296,9.95955,-0.407076,-1.47431,0.991305,-0.00769998,-0.000938692,0.0995957,1,4.70716e-06,9.37826e-06,9.46765e-05,0.000941431,0.00187565,0.0189353,0,0,0,0,0.0847107,0.406108,-0.963066,34.8125,3,61065,6163994
509,-1.11637,-0.453568,9.79121,-0.155574,-1.64666,1.0424,-0.0111785,-0.00456106,0.0979093,1,0.000124125,-7.80032e-05,4.79104e-05,0.0248251,-0.0156006,0.00958208,0,0,0,0,0.0884922,0.413836,-0.960386,34.8125,3,61068,6164294
510,-0.43218,-0.0446973,9.88709,-0.195887,-1.6557,0.842919,-0.00432517,-0.000448012,0.0988708,1,2.41337e-06,-1.73493e-05,6.50044e-05,0.000482674,-0.00346986,0.0130009,0,0,0,0,0.0838795,0.404093,-0.959066,34.8125,3,61071,6164594
511,-0.92142,0.339244,9.91257,0.234288,-0.822212,1.09588,-0.0092158,0.00338218,0.0991259,1,4.60272e-05,-5.91982e-06,6.19727e-05,0.00920543,-0.00118396,0.0123945,0,0,0,0,0.0860041,0.412952,-0.964435,34.8125,3,61075,6164994
512,-0.497774,0.278486,9.79262,-0.286,-1.2885,0.896584,-0.00497784,0.00279077,0.0979261,1,-3.2764e-05,9.41498e-07,5.15554e-05,-0.00655281,0.0001883,0.0103111,0,0,0,0,0.0856882,0.401887,-0.945487,34.8125,3,61078,6165294
513,-0.822389,-0.188959,9.84051,-0.0766807,-1.15149,1.01,-0.0082321,-0.00188815,0.0984044,1,-1.45659e-05,-4.33615e-05,8.69851e-05,-0.00291318,-0.0086723,0.017397,0,0,0,0,0.0862133,0.411354,-0.956895,34.8125,3,61081,6165594
514,-0.293024,-0.416082,10.3178,0.134155,-1.99019,1.25261,-0.00293147,-0.00416097,0.103178,1,-1.77092e-06,-9.53522e-06,8.87452e-05,-0.000354184,-0.00190704,0.017749,0,0,0,0,0.0853518,0.404194,-0.937858,34.8125,3,61085,6165994
515,-0.327317,-0.873751,10.0072,0.272398,-2.06315,1.10419,-0.00327393,-0.00872664,0.100073,1,-5.66675e-05,-1.00496e-05,7.15938e-05,-0.0113335,-0.00200991,0.0143188,0,0,0,0,0.0848886,0.409351,-0.953398,34.8125,3,61088,6166294
516,-1.06652,-0.041724,9.78302,-0.324748,-1.1113,0.898407,-0.0106703,-0.000423749,0.0978296,1,2.30519e-05,-2.67179e-05,9.36788e-05,0.00461037,-0.00534359,0.0187358,0,0,0,0,0.0845542,0.404564,-0.930775,34.8125,3,61091,6166594
517,-1.03141,-0.226816,9.465,-0.574353,-1.44583,0.556067,-0.0103213,-0.00228976,0.0946487,1,0.000108548,-3.90384e-05,5.10355e-05,0.0217095,-0.00780769,0.0102071,0,0,0,0,0.0820086,0.404204,-0.936832,34.8125,3,61095,6166994
518,-0.686876,0.266713,9.50177,-0.113394,-1.02688,0.528781,-0.00687441,0.00264459,0.0950179,1,0.000116238,-2.88042e-05,3.30422e-05,0.0232476,-0.00576084,0.00660845,0,0,0,0,0.0867357,0.411454,-0.935178,34.8125,3,61098,6167294
519,-0.838004,0.436162,9.86214,-0.543007,-0.949935,0.7399,-0.00837165,0.00435984,0.0986222,1,3.45722e-06,4.53906e-05,6.51803e-05,0.000691444,0.00907812,0.0130361,0,0,0,0,0.0811868,0.406037,-0.929717,34.8125,3,61101,6167594
520,-1.61937,-0.372981,9.16655,-1.00969,-1.26725,0.329786,-0.0162007,-0.00372482,0.0916644,1,-3.6691e-05,-4.01079e-05,5.35485e-05,-0.00733821,-0.00802159,0.0107097,0,0,0,0,0.0866707,0.413911,-0.936133,34.8125,3,61105,6167994
521,-0.659163,0.21088,9.63277,-0.133079,-1.00073,0.733196,-0.0066064,0.00210925,0.0963267,1,-7.03915e-06,-7.51423e-05,6.81585e-05,-0.00140783,-0.0150285,0.0136317,0,0,0,0,0.0820821,0.402357,-0.915156,34.8125,3,61108,6168294
522,-0.279346,-0.0305354,10.2994,0.314631,-1.29783,1.14706,-0.00280991,-0.000303479,0.102994,1,-9.45692e-06,-7.98929e-05,1.30314e-05,-0.00189138,-0.0159786,0.00260628,0,0,0,0,0.0854413,0.414248,-0.927029,34.8125,3,61111,6168594
523,-0.837872,-0.033973,9.82445,-0.205231,-1.30718,0.893019,-0.00836371,-0.000365696,0.0982457,1,0.000127059,7.61997e-05,5.97294e-05,0.0254119,0.0152399,0.0119459,0,0,0,0,0.0864748,0.405167,-0.910568,34.8125,3,61115,6168994
524,-1.11052,-0.758249,9.69563,-0.604899,-1.90033,0.629852,-0.0110998,-0.00758509,0.0969567,1,1.15074e-05,2.69048e-05,1.63789e-05,0.00230148,0.00538096,0.00327578,0,0,0,0,0.0860487,0.410297,-0.924594,34.8125,3,61118,6169294
522,-0.59494,-0.0656785,9.80729,-0.121879,-1.35941,0.939471,-0.00594394,-0.000675591,0.0980731,1,9.32396e-05,2.7589e-05,4.34552e-05,0.0186479,0.0055178,0.00869105,0,0,0,0,0.0866186,0.40458,-0.905026,34.8125,3,61121,6169594
526,-0.595716,0.602428,9.8015,-0.0737192,-0.78916,0.931866,-0.0059555,0.00601288,0.0980158,1,5.62756e-05,1.03643e-05,3.05157e-05,0.0112551,0.00207287,0.00610314,0,0,0,0,0.0846187,0.400314,-0.911173,34.8125,3,61125,6169994
527,-0.463344,0.123108,10.3302,0.128508,-1.14824,1.38406,-0.00463643,0.00121277,0.103302,1,8.79914e-05,-1.43318e-05,1.39547e-05,0.0175983,-0.00286637,0.00279093,0,0,0,0,0.0869645,0.40612,-0.909539,34.8125,3,61128,6170294
528,-0.563857,0.347573,9.88389,0.0337633,-1.01949,0.927233,-0.0056426,0.00344786,0.0988397,1,0.000137955,-1.85593e-05,5.23416e-05,0.027591,-0.00371187,0.0104683,0,0,0,0,0.0837789,0.397341,-0.908204,34.8125,3,61131,6170594
529,-0.458659,0.114552,9.72565,0.00771745,-1.1796,0.728066,-0.00459339,0.00114415,0.0972562,1,4.03894e-06,-3.41855e-05,6.40179e-05,0.000807788,-0.00683711,0.0128036,0,0,0,0,0.0839691,0.400923,-0.917722,34.8125,3,61135,6170994
530,-0.777313,-0.53866,9.8725,-0.147057,-1.64839,0.878732,-0.00777974,-0.00540205,0.0987236,1,7.65633e-05,-3.46391e-05,2.10815e-05,0.0153127,-0.00692783,0.0042163,0,0,0,0,0.0813378,0.388848,-0.895755,34.8125,3,61138,6171294
531,-0.896372,-0.398004,9.55501,-0.437998,-1.91026,0.567985,-0.00895497,-0.00398107,0.0955509,1,2.62022e-06,4.45796e-05,2.9264e-05,0.000524044,0.00891592,0.0058528,0,0,0,0,0.0826198,0.398939,-0.915235,34.8125,3,61141,6171594
532,-1.50346,0.058515,9.10635,-0.977196,-0.692989,0.143869,-0.0150326,0.000552143,0.091064,1,0.000175529,1.10343e-05,3.45255e-05,0.0351058,0.00220686,0.00690509,0,0,0,0,0.0808524,0.388373,-0.896269,34.8125,3,61145,6171994
533,-0.7598,0.0728891,9.54959,-0.272162,-1.34533,0.535411,-0.00761822,0.000710865,0.0954944,1,8.97382e-05,-0.000105422,5.82709e-05,0.0179476,-0.0210844,0.0116542,0,0,0,0,0.0776156,0.386726,-0.911947,34.8125,3,61148,6172294
534,-0.484452,-0.284486,10.1421,-0.0724398,-1.29381,1.02981,-0.00487652,-0.00285111,0.101419,1,2.7419e-05,-0.00015975,7.09321e-05,0.00548379,-0.0319499,0.0141864,0,0,0,0,0.0806503,0.386593,-0.905904,34.8125,3,61152,6172694
535,-0.838144,0.196598,10.0541,-0.152088,-1.12505,1.26788,-0.00837029,0.00196573,0.100542,1,-5.34018e-06,5.7043e-05,7.91073e-05,-0.00106804,0.0114086,0.0158214,0,0,0,0,0.070379,0.375851,-0.900539,34.8125,3,61155,6172994
536,-0.438329,-0.082996,10.0128,-0.159032,-1.3634,0.941494,-0.00439082,-0.000826337,0.100128,1,-2.25271e-05,-3.84534e-05,0.000101165,-0.00450541,-0.00769067,0.020233,0,0,0,0,0.0744855,0.38417,-0.903909,34.8125,3,61158,6173294
537,-0.861215,-0.24678,9.57158,-0.210151,-1.27397,0.584486,-0.00861842,-0.0024936,0.0957146,1,0.000126493,-3.51585e-05,9.16815e-05,0.0252986,-0.0070317,0.0183363,0,0,0,0,0.0685353,0.37099,-0.900639,34.8125,3,61161,6173594
538,-0.54238,-0.134591,9.97712,-0.136473,-1.63403,0.892133,-0.00541415,-0.00134473,0.0997718,1,-1.03389e-05,4.72958e-05,8.12569e-05,-0.00206777,0.00945916,0.0162514,0,0,0,0,0.068204,0.377014,-0.9101,34.8125,3,61165,6173994
539,-0.984656,-1.04162,9.78397,-0.248893,-1.98058,0.999708,-0.0098378,-0.0104355,0.0978385,1,9.14566e-05,3.71422e-05,7.17292e-05,0.0182913,0.00742843,0.0143458,0,0,0,0,0.0658977,0.365531,-0.894182,34.8125,3,61168,6174294
540,-0.964873,-0.112507,9.69974,-0.348447,-1.53805,0.769569,-0.00966193,-0.00115135,0.0969958,1,0.000125592,-6.9223e-05,9.93586e-05,0.0251183,-0.0138446,0.0198717,0,0,0,0,0.0635186,0.371662,-0.908682,34.8125,3,61171,6174594
541,-1.06468,0.0635699,9.72566,-0.392765,-0.826843,0.872234,-0.0106576,0.000636684,0.0972554,1,-1.76768e-05,-5.45645e-05,0.000115145,-0.00353536,-0.0109129,0.0230291,0,0,0,0,0.0587298,0.36411,-0.893171,34.8125,3,61175,6174994
542,-0.632948,0.164599,9.72524,0.0955394,-1.31586,0.747204,-0.00635244,0.00161961,0.0972513,1,0.000130189,-0.000116639,8.39867e-05,0.0260378,-0.0233279,0.0167973,0,0,0,0,0.0564433,0.363908,-0.908316,34.8125,3,61178,6175294
543,-0.508011,-0.86627,10.058,-0.20646,-1.88755,1.05249,-0.00506295,-0.00866145,0.100581,1,-9.19853e-06,8.02347e-05,5.92137e-05,-0.00183971,0.0160469,0.0118427,0,0,0,0,0.0575133,0.366231,-0.902209,34.8125,3,61182,6175694
544,-0.969022,0.0339651,9.63158,-0.152716,-1.07524,0.695175,-0.00968997,0.000331737,0.0963159,1,3.55517e-05,1.49418e-06,5.49823e-05,0.00711034,0.000298836,0.0109965,0,0,0,0,0.0495702,0.357935,-0.898316,34.8125,3,61185,6175994
545,-0.393061,-0.348926,9.89379,-0.165096,-1.95868,0.833586,-0.00390547,-0.00346873,0.0989396,1,-0.000105839,0.000125223,5.29556e-05,-0.0211679,0.0250447,0.0105911,0,0,0,0,0.0522456,0.366257,-0.901174,34.8125,3,61188,6176294
546,-0.765199,-0.505281,9.86709,0.0823547,-1.38246,0.909099,-0.007673,-0.00506042,0.0986689,1,3.71749e-05,-0.000107391,1.78014e-05,0.00743499,-0.0214782,0.00356028,0,0,0,0,0.0462555,0.35696,-0.896807,34.8125,3,61191,6176594
547,-0.73916,-0.126094,9.69757,-0.621667,-1.56836,0.530183,-0.00739443,-0.00125895,0.0969755,1,-1.41384e-05,-1.52296e-05,5.08795e-05,-0.00282768,-0.00304593,0.0101759,0,0,0,0,0.0468053,0.366409,-0.907206,34.8125,3,61195,6176994
548,-0.790082,-0.204779,9.82841,-0.127029,-1.02883,0.839511,-0.00790277,-0.00206887,0.0982835,1,0.000102459,-1.11804e-05,5.95943e-05,0.0204917,-0.00223608,0.0119189,0,0,0,0,0.039693,0.358335,-0.888666,34.8125,3,61198,6177294
549,-0.95559,0.0977283,9.33533,-0.606038,-1.41569,0.343106,-0.00954546,0.000950081,0.0933547,1,0.000138721,5.6601e-05,6.81389e-05,0.0277442,0.0113202,0.0136278,0,0,0,0,0.0405551,0.36694,-0.90666,34.8125,3,61201,6177594
550,-0.242261,0.219643,10.8319,0.644203,-0.733469,1.97545,-0.00239954,0.00218651,0.108319,1,4.42855e-05,0.000107857,6.74684e-05,0.00885709,0.0215714,0.0134937,0,0,0,0,0.0419363,0.36518,-0.890544,34.8125,3,61205,6177994
551,-0.811087,0.303645,10.2465,-0.0948691,-1.09843,1.27972,-0.00810466,0.00302935,0.102465,1,3.36025e-05,3.0709e-05,1.36544e-05,0.00672049,0.00614181,0.00273088,0,0,0,0,0.036364,0.364465,-0.902656,34.8125,3,61208,6178294
552,-0.678206,0.0811249,9.79482,-0.294564,-1.11417,0.907349,-0.00676231,0.000834404,0.0979494,1,-0.000122099,0.000101308,5.64218e-05,-0.0244198,0.0202616,0.0112844,0,0,0,0,0.0390946,0.364689,-0.889027,34.8125,3,61211,6178594
