frame_id,accel_x,accel_y,accel_z,free_accel_x,free_accel_y,free_accel_z,delta_v_x,delta_v_y,delta_v_z,delta_q_w,delta_q_x,delta_q_y,delta_q_z,rate_x,rate_y,rate_z,quat_w,quat_x,quat_y,quat_z,mag_x,mag_y,mag_z,temperature,status_byte,packet_counter,time_fine
15,-0.90045,-0.0217202,9.75208,-0.135727,-0.454285,0.990525,-0.0090075,-0.000226397,0.0975205,1,4.6529e-05,-1.5428e-05,6.64594e-06,0.0093058,-0.0030856,0.00132919,0,0,0,0,0.0808169,0.486456,-1.00773,34.8125,1,64665,6525467
16,-0.846282,-0.0690482,9.76657,-0.078409,-0.504286,1.00693,-0.00846518,-0.000695932,0.0976655,1,2.5574e-05,-1.22767e-05,2.68632e-05,0.0051148,-0.00245535,0.00537264,0,0,0,0,0.0822829,0.493174,-1.00203,34.8125,1,64668,6525767
17,-0.826015,-0.0442122,9.77005,-0.0623668,-0.479501,1.00508,-0.00826324,-0.000449761,0.0977002,1,3.76775e-05,-1.58829e-05,1.6708e-05,0.0075355,-0.00317657,0.0033416,0,0,0,0,0.0779591,0.486941,-1.00619,34.8125,1,64671,6526067
18,-0.853862,-0.0451813,9.77023,-0.0848975,-0.486725,0.998719,-0.00854188,-0.000458972,0.097702,1,3.56603e-05,-1.67527e-05,1.11517e-05,0.00713206,-0.00335054,0.00223033,0,0,0,0,0.0817354,0.491299,-1.00611,34.8125,1,64675,6526467
19,-0.832312,-0.0193538,9.75743,-0.0701661,-0.45276,0.986194,-0.00832758,-0.000205295,0.0975738,1,5.73175e-05,-2.29383e-05,3.43526e-05,0.0114635,-0.00458767,0.00687052,0,0,0,0,0.079987,0.488777,-1.0006,34.8125,1,64678,6526767
20,-0.718819,-0.011526,9.78693,0.0420515,-0.472071,1.01061,-0.00719469,-0.000124389,0.0978688,1,4.40629e-05,-3.32592e-05,3.50083e-05,0.00881259,-0.00665184,0.00700166,0,0,0,0,0.083146,0.491793,-1.00711,34.8125,1,64681,6527067
21,-0.798319,-0.0966975,9.71618,-0.0852462,-0.508239,0.93523,-0.007986,-0.000977671,0.0971614,1,5.35157e-05,-1.46574e-05,1.8572e-05,0.0107031,-0.00293149,0.0037144,0,0,0,0,0.0809165,0.489275,-1.0016,34.8125,1,64685,6527467
22,-0.667589,0.00359804,9.80265,0.102148,-0.478684,1.02209,-0.00668238,2.96693e-05,0.098026,1,2.93195e-05,-3.30925e-05,4.21434e-05,0.00586391,-0.0066185,0.00842869,0,0,0,0,0.0792558,0.491373,-1.00913,34.8125,1,64688,6527767
23,-0.750886,-0.0728053,9.78389,0.0233289,-0.531332,1.01489,-0.00751231,-0.000735856,0.0978385,1,3.76774e-05,-1.78911e-05,2.86271e-05,0.00753548,-0.00357823,0.00572543,0,0,0,0,0.0809288,0.489266,-1.0011,34.8125,1,64691,6528067
24,-0.705938,-0.0180122,9.81457,0.0500165,-0.464152,1.04414,-0.00706201,-0.000186605,0.0981455,1,3.12811e-05,-1.34094e-05,2.42946e-05,0.00625622,-0.00268188,0.00485891,0,0,0,0,0.0779425,0.486471,-1.00721,34.8125,1,64695,6528467
25,-0.732155,-0.0657839,9.83131,0.0290359,-0.534097,1.04886,-0.00732654,-0.000666002,0.0983127,1,4.03244e-05,-2.55125e-05,1.60227e-05,0.00806488,-0.0051025,0.00320454,0,0,0,0,0.0794162,0.491256,-1.00256,34.8125,1,64698,6528767
26,-0.800939,-0.045816,9.82788,-0.0495349,-0.517128,1.05835,-0.00801689,-0.000467227,0.0982782,1,4.46717e-05,-3.82513e-05,1.78276e-05,0.00893434,-0.00765026,0.00356553,0,0,0,0,0.0788971,0.488396,-1.00616,34.8125,1,64701,6529067
27,-0.806096,-0.00367096,9.80113,-0.0362827,-0.483556,1.02695,-0.00806417,-4.11396e-05,0.098011,1,1.99376e-05,-1.6404e-05,3.236e-05,0.00398752,-0.0032808,0.006472,0,0,0,0,0.082673,0.491309,-1.00712,34.8125,1,64705,6529467
28,-0.863159,-0.0675127,9.79251,-0.106522,-0.527939,1.02462,-0.00863897,-0.000679462,0.0979244,1,2.08021e-05,-3.77447e-05,1.50649e-05,0.00416042,-0.00754894,0.00301297,0,0,0,0,0.0779932,0.490771,-1.00206,34.8125,1,64708,6529767
29,-0.843512,-0.0664381,9.76731,-0.0860858,-0.496679,0.999972,-0.00844269,-0.000671886,0.0976724,1,3.67144e-05,-3.8882e-05,1.96775e-05,0.00734287,-0.00777639,0.00393549,0,0,0,0,0.0807485,0.491325,-1.00711,34.8125,1,64711,6530067
30,-0.720076,-0.0440614,9.78868,0.0331992,-0.522361,1.00581,-0.00720441,-0.000446034,0.0978865,1,2.6053e-05,-1.87656e-05,2.21696e-05,0.0052106,-0.00375312,0.00443392,0,0,0,0,0.0813857,0.490725,-1.00107,34.8125,1,64715,6530467
31,-0.764898,-0.0541988,9.78686,-0.0159872,-0.531891,1.00941,-0.00765387,-0.000548083,0.0978682,1,2.89825e-05,-2.51367e-05,2.76138e-05,0.0057965,-0.00502734,0.00552277,0,0,0,0,0.0816937,0.489402,-1.00918,34.8125,1,64718,6530767
32,-0.784269,-0.0458173,9.7796,-0.0303153,-0.525073,1.00498,-0.00784945,-0.000468691,0.0977954,1,5.28302e-05,-3.46154e-05,1.17721e-05,0.010566,-0.00692308,0.00235441,0,0,0,0,0.0813003,0.493679,-1.00252,34.8125,1,64722,6531167
33,-0.808758,-0.0498483,9.77465,-0.072552,-0.527736,1.00162,-0.00809329,-0.000507918,0.097746,1,4.61676e-05,-2.9374e-05,2.53411e-05,0.00923351,-0.0058748,0.00506822,0,0,0,0,0.078017,0.487862,-1.00314,34.8125,1,64725,6531467
34,-0.787534,-0.0499235,9.77211,-0.0386211,-0.538236,0.991401,-0.00787797,-0.000508915,0.0977209,1,4.73875e-05,-1.3603e-05,2.65949e-05,0.00947751,-0.0027206,0.00531897,0,0,0,0,0.0794043,0.49271,-1.00203,34.8125,1,64728,6531767
35,-1.05147,-0.0895919,9.71081,-0.267554,-0.556875,0.965394,-0.0105168,-0.000906834,0.0971078,1,5.23814e-05,-1.12728e-05,3.52951e-05,0.0104763,-0.00225456,0.00705902,0,0,0,0,0.0779719,0.488377,-1.00464,34.8125,1,64731,6532067
36,-0.227722,-0.00171616,9.83392,0.464568,-0.472451,1.02353,-0.00229492,-2.48903e-05,0.0983388,1,3.87927e-05,-9.00108e-05,2.16615e-05,0.00775854,-0.0180022,0.00433231,0,0,0,0,0.0802797,0.49132,-1.00661,34.8125,1,64735,6532467
37,-1.15043,0.0253118,9.49649,-0.508542,-0.451502,0.729867,-0.0115153,0.000239964,0.0949636,1,6.63036e-05,-5.83459e-05,2.43881e-05,0.0132607,-0.0116692,0.00487762,0,0,0,0,0.0771046,0.48928,-1.00007,34.8125,1,64738,6532767
38,-0.0676095,-0.103002,9.85263,0.790004,-0.529865,1.04289,-0.000694177,-0.00104127,0.0985261,1,5.69843e-05,-9.19291e-05,1.58405e-05,0.0113969,-0.0183858,0.00316809,0,0,0,0,0.0755298,0.48987,-1.0051,34.8125,1,64742,6533167
39,0.233602,-0.073502,9.879,0.967327,-0.637421,1.059,0.00232494,-0.00073564,0.0987903,1,4.08485e-06,-5.63894e-05,4.01054e-05,0.000816971,-0.0112779,0.00802109,0,0,0,0,0.0752261,0.491671,-0.996474,34.8125,1,64745,6533467
40,0.521142,0.0778905,9.92412,1.23803,-0.417752,1.03066,0.00519903,0.000767144,0.0992419,1,5.87681e-05,-6.25125e-05,-9.27961e-06,0.0117536,-0.0125025,-0.00185592,0,0,0,0,0.0760564,0.490796,-1.00256,34.8125,1,64748,6533767
41,-1.27736,-0.121751,9.35278,-0.468376,-0.8563,0.648229,-0.0127719,-0.0012289,0.0935279,1,4.11982e-05,7.26448e-06,0.000144169,0.00823965,0.0014529,0.0288338,0,0,0,0,0.078471,0.493179,-1.0005,34.8125,1,64752,6534167
42,0.296701,-0.0373101,9.62688,0.877147,-0.654797,0.705051,0.00294584,-0.000369732,0.0962694,1,-1.59828e-05,-0.000110134,4.9269e-05,-0.00319655,-0.0220268,0.0098538,0,0,0,0,0.0756489,0.489301,-1.00057,34.8125,1,64755,6534467
43,0.51867,0.396085,9.93742,1.21464,-0.136094,0.993375,0.00516738,0.003944,0.0993759,1,8.80079e-05,-9.4765e-05,6.17423e-05,0.0176016,-0.018953,0.0123485,0,0,0,0,0.075608,0.490294,-1.00156,34.8125,1,64758,6534767
44,0.236851,-0.154947,9.93087,1.07122,-0.613772,1.0765,0.00237087,-0.00155239,0.0993086,1,1.68832e-05,1.04613e-05,9.12823e-05,0.00337664,0.00209226,0.0182565,0,0,0,0,0.0738444,0.491638,-0.993943,34.8125,1,64762,6535167
45,0.164832,-0.00862936,9.94957,0.897982,-0.585273,1.09726,0.00165153,-9.23576e-05,0.0994956,1,3.21382e-05,1.60439e-05,0.000100351,0.00642763,0.00320878,0.0200703,0,0,0,0,0.0756256,0.493655,-0.998452,34.8125,1,64765,6535467
46,-0.149138,-0.0731606,9.9105,0.731639,-0.408803,1.11333,-0.00149697,-0.000740529,0.0991049,1,4.36512e-05,-2.89128e-05,9.08053e-05,0.00873024,-0.00578255,0.0181611,0,0,0,0,0.0766163,0.492662,-0.997974,34.8125,1,64768,6535767
47,0.252529,-0.142371,10.0174,1.14901,-0.574571,1.17974,0.0025244,-0.00142685,0.100174,1,1.90381e-05,-6.32137e-06,0.000133468,0.00380762,-0.00126428,0.0266936,0,0,0,0,0.0755592,0.491776,-1.00253,34.8125,1,64772,6536167
48,-0.172198,0.222912,9.74318,0.321124,-0.298829,0.933224,-0.00172013,0.00222156,0.097432,1,3.72208e-05,1.14584e-05,8.63877e-05,0.00744415,0.00229169,0.0172775,0,0,0,0,0.0751938,0.493622,-0.996431,34.8125,1,64775,6536467
49,-0.148464,-0.197463,9.68856,0.67474,-0.838875,0.864944,-0.00148185,-0.00198433,0.0968854,1,4.82741e-05,1.20404e-05,0.000116275,0.00965483,0.00240807,0.023255,0,0,0,0,0.0756417,0.492679,-0.998474,34.8125,1,64778,6536767
50,-0.250026,0.239588,9.73097,0.519932,-0.199164,0.915126,-0.00250616,0.00238613,0.0973098,1,4.73386e-05,-2.76269e-05,0.000108996,0.00946772,-0.00552538,0.0217992,0,0,0,0,0.079418,0.497037,-0.998394,34.8125,1,64782,6537167
51,-0.167776,-0.203712,9.68864,0.463205,-0.732214,0.959362,-0.00167869,-0.00203873,0.0968864,1,6.40519e-06,-7.13646e-06,0.000109712,0.00128104,-0.00142729,0.0219424,0,0,0,0,0.0752019,0.493135,-0.996442,34.8125,1,64785,6537467
52,0.302954,0.137581,9.99575,0.968444,-0.469098,1.21046,0.00302402,0.00138102,0.0999576,1,-2.38185e-05,-2.65926e-05,7.43059e-05,-0.00476369,-0.00531852,0.0148612,0,0,0,0,0.0760392,0.50141,-0.995756,34.8125,1,64788,6537767
53,0.146134,0.0264173,9.90225,0.596778,-0.557529,1.13416,0.0014635,0.000269791,0.0990224,1,-2.68099e-05,1.11725e-05,0.000105575,-0.00536199,0.00223451,0.021115,0,0,0,0,0.0790973,0.496924,-0.99183,34.8125,1,64792,6538167
54,0.0758642,-0.0871044,9.93429,0.912026,-0.572408,1.0479,0.000741791,-0.000876506,0.099343,1,2.80823e-05,-8.55002e-05,7.86665e-05,0.00561646,-0.0171,0.0157333,0,0,0,0,0.0760107,0.502394,-0.996239,34.8125,1,64795,6538467
55,0.0125134,-0.168493,9.61038,0.565609,-0.737826,0.793647,0.00011993,-0.00169931,0.0961036,1,7.48524e-05,-2.81962e-05,6.34754e-05,0.0149705,-0.00563925,0.0126951,0,0,0,0,0.0767709,0.500259,-0.986189,34.8125,1,64798,6538767
56,-0.320983,-0.311168,9.62459,0.324405,-0.833661,0.915039,-0.00319772,-0.00312168,0.096246,1,5.09211e-05,6.19472e-05,3.05593e-05,0.0101842,0.0123894,0.00611185,0,0,0,0,0.0756691,0.501333,-0.991211,34.8125,1,64802,6539167
57,0.312685,0.208197,9.98541,0.756396,-0.353918,1.06496,0.00310906,0.00208594,0.0998546,1,-1.9824e-05,-8.90866e-05,7.66493e-07,-0.00396479,-0.0178173,0.000153299,0,0,0,0,0.0781586,0.506552,-0.984035,34.8125,1,64805,6539467
58,-0.0808989,-0.215125,9.95187,0.200578,-0.756608,1.04806,-0.000819604,-0.00216124,0.0995184,1,5.025e-05,-5.31974e-05,-6.17323e-06,0.01005,-0.0106395,-0.00123465,0,0,0,0,0.0756577,0.504232,-0.989631,34.8125,1,64808,6539767
59,0.312624,0.540444,10.2548,0.916733,-0.0351532,1.36494,0.00311555,0.00539615,0.102549,1,3.85006e-05,-5.53479e-05,-6.16581e-05,0.00770012,-0.0110696,-0.0123316,0,0,0,0,0.0762104,0.509476,-0.982951,34.8125,1,64812,6540167
60,-0.736645,-0.321138,9.10808,-0.44833,-0.931124,0.396403,-0.00737594,-0.00322253,0.0910797,1,7.06472e-05,-4.79794e-05,-0.000116546,0.0141294,-0.00959588,-0.0233092,0,0,0,0,0.0733275,0.508534,-0.983464,34.8125,1,64815,6540467
61,-0.422987,0.439601,9.10981,-0.364543,-0.0705084,0.293664,-0.00423949,0.00437983,0.0910984,1,9.47157e-05,-5.89285e-05,-0.000127638,0.0189431,-0.0117857,-0.0255275,0,0,0,0,0.0752581,0.514778,-0.978789,34.8125,1,64818,6540767
62,0.725897,-0.181238,9.87823,0.991861,-0.693939,0.973909,0.00724846,-0.0018155,0.098783,1,4.20829e-06,-5.02819e-05,-0.000157867,0.000841658,-0.0100564,-0.0315733,0,0,0,0,0.0710642,0.51616,-0.972173,34.8125,1,64822,6541167
63,0.13307,-0.121328,9.82372,0.604365,-0.769626,1.00617,0.00134429,-0.00122717,0.0982369,1,6.77201e-05,7.18951e-05,-0.00022038,0.013544,0.014379,-0.044076,0,0,0,0,0.0732325,0.520168,-0.979165,34.8125,1,64825,6541467
64,-0.27389,-0.362798,9.398,0.339836,-0.749101,0.541864,-0.00272993,-0.00364586,0.0939795,1,0.00010253,5.75434e-05,-0.000254832,0.020506,0.0115087,-0.0509665,0,0,0,0,0.0720078,0.52243,-0.968502,34.8125,1,64828,6541767
65,0.138909,0.0369801,10.5793,0.57301,-0.562746,1.64441,0.00137801,0.000327648,0.105794,1,0.000195635,-5.32875e-05,-0.000274566,0.0391269,-0.0106575,-0.0549132,0,0,0,0,0.0685205,0.521581,-0.974061,34.8125,1,64832,6542167
66,-0.069571,0.134361,9.71633,0.420531,-0.474984,0.966252,-0.000718936,0.00132235,0.0971634,1,0.000111758,-0.000123926,-0.000321231,0.0223517,-0.0247852,-0.0642463,0,0,0,0,0.0680953,0.529255,-0.966312,34.8125,1,64835,6542467
67,-0.646102,-0.542662,9.58182,0.0273867,-1.29683,0.893431,-0.00645698,-0.00544161,0.0958176,1,0.000101977,4.10526e-05,-0.000352235,0.0203953,0.00821052,-0.070447,0,0,0,0,0.0614664,0.528751,-0.962252,34.8125,1,64839,6542867
68,-0.00331001,-0.653683,10.0314,0.278911,-1.00862,1.35923,-1.03116e-05,-0.00653431,0.100314,1,-1.24997e-05,0.00013533,-0.000333753,-0.00249995,0.0270661,-0.0667505,0,0,0,0,0.0612699,0.531785,-0.968245,34.8125,1,64842,6543167
69,0.0638053,0.530263,9.56453,-0.360534,-0.195242,0.383683,0.000626658,0.00529602,0.0956458,1,3.21527e-05,-7.9425e-05,-0.000358345,0.00643054,-0.015885,-0.0716691,0,0,0,0,0.0609245,0.53169,-0.96269,34.8125,1,64845,6543467
70,-0.813582,-0.355809,8.9986,-0.335045,-0.739876,-0.134996,-0.00816091,-0.00358434,0.0899827,1,0.00018085,-0.000124026,-0.000386712,0.0361699,-0.0248052,-0.0773424,0,0,0,0,0.0588733,0.534208,-0.96616,34.8125,1,64848,6543767
71,-0.28061,0.204598,10.1247,0.0849353,-0.487003,1.45485,-0.002815,0.00200699,0.101248,1,0.000202796,-5.13104e-05,-0.00036829,0.0405592,-0.0102621,-0.073658,0,0,0,0,0.0561921,0.5336,-0.95808,34.8125,3,64852,6544167
72,-0.772537,0.0315548,9.6771,-0.335435,-0.609033,1.01469,-0.00772629,0.00030114,0.096771,1,0.00010519,-5.97055e-06,-0.000385148,0.021038,-0.00119411,-0.0770296,0,0,0,0,0.0536019,0.535201,-0.964598,34.8125,3,64855,6544467
73,-0.691946,-0.469273,10.2116,0.3482,-0.697201,1.44175,-0.00693229,-0.00468081,0.102116,1,-3.50551e-05,-4.69942e-05,-0.000344117,-0.00701103,-0.00939885,-0.0688233,0,0,0,0,0.0503166,0.536132,-0.960522,34.8125,3,64859,6544867
74,-1.55191,-0.339242,9.35886,-0.69803,-0.760553,0.466157,-0.0155044,-0.00341055,0.0935904,1,0.000144446,8.88944e-05,-0.000287321,0.0288892,0.0177789,-0.0574642,0,0,0,0,0.0460341,0.530351,-0.962651,34.8125,3,64862,6545167
75,-1.76113,0.79138,9.32794,-0.989006,0.575492,0.479545,-0.0176157,0.00790442,0.0932794,1,0.00011856,-5.40255e-05,-0.000361741,0.0237119,-0.0108051,-0.0723482,0,0,0,0,0.0490042,0.534121,-0.95652,34.8125,3,64865,6545467
76,-1.33657,0.164628,9.97567,-0.824324,-0.359106,0.998432,-0.0133803,0.00164098,0.0997549,1,8.32752e-05,-8.03502e-05,-0.000423027,0.016655,-0.01607,-0.0846054,0,0,0,0,0.0437353,0.529811,-0.958612,34.8125,3,64868,6545767
77,-0.359607,-0.443701,10.4782,0.171018,-0.81003,1.51631,-0.00360207,-0.00442012,0.104783,1,-6.68938e-05,-1.17525e-05,-0.00039883,-0.0133788,-0.00235049,-0.0797659,0,0,0,0,0.0442296,0.532689,-0.956025,34.8125,3,64872,6546167
78,-1.14031,-0.550796,9.17717,-0.733123,-1.13806,0.165275,-0.011451,-0.00553103,0.0917643,1,0.000173189,-0.000238232,-0.000381113,0.0346377,-0.0476465,-0.0762226,0,0,0,0,0.040133,0.529663,-0.948497,34.8125,3,64875,6546467
79,0.690509,0.0532029,9.51848,0.678497,-0.623962,0.594676,0.0068596,0.000550367,0.095188,1,-0.000126614,-0.000241327,-0.000418914,-0.0253228,-0.0482653,-0.0837828,0,0,0,0,0.0400718,0.531153,-0.949979,34.8125,3,64878,6546767
80,-1.82951,-0.442288,9.24496,-1.10347,-0.921042,0.300422,-0.0183152,-0.00443109,0.0924452,1,0.000117386,-9.10593e-05,-0.000368807,0.0234771,-0.0182119,-0.0737615,0,0,0,0,0.0406241,0.534952,-0.944341,34.8125,3,64882,6547167
81,0.791948,-0.594353,10.6176,0.921115,-1.21906,1.71874,0.00790203,-0.00598056,0.106176,1,0.000147874,-6.22273e-05,-0.000355436,0.0295749,-0.0124455,-0.0710873,0,0,0,0,0.0362931,0.532098,-0.946405,34.8125,3,64885,6547467
82,-0.632812,-0.0106058,9.27336,-0.915306,-0.817612,0.282568,-0.00632955,-0.000121411,0.0927335,1,0.000108864,-7.27391e-06,-0.000382149,0.0217727,-0.00145478,-0.0764299,0,0,0,0,0.0398625,0.532404,-0.937829,34.8125,3,64888,6547767
83,-0.776985,-0.63222,9.3812,-0.479502,-1.35252,0.492313,-0.00777726,-0.00633609,0.0938104,1,0.00010482,-1.43882e-05,-0.000371762,0.0209641,-0.00287764,-0.0743525,0,0,0,0,0.0345537,0.531978,-0.938824,34.8125,3,64892,6548167
84,-0.0227033,-0.298538,9.67556,0.016137,-0.975724,0.663814,-0.000268172,-0.00299799,0.0967551,1,6.62595e-05,-0.000199323,-0.000429183,0.0132519,-0.0398645,-0.0858367,0,0,0,0,0.0370109,0.539149,-0.931605,34.8125,3,64895,6548467
85,0.118681,-0.473556,10.2249,0.484975,-1.18048,1.50631,0.00121738,-0.00473947,0.102248,1,1.46191e-05,0.000167229,-0.000382145,0.00292381,0.0334458,-0.0764289,0,0,0,0,0.0332554,0.535739,-0.930148,34.8125,3,64898,6548767
86,-0.809639,-0.399488,10.2384,-0.640097,-1.08978,1.15136,-0.00805684,-0.00403587,0.102386,1,0.000231133,0.000208493,-0.000391995,0.0462266,0.0416987,-0.078399,0,0,0,0,0.0365188,0.543497,-0.928981,34.8125,3,64902,6549167
87,-0.101352,-0.167774,10.8011,0.2893,-0.652058,2.04413,-0.00101303,-0.00169902,0.10801,1,0.000102362,8.66943e-06,-0.000409869,0.0204724,0.00173389,-0.0819737,0,0,0,0,0.0320474,0.53847,-0.918465,34.8125,3,64905,6549467
88,-0.887438,0.179051,9.4468,-0.467248,-0.518904,0.571032,-0.00887897,0.00180393,0.0944673,1,-3.1514e-05,-3.22884e-05,-0.000420245,-0.00630281,-0.00645768,-0.0840491,0,0,0,0,0.0314452,0.545791,-0.9183,34.8125,3,64909,6549867
89,0.06766,-0.130924,9.51707,0.415199,-0.927784,0.78612,0.000682286,-0.00131777,0.0951705,1,4.14274e-05,3.64308e-05,-0.0004753,0.00828549,0.00728615,-0.0950599,0,0,0,0,0.028362,0.548502,-0.904589,34.8125,3,64912,6550167
90,0.191994,-0.860069,10.2526,0.1915,-1.96498,1.59198,0.00190117,-0.00865737,0.102522,1,0.000267946,-5.34479e-05,-0.00045283,0.0535892,-0.0106896,-0.0905659,0,0,0,0,0.0283383,0.551411,-0.903514,34.8125,3,64915,6550467
91,0.396672,-0.314045,9.81053,0.684543,-1.2503,0.746006,0.00395337,-0.00319096,0.0981042,1,0.000239246,-5.35099e-05,-0.000450581,0.0478491,-0.010702,-0.0901162,0,0,0,0,0.028455,0.556144,-0.895328,34.8125,3,64919,6550867
92,-0.55948,0.260009,10.2203,-0.153693,-0.321146,1.44365,-0.0055541,0.00259633,0.102206,1,4.56881e-05,0.000186428,-0.000499985,0.00913762,0.0372855,-0.099997,0,0,0,0,0.0238938,0.553592,-0.886778,34.8125,3,64922,6551167
93,-1.36728,-1.26266,9.62991,-1.05675,-1.9346,0.759485,-0.0136565,-0.01262,0.0963022,1,2.8682e-05,0.000142622,-0.000443683,0.00573641,0.0285245,-0.0887365,0,0,0,0,0.0272184,0.55986,-0.884129,34.8125,3,64925,6551467
94,-0.838137,0.724252,9.40882,-0.49674,0.364191,0.628675,-0.00837525,0.00725583,0.0940877,1,-3.4551e-05,1.21993e-06,-0.000406365,-0.0069102,0.000243987,-0.0812729,0,0,0,0,0.0196999,0.554974,-0.880162,34.8125,3,64928,6551767
95,-0.707925,-0.150966,9.4562,-0.499232,-0.880103,0.518442,-0.00706597,-0.0015238,0.0945628,1,0.000110838,7.7979e-05,-0.000482274,0.0221677,0.0155958,-0.0964549,0,0,0,0,0.0202807,0.557789,-0.874041,34.8125,3,64932,6552167
96,0.0291264,0.251911,10.3761,0.336983,-0.535899,1.56641,0.000294615,0.00250289,0.103761,1,7.69035e-05,5.3401e-06,-0.000446693,0.0153807,0.00106802,-0.0893387,0,0,0,0,0.0196829,0.552712,-0.862535,34.8125,3,64935,6552467
97,-1.14815,-0.544846,9.21445,-1.15322,-1.02408,0.0893335,-0.0114893,-0.00544613,0.0921437,1,4.33605e-05,-1.60057e-05,-0.000449215,0.00867209,-0.00320114,-0.089843,0,0,0,0,0.0219091,0.557641,-0.866476,34.8125,3,64938,6552767
98,-0.346569,-0.254462,10.626,-0.308964,-0.675595,1.14191,-0.00347788,-0.00254986,0.10626,1,4.02809e-05,-4.58948e-05,-0.000478263,0.00805618,-0.00917897,-0.0956526,0,0,0,0,0.0213886,0.550098,-0.85351,34.8125,3,64942,6553167
99,0.503363,0.85913,11.3638,0.932461,-0.0879281,2.12143,0.00502177,0.00852553,0.113643,1,0.000272077,-8.15747e-05,-0.000390357,0.0544154,-0.0163149,-0.0780714,0,0,0,0,0.0209019,0.545288,-0.85715,34.8125,3,64945,6553467
100,-0.121958,-0.51275,10.5378,-0.0250543,-1.02514,1.33142,-0.00122998,-0.00513206,0.105378,1,2.67782e-05,-2.76849e-05,-0.000444611,0.00535565,-0.00553699,-0.0889222,0,0,0,0,0.0258981,0.545113,-0.849601,34.8125,3,64948,6553767
101,-0.0529893,-0.0285265,10.0323,0.264503,-0.728239,1.0677,-0.000520044,-0.000269914,0.100323,1,-7.40257e-05,5.03989e-05,-0.000474423,-0.0148051,0.0100798,-0.0948847,0,0,0,0,0.0275199,0.53726,-0.847763,34.8125,3,64952,6554167
102,-1.40725,-0.173591,9.39555,-1.19584,-0.621161,0.79979,-0.0140257,-0.00174591,0.0939623,1,0.000122824,0.000257863,-0.000465305,0.0245647,0.0515726,-0.0930611,0,0,0,0,0.0343343,0.539074,-0.843209,34.8125,3,64955,6554467
103,0.889838,-1.36186,11.5618,1.10028,-2.3642,2.53053,0.00887389,-0.0136833,0.115612,1,0.000245835,-5.32713e-05,-0.000446191,0.0491669,-0.0106543,-0.0892383,0,0,0,0,0.0374028,0.528798,-0.842946,34.8125,3,64958,6554767
104,0.128746,0.505952,11.378,0.657767,-0.597871,2.6458,0.00130967,0.00499456,0.113783,1,0.000280247,7.7277e-05,-0.000459351,0.0560494,0.0154554,-0.0918702,0,0,0,0,0.0420797,0.533193,-0.845395,34.8125,3,64962,6555167
105,-0.65246,-0.98767,9.619,-0.651841,-1.77221,0.636039,-0.00653955,-0.00990342,0.0961863,1,0.000172256,-2.71542e-05,-0.000491637,0.0344512,-0.00543083,-0.0983275,0,0,0,0,0.0486,0.528128,-0.837962,34.8125,3,64965,6555467
106,-0.780507,0.403793,9.66989,-0.520877,-0.606536,0.893698,-0.00779111,0.00400355,0.0967014,1,0.000220049,5.03753e-05,-0.000524649,0.0440098,0.0100751,-0.10493,0,0,0,0,0.0519783,0.52231,-0.841642,34.8125,3,64969,6555867
107,-0.512535,-0.267304,10.4144,-0.30048,-0.72764,1.68158,-0.00513412,-0.00269906,0.104143,1,0.000149182,-2.94188e-05,-0.000492046,0.0298365,-0.00588376,-0.0984092,0,0,0,0,0.0562774,0.528561,-0.838493,34.8125,3,64972,6556167
108,0.205849,-0.708903,10.795,0.583551,-1.98238,1.98161,0.00206025,-0.00715376,0.107946,1,0.000290948,3.8806e-05,-0.000465003,0.0581895,0.0077612,-0.0930007,0,0,0,0,0.0596277,0.525173,-0.841614,34.8125,3,64975,6556467
109,0.111047,1.47567,10.3488,0.0358081,0.662592,1.01078,0.00113872,0.0147457,0.103489,1,4.7533e-05,6.14798e-05,-0.000526118,0.00950659,0.012296,-0.105224,0,0,0,0,0.0663311,0.527068,-0.841603,34.8125,3,64979,6556867
110,-1.71001,-1.45635,9.10396,-1.59476,-2.31438,0.311999,-0.0171279,-0.0145665,0.091034,1,0.000122503,-6.26003e-05,-0.00056428,0.0245007,-0.0125201,-0.112856,0,0,0,0,0.0683396,0.519762,-0.84329,34.8125,3,64982,6557167
111,-1.38406,-0.455465,8.72349,-1.29192,-0.321636,-0.377637,-0.0138558,-0.00450231,0.0872352,1,-0.000219158,-6.03762e-05,-0.00050919,-0.0438315,-0.0120752,-0.101838,0,0,0,0,0.071529,0.527575,-0.845151,34.8125,3,64985,6557467
112,1.21309,-1.43311,11.1408,1.03029,-2.32523,1.98308,0.0120769,-0.014348,0.111412,1,1.87407e-05,-0.000174863,-0.000522765,0.00374813,-0.0349725,-0.104553,0,0,0,0,0.0706811,0.52509,-0.842172,34.8125,3,64989,6557867
113,-0.299024,0.476154,10.7837,0.172823,0.207069,1.91487,-0.00298344,0.00478169,0.107836,1,-7.93118e-05,9.02022e-06,-0.000508825,-0.0158624,0.00180404,-0.101765,0,0,0,0,0.0694845,0.525269,-0.851759,34.8125,3,64992,6558167
114,-0.785875,-0.0996024,9.95721,-0.68963,-0.813427,1.17247,-0.00781622,-0.00101245,0.0995753,1,0.000123234,0.000218791,-0.000517459,0.0246467,0.0437582,-0.103492,0,0,0,0,0.0700672,0.521336,-0.850334,34.8125,3,64995,6558467
115,-0.552317,-0.532187,10.1901,-0.0858036,-1.04291,1.39127,-0.00551046,-0.00531781,0.101902,1,7.4694e-06,8.87384e-05,-0.000505805,0.00149388,0.0177477,-0.101161,0,0,0,0,0.0712719,0.521016,-0.860447,34.8125,3,64998,6558767
116,-0.733871,-0.638702,9.17063,-0.501975,-1.11091,0.291795,-0.00737996,-0.00639805,0.0917022,1,9.72924e-05,-0.000192593,-0.000463162,0.0194585,-0.0385187,-0.0926323,0,0,0,0,0.0693265,0.520084,-0.861974,34.8125,3,65002,6559167
117,-0.811245,0.00293217,10.4646,-0.444388,-0.740148,1.722,-0.00806322,3.09495e-05,0.10465,1,3.21141e-05,0.000235061,-0.00051615,0.00642281,0.0470121,-0.10323,0,0,0,0,0.064505,0.513385,-0.867152,34.8125,3,65005,6559467
118,-0.151584,-1.46212,10.1489,-0.171217,-1.95458,0.919698,-0.00153776,-0.0146463,0.101485,1,0.000131105,-3.83638e-05,-0.000482923,0.026221,-0.00767277,-0.0965846,0,0,0,0,0.0649733,0.511945,-0.868701,34.8125,3,65008,6559767
119,-0.771224,0.035098,9.67484,-0.704388,-1.10604,0.764269,-0.00773265,0.00029589,0.0967469,1,0.000321648,-0.000107012,-0.000462752,0.0643296,-0.0214024,-0.0925504,0,0,0,0,0.0630699,0.500381,-0.87602,34.8125,3,65012,6560167
120,-1.8661,-0.921136,9.23695,-1.76551,-1.20852,0.40252,-0.0186501,-0.00919359,0.0923735,1,6.28666e-06,0.00010957,-0.000507479,0.00125733,0.021914,-0.101496,0,0,0,0,0.0613428,0.5006,-0.887624,34.8125,3,65015,6560467
121,0.209453,0.690648,10.2613,0.403929,0.0823275,1.28117,0.00209444,0.0068856,0.102615,1,9.13608e-05,-3.45381e-05,-0.00050797,0.0182722,-0.00690761,-0.101594,0,0,0,0,0.0563305,0.488874,-0.884326,34.8125,3,65018,6560767
122,0.201437,-1.01812,11.1443,0.259375,-1.39776,2.3239,0.00200474,-0.0101757,0.111444,1,-3.3994e-05,3.55147e-06,-0.000511975,-0.00679879,0.000710294,-0.102395,0,0,0,0,0.0556099,0.48568,-0.896515,34.8125,3,65022,6561167
123,-0.0242937,1.07197,10.7182,0.334634,0.817647,1.69261,-0.000250471,0.0107097,0.107183,1,4.77616e-05,-8.59149e-05,-0.000507896,0.00955232,-0.017183,-0.101579,0,0,0,0,0.0548389,0.479284,-0.893118,34.8125,3,65025,6561467
124,0.387375,-0.357709,11.4357,0.7603,-1.03935,2.68805,0.00391498,-0.0035575,0.114356,1,-0.000103194,0.000196305,-0.000513976,-0.0206388,0.039261,-0.102795,0,0,0,0,0.0508932,0.472641,-0.901833,34.8125,3,65029,6561867
125,-1.39095,0.16366,9.42054,-1.21947,0.164929,0.298444,-0.0139065,0.00163419,0.0942059,1,8.52518e-05,7.30816e-06,-0.000490836,0.0170504,0.00146163,-0.0981671,0,0,0,0,0.0483737,0.476599,-0.903754,34.8125,3,65032,6562167
126,-1.31839,0.374929,9.20353,-1.18995,-0.0942986,0.229442,-0.0131726,0.00376037,0.0920364,1,1.7329e-05,3.92878e-05,-0.000541549,0.00346579,0.00785756,-0.10831,0,0,0,0,0.0480056,0.469774,-0.903904,34.8125,3,65035,6562467
127,-0.0270404,0.232467,11.228,0.379368,-0.468183,2.24991,-0.000245215,0.00231812,0.11228,1,3.02878e-05,0.000102184,-0.000483111,0.00605756,0.0204367,-0.0966222,0,0,0,0,0.0415518,0.476718,-0.907255,34.8125,3,65039,6562867
128,0.405277,-0.415786,10.528,0.289809,-1.01937,1.09072,0.00400624,-0.00416033,0.105281,1,-9.17088e-06,-0.000199367,-0.000546598,-0.00183418,-0.0398735,-0.10932,0,0,0,0,0.0379724,0.470771,-0.9003,34.8125,3,65042,6563167
129,-0.517907,-0.117629,10.9484,-0.0638947,-0.797143,2.0739,-0.00513153,-0.00116826,0.109487,1,-1.45033e-05,0.000222166,-0.000470561,-0.00290065,0.0444332,-0.0941123,0,0,0,0,0.0386162,0.478223,-0.908219,34.8125,3,65045,6563467
130,-0.724578,0.156663,9.66638,-0.749076,-0.461408,0.633393,-0.00724833,0.00156569,0.0966636,1,3.17401e-05,-1.89844e-05,-0.000358489,0.00634802,-0.00379689,-0.0716977,0,0,0,0,0.0316163,0.474752,-0.901698,34.8125,3,65049,6563867
131,-0.930997,-0.238234,8.61341,-1.14444,-0.636944,-0.264813,-0.00933724,-0.00238382,0.0861311,1,3.91049e-05,-0.00015052,-0.000281944,0.00782098,-0.030104,-0.0563889,0,0,0,0,0.0290304,0.476831,-0.9077,34.8125,3,65052,6564167
132,-1.49718,0.307584,8.53476,-1.37122,-0.183735,-0.26115,-0.0149628,0.0030429,0.0853504,1,0.000231948,4.45734e-05,-0.000222272,0.0463897,0.00891469,-0.0444544,0,0,0,0,0.0244246,0.476239,-0.899611,34.8125,3,65055,6564467
133,-0.188296,-0.53286,10.0777,-0.337246,-0.912223,0.806454,-0.00188139,-0.00533195,0.100777,1,2.08543e-05,1.98224e-05,-0.000227842,0.00417086,0.00396449,-0.0455684,0,0,0,0,0.0171946,0.473418,-0.902166,34.8125,3,65059,6564867
134,-1.49131,1.15726,8.98578,-1.16812,0.681436,0.100007,-0.0149014,0.0115775,0.0898591,1,9.99886e-06,3.62528e-05,-0.000224491,0.00199977,0.00725056,-0.0448982,0,0,0,0,0.0156208,0.476898,-0.905111,34.8125,3,65062,6565167
135,-0.631676,-0.559939,9.68594,-0.451718,-1.40662,0.916872,-0.00632494,-0.00564822,0.096856,1,0.00026839,-2.76847e-05,-0.000250043,0.0536781,-0.00553694,-0.0500087,0,0,0,0,0.0114853,0.468118,-0.903267,34.8125,3,65065,6565467
136,-0.13632,0.320531,10.4922,-0.226659,0.108816,1.52695,-0.00133236,0.0032503,0.104921,1,-0.000211369,0.000139678,-0.000237126,-0.0422739,0.0279355,-0.0474252,0,0,0,0,0.00651516,0.472611,-0.90668,34.8125,3,65069,6565867
137,-0.567287,0.154693,10.1385,0.067356,-0.565717,1.57548,-0.00567085,0.00152497,0.101385,1,0.000121008,6.52188e-06,-0.000227081,0.0242016,0.00130438,-0.0454162,0,0,0,0,8.13585e-05,0.464737,-0.899754,34.8125,3,65072,6566167
138,-0.759427,1.83424,9.65973,-0.264354,0.816897,0.810843,-0.00757856,0.0182896,0.0966085,1,0.000294962,2.97005e-05,-0.000272097,0.0589925,0.00594009,-0.0544193,0,0,0,0,-0.00254628,0.464919,-0.908829,34.8125,3,65075,6566467
139,-0.18686,-1.36432,10.3687,-0.650345,-1.69861,1.06032,-0.00187092,-0.0136296,0.103689,1,-6.1229e-05,1.94023e-05,-0.000232496,-0.0122458,0.00388046,-0.0464991,0,0,0,0,-0.00563647,0.45848,-0.901887,34.8125,3,65079,6566867
140,-0.236222,-0.0306716,10.2228,0.0269686,-0.626111,1.20325,-0.00236423,-0.000311629,0.102228,1,3.07894e-05,-8.93072e-06,-0.000292552,0.00615788,-0.00178614,-0.0585105,0,0,0,0,-0.00819101,0.455717,-0.910018,34.8125,3,65082,6567167
141,-0.511653,1.08705,10.143,-0.279566,0.406254,1.02125,-0.00514329,0.0108648,0.101429,1,4.28502e-05,-0.000163304,-0.000293251,0.00857004,-0.0326608,-0.0586501,0,0,0,0,-0.00854496,0.454665,-0.905494,34.8125,3,65085,6567467
142,0.502476,-0.508768,10.808,0.773041,-1.32107,2.2126,0.00499128,-0.00513694,0.10808,1,0.000216937,-0.000143719,-0.000236355,0.0433874,-0.0287437,-0.0472711,0,0,0,0,-0.0156113,0.449314,-0.903055,34.8125,3,65089,6567867
143,-0.152466,-0.115765,10.5174,0.0808594,-0.493851,1.62652,-0.0015441,-0.0011277,0.105174,1,-0.000137601,-8.8854e-05,-0.000328341,-0.0275201,-0.0177708,-0.0656683,0,0,0,0,-0.0138529,0.457129,-0.904405,34.8125,3,65092,6568167
144,-0.0466521,0.763993,10.9286,0.562804,0.208115,1.97892,-0.000442643,0.00763926,0.109286,1,4.0586e-06,9.26746e-05,-0.000237002,0.000811719,0.0185349,-0.0474004,0,0,0,0,-0.0179879,0.449795,-0.901518,34.8125,3,65095,6568467
145,-0.182262,0.225359,10.0198,0.296675,-0.489609,0.963107,-0.00184115,0.00225667,0.100197,1,-1.01983e-05,-9.88375e-05,-0.000283662,-0.00203967,-0.0197675,-0.0567323,0,0,0,0,-0.0167923,0.459601,-0.904841,34.8125,3,65099,6568867
146,0.683455,-1.66826,10.7928,0.913676,-2.75744,1.97764,0.00680603,-0.0167064,0.107926,1,9.58267e-05,-9.73065e-05,-0.000224949,0.0191653,-0.0194613,-0.0449898,0,0,0,0,-0.0198157,0.456486,-0.892775,34.8125,3,65102,6569167
147,0.51748,0.659748,12.4557,1.5364,-0.128508,3.9792,0.00523492,0.00657393,0.124555,1,8.71155e-05,0.000231956,-0.000177459,0.0174231,0.0463912,-0.0354917,0,0,0,0,-0.0205943,0.4649,-0.89915,34.8125,3,65105,6569467
148,0.174022,-0.371252,9.38846,-0.0639875,-1.81517,0.693613,0.00172061,-0.00374174,0.0938838,1,0.000149786,-9.19648e-05,-0.000314874,0.0299571,-0.018393,-0.0629748,0,0,0,0,-0.0231684,0.465177,-0.886001,34.8125,3,65109,6569867
149,-1.00084,-2.0955,9.52288,-1.2209,-2.90951,0.803983,-0.00999096,-0.0209622,0.095229,1,6.84877e-05,0.00015642,-0.000294155,0.0136975,0.0312841,-0.058831,0,0,0,0,-0.02575,0.467735,-0.891487,34.8125,3,65112,6570167
150,-0.906768,0.00572113,9.98003,-0.13592,-0.196807,1.43217,-0.00904504,6.03227e-05,0.0998023,1,1.13436e-05,0.000113243,-0.000296789,0.00226872,0.0226486,-0.0593577,0,0,0,0,-0.0279692,0.471956,-0.880777,34.8125,3,65115,6570467
151,-0.750305,-0.697655,10.095,-0.8844,-1.4681,0.856772,-0.00754091,-0.00702306,0.100944,1,0.000251118,-0.000168171,-0.000278978,0.0502236,-0.0336341,-0.0557956,0,0,0,0,-0.0317038,0.469495,-0.877784,34.8125,3,65119,6570867
152,0.0244086,0.768067,10.127,0.11552,-0.167333,1.40912,0.000228312,0.00768207,0.10127,1,-7.72432e-06,-0.000103399,-0.000336444,-0.00154486,-0.0206797,-0.0672887,0,0,0,0,-0.0372472,0.481769,-0.879506,34.8125,3,65122,6571167
153,-2.16686,-1.02583,7.57998,-2.39524,-1.69661,-1.04136,-0.0216722,-0.0102983,0.0757933,1,0.000324604,5.1491e-06,-0.000212825,0.0649208,0.00102982,-0.0425649,0,0,0,0,-0.0407292,0.471413,-0.871639,34.8125,3,65125,6571467
154,-2.41029,0.11988,8.61193,-1.8037,-0.630098,0.190855,-0.0240656,0.00115991,0.0861303,1,0.000304407,0.000212736,-0.000281134,0.0608815,0.0425473,-0.0562268,0,0,0,0,-0.0443628,0.476454,-0.879086,34.8125,3,65129,6571867
155,0.56235,-2.18071,10.6441,0.213351,-3.27027,1.48582,0.00554958,-0.0218234,0.106442,1,6.06433e-05,-0.000284809,-0.000304546,0.0121287,-0.0569619,-0.0609092,0,0,0,0,-0.0477453,0.468917,-0.865096,34.8125,3,65132,6572167
156,-0.715241,1.008,10.6111,-0.425343,0.741909,1.34053,-0.0071528,0.0100965,0.106109,1,-6.19417e-05,-2.42806e-05,-0.000235732,-0.0123883,-0.00485611,-0.0471464,0,0,0,0,-0.0509148,0.472039,-0.874609,34.8125,3,65135,6572467
157,-0.0275013,-0.182627,10.058,0.112692,-0.902285,1.20687,-0.000297773,-0.00180391,0.10058,1,-0.000110276,-0.000107545,-0.000310269,-0.0220552,-0.0215089,-0.0620538,0,0,0,0,-0.0529342,0.470813,-0.859475,34.8125,3,65139,6572867
158,-2.02641,-0.130009,9.21363,-1.46789,-0.316024,0.107423,-0.0202776,-0.00129537,0.0921334,1,2.98498e-05,-6.94339e-05,-0.00025199,0.00596995,-0.0138868,-0.0503981,0,0,0,0,-0.053466,0.466518,-0.864618,34.8125,3,65142,6573167
159,-0.733802,0.858652,9.56178,-0.657479,0.475424,0.392828,-0.00734472,0.00860188,0.0956159,1,-6.09448e-05,-5.77794e-05,-0.000253013,-0.012189,-0.0115559,-0.0506025,0,0,0,0,-0.054674,0.469249,-0.852936,34.8125,3,65145,6573467
160,-0.276384,-0.539515,10.7274,-0.381429,-0.941983,1.59258,-0.00276413,-0.00538467,0.107275,1,-4.47314e-05,6.72479e-06,-0.000160497,-0.00894629,0.00134496,-0.0320994,0,0,0,0,-0.0543143,0.46224,-0.842992,34.8125,3,65149,6573867
161,-1.31693,0.0412531,9.62308,-1.0464,-0.363119,0.631126,-0.0131631,0.000402969,0.0962317,1,8.09738e-05,3.13754e-05,-0.000228744,0.0161948,0.00627509,-0.0457487,0,0,0,0,-0.0530367,0.471504,-0.843297,34.8125,3,65152,6574167
162,-1.30761,0.333805,9.15735,-1.17407,0.122751,0.116777,-0.0130755,0.00333523,0.0915737,1,5.53296e-05,-6.93216e-06,-0.000279869,0.0110659,-0.00138643,-0.0559737,0,0,0,0,-0.0491663,0.46099,-0.829912,34.8125,3,65155,6574467
163,-0.211965,-0.926661,9.73665,-0.217632,-1.89425,0.887569,-0.00212763,-0.0093149,0.0973617,1,0.000254744,-1.15332e-05,-0.000308507,0.0509489,-0.00230664,-0.0617014,0,0,0,0,-0.045466,0.472149,-0.828166,34.8125,3,65159,6574867
164,-0.311579,-0.184957,11.2578,0.00156973,-1.50095,2.55463,-0.00304033,-0.00190801,0.112579,1,0.000266258,0.000339249,-0.000244488,0.0532516,0.0678498,-0.0488976,0,0,0,0,-0.0411164,0.468379,-0.810087,34.8125,3,65162,6575167
165,-0.486275,0.284168,9.50965,-0.498697,-0.256814,0.134935,-0.00490398,0.0028554,0.0950939,1,-5.49117e-05,-0.000226827,-0.000335746,-0.0109823,-0.0453655,-0.0671491,0,0,0,0,-0.036032,0.474269,-0.814526,34.8125,3,65165,6575467
166,-0.827433,-0.802521,9.89414,-0.997946,-1.12017,0.988042,-0.0082609,-0.00800957,0.0989438,1,-5.68001e-05,8.9422e-05,-0.000266124,-0.01136,0.0178844,-0.0532248,0,0,0,0,-0.0332796,0.478332,-0.797276,34.8125,3,65169,6575867
167,-0.0414744,1.8163,10.3906,0.322868,0.817664,1.25084,-0.000414862,0.018097,0.103918,1,0.000318411,-3.99487e-05,-0.000225716,0.0636823,-0.00798974,-0.0451432,0,0,0,0,-0.0278207,0.471902,-0.794919,34.8125,3,65172,6576167
168,-1.10148,0.401814,9.7069,-0.35688,0.407372,0.738894,-0.0109851,0.00398954,0.0970735,1,0.000178788,0.000141362,-0.000277677,0.0357577,0.0282723,-0.0555354,0,0,0,0,-0.0257626,0.478535,-0.78468,34.8125,3,65175,6576467
169,-0.899588,-1.44268,10.0401,-1.24683,-2.23221,1.18271,-0.0090036,-0.0144108,0.100403,1,-5.39573e-05,3.06226e-06,-0.000289006,-0.0107915,0.000612452,-0.0578012,0,0,0,0,-0.0187791,0.46866,-0.781396,34.8125,3,65179,6576867
170,-0.781481,0.711535,8.92637,-0.539032,0.652505,-0.244312,-0.0078243,0.00714133,0.0892608,1,-0.000119354,-7.70369e-05,-0.000298725,-0.0238708,-0.0154074,-0.0597451,0,0,0,0,-0.0171105,0.478951,-0.78471,34.8125,3,65182,6577167
171,-1.28444,0.439874,10.1679,-0.574794,0.273427,1.5408,-0.0127966,0.00441864,0.101684,1,-6.28335e-05,0.0002233,-0.000277591,-0.0125667,0.0446599,-0.0555182,0,0,0,0,-0.0114807,0.466613,-0.779455,34.8125,3,65185,6577467
172,-1.38921,-0.0741778,8.85654,-0.853086,-0.973156,-0.205985,-0.0138786,-0.000796707,0.088567,1,0.000349617,7.8449e-05,-0.000252043,0.0699234,0.0156898,-0.0504085,0,0,0,0,-0.00354329,0.470095,-0.78699,34.8125,3,65189,6577867
173,-0.894291,-0.0363988,10.6217,-0.580619,-0.602273,1.548,-0.00892098,-0.000301923,0.106219,1,-0.000267514,0.000104143,-0.000293028,-0.0535029,0.0208287,-0.0586056,0,0,0,0,0.000619369,0.460678,-0.780653,34.8125,3,65192,6578167
174,-1.16091,-1.24998,9.07015,-1.57868,-1.49508,0.279217,-0.0116287,-0.0124827,0.0907013,1,-6.65109e-05,-7.86965e-05,-0.000215913,-0.0133022,-0.0157393,-0.0431827,0,0,0,0,0.00708316,0.459375,-0.792833,34.8125,3,65195,6578467
175,-0.0293233,0.683357,10.308,0.104923,0.0760229,0.697368,-0.000310752,0.00682762,0.103081,1,2.96523e-05,-0.000102574,-0.000265561,0.00593045,-0.0205149,-0.0531121,0,0,0,0,0.0172683,0.457304,-0.790906,34.8125,3,65199,6578867
176,-0.526677,-1.13409,9.80687,-0.881097,-1.67453,0.672083,-0.00529214,-0.011364,0.0980647,1,0.000132531,-9.80917e-05,-0.000269955,0.0265061,-0.0196183,-0.053991,0,0,0,0,0.0244491,0.447633,-0.799235,34.8125,3,65202,6579167
177,-1.0823,0.689474,9.01119,-1.21591,0.37235,-0.459784,-0.0108462,0.00688128,0.0901102,1,0.000107235,-0.000149334,-0.000271093,0.0214471,-0.0298668,-0.0542186,0,0,0,0,0.0315405,0.45441,-0.799622,34.8125,3,65205,6579467
178,-1.71337,-0.760374,9.78316,-1.13294,-0.648164,0.992949,-0.0171221,-0.00760586,0.0978334,1,5.93078e-05,8.08765e-05,-0.000276912,0.0118616,0.0161753,-0.0553823,0,0,0,0,0.0417674,0.441708,-0.803487,34.8125,3,65209,6579867
179,-0.630248,1.22495,9.74645,-0.00234301,0.867983,1.03357,-0.00628129,0.0122405,0.097467,1,6.53205e-05,7.16277e-05,-0.000294951,0.0130641,0.0143255,-0.0589901,0,0,0,0,0.0480665,0.452572,-0.813881,34.8125,3,65212,6580167
180,0.25507,-0.92593,10.7304,-0.0882553,-2.10175,1.33813,0.00255972,-0.00927357,0.107303,1,5.93582e-05,6.7863e-05,-0.000299055,0.0118716,0.0135726,-0.0598109,0,0,0,0,0.0546755,0.442141,-0.806567,34.8125,3,65215,6580467
181,-2.02371,0.166395,8.24924,-1.97136,-0.202483,-0.553765,-0.0202297,0.00160651,0.0824954,1,0.000405419,4.00304e-05,-0.000233625,0.0810839,0.00800609,-0.046725,0,0,0,0,0.0613722,0.449208,-0.823108,34.8125,3,65219,6580867
182,-1.42319,0.672825,8.53844,-0.886844,0.675003,-0.573623,-0.0142198,0.00675943,0.085384,1,-0.000131324,4.61957e-05,-0.000307739,-0.0262649,0.00923913,-0.0615479,0,0,0,0,0.0649369,0.44759,-0.81609,34.8125,3,65222,6581167
183,-1.08517,-0.140453,9.58573,-0.633099,-0.672607,0.940129,-0.0108349,-0.00141185,0.095859,1,7.35832e-05,9.2039e-05,-0.000312918,0.0147166,0.0184078,-0.0625836,0,0,0,0,0.0721907,0.447851,-0.8343,34.8125,3,65225,6581467
184,-0.373247,-0.640967,9.65223,-0.515067,-1.19098,0.609847,-0.00376992,-0.00642175,0.09652,1,7.29766e-05,-0.000176247,-0.000266682,0.0145953,-0.0352494,-0.0533365,0,0,0,0,0.0755476,0.452168,-0.831694,34.8125,3,65229,6581867
185,-1.39447,-0.377621,9.13188,-1.85951,-0.659329,-0.295156,-0.0139451,-0.00377172,0.0913189,1,1.51221e-05,8.9387e-06,-0.000260044,0.00302441,0.00178774,-0.0520088,0,0,0,0,0.0760174,0.442534,-0.838981,34.8125,3,65232,6582167
186,-0.631855,-0.151462,9.68015,-0.607743,-0.312816,0.457109,-0.00632456,-0.00150163,0.0968013,1,-4.91215e-05,-2.67629e-05,-0.000275001,-0.0098243,-0.00535257,-0.0550003,0,0,0,0,0.075745,0.452371,-0.843307,34.8125,3,65235,6582467
187,-1.11145,-0.653796,9.10506,-1.13196,-0.982368,0.103528,-0.0111268,-0.00654518,0.0910486,1,7.28882e-05,-4.77914e-05,-0.000272253,0.0145776,-0.00955828,-0.0544507,0,0,0,0,0.0791988,0.438306,-0.849696,34.8125,3,65239,6582867
188,-0.234186,0.0566482,10.8857,0.0812057,-1.08101,2.20811,-0.00233151,0.000529259,0.108858,1,0.000174839,4.66164e-05,-0.000179994,0.0349678,0.00932328,-0.0359988,0,0,0,0,0.0792538,0.443432,-0.863724,34.8125,3,65242,6583167
189,-0.348533,-1.40228,10.6153,-0.26607,-2.41164,1.81226,-0.00350161,-0.014059,0.106148,1,0.00018003,-3.88582e-05,-0.000285856,0.0360059,-0.00777165,-0.0571712,0,0,0,0,0.0799903,0.431676,-0.861463,34.8125,3,65245,6583467
190,-0.856956,1.11467,10.3505,-0.194204,0.523004,1.3146,-0.00856602,0.0111088,0.103509,1,0.00020096,-5.89651e-06,-0.000213988,0.0401919,-0.0011793,-0.0427975,0,0,0,0,0.079932,0.429657,-0.885246,34.8125,3,65249,6583867
191,-2.19806,-0.35243,8.6172,-1.67677,-0.388706,0.0520785,-0.0219713,-0.00351152,0.0861749,1,-1.39937e-05,6.35178e-05,-0.000235828,-0.00279873,0.0127036,-0.0471656,0,0,0,0,0.0819917,0.428097,-0.880744,34.8125,3,65252,6584167
192,-1.23884,0.992448,8.8525,-0.762344,0.626424,0.0230401,-0.012396,0.0099004,0.0885266,1,0.000172382,-7.22656e-05,-0.000259778,0.0344764,-0.0144531,-0.0519555,0,0,0,0,0.0835647,0.422073,-0.899573,34.8125,3,65255,6584467
193,-0.614537,-1.69371,10.4919,-0.751222,-2.09159,1.49848,-0.00613938,-0.0169176,0.104922,1,-7.90098e-05,6.71374e-05,-0.000239054,-0.015802,0.0134275,-0.0478109,0,0,0,0,0.0815258,0.424582,-0.902538,34.8125,3,65259,6584867
194,-1.22683,-0.528027,9.57895,-1.11846,-0.199855,0.327475,-0.0123291,-0.00525288,0.0957831,1,-0.000108729,-0.00030282,-0.000266401,-0.0217458,-0.0605641,-0.0532803,0,0,0,0,0.0821708,0.409521,-0.906411,34.8125,3,65262,6585167
195,-1.81428,0.837258,9.04434,-1.31252,0.895743,0.452961,-0.0181368,0.00836843,0.090445,1,7.1117e-05,1.06836e-05,-0.000240235,0.0142234,0.00213673,-0.0480471,0,0,0,0,0.0817792,0.419926,-0.915269,34.8125,3,65265,6585467
196,-1.58439,-0.00617738,9.20684,-1.00215,-0.543161,0.442544,-0.0158232,-4.37063e-05,0.0920719,1,-4.76605e-05,0.000112863,-0.000293407,-0.00953211,0.0225727,-0.0586813,0,0,0,0,0.0842974,0.411632,-0.916475,34.8125,3,65269,6585867
197,0.451612,-0.599361,11.3636,0.886815,-1.90333,2.56976,0.00448525,-0.00598181,0.113638,1,-6.5538e-05,-0.000117702,-0.000343701,-0.0131076,-0.0235404,-0.0687401,0,0,0,0,0.0829061,0.420627,-0.927885,34.8125,3,65272,6586167
198,0.0512852,-1.37527,10.2545,-0.0735852,-2.54343,1.96583,0.000522293,-0.0138069,0.102537,1,0.000262948,7.9805e-05,-0.000251281,0.0525895,0.015961,-0.0502563,0,0,0,0,0.0822623,0.413174,-0.919967,34.8125,3,65275,6586467
199,-0.879487,0.712903,9.41488,-0.677895,0.601855,0.352729,-0.00880386,0.0071867,0.0941436,1,-0.000279731,-6.93702e-05,-0.000284146,-0.0559461,-0.013874,-0.0568292,0,0,0,0,0.0790805,0.416305,-0.929984,34.8125,3,65279,6586867
200,-1.24486,-0.336928,9.37308,-1.31774,-0.934869,0.0530071,-0.012426,-0.00337362,0.0937337,1,6.28782e-05,0.000131295,-0.000299506,0.0125757,0.026259,-0.0599013,0,0,0,0,0.0767588,0.421565,-0.922786,34.8125,3,65282,6587167
201,-1.6317,-0.857366,8.66255,-1.81497,-1.48179,-0.223616,-0.0163267,-0.00857867,0.0866232,1,7.51494e-05,-3.16841e-05,-0.000245303,0.0150299,-0.00633682,-0.0490607,0,0,0,0,0.075073,0.422236,-0.932359,34.8125,3,65285,6587467
202,-2.22084,0.678507,8.62172,-1.62707,0.572458,0.0248737,-0.0222011,0.00678894,0.0862188,1,2.15898e-05,2.86882e-05,-0.000170902,0.00431796,0.00573764,-0.0341803,0,0,0,0,0.0731143,0.43095,-0.927611,34.8125,3,65289,6587867
203,0.302843,-0.73498,10.2223,0.293307,-0.972789,1.24007,0.00299671,-0.00731321,0.102227,1,-0.000186623,-0.000136534,-0.00025973,-0.0373245,-0.0273068,-0.0519461,0,0,0,0,0.0698998,0.421711,-0.927801,34.8125,3,65292,6588167
204,-1.20558,0.531812,9.44859,-1.44363,-0.0657127,0.4454,-0.0120547,0.00529447,0.0944874,1,0.000154025,-6.51932e-06,-0.000226111,0.030805,-0.00130386,-0.0452221,0,0,0,0,0.0658439,0.430568,-0.930111,34.8125,3,65295,6588467
205,-0.315029,1.10598,10.68,0.454976,0.223091,1.86756,-0.0031146,0.0110364,0.106804,1,0.000115845,0.000145917,-0.000204468,0.0231689,0.0291834,-0.0408936,0,0,0,0,0.0647091,0.417826,-0.926348,34.8125,3,65299,6588867
206,-0.438937,-1.48763,9.60174,-0.506249,-2.19894,0.845328,-0.00442432,-0.0149423,0.0960055,1,0.000355984,-0.000140349,-0.000268255,0.0711968,-0.0280697,-0.053651,0,0,0,0,0.0604302,0.423954,-0.939829,34.8125,3,65302,6589167
207,-0.953602,0.150068,9.34124,-0.666607,-0.0623562,0.503672,-0.00952526,0.00150459,0.0934135,1,1.69104e-06,5.40399e-05,-0.000221757,0.000338208,0.010808,-0.0443513,0,0,0,0,0.0617437,0.41598,-0.930921,34.8125,3,65305,6589467
208,-2.05989,-0.0277497,8.56369,-2.14972,-0.0784249,-0.264612,-0.0205962,-0.000254301,0.0856376,1,-7.76649e-05,1.60233e-05,-0.000240159,-0.015533,0.00320467,-0.0480319,0,0,0,0,0.0600659,0.416163,-0.940506,34.8125,3,65309,6589867
209,-1.12413,-0.201187,9.35321,-0.804206,-0.562796,0.515814,-0.0112356,-0.00202495,0.0935325,1,9.78069e-05,3.5914e-05,-0.000232224,0.0195614,0.00718281,-0.0464448,0,0,0,0,0.0587013,0.418045,-0.935912,34.8125,3,65312,6590167
210,-1.1562,0.807649,9.30076,-0.955956,0.443499,0.207097,-0.0115778,0.00806969,0.0930062,1,6.62694e-05,-0.000105625,-0.000238612,0.0132539,-0.0211249,-0.0477224,0,0,0,0,0.0604802,0.412835,-0.945632,34.8125,3,65315,6590467
211,-1.14692,-1.08804,9.3306,-1.27452,-1.25085,0.363187,-0.0114944,-0.0108546,0.093306,1,-0.00010584,-0.000103997,-0.000266976,-0.0211681,-0.0207994,-0.0533952,0,0,0,0,0.0603221,0.420178,-0.946983,34.8125,3,65319,6590867
212,-0.769086,-0.241135,10.2358,-0.614279,-0.380022,1.08941,-0.00767928,-0.0023968,0.102359,1,-5.6622e-05,6.10733e-05,-0.000192186,-0.0113244,0.0122147,-0.0384373,0,0,0,0,0.0625195,0.411771,-0.941625,34.8125,3,65322,6591167
213,-1.24578,0.0597634,9.48535,-0.820365,-0.27539,0.602684,-0.0124422,0.00058377,0.0948556,1,0.000104266,8.04687e-05,-0.000237623,0.0208533,0.0160937,-0.0475245,0,0,0,0,0.0626802,0.425975,-0.944845,34.8125,3,65325,6591467
214,-0.221937,-2.00486,10.5351,-0.609524,-2.65106,1.63771,-0.00220833,-0.0200637,0.105348,1,7.73705e-05,0.000104823,-0.000275297,0.0154741,0.0209646,-0.0550594,0,0,0,0,0.0657344,0.422456,-0.940392,34.8125,3,65329,6591867
215,-1.10341,-1.7121,10.3059,-1.22152,-2.23015,1.74323,-0.0110219,-0.0171185,0.103061,1,1.75088e-05,0.000105442,-0.000277678,0.00350176,0.0210885,-0.0555356,0,0,0,0,0.0687766,0.433267,-0.946226,34.8125,3,65332,6592167
216,-0.365826,0.938665,9.65674,-0.123816,0.657717,0.644264,-0.00370173,0.00940238,0.0965643,1,-7.4783e-05,-0.000242226,-0.00017603,-0.0149566,-0.0484452,-0.035206,0,0,0,0,0.0714366,0.431134,-0.937195,34.8125,3,65335,6592467
217,-0.457542,-0.821629,10.1254,-0.50616,-2.13477,1.34137,-0.00455566,-0.00820857,0.101255,1,-2.59092e-05,0.000119546,-0.000270254,-0.00518184,0.0239093,-0.0540509,0,0,0,0,0.0744855,0.437121,-0.946167,34.8125,3,65339,6592867
218,-0.352881,-0.0846609,10.0983,0.129271,-1.18332,1.13921,-0.00352274,-0.000828506,0.100983,1,-8.11394e-05,3.20542e-05,-0.000243286,-0.0162279,0.00641085,-0.0486571,0,0,0,0,0.0740484,0.446249,-0.937881,34.8125,3,65342,6593167
219,-0.209171,-2.50972,10.7924,-0.406318,-3.49856,2.00001,-0.0021136,-0.025072,0.10793,1,-0.000112261,-4.67394e-05,-0.000235349,-0.0224522,-0.00934788,-0.0470698,0,0,0,0,0.0753067,0.446372,-0.94546,34.8125,3,65345,6593467
220,-1.05266,0.888591,9.54028,-0.387342,0.347401,1.03402,-0.010506,0.00888707,0.095405,1,2.03181e-05,8.52652e-05,-0.000239088,0.00406362,0.017053,-0.0478176,0,0,0,0,0.0721945,0.461499,-0.944099,34.8125,3,65349,6593867
221,-0.858686,0.656729,9.64052,-0.71756,-0.251204,0.806103,-0.00856893,0.0065072,0.0964109,1,0.00032669,8.15218e-05,-0.000168855,0.0653379,0.0163044,-0.0337711,0,0,0,0,0.0752962,0.452162,-0.941796,34.8125,3,65352,6594167
222,-0.978028,-1.10639,9.83045,-0.965584,-1.91411,1.12839,-0.0097817,-0.0111081,0.0982994,1,0.000249238,2.05977e-05,-0.000246466,0.0498476,0.00411955,-0.0492932,0,0,0,0,0.0735116,0.465434,-0.946543,34.8125,3,65355,6594467
223,0.408908,0.451353,10.9211,1.039,-0.403741,1.96014,0.00410106,0.00449266,0.109211,1,8.78055e-05,4.63195e-05,-0.000206626,0.0175611,0.0092639,-0.0413252,0,0,0,0,0.0745877,0.461488,-0.944616,34.8125,3,65359,6594867
224,-1.23788,0.0231001,9.14037,-0.714978,0.199568,0.37065,-0.0123753,0.000241652,0.0914042,1,-2.99376e-05,1.82649e-05,-0.000209165,-0.00598751,0.00365299,-0.041833,0,0,0,0,0.072249,0.465179,-0.95917,34.8125,3,65362,6595167
225,-0.395233,-0.032066,10.6363,-0.431964,-1.17514,2.04565,-0.00394347,-0.000374368,0.106363,1,0.000257769,4.21384e-05,-0.000142515,0.0515537,0.00842769,-0.0285031,0,0,0,0,0.0738518,0.46216,-0.954699,34.8125,3,65365,6595467
226,-1.79433,-0.654028,8.65426,-2.30259,-0.94771,-0.495164,-0.0179724,-0.00653991,0.0865366,1,3.54714e-06,-0.000166125,-2.72256e-05,0.000709429,-0.033225,-0.00544513,0,0,0,0,0.0745061,0.463822,-0.966281,34.8125,3,65369,6595867
227,-1.38087,-0.745617,8.89566,-1.30341,-1.05835,0.310737,-0.0138114,-0.00746785,0.0889552,1,6.09266e-05,-1.81162e-05,3.02698e-05,0.0121853,-0.00362324,0.00605397,0,0,0,0,0.0740012,0.466735,-0.965204,34.8125,3,65372,6596167
228,-1.14286,1.32816,9.38367,-0.54919,1.24741,0.80747,-0.0114391,0.0132746,0.0938365,1,1.41454e-05,-2.89328e-05,0.000190425,0.00282909,-0.00578656,0.038085,0,0,0,0,0.0776025,0.463993,-0.977403,34.8125,3,65375,6596467
229,-0.293481,-0.366884,10.9358,-0.663612,-1.5842,1.53736,-0.00294218,-0.00372345,0.109356,1,0.000242117,-4.3235e-05,0.000281821,0.0484234,-0.00864701,0.0563642,0,0,0,0,0.0812454,0.475676,-0.977665,34.8125,3,65379,6596867
230,-0.534238,-0.969269,10.1746,-0.851828,-2.31659,1.31877,-0.00536925,-0.00976633,0.101738,1,0.000342982,-0.000166453,0.000359765,0.0685964,-0.0332906,0.0719531,0,0,0,0,0.0861122,0.469331,-0.979849,34.8125,3,65382,6597167
231,-0.194421,0.493595,9.58266,0.0807412,-0.134262,1.09079,-0.00192504,0.00496819,0.0958253,1,-0.000174328,0.000115673,0.000302468,-0.0348656,0.0231346,0.0604936,0,0,0,0,0.088213,0.481099,-0.984143,34.8125,3,65385,6597467
232,-1.04594,0.000728456,10.1577,-1.03217,-0.541386,1.10802,-0.0104598,-1.50677e-05,0.101577,1,7.75249e-05,-2.12994e-06,0.000315631,0.015505,-0.000425987,0.0631261,0,0,0,0,0.0921606,0.480995,-0.980123,34.8125,3,65389,6597867
233,0.583827,0.724484,10.5653,0.404968,-0.59527,1.5754,0.00580329,0.00718953,0.105658,1,0.000282029,-0.000140421,0.000368088,0.0564058,-0.0280842,0.0736177,0,0,0,0,0.0956129,0.487999,-0.991599,34.8125,3,65392,6598167
234,-0.698626,-0.0298881,9.97099,-0.447032,-1.34217,1.5275,-0.00694132,-0.000290875,0.099713,1,-5.77342e-05,0.000224588,0.000251897,-0.0115468,0.0449175,0.0503794,0,0,0,0,0.0953547,0.490731,-0.980426,34.8125,3,65395,6598467
235,-1.5275,-0.471296,8.66544,-1.76332,-0.28858,-0.683486,-0.0152956,-0.00468473,0.0866523,1,-0.000216718,-0.000135211,0.000305193,-0.0433436,-0.0270423,0.0610386,0,0,0,0,0.101367,0.492783,-0.988994,34.8125,3,65399,6598867
236,-0.13074,-0.0857351,10.1131,-0.0985199,-0.720713,1.47389,-0.00134204,-0.000828055,0.101131,1,-0.000148408,-0.000173518,0.000272164,-0.0296816,-0.0347036,0.0544329,0,0,0,0,0.0997638,0.506887,-0.985643,34.8125,3,65402,6599167
237,-1.72847,0.751287,9.04568,-0.951492,0.420596,0.287383,-0.0172772,0.00753836,0.0904561,1,-0.000205113,6.93626e-05,0.000335996,-0.0410225,0.0138725,0.0671992,0,0,0,0,0.102086,0.501627,-0.992841,34.8125,3,65405,6599467
238,-0.45101,-1.39319,10.9398,-0.547458,-2.4607,2.21096,-0.00450041,-0.0139753,0.109393,1,0.000186466,8.2216e-06,0.000282677,0.0372931,0.00164432,0.0565353,0,0,0,0,0.102846,0.512368,-0.993616,34.8125,3,65409,6599867
239,0.0895087,-1.54263,11.0736,0.280732,-2.73212,2.53319,0.000914867,-0.0154386,0.110734,1,5.81662e-05,4.40375e-05,0.000324862,0.0116332,0.0088075,0.0649724,0,0,0,0,0.103415,0.505554,-0.994781,34.8125,3,65412,6600167
240,0.188615,0.208505,10.8906,0.477741,-0.515694,1.83954,0.00186578,0.00207935,0.108907,1,3.29075e-05,-8.60306e-05,0.000391548,0.00658151,-0.0172061,0.0783097,0,0,0,0,0.103134,0.512987,-1.00118,34.8125,3,65415,6600467
241,-1.56076,0.657126,8.66425,-0.893066,-0.143818,0.264026,-0.0156163,0.00652558,0.0866444,1,0.000206654,-2.62402e-05,0.000315851,0.0413308,-0.00524805,0.0631702,0,0,0,0,0.10469,0.506147,-1.00134,34.8125,3,65419,6600867
242,-0.338938,1.76481,10.8088,1.09985,0.304526,2.35568,-0.0033597,0.0175982,0.108097,1,0.000221664,0.000186349,0.000300746,0.0443328,0.0372698,0.0601492,0,0,0,0,0.108654,0.505415,-1.01703,34.8125,3,65422,6601167
243,-2.468,-0.590048,8.82347,-1.85833,-1.05473,1.19099,-0.0246382,-0.00592118,0.0882449,1,2.69706e-05,0.000214957,0.000323163,0.00539412,0.0429913,0.0646326,0,0,0,0,0.108801,0.502416,-1.01306,34.8125,3,65425,6601467
244,0.48225,-0.529717,10.7723,0.904627,-1.33459,2.29248,0.00482981,-0.00527174,0.107724,1,-0.000103135,1.76491e-05,0.00033268,-0.020627,0.00352982,0.0665361,0,0,0,0,0.113238,0.503613,-1.0277,34.8125,3,65428,6601767
245,-2.40111,-1.00095,7.60715,-2.24955,-0.955279,-0.925044,-0.0239963,-0.0100251,0.0760741,1,2.892e-06,5.58045e-05,0.000316459,0.000578399,0.0111609,0.0632918,0,0,0,0,0.116027,0.506552,-1.02967,34.8125,3,65432,6602167
246,-2.01612,0.923391,9.18564,-1.54423,0.55451,0.458175,-0.0201428,0.00919962,0.0918639,1,0.000112164,0.000134535,0.000339638,0.0224328,0.0269071,0.0679276,0,0,0,0,0.121246,0.495478,-1.04054,34.8125,3,65435,6602467
247,-2.09861,-0.092814,8.05725,-2.04841,-0.587519,-0.321609,-0.0209788,-0.000969813,0.0805739,1,0.000178263,4.2053e-05,0.000308503,0.0356526,0.0084106,0.0617007,0,0,0,0,0.124884,0.503792,-1.0434,34.8125,3,65438,6602767
248,-0.849779,0.402644,9.30361,-0.468913,-0.268013,0.452135,-0.008505,0.00401775,0.0930358,1,2.008e-05,-2.61599e-05,0.00029097,0.00401601,-0.00523198,0.0581941,0,0,0,0,0.130597,0.497042,-1.05065,34.8125,3,65442,6603167
249,-0.69576,0.32755,9.62877,-0.409839,-0.518579,0.797204,-0.00693902,0.0032525,0.0962898,1,9.77913e-05,0.00010662,0.000299553,0.0195583,0.0213239,0.0599106,0,0,0,0,0.133561,0.507428,-1.06003,34.8125,3,65445,6603467
250,0.0712111,-0.120292,10.217,-0.345052,-1.04508,1.18897,0.000699979,-0.0012402,0.10217,1,0.000184819,-6.34697e-05,0.000342922,0.0369638,-0.0126939,0.0685845,0,0,0,0,0.135082,0.506396,-1.05754,34.8125,3,65449,6603867
251,-0.489991,-0.213998,10.0793,-0.406978,-0.713332,1.20009,-0.0048917,-0.00210599,0.100794,1,-0.000181073,3.53165e-05,0.000256535,-0.0362147,0.00706329,0.051307,0,0,0,0,0.138426,0.509624,-1.07617,34.8125,3,65452,6604167
252,-0.940803,-1.14345,10.2943,-0.584403,-1.76883,1.66924,-0.00940031,-0.0114042,0.102947,1,-0.000174154,5.23501e-06,0.000290724,-0.0348309,0.001047,0.0581448,0,0,0,0,0.138521,0.510518,-1.0716,34.8125,3,65455,6604467
253,0.326806,-0.0576876,10.0294,-0.042428,-1.83365,1.39709,0.00325866,-0.000619881,0.100294,1,0.000224354,-4.87112e-05,0.000306119,0.0448708,-0.00974224,0.0612238,0,0,0,0,0.136133,0.512801,-1.08922,34.8125,3,65459,6604867
254,-1.34618,0.66905,8.49367,-1.2225,-0.167198,-0.497931,-0.0134905,0.00667468,0.0849334,1,3.88049e-05,-0.000141698,0.000342149,0.00776099,-0.0283396,0.0684297,0,0,0,0,0.13306,0.522598,-1.09,34.8125,3,65462,6605167
255,-0.0367357,-0.88723,10.4159,-0.288254,-2.16311,1.33666,-0.000390117,-0.00889931,0.104157,1,0.000128606,-0.000133742,0.000286975,0.0257211,-0.0267484,0.057395,0,0,0,0,0.131006,0.514999,-1.10076,34.8125,3,65465,6605467
256,-1.47334,-0.226384,8.19811,-1.69041,-0.286919,-0.407735,-0.0147524,-0.00224214,0.0819782,1,-0.000184876,-0.00012364,0.000291938,-0.0369753,-0.024728,0.0583876,0,0,0,0,0.126403,0.523426,-1.10611,34.8125,3,65468,6605767
257,-1.32928,-0.298081,9.13835,-0.943917,-0.664838,0.444892,-0.0132856,-0.0029888,0.0913843,1,-1.35337e-05,2.64554e-05,0.000393653,-0.00270674,0.00529108,0.0787307,0,0,0,0,0.118604,0.516336,-1.11532,34.8125,3,65472,6606167
258,-1.69508,0.308078,8.5741,-1.05479,0.0938827,0.302574,-0.0169538,0.00302606,0.0857423,1,0.000251486,-5.10881e-06,0.000341989,0.0502972,-0.00102176,0.0683979,0,0,0,0,0.116694,0.523917,-1.12928,34.8125,3,65475,6606467
259,-0.303971,0.662286,10.6109,0.269525,-0.579614,1.89326,-0.0030541,0.00658697,0.106111,1,0.000159596,-4.72283e-05,0.000330551,0.0319191,-0.00944565,0.0661101,0,0,0,0,0.111077,0.510841,-1.13207,34.8125,3,65478,6606767
260,0.412816,-0.38271,11.2029,0.725903,-1.27594,1.97669,0.0041184,-0.00382683,0.112029,1,1.00738e-05,-5.40867e-05,0.00030716,0.00201476,-0.0108173,0.061432,0,0,0,0,0.106221,0.514633,-1.15116,34.8125,3,65482,6607167
261,0.190809,-1.15537,11.0839,0.0950717,-2.33395,2.37415,0.00186826,-0.0115809,0.110837,1,0.000128124,-0.000213565,0.000324654,0.0256248,-0.042713,0.0649308,0,0,0,0,0.101105,0.512139,-1.14564,34.8125,3,65485,6607467
262,-1.46278,0.362109,9.30071,-0.561752,0.0741591,0.687573,-0.0146145,0.00360334,0.0930098,1,4.76388e-05,8.33558e-05,0.000303846,0.00952776,0.0166712,0.0607691,0,0,0,0,0.0935787,0.508089,-1.16135,34.8125,3,65489,6607867
263,-0.851286,0.679141,9.71484,-0.124794,-0.318466,1.88637,-0.00849959,0.00676978,0.0971511,1,7.92065e-05,9.38753e-05,0.000366848,0.0158413,0.0187751,0.0733696,0,0,0,0,0.0875499,0.519889,-1.16358,34.8125,3,65492,6608167
264,-1.8216,0.423312,8.69334,-1.65685,-0.472473,0.110253,-0.018205,0.00416881,0.0869388,1,0.000302881,7.88928e-05,0.00031982,0.0605762,0.0157786,0.0639639,0,0,0,0,0.0833035,0.51119,-1.16628,34.8125,3,65495,6608467
265,-1.78503,-0.0697406,8.66336,-1.24007,-0.405467,0.234416,-0.0178257,-0.000689529,0.0866387,1,-9.86251e-05,0.000139678,0.000258221,-0.019725,0.0279357,0.0516442,0,0,0,0,0.0786691,0.524459,-1.1695,34.8125,3,65498,6608767
266,-1.28804,0.298863,8.89735,-1.22108,0.127433,0.187374,-0.0129032,0.00298875,0.0889702,1,-4.46881e-05,-0.000117801,0.000303896,-0.00893761,-0.0235602,0.0607792,0,0,0,0,0.0701974,0.521984,-1.16346,34.8125,3,65502,6609167
267,-0.574372,1.9351,9.84479,0.0412428,0.838804,0.983253,-0.00575359,0.0193177,0.0984539,1,0.000148833,1.79162e-05,0.00034652,0.0297667,0.00358324,0.0693041,0,0,0,0,0.06643,0.532905,-1.17229,34.8125,3,65505,6609467
268,-1.06032,-1.80173,10.0639,-1.08271,-2.86619,1.31222,-0.0106111,-0.0180102,0.100639,1,-6.28936e-05,-8.62935e-05,0.000261913,-0.0125787,-0.0172587,0.0523827,0,0,0,0,0.0556285,0.536177,-1.15903,34.8125,3,65509,6609867
266,-1.4746,-0.98751,8.94474,-1.41382,-1.58503,0.691416,-0.0147292,-0.00986425,0.0894514,1,-0.00010616,6.33997e-05,0.00027642,-0.0212319,0.0126799,0.0552839,0,0,0,0,0.0505597,0.540742,-1.16649,34.8125,3,65512,6610167
270,-0.869346,0.917658,10.0775,-0.165757,0.121917,1.65398,-0.00869688,0.00917604,0.100775,1,-2.97817e-05,1.72259e-05,0.000375942,-0.00595635,0.00344518,0.0751884,0,0,0,0,0.042494,0.547955,-1.15669,34.8125,3,65515,6610467
271,0.0360675,0.426511,10.6575,0.365479,-0.590417,1.78648,0.00033342,0.00427715,0.106575,1,-5.53873e-05,-0.000114252,0.000339821,-0.0110775,-0.0228504,0.0679642,0,0,0,0,0.0281952,0.545085,-1.15315,34.8125,3,65519,6610867
272,-0.66022,0.0217821,10.1675,-0.31993,-0.570338,1.68466,-0.00660559,0.00022198,0.101675,1,-4.07179e-05,-1.60352e-05,0.000312058,-0.00814358,-0.00320704,0.0624116,0,0,0,0,0.0217878,0.55585,-1.15187,34.8125,3,65522,6611167
273,-0.239453,0.692938,9.80364,-0.236133,-0.0427828,0.244717,-0.00246989,0.00689312,0.0980371,1,0.00017563,-0.000357851,0.000375622,0.035126,-0.0715702,0.0751244,0,0,0,0,0.012919,0.54609,-1.14751,34.8125,3,65525,6611467
274,-0.821896,-0.648235,10.4173,-0.68029,-1.96241,1.87743,-0.0082382,-0.00650756,0.10417,1,9.53066e-05,-0.000112597,0.000325109,0.0190613,-0.0225194,0.0650217,0,0,0,0,0.00746441,0.552999,-1.14935,34.8125,3,65529,6611867
275,-0.499055,0.270092,9.64516,-0.338883,-0.904699,0.652794,-0.00502578,0.00264761,0.0964512,1,0.000260947,-0.00017444,0.000296868,0.0521894,-0.034888,0.0593736,0,0,0,0,-0.000812229,0.543153,-1.14044,34.8125,3,65532,6612167
276,-0.603505,-0.251592,10.7301,-0.325145,-0.914628,1.98876,-0.00602489,-0.00247717,0.107303,1,-0.00019629,4.08544e-05,0.000279611,-0.039258,0.00817087,0.0559222,0,0,0,0,-0.00585169,0.549624,-1.14532,34.8125,3,65535,6612467
277,-1.14222,0.985015,9.07422,-0.52157,0.193542,0.592708,-0.0114292,0.00983913,0.0907425,1,2.46679e-05,-7.91863e-06,0.000286098,0.00493357,-0.00158373,0.0572195,0,0,0,0,-0.0116231,0.542577,-1.1303,34.8125,3,3,6612867
278,-1.27268,-0.0897024,9.81002,-0.950736,-0.935331,1.51644,-0.0127045,-0.000888469,0.0981032,1,-7.62145e-05,0.000111427,0.000251568,-0.0152429,0.0222855,0.0503136,0,0,0,0,-0.014079,0.539742,-1.13439,34.8125,3,6,6613167
279,-0.958923,-0.0360533,9.84315,-0.386249,-0.703598,1.16538,-0.00960281,-0.000380775,0.0984301,1,6.70333e-05,-7.0381e-05,0.000367128,0.0134067,-0.0140762,0.0734256,0,0,0,0,-0.01907,0.542939,-1.11965,34.8125,3,9,6613467
280,-0.665398,-0.526769,9.54693,-0.807885,-1.38927,0.922658,-0.00666674,-0.00524858,0.0954695,1,-0.000120038,-8.25494e-05,0.000285335,-0.0240075,-0.0165099,0.0570671,0,0,0,0,-0.0241293,0.538476,-1.11316,34.8125,3,13,6613867
281,-1.3225,-0.805771,9.16131,-0.961097,-1.14448,0.16659,-0.0132027,-0.00804925,0.091617,1,-9.27463e-05,9.30644e-05,0.000323174,-0.0185493,0.0186129,0.0646347,0,0,0,0,-0.0212816,0.545227,-1.10999,34.8125,3,16,6614167
282,-1.59946,1.21452,8.36263,-1.22364,0.535166,-0.0895536,-0.0160295,0.0121141,0.0836241,1,0.000126249,-0.000162955,0.000313748,0.0252497,-0.0325909,0.0627495,0,0,0,0,-0.0256922,0.537264,-1.09904,34.8125,3,19,6614467
283,-1.8324,-0.367685,9.09006,-1.20932,-1.07125,0.541955,-0.0182901,-0.00371259,0.0909059,1,0.000116304,0.000170093,0.000398595,0.0232608,0.0340186,0.0797189,0,0,0,0,-0.0262641,0.549381,-1.09422,34.8125,3,23,6614867
284,-1.45069,0.53189,8.36627,-1.041,-0.486841,-0.423091,-0.0145202,0.00528493,0.0836625,1,0.00014605,-5.83713e-05,0.000328199,0.0292099,-0.0116743,0.0656399,0,0,0,0,-0.0275702,0.540754,-1.07471,34.8125,3,26,6615167
285,-0.0510893,-0.595416,10.6,0.179986,-1.734,1.7381,-0.000512726,-0.00596134,0.106,1,3.22264e-05,-2.74733e-05,0.000335014,0.00644528,-0.00549466,0.0670028,0,0,0,0,-0.0267576,0.549047,-1.07503,34.8125,3,29,6615467
286,-0.0389321,0.604174,10.3568,0.121611,-0.731963,1.46133,-0.00039652,0.00598256,0.103572,1,0.000284437,-1.56285e-05,0.000329484,0.0568875,-0.00312571,0.0658969,0,0,0,0,-0.0281886,0.548702,-1.05483,34.8125,3,33,6615867
287,0.207515,-0.521023,10.6499,0.0063954,-1.25532,1.07414,0.00205531,-0.00517927,0.106501,1,-0.000139837,-0.000107043,0.000284254,-0.0279674,-0.0214087,0.0568508,0,0,0,0,-0.029082,0.545287,-1.0544,34.8125,3,36,6616167
288,-0.581595,0.797282,10.0105,-0.418971,-0.0844988,1.09676,-0.00582715,0.00794175,0.100107,1,0.000135776,-2.94783e-05,0.000332997,0.0271551,-0.00589567,0.0665994,0,0,0,0,-0.0306074,0.545493,-1.03772,34.8125,3,39,6616467
289,-0.530217,-0.235332,10.1148,-0.176096,-1.10483,1.16,-0.00530356,-0.00236972,0.101148,1,6.60138e-05,-1.36114e-05,0.000287727,0.0132028,-0.00272227,0.0575454,0,0,0,0,-0.0324189,0.53868,-1.03786,34.8125,3,42,6616767
290,-0.419765,-0.390004,10.1003,0.059864,-1.65064,1.51316,-0.00412937,-0.00392609,0.101005,1,0.000114163,0.000324135,0.000358152,0.0228327,0.0648271,0.0716304,0,0,0,0,-0.0273359,0.539887,-1.02574,34.8125,3,46,6617167
291,-1.4826,0.104568,8.86096,-1.07558,-0.606737,0.24995,-0.0148263,0.00102209,0.0886098,1,8.24383e-05,1.74783e-06,0.000302734,0.0164877,0.000349567,0.0605467,0,0,0,0,-0.0273277,0.526523,-1.01492,34.8125,3,49,6617467
292,-0.931804,2.26114,10.7224,0.374748,1.67387,2.28404,-0.00930106,0.0226576,0.107216,1,-0.000243284,0.000146952,0.000321007,-0.0486568,0.0293903,0.0642014,0,0,0,0,-0.0225004,0.525508,-1.01497,34.8125,3,53,6617867
293,-0.717828,0.791156,9.37599,0.00383302,0.0241421,0.591675,-0.00719621,0.00789235,0.0937602,1,8.1733e-05,-7.28995e-05,0.00026997,0.0163466,-0.0145799,0.053994,0,0,0,0,-0.021854,0.514434,-0.996025,34.8125,3,56,6618167
294,-1.24935,1.54086,8.8032,-0.98556,0.748978,0.146447,-0.0124818,0.0153941,0.0880362,1,3.80684e-05,0.000121771,0.000313625,0.00761369,0.0243542,0.062725,0,0,0,0,-0.0168118,0.516982,-1.00458,34.8125,3,59,6618467
295,-2.39667,-0.525045,7.8798,-2.21793,-1.01736,-1.05525,-0.0239649,-0.00527245,0.0787971,1,3.57878e-05,-1.11443e-05,0.000341241,0.00715757,-0.00222886,0.0682482,0,0,0,0,-0.0075704,0.508294,-0.986631,34.8125,3,63,6618867
296,-1.17326,0.80718,9.27975,-0.834411,-0.334053,0.461592,-0.0117376,0.00806353,0.0927976,1,3.04117e-06,1.71792e-06,0.000328416,0.000608234,0.000343583,0.0656831,0,0,0,0,-0.00177416,0.502446,-0.989819,34.8125,3,66,6619167
297,-0.407813,-1.01008,9.8096,-0.410341,-1.81002,0.663946,-0.00408631,-0.0100792,0.0980978,1,-0.000123622,-7.49759e-05,0.000323549,-0.0247244,-0.0149952,0.0647098,0,0,0,0,0.00437786,0.503085,-0.973671,34.8125,3,69,6619467
298,-1.13449,-0.0728827,9.87324,-0.392243,-0.735682,1.0807,-0.0113521,-0.000758508,0.0987314,1,0.000109931,-3.87208e-05,0.000351315,0.0219862,-0.00774416,0.0702629,0,0,0,0,0.0109504,0.494127,-0.966829,34.8125,3,73,6619867
299,-1.47021,0.468174,8.18827,-1.0882,0.190731,-0.46431,-0.0147102,0.00468602,0.081881,1,-8.58502e-05,-3.03337e-05,0.000332636,-0.01717,-0.00606675,0.0665271,0,0,0,0,0.0199582,0.501377,-0.967215,34.8125,3,76,6620167
300,-0.717366,0.911814,10.409,-0.0744454,-0.450867,1.57558,-0.00711885,0.00908201,0.104097,1,0.000152691,0.000289811,0.00030378,0.0305381,0.0579623,0.0607561,0,0,0,0,0.0251937,0.490426,-0.957381,34.8125,3,79,6620467
301,-1.31003,-0.393332,9.15936,-1.28238,-1.31016,0.0486796,-0.0131252,-0.00394482,0.0915895,1,2.42369e-05,-0.000147489,0.00026927,0.00484737,-0.0294978,0.053854,0,0,0,0,0.0345312,0.500191,-0.962258,34.8125,3,83,6620867
302,-0.803284,-0.195369,9.19769,-0.838317,-0.918766,0.0506284,-0.00805917,-0.00194924,0.0919747,1,-4.71006e-05,-0.000148643,0.000261701,-0.00942012,-0.0297287,0.0523402,0,0,0,0,0.0370498,0.492995,-0.942732,34.8125,3,86,6621167
303,-1.83338,1.59904,8.34095,-1.42656,0.808655,-0.463008,-0.0183289,0.0159703,0.0834144,1,5.31147e-05,8.78111e-05,0.000307425,0.0106229,0.0175622,0.061485,0,0,0,0,0.0435477,0.495522,-0.950787,34.8125,3,89,6621467
304,-1.33381,0.220756,9.70059,-0.89645,-0.363608,0.385804,-0.0133456,0.00223767,0.0970041,1,-0.000190937,-3.27625e-05,0.000259972,-0.0381874,-0.0065525,0.0519943,0,0,0,0,0.047884,0.488869,-0.935298,34.8125,3,92,6621767
305,-0.848608,0.224988,9.79435,-0.450986,-0.951354,0.990854,-0.00851165,0.00224862,0.0979413,1,-1.75772e-05,-0.000124199,0.000276707,-0.00351544,-0.0248399,0.0553414,0,0,0,0,0.0530316,0.486522,-0.94295,34.8125,3,96,6622167
306,-0.245944,-0.762501,10.4719,0.0166369,-2.07478,1.70844,-0.00247085,-0.00766559,0.104716,1,0.000186236,-7.78844e-05,0.000320688,0.0372472,-0.0155769,0.0641377,0,0,0,0,0.0575339,0.484914,-0.936946,34.8125,3,99,6622467
307,-0.761894,-0.448705,10.1574,-0.468641,-1.25208,1.36723,-0.00762318,-0.00452248,0.101572,1,0.000153369,-3.33104e-05,0.000279952,0.0306738,-0.00666208,0.0559903,0,0,0,0,0.0605688,0.472253,-0.939766,34.8125,3,103,6622867
308,-1.00279,-0.223156,10.0096,-0.23736,-1.34205,1.65829,-0.0100107,-0.00228288,0.100097,1,0.000222123,7.83786e-05,0.000341882,0.0444245,0.0156757,0.0683763,0,0,0,0,0.0675032,0.476737,-0.948285,34.8125,3,106,6623167
309,-1.35437,1.39888,10.0616,-0.319617,0.811175,1.68034,-0.0135346,0.013997,0.100617,1,-8.79618e-05,9.3574e-05,0.000349239,-0.0175924,0.0187148,0.0698478,0,0,0,0,0.0702781,0.461027,-0.944101,34.8125,3,109,6623467
310,-0.755645,-0.606565,9.16638,-0.617506,-1.90409,0.137066,-0.00754909,-0.00610708,0.0916616,1,0.000197856,1.74495e-05,0.000341634,0.0395711,0.0034899,0.0683268,0,0,0,0,0.0795797,0.461181,-0.957272,34.8125,3,113,6623867
311,-0.459716,-0.569233,10.1441,-0.0062755,-1.61062,1.24838,-0.0045744,-0.00570064,0.101441,1,2.46379e-05,9.19014e-05,0.000360689,0.00492759,0.0183803,0.0721377,0,0,0,0,0.0829272,0.448774,-0.946957,34.8125,3,116,6624167
312,-1.17772,-1.03689,9.8459,-0.688484,-1.95543,1.12118,-0.0117578,-0.010383,0.0984599,1,2.95955e-05,6.17027e-05,0.000350764,0.0059191,0.0123405,0.0701529,0,0,0,0,0.0896885,0.451938,-0.963585,34.8125,3,119,6624467
313,-0.940388,0.373241,10.1209,-0.460422,-0.577931,1.26422,-0.00941013,0.00371513,0.101209,1,5.47883e-05,-1.87784e-05,0.000328921,0.0109577,-0.00375568,0.0657843,0,0,0,0,0.0952337,0.445445,-0.957694,34.8125,3,123,6624867
314,-0.605273,0.589781,10.0302,-0.0973929,-0.770188,1.24453,-0.00607432,0.00585573,0.100303,1,0.000193589,-9.19727e-05,0.00026759,0.0387178,-0.0183946,0.0535179,0,0,0,0,0.0965803,0.438757,-0.966435,34.8125,3,126,6625167
315,-1.34231,-1.27954,9.3235,-1.05053,-2.42479,0.508902,-0.0134158,-0.0128261,0.0932318,1,0.000126805,3.12765e-06,0.000261485,0.0253609,0.00062553,0.0522971,0,0,0,0,0.102897,0.441551,-0.961857,34.8125,3,129,6625467
316,-1.34457,0.852821,8.76993,-1.42765,0.153507,-0.228094,-0.0134811,0.00849956,0.0876967,1,0.000120633,-0.000174896,0.000278038,0.0241266,-0.0349791,0.0556077,0,0,0,0,0.105321,0.432362,-0.967628,34.8125,3,133,6625867
317,0.88144,0.804577,11.7159,1.28062,-1.1265,3.21893,0.00884545,0.00798301,0.117161,1,0.00028916,0.000151894,0.000282971,0.057832,0.0303788,0.0565943,0,0,0,0,0.10937,0.441205,-0.973006,34.8125,3,136,6626167
318,-1.09068,0.463961,9.98185,-0.890651,-0.626205,1.40517,-0.0108828,0.00459866,0.099823,1,0.000174887,0.000133423,0.000277055,0.0349774,0.0266846,0.055411,0,0,0,0,0.108704,0.429913,-0.968708,34.8125,3,139,6626467
319,-0.88308,0.309933,9.2792,-0.57064,0.0479515,0.339951,-0.00886906,0.00313916,0.092787,1,-0.000236601,-0.000198425,0.000230552,-0.0473202,-0.0396849,0.0461104,0,0,0,0,0.110729,0.435954,-0.980199,34.8125,3,143,6626867
320,-0.588413,0.34042,10.3644,-0.334582,-1.26219,1.32639,-0.00590997,0.00333309,0.103645,1,0.000326129,-0.000114982,0.000296783,0.0652257,-0.0229964,0.0593566,0,0,0,0,0.108659,0.430428,-0.970211,34.8125,3,146,6627167
321,0.0338356,-0.997,10.6163,0.278769,-2.30086,1.73625,0.000323653,-0.00999777,0.10616,1,0.000131654,-9.50207e-05,0.00027404,0.0263307,-0.0190041,0.054808,0,0,0,0,0.109235,0.431666,-0.985338,34.8125,3,149,6627467
322,-1.7753,1.5855,9.66089,-0.896761,1.36388,1.21855,-0.0176977,0.0159024,0.0966112,1,-0.000288548,0.000324272,0.000233582,-0.0577096,0.0648543,0.0467163,0,0,0,0,0.10948,0.42715,-0.978369,34.8125,3,153,6627867
323,-2.25582,0.206991,8.23147,-1.63715,-0.543629,-0.210971,-0.0225613,0.00204933,0.0823143,1,4.79558e-05,-1.18992e-05,0.000281037,0.00959116,-0.00237983,0.0562074,0,0,0,0,0.106016,0.421948,-0.986045,34.8125,3,156,6628167
324,0.947009,0.443408,11.5547,1.71797,-1.07703,2.79857,0.0094763,0.00439732,0.115548,1,0.000186421,3.96227e-05,0.000333401,0.0372843,0.00792454,0.0666801,0,0,0,0,0.103162,0.421466,-0.985032,34.8125,3,159,6628467
325,-1.00716,-1.1742,8.56119,-0.949836,-2.06603,-0.296152,-0.0100766,-0.0117759,0.0856066,1,0.000164332,-6.89841e-05,0.000288695,0.0328664,-0.0137968,0.057739,0,0,0,0,0.0990209,0.406426,-0.987873,34.8125,3,163,6628867
326,-0.414816,1.16401,9.78097,0.22457,0.0687337,1.05155,-0.00416047,0.0116166,0.097812,1,0.0001081,-2.8606e-05,0.000288887,0.0216199,-0.0057212,0.0577775,0,0,0,0,0.0992069,0.409529,-0.997906,34.8125,3,166,6629167
327,-1.47004,-0.400656,9.14747,-0.994482,-1.38006,0.577653,-0.0146859,-0.00401264,0.0914768,1,1.19436e-05,7.33472e-05,0.000132316,0.00238871,0.0146694,0.0264632,0,0,0,0,0.0951607,0.396829,-0.995139,34.8125,3,169,6629467
328,-1.78247,0.280696,8.39746,-1.50988,-0.51183,-0.40743,-0.01781,0.002787,0.0839784,1,0.000101079,9.02633e-05,8.37542e-05,0.0202157,0.0180527,0.0167508,0,0,0,0,0.0928614,0.395191,-1.01183,34.8125,3,173,6629867
329,-0.728163,-0.442988,9.81354,-0.114419,-1.34074,1.41992,-0.00727586,-0.00442185,0.0981362,1,-4.41605e-05,2.74116e-05,4.40943e-05,-0.00883211,0.00548232,0.00881887,0,0,0,0,0.0904033,0.384783,-1.00145,34.8125,3,176,6630167
330,-0.251201,-0.84415,10.7917,0.0970121,-1.97756,1.97847,-0.00253871,-0.00847286,0.107914,1,0.000144561,-0.000126147,3.07272e-05,0.0289121,-0.0252294,0.00614544,0,0,0,0,0.0881993,0.385485,-1.01253,34.8125,3,179,6630467
331,-0.122899,0.123653,10.6172,0.243662,-1.13023,1.80459,-0.00123583,0.00120782,0.106172,1,0.000134832,-3.18201e-05,3.27648e-05,0.0269665,-0.00636402,0.00655295,0,0,0,0,0.085697,0.378482,-1.00156,34.8125,3,182,6630767
332,-0.810117,0.837313,10.3303,0.162849,-0.105424,1.89743,-0.00806035,0.00836626,0.103307,1,3.59206e-05,0.000194828,-3.36815e-05,0.00718411,0.0389656,-0.00673631,0,0,0,0,0.0821764,0.376694,-1.00916,34.8125,3,186,6631167
333,-1.15764,-0.592128,10.1695,-0.354162,-1.48571,1.74176,-0.0115594,-0.0059366,0.101696,1,7.8913e-05,8.54095e-05,-3.18648e-05,0.0157826,0.0170819,-0.00637297,0,0,0,0,0.0808616,0.379985,-1.00151,34.8125,3,189,6631467
334,-0.8696,0.518415,8.86288,-0.501278,-0.170586,0.105513,-0.00871723,0.00517785,0.0886271,1,3.68096e-05,-0.000120578,-1.30798e-05,0.00736192,-0.0241156,-0.00261597,0,0,0,0,0.0762982,0.370207,-0.998169,34.8125,3,193,6631867
335,-0.0902492,-0.0276867,11.4701,0.866652,-1.66257,3.18686,-0.000849377,-0.000304745,0.114702,1,0.000121731,0.000231606,-2.72641e-05,0.0243462,0.0463212,-0.00545282,0,0,0,0,0.0750763,0.381488,-1.00094,34.8125,3,196,6632167
336,-0.18406,-0.633573,11.2136,0.574705,-1.74343,2.72097,-0.00180842,-0.0063452,0.112136,1,4.28073e-05,0.00014555,-3.64398e-05,0.00856146,0.02911,-0.00728795,0,0,0,0,0.0682677,0.371612,-0.99103,34.8125,3,199,6632467
337,-0.998798,0.104336,8.97449,-0.721031,-0.66673,0.153787,-0.0100023,0.00106427,0.0897431,1,-0.000118864,-7.93621e-05,2.10675e-05,-0.0237729,-0.0158724,0.00421351,0,0,0,0,0.0656177,0.379039,-0.995903,34.8125,3,203,6632867
338,-0.0182888,-0.811029,10.6963,0.193559,-2.20086,1.61161,-0.000223001,-0.00814522,0.10696,1,0.00016307,-0.000194833,9.63783e-05,0.0326141,-0.0389667,0.0192757,0,0,0,0,0.0626973,0.37633,-0.979283,34.8125,3,206,6633167
339,0.13867,-0.588824,10.7841,0.237934,-1.45603,1.48603,0.00136207,-0.00586697,0.107843,1,-9.84501e-05,-0.000115058,1.6217e-05,-0.01969,-0.0230115,0.00324339,0,0,0,0,0.0576935,0.378438,-0.985779,34.8125,3,209,6633467
340,-0.2004,-0.0791293,10.5014,0.4299,-1.41663,1.80385,-0.00197197,-0.000823401,0.105014,1,0.000151985,0.000152181,4.71488e-05,0.030397,0.0304362,0.00942975,0,0,0,0,0.0536434,0.379234,-0.973621,34.8125,3,213,6633867
341,-1.77423,-0.710026,8.92763,-1.3113,-1.51325,0.182132,-0.0177543,-0.00710579,0.0892735,1,1.78258e-05,-7.23565e-05,6.58858e-05,0.00356517,-0.0144713,0.0131772,0,0,0,0,0.0488916,0.372002,-0.976285,34.8125,3,216,6634167
342,-0.587547,0.307615,10.8012,-0.297255,-0.366101,1.55659,-0.00586696,0.00305811,0.108013,1,8.03341e-05,4.10309e-05,5.84783e-05,0.0160668,0.00820618,0.0116957,0,0,0,0,0.0498509,0.375851,-0.973678,34.8125,3,219,6634467
343,0.648869,-0.588455,11.4421,1.35597,-1.70464,2.82117,0.00646899,-0.00590169,0.114421,1,7.6709e-05,-8.77379e-05,3.21571e-05,0.0153418,-0.0175476,0.00643141,0,0,0,0,0.0430172,0.364548,-0.965817,34.8125,3,223,6634867
344,-0.832362,0.092289,10.2304,-0.312705,-0.964428,1.28665,-0.00833016,0.000882588,0.102303,1,0.000193372,-3.1596e-05,4.42864e-05,0.0386743,-0.0063192,0.00885727,0,0,0,0,0.0437255,0.368099,-0.973822,34.8125,3,226,6635167
345,-2.53153,0.320843,8.94957,-1.72195,-0.225032,0.349253,-0.025275,0.00321864,0.0895067,1,-5.06557e-05,0.000224513,-2.26131e-05,-0.0101311,0.0449027,-0.00452262,0,0,0,0,0.039918,0.355706,-0.960949,34.8125,3,229,6635467
346,-0.488118,-0.315652,9.62134,0.00961019,-1.17112,0.822617,-0.00487613,-0.00313831,0.0962142,1,-9.34993e-05,2.69938e-05,-2.21282e-05,-0.0186999,0.00539876,-0.00442565,0,0,0,0,0.041544,0.361209,-0.96942,34.8125,3,232,6635767
347,-1.2283,0.109932,9.99356,-0.716134,-0.793643,1.08834,-0.0122664,0.00108285,0.0999378,1,7.78604e-05,8.34049e-05,3.69201e-05,0.0155721,0.016681,0.00738403,0,0,0,0,0.0406687,0.349723,-0.954014,34.8125,3,236,6636167
348,-0.700084,-0.300166,10.1901,-0.224388,-1.49697,1.43063,-0.00701428,-0.00300071,0.1019,1,-5.142e-06,-6.61327e-05,6.7588e-06,-0.0010284,-0.0132265,0.00135176,0,0,0,0,0.042808,0.35327,-0.962531,34.8125,3,239,6636467
349,-1.22508,-0.125152,10.0235,-0.745367,-0.774279,0.876259,-0.0122532,-0.00124062,0.100234,1,-5.72134e-05,-1.18677e-05,2.32039e-05,-0.0114427,-0.00237355,0.00464077,0,0,0,0,0.0416726,0.351612,-0.950947,34.8125,3,243,6636867
350,-0.35757,-0.185324,9.37914,-0.108578,-1.00754,0.328552,-0.00359486,-0.0018483,0.0937908,1,-2.67613e-05,-0.00010235,1.1065e-05,-0.00535225,-0.0204701,0.002213,0,0,0,0,0.0370404,0.345257,-0.948036,34.8125,3,246,6637167
351,-0.481437,-0.375044,10.1425,-0.286365,-1.16099,1.06733,-0.00480422,-0.00371878,0.101427,1,-0.000155278,5.06398e-05,-1.73213e-05,-0.0310555,0.010128,-0.00346426,0,0,0,0,0.0447401,0.350974,-0.943904,34.8125,3,249,6637467
352,-1.13148,-0.978884,9.93549,-0.816337,-2.04773,1.20224,-0.0112845,-0.00981171,0.0993561,1,0.000110808,0.000149167,3.74682e-05,0.0221616,0.0298334,0.00749365,0,0,0,0,0.0417121,0.345935,-0.933396,34.8125,3,253,6637867
353,-0.562518,0.592215,9.92676,0.0389628,-0.32708,1.17911,-0.0056581,0.00590068,0.099267,1,0.000102641,-0.000160028,9.69949e-05,0.0205282,-0.0320056,0.019399,0,0,0,0,0.0475428,0.358239,-0.94224,34.8125,3,256,6638167
354,-1.32086,0.490841,9.76639,-0.604382,-0.233826,0.914324,-0.0131744,0.00492162,0.0976679,1,-7.25915e-05,0.000176775,3.65784e-05,-0.0145183,0.035355,0.00731567,0,0,0,0,0.0428769,0.349152,-0.922723,34.8125,3,259,6638467
355,-1.27022,-0.46402,9.02498,-1.04023,-1.24363,-0.233809,-0.0127033,-0.00465089,0.0902491,1,5.18423e-05,-8.92389e-06,5.23582e-05,0.0103685,-0.00178478,0.0104716,0,0,0,0,0.0473458,0.359481,-0.929585,34.8125,3,263,6638867
356,-1.74987,-0.404547,8.50576,-1.4577,-1.18653,-0.41042,-0.017503,-0.00404281,0.0850568,1,-2.98238e-05,-2.83313e-05,6.90493e-05,-0.00596476,-0.00566625,0.0138099,0,0,0,0,0.0492124,0.358196,-0.912956,34.8125,3,266,6639167
357,-0.222138,-0.387507,11.1661,0.531464,-1.50834,2.56126,-0.00219774,-0.00390015,0.111661,1,0.000111352,0.000104211,4.64756e-05,0.0222705,0.0208421,0.00929511,0,0,0,0,0.0493908,0.363232,-0.921935,34.8125,3,269,6639467
358,-1.06279,0.439434,9.15585,-0.780019,-0.402546,0.186133,-0.0106352,0.00438434,0.0915582,1,5.09405e-05,-3.79573e-05,3.17108e-05,0.0101881,-0.00759146,0.00634215,0,0,0,0,0.0515629,0.365926,-0.909764,34.8125,3,273,6639867
359,-0.436027,-1.10535,10.9384,0.220856,-2.08287,1.97016,-0.00434578,-0.0110632,0.109384,1,4.40835e-05,6.49961e-05,1.18835e-05,0.00881669,0.0129992,0.0023767,0,0,0,0,0.0468044,0.363519,-0.909291,34.8125,3,276,6640167
360,-1.18176,-0.247738,9.51269,-0.828514,-0.830564,0.443137,-0.0118245,-0.00246408,0.0951264,1,-7.22955e-05,-3.65149e-05,1.91497e-05,-0.0144591,-0.00730299,0.00382995,0,0,0,0,0.0530769,0.368272,-0.905173,34.8125,3,279,6640467
361,0.0564318,0.15661,11.2984,0.543824,-1.03411,2.42958,0.000589157,0.00154806,0.112984,1,8.00937e-05,0.000110699,5.61989e-05,0.0160187,0.0221399,0.0112398,0,0,0,0,0.0500641,0.359367,-0.896771,34.8125,3,283,6640867
362,-0.63058,0.0557893,9.76364,-0.285512,-0.705106,0.728242,-0.00632101,0.000555292,0.0976354,1,1.04015e-05,-7.76646e-05,4.51405e-05,0.00208031,-0.0155329,0.00902811,0,0,0,0,0.0529123,0.367911,-0.912252,34.8125,3,286,6641167
363,-2.0377,0.4691,8.827,-1.55695,-0.154951,-0.0187924,-0.0203955,0.00467229,0.0882667,1,9.83143e-05,-0.000103536,3.31991e-05,0.0196629,-0.0207072,0.00663982,0,0,0,0,0.0538841,0.358874,-0.898315,34.8125,3,289,6641467
364,-1.01547,0.01497,10.4688,-0.465338,-0.943112,1.86487,-0.0101304,0.00015426,0.10469,1,-2.3778e-05,0.000116473,2.06611e-05,-0.00475561,0.0232946,0.00413223,0,0,0,0,0.0564586,0.360042,-0.910423,34.8125,3,293,6641867
365,-0.0577371,0.202905,10.0492,0.621956,-0.834152,1.30163,-0.000611814,0.00200807,0.100492,1,0.000104429,-0.000171477,-5.27902e-06,0.0208859,-0.0342954,-0.0010558,0,0,0,0,0.059695,0.360244,-0.895786,34.8125,3,296,6642167
366,-1.98102,0.11363,8.52116,-1.53741,-0.824609,-0.383044,-0.0198039,0.00110391,0.0852135,1,0.000178164,3.80493e-05,5.10545e-05,0.0356328,0.00760986,0.0102109,0,0,0,0,0.0631733,0.359038,-0.911991,34.8125,3,299,6642467
367,-0.822613,0.419999,9.61291,-0.66416,-0.209359,0.297133,-0.00825542,0.00421356,0.096126,1,-6.87892e-05,-0.000153252,-2.09407e-05,-0.0137578,-0.0306504,-0.00418814,0,0,0,0,0.0695692,0.363701,-0.902826,34.8125,3,303,6642867
368,-1.48132,-0.971522,9.98901,-0.954543,-1.98114,1.12922,-0.0148101,-0.00977182,0.099885,1,0.000276365,1.07581e-05,4.70866e-05,0.0552729,0.00215162,0.00941731,0,0,0,0,0.0658124,0.355956,-0.904496,34.8125,3,306,6643167
369,-0.170263,0.3089,10.9522,0.203913,-0.871623,1.9154,-0.0017259,0.00306346,0.109522,1,0.000115581,-0.000104423,6.43173e-05,0.0231162,-0.0208847,0.0128635,0,0,0,0,0.0733441,0.363723,-0.905873,34.8125,3,309,6643467
370,0.416277,-0.326732,10.6987,0.747451,-1.12885,1.39416,0.00411495,-0.00323549,0.106989,1,-0.00015103,-0.000221686,-5.87227e-05,-0.0302061,-0.0443373,-0.0117445,0,0,0,0,0.0750983,0.358183,-0.896913,34.8125,3,313,6643867
371,-1.40162,0.420476,10.0215,-0.834098,-1.05602,1.40128,-0.0139543,0.00415283,0.100226,1,0.000266042,0.000306935,-4.96527e-05,0.0532084,0.061387,-0.00993054,0,0,0,0,0.08224,0.368163,-0.912886,34.8125,3,316,6644167
372,-0.752224,-1.06093,10.2209,-0.267224,-2.02028,1.33733,-0.00753069,-0.0106301,0.102206,1,0.000110299,-2.89675e-05,-0.000119083,0.0220598,-0.0057935,-0.0238166,0,0,0,0,0.0846119,0.365411,-0.896292,34.8125,3,319,6644467
373,-0.655362,-0.182615,10.0375,-0.252338,-1.18194,1.06855,-0.00657644,-0.00184411,0.100373,1,9.44234e-05,-0.000112316,-7.54139e-05,0.0188847,-0.0224632,-0.0150828,0,0,0,0,0.0884513,0.374407,-0.910251,34.8125,3,323,6644867
374,-1.17413,0.29778,9.88972,-0.550539,-0.868252,1.33974,-0.0116943,0.00297478,0.0989029,1,2.89161e-05,0.000234372,-0.000115135,0.00578322,0.0468744,-0.023027,0,0,0,0,0.0935671,0.375108,-0.897128,34.8125,3,326,6645167
375,-0.0277876,-0.630564,10.9278,0.532339,-1.96754,2.34838,-0.000251507,-0.00633533,0.109276,1,0.000136122,0.000126311,-9.78636e-05,0.0272245,0.0252621,-0.0195727,0,0,0,0,0.0941036,0.381676,-0.910116,34.8125,3,329,6645467
376,-1.04455,-0.150563,9.44676,-0.645807,-0.961297,0.438786,-0.0104534,-0.0015041,0.0944667,1,2.65253e-06,-4.06837e-05,-9.74396e-05,0.000530507,-0.00813675,-0.0194879,0,0,0,0,0.100764,0.389867,-0.907439,34.8125,3,333,6645867
377,-1.7043,-0.198398,9.42854,-1.30663,-1.03683,0.518571,-0.0170473,-0.00200314,0.0942842,1,0.00012091,-2.05553e-05,-0.000106801,0.0241821,-0.00411106,-0.0213602,0,0,0,0,0.0995325,0.384423,-0.902504,34.8125,3,336,6646167
378,-0.558179,0.138695,10.395,-0.0345115,-0.79123,1.55747,-0.0055734,0.00137669,0.103951,1,5.23032e-05,3.96186e-05,-5.5408e-05,0.0104606,0.00792372,-0.0110816,0,0,0,0,0.103534,0.397638,-0.906774,34.8125,3,339,6646467
379,-0.639634,0.47204,9.71154,-0.177481,-0.361316,0.841052,-0.00638292,0.00473393,0.0971156,1,-6.52668e-05,6.5819e-05,-6.72536e-05,-0.0130534,0.0131638,-0.0134507,0,0,0,0,0.103828,0.393086,-0.897785,34.8125,3,343,6646867
380,-1.31358,-0.439599,9.62479,-0.935343,-1.2781,0.850384,-0.0131299,-0.00440116,0.0962484,1,4.02567e-05,3.51317e-05,-9.83017e-05,0.00805135,0.00702633,-0.0196603,0,0,0,0,0.105575,0.404148,-0.917245,34.8125,3,346,6647167
381,-0.468374,-0.456333,10.2425,-0.0327995,-1.70703,1.42201,-0.00471895,-0.00457204,0.102423,1,4.69936e-05,-0.000167544,-9.80743e-05,0.00939873,-0.0335088,-0.0196149,0,0,0,0,0.102143,0.396648,-0.905274,34.8125,3,349,6647467
382,-0.0136218,-0.487192,10.0411,-0.0191422,-1.60886,1.22587,-0.000166727,-0.00488782,0.10041,1,7.92518e-05,-0.000149713,-4.54151e-05,0.0158504,-0.0299425,-0.00908302,0,0,0,0,0.104458,0.407643,-0.921203,34.8125,3,352,6647767
383,-1.03226,-0.37048,9.65448,-0.521231,-1.05104,0.710193,-0.0103277,-0.0037006,0.0965444,1,-1.48686e-05,-2.35775e-05,-6.44231e-05,-0.00297372,-0.00471549,-0.0128846,0,0,0,0,0.105216,0.399726,-0.915321,34.8125,3,356,6648167
384,-1.23911,0.257146,9.09579,-1.00224,-0.814369,-0.0548406,-0.0123931,0.00252429,0.090959,1,0.000268648,-1.32847e-05,-6.87003e-05,0.0537296,-0.00265693,-0.0137401,0,0,0,0,0.102931,0.402416,-0.928383,34.8125,3,359,6648467
385,-0.533791,0.23024,10.3905,-0.099682,-1.07075,1.37985,-0.00534179,0.00227623,0.103906,1,0.00012902,-1.99649e-05,-6.00236e-05,0.025804,-0.00399298,-0.0120047,0,0,0,0,0.107013,0.399322,-0.920894,34.8125,3,362,6648767
386,-1.08716,0.0410314,10.2442,-0.428648,-1.01607,1.51136,-0.0108999,0.00039643,0.102439,1,7.60263e-05,-0.00013823,-7.77081e-05,0.0152053,-0.027646,-0.0155416,0,0,0,0,0.105837,0.399004,-0.929987,34.8125,3,366,6649167
387,-0.0277351,-0.217286,10.1663,0.530287,-1.34931,1.07043,-0.000290288,-0.00218118,0.101662,1,4.10431e-05,-6.26674e-05,-4.48685e-05,0.00820862,-0.0125335,-0.00897369,0,0,0,0,0.110366,0.406398,-0.936409,34.8125,3,369,6649467
388,-0.53666,0.535282,9.91652,-0.0105971,-0.470595,1.20126,-0.00534224,0.00534994,0.0991667,1,1.72201e-05,0.000120146,-4.97715e-05,0.00344402,0.0240291,-0.00995431,0,0,0,0,0.107177,0.397141,-0.93559,34.8125,3,372,6649767
389,-1.25667,-0.595291,9.94267,-0.664289,-1.49449,0.996222,-0.0125606,-0.00596152,0.099427,1,4.9312e-05,3.36273e-05,-4.74021e-05,0.00986239,0.00672547,-0.00948041,0,0,0,0,0.110424,0.406222,-0.954091,34.8125,3,376,6650167
390,-0.629218,-0.67088,10.0701,-0.05295,-1.74481,1.25808,-0.00627873,-0.00674128,0.1007,1,0.000162967,6.86006e-05,-2.73112e-05,0.0325934,0.0137201,-0.00546225,0,0,0,0,0.108961,0.396745,-0.941668,34.8125,3,379,6650467
391,-0.312651,-0.0506468,10.2388,0.128783,-1.2899,1.38996,-0.00312469,-0.000531869,0.102388,1,0.000125849,9.17482e-06,-5.91298e-05,0.0251698,0.00183496,-0.011826,0,0,0,0,0.11026,0.407306,-0.960127,34.8125,3,382,6650767
392,-1.33575,-0.104385,9.37707,-0.908235,-1.01728,0.27303,-0.0133459,-0.00106128,0.0937722,1,0.000102191,6.25202e-05,-6.50183e-05,0.0204383,0.012504,-0.0130037,0,0,0,0,0.112981,0.403682,-0.949613,34.8125,3,386,6651167
393,-0.862269,-0.0961822,10.3284,-0.16151,-1.00258,1.68652,-0.00857799,-0.000949248,0.103288,1,-5.4524e-05,0.000217106,-7.61707e-05,-0.0109048,0.0434212,-0.0152341,0,0,0,0,0.110642,0.407374,-0.964167,34.8125,3,389,6651467
394,-0.819943,-0.187265,10.2253,-0.393243,-1.35891,1.42602,-0.00818416,-0.00189419,0.102254,1,0.000110952,7.59326e-05,-7.03502e-05,0.0221904,0.0151865,-0.01407,0,0,0,0,0.113234,0.410109,-0.954522,34.8125,3,392,6651767
395,-1.01129,0.0933147,9.3904,-0.81442,-0.783544,0.447355,-0.0101373,0.000908541,0.0939016,1,0.000139648,-0.000130706,-8.00036e-05,0.0279296,-0.0261413,-0.0160007,0,0,0,0,0.109265,0.407819,-0.961121,34.8125,3,396,6652167
396,-0.0483046,-0.235331,11.3161,0.16408,-1.48919,1.9129,-0.000483088,-0.00236621,0.113161,1,5.72603e-05,1.15676e-06,-6.42136e-05,0.0114521,0.000231352,-0.0128427,0,0,0,0,0.112698,0.421101,-0.968922,34.8125,3,399,6652467
397,-1.12302,-1.10711,10.1525,-0.767454,-1.89371,1.25268,-0.0111952,-0.0110777,0.101528,1,4.10584e-05,0.000180468,-7.80388e-05,0.00821167,0.0360935,-0.0156078,0,0,0,0,0.107269,0.415116,-0.958929,34.8125,3,403,6652867
398,-0.960017,0.601289,9.9145,-0.469494,-0.52625,1.11301,-0.00959099,0.00599633,0.0991469,1,9.23013e-05,4.07638e-05,-9.11054e-05,0.0184602,0.00815276,-0.0182211,0,0,0,0,0.105224,0.425687,-0.976362,34.8125,3,406,6653167
399,-0.818851,-0.304213,9.87568,-0.193209,-1.46007,1.23498,-0.00820188,-0.00303335,0.098756,1,-3.63535e-05,-6.46584e-05,-9.7423e-05,-0.0072707,-0.0129317,-0.0194846,0,0,0,0,0.102336,0.421027,-0.959785,34.8125,3,409,6653467
400,-1.0562,-0.778335,9.38051,-0.83305,-1.51115,0.326351,-0.0105856,-0.00779088,0.0938018,1,4.87611e-05,-0.000119836,-7.65657e-05,0.00975221,-0.0239671,-0.0153131,0,0,0,0,0.101209,0.43355,-0.977684,34.8125,3,412,6653767
401,-2.19146,-0.180816,8.50591,-1.84853,-0.826591,-0.338444,-0.0219228,-0.00180984,0.085057,1,2.47091e-05,-4.69901e-05,-5.7667e-05,0.00494182,-0.00939802,-0.0115334,0,0,0,0,0.0981694,0.431411,-0.965596,34.8125,3,416,6654167
402,-1.81836,0.340172,8.4441,-1.60163,-0.701736,-0.508553,-0.0181905,0.00339034,0.08444,1,8.34457e-05,-4.37713e-05,-7.45066e-05,0.0166891,-0.00875427,-0.0149013,0,0,0,0,0.0927006,0.432547,-0.972111,34.8125,3,419,6654467
403,-0.780381,-0.320911,10.0294,-0.19522,-1.77459,1.21995,-0.00777717,-0.00325668,0.100295,1,0.000242507,0.000135015,-6.90965e-05,0.0485015,0.0270031,-0.0138193,0,0,0,0,0.0875364,0.434425,-0.96548,34.8125,3,422,6654767
404,-1.93001,-0.139862,8.88307,-1.62742,-0.72019,-0.091989,-0.0193361,-0.00139642,0.0888229,1,-1.57312e-06,-0.000201761,-4.97446e-05,-0.000314623,-0.0403522,-0.00994893,0,0,0,0,0.0798291,0.430641,-0.968558,34.8125,3,426,6655167
405,-0.785884,-0.075087,9.92782,-0.414421,-1.3651,0.860513,-0.0078957,-0.000780413,0.0992751,1,0.000150908,-0.000185432,-2.66493e-05,0.0301817,-0.0370863,-0.00532985,0,0,0,0,0.0785892,0.437116,-0.97548,34.8125,3,429,6655467
406,-1.36968,0.408362,9.66183,-0.751248,-0.556203,0.938372,-0.0136781,0.00408338,0.0966209,1,7.93552e-06,9.48983e-05,-4.71699e-05,0.00158711,0.0189797,-0.00943399,0,0,0,0,0.0707372,0.430681,-0.966495,34.8125,3,432,6655767
407,-0.209171,-0.305078,10.8278,0.158208,-1.66625,2.01171,-0.0020624,-0.00307677,0.108277,1,0.000121136,0.000137015,-6.01213e-05,0.0242272,0.027403,-0.0120243,0,0,0,0,0.0683586,0.438257,-0.979953,34.8125,3,436,6656167
408,-0.435511,0.485649,10.2923,-0.0591363,-0.753832,1.50051,-0.00436439,0.00481818,0.102924,1,0.000186514,-4.55565e-05,-1.00915e-05,0.0373028,-0.0091113,-0.0020183,0,0,0,0,0.0641606,0.426284,-0.963027,34.8125,3,439,6656467
409,-1.07604,-0.352332,10.7515,-0.494988,-1.65014,1.84672,-0.0107616,-0.0035452,0.107514,1,0.000109651,-3.05578e-06,-7.89955e-05,0.0219303,-0.000611156,-0.0157991,0,0,0,0,0.0576066,0.428964,-0.973544,34.8125,3,443,6656867
410,-1.26882,0.0539137,9.61976,-0.638313,-0.87424,0.767012,-0.0127105,0.000525089,0.0961948,1,7.84617e-05,-0.00011612,-4.12626e-05,0.0156923,-0.0232239,-0.00825251,0,0,0,0,0.0582813,0.429782,-0.964943,34.8125,3,446,6657167
411,-1.07357,0.106874,9.40973,-0.493308,-0.864131,0.570057,-0.0107357,0.00106284,0.0940973,1,3.65055e-05,-5.42068e-07,-4.50634e-05,0.0073011,-0.000108414,-0.00901268,0,0,0,0,0.0523428,0.428024,-0.973035,34.8125,3,449,6657467
412,-2.41576,0.188005,8.76951,-1.71637,-0.488063,-0.0147405,-0.0241509,0.00187346,0.0876971,1,5.05114e-05,3.70115e-05,-4.69117e-05,0.0101023,0.0074023,-0.00938234,0,0,0,0,0.05219,0.42586,-0.960961,34.8125,3,452,6657767
413,-0.833287,-0.6647,10.1946,-0.340091,-1.69688,1.18337,-0.00833975,-0.0066689,0.101944,1,0.000112848,-2.93343e-05,-6.6828e-05,0.0225695,-0.00586686,-0.0133656,0,0,0,0,0.0494044,0.42051,-0.960562,34.8125,3,456,6658167
414,-0.898023,0.514363,10.3876,-0.0607208,-0.228102,1.65072,-0.00896757,0.00514627,0.103877,1,-6.91822e-06,5.75746e-05,-6.72624e-05,-0.00138364,0.0115149,-0.0134525,0,0,0,0,0.0486177,0.429411,-0.966927,34.8125,3,459,6658467
415,-1.0681,0.452818,9.95722,-0.931749,-0.837326,0.98908,-0.0106785,0.00450196,0.0995737,1,0.000137074,1.01653e-05,-5.04471e-05,0.0274148,0.00203306,-0.0100894,0,0,0,0,0.0437625,0.41998,-0.955497,34.8125,3,462,6658767
416,-1.14829,-0.184524,10.3505,-0.848687,-1.13584,1.4349,-0.0114758,-0.00187161,0.103505,1,0.000136367,3.6013e-05,-8.12822e-05,0.0272733,0.0072026,-0.0162565,0,0,0,0,0.0444224,0.426457,-0.963437,34.8125,3,466,6659167
417,-2.10942,-0.114747,9.45177,-1.5439,-1.18342,0.726215,-0.0210638,-0.00115947,0.0945243,1,7.23438e-05,0.000161134,-3.97702e-05,0.0144688,0.0322267,-0.00795404,0,0,0,0,0.0454126,0.423672,-0.944312,34.8125,3,469,6659467
418,-2.00263,-0.222329,9.84869,-1.35346,-1.02937,0.951684,-0.0199941,-0.00224493,0.098493,1,0.000115571,0.000164316,-2.79888e-05,0.0231142,0.0328632,-0.00559776,0,0,0,0,0.0416263,0.426897,-0.959374,34.8125,3,472,6659767
419,-2.66501,0.0365743,10.2053,-1.97082,-0.874943,1.55197,-0.0266215,0.000356803,0.10206,1,6.45793e-05,0.000139675,-7.96149e-05,0.0129159,0.027935,-0.015923,0,0,0,0,0.0440077,0.427992,-0.939664,34.8125,3,476,6660167
420,-3.8727,0.138448,8.72081,-3.79368,-0.486266,-0.177434,-0.0387334,0.00137107,0.0872055,1,9.14562e-05,-3.7164e-05,-3.27829e-05,0.0182912,-0.0074328,-0.00655658,0,0,0,0,0.0430355,0.422707,-0.943817,34.8125,3,479,6660467
421,-2.23411,-0.232571,9.76063,-1.92572,-0.892287,1.13657,-0.0223461,-0.00233236,0.097605,1,4.37906e-05,-2.47409e-05,-4.25096e-05,0.00875811,-0.00494819,-0.00850193,0,0,0,0,0.0414682,0.433893,-0.941036,34.8125,3,483,6660867
422,-3.86154,-0.234533,9.35756,-2.7016,-0.986208,1.02405,-0.0386009,-0.0023585,0.0935812,1,6.1667e-05,7.69289e-05,2.11255e-05,0.0123334,0.0153858,0.0042251,0,0,0,0,0.0396388,0.421927,-0.925636,34.8125,3,486,6661167
423,-2.94409,0.0917333,9.67006,-2.02762,-0.869781,0.860965,-0.0294692,0.000902863,0.0966921,1,8.05146e-05,-0.000146445,-1.86787e-05,0.0161029,-0.029289,-0.00373573,0,0,0,0,0.0458144,0.432881,-0.941078,34.8125,3,489,6661467
424,-2.15483,-0.159902,9.46443,-2.50828,-1.08496,0.571889,-0.02158,-0.00157929,0.0946375,1,-0.000101207,-0.000167147,-1.33985e-05,-0.0202414,-0.0334294,-0.0026797,0,0,0,0,0.0381759,0.425326,-0.924039,34.8125,3,492,6661767
425,-2.62836,0.803337,9.38582,-3.12366,-0.343413,0.144071,-0.0262824,0.00799696,0.0938617,1,0.000196921,5.79256e-06,-1.06096e-05,0.0393842,0.00115851,-0.00212193,0,0,0,0,0.0373512,0.431364,-0.934002,34.8125,3,496,6662167
426,-2.96739,-0.211088,9.09888,-2.88148,-0.510578,0.286534,-0.0297441,-0.00211067,0.0909658,1,-9.36665e-07,-0.000385823,-6.49995e-07,-0.000187333,-0.0771647,-0.000129999,0,0,0,0,0.0412681,0.42467,-0.915987,34.8125,3,499,6662467
427,-1.46337,0.272304,9.79451,-0.913936,-0.474487,0.725545,-0.014652,0.00270373,0.0979429,1,9.62852e-05,-9.28343e-05,1.53973e-05,0.019257,-0.0185669,0.00307946,0,0,0,0,0.0401687,0.433318,-0.935487,34.8125,3,502,6662767
428,-2.26877,0.305931,9.9572,-1.99481,-0.955488,0.834475,-0.0226995,0.00306128,0.0995692,1,-1.91797e-05,-5.80089e-05,4.05571e-05,-0.00383594,-0.0116018,0.00811142,0,0,0,0,0.0413985,0.434078,-0.923859,34.8125,3,506,6663167
429,-2.54032,0.297665,9.27462,-1.86185,-0.426692,0.435019,-0.0254253,0.00296879,0.0927404,1,4.36471e-05,-0.000119481,-4.58423e-06,0.00872942,-0.0238961,-0.000916847,0,0,0,0,0.0379396,0.432245,-0.928935,34.8125,3,509,6663467
430,-2.44949,-0.288864,9.66579,-1.77937,-1.03926,0.799095,-0.0245022,-0.00290211,0.0966556,1,6.60309e-05,-3.81491e-05,1.43645e-05,0.0132062,-0.00762983,0.0028729,0,0,0,0,0.04007,0.433042,-0.919836,34.8125,3,512,6663767
431,-1.75112,-0.0389479,9.60504,-1.18711,-1.1406,0.765556,-0.0175124,-0.000391907,0.0960502,1,7.59031e-06,-6.41643e-06,2.7694e-05,0.00151806,-0.00128329,0.0055388,0,0,0,0,0.0373052,0.42864,-0.917901,34.8125,3,516,6664167
432,-1.88501,0.0848769,9.50668,-1.36467,-0.924735,0.613853,-0.0188589,0.000834616,0.0950652,1,6.90339e-05,-4.58381e-05,2.72545e-05,0.0138068,-0.00916762,0.0054509,0,0,0,0,0.0407617,0.436123,-0.928862,34.8125,3,519,6664467
433,-1.7271,-0.198474,9.79252,-1.09524,-1.02533,0.95258,-0.0172718,-0.00199639,0.0979248,1,4.84138e-05,-4.94429e-06,6.27153e-05,0.00968277,-0.000988858,0.0125431,0,0,0,0,0.0377944,0.428148,-0.917914,34.8125,3,522,6664767
434,-1.61344,0.113078,9.62597,-1.08278,-0.969714,0.779216,-0.0161573,0.00112941,0.0962559,1,-7.41034e-07,-0.000118347,4.68721e-05,-0.000148207,-0.0236694,0.00937443,0,0,0,0,0.0392206,0.439098,-0.930808,34.8125,3,525,6665067
435,0.0697198,-0.159954,9.98353,0.48057,-1.41319,0.949199,0.000669771,-0.00160827,0.0998353,1,4.38987e-05,-0.000137847,3.01614e-05,0.00877973,-0.0275693,0.00603228,0,0,0,0,0.0372198,0.431594,-0.91935,34.8125,3,529,6665467
436,-0.969345,0.0958425,9.72519,-0.451967,-1.2988,0.714365,-0.009705,0.000952025,0.0972508,1,2.74383e-05,-5.88905e-05,5.48326e-05,0.00548765,-0.0117781,0.0109665,0,0,0,0,0.0391571,0.433362,-0.937502,34.8125,3,532,6665767
437,-0.742721,-0.0149898,9.6429,-0.288569,-1.1499,0.714708,-0.00743224,-0.000156598,0.0964286,1,3.37992e-05,-2.60986e-05,1.21903e-05,0.00675984,-0.00521971,0.00243806,0,0,0,0,0.0391884,0.428172,-0.91994,34.8125,3,535,6666067
438,-0.61864,0.0202291,9.80247,-0.12107,-1.2149,0.85177,-0.00619386,0.000189169,0.0980242,1,6.4101e-05,-3.79719e-05,4.48564e-05,0.0128202,-0.00759438,0.00897129,0,0,0,0,0.0384074,0.429359,-0.931526,34.8125,3,539,6666467
439,-0.54015,0.0268157,9.73821,-0.0251669,-1.20597,0.777803,-0.00540457,0.000257765,0.0973819,1,5.1325e-05,-1.5626e-05,3.65882e-05,0.010265,-0.00312519,0.00731764,0,0,0,0,0.0370428,0.431241,-0.926933,34.8125,3,542,6666767
440,-0.639784,0.00960371,9.81233,-0.101095,-1.21244,0.850083,-0.00640105,8.41485e-05,0.0981231,1,5.97146e-05,-1.63334e-05,1.32732e-05,0.0119429,-0.00326668,0.00265464,0,0,0,0,0.0348005,0.427287,-0.92297,34.8125,3,546,6667167
441,-0.585887,-0.014998,9.80871,-0.0486949,-1.23128,0.841477,-0.00586295,-0.000161644,0.0980868,1,5.858e-05,-2.08138e-05,1.47093e-05,0.011716,-0.00416276,0.00294186,0,0,0,0,0.0377678,0.435262,-0.933917,34.8125,3,549,6667467
442,-0.484163,0.0234863,9.77883,0.0865609,-1.23074,0.829408,-0.00484235,0.000226334,0.0977883,1,4.27161e-05,-3.64127e-06,1.80266e-05,0.00854322,-0.000728254,0.00360533,0,0,0,0,0.0357215,0.426827,-0.925004,34.8125,3,552,6667767
443,-0.713059,0.00930718,9.80504,-0.195154,-1.20729,0.839483,-0.00713672,8.25389e-05,0.09805,1,5.2184e-05,-3.12124e-05,2.09955e-05,0.0104368,-0.00624248,0.00419909,0,0,0,0,0.0352877,0.43389,-0.937977,34.8125,3,556,6668167
444,-0.710459,0.0356829,9.7954,-0.167505,-1.17276,0.85442,-0.00710981,0.000347207,0.0979537,1,4.73539e-05,-2.65613e-05,2.42258e-05,0.00947078,-0.00531226,0.00484517,0,0,0,0,0.03626,0.4263,-0.922998,34.8125,3,559,6668467
445,-0.780245,-0.0145214,9.75068,-0.25094,-1.21589,0.80075,-0.00780715,-0.000157492,0.0975064,1,6.08512e-05,-2.41096e-05,2.63749e-05,0.0121702,-0.00482192,0.00527498,0,0,0,0,0.0343986,0.430954,-0.937028,34.8125,3,562,6668767
446,-0.755667,0.00181261,9.74996,-0.208055,-1.28678,0.804413,-0.00755538,1.35698e-05,0.0974997,1,2.28136e-05,6.61439e-06,7.12445e-06,0.00456273,0.00132288,0.00142489,0,0,0,0,0.0403281,0.43031,-0.931009,34.8125,3,566,6669167
447,-0.744326,-0.00820777,9.79154,-0.195511,-1.21655,0.85498,-0.00744906,-9.07048e-05,0.0979149,1,4.27515e-05,-2.96219e-05,1.71264e-05,0.0085503,-0.00592438,0.00342528,0,0,0,0,0.0340812,0.428429,-0.932032,34.8125,3,569,6669467
448,-0.599002,0.00600727,9.77608,-0.0421983,-1.22092,0.816773,-0.005997,5.2138e-05,0.0977604,1,4.01048e-05,-3.57011e-05,7.78231e-06,0.00802096,-0.00714021,0.00155646,0,0,0,0,0.0389222,0.43174,-0.928445,34.8125,3,572,6669767
449,-0.776109,-0.141507,9.78077,-0.208856,-1.33337,0.841928,-0.00776417,-0.00142421,0.0978073,1,4.40609e-05,-1.62102e-05,3.37988e-05,0.00881219,-0.00324204,0.00675977,0,0,0,0,0.0348323,0.423891,-0.924055,34.8125,3,576,6670167
450,-0.754768,0.148795,9.8323,-0.201604,-1.03356,0.877671,-0.00755621,0.00147818,0.0983225,1,4.98983e-05,-4.34462e-05,-2.36046e-06,0.00997966,-0.00868925,-0.000472093,0,0,0,0,0.0362751,0.43531,-0.93593,34.8125,3,579,6670467
451,0.554595,0.0412095,9.92272,1.41278,-0.10304,0.875123,0.00553733,0.000436067,0.0992276,1,-0.000122605,-4.36029e-05,-3.25128e-05,-0.024521,-0.00872057,-0.00650256,0,0,0,0,0.0338501,0.425841,-0.923502,34.8125,3,582,6670767
452,-1.085,-0.151469,9.86341,-0.526715,-1.11063,0.906997,-0.010816,-0.00153303,0.0986375,1,8.41001e-05,0.000171076,8.05243e-05,0.01682,0.0342153,0.0161049,0,0,0,0,0.0348393,0.433389,-0.936976,34.8125,3,586,6671167
453,-1.05408,0.377321,9.71619,-0.360237,-1.0396,0.845009,-0.0105365,0.00377513,0.0971623,1,-1.15789e-05,2.24981e-05,1.54371e-05,-0.00231577,0.00449963,0.00308741,0,0,0,0,0.0371823,0.430176,-0.921906,34.8125,3,589,6671467
454,-0.529649,-0.397894,9.67787,0.0191268,-1.67896,0.70166,-0.00530022,-0.00398757,0.0967781,1,4.60355e-05,-1.81552e-05,-2.72575e-05,0.00920709,-0.00363103,-0.0054515,0,0,0,0,0.0362746,0.433864,-0.936972,34.8125,3,592,6671767
455,-1.34537,-0.0348373,9.86663,-0.764008,-1.22719,0.932664,-0.013463,-0.000362064,0.098665,1,5.99376e-05,-4.75963e-05,6.92181e-05,0.0119875,-0.00951925,0.0138436,0,0,0,0,0.0384454,0.432223,-0.927927,34.8125,3,596,6672167
456,-2.28595,0.301932,9.64905,-1.77401,-0.783338,0.818945,-0.0228737,0.00299769,0.0964878,1,0.000101013,-7.18772e-05,4.66758e-05,0.0202026,-0.0143754,0.00933515,0,0,0,0,0.0360512,0.429343,-0.929496,34.8125,3,599,6672467
457,-1.16347,0.266291,9.71582,-0.652883,-0.890525,0.783978,-0.0116654,0.00264646,0.097155,1,8.55284e-05,-0.000158213,-7.24971e-06,0.0171057,-0.0316427,-0.00144994,0,0,0,0,0.0398645,0.433674,-0.927902,34.8125,3,602,6672767
458,1.56646,-0.325122,9.65847,1.71626,-2.66104,0.302766,0.0156719,-0.00327763,0.0965827,1,0.000126777,3.99739e-05,-6.12791e-05,0.0253553,0.00799479,-0.0122558,0,0,0,0,0.0338705,0.425344,-0.923009,34.8125,3,606,6673167
459,-1.85834,-0.158217,9.81336,-1.34004,-1.97272,0.975918,-0.0185647,-0.00158855,0.0981371,1,1.20608e-05,9.39039e-05,0.000108026,0.00241217,0.0187808,0.0216052,0,0,0,0,0.0372454,0.434814,-0.935945,34.8125,3,609,6673467
460,-1.09934,0.199067,9.62822,-0.482172,-0.957202,0.7087,-0.0109932,0.00197947,0.0962825,1,6.1605e-05,3.98448e-07,-3.03342e-05,0.012321,7.96897e-05,-0.00606684,0,0,0,0,0.0358078,0.426764,-0.921471,34.8125,3,612,6673767
461,-0.33442,0.207636,9.73223,0.250611,-1.14048,0.769608,-0.00333596,0.00206199,0.0973229,1,7.18454e-05,4.35604e-05,5.6863e-05,0.0143691,0.00871207,0.0113726,0,0,0,0,0.0358832,0.431394,-0.935005,34.8125,3,616,6674167
462,-0.96531,-0.154325,9.80632,-0.370512,-1.37873,0.85885,-0.00964822,-0.00155031,0.0980636,1,3.52953e-05,2.47748e-05,7.34455e-06,0.00705906,0.00495496,0.00146891,0,0,0,0,0.0377816,0.426712,-0.919461,34.8125,3,619,6674467
463,-1.21263,0.014753,9.80341,-0.598656,-1.36116,0.895797,-0.0121245,0.000132033,0.0980344,1,7.68192e-05,9.36064e-06,1.79554e-05,0.0153638,0.00187213,0.00359108,0,0,0,0,0.0383135,0.431356,-0.934007,34.8125,3,622,6674767
464,-1.01521,0.0511227,9.82857,-0.472789,-1.17938,0.891657,-0.0101664,0.000508702,0.0982842,1,8.97389e-06,-7.2803e-05,3.74467e-05,0.00179478,-0.0145606,0.00748933,0,0,0,0,0.0379723,0.431739,-0.927936,34.8125,3,626,6675167
465,-0.674872,0.0773079,9.75175,-0.0868232,-1.13077,0.81528,-0.00675029,0.000762633,0.0975175,1,5.267e-05,-7.90712e-06,1.28633e-05,0.010534,-0.00158142,0.00257266,0,0,0,0,0.0351787,0.426876,-0.927526,34.8125,3,629,6675467
466,-0.790438,-0.103551,9.76861,-0.229693,-1.37194,0.794464,-0.00790133,-0.00103788,0.0976863,1,1.06712e-05,1.54452e-05,1.82276e-05,0.00213424,0.00308903,0.00364552,0,0,0,0,0.0389635,0.432192,-0.926415,34.8125,3,632,6675767
467,-0.872366,0.0358258,9.769,-0.30361,-1.16693,0.834887,-0.00872192,0.000348775,0.0976902,1,4.56165e-05,8.99809e-06,3.27284e-05,0.0091233,0.00179962,0.00654567,0,0,0,0,0.0367573,0.42532,-0.923022,34.8125,3,636,6676167
468,-0.788039,-0.0627188,9.78796,-0.213607,-1.26516,0.846838,-0.00788189,-0.0006408,0.0978794,1,6.70831e-05,-7.85989e-06,3.04077e-05,0.0134166,-0.00157198,0.00608155,0,0,0,0,0.0392396,0.434265,-0.933441,34.8125,3,639,6676467
469,-0.825451,0.0447208,9.79559,-0.234756,-1.27725,0.857,-0.00825829,0.000441387,0.0979556,1,2.78242e-05,-1.91679e-05,2.24176e-05,0.00556485,-0.00383359,0.00448351,0,0,0,0,0.0373205,0.424774,-0.920007,34.8125,3,642,6676767
470,-0.735028,-0.0408179,9.77251,-0.165616,-1.28989,0.813468,-0.00735033,-0.000420278,0.097725,1,6.06924e-05,-3.26023e-07,1.60579e-05,0.0121385,-6.52046e-05,0.00321158,0,0,0,0,0.033898,0.434345,-0.935435,34.8125,3,646,6677167
471,-0.734943,0.0427672,9.77933,-0.159028,-1.22636,0.827417,-0.0073509,0.000418266,0.0977933,1,4.58619e-05,-7.37071e-06,2.96926e-05,0.00917238,-0.00147414,0.00593853,0,0,0,0,0.0367914,0.42915,-0.918897,34.8125,3,649,6677467
472,-0.840185,-0.0318176,9.78654,-0.272214,-1.27892,0.833187,-0.00840577,-0.000326828,0.0978651,1,4.334e-05,-2.00571e-05,1.0032e-05,0.00866801,-0.00401142,0.00200639,0,0,0,0,0.0359326,0.431358,-0.932986,34.8125,3,652,6677767
473,-0.665267,0.0115982,9.80609,-0.100129,-1.26836,0.834712,-0.00665857,0.000104583,0.0980605,1,5.68943e-05,-3.008e-05,1.81113e-05,0.0113789,-0.00601599,0.00362225,0,0,0,0,0.0350495,0.434681,-0.927352,34.8125,3,656,6678167
474,-0.655963,0.0159301,9.83286,-0.0829864,-1.26768,0.874773,-0.00656525,0.00015032,0.0983282,1,4.46624e-05,-2.85264e-05,1.50392e-05,0.00893249,-0.00570529,0.00300784,0,0,0,0,0.0361409,0.426868,-0.927531,34.8125,3,659,6678467
475,-1.43378,-0.017089,9.58908,-1.07294,-1.18703,0.719216,-0.0143228,-0.000179881,0.095893,1,4.21354e-05,7.76797e-05,3.17476e-05,0.00842708,0.0155359,0.00634952,0,0,0,0,0.0398721,0.431741,-0.928955,34.8125,3,662,6678767
476,-1.37532,0.0662531,9.71356,-0.837425,-1.16592,0.797709,-0.0137413,0.000656501,0.0971374,1,2.68892e-05,6.17012e-05,2.93316e-05,0.00537783,0.0123402,0.00586632,0,0,0,0,0.0363259,0.426733,-0.919959,34.8125,3,666,6679167
477,-1.42064,0.0137176,9.7955,-0.821745,-1.16778,0.882456,-0.0141946,0.000129173,0.0979567,1,3.87468e-05,5.99213e-05,1.44913e-05,0.00774936,0.0119843,0.00289826,0,0,0,0,0.0376776,0.436291,-0.936925,34.8125,3,669,6679467
478,-2.12749,-0.0449319,9.3584,-1.59815,-1.21282,0.463098,-0.0212614,-0.000458226,0.093587,1,3.3891e-05,7.20255e-05,6.02661e-05,0.0067782,0.0144051,0.0120532,0,0,0,0,0.0401744,0.425256,-0.921019,34.8125,3,672,6679767
479,-1.45651,-0.0550517,9.72403,-0.958758,-1.39382,0.859658,-0.0145616,-0.000560656,0.0972408,1,5.33102e-05,1.7831e-05,-7.83335e-06,0.010662,0.0035662,-0.00156667,0,0,0,0,0.0392961,0.430851,-0.933517,34.8125,3,676,6680167
480,-2.54822,-0.320632,9.57362,-1.9039,-1.32579,0.76363,-0.0254877,-0.00322072,0.0957342,1,5.13126e-05,-3.17665e-05,8.98999e-05,0.0102625,-0.00635329,0.01798,0,0,0,0,0.040684,0.424267,-0.920539,34.8125,3,679,6680467
481,-0.839079,0.570472,10.546,-0.0761563,-0.863842,1.73762,-0.00836687,0.00568336,0.105463,1,9.98596e-05,0.000114364,1.72345e-05,0.0199719,0.0228729,0.00344691,0,0,0,0,0.0355373,0.429853,-0.930492,34.8125,3,682,6680767
482,-1.5014,-0.327534,9.86878,-1.29848,-1.59972,0.798438,-0.0150205,-0.00329183,0.0986862,1,7.82689e-05,-3.42906e-05,3.44721e-05,0.0156538,-0.00685811,0.00689443,0,0,0,0,0.0366566,0.43214,-0.922365,34.8125,3,686,6681167
483,-2.57818,0.0126053,9.43412,-2.28029,-0.830656,0.36083,-0.0257735,0.000120819,0.0943434,1,2.46321e-05,4.40194e-05,1.13555e-05,0.00492641,0.00880388,0.0022711,0,0,0,0,0.0362932,0.427239,-0.920957,34.8125,3,689,6681467
484,-3.61432,-0.153093,8.96126,-2.9226,-0.74764,0.24633,-0.0361399,-0.00154748,0.0896137,1,7.74253e-05,1.78497e-05,3.6973e-05,0.0154851,0.00356994,0.00739461,0,0,0,0,0.0452014,0.43167,-0.927466,34.8125,3,692,6681767
485,-1.62071,-0.118103,10.9598,-0.376838,-1.24301,1.95198,-0.0161718,-0.00118014,0.109603,1,-1.3135e-05,0.000160741,6.14503e-05,-0.00262699,0.0321482,0.0122901,0,0,0,0,0.0365955,0.420754,-0.913022,34.8125,3,696,6682167
486,-4.85965,0.29695,8.98061,-3.87028,-0.693224,0.456365,-0.0485598,0.00294984,0.0898266,1,4.87657e-05,0.000208045,0.000112157,0.00975314,0.041609,0.0224315,0,0,0,0,0.0380093,0.431712,-0.926422,34.8125,3,699,6682467
487,-3.26841,0.122374,8.97959,-2.34664,-0.916122,0.369884,-0.0326862,0.00119378,0.0897955,1,0.000144395,-1.0715e-05,6.17195e-05,0.0288791,-0.002143,0.0123439,0,0,0,0,0.04547,0.4228,-0.922614,34.8125,3,702,6682767
488,-2.94841,-0.189723,8.70218,-2.27091,-1.13567,0.205243,-0.0295138,-0.00191378,0.0870114,1,7.34817e-05,-0.000171726,6.38301e-05,0.0146963,-0.0343452,0.012766,0,0,0,0,0.0398176,0.428408,-0.933574,34.8125,3,706,6683167
489,-2.15867,0.270696,8.3786,-1.7736,-0.779213,-0.272453,-0.021634,0.00269177,0.0837743,1,6.69399e-05,-0.000279063,9.19411e-05,0.013388,-0.0558127,0.0183882,0,0,0,0,0.044718,0.424448,-0.932675,34.8125,3,709,6683467
490,-0.00329378,-0.134025,12.5076,0.756989,-1.72446,3.43294,-5.80938e-05,-0.00131164,0.125077,1,-0.000114412,-0.00010157,9.5022e-05,-0.0228824,-0.020314,0.0190044,0,0,0,0,0.0391002,0.422802,-0.947332,34.8125,3,712,6683767
491,-2.18581,0.25868,9.65028,-1.43589,-0.995077,0.732091,-0.0219144,0.00258483,0.0964901,1,-9.06284e-06,-0.000289568,8.48723e-05,-0.00181257,-0.0579136,0.0169745,0,0,0,0,0.045768,0.42906,-0.945709,34.8125,3,716,6684167
492,-0.477737,-0.144709,9.41014,0.507577,-1.37156,0.429656,-0.00482616,-0.00144804,0.0940989,1,1.09546e-06,-0.000260444,7.80241e-05,0.000219093,-0.0520888,0.0156048,0,0,0,0,0.0382605,0.419829,-0.944364,34.8125,3,719,6684467
493,-0.351425,0.069122,10.271,0.354791,-1.54841,1.21195,-0.00354614,0.000679284,0.102709,1,5.5503e-05,-0.000154724,7.58236e-05,0.0111006,-0.0309448,0.0151647,0,0,0,0,0.0437278,0.427233,-0.951801,34.8125,3,722,6684767
494,-1.71428,0.202161,9.88875,-0.626379,-1.03331,1.26106,-0.0171358,0.00201562,0.0988888,1,1.34226e-05,3.73035e-05,9.73032e-05,0.00268452,0.0074607,0.0194606,0,0,0,0,0.0430631,0.418832,-0.945418,34.8125,3,726,6685167
495,-1.50039,0.493252,9.67353,-0.485515,-1.12151,0.995707,-0.0150159,0.00492059,0.0967341,1,4.32892e-05,-5.57686e-05,0.000118515,0.00865783,-0.0111537,0.0237031,0,0,0,0,0.0476716,0.428443,-0.966944,34.8125,3,729,6685467
496,-1.4219,0.104002,9.3685,-1.02428,-1.49494,0.418049,-0.0142364,0.00104337,0.0936823,1,-3.61329e-05,-9.15116e-05,0.000120327,-0.00722657,-0.0183023,0.0240654,0,0,0,0,0.0448153,0.420387,-0.951453,34.8125,3,732,6685767
497,-0.475006,-0.190823,10.1274,-0.464694,-1.37573,0.924556,-0.0047687,-0.00190161,0.101273,1,-3.77239e-05,-9.40556e-05,0.00010737,-0.00754479,-0.0188111,0.0214741,0,0,0,0,0.0472185,0.426017,-0.967501,34.8125,3,736,6686167
498,-0.274636,0.239613,10.2651,0.101561,-0.755236,1.36291,-0.00276502,0.00238609,0.10265,1,4.55126e-05,-8.79754e-05,0.000125922,0.00910252,-0.0175951,0.0251844,0,0,0,0,0.0522403,0.428715,-0.956858,34.8125,3,739,6686467
499,-1.35152,0.127201,9.49058,-0.271654,-1.0681,0.690781,-0.0135161,0.00126413,0.0949058,1,2.27153e-05,-2.74952e-06,0.000132038,0.00454307,-0.000549903,0.0264075,0,0,0,0,0.0533914,0.427952,-0.969506,34.8125,3,742,6686767
500,-0.673457,0.194798,9.76072,-0.333228,-1.50698,0.900255,-0.00674487,0.00194462,0.0976066,1,7.37771e-06,-4.98713e-05,0.000142878,0.00147554,-0.00997426,0.0285756,0,0,0,0,0.0562263,0.433267,-0.967886,34.8125,3,746,6687167
501,-0.286417,0.0413379,10.9024,0.174103,-1.22145,1.81619,-0.00285261,0.000425798,0.109024,1,-6.1091e-05,5.36151e-05,0.000157774,-0.0122182,0.010723,0.0315549,0,0,0,0,0.05548,0.426853,-0.96348,34.8125,3,749,6687467
502,-1.08429,0.25453,9.5771,-0.118458,-0.982358,0.669767,-0.0108534,0.00254236,0.0957699,1,1.39245e-06,-5.16475e-05,0.00012318,0.00027849,-0.0103295,0.024636,0,0,0,0,0.0622673,0.434335,-0.975971,34.8125,3,753,6687867
503,-0.715772,-0.00515396,9.65522,-0.34718,-1.56862,0.681484,-0.00716157,-4.21493e-05,0.0965519,1,-5.76234e-05,-2.00118e-05,0.000121308,-0.0115247,-0.00400236,0.0242616,0,0,0,0,0.0646673,0.429152,-0.959935,34.8125,3,756,6688167
504,-1.10947,-0.102735,9.6596,-0.402527,-1.32364,1.00157,-0.0110951,-0.00104953,0.0965957,1,9.83068e-05,-3.6109e-06,0.00014359,0.0196614,-0.000722179,0.028718,0,0,0,0,0.0689787,0.435742,-0.975971,34.8125,3,759,6688467
505,-0.880998,0.101168,9.65575,-0.254879,-1.2888,0.845243,-0.00883092,0.000984386,0.0965559,1,0.00012846,-0.000106925,0.000141059,0.0256919,-0.0213849,0.0282118,0,0,0,0,0.070853,0.432524,-0.960394,34.8125,3,762,6688767
506,-0.758704,0.0857675,9.81653,-0.283414,-1.2662,0.861227,-0.00758936,0.000856516,0.0981651,1,-5.66367e-06,-1.04941e-05,0.000149677,-0.00113273,-0.00209882,0.0299353,0,0,0,0,0.0742881,0.437613,-0.973934,34.8125,3,766,6689167
507,-0.377582,-0.119804,9.93431,0.0571216,-1.33365,0.776736,-0.00377713,-0.00119125,0.0993431,1,-3.94252e-05,-8.27332e-06,0.000138416,-0.00788504,-0.00165466,0.0276833,0,0,0,0,0.0803851,0.433474,-0.963447,34.8125,3,769,6689467
508,-1.18239,0.32613,9.09695,-0.657973,-0.711967,0.121655,-0.0118299,0.00323856,0.0909695,1,0.000108915,-2.856e-05,0.000123742,0.0217831,-0.005712,0.0247484,0,0,0,0,0.0820757,0.435074,-0.972006,34.8125,3,772,6689767
509,-0.559182,-0.0721078,10.1352,-0.272744,-1.50528,1.09614,-0.00558794,-0.000710195,0.101353,1,-5.96598e-05,1.83981e-05,0.000108245,-0.011932,0.00367962,0.021649,0,0,0,0,0.0892108,0.437001,-0.974016,34.8125,3,776,6690167
510,-0.998957,-0.526868,9.6719,-0.40329,-1.65556,0.903943,-0.00999185,-0.00528405,0.096718,1,6.72705e-05,-1.8205e-05,0.000117883,0.0134541,-0.00364101,0.0235767,0,0,0,0,0.0905774,0.428024,-0.963616,34.8125,3,779,6690467
511,-0.342907,0.0605843,10.1003,0.549179,-1.46129,1.32809,-0.00341237,0.000587833,0.101003,1,8.55152e-05,8.33424e-05,0.000107496,0.017103,0.0166685,0.0214991,0,0,0,0,0.0955066,0.437401,-0.972016,34.8125,3,782,6690767
512,-1.06491,-0.519942,9.78837,-0.490542,-1.67635,0.865899,-0.0106296,-0.00520978,0.0978853,1,3.84717e-05,9.26373e-05,0.000133257,0.00769433,0.0185275,0.0266513,0,0,0,0,0.0983982,0.426425,-0.959647,34.8125,3,786,6691167
513,-1.00208,-0.0572528,9.65285,-0.468039,-1.34354,0.607768,-0.0100453,-0.000600437,0.0965258,1,0.000133984,-0.000127701,0.000101789,0.0267968,-0.0255403,0.0203578,0,0,0,0,0.10187,0.430041,-0.972714,34.8125,3,789,6691467
514,-1.11296,0.18213,8.87732,-0.998944,-1.2186,-0.210527,-0.0111405,0.00179621,0.0887723,1,0.000127655,-5.95094e-05,0.000109004,0.025531,-0.0119019,0.0218007,0,0,0,0,0.101884,0.421492,-0.958257,34.8125,3,792,6691767
515,-0.988938,0.647683,9.93801,0.142751,-0.612916,1.12565,-0.00989592,0.00645149,0.0993811,1,0.000117213,-2.61366e-05,0.000103571,0.0234426,-0.00522733,0.0207142,0,0,0,0,0.10359,0.420672,-0.96788,34.8125,3,796,6692167
516,0.0885111,0.120786,10.608,0.209102,-1.67655,1.5866,0.000893482,0.00121379,0.10608,1,-2.74054e-05,4.02144e-05,6.67704e-05,-0.00548108,0.00804288,0.0133541,0,0,0,0,0.110519,0.419993,-0.960351,34.8125,3,799,6692467
517,-0.829809,-0.67846,10.4622,0.183517,-1.67132,1.67475,-0.00831116,-0.00683244,0.104618,1,0.00022781,-6.31739e-05,1.05183e-05,0.0455619,-0.0126348,0.00210366,0,0,0,0,0.10604,0.417246,-0.968472,34.8125,3,802,6692767
518,-0.665701,0.320292,9.87362,-0.348859,-1.57951,0.949386,-0.0066554,0.00317948,0.098737,1,0.000121188,6.97194e-06,-3.72841e-05,0.0242377,0.00139439,-0.00745681,0,0,0,0,0.109395,0.415782,-0.970035,34.8125,3,806,6693167
519,-1.15277,-1.0163,8.94731,-0.656915,-1.91883,0.117067,-0.0115459,-0.0101693,0.08947,1,4.83127e-05,-8.99693e-05,-0.000101171,0.00966254,-0.0179939,-0.0202343,0,0,0,0,0.107349,0.410238,-0.959038,34.8125,3,809,6693467
520,-1.09437,0.371048,9.07382,-0.468354,-0.869996,0.228248,-0.0109404,0.00370593,0.0907388,1,4.09202e-05,1.25974e-05,-0.000131115,0.00818405,0.00251948,-0.026223,0,0,0,0,0.110528,0.411312,-0.966099,34.8125,3,812,6693767
521,-0.812905,-0.0984838,10.2581,-0.322152,-1.17475,1.25312,-0.00813491,-0.000987439,0.102581,1,2.70365e-05,-2.67986e-05,-0.000181096,0.00540731,-0.00535972,-0.0362191,0,0,0,0,0.10817,0.403722,-0.94959,34.8125,3,816,6694167
522,-0.558416,0.00969512,9.97372,-0.191573,-1.31853,0.981368,-0.00560921,8.13983e-05,0.0997358,1,9.17992e-05,-0.000125826,-0.000246451,0.0183598,-0.0251653,-0.0492903,0,0,0,0,0.11061,0.409325,-0.964124,34.8125,3,819,6694467
523,-0.768686,0.103005,10.0235,-0.0970507,-1.11185,0.96042,-0.00771314,0.00102549,0.100233,1,4.1281e-05,-0.000133562,-0.000241241,0.0082562,-0.0267124,-0.0482481,0,0,0,0,0.107297,0.39981,-0.948663,34.8125,3,822,6694767
524,-0.762664,-0.0505487,9.59917,-0.527924,-1.33902,0.61115,-0.0076342,-0.000500118,0.0959911,1,-9.32643e-06,-3.81896e-05,-0.00023453,-0.00186529,-0.00763793,-0.0469059,0,0,0,0,0.104682,0.401428,-0.956191,34.8125,3,826,6695167
522,-0.8441,-0.00256361,9.85415,0.0595752,-1.24551,1.1279,-0.00845965,-5.40084e-05,0.0985399,1,0.00016409,-9.45331e-05,-0.000234721,0.0328181,-0.0189066,-0.0469442,0,0,0,0,0.105332,0.40371,-0.947557,34.8125,3,829,6695467
526,-0.737426,0.163864,9.6621,-0.5402,-1.56767,0.603312,-0.00737058,0.00166196,0.0966209,1,-0.000104388,1.53965e-05,-0.000213517,-0.0208776,0.00307929,-0.0427034,0,0,0,0,0.104328,0.400376,-0.951667,34.8125,3,832,6695767
527,-1.39192,-0.31348,9.21836,-0.436398,-1.00979,0.427727,-0.0139222,-0.00314917,0.0921827,1,0.000111,-8.7597e-06,-0.000219123,0.0222,-0.00175194,-0.0438247,0,0,0,0,0.103812,0.406188,-0.94901,34.8125,3,836,6696167
528,-0.394223,0.946025,10.124,-0.182446,-0.702221,1.08747,-0.00394955,0.0094723,0.101238,1,-5.21819e-05,-5.37495e-05,-0.000188219,-0.0104364,-0.0107499,-0.0376438,0,0,0,0,0.0989526,0.397723,-0.937055,34.8125,3,839,6696467
529,-1.20146,-0.0662043,9.48157,-0.50996,-1.00035,0.714094,-0.012015,-0.000671876,0.0948156,1,7.76801e-05,-9.30925e-07,-0.000203826,0.015536,-0.000186185,-0.0407652,0,0,0,0,0.10393,0.404174,-0.94552,34.8125,3,842,6696767
530,-0.501258,0.0609633,9.86352,-0.0136439,-1.40811,0.870652,-0.00502016,0.000615109,0.0986347,1,-1.77266e-05,-3.96499e-05,-0.000197351,-0.00354531,-0.00792998,-0.0394702,0,0,0,0,0.0981802,0.39952,-0.92792,34.8125,3,846,6697167
531,-0.886394,-0.759233,9.71219,-0.384306,-1.87258,0.691095,-0.00888515,-0.00758802,0.0971203,1,-7.10348e-06,-9.63295e-05,-0.000164938,-0.0014207,-0.0192659,-0.0329876,0,0,0,0,0.0963643,0.405105,-0.939404,34.8125,3,849,6697467
532,-0.233775,0.530797,10.1058,0.190192,-0.762866,1.21176,-0.00231747,0.00530404,0.101059,1,2.39588e-05,9.01025e-05,-0.000195214,0.00479177,0.0180205,-0.0390428,0,0,0,0,0.0967866,0.400941,-0.924852,34.8125,3,852,6697767
533,-0.0633305,0.221848,10.8568,0.72225,-1.41344,1.81896,-0.000607054,0.00219487,0.108569,1,0.000110088,0.000116159,-0.000233139,0.0220177,0.0232318,-0.0466278,0,0,0,0,0.0932959,0.402505,-0.928841,34.8125,3,856,6698167
534,-0.576822,-0.412623,10.1209,-0.558757,-1.81267,1.13348,-0.00575897,-0.00411076,0.101211,1,-6.18251e-05,5.61496e-05,-0.000256881,-0.012365,0.0112299,-0.0513763,0,0,0,0,0.0949124,0.403812,-0.920739,34.8125,3,859,6698467
535,-0.819664,-0.492991,9.85786,0.0306268,-1.29294,0.914134,-0.00822378,-0.00494104,0.0985758,1,7.93464e-05,-0.000123897,-0.000274726,0.0158693,-0.0247793,-0.0549453,0,0,0,0,0.0924983,0.402874,-0.921758,34.8125,3,862,6698767
536,-0.867733,0.323976,9.42483,-0.617439,-1.12518,0.356321,-0.0086717,0.00324774,0.0942486,1,-1.7248e-05,2.04713e-05,-0.000272461,-0.0034496,0.00409426,-0.0544922,0,0,0,0,0.0914961,0.406766,-0.920657,34.8125,3,866,6699167
537,-0.618425,0.176648,10.1377,0.255157,-0.726485,1.2103,-0.0061651,0.00175999,0.101379,1,4.7195e-05,9.0143e-05,-0.000249445,0.009439,0.0180286,-0.0498889,0,0,0,0,0.0895319,0.39779,-0.908726,34.8125,3,869,6699467
538,-0.934618,-0.271715,9.58989,-0.700919,-1.69648,0.575685,-0.00934222,-0.00270976,0.0958995,1,-1.39232e-05,2.78297e-05,-0.000252638,-0.00278465,0.00556594,-0.0505276,0,0,0,0,0.0915868,0.407182,-0.916608,34.8125,3,872,6699767
539,-0.370146,-0.244057,10.0574,-0.124254,-1.64999,0.927535,-0.0037136,-0.00247865,0.100573,1,0.000198367,-5.4392e-05,-0.000245441,0.0396734,-0.0108784,-0.0490883,0,0,0,0,0.0877517,0.398665,-0.902133,34.8125,3,876,6700167
540,-0.664055,0.211293,9.62132,-0.0646388,-0.935477,0.739992,-0.00662651,0.00210289,0.0962144,1,6.70866e-05,6.82035e-05,-0.000216778,0.0134173,0.0136407,-0.0433556,0,0,0,0,0.0902607,0.400844,-0.916238,34.8125,3,879,6700467
541,-0.800861,-0.24118,9.90656,-0.375369,-1.47688,0.629334,-0.00802563,-0.00243494,0.0990637,1,0.000137999,-7.94591e-05,-0.000262465,0.0275998,-0.0158918,-0.0524931,0,0,0,0,0.0878826,0.396641,-0.898138,34.8125,3,882,6700767
542,-1.13893,0.0131965,9.53149,-0.615538,-0.820763,0.694219,-0.0113921,0.000132083,0.0953146,1,2.85486e-05,-1.48879e-05,-0.000244035,0.00570972,-0.00297758,-0.0488069,0,0,0,0,0.0838639,0.392942,-0.907798,34.8125,3,886,6701167
543,-0.326893,-0.133252,10.2588,0.384956,-1.48997,1.34151,-0.00328868,-0.00135697,0.102587,1,0.000126682,-9.31731e-05,-0.000235513,0.0253364,-0.0186346,-0.0471026,0,0,0,0,0.0868123,0.392873,-0.905287,34.8125,3,889,6701467
544,-0.621382,-0.0699558,10.1062,-0.117249,-1.54605,1.14826,-0.00621894,-0.00068589,0.101062,1,-5.40667e-05,-2.37904e-05,-0.000220395,-0.0108133,-0.00475808,-0.044079,0,0,0,0,0.0796762,0.388056,-0.905362,34.8125,3,892,6701767
545,-1.38658,-0.509155,9.0364,-0.98581,-1.42955,-0.0497339,-0.0138748,-0.0051143,0.0903613,1,0.000163986,-3.55906e-05,-0.000248336,0.0327973,-0.00711812,-0.0496672,0,0,0,0,0.0814821,0.390054,-0.908861,34.8125,3,896,6702167
546,-1.27459,0.258954,9.24178,-0.846763,-0.885327,0.303212,-0.0127399,0.00260243,0.0924182,1,-3.627e-05,2.60153e-05,-0.000243032,-0.00725401,0.00520306,-0.0486063,0,0,0,0,0.0751754,0.381123,-0.897414,34.8125,3,899,6702467
547,-1.01386,0.404653,9.32144,-0.511667,-0.680447,0.251821,-0.0101494,0.00402927,0.093214,1,0.000116085,-6.7e-05,-0.000215978,0.0232171,-0.0134,-0.0431955,0,0,0,0,0.0781869,0.385692,-0.908943,34.8125,3,902,6702767
548,-0.887469,0.311863,9.67997,-0.299154,-0.646048,0.752102,-0.00889149,0.00312026,0.0967981,1,1.15413e-05,-9.37886e-05,-0.000217443,0.00230827,-0.0187577,-0.0434886,0,0,0,0,0.0738004,0.376266,-0.898021,34.8125,3,906,6703167
549,-0.830235,0.307114,10.0922,-0.250187,-1.19743,1.08583,-0.00829896,0.00306652,0.100923,1,4.24428e-05,9.58965e-06,-0.000238202,0.00848855,0.00191793,-0.0476403,0,0,0,0,0.0706058,0.377961,-0.909585,34.8125,3,909,6703467
550,-0.424186,-0.376341,10.2933,-0.186529,-1.45729,1.3312,-0.00424062,-0.00375105,0.102933,1,-5.0812e-05,1.41677e-05,-0.000223362,-0.0101624,0.00283353,-0.0446723,0,0,0,0,0.0676432,0.37191,-0.897079,34.8125,3,912,6703767
551,-0.64832,0.105012,9.83374,-0.0628736,-1.39697,0.907721,-0.00649636,0.00102449,0.0983368,1,0.00014321,-6.90077e-05,-0.000195397,0.0286419,-0.0138015,-0.0390795,0,0,0,0,0.0621854,0.368702,-0.906216,34.8125,3,916,6704167
552,-0.506982,-0.14297,9.7043,-0.346806,-1.56911,0.669859,-0.00506954,-0.00142252,0.0970431,1,-2.83186e-05,3.87752e-06,-0.000165758,-0.00566373,0.000775505,-0.0331515,0,0,0,0,0.0609029,0.370042,-0.898604,34.8125,3,919,6704467
553,-0.454863,-0.252877,9.85848,-0.139521,-1.5052,0.768575,-0.00456443,-0.00257249,0.0985829,1,0.000229765,-7.56662e-05,-0.00017321,0.045953,-0.0151332,-0.0346419,0,0,0,0,0.0579318,0.363381,-0.90682,34.8125,3,922,6704767
554,-0.985021,-0.0323988,9.7302,-0.414031,-1.03924,0.757419,-0.00985107,-0.000303888,0.097302,1,-9.40536e-05,-4.13104e-06,-9.11974e-05,-0.0188107,-0.000826208,-0.0182395,0,0,0,0,0.056831,0.367346,-0.909757,34.8125,3,926,6705167
555,-0.513885,0.0191733,9.69231,-0.339753,-1.29457,0.643135,-0.00516054,0.000179208,0.096922,1,6.74769e-05,-0.000112003,-5.38393e-05,0.0134954,-0.0224006,-0.0107679,0,0,0,0,0.050549,0.358396,-0.8973,34.8125,3,929,6705467
