frame_id,accel_x,accel_y,accel_z,free_accel_x,free_accel_y,free_accel_z,delta_v_x,delta_v_y,delta_v_z,delta_q_w,delta_q_x,delta_q_y,delta_q_z,rate_x,rate_y,rate_z,quat_w,quat_x,quat_y,quat_z,mag_x,mag_y,mag_z,temperature,status_byte,packet_counter,time_fine
14,-0.81351,-0.0963707,9.7831,-0.181162,-0.466869,1.03038,-0.00813964,-0.000967916,0.0978305,1,2.15844e-05,-2.32384e-05,-8.75357e-07,0.00431687,-0.00464767,-0.000175071,0,0,0,0,0.0796065,0.482309,-1.02095,34.8125,1,25036,2552270
15,-0.873633,-0.0437825,9.76458,-0.221094,-0.425404,1.02082,-0.00873353,-0.000440995,0.097646,1,1.52718e-05,1.43181e-05,1.07159e-05,0.00305437,0.00286361,0.00214318,0,0,0,0,0.0792185,0.477426,-1.02055,34.8125,1,25040,2552670
16,-1.23231,-0.0796996,9.78169,-0.602883,-0.459436,1.05439,-0.0123325,-0.000802731,0.0978157,1,2.66582e-05,-4.82834e-05,2.10908e-05,0.00533165,-0.00965669,0.00421816,0,0,0,0,0.0796018,0.480385,-1.0225,34.8125,1,25043,2552970
17,-0.95092,-0.114685,9.75232,-0.315727,-0.503956,1.01289,-0.00951529,-0.00115109,0.0975226,1,1.95763e-05,-3.14954e-05,2.23781e-05,0.00391525,-0.00629907,0.00447561,0,0,0,0,0.0801883,0.475485,-1.0216,34.8125,1,25046,2553270
18,-0.966105,-0.113477,9.75919,-0.334809,-0.498328,1.01997,-0.00966003,-0.00114643,0.0975919,1,5.67475e-05,4.8856e-06,3.03796e-05,0.0113495,0.000977119,0.00607591,0,0,0,0,0.0795316,0.479472,-1.02606,34.8125,1,25050,2553670
19,-0.800782,0.0119094,9.78258,-0.188158,-0.396705,1.03568,-0.00801269,0.000106018,0.0978254,1,6.25103e-05,-2.48345e-05,5.28005e-05,0.0125021,-0.00496689,0.0105601,0,0,0,0,0.0782524,0.478401,-1.02002,34.8125,1,25053,2553970
20,-0.849129,-0.0603848,9.78192,-0.211207,-0.453244,1.03374,-0.00849039,-0.000615233,0.0978192,1,5.53056e-05,4.3513e-06,3.32707e-05,0.0110611,0.00087026,0.00665415,0,0,0,0,0.081485,0.479917,-1.02454,34.8125,1,25056,2554270
21,-0.600938,-0.0381856,9.78314,0.0283656,-0.447201,1.02362,-0.00600466,-0.000396445,0.0978317,1,7.1408e-05,2.38942e-05,5.13384e-05,0.0142816,0.00477884,0.0102677,0,0,0,0,0.0815476,0.482762,-1.01993,34.8125,1,25060,2554670
22,-0.705555,-0.0949409,9.79593,-0.0719168,-0.502637,1.04025,-0.00705483,-0.000964522,0.0979592,1,7.38259e-05,3.24732e-06,4.60072e-05,0.0147652,0.000649463,0.00920145,0,0,0,0,0.0801072,0.478917,-1.02254,34.8125,1,25063,2554970
23,-0.4436,-0.0719955,9.78012,0.190068,-0.489447,1.00224,-0.00443614,-0.000736247,0.097801,1,8.18131e-05,-9.90971e-07,3.26797e-05,0.0163626,-0.000198194,0.00653594,0,0,0,0,0.0806305,0.482256,-1.01843,34.8125,1,25066,2555270
24,-0.782005,-0.04544,9.78091,-0.133468,-0.460896,1.03251,-0.00781674,-0.000466104,0.0978093,1,5.89994e-05,1.68471e-05,1.03881e-05,0.0117999,0.00336941,0.00207761,0,0,0,0,0.0777305,0.479398,-1.021,34.8125,1,25070,2555670
25,-0.589732,-0.0871072,9.78639,0.0574317,-0.513099,1.01967,-0.00589629,-0.000885236,0.0978639,1,7.13486e-05,5.1173e-06,1.6855e-05,0.0142697,0.00102346,0.003371,0,0,0,0,0.0828676,0.482841,-1.02499,34.8125,1,25073,2555970
26,-0.784547,-0.12158,9.80064,-0.151932,-0.537096,1.04801,-0.00784614,-0.0012309,0.0980062,1,7.67559e-05,-3.47589e-06,3.02943e-06,0.0153512,-0.000695178,0.000605885,0,0,0,0,0.0800825,0.478935,-1.02355,34.8125,1,25076,2556270
27,-0.935036,-0.293432,9.88511,-0.482972,-0.464176,1.08124,-0.00937608,-0.00294131,0.0988485,1,3.59584e-05,-0.000129904,-6.79047e-06,0.00719169,-0.0259807,-0.0013581,0,0,0,0,0.0818802,0.481421,-1.02704,34.8125,1,25080,2556670
28,-0.393009,-0.334507,9.96223,0.207299,-0.975016,1.19797,-0.00393951,-0.00336062,0.0996215,1,7.84591e-05,-4.68777e-05,-1.14402e-05,0.0156918,-0.00937553,-0.00228804,0,0,0,0,0.0797043,0.479346,-1.01899,34.8125,1,25083,2556970
29,-0.657532,-0.0269218,9.92162,-0.00992444,-0.398529,1.13732,-0.00655801,-0.000273123,0.0992174,1,1.70199e-05,8.71115e-05,4.01629e-05,0.00340398,0.0174223,0.00803258,0,0,0,0,0.0824511,0.478942,-1.02507,34.8125,1,25086,2557270
30,-0.767067,-0.255292,9.84151,-0.0721984,-0.812923,1.10287,-0.00767819,-0.00256762,0.0984141,1,7.49808e-05,-3.80947e-05,-3.39404e-06,0.0149962,-0.00761893,-0.000678809,0,0,0,0,0.0810452,0.480373,-1.02251,34.8125,1,25090,2557670
31,-0.853807,-0.10035,9.75928,-0.190017,-0.575094,1.02517,-0.00854764,-0.00100225,0.097592,1,-6.69263e-06,-4.90194e-05,2.98286e-06,-0.00133853,-0.00980388,0.000596573,0,0,0,0,0.0805755,0.477477,-1.02409,34.8125,1,25093,2557970
32,-0.840398,0.0185332,9.78895,-0.13546,-0.413947,1.03722,-0.00839288,0.000178433,0.0978904,1,3.50158e-05,5.67026e-05,2.56629e-06,0.00700315,0.0113405,0.000513258,0,0,0,0,0.0830185,0.478875,-1.02154,34.8125,1,25096,2558270
33,-0.937263,0.0486863,9.773,-0.286123,-0.401202,1.02134,-0.00938096,0.000483984,0.0977292,1,1.47241e-05,-4.26024e-05,6.91352e-08,0.00294483,-0.00852049,1.3827e-05,0,0,0,0,0.0791938,0.477444,-1.02156,34.8125,1,25100,2558670
34,-0.681698,-0.138614,9.77709,-0.036367,-0.595128,1.00634,-0.00682183,-0.00138851,0.0977706,1,1.15297e-05,-2.49221e-05,8.04512e-06,0.00230595,-0.00498442,0.00160902,0,0,0,0,0.080091,0.479893,-1.02252,34.8125,1,25103,2558970
35,-0.981817,-0.146441,9.73356,-0.323027,-0.601032,0.98728,-0.00981373,-0.00147271,0.0973359,1,3.91567e-05,2.22417e-05,3.45873e-05,0.00783133,0.00444834,0.00691746,0,0,0,0,0.0792346,0.476451,-1.02057,34.8125,1,25106,2559270
36,-0.992423,0.0907353,9.80253,-0.350384,-0.364216,1.06399,-0.0099279,0.000903242,0.098025,1,1.9446e-05,-1.85929e-05,1.50409e-05,0.0038892,-0.00371858,0.00300818,0,0,0,0,0.0824268,0.480406,-1.02504,34.8125,1,25110,2559670
37,-0.688284,-0.0414689,9.7932,0.00522144,-0.504679,1.02777,-0.00687645,-0.000415487,0.0979325,1,1.62793e-06,3.25144e-05,3.4863e-05,0.000325586,0.00650289,0.0069726,0,0,0,0,0.0811633,0.476913,-1.02006,34.8125,1,25113,2559970
38,-1.14098,0.113892,9.80409,-0.441666,-0.444367,1.06819,-0.0114165,0.00113411,0.0980402,1,2.07929e-05,-3.40747e-05,3.18367e-05,0.00415859,-0.00681493,0.00636735,0,0,0,0,0.081029,0.481348,-1.02249,34.8125,1,25116,2560270
39,-0.826137,-0.142169,9.73479,-0.155335,-0.748007,0.999397,-0.00827946,-0.00140969,0.0973465,1,-6.523e-05,-9.35352e-05,4.20339e-05,-0.013046,-0.018707,0.00840679,0,0,0,0,0.080593,0.480837,-1.02098,34.8125,1,25120,2560670
40,-0.729624,-0.252019,9.74894,-0.0474324,-0.605792,0.974632,-0.00728794,-0.00252824,0.0974898,1,3.85415e-05,4.15811e-05,3.64777e-05,0.00770831,0.00831622,0.00729555,0,0,0,0,0.0820482,0.479371,-1.02153,34.8125,1,25123,2560970
41,-0.967825,-0.0964741,9.78848,-0.282743,-0.50082,1.03384,-0.00966788,-0.000973822,0.0978858,1,4.20424e-05,5.25563e-05,4.39305e-05,0.00840847,0.0105113,0.0087861,0,0,0,0,0.0806461,0.479835,-1.01949,34.8125,1,25126,2561270
42,-0.697488,-0.173134,9.83456,0.0135778,-0.649191,1.0853,-0.00697503,-0.00174349,0.0983454,1,5.96679e-05,-1.30984e-06,3.00819e-05,0.0119336,-0.000261968,0.00601638,0,0,0,0,0.0811515,0.478368,-1.01952,34.8125,1,25130,2561670
43,-0.71161,-0.123068,9.81475,-0.0111766,-0.580902,1.05626,-0.00712221,-0.00124493,0.0981469,1,7.04452e-05,-3.14979e-05,2.94981e-05,0.014089,-0.00629958,0.00589963,0,0,0,0,0.0819547,0.482813,-1.02297,34.8125,1,25133,2561970
44,-0.532294,-0.032015,9.79293,0.178202,-0.509858,1.02382,-0.00532341,-0.000332606,0.0979292,1,6.24079e-05,-2.50911e-06,2.18601e-05,0.0124816,-0.000501821,0.00437203,0,0,0,0,0.0816369,0.478842,-1.01901,34.8125,1,25136,2562270
45,-0.737446,-0.0492864,9.77382,-0.0263067,-0.527205,1.01307,-0.0073787,-0.000508003,0.0977378,1,7.59512e-05,-2.17688e-05,1.98054e-05,0.0151902,-0.00435375,0.00396109,0,0,0,0,0.080584,0.478435,-1.02306,34.8125,1,25140,2562670
46,-0.861407,-0.128585,9.78383,-0.147983,-0.601363,1.02889,-0.00862127,-0.00130346,0.0978375,1,8.82391e-05,-3.70346e-05,1.96439e-05,0.0176478,-0.00740693,0.00392879,0,0,0,0,0.0797128,0.480304,-1.01796,34.8125,1,25143,2562970
47,-0.815875,-0.0589057,9.7858,-0.114097,-0.546189,1.02814,-0.00816268,-0.000604857,0.0978576,1,7.81863e-05,-2.02471e-05,3.04823e-05,0.0156373,-0.00404942,0.00609647,0,0,0,0,0.0814727,0.479926,-1.02505,34.8125,1,25146,2563270
48,-0.73641,-0.0367634,9.79631,-0.0191413,-0.517595,1.03381,-0.0073676,-0.000383069,0.0979628,1,7.77375e-05,-1.79297e-05,1.38413e-05,0.0155475,-0.00358595,0.00276826,0,0,0,0,0.0815182,0.480856,-1.0225,34.8125,1,25150,2563670
49,-0.683954,-0.0560233,9.7829,0.0468384,-0.554519,1.01989,-0.00684256,-0.00057637,0.0978287,1,8.14573e-05,-1.55085e-05,1.45748e-05,0.0162915,-0.0031017,0.00291495,0,0,0,0,0.0815581,0.476972,-1.0236,34.8125,1,25153,2563970
50,-0.74455,-0.0709621,9.77537,-0.0120568,-0.567027,1.01396,-0.00744655,-0.000722972,0.0977535,1,6.81691e-05,-5.39988e-06,1.61111e-06,0.0136338,-0.00107998,0.000322221,0,0,0,0,0.0810618,0.480842,-1.02149,34.8125,1,25156,2564270
51,-0.781566,-0.0362676,9.77863,-0.0425994,-0.537624,1.0162,-0.00781715,-0.000380771,0.0977861,1,9.14633e-05,-7.63533e-06,1.32418e-05,0.0182927,-0.00152707,0.00264836,0,0,0,0,0.0801769,0.478385,-1.02003,34.8125,1,25160,2564670
52,-0.781048,-0.0557365,9.78727,-0.0413278,-0.572632,1.02226,-0.0078102,-0.000574552,0.0978727,1,8.78628e-05,1.4732e-06,-7.50787e-07,0.0175726,0.00029464,-0.000150157,0,0,0,0,0.0820155,0.479877,-1.02253,34.8125,1,25163,2564970
53,-0.782331,-0.0227826,9.78891,-0.0409619,-0.5341,1.02204,-0.00782333,-0.000242694,0.0978891,1,7.44629e-05,-1.56073e-07,1.8567e-05,0.0148926,-3.12147e-05,0.0037134,0,0,0,0,0.0787986,0.47594,-1.01906,34.8125,1,25166,2565270
54,-0.805714,-0.0468824,9.78005,-0.0537933,-0.562729,1.01677,-0.00805535,-0.000482931,0.0978006,1,7.14417e-05,9.0917e-06,8.1918e-06,0.0142883,0.00181834,0.00163836,0,0,0,0,0.0810656,0.479876,-1.02202,34.8125,1,25170,2565670
55,-0.832934,-0.0506981,9.78022,-0.0873409,-0.563252,1.02359,-0.00833359,-0.000517915,0.0978018,1,5.60806e-05,-2.16959e-05,-2.11608e-06,0.0112161,-0.00433918,-0.000423216,0,0,0,0,0.0797537,0.47931,-1.01697,34.8125,1,25173,2565970
56,-0.615367,-0.011205,9.78485,0.133783,-0.534626,1.01445,-0.00615675,-0.000122425,0.0978483,1,5.17945e-05,-1.57467e-05,1.94388e-05,0.0103589,-0.00314933,0.00388777,0,0,0,0,0.0819785,0.479904,-1.02404,34.8125,1,25176,2566270
57,-0.885525,-0.092333,9.77071,-0.130519,-0.621054,1.00752,-0.00885628,-0.000935173,0.0977069,1,6.28419e-05,-5.03379e-06,-2.47341e-05,0.0125684,-0.00100676,-0.00494683,0,0,0,0,0.0806385,0.481768,-1.01844,34.8125,1,25180,2566670
58,-0.932591,-0.0356783,9.77185,-0.17982,-0.565305,1.01949,-0.00932606,-0.000368786,0.0977184,1,6.07967e-05,-8.10083e-07,6.47816e-06,0.0121593,-0.000162017,0.00129563,0,0,0,0,0.0786723,0.479887,-1.0215,34.8125,1,25183,2566970
59,-0.85008,-0.0757888,9.77094,-0.0740124,-0.608654,1.01852,-0.00850157,-0.000767826,0.0977093,1,4.96561e-05,-4.01574e-06,1.3758e-05,0.00993122,-0.000803148,0.0027516,0,0,0,0,0.0805403,0.483285,-1.02143,34.8125,1,25186,2567270
60,-0.893591,-0.0622791,9.7734,-0.13256,-0.595796,1.01717,-0.00893527,-0.000630675,0.097734,1,3.86593e-05,3.19274e-06,1.83449e-05,0.00773186,0.000638547,0.00366897,0,0,0,0,0.0801812,0.478863,-1.01951,34.8125,1,25190,2567670
61,-0.879302,-0.0321976,9.77355,-0.113909,-0.576049,1.01323,-0.00879163,-0.000331223,0.0977356,1,4.57243e-05,7.03905e-06,1.76037e-05,0.00914485,0.00140781,0.00352074,0,0,0,0,0.0810086,0.481845,-1.02298,34.8125,1,25193,2567970
62,-0.884336,-0.0562677,9.76967,-0.110547,-0.595314,1.01473,-0.00884863,-0.000573793,0.0976961,1,5.58178e-05,-2.70234e-05,1.1869e-05,0.0111636,-0.00540468,0.0023738,0,0,0,0,0.0796877,0.478876,-1.02001,34.8125,1,25196,2568270
63,-0.908551,-0.032878,9.7758,-0.132774,-0.56515,1.02079,-0.00908952,-0.000338808,0.0977576,1,4.96806e-05,-2.05226e-05,1.7326e-05,0.00993612,-0.00410452,0.00346519,0,0,0,0,0.0799923,0.479965,-1.02655,34.8125,1,25200,2568670
64,-0.820841,-0.0529769,9.7757,-0.0362973,-0.594645,1.01571,-0.00820964,-0.000539831,0.0977569,1,4.99748e-05,-6.38134e-06,1.77229e-05,0.00999497,-0.00127627,0.00354459,0,0,0,0,0.0805768,0.481813,-1.02096,34.8125,1,25203,2568970
65,-0.856336,-0.0321038,9.77849,-0.0789678,-0.575297,1.02142,-0.00856515,-0.000330753,0.0977848,1,4.73763e-05,-9.25953e-06,2.62185e-05,0.00947526,-0.00185191,0.00524371,0,0,0,0,0.0800298,0.481383,-1.024,34.8125,1,25206,2569270
66,-0.84927,-0.0983058,9.78298,-0.0664634,-0.644777,1.02249,-0.00849527,-0.000990205,0.0978295,1,3.41851e-05,-1.33982e-05,2.70026e-05,0.00683703,-0.00267965,0.00540053,0,0,0,0,0.0819794,0.482795,-1.02196,34.8125,1,25210,2569670
67,-0.776402,-0.0545797,9.79066,0.00630654,-0.609775,1.03054,-0.00776735,-0.00055261,0.0979063,1,3.31124e-05,-1.70953e-05,2.11969e-05,0.00662247,-0.00341905,0.00423937,0,0,0,0,0.0805636,0.478931,-1.02355,34.8125,1,25213,2569970
68,-0.660536,-0.0585947,9.78238,0.132394,-0.608239,1.00941,-0.00660975,-0.000592618,0.0978234,1,3.26706e-05,-2.25472e-05,2.1134e-05,0.00653412,-0.00450944,0.0042268,0,0,0,0,0.0810537,0.48133,-1.02148,34.8125,1,25216,2570270
69,-0.804429,-0.0554074,9.7854,-0.0152292,-0.606823,1.02273,-0.00804654,-0.000562786,0.0978538,1,4.24124e-05,-1.16175e-05,2.55686e-05,0.00848247,-0.00232349,0.00511371,0,0,0,0,0.0791904,0.479856,-1.01999,34.8125,1,25220,2570670
70,-0.778755,-0.0333252,9.78712,0.022522,-0.586002,1.0207,-0.00778947,-0.000342062,0.097871,1,4.26191e-05,-9.94504e-06,3.00649e-05,0.00852382,-0.00198901,0.00601299,0,0,0,0,0.0810252,0.482315,-1.02196,34.8125,1,25223,2570970
71,-0.710192,-0.0563091,9.78748,0.084509,-0.611199,1.01982,-0.00710495,-0.000571516,0.0978746,1,4.21218e-05,-1.5557e-05,1.26568e-05,0.00842435,-0.0031114,0.00253136,0,0,0,0,0.0806248,0.477441,-1.02207,34.8125,3,25226,2571270
72,-0.76114,-0.0569723,9.7868,0.04097,-0.605529,1.01775,-0.00761466,-0.000580084,0.0978677,1,5.11687e-05,-1.68199e-05,2.27075e-05,0.0102337,-0.00336398,0.0045415,0,0,0,0,0.0810243,0.479424,-1.02405,34.8125,3,25230,2571670
73,-0.769751,-0.0621655,9.77799,0.036531,-0.61692,1.01547,-0.00769939,-0.000630634,0.0977797,1,4.43514e-05,-9.73227e-06,1.98335e-05,0.00887029,-0.00194645,0.00396671,0,0,0,0,0.0806542,0.479347,-1.0195,34.8125,3,25233,2571970
74,-0.780385,-0.0464227,9.78329,0.0192311,-0.600223,1.01725,-0.00780603,-0.000475751,0.0978326,1,5.63188e-05,-1.13172e-05,3.23022e-05,0.0112638,-0.00226345,0.00646044,0,0,0,0,0.0785613,0.479968,-1.02604,34.8125,3,25236,2572270
75,-0.809478,-0.0572759,9.78,-0.0083629,-0.616541,1.01129,-0.00809849,-0.000584105,0.0977997,1,5.54918e-05,-1.91573e-05,3.03781e-05,0.0110984,-0.00383146,0.00607561,0,0,0,0,0.0815514,0.481796,-1.02046,34.8125,3,25240,2572670
76,-0.86854,-0.0530855,9.7733,-0.0551321,-0.619169,1.0132,-0.00868655,-0.000540848,0.0977328,1,4.90601e-05,-6.03539e-06,2.32404e-05,0.00981202,-0.00120708,0.00464808,0,0,0,0,0.0800578,0.478953,-1.02456,34.8125,3,25243,2572970
77,-0.795463,-0.076052,9.78177,0.0118103,-0.637743,1.01895,-0.00795631,-0.000770354,0.0978175,1,4.85125e-05,-8.72496e-06,2.15602e-05,0.0097025,-0.00174499,0.00431203,0,0,0,0,0.0810167,0.481357,-1.02299,34.8125,3,25246,2573270
78,-0.778584,-0.0691532,9.75901,0.0421491,-0.650963,0.991596,-0.00779053,-0.000702882,0.0975896,1,5.65685e-05,-2.42141e-05,1.98768e-05,0.0113137,-0.00484282,0.00397536,0,0,0,0,0.0797124,0.478858,-1.019,34.8125,3,25250,2573670
79,-0.799294,-0.0590972,9.78501,0.0102053,-0.620449,1.01579,-0.00799512,-0.000601392,0.0978498,1,5.19063e-05,-1.12676e-05,1.63706e-05,0.0103813,-0.00225352,0.00327413,0,0,0,0,0.0824843,0.479882,-1.02303,34.8125,3,25253,2573970
80,-0.818258,-0.0505264,9.77264,-0.00248664,-0.611051,1.00999,-0.00818327,-0.000515349,0.0977263,1,4.92594e-05,-3.65265e-06,2.79734e-05,0.00985188,-0.000730529,0.00559468,0,0,0,0,0.0806253,0.478886,-1.02103,34.8125,3,25256,2574270
81,-0.774425,-0.0541283,9.77129,0.0427527,-0.627328,1.00394,-0.00774412,-0.000553646,0.0977129,1,6.27097e-05,6.47841e-07,7.00396e-06,0.0125419,0.000129568,0.00140079,0,0,0,0,0.0805351,0.479916,-1.02403,34.8125,3,25260,2574670
82,-0.879415,-0.0559067,9.7805,-0.0674792,-0.625675,1.01924,-0.00879854,-0.000569549,0.0978045,1,5.08449e-05,-2.26477e-05,3.04726e-05,0.010169,-0.00452955,0.00609452,0,0,0,0,0.0810864,0.480824,-1.02048,34.8125,3,25263,2574970
83,-0.759711,-0.0607316,9.78202,0.0605672,-0.638351,1.0146,-0.00760161,-0.000616962,0.0978198,1,4.86187e-05,-2.30857e-05,8.83635e-06,0.00972374,-0.00461715,0.00176727,0,0,0,0,0.0786111,0.481377,-1.02298,34.8125,3,25266,2575270
84,-0.761576,-0.053571,9.78785,0.0547265,-0.633464,1.02144,-0.00761927,-0.000546841,0.0978782,1,5.48884e-05,-1.80933e-05,2.53846e-05,0.0109777,-0.00361867,0.00507691,0,0,0,0,0.0800056,0.482847,-1.02397,34.8125,3,25270,2575670
85,-0.774126,-0.0745323,9.77418,0.046249,-0.653102,1.0072,-0.00774238,-0.000754353,0.0977416,1,4.53703e-05,-5.79499e-06,1.03768e-05,0.00907405,-0.001159,0.00207535,0,0,0,0,0.0806371,0.477432,-1.02156,34.8125,3,25273,2575970
86,-0.826751,-0.0466651,9.77884,-0.00498024,-0.620478,1.0122,-0.00826696,-0.000475473,0.0977884,1,4.38187e-05,2.77161e-06,1.52662e-05,0.00876375,0.000554321,0.00305324,0,0,0,0,0.0814736,0.482817,-1.02296,34.8125,3,25276,2576270
87,-0.796226,-0.0611327,9.77649,0.0224573,-0.639974,1.00992,-0.00796624,-0.000619528,0.0977645,1,3.90167e-05,-2.05897e-05,3.59026e-05,0.00780335,-0.00411793,0.00718052,0,0,0,0,0.0796635,0.48034,-1.01998,34.8125,3,25280,2576670
88,-0.775696,-0.046495,9.78121,0.0533265,-0.630906,1.0128,-0.00775813,-0.000474599,0.097812,1,4.83151e-05,-6.02587e-06,1.27277e-05,0.00966301,-0.00120517,0.00254553,0,0,0,0,0.0824681,0.480858,-1.02301,34.8125,3,25283,2576970
89,-0.750987,-0.0679915,9.79138,0.0751725,-0.640028,1.024,-0.00750858,-0.000688194,0.0979138,1,3.93263e-05,6.33293e-06,3.85156e-05,0.00786525,0.00126659,0.00770311,0,0,0,0,0.0810902,0.479858,-1.02101,34.8125,3,25286,2577270
90,-0.810644,-0.0498091,9.7699,0.0126549,-0.640171,1.00654,-0.00810934,-0.000506376,0.0976987,1,4.1414e-05,-1.48844e-05,1.18781e-05,0.00828281,-0.00297688,0.00237563,0,0,0,0,0.07813,0.481381,-1.02298,34.8125,3,25290,2577670
91,-0.817124,-0.0479022,9.78759,0.00947788,-0.634666,1.01708,-0.00817254,-0.000490322,0.0978757,1,5.49701e-05,-6.78593e-06,3.30063e-05,0.010994,-0.00135719,0.00660126,0,0,0,0,0.0787876,0.480285,-1.01644,34.8125,3,25293,2577970
92,-0.78847,-0.0540382,9.78192,0.0386933,-0.646456,1.00927,-0.00788744,-0.000550973,0.0978189,1,5.22415e-05,-1.41376e-05,2.3546e-05,0.0104483,-0.00282753,0.0047092,0,0,0,0,0.0781177,0.48139,-1.02348,34.8125,3,25296,2578270
93,-0.806826,-0.0597911,9.77996,0.0144498,-0.686511,1.01491,-0.00807032,-0.000609487,0.0977994,1,5.88503e-05,-1.05274e-05,4.00709e-06,0.01177,-0.00210549,0.000801417,0,0,0,0,0.0806143,0.483231,-1.0184,34.8125,3,25300,2578670
94,-0.747697,-0.0501292,9.7749,0.0768436,-0.663277,1.00777,-0.00748095,-0.000508572,0.0977487,1,3.60943e-05,-2.04352e-05,1.49478e-05,0.00721885,-0.00408704,0.00298956,0,0,0,0,0.0797323,0.476916,-1.01955,34.8125,3,25303,2578970
95,-0.797665,-0.0454174,9.77901,0.0333379,-0.632558,1.00413,-0.00798001,-0.000462439,0.0977898,1,4.14681e-05,-1.72295e-05,9.64457e-06,0.00829361,-0.00344591,0.00192892,0,0,0,0,0.0791216,0.483279,-1.02042,34.8125,3,25306,2579270
96,-0.801727,-0.0401906,9.78384,0.0284686,-0.63398,1.01704,-0.00802003,-0.000412585,0.0978381,1,5.25733e-05,-1.42178e-05,2.44468e-05,0.0105147,-0.00284355,0.00488937,0,0,0,0,0.0778334,0.479805,-1.01645,34.8125,3,25310,2579670
97,-0.803472,-0.05038,9.77086,0.0258296,-0.649068,0.998298,-0.00803801,-0.000513854,0.0977083,1,4.94607e-05,-1.69724e-05,2.41287e-05,0.00989214,-0.00339449,0.00482574,0,0,0,0,0.0801076,0.480363,-1.0215,34.8125,3,25313,2579970
98,-0.782861,-0.0412183,9.77927,0.0505171,-0.640032,1.00778,-0.00782977,-0.000424109,0.0977926,1,5.98822e-05,-6.01984e-06,1.36868e-05,0.0119764,-0.00120397,0.00273736,0,0,0,0,0.0797859,0.477359,-1.01702,34.8125,3,25316,2580270
99,-0.830644,-0.0530927,9.77916,-0.00335381,-0.659416,1.00999,-0.00830943,-0.000539748,0.0977913,1,4.40087e-05,-1.53388e-05,1.28655e-05,0.00880174,-0.00306776,0.00257311,0,0,0,0,0.0791696,0.478907,-1.02152,34.8125,3,25320,2580670
100,-0.825255,-0.0482208,9.76899,0.0079442,-0.648389,0.996753,-0.00825638,-0.000489547,0.0976895,1,3.6655e-05,-1.96584e-05,1.0716e-05,0.00733099,-0.00393167,0.0021432,0,0,0,0,0.0802267,0.479794,-1.01696,34.8125,3,25323,2580970
101,-0.851604,-0.0372787,9.76825,-0.0240175,-0.645523,1.00437,-0.00851742,-0.000378826,0.0976823,1,2.90536e-05,-7.1376e-06,2.13197e-05,0.00581072,-0.00142752,0.00426395,0,0,0,0,0.078167,0.481354,-1.02147,34.8125,3,25326,2581270
102,-0.786136,-0.0589782,9.78728,0.0451964,-0.663513,1.0114,-0.00786221,-0.000597661,0.0978727,1,3.8145e-05,-4.52424e-06,2.62188e-05,0.00762899,-0.000904848,0.00524376,0,0,0,0,0.079672,0.481297,-1.01895,34.8125,3,25330,2581670
103,-0.83773,-0.074463,9.79057,-0.0102497,-0.686631,1.01965,-0.00838202,-0.000753056,0.0979053,1,4.04568e-05,-2.43313e-05,3.00894e-05,0.00809136,-0.00486626,0.00601787,0,0,0,0,0.0796796,0.479364,-1.02,34.8125,3,25333,2581970
104,-0.755435,-0.0670062,9.77039,0.0752345,-0.681026,0.993542,-0.00755749,-0.000680383,0.0977036,1,5.09339e-05,-1.62441e-05,2.43599e-05,0.0101868,-0.00324881,0.00487199,0,0,0,0,0.0805778,0.484704,-1.01888,34.8125,3,25336,2582270
105,-0.739304,-0.0655184,9.78726,0.0911337,-0.668205,1.00817,-0.00739665,-0.000663467,0.0978723,1,4.02946e-05,-1.85986e-05,2.67401e-05,0.00805892,-0.00371972,0.00534801,0,0,0,0,0.0792849,0.479305,-1.01647,34.8125,3,25340,2582670
106,-0.757458,-0.0563931,9.78543,0.0795491,-0.664175,1.0063,-0.00757774,-0.000572245,0.097854,1,4.08346e-05,-1.62984e-05,2.12659e-05,0.00816693,-0.00325968,0.00425317,0,0,0,0,0.0790884,0.48234,-1.02246,34.8125,3,25343,2582970
107,-0.814607,-0.0456466,9.79303,0.0253893,-0.650479,1.02084,-0.00814795,-0.000465191,0.0979301,1,4.38988e-05,-9.6618e-06,7.74274e-06,0.00877975,-0.00193236,0.00154855,0,0,0,0,0.0787795,0.480772,-1.01643,34.8125,3,25346,2583270
108,-0.748758,-0.0401849,9.77873,0.081536,-0.654404,1.00147,-0.00749233,-0.000410191,0.0977869,1,4.13879e-05,-2.4367e-05,1.65461e-05,0.00827759,-0.00487341,0.00330922,0,0,0,0,0.0801076,0.480363,-1.0215,34.8125,3,25350,2583670
109,-0.782989,-0.0490801,9.76838,0.0465165,-0.663496,0.997024,-0.00783558,-0.000496899,0.0976833,1,2.91858e-05,-2.92567e-05,2.53132e-05,0.00583717,-0.00585134,0.00506263,0,0,0,0,0.0792241,0.482241,-1.0169,34.8125,3,25353,2583970
110,-0.768662,-0.103081,9.76541,0.0517654,-0.716757,0.993531,-0.00768521,-0.00104078,0.0976541,1,4.95295e-05,6.99621e-06,1.95523e-05,0.00990591,0.00139924,0.00391046,0,0,0,0,0.0791416,0.481337,-1.02096,34.8125,3,25356,2584270
111,-0.967856,-0.0233807,9.71996,-0.164184,-0.62241,0.949835,-0.00967586,-0.000241241,0.0971998,1,3.6005e-05,1.38258e-05,2.24635e-05,0.00720101,0.00276516,0.00449271,0,0,0,0,0.0806139,0.481786,-1.01945,34.8125,3,25360,2584670
112,-0.772903,-0.0644066,9.75592,0.0727882,-0.666111,0.977187,-0.00772664,-0.00065397,0.0975594,1,4.81045e-05,1.20247e-05,3.34982e-05,0.0096209,0.00240494,0.00669963,0,0,0,0,0.0787506,0.480312,-1.01796,34.8125,3,25363,2584970
113,-1.14515,-0.0576103,9.75278,-0.318565,-0.666407,1.00699,-0.0114563,-0.000580714,0.0975272,1,2.26832e-05,-2.47789e-05,8.14697e-06,0.00453664,-0.00495578,0.00162939,0,0,0,0,0.0815599,0.482753,-1.01943,34.8125,3,25366,2585270
114,-0.838525,-0.108149,9.80486,0.0113165,-0.738594,1.0397,-0.00838888,-0.00108894,0.0980482,1,3.5759e-05,-1.87676e-05,2.63085e-05,0.0071518,-0.00375352,0.0052617,0,0,0,0,0.0792602,0.479323,-1.01747,34.8125,3,25370,2585670
115,-0.856823,0.03001,9.68643,-0.0574885,-0.645819,0.922081,-0.00857066,0.000294035,0.0968641,1,2.48885e-05,-1.23191e-05,7.25039e-05,0.00497771,-0.00246383,0.0145008,0,0,0,0,0.0782201,0.480352,-1.01997,34.8125,3,25373,2585970
116,-0.742979,0.086214,9.8008,0.122104,-0.636072,1.03162,-0.00743114,0.00085308,0.0980079,1,4.22093e-05,-6.41099e-06,5.2883e-05,0.00844185,-0.0012822,0.0105766,0,0,0,0,0.0792645,0.479802,-1.01696,34.8125,3,25376,2586270
117,-0.632542,0.0442049,9.75492,0.213696,-0.579082,0.982565,-0.00632326,0.000435122,0.0975493,1,3.38331e-05,1.11924e-05,2.5835e-05,0.00676662,0.00223847,0.00516701,0,0,0,0,0.0796754,0.478885,-1.02052,34.8125,3,25379,2586570
118,-0.611735,-0.0760292,9.81244,0.219638,-0.691997,1.02163,-0.00612356,-0.000766825,0.0981239,1,3.09978e-05,-3.19393e-05,3.67703e-05,0.00619957,-0.00638785,0.00735406,0,0,0,0,0.0797133,0.481749,-1.01692,34.8125,3,25383,2586970
119,-0.853126,-0.124262,9.7801,-0.0800681,-0.810334,1.02629,-0.00853417,-0.00125189,0.0978006,1,4.78943e-05,-1.48252e-05,-5.44345e-06,0.00957887,-0.00296504,-0.00108869,0,0,0,0,0.0777955,0.476941,-1.02005,34.8125,3,25386,2587270
120,-0.753698,-0.159787,9.80963,0.0867342,-0.785,1.0172,-0.0075406,-0.00160855,0.0980959,1,5.28041e-05,-1.88243e-05,2.16701e-05,0.0105608,-0.00376486,0.00433401,0,0,0,0,0.0782861,0.480785,-1.01693,34.8125,3,25389,2587570
121,-0.778462,-0.120837,9.79925,0.0540337,-0.731611,1.02989,-0.00778442,-0.00121312,0.0979924,1,2.31787e-05,8.4559e-07,1.33778e-05,0.00463574,0.000169118,0.00267555,0,0,0,0,0.0798063,0.476862,-1.01652,34.8125,3,25393,2587970
122,-0.723919,-0.0827425,9.82467,0.0999192,-0.696336,1.03862,-0.0072441,-0.000831692,0.0982463,1,1.91367e-05,-2.52709e-05,3.49988e-05,0.00382733,-0.00505418,0.00699977,0,0,0,0,0.0792284,0.482719,-1.01639,34.8125,3,25396,2588270
123,-0.705355,-0.0422924,9.81742,0.137437,-0.660048,1.03469,-0.00705745,-0.000429388,0.0981739,1,3.18101e-05,-1.99098e-05,1.54303e-05,0.00636203,-0.00398196,0.00308607,0,0,0,0,0.0787995,0.47883,-1.01698,34.8125,3,25399,2588570
124,-0.828935,-0.0730428,9.74541,0.0137208,-0.71242,0.970885,-0.00829328,-0.000738419,0.0974537,1,4.08293e-05,-2.01685e-05,1.96515e-06,0.00816586,-0.0040337,0.000393029,0,0,0,0,0.0805849,0.481325,-1.02097,34.8125,3,25403,2588970
125,-1.04421,-0.0409981,9.75496,-0.220619,-0.672705,1.00567,-0.010451,-0.000416021,0.0975486,1,3.03106e-05,-4.56909e-05,6.05157e-06,0.00606213,-0.00913818,0.00121031,0,0,0,0,0.0773979,0.480739,-1.0139,34.8125,3,25406,2589270
126,-0.953159,0.00602435,9.75641,-0.130553,-0.674497,0.991206,-0.00953191,5.49395e-05,0.097564,1,2.49706e-05,-1.63711e-06,2.26351e-05,0.00499412,-0.000327421,0.00452701,0,0,0,0,0.0790889,0.483785,-1.02142,34.8125,3,25409,2589570
127,-0.665811,-0.183561,9.81733,0.0918376,-0.826177,1.0244,-0.00666488,-0.00184892,0.0981726,1,6.60457e-05,-3.49826e-05,2.54655e-05,0.0132091,-0.00699653,0.0050931,0,0,0,0,0.0791961,0.48467,-1.01635,34.8125,3,25413,2589970
128,-0.656459,-0.375761,9.94078,0.204199,-1.00698,1.17103,-0.00656369,-0.00376622,0.0994075,1,4.0758e-05,3.0478e-06,3.84621e-05,0.0081516,0.000609559,0.00769242,0,0,0,0,0.0786732,0.482777,-1.01942,34.8125,3,25416,2590270
129,-0.66872,-0.204853,9.78562,0.181447,-0.877588,1.02158,-0.00669165,-0.00206098,0.0978556,1,6.43023e-05,-2.25248e-05,-9.87166e-06,0.0128605,-0.00450497,-0.00197433,0,0,0,0,0.0792322,0.481753,-1.01692,34.8125,3,25419,2590570
130,-0.872691,-0.113546,9.76876,-0.0415831,-0.769807,0.994992,-0.00873084,-0.00114326,0.0976872,1,3.77333e-05,-2.03845e-05,2.41628e-05,0.00754667,-0.00407689,0.00483255,0,0,0,0,0.0778169,0.479335,-1.01747,34.8125,3,25423,2590970
131,-0.801026,-0.0782082,9.7567,0.0290607,-0.707443,0.977566,-0.00801182,-0.000795109,0.0975668,1,6.54813e-05,-8.11933e-06,1.55417e-05,0.0130963,-0.00162387,0.00310834,0,0,0,0,0.0796402,0.484693,-1.01786,34.8125,3,25426,2591270
132,-0.803295,-0.0336392,9.78016,0.0262572,-0.690188,1.012,-0.00803252,-0.000346345,0.0978016,1,4.97812e-05,2.14602e-06,1.34198e-05,0.00995624,0.000429204,0.00268397,0,0,0,0,0.0783112,0.482213,-1.01488,34.8125,3,25430,2591670
133,-0.762761,-0.0697929,9.7867,0.0623156,-0.700736,1.00739,-0.00762988,-0.0007065,0.0978668,1,4.10881e-05,-1.18692e-05,3.46226e-05,0.00821762,-0.00237383,0.00692452,0,0,0,0,0.0800711,0.481835,-1.02197,34.8125,3,25433,2591970
134,-0.740178,-0.0733662,9.77328,0.086539,-0.707912,0.993815,-0.00740189,-0.000746189,0.0977327,1,6.17355e-05,-7.89794e-07,3.10316e-05,0.0123471,-0.000157959,0.00620633,0,0,0,0,0.0777808,0.482253,-1.0169,34.8125,3,25436,2592270
135,-0.720657,-0.0521066,9.78522,0.10429,-0.693878,1.00219,-0.00721113,-0.000529104,0.0978519,1,3.9125e-05,-2.34212e-05,2.64268e-05,0.00782499,-0.00468424,0.00528536,0,0,0,0,0.079607,0.483754,-1.0199,34.8125,3,25439,2592570
136,-0.803461,-0.0891535,9.78037,0.0115395,-0.748025,1.00252,-0.00803743,-0.000900641,0.0978034,1,4.5443e-05,-1.45619e-05,1.35061e-05,0.0090886,-0.00291237,0.00270123,0,0,0,0,0.0797792,0.482183,-1.01388,34.8125,3,25443,2592970
137,-0.797093,-0.0744034,9.78283,0.0315932,-0.719927,0.999384,-0.00797261,-0.000753879,0.0978281,1,4.94272e-05,-8.68191e-06,1.09892e-05,0.00988544,-0.00173638,0.00219785,0,0,0,0,0.0777471,0.479868,-1.01998,34.8125,3,25446,2593270
138,-0.738241,-0.074212,9.79192,0.0902687,-0.721685,1.00548,-0.00738484,-0.000754478,0.097919,1,6.20745e-05,-1.25227e-05,1.36048e-05,0.0124149,-0.00250453,0.00272096,0,0,0,0,0.0783155,0.482691,-1.01437,34.8125,3,25449,2593570
139,-0.84871,-0.0888208,9.77288,-0.0225425,-0.732762,0.99802,-0.00848899,-0.000899168,0.0977285,1,5.43801e-05,-9.81625e-06,1.95015e-05,0.010876,-0.00196325,0.00390029,0,0,0,0,0.0768755,0.480292,-1.01593,34.8125,3,25453,2593970
140,-0.741155,-0.0449291,9.78982,0.075808,-0.684305,1.00433,-0.00741448,-0.000459288,0.0978979,1,4.94569e-05,-1.50783e-05,2.11464e-05,0.00989139,-0.00301566,0.00422929,0,0,0,0,0.0800839,0.483271,-1.02042,34.8125,3,25456,2594270
141,-0.816103,-0.09136,9.7889,0.00339816,-0.747957,1.01315,-0.00816186,-0.000923624,0.0978889,1,4.93059e-05,-4.46146e-06,2.27394e-05,0.00986118,-0.000892292,0.00454788,0,0,0,0,0.0797864,0.478804,-1.01597,34.8125,3,25459,2594570
142,-0.866011,-0.0822119,9.77374,-0.0447189,-0.72914,0.999288,-0.00866518,-0.000832706,0.0977368,1,5.24839e-05,-2.60863e-05,1.89036e-05,0.0104968,-0.00521727,0.00378072,0,0,0,0,0.0795572,0.482345,-1.02296,34.8125,3,25463,2594970
143,-0.70354,-0.064936,9.79653,0.130384,-0.715433,1.0216,-0.00703989,-0.000656159,0.0979649,1,3.42596e-05,-2.29682e-05,6.15066e-06,0.00685193,-0.00459364,0.00123013,0,0,0,0,0.0788004,0.481721,-1.01489,34.8125,3,25466,2595270
144,-0.81402,-0.0659281,9.76673,0.011844,-0.716144,0.991098,-0.00814242,-0.000668213,0.097667,1,4.42936e-05,-1.15095e-05,1.72129e-05,0.00885871,-0.0023019,0.00344258,0,0,0,0,0.0782325,0.480343,-1.01947,34.8125,3,25470,2595670
145,-0.896593,-0.112868,9.73535,-0.0446491,-0.770936,0.98001,-0.00897171,-0.00113693,0.0973529,1,4.09596e-05,-2.98581e-05,1.53446e-05,0.00819192,-0.00597161,0.00306892,0,0,0,0,0.07878,0.482218,-1.01539,34.8125,3,25473,2595970
146,-0.0816803,-0.0869346,9.95836,0.78929,-0.73267,1.12967,-0.000840318,-0.000879008,0.0995833,1,4.82925e-05,-0.000118291,2.60612e-05,0.00965849,-0.0236583,0.00521224,0,0,0,0,0.076708,0.483787,-1.02039,34.8125,3,25476,2596270
147,-0.508786,-0.0977498,9.8038,0.214466,-0.782935,1.00495,-0.0051,-0.000987476,0.0980373,1,5.23079e-05,-6.16668e-05,-2.72257e-05,0.0104616,-0.0123334,-0.00544513,0,0,0,0,0.0768109,0.484194,-1.01584,34.8125,3,25480,2596670
148,-0.0063924,0.0256241,9.87673,0.789808,-0.632657,1.00952,-8.62506e-05,0.000239807,0.0987674,1,8.32275e-05,-0.000113137,-4.39491e-05,0.0166455,-0.0226273,-0.00878982,0,0,0,0,0.0749894,0.484616,-1.01128,34.8125,3,25483,2596970
149,0.125541,-0.108793,9.86553,0.897924,-0.821859,1.01217,0.00124674,-0.00109596,0.0986553,1,3.95159e-05,-4.29336e-05,-9.09468e-05,0.00790318,-0.00858672,-0.0181894,0,0,0,0,0.0768166,0.489008,-1.0122,34.8125,3,25486,2597270
150,1.36642,-0.232236,10.0694,2.10091,-0.893148,1.01579,0.0136351,-0.00231974,0.100698,1,-3.03955e-05,-0.000141392,-0.000128291,-0.00607911,-0.0282784,-0.0256582,0,0,0,0,0.0735745,0.483644,-1.01079,34.8125,3,25490,2597670
151,0.148708,0.543336,10.0449,1.2743,-0.0226324,1.20582,0.00149278,0.00540205,0.100451,1,0.000152201,1.50922e-05,-0.000245677,0.0304403,0.00301845,-0.0491354,0,0,0,0,0.0763345,0.486122,-1.01428,34.8125,3,25493,2597970
152,-0.102872,-0.476196,9.84327,0.602382,-1.25576,1.06037,-0.0010331,-0.00477278,0.0984322,1,5.75594e-05,-1.01443e-05,-0.000249863,0.0115119,-0.00202886,-0.0499727,0,0,0,0,0.0720946,0.485128,-1.01125,34.8125,3,25496,2598270
153,-0.0640069,-0.344484,9.77184,0.768893,-1.05133,0.951002,-0.000629562,-0.00345106,0.0977183,1,3.38162e-05,6.45738e-05,-0.000306524,0.00676325,0.0129148,-0.0613047,0,0,0,0,0.0734873,0.480816,-1.0164,34.8125,3,25500,2598670
154,-0.346668,-0.15279,9.82387,0.411232,-0.785234,0.97491,-0.00345598,-0.00153771,0.0982389,1,6.04714e-05,5.91329e-05,-0.00029932,0.0120943,0.0118266,-0.0598641,0,0,0,0,0.0720462,0.488055,-1.01119,34.8125,3,25503,2598970
155,-0.878937,-0.0300558,9.63646,-0.107715,-0.741982,0.863236,-0.00877282,-0.000309159,0.0963661,1,7.11279e-05,8.68204e-05,-0.000290801,0.0142256,0.0173641,-0.0581602,0,0,0,0,0.0695733,0.483305,-1.01734,34.8125,3,25506,2599270
156,-0.266214,-0.113162,9.70941,0.48168,-0.741799,0.845722,-0.0026735,-0.0011503,0.0970935,1,0.000105166,-5.46409e-05,-0.000326802,0.0210333,-0.0109282,-0.0653605,0,0,0,0,0.0714251,0.487679,-1.01725,34.8125,3,25510,2599670
157,0.026183,-0.0719457,9.90858,0.896886,-0.725089,1.05318,0.000251598,-0.000730615,0.0990858,1,5.54316e-05,-4.91702e-05,-0.000335997,0.0110863,-0.00983404,-0.0671995,0,0,0,0,0.0672464,0.485195,-1.01274,34.8125,3,25513,2599970
158,-0.129745,-0.000817824,9.77776,0.374334,-0.542773,0.954222,-0.00130386,-9.2315e-06,0.0977774,1,1.06813e-05,-3.27457e-05,-0.000398076,0.00213626,-0.00654914,-0.0796152,0,0,0,0,0.0680445,0.486271,-1.01878,34.8125,3,25517,2600370
159,-0.666916,-0.399642,9.73611,0.186471,-0.777893,0.943534,-0.00666197,-0.00401219,0.097361,1,0.000110905,5.49184e-05,-0.000437152,0.0221811,0.0109837,-0.0874303,0,0,0,0,0.0648869,0.487591,-1.00914,34.8125,3,25520,2600670
160,-1.17652,-0.0658115,9.551,-0.465073,-0.754328,0.761536,-0.0117663,-0.000676398,0.0955098,1,0.000143436,-3.14663e-06,-0.000387398,0.0286871,-0.000629325,-0.0774797,0,0,0,0,0.0660916,0.487271,-1.01926,34.8125,3,25523,2600970
161,-0.101501,0.077486,9.7762,0.469393,-0.818432,0.918098,-0.00102565,0.000763673,0.097762,1,6.13641e-05,-5.75296e-05,-0.000397496,0.0122728,-0.0115059,-0.0794991,0,0,0,0,0.0628926,0.48814,-1.01165,34.8125,3,25526,2601270
162,-0.378284,0.00602343,9.75337,0.180642,-1.32035,0.979941,-0.00380334,5.35753e-05,0.0975329,1,5.15914e-05,-0.00010538,-0.0004488,0.0103183,-0.021076,-0.08976,0,0,0,0,0.0609231,0.488671,-1.01314,34.8125,3,25530,2601670
163,-0.0321132,0.0284509,9.9773,0.771061,-1.04375,1.24216,-0.000315297,0.00027424,0.0997731,1,5.29279e-05,2.79503e-05,-0.000460484,0.0105856,0.00559006,-0.0920968,0,0,0,0,0.0614255,0.49106,-1.01057,34.8125,3,25533,2601970
164,-0.534455,-0.351947,9.73299,0.390826,-0.804795,0.91396,-0.00531919,-0.00352543,0.0973311,1,5.68835e-05,0.000147626,-0.000479365,0.0113767,0.0295252,-0.0958731,0,0,0,0,0.0599238,0.488706,-1.01465,34.8125,3,25536,2602270
165,-0.644488,-0.133056,9.61107,-0.025358,-0.712215,0.680527,-0.00644799,-0.00134795,0.0961103,1,0.000124948,-9.01362e-06,-0.000514145,0.0249896,-0.00180272,-0.102829,0,0,0,0,0.0589056,0.493573,-1.01353,34.8125,3,25540,2602670
166,-0.847857,-0.0684099,9.65367,-0.145564,-0.8666,0.917963,-0.00847043,-0.000680001,0.0965375,1,2.1787e-05,4.56722e-05,-0.000489947,0.00435739,0.00913444,-0.0979895,0,0,0,0,0.0566475,0.49204,-1.0085,34.8125,3,25543,2602970
167,-0.456754,-0.179857,9.75666,0.357564,-0.72659,0.956055,-0.0045752,-0.00180358,0.0975662,1,4.92104e-05,-2.99981e-05,-0.000502307,0.00984208,-0.00599961,-0.100461,0,0,0,0,0.056982,0.49648,-1.01143,34.8125,3,25546,2603270
168,-0.307472,-0.0742815,9.81992,0.446221,-0.743432,0.981785,-0.00307909,-0.000746825,0.0981991,1,3.70165e-05,-1.82175e-05,-0.000529835,0.0074033,-0.00364351,-0.105967,0,0,0,0,0.053321,0.492519,-1.00646,34.8125,3,25550,2603670
169,-0.640826,-0.449094,9.83467,0.236796,-1.32682,1.17621,-0.00641033,-0.00452438,0.098345,1,0.000206437,1.50818e-05,-0.000558838,0.0412875,0.00301637,-0.111768,0,0,0,0,0.0498179,0.494092,-1.01095,34.8125,3,25553,2603970
170,-0.524821,0.744801,9.76553,0.471911,0.552063,1.09879,-0.00522101,0.00750644,0.0976523,1,-0.000269798,9.73614e-05,-0.000546908,-0.0539597,0.0194723,-0.109382,0,0,0,0,0.050354,0.498866,-1.00529,34.8125,3,25556,2604270
171,-0.26834,-0.357616,9.81847,0.173343,-0.763261,0.940889,-0.00268855,-0.00361618,0.0981831,1,0.000219395,-5.3349e-06,-0.000570693,0.0438791,-0.00106698,-0.114139,0,0,0,0,0.045003,0.495098,-1.0104,34.8125,3,25560,2604670
172,-0.592624,0.16765,9.70897,0.00263612,-0.572066,0.874362,-0.00594418,0.00165563,0.097089,1,0.00014444,-0.000102725,-0.000604683,0.028888,-0.020545,-0.120937,0,0,0,0,0.0455642,0.5013,-1.00269,34.8125,3,25563,2604970
173,0.142415,-0.280561,10.0967,0.654604,-1.137,1.17167,0.00139654,-0.00281952,0.100967,1,6.03729e-05,-0.000119717,-0.000611588,0.0120746,-0.0239434,-0.122318,0,0,0,0,0.0416778,0.499914,-1.00523,34.8125,3,25566,2605270
174,0.24092,-0.0444489,9.87919,0.902614,-0.858869,1.0626,0.0023916,-0.000464504,0.0987923,1,8.44599e-05,-8.58838e-05,-0.000693033,0.016892,-0.0171768,-0.138607,0,0,0,0,0.0378663,0.501364,-1.00265,34.8125,3,25570,2605670
175,-0.394041,-0.0323156,9.61053,0.377731,-0.765722,0.772345,-0.00393597,-0.00032593,0.0961055,1,4.31121e-05,2.54779e-05,-0.000699953,0.00862242,0.00509558,-0.139991,0,0,0,0,0.0350337,0.503276,-0.999061,34.8125,3,25573,2605970
176,-0.0548554,-0.309799,10.34,0.771594,-1.14967,1.2808,-0.00054407,-0.0031273,0.103399,1,0.000145468,4.28511e-05,-0.000703109,0.0290936,0.00857023,-0.140622,0,0,0,0,0.0382625,0.505759,-1.00306,34.8125,3,25576,2606270
177,-0.479502,0.128734,9.87343,0.115579,-0.659462,0.976826,-0.00479632,0.00126084,0.0987346,1,0.000170824,-1.63484e-05,-0.000754195,0.0341647,-0.00326968,-0.150839,0,0,0,0,0.0307615,0.504234,-0.99599,34.8125,3,25580,2606670
178,-0.169613,-0.157139,9.94892,0.270814,-0.923772,1.04537,-0.00171328,-0.0015678,0.099489,1,-5.20437e-06,-7.43651e-05,-0.000748467,-0.00104087,-0.014873,-0.149693,0,0,0,0,0.0291872,0.506269,-0.999978,34.8125,3,25583,2606970
179,-0.163241,-0.119305,9.70053,0.526237,-0.870321,0.893504,-0.00165349,-0.00121688,0.0970047,1,0.00013542,-9.94194e-05,-0.000743076,0.027084,-0.0198839,-0.148615,0,0,0,0,0.0274435,0.505671,-0.992912,34.8125,3,25586,2607270
180,-0.2219,-0.25589,9.79846,0.334844,-1.01376,1.03473,-0.0022344,-0.00257701,0.0979839,1,0.000111071,-5.70664e-05,-0.000820631,0.0222142,-0.0114133,-0.164126,0,0,0,0,0.0215396,0.509187,-0.995837,34.8125,3,25590,2607670
181,-0.588303,-0.20715,9.34816,0.080006,-0.923195,0.674464,-0.00588534,-0.00208626,0.0934812,1,0.000130242,5.79748e-06,-0.00081508,0.0260483,0.0011595,-0.163016,0,0,0,0,0.0173215,0.512033,-0.989188,34.8125,3,25593,2607970
182,-0.443779,0.037125,9.8044,0.146132,-0.646866,1.05601,-0.00441861,0.00036193,0.0980449,0.999999,8.62518e-05,9.46343e-05,-0.000857389,0.0172504,0.0189269,-0.171478,0,0,0,0,0.011502,0.509705,-0.992749,34.8125,3,25596,2608270
183,-1.02651,-0.0367935,9.4691,-0.413025,-0.704222,0.687499,-0.0102451,-0.000383232,0.0946932,0.999999,0.00017164,0.000108795,-0.000839009,0.034328,0.0217589,-0.167802,0,0,0,0,0.00768388,0.515979,-0.987036,34.8125,3,25600,2608670
184,-0.248043,-0.309078,10.1452,0.268126,-1.20769,1.31657,-0.00248406,-0.003129,0.101451,0.999999,0.000210358,9.69796e-06,-0.000899826,0.0420717,0.00193959,-0.179965,0,0,0,0,0.00633358,0.511104,-0.986633,34.8125,3,25603,2608970
185,0.412803,0.0226516,10.0015,0.796278,-0.937386,1.08094,0.0041114,0.000190056,0.100016,0.999999,0.00014411,-8.50893e-05,-0.000926501,0.0288221,-0.0170179,-0.1853,0,0,0,0,0.00049179,0.516021,-0.985992,34.8125,3,25607,2609370
186,-0.207463,-0.429439,10.065,0.174135,-1.37693,1.14816,-0.00207701,-0.00433979,0.100648,0.999999,0.000244934,2.84911e-05,-0.000939864,0.0489867,0.00569822,-0.187973,0,0,0,0,-0.00610008,0.51549,-0.980417,34.8125,3,25610,2609670
187,0.219326,-0.0955591,10.1633,1.17917,-0.986882,1.33736,0.00219883,-0.000986232,0.101632,0.999999,0.000129049,3.69927e-05,-0.00100412,0.0258098,0.00739853,-0.200824,0,0,0,0,-0.00808623,0.515551,-0.982932,34.8125,3,25613,2609970
188,-0.287879,-0.801106,10.0619,0.373028,-1.4048,1.132,-0.002892,-0.00802304,0.100618,0.999999,8.67743e-05,1.01004e-05,-0.000950732,0.0173549,0.00202008,-0.190146,0,0,0,0,-0.0133002,0.51602,-0.979362,34.8125,3,25616,2610270
189,-0.573799,-0.215869,9.5604,-0.179431,-0.790913,0.719443,-0.00573713,-0.00218803,0.0956034,0.999999,0.000206943,2.48112e-05,-0.000891795,0.0413886,0.00496225,-0.178359,0,0,0,0,-0.0171501,0.513161,-0.981428,34.8125,3,25620,2610670
190,-0.0626668,0.175128,10.2923,0.295128,-0.797061,1.49258,-0.000613476,0.00172861,0.102924,0.999999,0.000115776,4.81996e-05,-0.000939606,0.0231552,0.00963993,-0.187921,0,0,0,0,-0.0233416,0.517504,-0.975748,34.8125,3,25623,2610970
191,-1.19277,0.302385,9.11117,-0.658323,-0.698416,0.497709,-0.0119131,0.00301762,0.0911138,0.999999,0.000150916,5.09386e-05,-0.000892022,0.0301832,0.0101877,-0.178404,0,0,0,0,-0.027171,0.514148,-0.97732,34.8125,3,25626,2611270
192,0.213797,-0.487305,9.63659,0.394296,-1.14493,0.726842,0.00213188,-0.00490321,0.0963645,0.999999,0.000135654,1.61003e-05,-0.000940218,0.0271308,0.00322006,-0.188044,0,0,0,0,-0.0323974,0.514626,-0.974255,34.8125,3,25630,2611670
193,-0.667451,-0.744032,9.33068,-0.528234,-1.54167,0.529716,-0.00668057,-0.00746056,0.0933048,0.999999,0.000176666,4.36209e-05,-0.00095279,0.0353333,0.00872418,-0.190558,0,0,0,0,-0.0370733,0.513122,-0.969721,34.8125,3,25633,2611970
194,-0.345004,-0.355102,10.0476,0.360475,-1.26418,1.25057,-0.00344799,-0.00359786,0.100474,0.999999,0.000266845,4.51907e-05,-0.000983204,0.0533689,0.00903814,-0.196641,0,0,0,0,-0.0401033,0.515178,-0.974207,34.8125,3,25636,2612270
195,-0.932283,0.512894,9.37039,0.0156615,-0.416205,0.646784,-0.00928276,0.00511478,0.0937086,0.999999,0.000177749,0.000157542,-0.00102922,0.0355498,0.0315084,-0.205844,0,0,0,0,-0.0447631,0.512698,-0.969695,34.8125,3,25640,2612670
196,-0.22684,0.0335012,9.00924,-0.263378,-1.12744,-0.0540936,-0.00227234,0.000331805,0.0900923,0.999999,4.46787e-05,-2.58306e-05,-0.00106677,0.00893574,-0.00516612,-0.213355,0,0,0,0,-0.0491586,0.513746,-0.971672,34.8125,3,25643,2612970
197,-1.08923,-0.591157,9.04783,-0.841861,-0.935265,0.124034,-0.0109215,-0.00588505,0.0904765,0.999999,-2.15401e-05,-9.37523e-05,-0.00103713,-0.00430801,-0.0187505,-0.207427,0,0,0,0,-0.0533331,0.51174,-0.966646,34.8125,3,25646,2613270
198,-0.203444,0.0049235,9.8106,0.414558,-0.99774,0.996531,-0.00201147,-1.77056e-06,0.0981065,0.999999,0.000281109,0.000116806,-0.00102611,0.0562218,0.0233613,-0.205223,0,0,0,0,-0.0556983,0.509321,-0.966689,34.8125,3,25650,2613670
199,-0.991685,0.558428,8.72749,-0.346982,-0.374056,0.0551717,-0.00991379,0.00556551,0.0872765,0.999999,0.000231133,-5.19373e-05,-0.00108775,0.0462266,-0.0103875,-0.21755,0,0,0,0,-0.0609607,0.512717,-0.963054,34.8125,3,25653,2613970
200,0.308518,-0.57448,11.5441,0.509097,-1.53311,2.50666,0.00309443,-0.00578602,0.115438,0.999999,0.000148459,9.615e-05,-0.00112335,0.0296918,0.01923,-0.22467,0,0,0,0,-0.0657239,0.508385,-0.964138,34.8125,3,25656,2614270
201,-0.963599,-0.137119,9.09108,-0.0664352,-0.734366,0.322799,-0.00963413,-0.00136199,0.0909112,0.999999,6.7967e-05,2.70472e-05,-0.00111833,0.0135934,0.00540945,-0.223666,0,0,0,0,-0.0676441,0.50888,-0.963613,34.8125,3,25660,2614670
202,-1.39598,0.479451,8.72151,-0.639751,-0.290779,0.217643,-0.0139042,0.00478912,0.0872243,0.999999,0.00021595,0.000255111,-0.00115851,0.0431901,0.0510222,-0.231702,0,0,0,0,-0.0712919,0.507801,-0.956045,34.8125,3,25663,2614970
203,-0.766057,-0.242646,9.508,-0.307779,-1.00104,0.481806,-0.00769398,-0.00243066,0.0950772,0.999999,0.00011682,-0.000145736,-0.00117306,0.023364,-0.0291471,-0.234612,0,0,0,0,-0.0751072,0.510218,-0.952943,34.8125,3,25666,2615270
204,0.170831,-0.0826316,10.0468,0.510132,-1.24217,1.36201,0.00170925,-0.000880502,0.100467,0.999999,0.000249467,1.48055e-05,-0.00118781,0.0498933,0.00296111,-0.237563,0,0,0,0,-0.081662,0.50966,-0.945854,34.8125,3,25670,2615670
205,-1.04021,0.186313,10.0686,0.158696,-0.645675,1.32837,-0.0103548,0.00187632,0.10069,0.999999,5.95008e-05,0.00021224,-0.00121283,0.0119002,0.0424481,-0.242566,0,0,0,0,-0.0835903,0.510642,-0.945318,34.8125,3,25673,2615970
206,-0.795167,-0.536549,10.2227,-0.0145906,-1.37498,1.49316,-0.00793136,-0.00537205,0.102228,0.999999,0.000125656,0.00016265,-0.00120498,0.0251313,0.03253,-0.240996,0,0,0,0,-0.0872917,0.509121,-0.940284,34.8125,3,25676,2616270
207,-0.838339,-0.116895,10.3225,0.0812983,-1.03138,1.52051,-0.00835916,-0.00114938,0.103227,0.999999,4.60682e-06,0.000131134,-0.00122593,0.000921364,0.0262267,-0.245186,0,0,0,0,-0.0896356,0.509096,-0.937749,34.8125,3,25680,2616670
208,-0.248865,-0.0196745,9.74179,-0.165838,-0.942847,0.811859,-0.00252746,-0.000217884,0.0974169,0.999999,0.000138971,-0.000196652,-0.00118377,0.0277942,-0.0393304,-0.236754,0,0,0,0,-0.0933717,0.514827,-0.929018,34.8125,3,25683,2616970
209,0.752833,0.309081,9.67805,1.07481,-0.907058,0.767209,0.00753619,0.00305772,0.096781,0.999999,7.74184e-05,2.43345e-06,-0.00120171,0.0154837,0.00048669,-0.240341,0,0,0,0,-0.102247,0.511336,-0.920469,34.8125,3,25686,2617270
210,-0.0621678,-0.30996,10.0864,0.123774,-1.49577,0.907956,-0.000652503,-0.00312283,0.100863,0.999999,0.000123124,-0.000114018,-0.00125751,0.0246248,-0.0228035,-0.251502,0,0,0,0,-0.10639,0.515572,-0.909749,34.8125,3,25690,2617670
211,-0.156056,0.0868282,9.69921,0.132672,-0.660071,0.357229,-0.00157101,0.000880265,0.0969918,0.999999,-4.08874e-05,-6.54994e-05,-0.00129374,-0.00817748,-0.0130999,-0.258747,0,0,0,0,-0.110467,0.510605,-0.90277,34.8125,3,25693,2617970
212,0.318918,-0.305942,10.2031,0.483731,-1.60016,1.1566,0.00320536,-0.00310284,0.102029,0.999999,0.000172698,0.000117917,-0.00127917,0.0345397,0.0235834,-0.255835,0,0,0,0,-0.115713,0.513024,-0.899157,34.8125,3,25697,2618370
213,-0.725142,-0.604325,10.0721,-0.373767,-1.39574,0.937934,-0.00727033,-0.00607024,0.100718,0.999999,0.000228269,-1.51867e-05,-0.00130791,0.0456539,-0.00303733,-0.261583,0,0,0,0,-0.119364,0.515803,-0.888977,34.8125,3,25700,2618670
214,0.0398314,0.149377,10.0992,0.644806,-1.21309,1.12481,0.000382493,0.00145989,0.100993,0.999999,0.000162523,-9.80604e-05,-0.00134917,0.0325045,-0.0196121,-0.269834,0,0,0,0,-0.126825,0.510393,-0.883002,34.8125,3,25703,2618970
215,0.90029,-0.487273,10.5644,1.07937,-1.90796,1.59726,0.00899686,-0.00492129,0.105643,0.999999,0.000115155,3.38081e-05,-0.00134573,0.023031,0.00676161,-0.269145,0,0,0,0,-0.13231,0.510712,-0.870848,34.8125,3,25707,2619370
216,0.351507,-1.22207,9.78962,0.207036,-2.31353,0.674649,0.00349676,-0.0122745,0.0978902,0.999999,0.00022585,7.66631e-05,-0.00136019,0.0451701,0.0153326,-0.272038,0,0,0,0,-0.137858,0.508186,-0.863303,34.8125,3,25710,2619670
217,-0.678899,0.492274,9.72834,-0.239983,0.219317,0.330602,-0.00677398,0.00492465,0.0972844,0.999999,9.10089e-05,3.95377e-06,-0.00144653,0.0182018,0.000790754,-0.289307,0,0,0,0,-0.139223,0.511513,-0.857667,34.8125,3,25713,2619970
218,0.176312,-0.350226,9.30112,0.0727766,-1.12732,-0.182492,0.00174505,-0.00354602,0.0930099,0.999999,0.000208345,-4.31428e-05,-0.00142534,0.0416691,-0.00862857,-0.285069,0,0,0,0,-0.145102,0.502136,-0.848757,34.8125,3,25717,2620370
219,-1.29209,0.464212,9.40312,-0.453488,0.10187,0.735496,-0.0128929,0.00466471,0.094034,0.999999,7.71526e-05,7.79875e-05,-0.00143741,0.0154305,0.0155975,-0.287481,0,0,0,0,-0.148489,0.504106,-0.848192,34.8125,3,25720,2620670
220,0.0936559,-0.0241057,9.51308,0.258138,-1.20598,0.430198,0.000937841,-0.000273403,0.0951307,0.999999,0.000155954,1.05955e-05,-0.00142652,0.0311909,0.0021191,-0.285303,0,0,0,0,-0.152903,0.5,-0.834627,34.8125,3,25723,2620970
221,0.383221,-0.310683,10.1458,0.360445,-1.69415,1.01722,0.00380961,-0.0031704,0.101457,0.999999,0.000260352,-6.79084e-05,-0.0014043,0.0520704,-0.0135817,-0.28086,0,0,0,0,-0.15239,0.498045,-0.834672,34.8125,3,25726,2621270
222,1.28566,0.215038,11.2452,1.9242,-1.37348,2.12246,0.0128888,0.0021107,0.112449,0.999999,9.99793e-06,0.000115524,-0.00145404,0.00199959,0.0231047,-0.290808,0,0,0,0,-0.15161,0.492522,-0.826213,34.8125,3,25730,2621670
223,-0.58488,0.0663621,9.27487,-0.430459,-0.929873,0.0665348,-0.00583041,0.000631023,0.0927501,0.999999,0.000266179,8.90591e-05,-0.00143652,0.0532359,0.0178118,-0.287304,0,0,0,0,-0.151044,0.488119,-0.825808,34.8125,3,25733,2621970
224,-1.54244,-1.18462,8.46581,-1.52441,-1.50297,-0.324713,-0.0154264,-0.0118369,0.084659,0.999999,0.000194071,0.000178722,-0.00136512,0.0388142,0.0357444,-0.273024,0,0,0,0,-0.146972,0.48937,-0.815698,34.8125,3,25736,2622270
225,0.626512,-0.663658,9.63902,0.272958,-1.57994,0.347987,0.00620606,-0.00665649,0.0963926,0.999999,1.54533e-05,-0.000212782,-0.00135724,0.00309067,-0.0425564,-0.271448,0,0,0,0,-0.143854,0.480503,-0.812374,34.8125,3,25740,2622670
226,-0.0878214,0.362972,10.029,-0.133867,-0.486751,0.590592,-0.000894106,0.00357962,0.100292,0.999999,0.000262048,-0.000129121,-0.00138822,0.0524096,-0.0258242,-0.277645,0,0,0,0,-0.141289,0.478921,-0.806865,34.8125,3,25743,2622970
227,-1.41137,-0.810973,9.31359,-1.72101,-1.67009,0.217486,-0.0141328,-0.00811541,0.0931325,0.999999,0.000241828,1.87433e-05,-0.00139376,0.0483656,0.00374866,-0.278752,0,0,0,0,-0.137326,0.473505,-0.805994,34.8125,3,25746,2623270
228,-0.417193,-0.546476,9.28938,-0.530964,-1.3455,0.0997109,-0.00422301,-0.00548431,0.0928903,0.999999,0.000168861,-0.000191959,-0.00140829,0.0337723,-0.0383918,-0.281659,0,0,0,0,-0.129591,0.47486,-0.803474,34.8125,3,25750,2623670
229,-1.06013,-0.448644,8.17647,-1.07032,-0.574343,-1.02845,-0.0106256,-0.00446594,0.0817626,0.999999,6.46188e-05,-6.88433e-05,-0.00146344,0.0129238,-0.0137687,-0.292688,0,0,0,0,-0.126027,0.470352,-0.79854,34.8125,3,25753,2623970
230,-0.90961,-0.905598,9.03963,-1.02218,-1.53855,-0.247059,-0.00911046,-0.00906111,0.0903943,0.999999,0.000176597,6.80933e-05,-0.00147172,0.0353194,0.0136187,-0.294344,0,0,0,0,-0.120295,0.469852,-0.800598,34.8125,3,25757,2624370
231,-1.19776,0.169789,9.92664,-0.658595,-0.469573,1.08549,-0.0119712,0.00169047,0.0992673,0.999999,0.000220847,6.27792e-06,-0.0015213,0.0441695,0.00125558,-0.304261,0,0,0,0,-0.113982,0.470721,-0.797578,34.8125,3,25760,2624670
232,0.496591,-2.04368,10.7184,-0.0379054,-3.13508,1.7304,0.00489781,-0.0204562,0.107183,0.999999,1.80803e-05,-1.88327e-05,-0.00156659,0.00361606,-0.00376654,-0.313318,0,0,0,0,-0.111076,0.46731,-0.799182,34.8125,3,25763,2624970
233,-0.292174,-1.24786,9.4871,-0.922654,-1.8879,0.257879,-0.00296892,-0.012502,0.0948664,0.999999,0.00017141,-4.57243e-05,-0.00154131,0.034282,-0.00914487,-0.308263,0,0,0,0,-0.108222,0.467792,-0.800195,34.8125,3,25767,2625370
234,-0.0511236,-1.43145,10.1455,-0.831467,-1.89137,0.617474,-0.000572309,-0.0143575,0.101448,0.999999,0.000220077,-7.88652e-05,-0.00157196,0.0440154,-0.015773,-0.314392,0,0,0,0,-0.106748,0.462938,-0.802329,34.8125,3,25770,2625670
235,-0.356287,-0.205406,9.60076,-0.229039,-0.692493,0.518453,-0.00356488,-0.00203983,0.0960078,0.999999,-1.55866e-05,2.31697e-05,-0.00157679,-0.00311732,0.00463395,-0.315357,0,0,0,0,-0.106475,0.465978,-0.808829,34.8125,3,25773,2625970
236,-1.1113,-0.617963,9.4432,-1.05157,-0.843282,0.387541,-0.0110919,-0.00615401,0.0944362,0.999999,3.61709e-05,0.000207275,-0.00146128,0.00723419,0.0414551,-0.292256,0,0,0,0,-0.106016,0.46069,-0.813494,34.8125,3,25776,2626270
237,-1.64497,-0.823011,8.69137,-1.77953,-1.17244,-0.0499079,-0.0164659,-0.00823449,0.0869102,0.999999,0.000277367,3.28003e-05,-0.00133166,0.0554735,0.00656006,-0.266332,0,0,0,0,-0.10672,0.459411,-0.823621,34.8125,3,25780,2626670
238,-0.26562,-0.0606214,10.6501,0.202803,-1.08122,1.9294,-0.00265578,-0.000619417,0.106501,0.999999,8.93743e-05,8.28437e-06,-0.00109829,0.0178749,0.00165687,-0.219658,0,0,0,0,-0.108104,0.452151,-0.826301,34.8125,3,25783,2626970
239,0.53951,-0.0156328,10.2104,0.302876,-1.65335,1.1299,0.00536072,-0.000181725,0.102106,1,8.11818e-05,-0.000167041,-0.000819962,0.0162364,-0.0334083,-0.163992,0,0,0,0,-0.107842,0.448452,-0.838001,34.8125,3,25787,2627370
240,-1.07198,0.238998,9.22156,-0.627364,0.0473891,0.000849962,-0.0107119,0.00237087,0.092217,1,0.0001598,3.01558e-05,-0.000483574,0.03196,0.00603117,-0.0967147,0,0,0,0,-0.107498,0.445657,-0.84564,34.8125,3,25790,2627670
241,-2.49304,0.185825,8.97305,-2.02168,0.789894,0.0398006,-0.0249096,0.00187278,0.089736,1,-3.30424e-05,0.00011234,-0.000172705,-0.00660848,0.0224679,-0.0345411,0,0,0,0,-0.104264,0.437535,-0.856947,34.8125,3,25793,2627970
242,0.404991,-0.572636,10.9605,-0.0714919,-1.18966,1.37608,0.00401337,-0.00567563,0.109609,1,-0.000228908,-0.00017022,6.78793e-05,-0.0457816,-0.0340439,0.0135759,0,0,0,0,-0.101461,0.433717,-0.863106,34.8125,3,25796,2628270
243,-1.6921,1.22024,8.98913,-0.409865,0.988801,0.535144,-0.0168755,0.0121626,0.0899053,1,0.000155566,0.00030034,0.000349192,0.0311132,0.060068,0.0698384,0,0,0,0,-0.0953888,0.428498,-0.874361,34.8125,3,25800,2628670
244,-0.331436,0.341865,9.94237,-0.0467365,-1.05298,0.721697,-0.00333552,0.00336623,0.0994248,1,0.00024967,-9.21841e-05,0.000417077,0.0499341,-0.0184368,0.0834154,0,0,0,0,-0.0926714,0.426188,-0.883011,34.8125,3,25803,2628970
245,-0.373579,-0.346631,10.7124,-0.677836,-0.952851,1.44722,-0.00378284,-0.00338585,0.107125,1,-0.000390686,-0.000233409,0.000431252,-0.0781373,-0.0466819,0.0862504,0,0,0,0,-0.0921428,0.420367,-0.885163,34.8125,3,25807,2629370
246,-0.512601,0.031668,10.2325,-0.374738,-0.103751,0.972971,-0.00512404,0.000310843,0.102325,1,5.32238e-07,1.1351e-05,0.000558889,0.000106448,0.00227019,0.111778,0,0,0,0,-0.090419,0.422907,-0.89168,34.8125,3,25810,2629670
247,-0.553723,0.36567,9.90908,-0.125053,0.328401,0.277431,-0.00555764,0.0036613,0.0990895,1,-5.12601e-05,-8.44544e-05,0.000501225,-0.010252,-0.0168909,0.100245,0,0,0,0,-0.0869259,0.416042,-0.891344,34.8125,3,25813,2629970
248,-1.78035,0.0493661,8.79008,-1.8985,-0.28972,-0.0702777,-0.0178314,0.000455452,0.0878954,1,0.000124062,-0.000156284,0.000460215,0.0248124,-0.0312568,0.092043,0,0,0,0,-0.0881747,0.420114,-0.900339,34.8125,3,25816,2630270
249,-2.55861,0.00329859,7.54165,-2.26222,0.352918,-1.18943,-0.0255786,1.0544e-05,0.0754191,1,-2.05162e-05,4.97199e-05,0.000499104,-0.00410325,0.00994397,0.0998207,0,0,0,0,-0.0895901,0.417696,-0.900891,34.8125,3,25820,2630670
250,-0.56873,-0.709186,9.9457,-0.552429,-1.31865,1.10435,-0.00566535,-0.00707526,0.0994595,1,-0.000112078,7.46868e-05,0.000500717,-0.0224157,0.0149374,0.100143,0,0,0,0,-0.0892,0.415831,-0.905985,34.8125,3,25823,2630970
251,-0.126851,0.027125,9.96484,-0.324545,-0.871153,0.875402,-0.00129489,0.000258792,0.0996481,1,5.58804e-05,-0.000130985,0.000515497,0.0111761,-0.026197,0.103099,0,0,0,0,-0.0925024,0.414848,-0.903971,34.8125,3,25826,2631270
252,-1.10299,-1.35288,10.179,-1.45758,-1.92908,0.999384,-0.0110214,-0.0135413,0.10179,1,1.23438e-05,-1.8912e-05,0.000453331,0.00246877,-0.00378241,0.0906661,0,0,0,0,-0.0969316,0.413511,-0.909031,34.8125,3,25830,2631670
253,1.46378,1.38961,12.4424,1.98203,-1.19154,3.60859,0.0146612,0.0138784,0.124423,1,0.000131231,0.000150898,0.000509905,0.0262463,0.0301795,0.101981,0,0,0,0,-0.103318,0.41414,-0.914038,34.8125,3,25833,2631970
254,-1.41736,0.934164,10.0722,0.026226,0.827117,1.47475,-0.0141648,0.00938316,0.100719,1,-0.000271962,8.71122e-05,0.000468343,-0.0543923,0.0174224,0.0936687,0,0,0,0,-0.106201,0.410307,-0.916635,34.8125,3,25837,2632370
255,-0.876977,1.27561,10.5111,0.374388,0.0085489,2.18422,-0.00875426,0.012712,0.105118,1,0.000168909,0.00013296,0.00048854,0.0337818,0.0265919,0.0977079,0,0,0,0,-0.111197,0.411928,-0.923142,34.8125,3,25840,2632670
256,0.924881,-0.0405479,10.5851,0.783219,-2.06876,1.61303,0.00923567,-0.00040079,0.105852,1,1.93699e-05,-6.38986e-05,0.000475474,0.00387398,-0.0127797,0.0950947,0,0,0,0,-0.115353,0.403645,-0.921792,34.8125,3,25843,2632970
257,-1.05438,0.917633,10.3911,-0.491563,0.304208,1.80509,-0.0104925,0.00916201,0.103918,1,2.12144e-05,0.000288481,0.000471103,0.00424288,0.0576963,0.0942206,0,0,0,0,-0.121169,0.398905,-0.926921,34.8125,3,25847,2633370
258,-2.53437,-0.0685521,8.89897,-2.13251,0.96637,-0.473226,-0.0253527,-0.000686084,0.0889871,1,-0.000121876,-5.41214e-05,0.000438973,-0.0243752,-0.0108243,0.0877946,0,0,0,0,-0.124068,0.397493,-0.928454,34.8125,3,25850,2633670
259,-0.566186,-0.319997,9.40487,-0.63966,-0.312135,0.270735,-0.00568927,-0.00314609,0.0940489,1,-0.000316356,-0.000162468,0.000496041,-0.0632712,-0.0324936,0.0992082,0,0,0,0,-0.123182,0.393203,-0.934614,34.8125,3,25853,2633970
260,-1.65673,-0.346408,8.81954,-1.38282,-0.313338,-0.325088,-0.0165637,-0.00350289,0.0881946,1,0.000130214,1.14107e-06,0.000478157,0.0260429,0.000228213,0.0956315,0,0,0,0,-0.125477,0.391697,-0.931102,34.8125,3,25856,2634270
261,-0.40735,1.38633,10.5315,0.598441,0.346953,1.73435,-0.00409755,0.0138698,0.105313,1,-4.8542e-05,-5.42479e-05,0.000455033,-0.00970841,-0.0108496,0.0910067,0,0,0,0,-0.127682,0.38627,-0.926667,34.8125,3,25860,2634670
262,-0.841303,-0.541859,8.92132,-0.904393,-0.815974,-0.223599,-0.00844785,-0.00539592,0.0892113,1,-0.000171066,-0.000223387,0.000465859,-0.0342133,-0.0446774,0.0931717,0,0,0,0,-0.129537,0.387199,-0.923102,34.8125,3,25863,2634970
263,-0.462197,1.27279,9.46144,0.164063,0.558736,0.457811,-0.00463779,0.012756,0.0946099,1,-0.000171202,-2.17295e-05,0.00045933,-0.0342404,-0.00434591,0.0918661,0,0,0,0,-0.131788,0.382287,-0.920171,34.8125,3,25866,2635270
264,-1.61911,-0.207555,8.39827,-1.62257,-0.0419902,-0.528391,-0.0161753,-0.00207561,0.0839858,1,-9.18967e-05,8.24471e-05,0.000478648,-0.0183793,0.0164894,0.0957297,0,0,0,0,-0.13276,0.388085,-0.916502,34.8125,3,25870,2635670
265,-2.58424,1.35956,8.28211,-1.67501,1.85319,-0.811023,-0.0258488,0.0135725,0.0828229,1,3.89862e-07,3.45836e-05,0.000444903,7.79724e-05,0.00691673,0.0889806,0,0,0,0,-0.133451,0.387895,-0.905391,34.8125,3,25873,2635970
266,-1.0251,0.405496,9.34791,-0.501916,0.226347,0.370733,-0.0102667,0.00408564,0.0934761,1,-0.000216897,-6.31644e-05,0.000480816,-0.0433793,-0.0126329,0.0961631,0,0,0,0,-0.134376,0.389321,-0.90283,34.8125,3,25877,2636370
267,-0.839255,1.31784,9.17379,0.43748,1.36375,0.435386,-0.00841266,0.0131805,0.0917358,1,-4.87732e-05,-5.1e-05,0.000407919,-0.00975463,-0.0102,0.0815839,0,0,0,0,-0.137574,0.39308,-0.893136,34.8125,3,25880,2636670
268,-0.638633,0.419849,10.2241,-0.384543,-0.194223,1.26701,-0.00644187,0.00420052,0.102238,1,-4.20677e-05,-0.000250616,0.00051212,-0.00841354,-0.0501233,0.102424,0,0,0,0,-0.139828,0.39058,-0.888635,34.8125,3,25883,2636970
266,-0.0290583,1.02507,9.43102,0.014038,-0.0585062,-0.0820292,-0.000368337,0.0102604,0.0943089,1,-5.30306e-05,-0.000355748,0.000519373,-0.0106061,-0.0711496,0.103875,0,0,0,0,-0.143577,0.396321,-0.880409,34.8125,3,25886,2637270
270,-0.222507,0.601705,10.8133,0.334561,-0.247426,1.59984,-0.0022485,0.00603265,0.108131,1,-8.24892e-05,-8.052e-05,0.000499825,-0.0164978,-0.016104,0.0999649,0,0,0,0,-0.142919,0.395224,-0.873871,34.8125,3,25890,2637670
271,-0.634112,-0.578969,9.63607,-1.24788,-1.79643,0.778232,-0.00633026,-0.00586421,0.0963569,1,0.000354174,2.6427e-05,0.000494553,0.0708348,0.0052854,0.0989107,0,0,0,0,-0.14393,0.398159,-0.873801,34.8125,3,25893,2637970
272,-2.1891,-0.525138,8.72035,-2.12054,-0.226866,-0.194794,-0.0218961,-0.00527057,0.0872011,1,-2.19383e-05,-6.09427e-05,0.000525573,-0.00438766,-0.0121885,0.105115,0,0,0,0,-0.14139,0.392258,-0.872429,34.8125,3,25896,2638270
273,-1.08842,-0.124885,8.78155,-0.870365,-0.358329,-0.442107,-0.0109106,-0.00128197,0.0878118,1,0.000120329,-0.000158106,0.000550006,0.0240658,-0.0316211,0.110001,0,0,0,0,-0.143306,0.394677,-0.870346,34.8125,3,25900,2638670
274,0.0821093,1.13875,11.285,1.30711,-0.872603,3.17984,0.000836496,0.0113441,0.112855,1,0.000195916,0.000116064,0.000474846,0.0391831,0.0232128,0.0949692,0,0,0,0,-0.140129,0.386732,-0.863972,34.8125,3,25903,2638970
275,-1.1213,-0.182879,9.11578,-1.18324,-0.802525,0.165882,-0.0112253,-0.00186811,0.0911555,1,0.000144537,-7.94143e-05,0.000577818,0.0289075,-0.0158829,0.115564,0,0,0,0,-0.133866,0.387637,-0.86297,34.8125,3,25907,2639370
276,0.143677,-0.0674197,10.3814,0.0138028,-1.03981,1.21898,0.00142828,-0.000662852,0.103814,1,-4.7932e-05,-4.40266e-05,0.000486096,-0.0095864,-0.00880533,0.0972193,0,0,0,0,-0.134184,0.385112,-0.857974,34.8125,3,25910,2639670
277,-1.10021,-0.101691,10.4162,-1.13643,-0.124472,0.969125,-0.0109847,-0.00105879,0.104164,1,0.000141196,7.78419e-05,0.000567074,0.0282392,0.0155684,0.113415,0,0,0,0,-0.125504,0.381653,-0.859606,34.8125,3,25913,2639970
278,-1.89941,1.669,9.07999,-1.11676,1.4882,-0.0541058,-0.0190073,0.0166678,0.0908012,1,5.93988e-06,2.93571e-05,0.000555754,0.00118798,0.00587141,0.111151,0,0,0,0,-0.11865,0.379583,-0.856149,34.8125,3,25916,2640270
279,-0.736498,0.867431,9.72675,-0.333101,0.443452,0.625746,-0.00737936,0.00867184,0.0972667,1,-3.54737e-05,-1.71888e-05,0.000636351,-0.00709475,-0.00343776,0.12727,0,0,0,0,-0.1089,0.378446,-0.851673,34.8125,3,25920,2640670
280,0.158459,-0.995955,10.9774,-0.0259889,-1.79091,2.19336,0.00159651,-0.00991738,0.109778,1,-0.000182089,-8.23336e-06,0.000690575,-0.0364178,-0.00164667,0.138115,0,0,0,0,-0.104565,0.381779,-0.849094,34.8125,3,25923,2640970
281,-0.989526,-0.335909,8.73917,-0.797629,-0.737714,-0.594879,-0.00994416,-0.00337714,0.0873855,0.999999,4.68254e-06,-0.000313264,0.000868551,0.000936509,-0.0626528,0.17371,0,0,0,0,-0.0981255,0.381592,-0.841552,34.8125,3,25926,2641270
282,-1.61787,0.853925,8.93169,-1.28297,0.330044,-0.0599706,-0.0161909,0.00850792,0.0893177,0.999999,-2.40939e-05,3.68731e-05,0.00110093,-0.00481878,0.00737463,0.220186,0,0,0,0,-0.090032,0.384478,-0.84304,34.8125,3,25930,2641670
283,-0.849343,0.0755208,9.96333,-0.448314,-0.871912,1.39464,-0.00847267,0.000713231,0.0996354,0.999999,0.000106675,0.0001132,0.00122126,0.0213349,0.0226399,0.244252,0,0,0,0,-0.0811745,0.384261,-0.835005,34.8125,3,25933,2641970
284,-0.815009,0.462319,9.39661,-0.335893,-0.286682,0.576776,-0.0081658,0.00460801,0.0939655,0.999999,-4.1624e-05,-1.43436e-05,0.00140988,-0.00832479,-0.00286872,0.281976,0,0,0,0,-0.0760289,0.388661,-0.837961,34.8125,3,25936,2642270
285,-2.24202,-0.153092,8.27171,-2.36228,0.348746,-1.21476,-0.022429,-0.00161328,0.0827132,0.999998,1.52314e-05,-8.67005e-05,0.00178031,0.00304629,-0.0173401,0.356063,0,0,0,0,-0.0648393,0.389924,-0.831924,34.8125,3,25940,2642670
286,-1.85018,0.73154,8.81567,-1.76265,0.415297,-0.397926,-0.0185225,0.00725963,0.0881569,0.999998,-9.28178e-05,4.37612e-05,0.00194822,-0.0185636,0.00875226,0.389644,0,0,0,0,-0.0591157,0.388467,-0.835013,34.8125,3,25943,2642970
287,-2.69661,-0.617212,8.57616,-2.96248,-0.367171,-0.676816,-0.02695,-0.00625827,0.0857604,0.999998,-0.000134572,-5.25327e-05,0.00202606,-0.0269145,-0.0105065,0.405212,0,0,0,0,-0.0514872,0.390381,-0.836521,34.8125,3,25946,2643270
288,-1.34994,0.745221,9.56723,-0.440729,0.26755,1.04161,-0.0134911,0.00739061,0.0956782,0.999997,-1.97171e-05,0.000231336,0.0024221,-0.00394343,0.0462672,0.484421,0,0,0,0,-0.0428645,0.388891,-0.839119,34.8125,3,25950,2643670
289,-1.66344,0.539081,9.06998,-0.866958,0.658695,0.188636,-0.016658,0.00535573,0.0906976,0.999997,-0.000271481,1.98583e-05,0.00253279,-0.0542962,0.00397167,0.506559,0,0,0,0,-0.0344013,0.390409,-0.846196,34.8125,3,25953,2643970
290,-0.814761,1.72037,11.0326,-0.0217625,0.717531,2.17792,-0.00822101,0.0171721,0.110326,0.999996,-5.82299e-05,8.99698e-05,0.00271259,-0.011646,0.017994,0.542518,0,0,0,0,-0.0237887,0.387891,-0.846806,34.8125,3,25956,2644270
291,-1.70911,1.4927,9.07808,-0.946081,0.996158,0.332928,-0.0171843,0.014822,0.0907804,0.999996,3.64327e-05,-4.25143e-05,0.00287203,0.00728654,-0.00850287,0.574407,0,0,0,0,-0.00816283,0.38746,-0.857494,34.8125,3,25960,2644670
292,-1.21148,-0.755715,8.69337,-1.31267,-1.20575,-0.365195,-0.0120837,-0.00759988,0.0869343,0.999996,-0.000160308,-7.56709e-05,0.00291743,-0.0320617,-0.0151342,0.583487,0,0,0,0,0.00156917,0.382963,-0.856123,34.8125,3,25963,2644970
293,-1.3114,-0.265073,9.88662,-0.65835,-0.548005,1.05802,-0.0130931,-0.00267412,0.0988684,0.999995,-0.000309961,1.87252e-05,0.003231,-0.0619924,0.00374505,0.646202,0,0,0,0,0.016332,0.383914,-0.861726,34.8125,3,25967,2645370
294,-1.39107,2.36578,9.9286,-0.269438,1.77259,1.37279,-0.0140389,0.0236176,0.0992775,0.999995,-0.000260767,0.00013832,0.00329273,-0.0521534,0.027664,0.658548,0,0,0,0,0.0264236,0.385284,-0.861237,34.8125,3,25970,2645670
295,-0.310473,0.21491,10.0751,0.0628419,-0.832986,1.04575,-0.00312348,0.00216688,0.10075,0.999994,-0.000190648,-2.20766e-05,0.00331352,-0.0381296,-0.00441533,0.662705,0,0,0,0,0.0398204,0.383781,-0.865373,34.8125,3,25973,2645970
296,-1.80254,0.223229,9.76437,-1.27927,0.0217451,0.931728,-0.0180359,0.00217853,0.097643,0.999994,-0.000333071,2.04083e-05,0.00329447,-0.0666143,0.00408167,0.658896,0,0,0,0,0.054613,0.388083,-0.867366,34.8125,3,25977,2646370
297,-0.46292,0.384199,10.1328,0.0423679,-0.478212,1.329,-0.0046439,0.00386492,0.101326,0.999994,-0.000270565,5.83264e-05,0.00344083,-0.0541131,0.0116653,0.688168,0,0,0,0,0.0652133,0.385574,-0.868481,34.8125,3,25980,2646670
298,1.08052,2.2237,10.7055,1.2214,-0.438187,1.67028,0.0106119,0.0223692,0.107047,0.999994,-0.000275174,-0.000189782,0.00342131,-0.055035,-0.0379564,0.684264,0,0,0,0,0.07663,0.390392,-0.870446,34.8125,3,25983,2646970
299,-2.96314,1.45663,8.89651,-2.73752,-0.0128051,0.296908,-0.0296857,0.0144294,0.0889693,0.999994,-0.000385509,0.000259418,0.00346369,-0.077102,0.0518837,0.69274,0,0,0,0,0.0853115,0.392714,-0.86791,34.8125,3,25986,2647270
300,-1.91419,0.743191,8.89373,-1.27321,0.396652,-0.14601,-0.0192059,0.00734992,0.0889304,0.999994,-0.000292534,-6.95482e-05,0.0034949,-0.0585069,-0.0139097,0.698981,0,0,0,0,0.0995737,0.397056,-0.871919,34.8125,3,25990,2647670
301,-0.707277,0.957578,9.3705,-0.397546,0.286251,0.645007,-0.00714114,0.00956811,0.0937007,0.999994,-0.000220622,-1.25908e-05,0.00344817,-0.0441245,-0.00251817,0.689635,0,0,0,0,0.107884,0.39641,-0.866921,34.8125,3,25993,2647970
302,-1.27863,0.352036,8.92913,-1.75562,0.127358,-0.377081,-0.012821,0.00350278,0.089287,0.999994,-0.000380527,-6.3332e-05,0.0033399,-0.0761055,-0.0126664,0.667981,0,0,0,0,0.119805,0.39687,-0.871007,34.8125,3,25997,2648370
303,-1.44493,0.102244,9.10561,-0.971501,-0.547559,0.398126,-0.0144451,0.000974102,0.0910573,0.999994,-0.000284755,6.1343e-05,0.00346782,-0.0569511,0.0122686,0.693565,0,0,0,0,0.127878,0.400252,-0.872989,34.8125,3,26000,2648670
304,-0.881237,1.95323,9.73369,-0.289801,1.42466,1.35783,-0.00893166,0.0195201,0.0973284,0.999994,-0.000251674,7.95851e-05,0.00345134,-0.0503349,0.0159171,0.69027,0,0,0,0,0.138454,0.397762,-0.875114,34.8125,3,26003,2648970
305,-1.4885,0.16625,10.2401,-0.65981,-0.581389,1.6577,-0.0149205,0.00160819,0.102397,0.999994,-0.000232864,-0.000118486,0.00342241,-0.0465729,-0.0236972,0.684483,0,0,0,0,0.147069,0.396759,-0.877701,34.8125,3,26007,2649370
306,-1.02751,1.1228,8.99617,-1.14401,0.34495,0.371301,-0.0103681,0.0111924,0.0899555,0.999994,-0.000191036,-9.42048e-05,0.00339092,-0.0382072,-0.018841,0.678186,0,0,0,0,0.152429,0.391847,-0.87834,34.8125,3,26010,2649670
307,-0.276186,0.505477,9.12477,-0.216388,-0.80543,-0.0128756,-0.00280653,0.00503127,0.0912477,0.999994,2.32976e-05,-5.36808e-05,0.0034582,0.00465954,-0.0107362,0.691642,0,0,0,0,0.160469,0.392844,-0.883406,34.8125,3,26013,2649970
308,-1.93104,1.67303,9.06109,-1.4403,1.07991,0.631715,-0.0193821,0.0166672,0.0906073,0.999994,-0.000361737,0.000217152,0.00332459,-0.0723475,0.0434305,0.664919,0,0,0,0,0.173556,0.386883,-0.883598,34.8125,3,26017,2650370
309,-1.49749,1.09565,9.64359,-0.963672,0.544224,0.534308,-0.0150613,0.0109291,0.0964256,0.999994,-0.000375056,-7.08262e-05,0.00331971,-0.0750113,-0.0141653,0.663944,0,0,0,0,0.181521,0.38649,-0.892735,34.8125,3,26020,2650670
310,-0.804572,0.408965,9.11893,-0.547628,-0.891703,-0.0168912,-0.00809803,0.00402295,0.0911876,0.999994,6.91115e-05,-0.00013772,0.00335089,0.0138223,-0.027544,0.670179,0,0,0,0,0.190804,0.381491,-0.890364,34.8125,3,26023,2650970
311,-1.05048,1.76554,9.71614,-0.830154,1.23092,0.647525,-0.0106168,0.0176299,0.0971538,0.999994,-0.00023238,3.07756e-05,0.00334508,-0.0464761,0.00615513,0.669017,0,0,0,0,0.206191,0.377515,-0.893553,34.8125,3,26027,2651370
312,0.526478,0.748867,10.9656,1.02514,-0.242335,1.99289,0.005219,0.00753763,0.109655,0.999994,-6.29453e-05,2.10102e-05,0.00335315,-0.0125891,0.00420205,0.670632,0,0,0,0,0.2149,0.377407,-0.891576,34.8125,3,26030,2651670
313,-0.989251,0.631032,9.53285,-0.597535,-0.1459,0.806475,-0.00988683,0.00627173,0.0953317,0.999994,-0.000141347,0.000248412,0.00331313,-0.0282695,0.0496826,0.662627,0,0,0,0,0.226882,0.373486,-0.896264,34.8125,3,26033,2651970
314,-0.199491,0.906435,10.5484,0.185359,0.284767,1.75701,-0.00201185,0.00911411,0.10548,0.999994,-0.000299392,0.000207958,0.00334526,-0.0598784,0.0415918,0.669053,0,0,0,0,0.245037,0.37439,-0.900873,34.8125,3,26037,2652370
315,-1.05939,0.879093,9.85078,-0.432248,-0.00717487,1.16674,-0.0106476,0.00877656,0.0985033,0.999995,-0.000279133,1.85202e-05,0.00326525,-0.0558267,0.00370404,0.653052,0,0,0,0,0.254312,0.369879,-0.898491,34.8125,3,26040,2652670
316,0.660955,-0.529727,9.92855,1.15955,-1.12785,1.50065,0.0066266,-0.00523008,0.0992879,0.999995,-0.000119274,-8.83912e-05,0.00328691,-0.0238548,-0.0176783,0.657384,0,0,0,0,0.266679,0.374698,-0.900966,34.8125,3,26043,2652970
317,-0.663182,0.83608,10.0706,-0.462683,0.206028,1.74702,-0.00664099,0.00838024,0.100704,0.999995,-0.000308008,0.000221198,0.0032088,-0.0616018,0.0442396,0.641761,0,0,0,0,0.275519,0.371122,-0.896036,34.8125,3,26047,2653370
318,-1.25627,0.260815,9.62899,-1.2405,-1.26559,0.713368,-0.0125975,0.00256871,0.0962864,0.999995,-0.000217163,-9.40405e-05,0.00322982,-0.0434326,-0.0188081,0.645964,0,0,0,0,0.287305,0.373126,-0.904632,34.8125,3,26050,2653670
319,-0.590512,0.420902,9.52455,-0.495179,-0.289081,0.843727,-0.00594583,0.00424917,0.0952412,0.999995,-0.000414449,-6.83474e-05,0.00327371,-0.0828901,-0.0136695,0.654744,0,0,0,0,0.295031,0.372077,-0.904186,34.8125,3,26053,2653970
320,-0.43065,0.802635,9.91679,-0.215689,0.160217,1.16189,-0.00432908,0.00804663,0.0991654,0.999995,-0.000241634,0.000145656,0.00320158,-0.0483268,0.0291313,0.640318,0,0,0,0,0.305068,0.370114,-0.908316,34.8125,3,26057,2654370
321,-1.41265,1.09411,9.17596,-1.59445,-0.000344174,0.107177,-0.0142118,0.0109113,0.09175,0.999995,-0.000328471,-8.58795e-05,0.00318035,-0.0656944,-0.0171759,0.636071,0,0,0,0,0.312766,0.368605,-0.909395,34.8125,3,26060,2654670
322,-1.31585,0.735709,9.54242,-1.16825,-0.148074,0.745824,-0.0131993,0.00735761,0.0954185,0.999995,-0.000448821,3.48399e-05,0.00322981,-0.0897644,0.00696799,0.645963,0,0,0,0,0.320426,0.365678,-0.913031,34.8125,3,26063,2654970
323,-0.71021,0.260062,9.58137,-0.393304,-0.804487,0.4398,-0.007135,0.00256837,0.0958121,0.999995,-7.67074e-05,-8.27249e-05,0.00329783,-0.0153415,-0.016545,0.659567,0,0,0,0,0.328994,0.362299,-0.919207,34.8125,3,26067,2655370
324,-1.96742,0.107252,9.22883,-1.20911,-1.20022,0.498231,-0.0196711,0.000999614,0.0922898,0.999995,-0.000300109,5.37468e-05,0.00326081,-0.060022,0.0107494,0.652163,0,0,0,0,0.334375,0.353999,-0.921436,34.8125,3,26070,2655670
325,-0.682522,0.181473,10.0717,-0.0994437,-0.782937,1.43787,-0.00684308,0.00179698,0.100716,0.999994,-0.000139497,-2.84928e-05,0.00335424,-0.0278994,-0.00569858,0.67085,0,0,0,0,0.342862,0.352608,-0.929587,34.8125,3,26073,2655970
326,-1.62615,1.41893,9.40174,-1.44363,-0.400601,0.578729,-0.0163358,0.0140787,0.0940211,0.999994,6.00499e-06,0.000109401,0.00335627,0.001201,0.0218803,0.671254,0,0,0,0,0.349774,0.338931,-0.931943,34.8125,3,26077,2656370
327,-1.42677,-0.504876,9.83557,-0.485739,-1.17638,1.14907,-0.0142387,-0.00509664,0.0983574,0.999995,-0.000232309,-2.20513e-05,0.00328266,-0.0464618,-0.00441026,0.656534,0,0,0,0,0.358272,0.333195,-0.942716,34.8125,3,26080,2656670
328,-1.40564,1.44967,9.42479,-1.71839,0.216746,0.406424,-0.0141817,0.0144585,0.094235,0.999995,-0.000283486,-0.000165958,0.00324452,-0.0566974,-0.0331917,0.648905,0,0,0,0,0.363303,0.327212,-0.937822,34.8125,3,26083,2656970
329,-1.07111,0.911014,10.175,-1.12934,0.040263,1.27042,-0.0107614,0.00910568,0.101745,0.999995,-0.000314678,3.8342e-05,0.00318985,-0.0629358,0.00766842,0.63797,0,0,0,0,0.370435,0.317576,-0.94817,34.8125,3,26087,2657370
330,-1.14051,0.927268,9.11508,-0.630292,-0.65204,0.307257,-0.0114658,0.00920743,0.0911498,0.999995,-3.20425e-05,-1.79227e-05,0.00310836,-0.00640852,-0.00358455,0.621673,0,0,0,0,0.376749,0.313144,-0.948803,34.8125,3,26090,2657670
331,-2.06914,0.817389,9.3114,-1.73005,-1.13055,0.443635,-0.0207382,0.00811347,0.0931089,0.999995,-0.000369478,2.1387e-05,0.00311918,-0.0738956,0.00427741,0.623838,0,0,0,0,0.38403,0.306291,-0.951009,34.8125,3,26093,2657970
332,-1.32985,0.641337,9.59757,-1.01457,-0.735241,0.542152,-0.013367,0.00635718,0.09597,0.999995,-0.000132447,-0.0001532,0.00306055,-0.0264895,-0.0306401,0.612112,0,0,0,0,0.388845,0.305284,-0.951559,34.8125,3,26096,2658270
333,-1.88086,1.45721,9.18281,-1.65281,0.115881,0.619379,-0.0188854,0.0144901,0.0918254,0.999995,-0.00016899,5.63199e-05,0.00299708,-0.0337981,0.011264,0.599418,0,0,0,0,0.390902,0.296497,-0.952269,34.8125,3,26100,2658670
334,-1.88087,0.0539653,9.02626,-0.873414,-1.58512,0.184,-0.0187985,0.000459819,0.0902651,0.999996,-0.000171066,7.29519e-05,0.00294399,-0.0342133,0.0145904,0.5888,0,0,0,0,0.400451,0.296472,-0.955344,34.8125,3,26103,2658970
335,-1.98698,-0.0983408,8.99702,-1.02118,-1.70146,0.20605,-0.0198692,-0.00105136,0.0899696,0.999996,-0.000264334,-2.95898e-05,0.00290674,-0.0528669,-0.00591797,0.581349,0,0,0,0,0.402142,0.288086,-0.950992,34.8125,3,26107,2659370
336,-0.242255,0.966098,10.9446,-0.447328,-0.0325355,1.84096,-0.0025023,0.00968335,0.109443,0.999996,-0.000167866,-0.000106253,0.00292032,-0.0335732,-0.0212506,0.584065,0,0,0,0,0.405476,0.285674,-0.954092,34.8125,3,26110,2659670
337,-1.28018,-0.422139,9.56451,0.00692565,-1.08341,0.664987,-0.0127691,-0.00426309,0.0956477,0.999996,-0.00017119,4.1877e-05,0.00291146,-0.0342381,0.00837542,0.582293,0,0,0,0,0.410952,0.281159,-0.949672,34.8125,3,26113,2659970
338,-1.31573,0.272407,9.6857,-0.449927,-0.884912,1.10948,-0.0131494,0.00268932,0.0968591,0.999996,-0.000205748,0.000120309,0.00283587,-0.0411497,0.0240618,0.567174,0,0,0,0,0.412925,0.278216,-0.949746,34.8125,3,26117,2660370
339,-2.65409,0.516192,8.10511,-1.82117,-1.87685,-0.744987,-0.0265772,0.0050288,0.0810476,0.999996,-8.84421e-05,-4.96285e-05,0.00277585,-0.0176884,-0.00992572,0.55517,0,0,0,0,0.415409,0.277175,-0.947256,34.8125,3,26120,2660670
340,-0.666815,0.585946,10.1242,-0.221375,-0.517836,1.20413,-0.00671838,0.0058349,0.10124,0.999996,-6.42484e-05,-8.6021e-05,0.00280603,-0.0128497,-0.0172042,0.561207,0,0,0,0,0.417862,0.271338,-0.949417,34.8125,3,26123,2660970
341,-2.39382,0.613198,9.12525,-1.52175,-1.43539,0.445879,-0.0239559,0.00604583,0.0912536,0.999996,-0.000242135,8.45592e-05,0.00272137,-0.048427,0.0169119,0.544274,0,0,0,0,0.422359,0.267807,-0.944971,34.8125,3,26126,2661270
342,-1.34582,0.0735436,9.24818,-0.468771,-1.18144,0.364862,-0.0134638,0.000702761,0.0924813,0.999996,-0.00022051,-9.25982e-06,0.00272868,-0.0441021,-0.00185197,0.545737,0,0,0,0,0.42255,0.261402,-0.941578,34.8125,3,26130,2661670
343,-1.51798,0.162617,9.32876,-0.680677,-1.14574,0.466044,-0.0151887,0.00160646,0.0932865,0.999996,-0.000323848,-2.09709e-06,0.00263855,-0.0647698,-0.000419418,0.527711,0,0,0,0,0.425453,0.258958,-0.942656,34.8125,3,26133,2661970
344,-1.53713,0.0620411,9.47677,-0.547595,-1.37235,0.536187,-0.015394,0.000586792,0.0947642,0.999997,-0.000240477,-0.000103372,0.00257421,-0.0480955,-0.0206745,0.514842,0,0,0,0,0.425126,0.252585,-0.940776,34.8125,3,26136,2662270
345,-0.772604,0.626581,10.3503,-0.344456,0.018973,1.62671,-0.00776206,0.00627868,0.1035,0.999997,-0.00025104,-2.10178e-05,0.00252392,-0.050208,-0.00420357,0.504785,0,0,0,0,0.428569,0.24431,-0.943501,34.8125,3,26140,2662670
346,-1.93176,0.719921,8.86719,-1.30455,-1.3391,-0.231035,-0.0193609,0.00713231,0.0886679,0.999997,-0.000152985,-4.76411e-05,0.0024309,-0.0305971,-0.00952823,0.48618,0,0,0,0,0.430229,0.239321,-0.938064,34.8125,3,26143,2662970
347,-0.771687,0.369304,9.80747,-0.256861,-0.535136,1.07404,-0.00775454,0.00370403,0.0980713,0.999997,-0.000235417,-0.000106272,0.0022741,-0.0470834,-0.0212544,0.454821,0,0,0,0,0.43216,0.234481,-0.941211,34.8125,3,26146,2663270
348,-0.214626,-0.0587818,10.4328,0.822529,-0.568436,1.57213,-0.0021802,-0.000572723,0.104327,0.999997,-0.000117041,-0.000174646,0.00215556,-0.0234082,-0.0349292,0.431113,0,0,0,0,0.434193,0.225712,-0.942931,34.8125,3,26150,2663670
349,-1.89849,0.448902,9.20962,-1.17181,-1.09718,0.230298,-0.0190047,0.00446996,0.0920931,0.999998,-0.00032788,-5.64641e-06,0.00209143,-0.065576,-0.00112928,0.418286,0,0,0,0,0.434335,0.217899,-0.9426,34.8125,3,26153,2663970
350,-1.84833,-0.297714,8.72859,-0.464115,-1.96714,-0.269955,-0.0184871,-0.00303005,0.0872832,0.999998,-0.000109375,-8.8998e-05,0.00194754,-0.021875,-0.0177996,0.389509,0,0,0,0,0.439749,0.214874,-0.939662,34.8125,3,26156,2664270
351,-1.35963,0.33835,9.2494,-0.623593,-1.059,0.150722,-0.0136311,0.00336908,0.0924894,0.999998,-0.000194849,-0.00012018,0.00185324,-0.0389699,-0.024036,0.370649,0,0,0,0,0.437982,0.204656,-0.940386,34.8125,3,26160,2664670
352,-1.79718,0.217545,9.07543,-0.590922,-1.33006,0.417707,-0.0179906,0.00213426,0.0907515,0.999998,-0.00013117,-6.07251e-05,0.0018073,-0.026234,-0.012145,0.361461,0,0,0,0,0.444811,0.199713,-0.940022,34.8125,3,26163,2664970
353,-1.22721,-0.24637,9.74929,0.216105,-1.28183,1.01386,-0.0122642,-0.00247912,0.0974935,0.999998,-0.000140372,-3.95916e-06,0.00174419,-0.0280743,-0.000791832,0.348839,0,0,0,0,0.440599,0.19629,-0.937553,34.8125,3,26166,2665270
354,-1.10665,-0.0858147,9.47752,0.0663032,-1.13318,0.677914,-0.0110677,-0.000875049,0.0947749,0.999998,-0.000111436,-2.20588e-05,0.00171788,-0.0222873,-0.00441176,0.343576,0,0,0,0,0.444527,0.18849,-0.939765,34.8125,3,26170,2665670
355,-0.996011,0.17476,9.81473,-0.508346,-0.559195,0.847014,-0.00997338,0.00172804,0.0981463,0.999998,-7.27077e-05,-3.75277e-05,0.00169753,-0.0145415,-0.00750554,0.339507,0,0,0,0,0.448572,0.182532,-0.935876,34.8125,3,26173,2665970
356,-0.907203,0.474857,10.1247,-0.255972,-0.717861,1.12137,-0.00907655,0.00473019,0.101248,0.999999,-5.25101e-05,5.2546e-05,0.00159887,-0.010502,0.0105092,0.319775,0,0,0,0,0.45054,0.177666,-0.937508,34.8125,3,26176,2666270
357,-1.41735,-0.340923,9.38981,0.311718,-1.35323,0.461349,-0.0141605,-0.00343116,0.0938993,0.999999,-0.000114179,1.33245e-05,0.00153081,-0.0228359,0.00266489,0.306162,0,0,0,0,0.456424,0.174646,-0.935077,34.8125,3,26180,2666670
358,-1.34984,-0.346256,9.45619,0.237651,-1.33209,0.734106,-0.0134902,-0.00347988,0.0945625,0.999999,-0.000116517,-9.75406e-06,0.00145838,-0.0233034,-0.00195081,0.291675,0,0,0,0,0.452745,0.167325,-0.933203,34.8125,3,26183,2666970
359,-1.23524,0.287483,9.6152,-0.247323,-0.819876,1.06505,-0.0123482,0.00285498,0.0961532,0.999999,-8.04747e-05,6.43115e-05,0.00143013,-0.016095,0.0128623,0.286026,0,0,0,0,0.458079,0.167733,-0.931198,34.8125,3,26186,2667270
360,-1.34588,-0.0252518,9.39419,0.0347748,-1.1142,0.448614,-0.0134611,-0.000270272,0.0939415,0.999999,-9.89028e-05,-1.59396e-05,0.00134976,-0.0197806,-0.00318792,0.269952,0,0,0,0,0.455921,0.157935,-0.92787,34.8125,3,26190,2667670
361,-1.06095,0.203759,9.15471,-0.197227,-0.908867,0.386299,-0.0106191,0.00200599,0.0915467,0.999999,2.6432e-05,-2.46358e-05,0.00126056,0.00528641,-0.00492717,0.252112,0,0,0,0,0.46311,0.160304,-0.927346,34.8125,3,26193,2667970
362,-1.36536,0.32695,8.79552,-0.50647,-1.41142,-0.205743,-0.0136764,0.00324937,0.0879524,0.999999,-6.70574e-05,-8.62861e-05,0.0011683,-0.0134115,-0.0172572,0.233659,0,0,0,0,0.461372,0.153438,-0.92446,34.8125,3,26196,2668270
363,-0.347476,0.0878735,9.84577,0.0918134,-0.103817,0.964199,-0.0034918,0.000885343,0.098457,0.999999,-7.40275e-05,-7.62949e-05,0.00114397,-0.0148055,-0.015259,0.228795,0,0,0,0,0.462411,0.149518,-0.924047,34.8125,3,26200,2668670
364,-1.20589,-0.036225,9.65162,-0.0536138,-1.02937,0.730801,-0.0120587,-0.000394181,0.0965161,0.999999,3.04898e-05,-3.1045e-06,0.00107993,0.00609796,-0.000620901,0.215986,0,0,0,0,0.463072,0.14601,-0.919077,34.8125,3,26203,2668970
365,-1.0565,0.0256887,9.63242,-0.0509912,-0.89706,0.707009,-0.0105745,0.000260405,0.0963232,0.999999,-0.000126253,-4.70927e-05,0.000984112,-0.0252507,-0.00941854,0.196822,0,0,0,0,0.465503,0.145972,-0.918079,34.8125,3,26206,2669270
366,0.113639,-0.240543,10.5335,1.22997,0.208298,1.74425,0.00112064,-0.00239229,0.105336,0.999999,-5.27459e-05,-9.52826e-05,0.000899432,-0.0105492,-0.0190565,0.179886,0,0,0,0,0.467065,0.143946,-0.914596,34.8125,3,26210,2669670
367,0.111609,0.216517,10.1467,0.292732,-0.173267,1.0133,0.0010787,0.0021831,0.101467,0.999999,-7.89502e-05,-0.000165566,0.00087099,-0.0157901,-0.0331132,0.174198,0,0,0,0,0.462359,0.140535,-0.91263,34.8125,3,26213,2669970
368,0.266862,0.055114,9.86719,0.783662,-0.105052,0.789845,0.00263338,0.000550126,0.0986729,1,2.77903e-05,-0.000173913,0.000843136,0.00555805,-0.0347826,0.168627,0,0,0,0,0.466697,0.140011,-0.912662,34.8125,3,26216,2670270
369,0.0464887,-0.203136,10.7582,0.296932,0.203165,1.83919,0.000481686,-0.00202217,0.107583,1,-3.96666e-05,6.49501e-05,0.000696534,-0.00793332,0.01299,0.139307,0,0,0,0,0.463958,0.137037,-0.908675,34.8125,3,26220,2670670
370,-0.98649,0.525074,9.8859,-0.358345,-0.437891,1.08032,-0.00986277,0.00522614,0.0988606,1,5.35117e-05,4.84767e-05,0.000710839,0.0107023,0.00969535,0.142168,0,0,0,0,0.46779,0.136535,-0.909714,34.8125,3,26223,2670970
371,-0.928046,0.322125,10.1024,0.123679,-0.373007,1.13807,-0.00929478,0.003222,0.101023,1,-5.99673e-05,-5.13647e-05,0.000611891,-0.0119935,-0.0102729,0.122378,0,0,0,0,0.464521,0.136491,-0.905659,34.8125,3,26226,2671270
372,-0.259326,-0.0598473,9.97821,0.697095,-0.286453,0.946363,-0.00260872,-0.000599706,0.0997817,1,-9.35254e-06,-8.1036e-05,0.000595881,-0.00187051,-0.0162072,0.119176,0,0,0,0,0.461213,0.130693,-0.907288,34.8125,3,26230,2671670
373,-0.407234,0.173569,9.39134,0.138289,-0.106863,0.824904,-0.00409746,0.00173099,0.0939125,1,4.01692e-07,-0.000123306,0.000565978,8.03384e-05,-0.0246613,0.113196,0,0,0,0,0.464219,0.1301,-0.902769,34.8125,3,26233,2671970
374,-0.292692,-0.465725,9.94046,0.865013,-0.281538,0.905204,-0.00293936,-0.00466197,0.099404,1,7.01781e-06,-8.91425e-05,0.000566497,0.00140356,-0.0178285,0.113299,0,0,0,0,0.461789,0.131583,-0.902725,34.8125,3,26236,2672270
375,-0.805158,-0.229327,9.30842,0.16063,-1.04196,0.336222,-0.00804852,-0.00229579,0.0930844,1,-3.29532e-05,3.21024e-06,0.000537236,-0.00659064,0.000642047,0.107447,0,0,0,0,0.46372,0.126743,-0.905872,34.8125,3,26240,2672670
376,-0.895554,-0.646865,9.17327,0.799078,-1.15156,-0.0713029,-0.00895587,-0.00648449,0.0917316,1,3.60041e-05,-3.81927e-05,0.00051592,0.00720082,-0.00763855,0.103184,0,0,0,0,0.463304,0.125736,-0.903872,34.8125,3,26243,2672970
377,-0.813179,0.508039,9.36142,-0.115055,-0.785073,0.402166,-0.00814352,0.00506797,0.0936139,1,2.08071e-05,-3.42272e-05,0.000523878,0.00416143,-0.00684544,0.104776,0,0,0,0,0.465635,0.122879,-0.908997,34.8125,3,26246,2673270
378,-0.0503221,-0.533322,10.3765,1.26889,0.121285,1.56672,-0.000521147,-0.00536645,0.103763,1,0.000157972,-0.000108862,0.000436099,0.0315945,-0.0217725,0.0872197,0,0,0,0,0.462353,0.119954,-0.907532,34.8125,3,26250,2673670
379,0.614043,0.0665207,10.3619,0.886325,0.244505,1.55925,0.00611394,0.000676354,0.103621,1,-2.65627e-05,-0.000124859,0.000460378,-0.00531255,-0.0249718,0.0920756,0,0,0,0,0.46285,0.117529,-0.908598,34.8125,3,26253,2673970
380,0.913461,-0.244689,10.6943,1.30253,1.11444,2.07205,0.009122,-0.00246713,0.106943,1,0.000136713,-7.02398e-05,0.000492685,0.0273425,-0.014048,0.098537,0,0,0,0,0.459608,0.11361,-0.906145,34.8125,3,26256,2674270
381,-0.516578,0.428186,9.49454,0.0222906,-0.451536,0.591717,-0.00516313,0.00426041,0.0949466,1,8.97911e-05,3.31477e-05,0.000426526,0.0179582,0.00662955,0.0853052,0,0,0,0,0.463353,0.108835,-0.913844,34.8125,3,26260,2674670
382,-1.09315,-0.291433,9.46549,0.352037,-0.740629,0.469699,-0.0109165,-0.00292984,0.0946562,1,3.69477e-05,6.71583e-05,0.000389497,0.00738953,0.0134317,0.0778994,0,0,0,0,0.464409,0.108276,-0.910326,34.8125,3,26263,2674970
383,-1.29565,-0.0144943,9.35385,0.445554,-1.43695,0.516623,-0.0129154,-0.000163192,0.0935442,1,4.41704e-05,0.000218941,0.000385959,0.00883408,0.0437883,0.0771918,0,0,0,0,0.465255,0.10498,-0.917474,34.8125,3,26266,2675270
384,-0.155058,0.0634175,9.95732,0.321689,-0.457953,0.700045,-0.00158315,0.000635455,0.0995727,1,-1.1911e-05,-0.000161353,0.000348318,-0.00238219,-0.0322706,0.0696636,0,0,0,0,0.471053,0.103469,-0.917534,34.8125,3,26270,2675670
385,0.0254508,-0.562761,10.527,1.37064,0.322025,1.5754,0.000236532,-0.00565171,0.105269,1,0.000115322,-0.000105443,0.000374464,0.0230644,-0.0210886,0.0748928,0,0,0,0,0.4683,0.0976125,-0.916137,34.8125,3,26273,2675970
386,-0.167147,-0.875495,9.75466,1.56011,-0.297123,0.710946,-0.00168464,-0.00876705,0.0975453,1,5.54814e-05,-0.000101735,0.000380724,0.0110963,-0.0203469,0.0761449,0,0,0,0,0.473012,0.0961994,-0.92124,34.8125,3,26276,2676270
387,0.685232,0.35339,9.70247,0.463036,0.901391,0.655545,0.00682691,0.00352767,0.0970267,1,5.88902e-05,-0.000117057,0.000380038,0.011778,-0.0234114,0.0760075,0,0,0,0,0.471177,0.0937405,-0.919266,34.8125,3,26280,2676670
388,-0.57657,-0.168076,9.35553,0.381465,-0.896027,0.261803,-0.00576485,-0.00168548,0.0935553,1,3.66975e-06,-1.75031e-06,0.000349788,0.00073395,-0.000350062,0.0699575,0,0,0,0,0.474577,0.0903161,-0.920368,34.8125,3,26283,2676970
389,-0.810014,0.314527,9.38048,-0.270867,-0.733808,0.350179,-0.00809964,0.00313357,0.0938052,1,3.2551e-05,1.4228e-05,0.000345169,0.0065102,0.00284561,0.0690338,0,0,0,0,0.474083,0.0888839,-0.921913,34.8125,3,26286,2677270
390,-1.27601,-0.109378,9.21718,0.255693,-1.05177,0.250421,-0.0127318,-0.0011031,0.0921756,1,-7.34533e-06,0.000148373,0.000418556,-0.00146907,0.0296746,0.0837111,0,0,0,0,0.476867,0.0884532,-0.926481,34.8125,3,26290,2677670
391,-1.77041,-0.628884,8.88287,0.656178,-1.80159,-0.191749,-0.0176994,-0.00630487,0.0888285,1,9.67511e-06,-1.85488e-06,0.000404259,0.00193502,-0.000370975,0.0808518,0,0,0,0,0.479745,0.0874717,-0.927526,34.8125,3,26293,2677970
392,-1.33797,-0.954591,9.1623,1.05805,-1.06014,0.31893,-0.0133919,-0.00958573,0.0916171,1,0.000152697,-0.000112825,0.000442156,0.0305395,-0.0225651,0.0884313,0,0,0,0,0.476886,0.0850659,-0.928072,34.8125,3,26296,2678270
393,-0.161126,-0.59654,9.46413,1.21185,-0.747365,1.01058,-0.00163083,-0.00596997,0.0946406,1,1.74503e-05,-0.000128011,0.000390373,0.00349006,-0.0256023,0.0780746,0,0,0,0,0.480246,0.0855257,-0.928077,34.8125,3,26300,2678670
394,-1.53083,-0.315941,8.83752,0.55028,-1.85313,0.0326653,-0.015302,-0.00318935,0.0883753,1,0.0001012,2.19361e-05,0.000393793,0.02024,0.00438723,0.0787585,0,0,0,0,0.47886,0.0835686,-0.927104,34.8125,3,26303,2678970
395,-1.326,-0.0649996,9.47663,0.44374,-1.12553,0.577827,-0.0132379,-0.000657004,0.0947694,1,-1.88979e-05,0.000113828,0.00039967,-0.00377957,0.0227656,0.079934,0,0,0,0,0.477786,0.0836577,-0.931642,34.8125,3,26306,2679270
396,-1.60684,-0.584774,9.19166,0.681408,-1.62886,0.270606,-0.0160494,-0.00585858,0.0919192,1,-1.45174e-05,7.69055e-05,0.000420462,-0.00290347,0.0153811,0.0840924,0,0,0,0,0.474537,0.0816715,-0.928136,34.8125,3,26310,2679670
397,-2.15639,0.662179,8.70149,-0.839155,-1.75923,-0.0979903,-0.0215686,0.00660104,0.0870153,1,1.90223e-05,3.82354e-06,0.000404316,0.00380447,0.000764707,0.0808631,0,0,0,0,0.479674,0.0836687,-0.933166,34.8125,3,26313,2679970
398,-0.461276,-0.425199,10.1198,0.99448,-0.555024,1.38189,-0.00459846,-0.0042567,0.101199,1,6.13316e-06,5.48589e-05,0.000376242,0.00122663,0.0109718,0.0752484,0,0,0,0,0.474467,0.0822044,-0.930649,34.8125,3,26316,2680270
399,-0.496867,0.511451,10.6013,0.303049,-0.112991,2.17468,-0.00494411,0.00508725,0.106015,1,0.000110093,0.00013481,0.000394471,0.0220187,0.026962,0.0788941,0,0,0,0,0.471413,0.0842786,-0.936145,34.8125,3,26320,2680670
400,-1.51405,-0.368589,9.65975,0.378027,-1.52947,0.737813,-0.0151419,-0.00369419,0.096597,1,-1.5237e-05,-2.17163e-05,0.000371171,-0.0030474,-0.00434325,0.0742341,0,0,0,0,0.472444,0.0822925,-0.934678,34.8125,3,26323,2680970
401,-1.79113,0.106795,8.75908,0.0437603,-1.50334,-0.137059,-0.0179286,0.00102831,0.0875878,1,0.000149685,-9.45175e-05,0.000374564,0.029937,-0.0189035,0.0749128,0,0,0,0,0.466564,0.0829004,-0.938678,34.8125,3,26326,2681270
402,-1.31582,0.140726,9.26677,0.0452795,-1.18673,0.435923,-0.0131498,0.00141269,0.0926688,1,-8.81222e-05,5.19564e-05,0.00041417,-0.0176244,0.0103913,0.0828341,0,0,0,0,0.466547,0.0809854,-0.940741,34.8125,3,26330,2681670
403,-1.06461,-1.08087,10.2192,1.5201,-0.815559,1.36266,-0.010625,-0.0108525,0.10219,1,0.000178004,6.61018e-05,0.000349577,0.0356008,0.0132204,0.0699153,0,0,0,0,0.460782,0.0805456,-0.940724,34.8125,3,26333,2681970
404,-1.32292,-0.201285,9.47942,0.292792,-1.16986,0.598456,-0.0132383,-0.00202508,0.0947927,1,1.42775e-05,-5.57687e-05,0.000359617,0.00285549,-0.0111537,0.0719234,0,0,0,0,0.462151,0.0805877,-0.94376,34.8125,3,26336,2682270
405,-0.585664,0.466947,10.3492,0.0589867,-0.634385,1.40857,-0.00585007,0.00467952,0.103492,1,-6.75006e-05,4.68646e-05,0.000335363,-0.0135001,0.00937291,0.0670727,0,0,0,0,0.454029,0.0772413,-0.943797,34.8125,3,26340,2682670
406,-0.827243,-0.232821,10.146,0.525381,-0.377795,1.50238,-0.0082679,-0.00233511,0.10146,1,5.62044e-06,1.4339e-05,0.000347877,0.00112409,0.0028678,0.0695753,0,0,0,0,0.45585,0.0768187,-0.94836,34.8125,3,26343,2682970
407,-0.970452,0.61472,9.48973,-0.0544715,-0.662083,0.762101,-0.00970564,0.00613619,0.0948979,1,2.06928e-05,1.76972e-05,0.000364616,0.00413856,0.00353944,0.0729231,0,0,0,0,0.450553,0.0749386,-0.949893,34.8125,3,26346,2683270
408,-1.20539,0.419235,9.97539,0.0514151,-0.820434,1.29248,-0.0120533,0.00417505,0.0997546,1,4.07907e-05,1.88349e-05,0.000380323,0.00815813,0.00376697,0.0760647,0,0,0,0,0.44514,0.0712157,-0.957526,34.8125,3,26350,2683670
409,-1.34055,0.134852,9.64065,0.232038,-0.966067,1.11142,-0.0134011,0.00132844,0.0964073,1,5.89999e-05,2.7222e-05,0.000324447,0.0118,0.0054444,0.0648893,0,0,0,0,0.448134,0.0706318,-0.953513,34.8125,3,26353,2683970
410,-0.942584,0.161197,10.0438,0.217661,-0.580357,1.25281,-0.00942118,0.00163657,0.100438,1,-0.000149551,2.78819e-05,0.000288753,-0.0299102,0.00557637,0.0577507,0,0,0,0,0.443272,0.0678173,-0.957593,34.8125,3,26356,2684270
411,-1.50337,-0.55266,9.28728,0.799236,-1.56172,0.629383,-0.0150318,-0.00553161,0.0928728,1,-3.13014e-05,-1.10387e-05,0.000360033,-0.00626029,-0.00220774,0.0720066,0,0,0,0,0.443679,0.0664221,-0.961667,34.8125,3,26360,2684670
412,-1.14405,-0.548132,10.3211,0.875024,-0.990086,1.71155,-0.0114241,-0.00550379,0.103212,1,7.24906e-05,6.22271e-05,0.00032867,0.0144981,0.0124454,0.065734,0,0,0,0,0.441828,0.0649388,-0.959671,34.8125,3,26363,2684970
413,-0.776817,-0.15093,9.59443,0.751339,-1.07985,0.573846,-0.00779658,-0.00152238,0.0959418,1,4.19328e-05,-0.000153207,0.000323613,0.00838656,-0.0306415,0.0647227,0,0,0,0,0.440746,0.0640704,-0.965241,34.8125,3,26366,2685270
414,-0.309985,-0.229104,10.3484,0.902032,-0.18203,1.42381,-0.0031008,-0.002289,0.103484,1,-1.86446e-05,-1.10949e-05,0.000292811,-0.00372892,-0.00221899,0.0585622,0,0,0,0,0.438438,0.0611277,-0.963275,34.8125,3,26370,2685670
415,-0.438937,-0.0730284,10.4915,0.377248,-0.377448,1.3613,-0.00440799,-0.00072407,0.104915,1,-4.21185e-05,-9.08337e-05,0.000298172,-0.00842371,-0.0181667,0.0596344,0,0,0,0,0.438356,0.0602243,-0.967336,34.8125,3,26373,2685970
416,-1.11473,-0.467413,9.80755,0.659627,-1.13736,0.814459,-0.0111632,-0.00469636,0.0980726,1,7.44501e-05,-9.7614e-05,0.000342181,0.01489,-0.0195228,0.0684363,0,0,0,0,0.434055,0.060721,-0.965789,34.8125,3,26376,2686270
417,-1.00849,-0.182403,10.5225,0.695257,-0.744432,1.77404,-0.0100895,-0.00184024,0.105224,1,4.87262e-05,-2.69828e-05,0.00029527,0.00974524,-0.00539657,0.0590541,0,0,0,0,0.434104,0.0592397,-0.964812,34.8125,3,26380,2686670
418,-0.753446,-0.0157852,10.431,0.37434,-0.552293,1.754,-0.00754622,-0.000147423,0.104309,1,-7.37829e-05,-5.68424e-05,0.000329138,-0.0147566,-0.0113685,0.0658275,0,0,0,0,0.429789,0.0568549,-0.965856,34.8125,3,26383,2686970
419,-0.514422,-0.0288421,10.206,0.686114,-0.27489,1.35627,-0.00515917,-0.000290319,0.10206,1,-6.38133e-06,-7.41502e-05,0.000310687,-0.00127627,-0.01483,0.0621374,0,0,0,0,0.430694,0.0573707,-0.967869,34.8125,3,26386,2687270
420,-0.60552,0.158028,10.6705,0.421503,-0.207815,2.00567,-0.00603932,0.00158319,0.106706,1,-2.95352e-05,7.85801e-05,0.000280499,-0.00590705,0.015716,0.0560997,0,0,0,0,0.428835,0.0563751,-0.965862,34.8125,3,26390,2687670
421,-1.57221,-0.123698,10.2761,0.488194,-1.22781,1.47164,-0.015684,-0.00124957,0.102767,1,1.28639e-05,0.000181444,0.000316602,0.00257278,0.0362888,0.0633205,0,0,0,0,0.427457,0.0553755,-0.963858,34.8125,3,26393,2687970
422,-1.97562,-0.0983898,9.89761,0.39387,-1.67673,1.10795,-0.0197408,-0.001006,0.0989789,1,5.18803e-05,7.43706e-05,0.000299633,0.0103761,0.0148741,0.0599265,0,0,0,0,0.429398,0.0558292,-0.962846,34.8125,3,26396,2688270
423,-2.04012,-0.0171746,9.64809,0.372834,-1.74735,0.70641,-0.0203833,-0.000184719,0.0964847,1,1.05395e-05,9.27258e-05,0.000268234,0.0021079,0.0185452,0.0536468,0,0,0,0,0.425146,0.0548446,-0.960323,34.8125,3,26400,2688670
424,-2.51553,-0.336929,9.80057,0.251103,-2.64701,0.80908,-0.0251431,-0.00338877,0.0980082,1,4.19457e-05,5.42471e-05,0.000223952,0.00838914,0.0108494,0.0447904,0,0,0,0,0.427498,0.0543819,-0.96287,34.8125,3,26403,2688970
425,-3.46925,0.156214,9.50092,-0.278386,-3.36023,0.44158,-0.0346819,0.00153405,0.0950135,1,6.23797e-05,5.9698e-05,0.000234043,0.0124759,0.0119396,0.0468085,0,0,0,0,0.421021,0.0542486,-0.952237,34.8125,3,26406,2689270
426,-2.39803,-0.232599,9.52071,0.134896,-2.18146,0.656709,-0.0240108,-0.00233641,0.0951991,1,-2.04818e-06,-0.000165623,0.00022534,-0.000409636,-0.0331246,0.045068,0,0,0,0,0.424718,0.053846,-0.958828,34.8125,3,26409,2689570
427,-2.313,0.235724,10.2103,-0.0838391,-1.49304,1.2528,-0.0231256,0.00235522,0.102104,1,-2.89286e-05,2.5665e-05,0.000171455,-0.00578572,0.00513301,0.034291,0,0,0,0,0.422361,0.0523847,-0.95784,34.8125,3,26413,2689970
428,-4.3274,0.248741,9.17193,-0.399513,-4.09598,0.154033,-0.0432681,0.00247575,0.0917224,1,-7.1676e-06,3.65571e-05,0.0001499,-0.00143352,0.00731141,0.0299799,0,0,0,0,0.417247,0.0542265,-0.949189,34.8125,3,26417,2690370
429,-2.83833,0.365492,9.51736,0.00342378,-3.21454,0.436315,-0.0284181,0.00364135,0.0951638,1,3.08399e-05,-0.000177728,0.000135635,0.00616798,-0.0355456,0.027127,0,0,0,0,0.419639,0.0527702,-0.950748,34.8125,3,26420,2690670
430,-2.93669,-0.238956,9.18374,0.366634,-2.53775,0.280377,-0.0294131,-0.0024257,0.0918217,1,0.000174428,-0.000252962,6.98796e-05,0.0348855,-0.0505924,0.0139759,0,0,0,0,0.418188,0.05327,-0.95073,34.8125,3,26423,2690970
431,-2.29031,0.332173,9.62058,0.291544,-1.70729,0.897415,-0.0229056,0.00331944,0.0962053,1,-6.74237e-06,-1.0453e-05,7.82288e-05,-0.00134847,-0.00209059,0.0156458,0,0,0,0,0.41906,0.0542916,-0.953742,34.8125,3,26426,2691270
432,-3.06465,-0.286987,9.75354,0.0367193,-2.40383,0.973794,-0.0306319,-0.00288848,0.0975394,1,7.73027e-05,7.31784e-05,5.75745e-05,0.0154605,0.0146357,0.0115149,0,0,0,0,0.416246,0.051371,-0.952784,34.8125,3,26430,2691670
433,-1.87346,-0.124655,9.88653,0.362607,-1.74042,1.10785,-0.018736,-0.00125472,0.0988649,1,3.3352e-05,-7.62968e-06,4.19124e-05,0.0066704,-0.00152594,0.00838248,0,0,0,0,0.418056,0.0509574,-0.957852,34.8125,3,26433,2691970
434,-1.55803,0.13222,9.69306,0.256091,-1.23727,0.896062,-0.0155833,0.00131162,0.0969302,1,5.51102e-05,-1.53608e-05,-3.25563e-06,0.011022,-0.00307216,-0.000651127,0,0,0,0,0.417677,0.051368,-0.953295,34.8125,3,26436,2692270
435,-2.61166,-0.470494,9.46955,0.427992,-2.20724,0.676479,-0.0261151,-0.00472019,0.0946952,1,8.524e-05,8.66104e-06,-1.71284e-05,0.017048,0.00173221,-0.00342569,0,0,0,0,0.418023,0.0529084,-0.957808,34.8125,3,26440,2692670
436,-1.73479,0.344973,9.82043,0.269054,-1.34041,1.03241,-0.0173688,0.00343531,0.0982011,1,6.63988e-05,-0.000105113,3.96991e-05,0.0132797,-0.0210226,0.00793982,0,0,0,0,0.418578,0.0528504,-0.954782,34.8125,3,26443,2692970
437,-0.774491,0.0409625,10.0009,0.646584,-0.584055,1.17874,-0.00776679,0.000405172,0.100007,1,2.35246e-05,-0.000109445,-1.62976e-05,0.00470492,-0.021889,-0.00325952,0,0,0,0,0.416621,0.0533722,-0.955771,34.8125,3,26446,2693270
438,-0.623169,-0.247285,9.87185,0.743534,-0.438362,0.973449,-0.006252,-0.00248761,0.0987168,1,7.69599e-05,-0.000101986,-3.44343e-05,0.015392,-0.0203973,-0.00688686,0,0,0,0,0.41895,0.0572633,-0.9562,34.8125,3,26450,2693670
439,-0.954717,0.0587202,9.84781,0.579578,-0.687658,0.94838,-0.0095514,0.000569501,0.0984778,1,9.07201e-05,-2.14954e-05,-8.75666e-06,0.018144,-0.00429907,-0.00175133,0,0,0,0,0.417543,0.0543577,-0.956764,34.8125,3,26453,2693970
440,-0.766456,0.0472377,9.84917,0.581951,-0.527517,1.0249,-0.00767423,0.000465826,0.098491,1,3.37086e-05,-4.91271e-05,-5.82335e-06,0.00674172,-0.00982543,-0.00116467,0,0,0,0,0.41802,0.053875,-0.957282,34.8125,3,26456,2694270
441,-0.569744,-0.0939133,9.76654,0.672764,-0.376897,0.903513,-0.00569808,-0.000951817,0.0976652,1,6.71802e-05,-2.90714e-06,-3.85062e-05,0.013436,-0.000581427,-0.00770125,0,0,0,0,0.415745,0.0518718,-0.953275,34.8125,3,26460,2694670
442,-0.644608,-0.0386274,9.81229,0.647093,-0.418021,0.962996,-0.00644827,-0.000399605,0.0981227,1,6.90353e-05,-1.10866e-05,-1.68007e-05,0.0138071,-0.00221732,-0.00336014,0,0,0,0,0.418439,0.0553613,-0.958766,34.8125,3,26463,2694970
443,-0.613209,0.0137987,9.78946,0.59489,-0.351698,0.94484,-0.00613443,0.000125034,0.0978945,1,6.67144e-05,-1.19561e-05,-8.89195e-06,0.0133429,-0.00239123,-0.00177839,0,0,0,0,0.416128,0.0533852,-0.956274,34.8125,3,26466,2695270
444,-0.629969,-0.0387906,9.80981,0.645202,-0.40685,0.983,-0.00630108,-0.00039456,0.098098,1,3.47514e-05,-7.04798e-06,-1.30069e-05,0.00695028,-0.0014096,-0.00260138,0,0,0,0,0.416131,0.0509734,-0.957842,34.8125,3,26470,2695670
445,-0.641844,-0.0663081,9.77337,0.6578,-0.40319,0.937012,-0.00642164,-0.000671478,0.0977334,1,4.26173e-05,-1.63765e-05,5.18358e-06,0.00852346,-0.00327531,0.00103672,0,0,0,0,0.417555,0.0529034,-0.957301,34.8125,3,26473,2695970
446,-0.673949,-0.043442,9.78464,0.668142,-0.43675,0.944,-0.00674046,-0.000443997,0.0978462,1,4.83022e-05,-5.01401e-06,9.25347e-06,0.00966043,-0.0010028,0.00185069,0,0,0,0,0.418929,0.0563148,-0.957737,34.8125,3,26476,2696270
447,-0.800146,-0.09665,9.73482,0.725021,-0.550451,0.92446,-0.00800277,-0.000972849,0.097348,1,3.15307e-05,-6.88984e-06,1.31303e-05,0.00630615,-0.00137797,0.00262606,0,0,0,0,0.418953,0.0534062,-0.958811,34.8125,3,26479,2696570
448,-0.817224,-0.0613981,9.79599,0.640157,-0.596997,0.962985,-0.00817902,-0.000625895,0.0979593,1,5.97372e-05,-3.47027e-05,1.2907e-05,0.0119474,-0.00694054,0.0025814,0,0,0,0,0.417461,0.0548996,-0.959782,34.8125,3,26483,2696970
449,-0.471184,-0.058616,9.77398,0.692669,-0.247442,0.931984,-0.00471555,-0.000592726,0.0977396,1,3.45241e-05,-1.88744e-05,-1.94254e-05,0.00690482,-0.00377488,-0.00388507,0,0,0,0,0.422185,0.0549227,-0.963338,34.8125,3,26486,2697270
450,0.178814,-0.104169,9.83637,0.909139,0.314163,0.992514,0.00177612,-0.0010463,0.0983639,1,2.32273e-05,-6.09943e-05,-1.15828e-05,0.00464547,-0.0121989,-0.00231657,0,0,0,0,0.418915,0.051988,-0.961368,34.8125,3,26489,2697570
451,-0.4492,-0.0654944,9.8976,0.714908,-0.236137,1.08035,-0.00450076,-0.000674907,0.0989754,1,0.000100896,-4.42511e-05,-1.00657e-06,0.0201791,-0.00885022,-0.000201315,0,0,0,0,0.421777,0.051982,-0.962392,34.8125,3,26493,2697970
452,0.305901,-0.318319,9.83441,0.597975,0.648762,0.817556,0.00303972,-0.00320219,0.0983441,1,9.66657e-05,-9.82246e-05,3.48282e-06,0.0193331,-0.0196449,0.000696565,0,0,0,0,0.419454,0.0514602,-0.959362,34.8125,3,26496,2698270
453,-0.157329,-0.0980219,9.9246,0.583328,0.0852955,1.00733,-0.00157012,-0.000994136,0.099246,1,6.93518e-05,1.55105e-05,4.81829e-05,0.0138704,0.00310211,0.00963659,0,0,0,0,0.421708,0.0539602,-0.963862,34.8125,3,26499,2698570
454,-1.225,-0.211453,9.9273,0.885456,-0.876892,1.18954,-0.0122342,-0.00212337,0.0992747,1,3.27487e-05,7.74873e-05,9.55492e-05,0.00654975,0.0154975,0.0191098,0,0,0,0,0.422336,0.0509574,-0.959892,34.8125,3,26503,2698970
455,-0.0576211,0.175056,9.91162,0.712981,0.2515,1.08913,-0.000584307,0.00175776,0.099116,1,-3.63241e-05,-4.09021e-05,-3.48572e-06,-0.00726483,-0.00818043,-0.000697145,0,0,0,0,0.41843,0.0515133,-0.961881,34.8125,3,26506,2699270
456,-1.19966,-0.496429,9.6845,1.06132,-0.968863,0.823682,-0.0119784,-0.00497642,0.0968467,1,6.30597e-05,9.40006e-05,-3.39771e-06,0.012612,0.0188001,-0.000679542,0,0,0,0,0.41989,0.051971,-0.960868,34.8125,3,26509,2699570
457,-1.64837,0.649441,9.84721,-0.258682,-1.41301,1.06758,-0.0165062,0.00647784,0.0984694,1,7.66392e-05,-0.000111222,4.47879e-05,0.0153278,-0.0222443,0.00895758,0,0,0,0,0.419927,0.051944,-0.959354,34.8125,3,26513,2699970
458,0.356393,-0.0786783,9.98579,0.879826,0.345459,1.30114,0.00353045,-0.000796315,0.099859,1,4.62406e-05,-0.000167317,-4.18257e-05,0.00924811,-0.0334633,-0.00836514,0,0,0,0,0.421337,0.0509925,-0.961401,34.8125,3,26516,2700270
459,-0.436366,-0.129521,9.83562,1.04431,-0.217604,1.03303,-0.0043438,-0.00130426,0.098357,1,4.3727e-05,0.000100228,5.167e-05,0.00874539,0.0200455,0.010334,0,0,0,0,0.419437,0.0509904,-0.960383,34.8125,3,26519,2700570
460,-0.891315,0.095044,9.80837,0.574297,-0.618964,0.994243,-0.00891356,0.000944335,0.0980837,1,2.8899e-05,-1.83994e-06,2.44407e-05,0.00577979,-0.000367988,0.00488813,0,0,0,0,0.42172,0.0525059,-0.9644,34.8125,3,26523,2700970
461,-0.634568,-0.103747,9.7404,0.697127,-0.391155,0.878867,-0.0063366,-0.00104743,0.0974045,1,4.92185e-05,4.62892e-05,2.91038e-05,0.0098437,0.00925783,0.00582077,0,0,0,0,0.420368,0.0543788,-0.959301,34.8125,3,26526,2701270
462,-0.426651,-0.107173,9.75324,0.880369,-0.231065,0.904006,-0.00425705,-0.00107972,0.0975327,1,4.21046e-05,4.87836e-05,-2.64946e-05,0.00842092,0.00975672,-0.00529891,0,0,0,0,0.420803,0.0534443,-0.96185,34.8125,3,26529,2701570
463,-1.09838,0.0957562,9.89427,0.297562,-0.781011,1.04267,-0.0109843,0.00096277,0.0989426,1,-3.4373e-05,-1.87891e-06,7.25481e-05,-0.00687459,-0.000375782,0.0145096,0,0,0,0,0.421848,0.0528945,-0.958836,34.8125,3,26533,2701970
464,-1.36017,0.0762975,9.63608,0.20624,-1.07965,0.799493,-0.0136066,0.000742949,0.0963603,1,0.000100196,-2.50219e-05,2.63073e-05,0.0200392,-0.00500437,0.00526147,0,0,0,0,0.416482,0.0544378,-0.960797,34.8125,3,26536,2702270
465,-0.81873,0.0712307,9.79642,0.664983,-0.542754,0.973977,-0.00818637,0.000704051,0.0979644,1,3.67484e-05,5.22182e-06,6.45196e-05,0.00734968,0.00104436,0.0129039,0,0,0,0,0.421802,0.0534093,-0.96034,34.8125,3,26540,2702670
466,-0.88819,-0.119456,9.69483,0.771066,-0.640986,0.860978,-0.00887773,-0.00120087,0.0969486,1,3.18643e-05,2.14129e-05,7.47702e-06,0.00637286,0.00428258,0.0014954,0,0,0,0,0.418504,0.0529044,-0.95781,34.8125,3,26543,2702970
467,-0.991022,-0.0268032,9.81472,0.706451,-0.743978,0.971873,-0.00990649,-0.000283665,0.0981475,1,7.79721e-05,1.89554e-05,1.64834e-05,0.0155944,0.00379108,0.00329669,0,0,0,0,0.421297,0.0534313,-0.961347,34.8125,3,26546,2703270
468,-0.875225,-0.0584667,9.78349,0.761949,-0.632897,0.955965,-0.00875472,-0.000589239,0.0978347,1,2.22325e-05,-1.26771e-05,1.26426e-05,0.0044465,-0.00253541,0.00252852,0,0,0,0,0.418517,0.0528954,-0.957306,34.8125,3,26549,2703570
469,-0.805691,-0.0408418,9.79268,0.662907,-0.538291,0.942447,-0.00806198,-0.000418912,0.0979263,1,5.12001e-05,-2.60036e-05,2.8945e-05,0.01024,-0.00520072,0.005789,0,0,0,0,0.419861,0.0529556,-0.961351,34.8125,3,26553,2703970
470,-0.748384,-0.0525572,9.79322,0.712824,-0.494637,0.954354,-0.00749031,-0.000534589,0.0979316,1,4.36903e-05,-3.31942e-05,3.07093e-05,0.00873806,-0.00663884,0.00614187,0,0,0,0,0.418509,0.0533832,-0.957295,34.8125,3,26556,2704270
471,-0.794544,-0.0426916,9.76715,0.72118,-0.532252,0.924701,-0.00795239,-0.00043666,0.0976709,1,4.83933e-05,-3.56881e-05,1.82579e-05,0.00967866,-0.00713763,0.00365158,0,0,0,0,0.417917,0.0549136,-0.960793,34.8125,3,26560,2704670
472,-0.891724,-0.0324182,9.77806,0.689847,-0.616957,0.942668,-0.00891883,-0.000333521,0.0977804,1,4.67058e-05,-8.20668e-06,1.15186e-05,0.00934117,-0.00164134,0.00230372,0,0,0,0,0.419902,0.051962,-0.960363,34.8125,3,26563,2704970
473,-0.858411,-0.0363859,9.76795,0.703335,-0.604811,0.929976,-0.00858587,-0.000375249,0.0976794,1,5.62314e-05,-9.09713e-06,2.35941e-05,0.0112463,-0.00181943,0.00471882,0,0,0,0,0.418419,0.0544128,-0.960302,34.8125,3,26566,2705270
474,-0.806668,-0.0507982,9.77697,0.724224,-0.549124,0.930806,-0.00806663,-0.000518164,0.0977697,1,5.07496e-05,1.99249e-07,1.59722e-05,0.0101499,3.98497e-05,0.00319445,0,0,0,0,0.420356,0.0558331,-0.958764,34.8125,3,26569,2705570
475,-0.739604,-0.0427079,9.78406,0.74274,-0.478281,0.943347,-0.0073991,-0.000437724,0.0978403,1,5.20085e-05,-1.57486e-05,3.16244e-05,0.0104017,-0.00314973,0.00632488,0,0,0,0,0.419467,0.0543417,-0.956773,34.8125,3,26573,2705970
476,-0.530767,-0.0208552,9.91681,0.75488,-0.334947,1.04816,-0.00530464,-0.000218288,0.0991682,1,4.79946e-05,1.52049e-05,2.03852e-05,0.00959891,0.00304099,0.00407704,0,0,0,0,0.42075,0.0544469,-0.963342,34.8125,3,26576,2706270
477,-1.62665,-0.0159735,9.67342,0.521392,-1.33818,0.85778,-0.0162487,-0.000171798,0.0967372,1,6.00045e-05,9.23409e-05,1.39466e-05,0.0120009,0.0184682,0.00278931,0,0,0,0,0.418981,0.0524217,-0.958328,34.8125,3,26579,2706570
478,-1.48936,-0.00939206,9.7248,0.571883,-1.1813,0.91245,-0.0148759,-0.000101559,0.0972506,1,3.93276e-05,9.08395e-05,-3.73444e-07,0.00786551,0.0181679,-7.46889e-05,0,0,0,0,0.421247,0.0534674,-0.963366,34.8125,3,26583,2706970
479,-1.0379,-0.0406827,10.0461,0.674471,-0.692331,1.21093,-0.0103564,-0.000410009,0.100463,1,1.63604e-05,0.000112733,-5.07995e-06,0.00327207,0.0225466,-0.00101599,0,0,0,0,0.420939,0.0533452,-0.956297,34.8125,3,26586,2707270
480,-1.4144,0.0746173,10.016,0.545561,-1.01532,1.23762,-0.0141095,0.000732638,0.100165,1,6.73158e-05,0.000171993,1.74713e-06,0.0134632,0.0343986,0.000349426,0,0,0,0,0.421831,0.05387,-0.958814,34.8125,3,26589,2707570
481,-0.244199,-0.799147,11.1036,1.61402,1.19022,2.2207,-0.00241997,-0.00798449,0.111037,1,-3.10724e-05,0.0001003,-1.62561e-05,-0.00621448,0.0200599,-0.00325122,0,0,0,0,0.422378,0.0542997,-0.955777,34.8125,3,26593,2707970
482,-2.73503,0.814449,9.35133,-0.542656,-2.79346,0.264816,-0.0273596,0.00813164,0.0935117,1,8.28442e-05,-5.41153e-05,-4.81946e-05,0.0165688,-0.0108231,-0.00963892,0,0,0,0,0.421002,0.0561906,-0.951688,34.8125,3,26596,2708270
483,-2.09259,0.134529,10.2959,0.291372,-1.50141,1.43712,-0.0208891,0.00132964,0.102967,1,8.84336e-05,0.000178319,-6.10883e-05,0.0176867,0.0356638,-0.0122177,0,0,0,0,0.424928,0.055138,-0.949204,34.8125,3,26600,2708670
484,-3.3196,-0.110335,8.92012,0.254874,-3.1358,0.0450735,-0.0331849,-0.00109348,0.0892054,1,-7.99343e-06,6.37977e-05,-0.000127215,-0.00159869,0.0127595,-0.0254429,0,0,0,0,0.423168,0.052625,-0.944202,34.8125,3,26603,2708970
485,-2.89218,-0.558669,9.84595,1.06619,-2.14498,1.1326,-0.0288814,-0.0055845,0.0984715,1,2.00425e-05,0.000211233,-0.000106298,0.0040085,0.0422466,-0.0212596,0,0,0,0,0.426286,0.0566344,-0.951703,34.8125,3,26606,2709270
486,-2.62909,0.311569,9.85213,0.301053,-1.85556,0.993632,-0.0262475,0.0031271,0.0985325,1,-2.68134e-05,0.000216702,-0.000116642,-0.00536267,0.0433404,-0.0233283,0,0,0,0,0.425529,0.0545651,-0.944674,34.8125,3,26610,2709670
487,-1.71935,-0.375546,8.39744,0.830749,-1.29873,-0.14306,-0.0172641,-0.00376835,0.0839594,1,0.000116155,-0.000411548,-0.000191986,0.0232311,-0.0823095,-0.0383973,0,0,0,0,0.432441,0.0552093,-0.956813,34.8125,3,26613,2709970
488,-1.42363,-0.0156513,8.47655,0.684371,-1.82241,-0.348707,-0.0142851,-0.00015432,0.0847574,1,1.86674e-05,-0.000287477,-0.000187851,0.00373347,-0.0574954,-0.0375701,0,0,0,0,0.427622,0.0571823,-0.955737,34.8125,3,26616,2710270
489,-2.79004,-0.0169321,8.69089,0.0676808,-2.33184,-0.0817931,-0.0279586,-0.000182811,0.0868901,1,0.000136299,-0.00033479,-0.000182573,0.0272598,-0.0669581,-0.0365146,0,0,0,0,0.427227,0.0542326,-0.954286,34.8125,3,26620,2710670
490,-0.884963,-0.14229,12.3206,0.922224,-0.335417,3.31776,-0.0088702,-0.00143648,0.123205,1,6.79731e-05,-8.13859e-05,-0.00017914,0.0135946,-0.0162772,-0.0358279,0,0,0,0,0.431906,0.0547706,-0.959346,34.8125,3,26623,2710970
491,-2.79107,0.317746,10.1421,0.250188,-2.32113,1.36668,-0.0278956,0.0031843,0.101425,1,2.55904e-05,6.73837e-05,-0.000215712,0.00511809,0.0134767,-0.0431425,0,0,0,0,0.429579,0.0552152,-0.95579,34.8125,3,26626,2711270
492,-1.05616,0.346712,9.72272,0.40917,-0.802652,0.84804,-0.010575,0.00345277,0.0972262,1,0.000102574,-7.79213e-05,-0.00026506,0.0205148,-0.0155843,-0.053012,0,0,0,0,0.434626,0.0582421,-0.963827,34.8125,3,26630,2711670
493,-1.16553,-0.0197096,10.3701,0.754224,-0.806839,1.45334,-0.0116474,-0.000209263,0.103702,1,8.53314e-05,3.84299e-05,-0.000237329,0.0170663,0.00768597,-0.0474658,0,0,0,0,0.430398,0.0586847,-0.959252,34.8125,3,26633,2711970
494,-1.01221,0.993512,10.3058,-0.0608934,-0.555125,1.7804,-0.0101099,0.0099217,0.103061,1,9.28922e-05,3.20087e-05,-0.000283289,0.0185784,0.00640174,-0.0566578,0,0,0,0,0.436958,0.0597215,-0.965825,34.8125,3,26636,2712270
495,-1.51744,0.390211,9.55922,0.175108,-1.70582,0.752068,-0.0151771,0.00388915,0.0955923,1,0.00010695,-2.40294e-05,-0.000246784,0.0213901,-0.00480588,-0.0493568,0,0,0,0,0.433232,0.0596633,-0.960759,34.8125,3,26640,2712670
496,-0.758487,0.0666379,9.92452,0.418056,-0.400009,1.29914,-0.00759695,0.000646656,0.0992444,1,0.000120307,-6.26877e-05,-0.000273799,0.0240614,-0.0125375,-0.0547599,0,0,0,0,0.437912,0.0616465,-0.964777,34.8125,3,26643,2712970
497,-1.21342,-0.137398,10.2518,0.610621,-0.584889,1.51566,-0.0121362,-0.0013865,0.102517,1,9.38521e-05,-6.16858e-06,-0.000277377,0.0187704,-0.00123372,-0.0554754,0,0,0,0,0.43512,0.0625649,-0.960198,34.8125,3,26646,2713270
498,-0.690542,-0.610684,9.87693,1.79698,-0.8525,1.07314,-0.0068995,-0.00612087,0.0987689,1,9.05771e-05,4.72413e-05,-0.000279642,0.0181154,0.00944827,-0.0559284,0,0,0,0,0.437001,0.0659543,-0.959626,34.8125,3,26650,2713670
499,-1.28721,-0.28107,9.14522,0.736832,-0.695502,0.286927,-0.012899,-0.00281873,0.0914482,1,8.17221e-05,-0.000138883,-0.000268478,0.0163444,-0.0277767,-0.0536956,0,0,0,0,0.443243,0.0673566,-0.959119,34.8125,3,26653,2713970
500,-1.04396,-0.0337273,9.26863,0.89948,-1.08291,0.416225,-0.0104523,-0.000370261,0.0926847,1,0.000207374,-6.74505e-05,-0.000261021,0.0414748,-0.0134901,-0.0522042,0,0,0,0,0.439916,0.066391,-0.958115,34.8125,3,26656,2714270
501,-0.97746,0.64093,9.84736,-0.107745,-0.57437,1.02486,-0.00977933,0.00642901,0.0984718,1,-7.41881e-05,-4.1038e-05,-0.00026074,-0.0148376,-0.00820761,-0.0521481,0,0,0,0,0.447554,0.0721532,-0.956507,34.8125,3,26660,2714670
502,-0.803712,0.351983,9.91501,0.272868,-0.111154,0.986107,-0.00807263,0.00352501,0.0991471,1,-3.27071e-06,-0.000189048,-0.000280784,-0.000654143,-0.0378096,-0.0561567,0,0,0,0,0.444298,0.0721001,-0.951947,34.8125,3,26663,2714970
503,-0.713171,0.298429,9.73101,0.880547,-0.928702,0.614751,-0.00714539,0.0029701,0.0973095,1,9.24517e-05,-7.84384e-05,-0.000266543,0.0184903,-0.0156877,-0.0533087,0,0,0,0,0.451421,0.0754815,-0.95342,34.8125,3,26666,2715270
504,-1.01031,-0.404663,9.54475,0.788089,-0.612679,0.692498,-0.0101009,-0.00407248,0.0954466,1,0.000164668,2.36133e-05,-0.000276435,0.0329336,0.00472265,-0.0552869,0,0,0,0,0.451121,0.0748715,-0.946361,34.8125,3,26670,2715670
505,-0.581849,0.240815,10.3825,0.866232,-0.367451,1.6273,-0.00580899,0.00240023,0.103825,1,5.17969e-05,4.00817e-05,-0.000243952,0.0103594,0.00801633,-0.0487904,0,0,0,0,0.453036,0.073898,-0.947402,34.8125,3,26673,2715970
506,-0.888978,-0.6264,10.0502,1.16538,-0.580621,1.26035,-0.0089009,-0.00625569,0.100501,1,-1.66547e-05,-3.79471e-05,-0.000279062,-0.00333094,-0.00758943,-0.0558123,0,0,0,0,0.458849,0.0796041,-0.941746,34.8125,3,26676,2716270
507,-0.153941,0.0458915,10.049,0.816609,-0.49039,1.10152,-0.00154585,0.000479551,0.10049,1,-9.92983e-05,-3.30886e-05,-0.000219958,-0.0198597,-0.00661773,-0.0439916,0,0,0,0,0.459354,0.0795821,-0.940739,34.8125,3,26680,2716670
508,-1.39452,-0.0295461,9.3908,0.700585,-0.431596,0.687166,-0.0139443,-0.000306635,0.0939081,1,9.54614e-05,5.30599e-06,-0.00024222,0.0190923,0.0010612,-0.048444,0,0,0,0,0.462233,0.0800458,-0.940742,34.8125,3,26683,2716970
509,-0.217943,0.426603,10.2608,0.582218,-0.279719,1.37187,-0.0021756,0.00427139,0.102608,1,-2.16677e-05,9.96091e-06,-0.000209413,-0.00433354,0.00199218,-0.0418825,0,0,0,0,0.463693,0.0805036,-0.939728,34.8125,3,26686,2717270
510,-1.2654,0.227365,9.21268,0.0179568,-0.354626,0.547842,-0.0126471,0.00227988,0.0921276,1,6.75651e-07,3.08935e-05,-0.000251251,0.00013513,0.00617869,-0.0502502,0,0,0,0,0.469467,0.0833461,-0.937672,34.8125,3,26690,2717670
511,-0.504734,0.525048,9.58231,0.418,-0.600769,0.28802,-0.00505123,0.00527394,0.0958217,1,-0.00011082,-3.23441e-05,-0.000219842,-0.022164,-0.00646882,-0.0439684,0,0,0,0,0.469133,0.0789061,-0.934738,34.8125,3,26693,2717970
512,-1.60886,-0.183015,9.1273,0.538838,-1.22758,0.389825,-0.0160755,-0.00181664,0.0912755,1,-2.30957e-05,7.77262e-05,-0.000288986,-0.00461914,0.0155452,-0.0577972,0,0,0,0,0.476195,0.0823326,-0.938735,34.8125,3,26696,2718270
513,-0.878414,0.125316,9.73261,0.82305,-0.873237,0.782982,-0.00879923,0.00123665,0.097325,1,0.000108665,-8.08799e-05,-0.000264163,0.0217331,-0.016176,-0.0528326,0,0,0,0,0.473521,0.0812368,-0.930666,34.8125,3,26700,2718670
514,-0.453079,-0.545381,9.98021,1.19976,-0.543555,0.933161,-0.00457057,-0.00546405,0.0997997,1,6.36581e-05,-0.000184457,-0.000271168,0.0127316,-0.0368914,-0.0542335,0,0,0,0,0.475795,0.0803495,-0.936757,34.8125,3,26703,2718970
515,-0.308381,-0.473125,10.4341,1.49316,-0.776096,1.35426,-0.00308073,-0.00475024,0.104341,1,9.77291e-05,2.51098e-05,-0.000227877,0.0195458,0.00502197,-0.0455753,0,0,0,0,0.475939,0.0812078,-0.930173,34.8125,3,26706,2719270
516,-0.673764,0.257198,10.4969,0.746951,0.498242,1.97843,-0.00673885,0.00253039,0.10497,1,0.000213598,-1.1571e-05,-0.000241021,0.0427196,-0.0023142,-0.0482042,0,0,0,0,0.474014,0.0783332,-0.932248,34.8125,3,26710,2719670
517,-0.269876,0.0157176,10.3601,0.952996,-0.67568,1.41466,-0.00268128,0.000175085,0.103602,1,-8.07183e-05,8.40432e-05,-0.000220017,-0.0161437,0.0168086,-0.0440034,0,0,0,0,0.480693,0.0816916,-0.932205,34.8125,3,26713,2719970
518,-1.3135,-0.139675,9.77346,0.444784,-0.57145,1.16069,-0.0131198,-0.00141209,0.0977364,1,0.000113144,8.14384e-05,-0.00025837,0.0226289,0.0162877,-0.051674,0,0,0,0,0.474989,0.0812068,-0.929664,34.8125,3,26716,2720270
519,-0.603559,0.0922908,9.32333,0.93361,-0.930763,0.276731,-0.00603783,0.00093545,0.093233,1,-4.94312e-05,-1.47217e-05,-0.00027533,-0.00988624,-0.00294435,-0.0550659,0,0,0,0,0.479743,0.0802453,-0.932737,34.8125,3,26720,2720670
520,-1.31225,-0.44329,9.18291,0.935192,-1.30325,0.146092,-0.0131354,-0.00445213,0.0918263,1,0.000148619,-5.58029e-05,-0.000307162,0.0297239,-0.0111606,-0.0614324,0,0,0,0,0.475504,0.0821423,-0.927625,34.8125,3,26723,2720970
521,-0.754018,-0.243261,9.64361,0.7759,-1.08731,0.602767,-0.00755501,-0.00241007,0.0964355,1,-9.72547e-05,-7.06344e-05,-0.000250628,-0.0194509,-0.0141269,-0.0501257,0,0,0,0,0.478313,0.0845842,-0.929099,34.8125,3,26726,2721270
522,-0.265273,-0.139073,10.2335,1.30342,-0.250752,1.1455,-0.00266723,-0.0013963,0.102335,1,3.47538e-05,-6.69232e-05,-0.000289576,0.00695076,-0.0133846,-0.0579152,0,0,0,0,0.475998,0.0835745,-0.92608,34.8125,3,26730,2721670
523,-0.265049,-0.804338,10.4953,1.63204,-0.761256,1.47685,-0.00264642,-0.00805042,0.104952,1,4.06115e-05,4.08931e-05,-0.00028079,0.0081223,0.00817862,-0.0561579,0,0,0,0,0.47442,0.0880215,-0.9285,34.8125,3,26733,2721970
524,-0.450498,0.299145,10.939,0.634776,0.525054,2.28246,-0.00452223,0.00295607,0.10939,1,0.000173484,-8.65878e-05,-0.000284159,0.0346967,-0.0173176,-0.0568317,0,0,0,0,0.474054,0.0869779,-0.924481,34.8125,3,26736,2722270
522,-0.75078,-0.00207577,9.58491,1.30265,-1.29234,0.771384,-0.00749346,-2.30693e-05,0.0958502,1,3.04214e-05,7.48953e-05,-0.000234653,0.00608428,0.0149791,-0.0469306,0,0,0,0,0.469646,0.0894798,-0.92592,34.8125,3,26740,2722670
526,-0.738819,-0.316179,9.65947,0.970751,-0.300068,1.06979,-0.00738685,-0.00318215,0.0965942,1,0.000127531,1.64618e-05,-0.000289911,0.0255062,0.00329237,-0.0579822,0,0,0,0,0.472649,0.0912987,-0.919832,34.8125,3,26743,2722970
527,-1.64864,-0.367238,9.07533,1.03145,-1.48839,0.197144,-0.0164937,-0.003666,0.0907522,1,7.51599e-06,-3.06402e-05,-0.000234755,0.0015032,-0.00612804,-0.046951,0,0,0,0,0.466732,0.0948241,-0.923262,34.8125,3,26746,2723270
528,-1.34314,0.841749,9.05818,-0.337477,-1.14271,-0.0571008,-0.0134294,0.00840757,0.090583,1,8.28856e-05,-6.4634e-06,-0.00018982,0.0165771,-0.00129268,-0.0379641,0,0,0,0,0.470602,0.0957406,-0.921745,34.8125,3,26750,2723670
529,-1.14151,0.766245,8.99453,-0.388276,-0.874523,0.21003,-0.0114083,0.00768124,0.0899445,1,-8.29633e-05,2.32878e-05,-0.000169241,-0.0165927,0.00465756,-0.0338482,0,0,0,0,0.463913,0.0981724,-0.918124,34.8125,3,26753,2723970
530,-1.09721,0.652755,9.6736,0.304442,-0.115279,0.829746,-0.0109756,0.00652213,0.096736,1,4.78462e-05,-3.00281e-05,-0.000174894,0.00956924,-0.00600563,-0.0349788,0,0,0,0,0.467709,0.100588,-0.918593,34.8125,3,26756,2724270
531,-0.802309,-0.233301,10.1726,1.16062,-1.15373,1.2936,-0.00801852,-0.00233517,0.101726,1,2.26249e-05,2.60075e-05,-0.000152588,0.00452499,0.0052015,-0.0305176,0,0,0,0,0.464909,0.10344,-0.912961,34.8125,3,26760,2724670
532,-0.451817,0.296235,10.7157,0.428442,0.453629,1.90086,-0.00452503,0.0029516,0.107157,1,5.64981e-05,-3.61799e-05,-0.000150442,0.0112996,-0.00723598,-0.0300885,0,0,0,0,0.461892,0.106932,-0.9159,34.8125,3,26763,2724970
533,-0.522826,0.216731,9.7403,0.708289,-0.717946,0.525487,-0.00523969,0.00218231,0.097402,1,-7.16459e-05,-6.0936e-05,-9.993e-05,-0.0143292,-0.0121872,-0.019986,0,0,0,0,0.462485,0.108292,-0.910317,34.8125,3,26766,2725270
534,-1.282,0.439519,9.68931,0.102099,-0.267108,0.871509,-0.0128096,0.00439277,0.0968946,1,2.23665e-05,5.03325e-05,-7.4561e-05,0.0044733,0.0100665,-0.0149122,0,0,0,0,0.462971,0.110212,-0.908761,34.8125,3,26770,2725670
535,-0.982327,0.174087,9.35425,0.84791,-1.09187,0.498903,-0.00982072,0.00170432,0.0935434,1,0.000203926,1.2113e-05,-8.15246e-05,0.0407853,0.0024226,-0.0163049,0,0,0,0,0.466751,0.113604,-0.909208,34.8125,3,26773,2725970
536,-0.836426,0.326099,9.66017,0.203525,-0.785753,0.78249,-0.00835599,0.0032421,0.096603,1,0.000102342,4.10205e-05,-5.2513e-05,0.0204684,0.00820409,-0.0105026,0,0,0,0,0.461039,0.113607,-0.906657,34.8125,3,26776,2726270
537,-0.611263,-0.375608,9.85516,1.15721,-0.712567,0.838707,-0.00611684,-0.0037363,0.0985521,1,-9.81847e-05,-2.00533e-05,-3.54203e-05,-0.0196369,-0.00401065,-0.00708406,0,0,0,0,0.467229,0.116012,-0.907642,34.8125,3,26780,2726670
538,-0.4623,0.00217052,10.1629,1.09975,-0.18288,1.54216,-0.00463295,-4.43705e-06,0.101628,1,0.000132129,-4.89463e-05,-7.71234e-05,0.0264258,-0.00978926,-0.0154247,0,0,0,0,0.463926,0.115028,-0.905628,34.8125,3,26783,2726970
539,-0.493564,-0.117038,10.3255,1.3665,-0.353605,1.50722,-0.00493236,-0.00114587,0.103255,1,-0.000117877,1.60789e-05,-1.65421e-05,-0.0235754,0.00321578,-0.00330843,0,0,0,0,0.468129,0.117494,-0.909128,34.8125,3,26786,2727270
540,-0.810657,-0.215309,9.67213,0.912754,-0.591152,0.764277,-0.00810017,-0.00215638,0.0967218,1,1.87407e-05,3.35729e-05,-2.11039e-05,0.00374815,0.00671458,-0.00422078,0,0,0,0,0.465794,0.118426,-0.905561,34.8125,3,26790,2727670
541,-0.713807,-0.599449,9.96868,1.6642,-1.1635,1.01492,-0.00713563,-0.00601594,0.0996857,1,0.00011152,1.55562e-05,-5.50696e-05,0.0223041,0.00311124,-0.0110139,0,0,0,0,0.46716,0.119435,-0.90807,34.8125,3,26793,2727970
542,-0.387768,-0.422794,10.4413,1.36247,-0.437,1.43166,-0.0038878,-0.00424707,0.104412,1,9.32975e-05,-4.66377e-05,-4.47249e-05,0.0186595,-0.00932753,-0.00894498,0,0,0,0,0.469101,0.119889,-0.907059,34.8125,3,26796,2728270
543,-0.922886,0.442135,9.23731,0.17744,-0.769507,0.455738,-0.00920918,0.00441908,0.0923752,1,1.67034e-05,0.000104377,-4.42093e-05,0.00334068,0.0208753,-0.00884185,0,0,0,0,0.468036,0.11949,-0.911609,34.8125,3,26800,2728670
544,-0.999633,0.0118018,9.52014,0.728908,-0.633025,0.882528,-0.00999941,9.94026e-05,0.0952011,1,0.000105875,-1.62366e-05,-7.71787e-05,0.0211751,-0.00324733,-0.0154357,0,0,0,0,0.471313,0.120492,-0.914632,34.8125,3,26803,2728970
545,-0.578453,-0.471901,9.87699,1.1922,-0.575949,0.625117,-0.00579831,-0.0047069,0.0987697,1,-5.45829e-05,-6.43215e-05,-0.000114726,-0.0109166,-0.0128643,-0.0229452,0,0,0,0,0.468957,0.11903,-0.913643,34.8125,3,26806,2729270
546,-1.00136,-0.476355,9.36413,1.18495,-1.23047,0.614501,-0.0100075,-0.00476835,0.0936417,1,3.55601e-05,3.72697e-05,-9.30336e-05,0.00711202,0.00745394,-0.0186067,0,0,0,0,0.473115,0.122011,-0.918647,34.8125,3,26810,2729670
