frame_id,imu_idx,quat_w,quat_x,quat_y,quat_z,accel_x,accel_y,accel_z,free_accel_x,free_accel_y,free_accel_z,delta_v_x,delta_v_y,delta_v_z,delta_q_w,delta_q_x,delta_q_y,delta_q_z,rate_x,rate_y,rate_z,quat_w,quat_x,quat_y,quat_z,mag_x,mag_y,mag_z,temperature,status_byte,packet_counter,time_fine
2632,1,0.99544,0.0371106,0.0338918,0.0810732,-0.708989,-0.0306744,9.79395,0.258973,-1.26673,1.06035,-0.00709096,-0.000319017,0.0979394,1,6.10127e-05,-5.55295e-06,2.26517e-05,0.0122026,-0.00111059,0.00453035,0.99544,0.0371106,0.0338918,0.0810732,0.0543331,0.313085,-1.15136,33.8125,3,10911,7760980
2632,2,0.99544,0.0371106,0.0338918,0.0810732,-0.504369,-0.0655646,7.33779,0.258973,-1.26673,1.06035,-0.00504305,-0.000662284,0.0733778,1,4.3856e-05,4.19854e-06,2.00587e-05,0.0087712,0.000839707,0.00401174,0.99544,0.0371106,0.0338918,0.0810732,0.088548,0.526363,-0.978087,33.8125,1,17301,8401479
1,1,0.99544,0.0371106,0.0338918,0.0810732,-0.504369,-0.0655646,7.33779,0.258973,-1.26673,1.06035,-0.00504305,-0.000662284,0.0733778,1,4.3856e-05,4.19854e-06,2.00587e-05,0.0087712,0.000839707,0.00401174,0.99544,0.0371106,0.0338918,0.0810732,0.088548,0.526363,-0.978087,33.8125,1,17301,8401479
1,2,0.99544,0.0371106,0.0338918,0.0810732,-0.504369,-0.0655646,7.33779,0.258973,-1.26673,1.06035,-0.00504305,-0.000662284,0.0733778,1,4.3856e-05,4.19854e-06,2.00587e-05,0.0087712,0.000839707,0.00401174,0.99544,0.0371106,0.0338918,0.0810732,0.088548,0.526363,-0.978087,33.8125,1,17301,8401479
2,1,0.999402,-0.00446558,0.0342948,-0.000136009,-0.668104,-0.0804919,9.78986,0.0509445,-0.50164,0.990556,-0.00668254,-0.000811682,0.0978984,1,3.32054e-05,-7.83236e-06,1.9541e-05,0.00664108,-0.00156647,0.0039082,0.999402,-0.00446558,0.0342948,-0.000136009,0.0865585,0.528836,-0.979033,33.8125,1,17302,8401579
2,2,0.999402,-0.00446558,0.0342948,-0.000136009,-0.668104,-0.0804919,9.78986,0.0509445,-0.50164,0.990556,-0.00668254,-0.000811682,0.0978984,1,3.32054e-05,-7.83236e-06,1.9541e-05,0.00664108,-0.00156647,0.0039082,0.999402,-0.00446558,0.0342948,-0.000136009,0.0865585,0.528836,-0.979033,33.8125,1,17302,8401579
3,1,0.999402,-0.00446558,0.0342948,-0.000136009,-0.668104,-0.0804919,9.78986,0.0509445,-0.50164,0.990556,-0.00668254,-0.000811682,0.0978984,1,3.32054e-05,-7.83236e-06,1.9541e-05,0.00664108,-0.00156647,0.0039082,0.999402,-0.00446558,0.0342948,-0.000136009,0.0865585,0.528836,-0.979033,33.8125,1,17302,8401579
3,2,0.999403,-0.00443882,0.034279,-0.000138247,-0.669693,-0.0928873,9.7996,0.0495108,-0.515183,1.00195,-0.00669806,-0.000936328,0.0979958,1,3.64426e-05,-5.96618e-06,2.33074e-05,0.00728851,-0.00119324,0.00466148,0.999403,-0.00443882,0.034279,-0.000138247,0.0860447,0.529346,-0.98003,33.8125,1,17303,8401679
7,1,0.999403,-0.00443882,0.034279,-0.000138247,-0.669693,-0.0928873,9.7996,0.0495108,-0.515183,1.00195,-0.00669806,-0.000936328,0.0979958,1,3.64426e-05,-5.96618e-06,2.33074e-05,0.00728851,-0.00119324,0.00466148,0.999403,-0.00443882,0.034279,-0.000138247,0.0860447,0.529346,-0.98003,33.8125,1,17303,8401679
7,2,0.999403,-0.00443882,0.034279,-0.000138247,-0.669693,-0.0928873,9.7996,0.0495108,-0.515183,1.00195,-0.00669806,-0.000936328,0.0979958,1,3.64426e-05,-5.96618e-06,2.33074e-05,0.00728851,-0.00119324,0.00466148,0.999403,-0.00443882,0.034279,-0.000138247,0.0860447,0.529346,-0.98003,33.8125,1,17303,8401679
8,1,0.999403,-0.00440698,0.0342752,-0.000118095,-0.669819,-0.0815655,9.78817,0.0512342,-0.507017,0.992275,-0.00669896,-0.000821845,0.0978816,1,3.02178e-05,-4.13131e-06,2.04834e-05,0.00604355,-0.000826261,0.00409669,0.999403,-0.00440698,0.0342752,-0.000118095,0.0849956,0.527972,-0.984601,33.8125,1,17304,8401779
8,2,0.999403,-0.00440698,0.0342752,-0.000118095,-0.669819,-0.0815655,9.78817,0.0512342,-0.507017,0.992275,-0.00669896,-0.000821845,0.0978816,1,3.02178e-05,-4.13131e-06,2.04834e-05,0.00604355,-0.000826261,0.00409669,0.999403,-0.00440698,0.0342752,-0.000118095,0.0849956,0.527972,-0.984601,33.8125,1,17304,8401779
9,1,0.999403,-0.00440698,0.0342752,-0.000118095,-0.669819,-0.0815655,9.78817,0.0512342,-0.507017,0.992275,-0.00669896,-0.000821845,0.0978816,1,3.02178e-05,-4.13131e-06,2.04834e-05,0.00604355,-0.000826261,0.00409669,0.999403,-0.00440698,0.0342752,-0.000118095,0.0849956,0.527972,-0.984601,33.8125,1,17304,8401779
9,2,0.999403,-0.00435461,0.0342779,-9.59435e-05,-0.674197,-0.0931147,9.78911,0.0503132,-0.523228,0.991306,-0.00674149,-0.000941601,0.097891,1,5.18244e-05,2.22388e-06,2.28266e-05,0.0103649,0.000444777,0.00456532,0.999403,-0.00435461,0.0342779,-9.59435e-05,0.0869358,0.525535,-0.985674,33.8125,1,17305,8401879
10,1,0.999403,-0.00435461,0.0342779,-9.59435e-05,-0.674197,-0.0931147,9.78911,0.0503132,-0.523228,0.991306,-0.00674149,-0.000941601,0.097891,1,5.18244e-05,2.22388e-06,2.28266e-05,0.0103649,0.000444777,0.00456532,0.999403,-0.00435461,0.0342779,-9.59435e-05,0.0869358,0.525535,-0.985674,33.8125,1,17305,8401879
10,2,0.999403,-0.00435461,0.0342779,-9.59435e-05,-0.674197,-0.0931147,9.78911,0.0503132,-0.523228,0.991306,-0.00674149,-0.000941601,0.097891,1,5.18244e-05,2.22388e-06,2.28266e-05,0.0103649,0.000444777,0.00456532,0.999403,-0.00435461,0.0342779,-9.59435e-05,0.0869358,0.525535,-0.985674,33.8125,1,17305,8401879
11,1,0.999403,-0.00429794,0.0342766,-8.95003e-05,-0.67513,-0.0971538,9.79383,0.0452679,-0.523075,1.00188,-0.00675148,-0.000982599,0.0979382,1,5.58756e-05,-9.92934e-07,8.65929e-06,0.0111751,-0.000198587,0.00173186,0.999403,-0.00429794,0.0342766,-8.95003e-05,0.087499,0.524989,-0.982659,33.8125,1,17306,8401979
11,2,0.999403,-0.00429794,0.0342766,-8.95003e-05,-0.67513,-0.0971538,9.79383,0.0452679,-0.523075,1.00188,-0.00675148,-0.000982599,0.0979382,1,5.58756e-05,-9.92934e-07,8.65929e-06,0.0111751,-0.000198587,0.00173186,0.999403,-0.00429794,0.0342766,-8.95003e-05,0.087499,0.524989,-0.982659,33.8125,1,17306,8401979
12,1,0.999403,-0.00429794,0.0342766,-8.95003e-05,-0.67513,-0.0971538,9.79383,0.0452679,-0.523075,1.00188,-0.00675148,-0.000982599,0.0979382,1,5.58756e-05,-9.92934e-07,8.65929e-06,0.0111751,-0.000198587,0.00173186,0.999403,-0.00429794,0.0342766,-8.95003e-05,0.087499,0.524989,-0.982659,33.8125,1,17306,8401979
12,2,0.999404,-0.00424424,0.0342605,-8.1555e-05,-0.670367,-0.0854906,9.78611,0.0459863,-0.513394,0.994052,-0.00670678,-0.000865478,0.0978608,1,5.3348e-05,-1.5978e-05,9.7842e-06,0.0106696,-0.00319559,0.00195684,0.999404,-0.00424424,0.0342605,-8.1555e-05,0.0866069,0.52591,-0.979099,33.8125,1,17307,8402079
10,1,0.999404,-0.00424424,0.0342605,-8.1555e-05,-0.670367,-0.0854906,9.78611,0.0459863,-0.513394,0.994052,-0.00670678,-0.000865478,0.0978608,1,5.3348e-05,-1.5978e-05,9.7842e-06,0.0106696,-0.00319559,0.00195684,0.999404,-0.00424424,0.0342605,-8.1555e-05,0.0866069,0.52591,-0.979099,33.8125,1,17307,8402079
10,2,0.999404,-0.00424424,0.0342605,-8.1555e-05,-0.670367,-0.0854906,9.78611,0.0459863,-0.513394,0.994052,-0.00670678,-0.000865478,0.0978608,1,5.3348e-05,-1.5978e-05,9.7842e-06,0.0106696,-0.00319559,0.00195684,0.999404,-0.00424424,0.0342605,-8.1555e-05,0.0866069,0.52591,-0.979099,33.8125,1,17307,8402079
14,1,0.999404,-0.00420918,0.0342612,-8.57714e-05,-0.667736,-0.0893443,9.78638,0.0533896,-0.513583,0.993423,-0.00667723,-0.000900325,0.0978638,1,3.53604e-05,6.94737e-07,-2.90221e-06,0.00707209,0.000138947,-0.000580441,0.999404,-0.00420918,0.0342612,-8.57714e-05,0.0870681,0.527848,-0.978553,33.8125,1,17308,8402179
14,2,0.999404,-0.00420918,0.0342612,-8.57714e-05,-0.667736,-0.0893443,9.78638,0.0533896,-0.513583,0.993423,-0.00667723,-0.000900325,0.0978638,1,3.53604e-05,6.94737e-07,-2.90221e-06,0.00707209,0.000138947,-0.000580441,0.999404,-0.00420918,0.0342612,-8.57714e-05,0.0870681,0.527848,-0.978553,33.8125,1,17308,8402179
15,1,0.999404,-0.00420918,0.0342612,-8.57714e-05,-0.667736,-0.0893443,9.78638,0.0533896,-0.513583,0.993423,-0.00667723,-0.000900325,0.0978638,1,3.53604e-05,6.94737e-07,-2.90221e-06,0.00707209,0.000138947,-0.000580441,0.999404,-0.00420918,0.0342612,-8.57714e-05,0.0870681,0.527848,-0.978553,33.8125,1,17308,8402179
15,2,0.999404,-0.00416723,0.0342543,-6.85393e-05,-0.670544,-0.0767217,9.78584,0.0494075,-0.503889,0.989262,-0.00670684,-0.000775459,0.0978582,1,4.09018e-05,-7.27736e-06,1.76411e-05,0.00818037,-0.00145547,0.00352821,0.999404,-0.00416723,0.0342543,-6.85393e-05,0.0894001,0.529327,-0.980551,33.8125,1,17309,8402279
16,1,0.999404,-0.00416723,0.0342543,-6.85393e-05,-0.670544,-0.0767217,9.78584,0.0494075,-0.503889,0.989262,-0.00670684,-0.000775459,0.0978582,1,4.09018e-05,-7.27736e-06,1.76411e-05,0.00818037,-0.00145547,0.00352821,0.999404,-0.00416723,0.0342543,-6.85393e-05,0.0894001,0.529327,-0.980551,33.8125,1,17309,8402279
16,2,0.999404,-0.00416723,0.0342543,-6.85393e-05,-0.670544,-0.0767217,9.78584,0.0494075,-0.503889,0.989262,-0.00670684,-0.000775459,0.0978582,1,4.09018e-05,-7.27736e-06,1.76411e-05,0.00818037,-0.00145547,0.00352821,0.999404,-0.00416723,0.0342543,-6.85393e-05,0.0894001,0.529327,-0.980551,33.8125,1,17309,8402279
17,1,0.999405,-0.00411932,0.0342487,-4.77317e-05,-0.668732,-0.0923745,9.78908,0.0480176,-0.519592,0.991664,-0.00668847,-0.000933254,0.0978907,1,4.71044e-05,-6.05004e-06,2.13963e-05,0.00942088,-0.00121001,0.00427926,0.999405,-0.00411932,0.0342487,-4.77317e-05,0.08984,0.528871,-0.982583,33.8125,1,17310,8402379
17,2,0.999405,-0.00411932,0.0342487,-4.77317e-05,-0.668732,-0.0923745,9.78908,0.0480176,-0.519592,0.991664,-0.00668847,-0.000933254,0.0978907,1,4.71044e-05,-6.05004e-06,2.13963e-05,0.00942088,-0.00121001,0.00427926,0.999405,-0.00411932,0.0342487,-4.77317e-05,0.08984,0.528871,-0.982583,33.8125,1,17310,8402379
18,1,0.999405,-0.00411932,0.0342487,-4.77317e-05,-0.668732,-0.0923745,9.78908,0.0480176,-0.519592,0.991664,-0.00668847,-0.000933254,0.0978907,1,4.71044e-05,-6.05004e-06,2.13963e-05,0.00942088,-0.00121001,0.00427926,0.999405,-0.00411932,0.0342487,-4.77317e-05,0.08984,0.528871,-0.982583,33.8125,1,17310,8402379
18,2,0.999405,-0.00407585,0.0342385,-2.11616e-05,-0.665714,-0.0790363,9.78918,0.0533497,-0.511722,0.991928,-0.00665906,-0.000799126,0.0978916,1,4.27831e-05,-1.00774e-05,2.90646e-05,0.00855661,-0.00201548,0.00581293,0.999405,-0.00407585,0.0342385,-2.11616e-05,0.0874786,0.525486,-0.983153,33.8125,1,17311,8402479
19,1,0.999405,-0.00407585,0.0342385,-2.11616e-05,-0.665714,-0.0790363,9.78918,0.0533497,-0.511722,0.991928,-0.00665906,-0.000799126,0.0978916,1,4.27831e-05,-1.00774e-05,2.90646e-05,0.00855661,-0.00201548,0.00581293,0.999405,-0.00407585,0.0342385,-2.11616e-05,0.0874786,0.525486,-0.983153,33.8125,1,17311,8402479
19,2,0.999405,-0.00407585,0.0342385,-2.11616e-05,-0.665714,-0.0790363,9.78918,0.0533497,-0.511722,0.991928,-0.00665906,-0.000799126,0.0978916,1,4.27831e-05,-1.00774e-05,2.90646e-05,0.00855661,-0.00201548,0.00581293,0.999405,-0.00407585,0.0342385,-2.11616e-05,0.0874786,0.525486,-0.983153,33.8125,1,17311,8402479
20,1,0.999406,-0.00403215,0.0342293,-7.45518e-06,-0.676968,-0.0743751,9.78997,0.0367208,-0.509835,0.996217,-0.00677147,-0.00075237,0.0978995,1,4.29899e-05,-9.2687e-06,1.49253e-05,0.00859797,-0.00185374,0.00298505,0.999406,-0.00403215,0.0342293,-7.45518e-06,0.0851261,0.524503,-0.981648,33.8125,1,17312,8402579
20,2,0.999406,-0.00403215,0.0342293,-7.45518e-06,-0.676968,-0.0743751,9.78997,0.0367208,-0.509835,0.996217,-0.00677147,-0.00075237,0.0978995,1,4.29899e-05,-9.2687e-06,1.49253e-05,0.00859797,-0.00185374,0.00298505,0.999406,-0.00403215,0.0342293,-7.45518e-06,0.0851261,0.524503,-0.981648,33.8125,1,17312,8402579
21,1,0.999406,-0.00403215,0.0342293,-7.45518e-06,-0.676968,-0.0743751,9.78997,0.0367208,-0.509835,0.996217,-0.00677147,-0.00075237,0.0978995,1,4.29899e-05,-9.2687e-06,1.49253e-05,0.00859797,-0.00185374,0.00298505,0.999406,-0.00403215,0.0342293,-7.45518e-06,0.0851261,0.524503,-0.981648,33.8125,1,17312,8402579
21,2,0.999407,-0.00400534,0.0342092,-4.45581e-07,-0.66062,-0.0741187,9.79461,0.0606893,-0.503088,0.996059,-0.00660986,-0.000746536,0.0979458,1,2.66153e-05,-1.874e-05,1.02279e-05,0.00532307,-0.003748,0.00204558,0.999407,-0.00400534,0.0342092,-4.45581e-07,0.0852167,0.524919,-0.977599,33.8125,1,17313,8402679
22,1,0.999407,-0.00400534,0.0342092,-4.45581e-07,-0.66062,-0.0741187,9.79461,0.0606893,-0.503088,0.996059,-0.00660986,-0.000746536,0.0979458,1,2.66153e-05,-1.874e-05,1.02279e-05,0.00532307,-0.003748,0.00204558,0.999407,-0.00400534,0.0342092,-4.45581e-07,0.0852167,0.524919,-0.977599,33.8125,1,17313,8402679
22,2,0.999407,-0.00400534,0.0342092,-4.45581e-07,-0.66062,-0.0741187,9.79461,0.0606893,-0.503088,0.996059,-0.00660986,-0.000746536,0.0979458,1,2.66153e-05,-1.874e-05,1.02279e-05,0.00532307,-0.003748,0.00204558,0.999407,-0.00400534,0.0342092,-4.45581e-07,0.0852167,0.524919,-0.977599,33.8125,1,17313,8402679
23,1,0.999407,-0.00396451,0.0342046,1.01105e-05,-0.676318,-0.0818401,9.77769,0.0421226,-0.516157,0.982359,-0.00676407,-0.000826514,0.0977768,1,4.06486e-05,-4.66795e-06,1.21032e-05,0.00812972,-0.000933591,0.00242064,0.999407,-0.00396451,0.0342046,1.01105e-05,0.0856575,0.527354,-0.977547,33.8125,1,17314,8402779
23,2,0.999407,-0.00396451,0.0342046,1.01105e-05,-0.676318,-0.0818401,9.77769,0.0421226,-0.516157,0.982359,-0.00676407,-0.000826514,0.0977768,1,4.06486e-05,-4.66795e-06,1.21032e-05,0.00812972,-0.000933591,0.00242064,0.999407,-0.00396451,0.0342046,1.01105e-05,0.0856575,0.527354,-0.977547,33.8125,1,17314,8402779
24,1,0.999407,-0.00396451,0.0342046,1.01105e-05,-0.676318,-0.0818401,9.77769,0.0421226,-0.516157,0.982359,-0.00676407,-0.000826514,0.0977768,1,4.06486e-05,-4.66795e-06,1.21032e-05,0.00812972,-0.000933591,0.00242064,0.999407,-0.00396451,0.0342046,1.01105e-05,0.0856575,0.527354,-0.977547,33.8125,1,17314,8402779
24,2,0.999408,-0.00391859,0.0341931,2.24073e-05,-0.673982,-0.0749557,9.78181,0.0472122,-0.506453,0.980208,-0.00674204,-0.000758532,0.0978178,1,4.49345e-05,-1.14441e-05,1.36793e-05,0.00898689,-0.00228882,0.00273586,0.999408,-0.00391859,0.0341931,2.24073e-05,0.0869779,0.528877,-0.98156,33.8125,1,17315,8402879
25,1,0.999408,-0.00391859,0.0341931,2.24073e-05,-0.673982,-0.0749557,9.78181,0.0472122,-0.506453,0.980208,-0.00674204,-0.000758532,0.0978178,1,4.49345e-05,-1.14441e-05,1.36793e-05,0.00898689,-0.00228882,0.00273586,0.999408,-0.00391859,0.0341931,2.24073e-05,0.0869779,0.528877,-0.98156,33.8125,1,17315,8402879
25,2,0.999408,-0.00391859,0.0341931,2.24073e-05,-0.673982,-0.0749557,9.78181,0.0472122,-0.506453,0.980208,-0.00674204,-0.000758532,0.0978178,1,4.49345e-05,-1.14441e-05,1.36793e-05,0.00898689,-0.00228882,0.00273586,0.999408,-0.00391859,0.0341931,2.24073e-05,0.0869779,0.528877,-0.98156,33.8125,1,17315,8402879
26,1,0.999408,-0.00388076,0.0341844,2.37077e-05,-0.663675,-0.0869378,9.78774,0.0549681,-0.525122,0.990609,-0.00663844,-0.000876721,0.0978772,1,3.73497e-05,-8.6986e-06,2.43078e-06,0.00746995,-0.00173972,0.000486157,0.999408,-0.00388076,0.0341844,2.37077e-05,0.0869447,0.527938,-0.983601,33.8125,1,17316,8402979
26,2,0.999408,-0.00388076,0.0341844,2.37077e-05,-0.663675,-0.0869378,9.78774,0.0549681,-0.525122,0.990609,-0.00663844,-0.000876721,0.0978772,1,3.73497e-05,-8.6986e-06,2.43078e-06,0.00746995,-0.00173972,0.000486157,0.999408,-0.00388076,0.0341844,2.37077e-05,0.0869447,0.527938,-0.983601,33.8125,1,17316,8402979
27,1,0.999408,-0.00388076,0.0341844,2.37077e-05,-0.663675,-0.0869378,9.78774,0.0549681,-0.525122,0.990609,-0.00663844,-0.000876721,0.0978772,1,3.73497e-05,-8.6986e-06,2.43078e-06,0.00746995,-0.00173972,0.000486157,0.999408,-0.00388076,0.0341844,2.37077e-05,0.0869447,0.527938,-0.983601,33.8125,1,17316,8402979
27,2,0.999409,-0.00383888,0.0341705,4.62579e-05,-0.670408,-0.0845815,9.79086,0.0466948,-0.520622,0.994463,-0.0067068,-0.00085422,0.0979084,1,4.13284e-05,-1.41113e-05,2.33223e-05,0.00826567,-0.00282227,0.00466445,0.999409,-0.00383888,0.0341705,4.62579e-05,0.0855213,0.526008,-0.984142,33.8125,1,17317,8403079
28,1,0.999409,-0.00383888,0.0341705,4.62579e-05,-0.670408,-0.0845815,9.79086,0.0466948,-0.520622,0.994463,-0.0067068,-0.00085422,0.0979084,1,4.13284e-05,-1.41113e-05,2.33223e-05,0.00826567,-0.00282227,0.00466445,0.999409,-0.00383888,0.0341705,4.62579e-05,0.0855213,0.526008,-0.984142,33.8125,1,17317,8403079
28,2,0.999409,-0.00383888,0.0341705,4.62579e-05,-0.670408,-0.0845815,9.79086,0.0466948,-0.520622,0.994463,-0.0067068,-0.00085422,0.0979084,1,4.13284e-05,-1.41113e-05,2.33223e-05,0.00826567,-0.00282227,0.00466445,0.999409,-0.00383888,0.0341705,4.62579e-05,0.0855213,0.526008,-0.984142,33.8125,1,17317,8403079
29,1,0.999409,-0.00379378,0.0341569,6.46802e-05,-0.66676,-0.0769587,9.78242,0.0530026,-0.518581,0.9903,-0.00667022,-0.000778584,0.097824,1,4.46476e-05,-1.35714e-05,1.96266e-05,0.00892952,-0.00271429,0.00392531,0.999409,-0.00379378,0.0341569,6.46802e-05,0.0850934,0.525009,-0.982647,33.8125,1,17318,8403179
29,2,0.999409,-0.00379378,0.0341569,6.46802e-05,-0.66676,-0.0769587,9.78242,0.0530026,-0.518581,0.9903,-0.00667022,-0.000778584,0.097824,1,4.46476e-05,-1.35714e-05,1.96266e-05,0.00892952,-0.00271429,0.00392531,0.999409,-0.00379378,0.0341569,6.46802e-05,0.0850934,0.525009,-0.982647,33.8125,1,17318,8403179
30,1,0.999409,-0.00379378,0.0341569,6.46802e-05,-0.66676,-0.0769587,9.78242,0.0530026,-0.518581,0.9903,-0.00667022,-0.000778584,0.097824,1,4.46476e-05,-1.35714e-05,1.96266e-05,0.00892952,-0.00271429,0.00392531,0.999409,-0.00379378,0.0341569,6.46802e-05,0.0850934,0.525009,-0.982647,33.8125,1,17318,8403179
30,2,0.999409,-0.00374922,0.0341587,8.3827e-05,-0.666875,-0.0772453,9.78275,0.0507506,-0.516943,0.989394,-0.00666838,-0.00078132,0.0978275,1,4.3912e-05,1.6967e-06,2.06379e-05,0.0087824,0.000339339,0.00412759,0.999409,-0.00374922,0.0341587,8.3827e-05,0.0857059,0.524427,-0.977612,33.8125,1,17319,8403279
31,1,0.999409,-0.00374922,0.0341587,8.3827e-05,-0.666875,-0.0772453,9.78275,0.0507506,-0.516943,0.989394,-0.00666838,-0.00078132,0.0978275,1,4.3912e-05,1.6967e-06,2.06379e-05,0.0087824,0.000339339,0.00412759,0.999409,-0.00374922,0.0341587,8.3827e-05,0.0857059,0.524427,-0.977612,33.8125,1,17319,8403279
31,2,0.999409,-0.00374922,0.0341587,8.3827e-05,-0.666875,-0.0772453,9.78275,0.0507506,-0.516943,0.989394,-0.00666838,-0.00078132,0.0978275,1,4.3912e-05,1.6967e-06,2.06379e-05,0.0087824,0.000339339,0.00412759,0.999409,-0.00374922,0.0341587,8.3827e-05,0.0857059,0.524427,-0.977612,33.8125,1,17319,8403279
32,1,0.999409,-0.00370617,0.034165,0.000108031,-0.673995,-0.0855265,9.78578,0.0410516,-0.520234,0.986358,-0.00673868,-0.000863906,0.0978578,1,4.23883e-05,6.26598e-06,2.55833e-05,0.00847765,0.0012532,0.00511667,0.999409,-0.00370617,0.034165,0.000108031,0.0847199,0.527344,-0.976533,33.8125,1,17320,8403379
32,2,0.999409,-0.00370617,0.034165,0.000108031,-0.673995,-0.0855265,9.78578,0.0410516,-0.520234,0.986358,-0.00673868,-0.000863906,0.0978578,1,4.23883e-05,6.26598e-06,2.55833e-05,0.00847765,0.0012532,0.00511667,0.999409,-0.00370617,0.034165,0.000108031,0.0847199,0.527344,-0.976533,33.8125,1,17320,8403379
33,1,0.999409,-0.00370617,0.034165,0.000108031,-0.673995,-0.0855265,9.78578,0.0410516,-0.520234,0.986358,-0.00673868,-0.000863906,0.0978578,1,4.23883e-05,6.26598e-06,2.55833e-05,0.00847765,0.0012532,0.00511667,0.999409,-0.00370617,0.034165,0.000108031,0.0847199,0.527344,-0.976533,33.8125,1,17320,8403379
33,2,0.999409,-0.00367114,0.0341643,0.000108831,-0.674645,-0.0815636,9.78684,0.0436959,-0.519805,0.984342,-0.00674658,-0.000822676,0.0978683,1,3.58131e-05,-7.04023e-07,2.17178e-06,0.00716262,-0.000140805,0.000434357,0.999409,-0.00367114,0.0341643,0.000108831,0.0875288,0.52834,-0.979049,33.8125,1,17321,8403479
34,1,0.999409,-0.00367114,0.0341643,0.000108831,-0.674645,-0.0815636,9.78684,0.0436959,-0.519805,0.984342,-0.00674658,-0.000822676,0.0978683,1,3.58131e-05,-7.04023e-07,2.17178e-06,0.00716262,-0.000140805,0.000434357,0.999409,-0.00367114,0.0341643,0.000108831,0.0875288,0.52834,-0.979049,33.8125,1,17321,8403479
34,2,0.999409,-0.00367114,0.0341643,0.000108831,-0.674645,-0.0815636,9.78684,0.0436959,-0.519805,0.984342,-0.00674658,-0.000822676,0.0978683,1,3.58131e-05,-7.04023e-07,2.17178e-06,0.00716262,-0.000140805,0.000434357,0.999409,-0.00367114,0.0341643,0.000108831,0.0875288,0.52834,-0.979049,33.8125,1,17321,8403479
35,1,0.99941,-0.00361189,0.0341467,0.000129324,-0.664608,-0.0820059,9.79118,0.0513689,-0.522672,0.98969,-0.00664953,-0.000831687,0.0979115,1,5.78929e-05,-1.77938e-05,2.19308e-05,0.0115786,-0.00355875,0.00438617,0.99941,-0.00361189,0.0341467,0.000129324,0.0883681,0.529868,-0.983059,33.8125,1,17322,8403579
35,2,0.99941,-0.00361189,0.0341467,0.000129324,-0.664608,-0.0820059,9.79118,0.0513689,-0.522672,0.98969,-0.00664953,-0.000831687,0.0979115,1,5.78929e-05,-1.77938e-05,2.19308e-05,0.0115786,-0.00355875,0.00438617,0.99941,-0.00361189,0.0341467,0.000129324,0.0883681,0.529868,-0.983059,33.8125,1,17322,8403579
36,1,0.99941,-0.00361189,0.0341467,0.000129324,-0.664608,-0.0820059,9.79118,0.0513689,-0.522672,0.98969,-0.00664953,-0.000831687,0.0979115,1,5.78929e-05,-1.77938e-05,2.19308e-05,0.0115786,-0.00355875,0.00438617,0.99941,-0.00361189,0.0341467,0.000129324,0.0883681,0.529868,-0.983059,33.8125,1,17322,8403579
36,2,0.99941,-0.00357185,0.0341481,0.000148722,-0.670153,-0.0873325,9.79083,0.0476294,-0.533239,0.993869,-0.00670122,-0.000881428,0.0979083,1,3.99444e-05,1.42868e-06,2.09733e-05,0.00798889,0.000285737,0.00419467,0.99941,-0.00357185,0.0341481,0.000148722,0.0869818,0.527911,-0.982086,33.8125,1,17323,8403679
37,1,0.99941,-0.00357185,0.0341481,0.000148722,-0.670153,-0.0873325,9.79083,0.0476294,-0.533239,0.993869,-0.00670122,-0.000881428,0.0979083,1,3.99444e-05,1.42868e-06,2.09733e-05,0.00798889,0.000285737,0.00419467,0.99941,-0.00357185,0.0341481,0.000148722,0.0869818,0.527911,-0.982086,33.8125,1,17323,8403679
37,2,0.99941,-0.00357185,0.0341481,0.000148722,-0.670153,-0.0873325,9.79083,0.0476294,-0.533239,0.993869,-0.00670122,-0.000881428,0.0979083,1,3.99444e-05,1.42868e-06,2.09733e-05,0.00798889,0.000285737,0.00419467,0.99941,-0.00357185,0.0341481,0.000148722,0.0869818,0.527911,-0.982086,33.8125,1,17323,8403679
38,1,0.999411,-0.00352595,0.034136,0.000167706,-0.677932,-0.0842089,9.79159,0.0406661,-0.530048,0.996891,-0.00678169,-0.000851415,0.0979157,1,4.61972e-05,-1.22787e-05,2.0629e-05,0.00923944,-0.00245574,0.0041258,0.999411,-0.00352595,0.034136,0.000167706,0.08562,0.525936,-0.980104,33.8125,1,17324,8403779
38,2,0.999411,-0.00352595,0.034136,0.000167706,-0.677932,-0.0842089,9.79159,0.0406661,-0.530048,0.996891,-0.00678169,-0.000851415,0.0979157,1,4.61972e-05,-1.22787e-05,2.0629e-05,0.00923944,-0.00245574,0.0041258,0.999411,-0.00352595,0.034136,0.000167706,0.08562,0.525936,-0.980104,33.8125,1,17324,8403779
39,1,0.999411,-0.00352595,0.034136,0.000167706,-0.677932,-0.0842089,9.79159,0.0406661,-0.530048,0.996891,-0.00678169,-0.000851415,0.0979157,1,4.61972e-05,-1.22787e-05,2.0629e-05,0.00923944,-0.00245574,0.0041258,0.999411,-0.00352595,0.034136,0.000167706,0.08562,0.525936,-0.980104,33.8125,1,17324,8403779
39,2,0.999412,-0.00348021,0.0341242,0.000181124,-0.663044,-0.0863927,9.77756,0.0536876,-0.536178,0.978049,-0.00663275,-0.000873056,0.0977754,1,4.5657e-05,-1.19324e-05,1.51454e-05,0.0091314,-0.00238647,0.00302908,0.999412,-0.00348021,0.0341242,0.000181124,0.0861586,0.525408,-0.978098,33.8125,1,17325,8403879
40,1,0.999412,-0.00348021,0.0341242,0.000181124,-0.663044,-0.0863927,9.77756,0.0536876,-0.536178,0.978049,-0.00663275,-0.000873056,0.0977754,1,4.5657e-05,-1.19324e-05,1.51454e-05,0.0091314,-0.00238647,0.00302908,0.999412,-0.00348021,0.0341242,0.000181124,0.0861586,0.525408,-0.978098,33.8125,1,17325,8403879
40,2,0.999412,-0.00348021,0.0341242,0.000181124,-0.663044,-0.0863927,9.77756,0.0536876,-0.536178,0.978049,-0.00663275,-0.000873056,0.0977754,1,4.5657e-05,-1.19324e-05,1.51454e-05,0.0091314,-0.00238647,0.00302908,0.999412,-0.00348021,0.0341242,0.000181124,0.0861586,0.525408,-0.978098,33.8125,1,17325,8403879
41,1,0.999412,-0.00342897,0.0341083,0.000194344,-0.672747,-0.0834545,9.79156,0.0458067,-0.526564,0.990834,-0.00673055,-0.000844752,0.0979153,1,5.10793e-05,-1.5851e-05,1.51042e-05,0.0102159,-0.00317021,0.00302084,0.999412,-0.00342897,0.0341083,0.000194344,0.0875696,0.527347,-0.978061,33.8125,1,17326,8403979
41,2,0.999412,-0.00342897,0.0341083,0.000194344,-0.672747,-0.0834545,9.79156,0.0458067,-0.526564,0.990834,-0.00673055,-0.000844752,0.0979153,1,5.10793e-05,-1.5851e-05,1.51042e-05,0.0102159,-0.00317021,0.00302084,0.999412,-0.00342897,0.0341083,0.000194344,0.0875696,0.527347,-0.978061,33.8125,1,17326,8403979
42,1,0.999412,-0.00342897,0.0341083,0.000194344,-0.672747,-0.0834545,9.79156,0.0458067,-0.526564,0.990834,-0.00673055,-0.000844752,0.0979153,1,5.10793e-05,-1.5851e-05,1.51042e-05,0.0102159,-0.00317021,0.00302084,0.999412,-0.00342897,0.0341083,0.000194344,0.0875696,0.527347,-0.978061,33.8125,1,17326,8403979
42,2,0.999413,-0.00339144,0.0341026,0.000209483,-0.659001,-0.0787507,9.78946,0.0593946,-0.526077,0.985347,-0.00659112,-0.000795085,0.0978945,1,3.75937e-05,-5.77047e-06,1.65087e-05,0.00751875,-0.00115409,0.00330174,0.999413,-0.00339144,0.0341026,0.000209483,0.088018,0.527849,-0.979062,33.8125,1,17327,8404079
43,1,0.999413,-0.00339144,0.0341026,0.000209483,-0.659001,-0.0787507,9.78946,0.0593946,-0.526077,0.985347,-0.00659112,-0.000795085,0.0978945,1,3.75937e-05,-5.77047e-06,1.65087e-05,0.00751875,-0.00115409,0.00330174,0.999413,-0.00339144,0.0341026,0.000209483,0.088018,0.527849,-0.979062,33.8125,1,17327,8404079
43,2,0.999413,-0.00339144,0.0341026,0.000209483,-0.659001,-0.0787507,9.78946,0.0593946,-0.526077,0.985347,-0.00659112,-0.000795085,0.0978945,1,3.75937e-05,-5.77047e-06,1.65087e-05,0.00751875,-0.00115409,0.00330174,0.999413,-0.00339144,0.0341026,0.000209483,0.088018,0.527849,-0.979062,33.8125,1,17327,8404079
43,3,0.999413,-0.00334893,0.0341028,0.000215506,-0.670591,-0.0868264,9.77795,0.0429956,-0.538218,0.973713,-0.00670587,-0.000876881,0.0977794,1,4.35319e-05,1.37953e-07,7.70387e-06,0.00870638,2.75906e-05,0.00154077,0.999413,-0.00334893,0.0341028,0.000215506,0.0869818,0.527911,-0.982086,33.8125,1,17328,8404179
43,4,0.999413,-0.00334893,0.0341028,0.000215506,-0.670591,-0.0868264,9.77795,0.0429956,-0.538218,0.973713,-0.00670587,-0.000876881,0.0977794,1,4.35319e-05,1.37953e-07,7.70387e-06,0.00870638,2.75906e-05,0.00154077,0.999413,-0.00334893,0.0341028,0.000215506,0.0869818,0.527911,-0.982086,33.8125,1,17328,8404179
44,1,0.999413,-0.00334893,0.0341028,0.000215506,-0.670591,-0.0868264,9.77795,0.0429956,-0.538218,0.973713,-0.00670587,-0.000876881,0.0977794,1,4.35319e-05,1.37953e-07,7.70387e-06,0.00870638,2.75906e-05,0.00154077,0.999413,-0.00334893,0.0341028,0.000215506,0.0869818,0.527911,-0.982086,33.8125,1,17328,8404179
44,2,0.999413,-0.00330847,0.0340921,0.00022805,-0.671826,-0.0856482,9.79221,0.0416434,-0.53725,0.991367,-0.00672035,-0.000864539,0.0979219,1,4.01827e-05,-1.07552e-05,1.39347e-05,0.00803653,-0.00215103,0.00278693,0.999413,-0.00330847,0.0340921,0.00022805,0.0859697,0.526509,-0.985143,33.8125,1,17329,8404279
45,1,0.999413,-0.00330847,0.0340921,0.00022805,-0.671826,-0.0856482,9.79221,0.0416434,-0.53725,0.991367,-0.00672035,-0.000864539,0.0979219,1,4.01827e-05,-1.07552e-05,1.39347e-05,0.00803653,-0.00215103,0.00278693,0.999413,-0.00330847,0.0340921,0.00022805,0.0859697,0.526509,-0.985143,33.8125,1,17329,8404279
45,2,0.999413,-0.00330847,0.0340921,0.00022805,-0.671826,-0.0856482,9.79221,0.0416434,-0.53725,0.991367,-0.00672035,-0.000864539,0.0979219,1,4.01827e-05,-1.07552e-05,1.39347e-05,0.00803653,-0.00215103,0.00278693,0.999413,-0.00330847,0.0340921,0.00022805,0.0859697,0.526509,-0.985143,33.8125,1,17329,8404279
46,1,0.999413,-0.00327963,0.0340856,0.000236307,-0.67798,-0.079963,9.78349,0.0417517,-0.530446,0.987997,-0.00678103,-0.000805405,0.0978348,1,2.88562e-05,-6.36281e-06,9.50118e-06,0.00577124,-0.00127256,0.00190024,0.999413,-0.00327963,0.0340856,0.000236307,0.0860191,0.526473,-0.983124,33.8125,1,17330,8404379
46,2,0.999413,-0.00327963,0.0340856,0.000236307,-0.67798,-0.079963,9.78349,0.0417517,-0.530446,0.987997,-0.00678103,-0.000805405,0.0978348,1,2.88562e-05,-6.36281e-06,9.50118e-06,0.00577124,-0.00127256,0.00190024,0.999413,-0.00327963,0.0340856,0.000236307,0.0860191,0.526473,-0.983124,33.8125,1,17330,8404379
47,1,0.999413,-0.00327963,0.0340856,0.000236307,-0.67798,-0.079963,9.78349,0.0417517,-0.530446,0.987997,-0.00678103,-0.000805405,0.0978348,1,2.88562e-05,-6.36281e-06,9.50118e-06,0.00577124,-0.00127256,0.00190024,0.999413,-0.00327963,0.0340856,0.000236307,0.0860191,0.526473,-0.983124,33.8125,1,17330,8404379
47,2,0.999414,-0.00324477,0.0340734,0.000257025,-0.671447,-0.0799175,9.79565,0.0444208,-0.529136,0.999625,-0.00671679,-0.000806334,0.0979563,1,3.49917e-05,-1.20325e-05,2.262e-05,0.00699834,-0.0024065,0.00452399,0.999414,-0.00324477,0.0340734,0.000257025,0.0866235,0.526379,-0.978078,33.8125,1,17331,8404479
47,3,0.999414,-0.00324477,0.0340734,0.000257025,-0.671447,-0.0799175,9.79565,0.0444208,-0.529136,0.999625,-0.00671679,-0.000806334,0.0979563,1,3.49917e-05,-1.20325e-05,2.262e-05,0.00699834,-0.0024065,0.00452399,0.999414,-0.00324477,0.0340734,0.000257025,0.0866235,0.526379,-0.978078,33.8125,1,17331,8404479
47,4,0.999414,-0.00324477,0.0340734,0.000257025,-0.671447,-0.0799175,9.79565,0.0444208,-0.529136,0.999625,-0.00671679,-0.000806334,0.0979563,1,3.49917e-05,-1.20325e-05,2.262e-05,0.00699834,-0.0024065,0.00452399,0.999414,-0.00324477,0.0340734,0.000257025,0.0866235,0.526379,-0.978078,33.8125,1,17331,8404479
48,1,0.999414,-0.00321441,0.0340651,0.000270812,-0.669035,-0.091185,9.79079,0.0472736,-0.540147,0.990243,-0.00669196,-0.000918011,0.0979077,1,3.04225e-05,-8.31322e-06,1.52085e-05,0.00608451,-0.00166264,0.0030417,0.999414,-0.00321441,0.0340651,0.000270812,0.0856243,0.526414,-0.979588,33.8125,1,17332,8404579
48,2,0.999414,-0.00321441,0.0340651,0.000270812,-0.669035,-0.091185,9.79079,0.0472736,-0.540147,0.990243,-0.00669196,-0.000918011,0.0979077,1,3.04225e-05,-8.31322e-06,1.52085e-05,0.00608451,-0.00166264,0.0030417,0.999414,-0.00321441,0.0340651,0.000270812,0.0856243,0.526414,-0.979588,33.8125,1,17332,8404579
48,3,0.999414,-0.00321441,0.0340651,0.000270812,-0.669035,-0.091185,9.79079,0.0472736,-0.540147,0.990243,-0.00669196,-0.000918011,0.0979077,1,3.04225e-05,-8.31322e-06,1.52085e-05,0.00608451,-0.00166264,0.0030417,0.999414,-0.00321441,0.0340651,0.000270812,0.0856243,0.526414,-0.979588,33.8125,1,17332,8404579
48,4,0.999415,-0.00316052,0.0340581,0.000284535,-0.664988,-0.0840704,9.78879,0.0520201,-0.537162,0.987583,-0.00665121,-0.000851472,0.0978878,1,5.39106e-05,-6.95524e-06,1.60483e-05,0.0107821,-0.00139105,0.00320965,0.999415,-0.00316052,0.0340581,0.000284535,0.0865092,0.528872,-0.981053,33.8125,1,17333,8404679
48,5,0.999415,-0.00316052,0.0340581,0.000284535,-0.664988,-0.0840704,9.78879,0.0520201,-0.537162,0.987583,-0.00665121,-0.000851472,0.0978878,1,5.39106e-05,-6.95524e-06,1.60483e-05,0.0107821,-0.00139105,0.00320965,0.999415,-0.00316052,0.0340581,0.000284535,0.0865092,0.528872,-0.981053,33.8125,1,17333,8404679
48,6,0.999415,-0.00316052,0.0340581,0.000284535,-0.664988,-0.0840704,9.78879,0.0520201,-0.537162,0.987583,-0.00665121,-0.000851472,0.0978878,1,5.39106e-05,-6.95524e-06,1.60483e-05,0.0107821,-0.00139105,0.00320965,0.999415,-0.00316052,0.0340581,0.000284535,0.0865092,0.528872,-0.981053,33.8125,1,17333,8404679
49,1,0.999415,-0.00312189,0.0340559,0.000310008,-0.66789,-0.0709021,9.78926,0.0511373,-0.524482,0.988482,-0.00667932,-0.000716913,0.0978925,1,3.8486e-05,-2.33965e-06,2.67569e-05,0.0076972,-0.00046793,0.00535137,0.999415,-0.00312189,0.0340559,0.000310008,0.0879198,0.529366,-0.982058,33.8125,1,17334,8404779
49,2,0.999415,-0.00312189,0.0340559,0.000310008,-0.66789,-0.0709021,9.78926,0.0511373,-0.524482,0.988482,-0.00667932,-0.000716913,0.0978925,1,3.8486e-05,-2.33965e-06,2.67569e-05,0.0076972,-0.00046793,0.00535137,0.999415,-0.00312189,0.0340559,0.000310008,0.0879198,0.529366,-0.982058,33.8125,1,17334,8404779
50,1,0.999415,-0.00312189,0.0340559,0.000310008,-0.66789,-0.0709021,9.78926,0.0511373,-0.524482,0.988482,-0.00667932,-0.000716913,0.0978925,1,3.8486e-05,-2.33965e-06,2.67569e-05,0.0076972,-0.00046793,0.00535137,0.999415,-0.00312189,0.0340559,0.000310008,0.0879198,0.529366,-0.982058,33.8125,1,17334,8404779
50,2,0.999416,-0.00309778,0.0340353,0.000314765,-0.666649,-0.0775697,9.7892,0.0513246,-0.539693,0.985694,-0.00667053,-0.000780549,0.0978917,1,2.4395e-05,-2.06793e-05,5.65485e-06,0.004879,-0.00413585,0.00113097,0.999416,-0.00309778,0.0340353,0.000314765,0.087014,0.52596,-0.98213,33.8125,1,17335,8404879
51,1,0.999416,-0.00309778,0.0340353,0.000314765,-0.666649,-0.0775697,9.7892,0.0513246,-0.539693,0.985694,-0.00667053,-0.000780549,0.0978917,1,2.4395e-05,-2.06793e-05,5.65485e-06,0.004879,-0.00413585,0.00113097,0.999416,-0.00309778,0.0340353,0.000314765,0.087014,0.52596,-0.98213,33.8125,1,17335,8404879
51,2,0.999416,-0.00309778,0.0340353,0.000314765,-0.666649,-0.0775697,9.7892,0.0513246,-0.539693,0.985694,-0.00667053,-0.000780549,0.0978917,1,2.4395e-05,-2.06793e-05,5.65485e-06,0.004879,-0.00413585,0.00113097,0.999416,-0.00309778,0.0340353,0.000314765,0.087014,0.52596,-0.98213,33.8125,1,17335,8404879
51,3,0.999417,-0.00304736,0.0340165,0.000314261,-0.670061,-0.077607,9.7838,0.0412155,-0.535608,0.982075,-0.0067043,-0.000786175,0.0978377,1,5.15581e-05,-1.8861e-05,1.24766e-06,0.0103116,-0.0037722,0.000249532,0.999417,-0.00304736,0.0340165,0.000314261,0.084645,0.524507,-0.981646,33.8125,1,17336,8404979
51,4,0.999417,-0.00304736,0.0340165,0.000314261,-0.670061,-0.077607,9.7838,0.0412155,-0.535608,0.982075,-0.0067043,-0.000786175,0.0978377,1,5.15581e-05,-1.8861e-05,1.24766e-06,0.0103116,-0.0037722,0.000249532,0.999417,-0.00304736,0.0340165,0.000314261,0.084645,0.524507,-0.981646,33.8125,1,17336,8404979
52,1,0.999417,-0.00304736,0.0340165,0.000314261,-0.670061,-0.077607,9.7838,0.0412155,-0.535608,0.982075,-0.0067043,-0.000786175,0.0978377,1,5.15581e-05,-1.8861e-05,1.24766e-06,0.0103116,-0.0037722,0.000249532,0.999417,-0.00304736,0.0340165,0.000314261,0.084645,0.524507,-0.981646,33.8125,1,17336,8404979
52,2,0.999417,-0.00298334,0.0340043,0.000336413,-0.674593,-0.0751418,9.79199,0.0427168,-0.528686,0.992901,-0.00674831,-0.00076437,0.0979196,1,6.44529e-05,-1.23293e-05,2.43992e-05,0.0128906,-0.00246585,0.00487983,0.999417,-0.00298334,0.0340043,0.000336413,0.085184,0.525425,-0.978598,33.8125,1,17337,8405079
52,3,0.999417,-0.00298334,0.0340043,0.000336413,-0.674593,-0.0751418,9.79199,0.0427168,-0.528686,0.992901,-0.00674831,-0.00076437,0.0979196,1,6.44529e-05,-1.23293e-05,2.43992e-05,0.0128906,-0.00246585,0.00487983,0.999417,-0.00298334,0.0340043,0.000336413,0.085184,0.525425,-0.978598,33.8125,1,17337,8405079
52,4,0.999417,-0.00298334,0.0340043,0.000336413,-0.674593,-0.0751418,9.79199,0.0427168,-0.528686,0.992901,-0.00674831,-0.00076437,0.0979196,1,6.44529e-05,-1.23293e-05,2.43992e-05,0.0128906,-0.00246585,0.00487983,0.999417,-0.00298334,0.0340043,0.000336413,0.085184,0.525425,-0.978598,33.8125,1,17337,8405079
53,1,0.999417,-0.0029454,0.0340059,0.000343065,-0.664165,-0.0827668,9.782,0.0532846,-0.537804,0.985209,-0.00664135,-0.000835171,0.09782,1,3.78229e-05,1.46597e-06,7.74117e-06,0.00756457,0.000293193,0.00154823,0.999417,-0.0029454,0.0340059,0.000343065,0.0861097,0.526889,-0.979075,33.8125,1,17338,8405179
53,2,0.999417,-0.0029454,0.0340059,0.000343065,-0.664165,-0.0827668,9.782,0.0532846,-0.537804,0.985209,-0.00664135,-0.000835171,0.09782,1,3.78229e-05,1.46597e-06,7.74117e-06,0.00756457,0.000293193,0.00154823,0.999417,-0.0029454,0.0340059,0.000343065,0.0861097,0.526889,-0.979075,33.8125,1,17338,8405179
53,3,0.999417,-0.0029454,0.0340059,0.000343065,-0.664165,-0.0827668,9.782,0.0532846,-0.537804,0.985209,-0.00664135,-0.000835171,0.09782,1,3.78229e-05,1.46597e-06,7.74117e-06,0.00756457,0.000293193,0.00154823,0.999417,-0.0029454,0.0340059,0.000343065,0.0861097,0.526889,-0.979075,33.8125,1,17338,8405179
53,4,0.999418,-0.00291202,0.0339927,0.000351799,-0.677883,-0.0891079,9.78714,0.0371518,-0.543815,0.984435,-0.00678141,-0.000897926,0.0978712,1,3.42969e-05,-1.32788e-05,9.85721e-06,0.00685938,-0.00265575,0.00197144,0.999418,-0.00291202,0.0339927,0.000351799,0.0870022,0.527414,-0.981592,33.8125,1,17339,8405279
54,1,0.999418,-0.00291202,0.0339927,0.000351799,-0.677883,-0.0891079,9.78714,0.0371518,-0.543815,0.984435,-0.00678141,-0.000897926,0.0978712,1,3.42969e-05,-1.32788e-05,9.85721e-06,0.00685938,-0.00265575,0.00197144,0.999418,-0.00291202,0.0339927,0.000351799,0.0870022,0.527414,-0.981592,33.8125,1,17339,8405279
54,2,0.999418,-0.00291202,0.0339927,0.000351799,-0.677883,-0.0891079,9.78714,0.0371518,-0.543815,0.984435,-0.00678141,-0.000897926,0.0978712,1,3.42969e-05,-1.32788e-05,9.85721e-06,0.00685938,-0.00265575,0.00197144,0.999418,-0.00291202,0.0339927,0.000351799,0.0870022,0.527414,-0.981592,33.8125,1,17339,8405279
55,1,0.999418,-0.00285529,0.0339814,0.000360595,-0.678024,-0.0820305,9.7838,0.0393535,-0.544896,0.984019,-0.00678244,-0.000831669,0.0978378,1,5.73135e-05,-1.13493e-05,1.10236e-05,0.0114627,-0.00226985,0.00220471,0.999418,-0.00285529,0.0339814,0.000360595,0.0869201,0.527956,-0.98461,33.8125,1,17340,8405379
55,2,0.999418,-0.00285529,0.0339814,0.000360595,-0.678024,-0.0820305,9.7838,0.0393535,-0.544896,0.984019,-0.00678244,-0.000831669,0.0978378,1,5.73135e-05,-1.13493e-05,1.10236e-05,0.0114627,-0.00226985,0.00220471,0.999418,-0.00285529,0.0339814,0.000360595,0.0869201,0.527956,-0.98461,33.8125,1,17340,8405379
55,3,0.999418,-0.00285529,0.0339814,0.000360595,-0.678024,-0.0820305,9.7838,0.0393535,-0.544896,0.984019,-0.00678244,-0.000831669,0.0978378,1,5.73135e-05,-1.13493e-05,1.10236e-05,0.0114627,-0.00226985,0.00220471,0.999418,-0.00285529,0.0339814,0.000360595,0.0869201,0.527956,-0.98461,33.8125,1,17340,8405379
55,4,0.999419,-0.00280333,0.0339712,0.000382664,-0.66572,-0.0742491,9.79634,0.0523079,-0.534028,0.997985,-0.00665921,-0.000753098,0.0979632,1,5.24837e-05,-1.04757e-05,2.42889e-05,0.0104967,-0.00209514,0.00485778,0.999419,-0.00280333,0.0339712,0.000382664,0.0869566,0.526483,-0.984138,33.8125,1,17341,8405479
56,1,0.999419,-0.00280333,0.0339712,0.000382664,-0.66572,-0.0742491,9.79634,0.0523079,-0.534028,0.997985,-0.00665921,-0.000753098,0.0979632,1,5.24837e-05,-1.04757e-05,2.42889e-05,0.0104967,-0.00209514,0.00485778,0.999419,-0.00280333,0.0339712,0.000382664,0.0869566,0.526483,-0.984138,33.8125,1,17341,8405479
56,2,0.999419,-0.00280333,0.0339712,0.000382664,-0.66572,-0.0742491,9.79634,0.0523079,-0.534028,0.997985,-0.00665921,-0.000753098,0.0979632,1,5.24837e-05,-1.04757e-05,2.42889e-05,0.0104967,-0.00209514,0.00485778,0.999419,-0.00280333,0.0339712,0.000382664,0.0869566,0.526483,-0.984138,33.8125,1,17341,8405479
57,1,0.999419,-0.00277183,0.0339681,0.000388667,-0.648922,-0.0682711,9.78338,0.0644793,-0.527992,0.985033,-0.00648985,-0.000689161,0.0978337,1,3.24846e-05,-3.26141e-06,7.21223e-06,0.00649691,-0.000652282,0.00144245,0.999419,-0.00277183,0.0339681,0.000388667,0.0865206,0.525973,-0.982632,33.8125,1,17342,8405579
57,2,0.999419,-0.00277183,0.0339681,0.000388667,-0.648922,-0.0682711,9.78338,0.0644793,-0.527992,0.985033,-0.00648985,-0.000689161,0.0978337,1,3.24846e-05,-3.26141e-06,7.21223e-06,0.00649691,-0.000652282,0.00144245,0.999419,-0.00277183,0.0339681,0.000388667,0.0865206,0.525973,-0.982632,33.8125,1,17342,8405579
57,3,0.999419,-0.00277183,0.0339681,0.000388667,-0.648922,-0.0682711,9.78338,0.0644793,-0.527992,0.985033,-0.00648985,-0.000689161,0.0978337,1,3.24846e-05,-3.26141e-06,7.21223e-06,0.00649691,-0.000652282,0.00144245,0.999419,-0.00277183,0.0339681,0.000388667,0.0865206,0.525973,-0.982632,33.8125,1,17342,8405579
57,4,0.999419,-0.00272558,0.0339639,0.000400772,-0.670954,-0.0769195,9.79025,0.0451656,-0.539384,0.9924,-0.00671033,-0.000778481,0.0979023,1,4.64543e-05,-4.15726e-06,1.41285e-05,0.00929085,-0.000831451,0.00282571,0.999419,-0.00272558,0.0339639,0.000400772,0.0865742,0.526415,-0.980097,33.8125,1,17343,8405679
58,1,0.999419,-0.00272558,0.0339639,0.000400772,-0.670954,-0.0769195,9.79025,0.0451656,-0.539384,0.9924,-0.00671033,-0.000778481,0.0979023,1,4.64543e-05,-4.15726e-06,1.41285e-05,0.00929085,-0.000831451,0.00282571,0.999419,-0.00272558,0.0339639,0.000400772,0.0865742,0.526415,-0.980097,33.8125,1,17343,8405679
58,2,0.999419,-0.00272558,0.0339639,0.000400772,-0.670954,-0.0769195,9.79025,0.0451656,-0.539384,0.9924,-0.00671033,-0.000778481,0.0979023,1,4.64543e-05,-4.15726e-06,1.41285e-05,0.00929085,-0.000831451,0.00282571,0.999419,-0.00272558,0.0339639,0.000400772,0.0865742,0.526415,-0.980097,33.8125,1,17343,8405679
58,3,0.99942,-0.00268258,0.0339567,0.000409644,-0.672106,-0.0846373,9.79358,0.0421974,-0.546702,0.990207,-0.00672248,-0.000855218,0.0979357,1,4.44073e-05,-7.3129e-06,1.09243e-05,0.00888147,-0.00146258,0.00218486,0.99942,-0.00268258,0.0339567,0.000409644,0.0866031,0.526876,-0.978572,33.8125,1,17344,8405779
58,4,0.99942,-0.00268258,0.0339567,0.000409644,-0.672106,-0.0846373,9.79358,0.0421974,-0.546702,0.990207,-0.00672248,-0.000855218,0.0979357,1,4.44073e-05,-7.3129e-06,1.09243e-05,0.00888147,-0.00146258,0.00218486,0.99942,-0.00268258,0.0339567,0.000409644,0.0866031,0.526876,-0.978572,33.8125,1,17344,8405779
58,5,0.99942,-0.00268258,0.0339567,0.000409644,-0.672106,-0.0846373,9.79358,0.0421974,-0.546702,0.990207,-0.00672248,-0.000855218,0.0979357,1,4.44073e-05,-7.3129e-06,1.09243e-05,0.00888147,-0.00146258,0.00218486,0.99942,-0.00268258,0.0339567,0.000409644,0.0866031,0.526876,-0.978572,33.8125,1,17344,8405779
58,6,0.99942,-0.0026355,0.033946,0.000426734,-0.697667,-0.106832,9.80951,0.0172325,-0.572865,1.01503,-0.00697875,-0.00107796,0.0980949,1,4.77358e-05,-1.08072e-05,1.94144e-05,0.00954717,-0.00216144,0.00388288,0.99942,-0.0026355,0.033946,0.000426734,0.0879853,0.528354,-0.980061,33.8125,1,17345,8405879
59,1,0.99942,-0.0026355,0.033946,0.000426734,-0.697667,-0.106832,9.80951,0.0172325,-0.572865,1.01503,-0.00697875,-0.00107796,0.0980949,1,4.77358e-05,-1.08072e-05,1.94144e-05,0.00954717,-0.00216144,0.00388288,0.99942,-0.0026355,0.033946,0.000426734,0.0879853,0.528354,-0.980061,33.8125,1,17345,8405879
59,2,0.99942,-0.0026355,0.033946,0.000426734,-0.697667,-0.106832,9.80951,0.0172325,-0.572865,1.01503,-0.00697875,-0.00107796,0.0980949,1,4.77358e-05,-1.08072e-05,1.94144e-05,0.00954717,-0.00216144,0.00388288,0.99942,-0.0026355,0.033946,0.000426734,0.0879853,0.528354,-0.980061,33.8125,1,17345,8405879
59,3,0.999421,-0.00259769,0.0339321,0.000446473,-0.676634,-0.0804525,9.78619,0.036073,-0.544015,0.985566,-0.00676911,-0.000812466,0.0978616,1,3.91155e-05,-1.43402e-05,2.1037e-05,0.0078231,-0.00286805,0.0042074,0.999421,-0.00259769,0.0339321,0.000446473,0.0873889,0.527961,-0.985117,33.8125,1,17346,8405979
59,4,0.999421,-0.00259769,0.0339321,0.000446473,-0.676634,-0.0804525,9.78619,0.036073,-0.544015,0.985566,-0.00676911,-0.000812466,0.0978616,1,3.91155e-05,-1.43402e-05,2.1037e-05,0.0078231,-0.00286805,0.0042074,0.999421,-0.00259769,0.0339321,0.000446473,0.0873889,0.527961,-0.985117,33.8125,1,17346,8405979
60,1,0.999421,-0.00259769,0.0339321,0.000446473,-0.676634,-0.0804525,9.78619,0.036073,-0.544015,0.985566,-0.00676911,-0.000812466,0.0978616,1,3.91155e-05,-1.43402e-05,2.1037e-05,0.0078231,-0.00286805,0.0042074,0.999421,-0.00259769,0.0339321,0.000446473,0.0873889,0.527961,-0.985117,33.8125,1,17346,8405979
60,2,0.999421,-0.00254747,0.0339128,0.00047289,-0.674666,-0.0887304,9.80035,0.0373264,-0.556555,1.00013,-0.00675042,-0.00089764,0.0980032,1,5.07439e-05,-1.94781e-05,2.88934e-05,0.0101488,-0.00389561,0.00577867,0.999421,-0.00254747,0.0339128,0.00047289,0.0854677,0.525565,-0.986677,33.8125,1,17347,8406079
61,1,0.999421,-0.00254747,0.0339128,0.00047289,-0.674666,-0.0887304,9.80035,0.0373264,-0.556555,1.00013,-0.00675042,-0.00089764,0.0980032,1,5.07439e-05,-1.94781e-05,2.88934e-05,0.0101488,-0.00389561,0.00577867,0.999421,-0.00254747,0.0339128,0.00047289,0.0854677,0.525565,-0.986677,33.8125,1,17347,8406079
61,2,0.999421,-0.00254747,0.0339128,0.00047289,-0.674666,-0.0887304,9.80035,0.0373264,-0.556555,1.00013,-0.00675042,-0.00089764,0.0980032,1,5.07439e-05,-1.94781e-05,2.88934e-05,0.0101488,-0.00389561,0.00577867,0.999421,-0.00254747,0.0339128,0.00047289,0.0854677,0.525565,-0.986677,33.8125,1,17347,8406079
61,3,0.999422,-0.00250587,0.0338965,0.000487529,-0.661982,-0.0739459,9.79056,0.0505636,-0.546088,0.992833,-0.00662312,-0.000748223,0.0979053,1,4.36157e-05,-1.69687e-05,1.69036e-05,0.00872313,-0.00339375,0.00338072,0.999422,-0.00250587,0.0338965,0.000487529,0.0841188,0.525026,-0.983147,33.8125,1,17348,8406179
61,4,0.999422,-0.00250587,0.0338965,0.000487529,-0.661982,-0.0739459,9.79056,0.0505636,-0.546088,0.992833,-0.00662312,-0.000748223,0.0979053,1,4.36157e-05,-1.69687e-05,1.69036e-05,0.00872313,-0.00339375,0.00338072,0.999422,-0.00250587,0.0338965,0.000487529,0.0841188,0.525026,-0.983147,33.8125,1,17348,8406179
61,5,0.999422,-0.00250587,0.0338965,0.000487529,-0.661982,-0.0739459,9.79056,0.0505636,-0.546088,0.992833,-0.00662312,-0.000748223,0.0979053,1,4.36157e-05,-1.69687e-05,1.69036e-05,0.00872313,-0.00339375,0.00338072,0.999422,-0.00250587,0.0338965,0.000487529,0.0841188,0.525026,-0.983147,33.8125,1,17348,8406179
61,6,0.999423,-0.0024574,0.0338793,0.000499813,-0.669097,-0.0790587,9.7926,0.0501428,-0.547277,0.997605,-0.00669437,-0.000800662,0.0979256,1,5.04533e-05,-1.74791e-05,1.4432e-05,0.0100907,-0.00349582,0.00288641,0.999423,-0.0024574,0.0338793,0.000499813,0.0856898,0.525403,-0.977591,33.8125,1,17349,8406279
62,1,0.999423,-0.0024574,0.0338793,0.000499813,-0.669097,-0.0790587,9.7926,0.0501428,-0.547277,0.997605,-0.00669437,-0.000800662,0.0979256,1,5.04533e-05,-1.74791e-05,1.4432e-05,0.0100907,-0.00349582,0.00288641,0.999423,-0.0024574,0.0338793,0.000499813,0.0856898,0.525403,-0.977591,33.8125,1,17349,8406279
62,2,0.999423,-0.0024574,0.0338793,0.000499813,-0.669097,-0.0790587,9.7926,0.0501428,-0.547277,0.997605,-0.00669437,-0.000800662,0.0979256,1,5.04533e-05,-1.74791e-05,1.4432e-05,0.0100907,-0.00349582,0.00288641,0.999423,-0.0024574,0.0338793,0.000499813,0.0856898,0.525403,-0.977591,33.8125,1,17349,8406279
62,3,0.999423,-0.00242835,0.0338692,0.000527983,-0.669435,-0.081599,9.78918,0.0437524,-0.55245,0.990353,-0.00669638,-0.000822339,0.0978916,1,3.03891e-05,-1.05742e-05,2.9834e-05,0.00607781,-0.00211485,0.00596679,0.999423,-0.00242835,0.0338692,0.000527983,0.0866401,0.526849,-0.977058,33.8125,1,17350,8406379
62,4,0.999423,-0.00242835,0.0338692,0.000527983,-0.669435,-0.081599,9.78918,0.0437524,-0.55245,0.990353,-0.00669638,-0.000822339,0.0978916,1,3.03891e-05,-1.05742e-05,2.9834e-05,0.00607781,-0.00211485,0.00596679,0.999423,-0.00242835,0.0338692,0.000527983,0.0866401,0.526849,-0.977058,33.8125,1,17350,8406379
63,1,0.999423,-0.00242835,0.0338692,0.000527983,-0.669435,-0.081599,9.78918,0.0437524,-0.55245,0.990353,-0.00669638,-0.000822339,0.0978916,1,3.03891e-05,-1.05742e-05,2.9834e-05,0.00607781,-0.00211485,0.00596679,0.999423,-0.00242835,0.0338692,0.000527983,0.0866401,0.526849,-0.977058,33.8125,1,17350,8406379
63,2,0.999424,-0.00239426,0.033859,0.000544536,-0.674543,-0.0867299,9.79155,0.0350682,-0.555488,0.987185,-0.00674751,-0.0008746,0.0979152,1,3.60216e-05,-1.07959e-05,1.82933e-05,0.00720432,-0.00215918,0.00365865,0.999424,-0.00239426,0.033859,0.000544536,0.0889679,0.52785,-0.979572,33.8125,1,17351,8406479
64,1,0.999424,-0.00239426,0.033859,0.000544536,-0.674543,-0.0867299,9.79155,0.0350682,-0.555488,0.987185,-0.00674751,-0.0008746,0.0979152,1,3.60216e-05,-1.07959e-05,1.82933e-05,0.00720432,-0.00215918,0.00365865,0.999424,-0.00239426,0.033859,0.000544536,0.0889679,0.52785,-0.979572,33.8125,1,17351,8406479
64,2,0.999424,-0.00239426,0.033859,0.000544536,-0.674543,-0.0867299,9.79155,0.0350682,-0.555488,0.987185,-0.00674751,-0.0008746,0.0979152,1,3.60216e-05,-1.07959e-05,1.82933e-05,0.00720432,-0.00215918,0.00365865,0.999424,-0.00239426,0.033859,0.000544536,0.0889679,0.52785,-0.979572,33.8125,1,17351,8406479
64,3,0.999424,-0.00235553,0.0338472,0.000546185,-0.667325,-0.0817536,9.79189,0.0467071,-0.555689,0.985348,-0.00667574,-0.000825746,0.0979186,1,4.16264e-05,-1.27108e-05,4.33993e-06,0.00832528,-0.00254215,0.000867986,0.999424,-0.00235553,0.0338472,0.000546185,0.0873974,0.528918,-0.984086,33.8125,1,17352,8406579
64,4,0.999424,-0.00235553,0.0338472,0.000546185,-0.667325,-0.0817536,9.79189,0.0467071,-0.555689,0.985348,-0.00667574,-0.000825746,0.0979186,1,4.16264e-05,-1.27108e-05,4.33993e-06,0.00832528,-0.00254215,0.000867986,0.999424,-0.00235553,0.0338472,0.000546185,0.0873974,0.528918,-0.984086,33.8125,1,17352,8406579
65,1,0.999424,-0.00235553,0.0338472,0.000546185,-0.667325,-0.0817536,9.79189,0.0467071,-0.555689,0.985348,-0.00667574,-0.000825746,0.0979186,1,4.16264e-05,-1.27108e-05,4.33993e-06,0.00832528,-0.00254215,0.000867986,0.999424,-0.00235553,0.0338472,0.000546185,0.0873974,0.528918,-0.984086,33.8125,1,17352,8406579
65,2,0.999425,-0.00231002,0.0338212,0.000553212,-0.66428,-0.0786143,9.78782,0.045339,-0.550116,0.986035,-0.00664795,-0.000795808,0.0978778,1,4.87376e-05,-2.63644e-05,9.38981e-06,0.00974752,-0.00527287,0.00187796,0.999425,-0.00231002,0.0338212,0.000553212,0.084506,0.527018,-0.98563,33.8125,1,17353,8406679
66,1,0.999425,-0.00231002,0.0338212,0.000553212,-0.66428,-0.0786143,9.78782,0.045339,-0.550116,0.986035,-0.00664795,-0.000795808,0.0978778,1,4.87376e-05,-2.63644e-05,9.38981e-06,0.00974752,-0.00527287,0.00187796,0.999425,-0.00231002,0.0338212,0.000553212,0.084506,0.527018,-0.98563,33.8125,1,17353,8406679
66,2,0.999425,-0.00231002,0.0338212,0.000553212,-0.66428,-0.0786143,9.78782,0.045339,-0.550116,0.986035,-0.00664795,-0.000795808,0.0978778,1,4.87376e-05,-2.63644e-05,9.38981e-06,0.00974752,-0.00527287,0.00187796,0.999425,-0.00231002,0.0338212,0.000553212,0.084506,0.527018,-0.98563,33.8125,1,17353,8406679
66,3,0.999425,-0.00227866,0.0338157,0.000569899,-0.678033,-0.0809842,9.78822,0.0368328,-0.55514,0.988133,-0.00678151,-0.000816748,0.0978821,1,3.40249e-05,-6.18954e-06,1.809e-05,0.00680498,-0.00123791,0.00361801,0.999425,-0.00227866,0.0338157,0.000569899,0.0841843,0.524014,-0.98115,33.8125,1,17354,8406779
66,4,0.999425,-0.00227866,0.0338157,0.000569899,-0.678033,-0.0809842,9.78822,0.0368328,-0.55514,0.988133,-0.00678151,-0.000816748,0.0978821,1,3.40249e-05,-6.18954e-06,1.809e-05,0.00680498,-0.00123791,0.00361801,0.999425,-0.00227866,0.0338157,0.000569899,0.0841843,0.524014,-0.98115,33.8125,1,17354,8406779
67,1,0.999425,-0.00227866,0.0338157,0.000569899,-0.678033,-0.0809842,9.78822,0.0368328,-0.55514,0.988133,-0.00678151,-0.000816748,0.0978821,1,3.40249e-05,-6.18954e-06,1.809e-05,0.00680498,-0.00123791,0.00361801,0.999425,-0.00227866,0.0338157,0.000569899,0.0841843,0.524014,-0.98115,33.8125,1,17354,8406779
67,2,0.999426,-0.0022324,0.0337964,0.000576133,-0.67095,-0.0841985,9.79698,0.0424699,-0.559007,1.00069,-0.0067134,-0.000851629,0.0979695,1,4.86782e-05,-1.99753e-05,7.87528e-06,0.00973564,-0.00399506,0.00157506,0.999426,-0.0022324,0.0337964,0.000576133,0.0852248,0.524431,-0.97761,33.8125,1,17355,8406879
68,1,0.999426,-0.0022324,0.0337964,0.000576133,-0.67095,-0.0841985,9.79698,0.0424699,-0.559007,1.00069,-0.0067134,-0.000851629,0.0979695,1,4.86782e-05,-1.99753e-05,7.87528e-06,0.00973564,-0.00399506,0.00157506,0.999426,-0.0022324,0.0337964,0.000576133,0.0852248,0.524431,-0.97761,33.8125,1,17355,8406879
68,2,0.999426,-0.0022324,0.0337964,0.000576133,-0.67095,-0.0841985,9.79698,0.0424699,-0.559007,1.00069,-0.0067134,-0.000851629,0.0979695,1,4.86782e-05,-1.99753e-05,7.87528e-06,0.00973564,-0.00399506,0.00157506,0.999426,-0.0022324,0.0337964,0.000576133,0.0852248,0.524431,-0.97761,33.8125,1,17355,8406879
68,3,0.999426,-0.0021898,0.0337973,0.000593274,-0.679033,-0.0873277,9.78953,0.0335009,-0.563912,0.991415,-0.00679012,-0.000882178,0.0978952,1,4.41409e-05,8.96024e-07,1.90773e-05,0.00882819,0.000179205,0.00381545,0.999426,-0.0021898,0.0337973,0.000593274,0.0865951,0.527364,-0.978561,33.8125,1,17356,8406979
68,4,0.999426,-0.0021898,0.0337973,0.000593274,-0.679033,-0.0873277,9.78953,0.0335009,-0.563912,0.991415,-0.00679012,-0.000882178,0.0978952,1,4.41409e-05,8.96024e-07,1.90773e-05,0.00882819,0.000179205,0.00381545,0.999426,-0.0021898,0.0337973,0.000593274,0.0865951,0.527364,-0.978561,33.8125,1,17356,8406979
68,5,0.999426,-0.0021898,0.0337973,0.000593274,-0.679033,-0.0873277,9.78953,0.0335009,-0.563912,0.991415,-0.00679012,-0.000882178,0.0978952,1,4.41409e-05,8.96024e-07,1.90773e-05,0.00882819,0.000179205,0.00381545,0.999426,-0.0021898,0.0337973,0.000593274,0.0865951,0.527364,-0.978561,33.8125,1,17356,8406979
68,6,0.999426,-0.00214643,0.0337966,0.000609017,-0.673837,-0.0808233,9.79431,0.0414971,-0.554092,0.987979,-0.00673862,-0.000817538,0.097943,1,4.61174e-05,-1.44907e-06,2.01162e-05,0.00922348,-0.000289813,0.00402324,0.999426,-0.00214643,0.0337966,0.000609017,0.0889679,0.52785,-0.979572,33.8125,1,17357,8407079
69,1,0.999426,-0.00214643,0.0337966,0.000609017,-0.673837,-0.0808233,9.79431,0.0414971,-0.554092,0.987979,-0.00673862,-0.000817538,0.097943,1,4.61174e-05,-1.44907e-06,2.01162e-05,0.00922348,-0.000289813,0.00402324,0.999426,-0.00214643,0.0337966,0.000609017,0.0889679,0.52785,-0.979572,33.8125,1,17357,8407079
69,2,0.999426,-0.00214643,0.0337966,0.000609017,-0.673837,-0.0808233,9.79431,0.0414971,-0.554092,0.987979,-0.00673862,-0.000817538,0.097943,1,4.61174e-05,-1.44907e-06,2.01162e-05,0.00922348,-0.000289813,0.00402324,0.999426,-0.00214643,0.0337966,0.000609017,0.0889679,0.52785,-0.979572,33.8125,1,17357,8407079
69,3,0.999427,-0.00211111,0.0337708,0.000617785,-0.66069,-0.0822245,9.80337,0.0513416,-0.558596,1.00147,-0.00661214,-0.00083012,0.0980333,1,3.92793e-05,-2.68484e-05,1.31708e-05,0.00785586,-0.00536968,0.00263417,0.999427,-0.00211111,0.0337708,0.000617785,0.0884009,0.529362,-0.982061,33.8125,1,17358,8407179
69,4,0.999427,-0.00211111,0.0337708,0.000617785,-0.66069,-0.0822245,9.80337,0.0513416,-0.558596,1.00147,-0.00661214,-0.00083012,0.0980333,1,3.92793e-05,-2.68484e-05,1.31708e-05,0.00785586,-0.00536968,0.00263417,0.999427,-0.00211111,0.0337708,0.000617785,0.0884009,0.529362,-0.982061,33.8125,1,17358,8407179
70,1,0.999427,-0.00211111,0.0337708,0.000617785,-0.66069,-0.0822245,9.80337,0.0513416,-0.558596,1.00147,-0.00661214,-0.00083012,0.0980333,1,3.92793e-05,-2.68484e-05,1.31708e-05,0.00785586,-0.00536968,0.00263417,0.999427,-0.00211111,0.0337708,0.000617785,0.0884009,0.529362,-0.982061,33.8125,1,17358,8407179
70,2,0.999428,-0.0020837,0.033763,0.000644334,-0.67187,-0.080185,9.79124,0.0371789,-0.556608,0.98996,-0.00672027,-0.000808554,0.0979122,1,3.21622e-05,-8.29579e-06,3.01768e-05,0.00643245,-0.00165916,0.00603537,0.999428,-0.0020837,0.033763,0.000644334,0.086011,0.526961,-0.983113,33.8125,1,17359,8407279
71,1,0.999428,-0.0020837,0.033763,0.000644334,-0.67187,-0.080185,9.79124,0.0371789,-0.556608,0.98996,-0.00672027,-0.000808554,0.0979122,1,3.21622e-05,-8.29579e-06,3.01768e-05,0.00643245,-0.00165916,0.00603537,0.999428,-0.0020837,0.033763,0.000644334,0.086011,0.526961,-0.983113,33.8125,1,17359,8407279
71,2,0.999428,-0.0020837,0.033763,0.000644334,-0.67187,-0.080185,9.79124,0.0371789,-0.556608,0.98996,-0.00672027,-0.000808554,0.0979122,1,3.21622e-05,-8.29579e-06,3.01768e-05,0.00643245,-0.00165916,0.00603537,0.999428,-0.0020837,0.033763,0.000644334,0.086011,0.526961,-0.983113,33.8125,1,17359,8407279
71,3,0.999428,-0.00204801,0.0337587,0.000658943,-0.673428,-0.0917395,9.79387,0.0386427,-0.570329,0.989616,-0.00673515,-0.000925542,0.0979385,1,4.05424e-05,-4.61543e-06,1.52978e-05,0.00810848,-0.000923086,0.00305956,0.999428,-0.00204801,0.0337587,0.000658943,0.0841762,0.524502,-0.981139,33.8125,1,17360,8407379
71,4,0.999428,-0.00204801,0.0337587,0.000658943,-0.673428,-0.0917395,9.79387,0.0386427,-0.570329,0.989616,-0.00673515,-0.000925542,0.0979385,1,4.05424e-05,-4.61543e-06,1.52978e-05,0.00810848,-0.000923086,0.00305956,0.999428,-0.00204801,0.0337587,0.000658943,0.0841762,0.524502,-0.981139,33.8125,1,17360,8407379
72,1,0.999428,-0.00204801,0.0337587,0.000658943,-0.673428,-0.0917395,9.79387,0.0386427,-0.570329,0.989616,-0.00673515,-0.000925542,0.0979385,1,4.05424e-05,-4.61543e-06,1.52978e-05,0.00810848,-0.000923086,0.00305956,0.999428,-0.00204801,0.0337587,0.000658943,0.0841762,0.524502,-0.981139,33.8125,1,17360,8407379
72,2,0.999428,-0.00199955,0.0337637,0.000685914,-0.668808,-0.0870822,9.78268,0.0390531,-0.568398,0.981706,-0.00668714,-0.000881292,0.0978268,1,5.18227e-05,4.56165e-06,2.47317e-05,0.0103645,0.00091233,0.00494634,0.999428,-0.00199955,0.0337637,0.000685914,0.0837691,0.524452,-0.978108,33.8125,1,17361,8407479
72,3,0.999428,-0.00199955,0.0337637,0.000685914,-0.668808,-0.0870822,9.78268,0.0390531,-0.568398,0.981706,-0.00668714,-0.000881292,0.0978268,1,5.18227e-05,4.56165e-06,2.47317e-05,0.0103645,0.00091233,0.00494634,0.999428,-0.00199955,0.0337637,0.000685914,0.0837691,0.524452,-0.978108,33.8125,1,17361,8407479
72,4,0.999428,-0.00199955,0.0337637,0.000685914,-0.668808,-0.0870822,9.78268,0.0390531,-0.568398,0.981706,-0.00668714,-0.000881292,0.0978268,1,5.18227e-05,4.56165e-06,2.47317e-05,0.0103645,0.00091233,0.00494634,0.999428,-0.00199955,0.0337637,0.000685914,0.0837691,0.524452,-0.978108,33.8125,1,17361,8407479
73,1,0.999428,-0.00195849,0.0337554,0.000707138,-0.669128,-0.0777256,9.79057,0.0450986,-0.559354,0.988467,-0.00669289,-0.000785757,0.0979055,1,4.20344e-05,-8.42457e-06,2.01668e-05,0.00840688,-0.00168491,0.00403336,0.999428,-0.00195849,0.0337554,0.000707138,0.0851717,0.525434,-0.979103,33.8125,1,17362,8407579
73,2,0.999428,-0.00195849,0.0337554,0.000707138,-0.669128,-0.0777256,9.79057,0.0450986,-0.559354,0.988467,-0.00669289,-0.000785757,0.0979055,1,4.20344e-05,-8.42457e-06,2.01668e-05,0.00840688,-0.00168491,0.00403336,0.999428,-0.00195849,0.0337554,0.000707138,0.0851717,0.525434,-0.979103,33.8125,1,17362,8407579
73,3,0.999428,-0.00195849,0.0337554,0.000707138,-0.669128,-0.0777256,9.79057,0.0450986,-0.559354,0.988467,-0.00669289,-0.000785757,0.0979055,1,4.20344e-05,-8.42457e-06,2.01668e-05,0.00840688,-0.00168491,0.00403336,0.999428,-0.00195849,0.0337554,0.000707138,0.0851717,0.525434,-0.979103,33.8125,1,17362,8407579
73,4,0.999428,-0.00192951,0.0337508,0.000727636,-0.667136,-0.0835729,9.78745,0.0448627,-0.565988,0.984102,-0.0066721,-0.000842278,0.0978744,1,3.2017e-05,-3.96376e-06,2.11299e-05,0.00640339,-0.000792752,0.00422598,0.999428,-0.00192951,0.0337508,0.000727636,0.0884783,0.526896,-0.980601,33.8125,1,17363,8407679
74,1,0.999428,-0.00192951,0.0337508,0.000727636,-0.667136,-0.0835729,9.78745,0.0448627,-0.565988,0.984102,-0.0066721,-0.000842278,0.0978744,1,3.2017e-05,-3.96376e-06,2.11299e-05,0.00640339,-0.000792752,0.00422598,0.999428,-0.00192951,0.0337508,0.000727636,0.0884783,0.526896,-0.980601,33.8125,1,17363,8407679
74,2,0.999428,-0.00192951,0.0337508,0.000727636,-0.667136,-0.0835729,9.78745,0.0448627,-0.565988,0.984102,-0.0066721,-0.000842278,0.0978744,1,3.2017e-05,-3.96376e-06,2.11299e-05,0.00640339,-0.000792752,0.00422598,0.999428,-0.00192951,0.0337508,0.000727636,0.0884783,0.526896,-0.980601,33.8125,1,17363,8407679
74,3,0.999429,-0.00188243,0.033738,0.000733732,-0.668768,-0.0833215,9.78068,0.0398863,-0.564547,0.977088,-0.00669033,-0.00084362,0.0978066,1,5.26067e-05,-1.3644e-05,8.55891e-06,0.0105213,-0.0027288,0.00171178,0.999429,-0.00188243,0.033738,0.000733732,0.0894035,0.526915,-0.98212,33.8125,1,17364,8407779
74,4,0.999429,-0.00188243,0.033738,0.000733732,-0.668768,-0.0833215,9.78068,0.0398863,-0.564547,0.977088,-0.00669033,-0.00084362,0.0978066,1,5.26067e-05,-1.3644e-05,8.55891e-06,0.0105213,-0.0027288,0.00171178,0.999429,-0.00188243,0.033738,0.000733732,0.0894035,0.526915,-0.98212,33.8125,1,17364,8407779
75,1,0.999429,-0.00188243,0.033738,0.000733732,-0.668768,-0.0833215,9.78068,0.0398863,-0.564547,0.977088,-0.00669033,-0.00084362,0.0978066,1,5.26067e-05,-1.3644e-05,8.55891e-06,0.0105213,-0.0027288,0.00171178,0.999429,-0.00188243,0.033738,0.000733732,0.0894035,0.526915,-0.98212,33.8125,1,17364,8407779
75,2,0.999429,-0.00185419,0.0337363,0.000733474,-0.670066,-0.0891725,9.79455,0.0444157,-0.572032,0.992161,-0.00670122,-0.000898748,0.0979454,1,3.52059e-05,-2.92819e-06,9.42112e-06,0.00704117,-0.000585638,0.00188422,0.999429,-0.00185419,0.0337363,0.000733474,0.0879924,0.524976,-0.982156,33.8125,1,17365,8407879
76,1,0.999429,-0.00185419,0.0337363,0.000733474,-0.670066,-0.0891725,9.79455,0.0444157,-0.572032,0.992161,-0.00670122,-0.000898748,0.0979454,1,3.52059e-05,-2.92819e-06,9.42112e-06,0.00704117,-0.000585638,0.00188422,0.999429,-0.00185419,0.0337363,0.000733474,0.0879924,0.524976,-0.982156,33.8125,1,17365,8407879
76,2,0.999429,-0.0018223,0.0337345,0.000741605,-0.670518,-0.0800793,9.78988,0.03555,-0.568022,0.989453,-0.00670568,-0.000808499,0.0978987,1,3.84637e-05,-2.66541e-06,1.30142e-05,0.00769273,-0.000533081,0.00260284,0.999429,-0.0018223,0.0337345,0.000741605,0.0856442,0.524472,-0.980136,33.8125,1,17366,8407979
77,1,0.999429,-0.0018223,0.0337345,0.000741605,-0.670518,-0.0800793,9.78988,0.03555,-0.568022,0.989453,-0.00670568,-0.000808499,0.0978987,1,3.84637e-05,-2.66541e-06,1.30142e-05,0.00769273,-0.000533081,0.00260284,0.999429,-0.0018223,0.0337345,0.000741605,0.0856442,0.524472,-0.980136,33.8125,1,17366,8407979
77,2,0.999429,-0.0018223,0.0337345,0.000741605,-0.670518,-0.0800793,9.78988,0.03555,-0.568022,0.989453,-0.00670568,-0.000808499,0.0978987,1,3.84637e-05,-2.66541e-06,1.30142e-05,0.00769273,-0.000533081,0.00260284,0.999429,-0.0018223,0.0337345,0.000741605,0.0856442,0.524472,-0.980136,33.8125,1,17366,8407979
78,1,0.999429,-0.00178461,0.0337279,0.000755977,-0.666388,-0.0889811,9.78638,0.0459856,-0.577747,0.98578,-0.00666536,-0.000898067,0.0978637,1,4.11756e-05,-7.68155e-06,1.47728e-05,0.00823512,-0.00153631,0.00295455,0.999429,-0.00178461,0.0337279,0.000755977,0.0862074,0.523926,-0.977121,33.8125,1,17367,8408079
78,2,0.999429,-0.00178461,0.0337279,0.000755977,-0.666388,-0.0889811,9.78638,0.0459856,-0.577747,0.98578,-0.00666536,-0.000898067,0.0978637,1,4.11756e-05,-7.68155e-06,1.47728e-05,0.00823512,-0.00153631,0.00295455,0.999429,-0.00178461,0.0337279,0.000755977,0.0862074,0.523926,-0.977121,33.8125,1,17367,8408079
79,1,0.999429,-0.00178461,0.0337279,0.000755977,-0.666388,-0.0889811,9.78638,0.0459856,-0.577747,0.98578,-0.00666536,-0.000898067,0.0978637,1,4.11756e-05,-7.68155e-06,1.47728e-05,0.00823512,-0.00153631,0.00295455,0.999429,-0.00178461,0.0337279,0.000755977,0.0862074,0.523926,-0.977121,33.8125,1,17367,8408079
79,2,0.999429,-0.00173495,0.0337246,0.000758975,-0.667609,-0.0792923,9.77968,0.0418403,-0.562836,0.972338,-0.00667669,-0.000802571,0.0977967,1,4.89876e-05,-3.13667e-06,4.9716e-06,0.00979751,-0.000627334,0.000994321,0.999429,-0.00173495,0.0337246,0.000758975,0.0876019,0.525396,-0.978105,33.8125,1,17368,8408179
80,1,0.999429,-0.00173495,0.0337246,0.000758975,-0.667609,-0.0792923,9.77968,0.0418403,-0.562836,0.972338,-0.00667669,-0.000802571,0.0977967,1,4.89876e-05,-3.13667e-06,4.9716e-06,0.00979751,-0.000627334,0.000994321,0.999429,-0.00173495,0.0337246,0.000758975,0.0876019,0.525396,-0.978105,33.8125,1,17368,8408179
80,2,0.999429,-0.00173495,0.0337246,0.000758975,-0.667609,-0.0792923,9.77968,0.0418403,-0.562836,0.972338,-0.00667669,-0.000802571,0.0977967,1,4.89876e-05,-3.13667e-06,4.9716e-06,0.00979751,-0.000627334,0.000994321,0.999429,-0.00173495,0.0337246,0.000758975,0.0876019,0.525396,-0.978105,33.8125,1,17368,8408179
81,1,0.99943,-0.00168134,0.0337221,0.000768523,-0.658362,-0.0777648,9.79117,0.0499963,-0.564834,0.987493,-0.00658415,-0.000788971,0.0979116,1,5.6764e-05,-2.80875e-06,1.57416e-05,0.0113528,-0.000561751,0.00314831,0.99943,-0.00168134,0.0337221,0.000768523,0.088947,0.526901,-0.981108,33.8125,1,17369,8408279
81,2,0.99943,-0.00168134,0.0337221,0.000768523,-0.658362,-0.0777648,9.79117,0.0499963,-0.564834,0.987493,-0.00658415,-0.000788971,0.0979116,1,5.6764e-05,-2.80875e-06,1.57416e-05,0.0113528,-0.000561751,0.00314831,0.99943,-0.00168134,0.0337221,0.000768523,0.088947,0.526901,-0.981108,33.8125,1,17369,8408279
81,3,0.99943,-0.00168134,0.0337221,0.000768523,-0.658362,-0.0777648,9.79117,0.0499963,-0.564834,0.987493,-0.00658415,-0.000788971,0.0979116,1,5.6764e-05,-2.80875e-06,1.57416e-05,0.0113528,-0.000561751,0.00314831,0.99943,-0.00168134,0.0337221,0.000768523,0.088947,0.526901,-0.981108,33.8125,1,17369,8408279
81,4,0.99943,-0.00163704,0.033725,0.000765816,-0.656925,-0.0870374,9.78057,0.0498006,-0.576884,0.97783,-0.00656888,-0.00088094,0.0978056,1,5.32326e-05,1.79556e-06,1.16151e-05,0.0106465,0.000359112,0.00232302,0.99943,-0.00163704,0.033725,0.000765816,0.0873851,0.528927,-0.984591,33.8125,1,17370,8408379
82,1,0.99943,-0.00163704,0.033725,0.000765816,-0.656925,-0.0870374,9.78057,0.0498006,-0.576884,0.97783,-0.00656888,-0.00088094,0.0978056,1,5.32326e-05,1.79556e-06,1.16151e-05,0.0106465,0.000359112,0.00232302,0.99943,-0.00163704,0.033725,0.000765816,0.0873851,0.528927,-0.984591,33.8125,1,17370,8408379
82,2,0.99943,-0.00163704,0.033725,0.000765816,-0.656925,-0.0870374,9.78057,0.0498006,-0.576884,0.97783,-0.00656888,-0.00088094,0.0978056,1,5.32326e-05,1.79556e-06,1.16151e-05,0.0106465,0.000359112,0.00232302,0.99943,-0.00163704,0.033725,0.000765816,0.0873851,0.528927,-0.984591,33.8125,1,17370,8408379
82,3,0.99943,-0.00160592,0.0337174,0.000770976,-0.673849,-0.0851903,9.79122,0.0405329,-0.571564,0.989435,-0.00673989,-0.000861514,0.097912,1,4.80488e-05,-7.30146e-06,1.50073e-05,0.00960976,-0.00146029,0.00300147,0.99943,-0.00160592,0.0337174,0.000770976,0.0845021,0.527985,-0.985104,33.8125,1,17371,8408479
82,4,0.99943,-0.00160592,0.0337174,0.000770976,-0.673849,-0.0851903,9.79122,0.0405329,-0.571564,0.989435,-0.00673989,-0.000861514,0.097912,1,4.80488e-05,-7.30146e-06,1.50073e-05,0.00960976,-0.00146029,0.00300147,0.99943,-0.00160592,0.0337174,0.000770976,0.0845021,0.527985,-0.985104,33.8125,1,17371,8408479
83,1,0.99943,-0.00160592,0.0337174,0.000770976,-0.673849,-0.0851903,9.79122,0.0405329,-0.571564,0.989435,-0.00673989,-0.000861514,0.097912,1,4.80488e-05,-7.30146e-06,1.50073e-05,0.00960976,-0.00146029,0.00300147,0.99943,-0.00160592,0.0337174,0.000770976,0.0845021,0.527985,-0.985104,33.8125,1,17371,8408479
83,2,0.999431,-0.00156922,0.0336995,0.000789702,-0.673041,-0.0814375,9.78956,0.037138,-0.574498,0.98986,-0.00673374,-0.000824761,0.0978953,1,5.1951e-05,-1.71535e-05,1.59047e-05,0.0103902,-0.0034307,0.00318093,0.999431,-0.00156922,0.0336995,0.000789702,0.0846004,0.526467,-0.982107,33.8125,1,17372,8408579
83,3,0.999431,-0.00156922,0.0336995,0.000789702,-0.673041,-0.0814375,9.78956,0.037138,-0.574498,0.98986,-0.00673374,-0.000824761,0.0978953,1,5.1951e-05,-1.71535e-05,1.59047e-05,0.0103902,-0.0034307,0.00318093,0.999431,-0.00156922,0.0336995,0.000789702,0.0846004,0.526467,-0.982107,33.8125,1,17372,8408579
83,4,0.999431,-0.00156922,0.0336995,0.000789702,-0.673041,-0.0814375,9.78956,0.037138,-0.574498,0.98986,-0.00673374,-0.000824761,0.0978953,1,5.1951e-05,-1.71535e-05,1.59047e-05,0.0103902,-0.0034307,0.00318093,0.999431,-0.00156922,0.0336995,0.000789702,0.0846004,0.526467,-0.982107,33.8125,1,17372,8408579
83,5,0.999431,-0.00152854,0.0336922,0.000797272,-0.663433,-0.082075,9.78845,0.0485623,-0.570347,0.98489,-0.00663553,-0.000830594,0.0978843,1,5.01424e-05,-6.18021e-06,2.0883e-06,0.0100285,-0.00123604,0.00041766,0.999431,-0.00152854,0.0336922,0.000797272,0.0871208,0.5254,-0.978102,33.8125,1,17373,8408679
83,6,0.999431,-0.00152854,0.0336922,0.000797272,-0.663433,-0.082075,9.78845,0.0485623,-0.570347,0.98489,-0.00663553,-0.000830594,0.0978843,1,5.01424e-05,-6.18021e-06,2.0883e-06,0.0100285,-0.00123604,0.00041766,0.999431,-0.00152854,0.0336922,0.000797272,0.0871208,0.5254,-0.978102,33.8125,1,17373,8408679
84,1,0.999431,-0.00152854,0.0336922,0.000797272,-0.663433,-0.082075,9.78845,0.0485623,-0.570347,0.98489,-0.00663553,-0.000830594,0.0978843,1,5.01424e-05,-6.18021e-06,2.0883e-06,0.0100285,-0.00123604,0.00041766,0.999431,-0.00152854,0.0336922,0.000797272,0.0871208,0.5254,-0.978102,33.8125,1,17373,8408679
84,2,0.999431,-0.00148353,0.0336844,0.000807123,-0.677637,-0.0784935,9.78723,0.0322499,-0.571824,0.982968,-0.00677835,-0.000793715,0.0978721,1,4.37237e-05,-1.02485e-05,1.63036e-05,0.00874474,-0.00204971,0.00326073,0.999431,-0.00148353,0.0336844,0.000807123,0.0870966,0.526863,-0.97807,33.8125,1,17374,8408779
84,3,0.999431,-0.00148353,0.0336844,0.000807123,-0.677637,-0.0784935,9.78723,0.0322499,-0.571824,0.982968,-0.00677835,-0.000793715,0.0978721,1,4.37237e-05,-1.02485e-05,1.63036e-05,0.00874474,-0.00204971,0.00326073,0.999431,-0.00148353,0.0336844,0.000807123,0.0870966,0.526863,-0.97807,33.8125,1,17374,8408779
84,4,0.999431,-0.00148353,0.0336844,0.000807123,-0.677637,-0.0784935,9.78723,0.0322499,-0.571824,0.982968,-0.00677835,-0.000793715,0.0978721,1,4.37237e-05,-1.02485e-05,1.63036e-05,0.00874474,-0.00204971,0.00326073,0.999431,-0.00148353,0.0336844,0.000807123,0.0870966,0.526863,-0.97807,33.8125,1,17374,8408779
84,5,0.999431,-0.00144859,0.0336802,0.000816229,-0.679293,-0.074446,9.79508,0.0314722,-0.566456,0.992905,-0.006794,-0.000751869,0.0979507,1,3.66011e-05,-5.60647e-06,1.75868e-05,0.00732023,-0.00112129,0.00351736,0.999431,-0.00144859,0.0336802,0.000816229,0.0870069,0.529338,-0.980034,33.8125,1,17375,8408879
84,6,0.999431,-0.00144859,0.0336802,0.000816229,-0.679293,-0.074446,9.79508,0.0314722,-0.566456,0.992905,-0.006794,-0.000751869,0.0979507,1,3.66011e-05,-5.60647e-06,1.75868e-05,0.00732023,-0.00112129,0.00351736,0.999431,-0.00144859,0.0336802,0.000816229,0.0870069,0.529338,-0.980034,33.8125,1,17375,8408879
85,1,0.999431,-0.00144859,0.0336802,0.000816229,-0.679293,-0.074446,9.79508,0.0314722,-0.566456,0.992905,-0.006794,-0.000751869,0.0979507,1,3.66011e-05,-5.60647e-06,1.75868e-05,0.00732023,-0.00112129,0.00351736,0.999431,-0.00144859,0.0336802,0.000816229,0.0870069,0.529338,-0.980034,33.8125,1,17375,8408879
85,2,0.999432,-0.00142589,0.0336602,0.000815888,-0.66602,-0.082062,9.77966,0.0396604,-0.577246,0.977602,-0.00666417,-0.000827707,0.0977963,1,3.52542e-05,-2.04146e-05,1.43779e-05,0.00705084,-0.00408292,0.00287558,0.999432,-0.00142589,0.0336602,0.000815888,0.0855057,0.528428,-0.983078,33.8125,1,17376,8408979
85,3,0.999432,-0.00142589,0.0336602,0.000815888,-0.66602,-0.082062,9.77966,0.0396604,-0.577246,0.977602,-0.00666417,-0.000827707,0.0977963,1,3.52542e-05,-2.04146e-05,1.43779e-05,0.00705084,-0.00408292,0.00287558,0.999432,-0.00142589,0.0336602,0.000815888,0.0855057,0.528428,-0.983078,33.8125,1,17376,8408979
85,4,0.999432,-0.00142589,0.0336602,0.000815888,-0.66602,-0.082062,9.77966,0.0396604,-0.577246,0.977602,-0.00666417,-0.000827707,0.0977963,1,3.52542e-05,-2.04146e-05,1.43779e-05,0.00705084,-0.00408292,0.00287558,0.999432,-0.00142589,0.0336602,0.000815888,0.0855057,0.528428,-0.983078,33.8125,1,17376,8408979
86,1,0.999432,-0.00140269,0.0336516,0.00083188,-0.670756,-0.0839723,9.79527,0.040281,-0.577614,0.990272,-0.00670901,-0.000847559,0.0979526,1,3.86667e-05,-7.54921e-06,1.9446e-05,0.00773334,-0.00150984,0.0038892,0.999432,-0.00140269,0.0336516,0.00083188,0.0859944,0.526491,-0.984134,33.8125,1,17377,8409079
86,2,0.999432,-0.00140269,0.0336516,0.00083188,-0.670756,-0.0839723,9.79527,0.040281,-0.577614,0.990272,-0.00670901,-0.000847559,0.0979526,1,3.86667e-05,-7.54921e-06,1.9446e-05,0.00773334,-0.00150984,0.0038892,0.999432,-0.00140269,0.0336516,0.00083188,0.0859944,0.526491,-0.984134,33.8125,1,17377,8409079
87,1,0.999432,-0.00140269,0.0336516,0.00083188,-0.670756,-0.0839723,9.79527,0.040281,-0.577614,0.990272,-0.00670901,-0.000847559,0.0979526,1,3.86667e-05,-7.54921e-06,1.9446e-05,0.00773334,-0.00150984,0.0038892,0.999432,-0.00140269,0.0336516,0.00083188,0.0859944,0.526491,-0.984134,33.8125,1,17377,8409079
87,2,0.999433,-0.00137213,0.033645,0.000846962,-0.674447,-0.0872735,9.79527,0.033173,-0.583774,0.99365,-0.00674559,-0.000882559,0.0979526,1,4.89951e-05,-5.85794e-06,1.67338e-05,0.00979902,-0.00117159,0.00334676,0.999433,-0.00137213,0.033645,0.000846962,0.0865491,0.524988,-0.982149,33.8125,1,17378,8409179
87,3,0.999433,-0.00137213,0.033645,0.000846962,-0.674447,-0.0872735,9.79527,0.033173,-0.583774,0.99365,-0.00674559,-0.000882559,0.0979526,1,4.89951e-05,-5.85794e-06,1.67338e-05,0.00979902,-0.00117159,0.00334676,0.999433,-0.00137213,0.033645,0.000846962,0.0865491,0.524988,-0.982149,33.8125,1,17378,8409179
87,4,0.999433,-0.00137213,0.033645,0.000846962,-0.674447,-0.0872735,9.79527,0.033173,-0.583774,0.99365,-0.00674559,-0.000882559,0.0979526,1,4.89951e-05,-5.85794e-06,1.67338e-05,0.00979902,-0.00117159,0.00334676,0.999433,-0.00137213,0.033645,0.000846962,0.0865491,0.524988,-0.982149,33.8125,1,17378,8409179
87,5,0.999433,-0.00133677,0.0336422,0.000863463,-0.672573,-0.0845602,9.78646,0.0368842,-0.578251,0.984555,-0.00672665,-0.000854653,0.0978644,1,4.49642e-05,-4.83756e-06,1.86228e-05,0.00899284,-0.000967512,0.00372456,0.999433,-0.00133677,0.0336422,0.000863463,0.0866473,0.523471,-0.979153,33.8125,1,17379,8409279
87,6,0.999433,-0.00133677,0.0336422,0.000863463,-0.672573,-0.0845602,9.78646,0.0368842,-0.578251,0.984555,-0.00672665,-0.000854653,0.0978644,1,4.49642e-05,-4.83756e-06,1.86228e-05,0.00899284,-0.000967512,0.00372456,0.999433,-0.00133677,0.0336422,0.000863463,0.0866473,0.523471,-0.979153,33.8125,1,17379,8409279
88,1,0.999433,-0.00133677,0.0336422,0.000863463,-0.672573,-0.0845602,9.78646,0.0368842,-0.578251,0.984555,-0.00672665,-0.000854653,0.0978644,1,4.49642e-05,-4.83756e-06,1.86228e-05,0.00899284,-0.000967512,0.00372456,0.999433,-0.00133677,0.0336422,0.000863463,0.0866473,0.523471,-0.979153,33.8125,1,17379,8409279
88,2,0.999433,-0.00128136,0.0336408,0.000885084,-0.671916,-0.0824138,9.78444,0.0365841,-0.576484,0.978586,-0.00671996,-0.000834269,0.0978443,1,5.04143e-05,-4.23787e-06,1.97609e-05,0.0100829,-0.000847575,0.00395217,0.999433,-0.00128136,0.0336408,0.000885084,0.0871085,0.525409,-0.978607,33.8125,1,17380,8409379
89,1,0.999433,-0.00128136,0.0336408,0.000885084,-0.671916,-0.0824138,9.78444,0.0365841,-0.576484,0.978586,-0.00671996,-0.000834269,0.0978443,1,5.04143e-05,-4.23787e-06,1.97609e-05,0.0100829,-0.000847575,0.00395217,0.999433,-0.00128136,0.0336408,0.000885084,0.0871085,0.525409,-0.978607,33.8125,1,17380,8409379
89,2,0.999433,-0.00128136,0.0336408,0.000885084,-0.671916,-0.0824138,9.78444,0.0365841,-0.576484,0.978586,-0.00671996,-0.000834269,0.0978443,1,5.04143e-05,-4.23787e-06,1.97609e-05,0.0100829,-0.000847575,0.00395217,0.999433,-0.00128136,0.0336408,0.000885084,0.0871085,0.525409,-0.978607,33.8125,1,17380,8409379
89,3,0.999433,-0.00125384,0.0336288,0.000886389,-0.670082,-0.0809512,9.79258,0.034557,-0.5788,0.989697,-0.00670362,-0.000815234,0.0979256,1,2.86625e-05,-1.4359e-05,8.13608e-06,0.00573249,-0.00287179,0.00162722,0.999433,-0.00125384,0.0336288,0.000886389,0.0884579,0.527393,-0.981094,33.8125,1,17381,8409479
89,4,0.999433,-0.00125384,0.0336288,0.000886389,-0.670082,-0.0809512,9.79258,0.034557,-0.5788,0.989697,-0.00670362,-0.000815234,0.0979256,1,2.86625e-05,-1.4359e-05,8.13608e-06,0.00573249,-0.00287179,0.00162722,0.999433,-0.00125384,0.0336288,0.000886389,0.0884579,0.527393,-0.981094,33.8125,1,17381,8409479
89,5,0.999433,-0.00125384,0.0336288,0.000886389,-0.670082,-0.0809512,9.79258,0.034557,-0.5788,0.989697,-0.00670362,-0.000815234,0.0979256,1,2.86625e-05,-1.4359e-05,8.13608e-06,0.00573249,-0.00287179,0.00162722,0.999433,-0.00125384,0.0336288,0.000886389,0.0884579,0.527393,-0.981094,33.8125,1,17381,8409479
89,6,0.999433,-0.00121184,0.0336261,0.000876794,-0.659032,-0.0802231,9.78878,0.0462228,-0.578294,0.983596,-0.00659111,-0.000813257,0.0978876,1,5.53559e-05,-4.17954e-06,1.43409e-05,0.0110712,-0.000835909,0.00286818,0.999433,-0.00121184,0.0336261,0.000876794,0.0883881,0.527926,-0.983608,33.8125,1,17382,8409579
89,7,0.999433,-0.00121184,0.0336261,0.000876794,-0.659032,-0.0802231,9.78878,0.0462228,-0.578294,0.983596,-0.00659111,-0.000813257,0.0978876,1,5.53559e-05,-4.17954e-06,1.43409e-05,0.0110712,-0.000835909,0.00286818,0.999433,-0.00121184,0.0336261,0.000876794,0.0883881,0.527926,-0.983608,33.8125,1,17382,8409579
89,8,0.999433,-0.00121184,0.0336261,0.000876794,-0.659032,-0.0802231,9.78878,0.0462228,-0.578294,0.983596,-0.00659111,-0.000813257,0.0978876,1,5.53559e-05,-4.17954e-06,1.43409e-05,0.0110712,-0.000835909,0.00286818,0.999433,-0.00121184,0.0336261,0.000876794,0.0883881,0.527926,-0.983608,33.8125,1,17382,8409579
90,1,0.999433,-0.00118845,0.0336305,0.000865126,-0.671379,-0.0739158,9.78755,0.0370274,-0.571763,0.985037,-0.006713,-0.000748581,0.0978755,1,4.70466e-05,3.92087e-06,1.58959e-05,0.00940933,0.000784173,0.00317919,0.999433,-0.00118845,0.0336305,0.000865126,0.0879269,0.525988,-0.984154,33.8125,1,17383,8409679
90,2,0.999433,-0.00118845,0.0336305,0.000865126,-0.671379,-0.0739158,9.78755,0.0370274,-0.571763,0.985037,-0.006713,-0.000748581,0.0978755,1,4.70466e-05,3.92087e-06,1.58959e-05,0.00940933,0.000784173,0.00317919,0.999433,-0.00118845,0.0336305,0.000865126,0.0879269,0.525988,-0.984154,33.8125,1,17383,8409679
90,3,0.999433,-0.00118845,0.0336305,0.000865126,-0.671379,-0.0739158,9.78755,0.0370274,-0.571763,0.985037,-0.006713,-0.000748581,0.0978755,1,4.70466e-05,3.92087e-06,1.58959e-05,0.00940933,0.000784173,0.00317919,0.999433,-0.00118845,0.0336305,0.000865126,0.0879269,0.525988,-0.984154,33.8125,1,17383,8409679
90,4,0.999434,-0.00118512,0.0336133,0.000861584,-0.665968,-0.0805353,9.79223,0.0455136,-0.577529,0.986092,-0.00666318,-0.000810742,0.097922,1,2.65706e-05,-1.79615e-05,1.39364e-05,0.00531411,-0.0035923,0.00278729,0.999434,-0.00118512,0.0336133,0.000861584,0.0855906,0.52403,-0.982671,33.8125,1,17384,8409779
91,1,0.999434,-0.00118512,0.0336133,0.000861584,-0.665968,-0.0805353,9.79223,0.0455136,-0.577529,0.986092,-0.00666318,-0.000810742,0.097922,1,2.65706e-05,-1.79615e-05,1.39364e-05,0.00531411,-0.0035923,0.00278729,0.999434,-0.00118512,0.0336133,0.000861584,0.0855906,0.52403,-0.982671,33.8125,1,17384,8409779
91,2,0.999434,-0.00118512,0.0336133,0.000861584,-0.665968,-0.0805353,9.79223,0.0455136,-0.577529,0.986092,-0.00666318,-0.000810742,0.097922,1,2.65706e-05,-1.79615e-05,1.39364e-05,0.00531411,-0.0035923,0.00278729,0.999434,-0.00118512,0.0336133,0.000861584,0.0855906,0.52403,-0.982671,33.8125,1,17384,8409779
91,3,0.999434,-0.0011311,0.0336084,0.00089807,-0.662489,-0.0764757,9.7844,0.0470292,-0.577136,0.979021,-0.006626,-0.000777009,0.0978438,1,6.15436e-05,-5.76099e-06,1.57918e-05,0.0123087,-0.0011522,0.00315837,0.999434,-0.0011311,0.0336084,0.00089807,0.0861458,0.523971,-0.979645,33.875,1,17385,8409879
91,4,0.999434,-0.0011311,0.0336084,0.00089807,-0.662489,-0.0764757,9.7844,0.0470292,-0.577136,0.979021,-0.006626,-0.000777009,0.0978438,1,6.15436e-05,-5.76099e-06,1.57918e-05,0.0123087,-0.0011522,0.00315837,0.999434,-0.0011311,0.0336084,0.00089807,0.0861458,0.523971,-0.979645,33.875,1,17385,8409879
92,1,0.999434,-0.0011311,0.0336084,0.00089807,-0.662489,-0.0764757,9.7844,0.0470292,-0.577136,0.979021,-0.006626,-0.000777009,0.0978438,1,6.15436e-05,-5.76099e-06,1.57918e-05,0.0123087,-0.0011522,0.00315837,0.999434,-0.0011311,0.0336084,0.00089807,0.0861458,0.523971,-0.979645,33.875,1,17385,8409879
92,2,0.999434,-0.00107112,0.0336005,0.000924134,-0.661889,-0.0913203,9.79338,0.0420213,-0.593588,0.990319,-0.00662085,-0.00092425,0.0979336,1,5.52648e-05,-1.01805e-05,1.67639e-05,0.011053,-0.0020361,0.00335278,0.999434,-0.00107112,0.0336005,0.000924134,0.0865742,0.526415,-0.980097,33.875,1,17386,8409979
93,1,0.999434,-0.00107112,0.0336005,0.000924134,-0.661889,-0.0913203,9.79338,0.0420213,-0.593588,0.990319,-0.00662085,-0.00092425,0.0979336,1,5.52648e-05,-1.01805e-05,1.67639e-05,0.011053,-0.0020361,0.00335278,0.999434,-0.00107112,0.0336005,0.000924134,0.0865742,0.526415,-0.980097,33.875,1,17386,8409979
93,2,0.999434,-0.00107112,0.0336005,0.000924134,-0.661889,-0.0913203,9.79338,0.0420213,-0.593588,0.990319,-0.00662085,-0.00092425,0.0979336,1,5.52648e-05,-1.01805e-05,1.67639e-05,0.011053,-0.0020361,0.00335278,0.999434,-0.00107112,0.0336005,0.000924134,0.0865742,0.526415,-0.980097,33.875,1,17386,8409979
94,1,0.999435,-0.00103918,0.0335959,0.000948418,-0.678956,-0.0848456,9.78711,0.0296656,-0.586585,0.98233,-0.00679064,-0.000856669,0.097871,1,3.98123e-05,-5.81723e-06,3.09923e-05,0.00796247,-0.00116345,0.00619845,0.999435,-0.00103918,0.0335959,0.000948418,0.0879402,0.528869,-0.981564,33.875,1,17387,8410079
94,2,0.999435,-0.00103918,0.0335959,0.000948418,-0.678956,-0.0848456,9.78711,0.0296656,-0.586585,0.98233,-0.00679064,-0.000856669,0.097871,1,3.98123e-05,-5.81723e-06,3.09923e-05,0.00796247,-0.00116345,0.00619845,0.999435,-0.00103918,0.0335959,0.000948418,0.0879402,0.528869,-0.981564,33.875,1,17387,8410079
95,1,0.999435,-0.00103918,0.0335959,0.000948418,-0.678956,-0.0848456,9.78711,0.0296656,-0.586585,0.98233,-0.00679064,-0.000856669,0.097871,1,3.98123e-05,-5.81723e-06,3.09923e-05,0.00796247,-0.00116345,0.00619845,0.999435,-0.00103918,0.0335959,0.000948418,0.0879402,0.528869,-0.981564,33.875,1,17387,8410079
95,2,0.999435,-0.00100648,0.0335873,0.00094038,-0.661272,-0.0817896,9.79041,0.0459973,-0.585933,0.989338,-0.0066144,-0.000828385,0.0979039,1,5.23832e-05,-8.74904e-06,1.75906e-05,0.0104766,-0.00174981,0.00351812,0.999435,-0.00100648,0.0335873,0.00094038,0.088372,0.528901,-0.983586,33.875,1,17388,8410179
96,1,0.999435,-0.00100648,0.0335873,0.00094038,-0.661272,-0.0817896,9.79041,0.0459973,-0.585933,0.989338,-0.0066144,-0.000828385,0.0979039,1,5.23832e-05,-8.74904e-06,1.75906e-05,0.0104766,-0.00174981,0.00351812,0.999435,-0.00100648,0.0335873,0.00094038,0.088372,0.528901,-0.983586,33.875,1,17388,8410179
96,2,0.999435,-0.00100648,0.0335873,0.00094038,-0.661272,-0.0817896,9.79041,0.0459973,-0.585933,0.989338,-0.0066144,-0.000828385,0.0979039,1,5.23832e-05,-8.74904e-06,1.75906e-05,0.0104766,-0.00174981,0.00351812,0.999435,-0.00100648,0.0335873,0.00094038,0.088372,0.528901,-0.983586,33.875,1,17388,8410179
96,3,0.999435,-0.000998945,0.0335759,0.000899542,-0.670763,-0.0814301,9.79693,0.0388154,-0.583419,0.99526,-0.00670976,-0.000821744,0.097969,1,3.79608e-05,-1.08721e-05,3.70567e-07,0.00759215,-0.00217443,7.41134e-05,0.999435,-0.000998945,0.0335759,0.000899542,0.0859455,0.527973,-0.985111,33.875,1,17389,8410279
96,4,0.999435,-0.000998945,0.0335759,0.000899542,-0.670763,-0.0814301,9.79693,0.0388154,-0.583419,0.99526,-0.00670976,-0.000821744,0.097969,1,3.79608e-05,-1.08721e-05,3.70567e-07,0.00759215,-0.00217443,7.41134e-05,0.999435,-0.000998945,0.0335759,0.000899542,0.0859455,0.527973,-0.985111,33.875,1,17389,8410279
97,1,0.999435,-0.000998945,0.0335759,0.000899542,-0.670763,-0.0814301,9.79693,0.0388154,-0.583419,0.99526,-0.00670976,-0.000821744,0.097969,1,3.79608e-05,-1.08721e-05,3.70567e-07,0.00759215,-0.00217443,7.41134e-05,0.999435,-0.000998945,0.0335759,0.000899542,0.0859455,0.527973,-0.985111,33.875,1,17389,8410279
97,2,0.999436,-0.000995954,0.0335594,0.000910405,-0.670845,-0.0837795,9.79113,0.032252,-0.588139,0.990343,-0.00671036,-0.000845573,0.0979111,1,3.82381e-05,-9.90765e-06,2.16403e-05,0.00764762,-0.00198153,0.00432806,0.999436,-0.000995954,0.0335594,0.000910405,0.0855583,0.525981,-0.982628,33.875,1,17390,8410379
98,1,0.999436,-0.000995954,0.0335594,0.000910405,-0.670845,-0.0837795,9.79113,0.032252,-0.588139,0.990343,-0.00671036,-0.000845573,0.0979111,1,3.82381e-05,-9.90765e-06,2.16403e-05,0.00764762,-0.00198153,0.00432806,0.999436,-0.000995954,0.0335594,0.000910405,0.0855583,0.525981,-0.982628,33.875,1,17390,8410379
98,2,0.999436,-0.000995954,0.0335594,0.000910405,-0.670845,-0.0837795,9.79113,0.032252,-0.588139,0.990343,-0.00671036,-0.000845573,0.0979111,1,3.82381e-05,-9.90765e-06,2.16403e-05,0.00764762,-0.00198153,0.00432806,0.999436,-0.000995954,0.0335594,0.000910405,0.0855583,0.525981,-0.982628,33.875,1,17390,8410379
99,1,0.999436,-0.000969619,0.0335508,0.000921766,-0.668876,-0.0785519,9.78642,0.0345563,-0.582611,0.985468,-0.00669027,-0.000793338,0.097864,1,3.99742e-05,-7.70388e-06,-3.55711e-07,0.00799484,-0.00154078,-7.11422e-05,0.999436,-0.000969619,0.0335508,0.000921766,0.0866354,0.524925,-0.978616,33.875,1,17391,8410479
99,2,0.999436,-0.000969619,0.0335508,0.000921766,-0.668876,-0.0785519,9.78642,0.0345563,-0.582611,0.985468,-0.00669027,-0.000793338,0.097864,1,3.99742e-05,-7.70388e-06,-3.55711e-07,0.00799484,-0.00154078,-7.11422e-05,0.999436,-0.000969619,0.0335508,0.000921766,0.0866354,0.524925,-0.978616,33.875,1,17391,8410479
99,3,0.999436,-0.000969619,0.0335508,0.000921766,-0.668876,-0.0785519,9.78642,0.0345563,-0.582611,0.985468,-0.00669027,-0.000793338,0.097864,1,3.99742e-05,-7.70388e-06,-3.55711e-07,0.00799484,-0.00154078,-7.11422e-05,0.999436,-0.000969619,0.0335508,0.000921766,0.0866354,0.524925,-0.978616,33.875,1,17391,8410479
99,4,0.999437,-0.000909696,0.0335357,0.000936202,-0.665335,-0.0763233,9.78642,0.0351025,-0.584161,0.979524,-0.00665739,-0.000772527,0.0978639,1,4.6771e-05,-2.07089e-05,1.04886e-05,0.0093542,-0.00414178,0.00209771,0.999437,-0.000909696,0.0335357,0.000936202,0.0870515,0.527378,-0.979573,33.875,1,17392,8410579
99,5,0.999437,-0.000909696,0.0335357,0.000936202,-0.665335,-0.0763233,9.78642,0.0351025,-0.584161,0.979524,-0.00665739,-0.000772527,0.0978639,1,4.6771e-05,-2.07089e-05,1.04886e-05,0.0093542,-0.00414178,0.00209771,0.999437,-0.000909696,0.0335357,0.000936202,0.0870515,0.527378,-0.979573,33.875,1,17392,8410579
99,6,0.999437,-0.000909696,0.0335357,0.000936202,-0.665335,-0.0763233,9.78642,0.0351025,-0.584161,0.979524,-0.00665739,-0.000772527,0.0978639,1,4.6771e-05,-2.07089e-05,1.04886e-05,0.0093542,-0.00414178,0.00209771,0.999437,-0.000909696,0.0335357,0.000936202,0.0870515,0.527378,-0.979573,33.875,1,17392,8410579
99,7,0.999437,-0.000880562,0.0335378,0.00095007,-0.670285,-0.080895,9.77928,0.0349292,-0.584274,0.973358,-0.00670272,-0.000816186,0.0977928,1,3.45224e-05,3.50365e-07,3.60346e-05,0.00690448,7.00729e-05,0.00720692,0.999437,-0.000880562,0.0335378,0.00095007,0.0865172,0.528384,-0.981063,33.875,1,17393,8410679
99,8,0.999437,-0.000880562,0.0335378,0.00095007,-0.670285,-0.080895,9.77928,0.0349292,-0.584274,0.973358,-0.00670272,-0.000816186,0.0977928,1,3.45224e-05,3.50365e-07,3.60346e-05,0.00690448,7.00729e-05,0.00720692,0.999437,-0.000880562,0.0335378,0.00095007,0.0865172,0.528384,-0.981063,33.875,1,17393,8410679
100,1,0.999437,-0.000880562,0.0335378,0.00095007,-0.670285,-0.080895,9.77928,0.0349292,-0.584274,0.973358,-0.00670272,-0.000816186,0.0977928,1,3.45224e-05,3.50365e-07,3.60346e-05,0.00690448,7.00729e-05,0.00720692,0.999437,-0.000880562,0.0335378,0.00095007,0.0865172,0.528384,-0.981063,33.875,1,17393,8410679
100,2,0.999437,-0.000856677,0.0335172,0.000931701,-0.66289,-0.0849794,9.79345,0.0404734,-0.594001,0.992556,-0.00663257,-0.000857663,0.0979342,1,3.98886e-05,-1.87958e-05,4.23209e-06,0.00797773,-0.00375916,0.000846418,0.999437,-0.000856677,0.0335172,0.000931701,0.0869286,0.528913,-0.983579,33.875,1,17394,8410779
100,3,0.999437,-0.000856677,0.0335172,0.000931701,-0.66289,-0.0849794,9.79345,0.0404734,-0.594001,0.992556,-0.00663257,-0.000857663,0.0979342,1,3.98886e-05,-1.87958e-05,4.23209e-06,0.00797773,-0.00375916,0.000846418,0.999437,-0.000856677,0.0335172,0.000931701,0.0869286,0.528913,-0.983579,33.875,1,17394,8410779
100,4,0.999437,-0.000856677,0.0335172,0.000931701,-0.66289,-0.0849794,9.79345,0.0404734,-0.594001,0.992556,-0.00663257,-0.000857663,0.0979342,1,3.98886e-05,-1.87958e-05,4.23209e-06,0.00797773,-0.00375916,0.000846418,0.999437,-0.000856677,0.0335172,0.000931701,0.0869286,0.528913,-0.983579,33.875,1,17394,8410779
101,1,0.999438,-0.000838002,0.0334985,0.000919764,-0.658933,-0.0779802,9.7867,0.0424443,-0.584278,0.983929,-0.0065921,-0.00079019,0.0978667,1,5.13513e-05,-1.43721e-05,2.55796e-05,0.0102703,-0.00287442,0.00511593,0.999438,-0.000838002,0.0334985,0.000919764,0.0864674,0.526975,-0.984125,33.875,1,17395,8410879
101,2,0.999438,-0.000838002,0.0334985,0.000919764,-0.658933,-0.0779802,9.7867,0.0424443,-0.584278,0.983929,-0.0065921,-0.00079019,0.0978667,1,5.13513e-05,-1.43721e-05,2.55796e-05,0.0102703,-0.00287442,0.00511593,0.999438,-0.000838002,0.0334985,0.000919764,0.0864674,0.526975,-0.984125,33.875,1,17395,8410879
101,3,0.999438,-0.000838002,0.0334985,0.000919764,-0.658933,-0.0779802,9.7867,0.0424443,-0.584278,0.983929,-0.0065921,-0.00079019,0.0978667,1,5.13513e-05,-1.43721e-05,2.55796e-05,0.0102703,-0.00287442,0.00511593,0.999438,-0.000838002,0.0334985,0.000919764,0.0864674,0.526975,-0.984125,33.875,1,17395,8410879
101,4,0.999438,-0.000829546,0.0334894,0.000919263,-0.666341,-0.0844002,9.79449,0.0372913,-0.593075,0.992184,-0.0066645,-0.000851328,0.0979448,1,3.64036e-05,-5.69405e-06,1.46402e-05,0.00728072,-0.00113881,0.00292804,0.999438,-0.000829546,0.0334894,0.000919263,0.0850896,0.525976,-0.982121,33.875,1,17396,8410979
101,5,0.999438,-0.000829546,0.0334894,0.000919263,-0.666341,-0.0844002,9.79449,0.0372913,-0.593075,0.992184,-0.0066645,-0.000851328,0.0979448,1,3.64036e-05,-5.69405e-06,1.46402e-05,0.00728072,-0.00113881,0.00292804,0.999438,-0.000829546,0.0334894,0.000919263,0.0850896,0.525976,-0.982121,33.875,1,17396,8410979
101,6,0.999438,-0.000829546,0.0334894,0.000919263,-0.666341,-0.0844002,9.79449,0.0372913,-0.593075,0.992184,-0.0066645,-0.000851328,0.0979448,1,3.64036e-05,-5.69405e-06,1.46402e-05,0.00728072,-0.00113881,0.00292804,0.999438,-0.000829546,0.0334894,0.000919263,0.0850896,0.525976,-0.982121,33.875,1,17396,8410979
101,7,0.999438,-0.000793096,0.0334858,0.000958958,-0.673959,-0.0854988,9.79045,0.0263042,-0.592719,0.986655,-0.00673998,-0.00086397,0.0979044,1,4.46848e-05,-2.16073e-06,1.72668e-05,0.00893696,-0.000432145,0.00345336,0.999438,-0.000793096,0.0334858,0.000958958,0.0851598,0.526888,-0.978565,33.875,1,17397,8411079
101,8,0.999438,-0.000793096,0.0334858,0.000958958,-0.673959,-0.0854988,9.79045,0.0263042,-0.592719,0.986655,-0.00673998,-0.00086397,0.0979044,1,4.46848e-05,-2.16073e-06,1.72668e-05,0.00893696,-0.000432145,0.00345336,0.999438,-0.000793096,0.0334858,0.000958958,0.0851598,0.526888,-0.978565,33.875,1,17397,8411079
102,1,0.999438,-0.000793096,0.0334858,0.000958958,-0.673959,-0.0854988,9.79045,0.0263042,-0.592719,0.986655,-0.00673998,-0.00086397,0.0979044,1,4.46848e-05,-2.16073e-06,1.72668e-05,0.00893696,-0.000432145,0.00345336,0.999438,-0.000793096,0.0334858,0.000958958,0.0851598,0.526888,-0.978565,33.875,1,17397,8411079
102,2,0.999439,-0.000729494,0.0334772,0.000976883,-0.675114,-0.0918085,9.79449,0.0289919,-0.605938,0.993325,-0.00675341,-0.000929295,0.0979446,1,5.66598e-05,-1.16639e-05,8.24968e-06,0.011332,-0.00233277,0.00164994,0.999439,-0.000729494,0.0334772,0.000976883,0.0861021,0.528822,-0.978022,33.875,1,17398,8411179
102,3,0.999439,-0.000729494,0.0334772,0.000976883,-0.675114,-0.0918085,9.79449,0.0289919,-0.605938,0.993325,-0.00675341,-0.000929295,0.0979446,1,5.66598e-05,-1.16639e-05,8.24968e-06,0.011332,-0.00233277,0.00164994,0.999439,-0.000729494,0.0334772,0.000976883,0.0861021,0.528822,-0.978022,33.875,1,17398,8411179
102,4,0.999439,-0.000729494,0.0334772,0.000976883,-0.675114,-0.0918085,9.79449,0.0289919,-0.605938,0.993325,-0.00675341,-0.000929295,0.0979446,1,5.66598e-05,-1.16639e-05,8.24968e-06,0.011332,-0.00233277,0.00164994,0.999439,-0.000729494,0.0334772,0.000976883,0.0861021,0.528822,-0.978022,33.875,1,17398,8411179
102,5,0.999439,-0.000705873,0.0334701,0.000967349,-0.665397,-0.0844116,9.78634,0.0396372,-0.594542,0.981253,-0.00665579,-0.00084941,0.0978633,1,2.64346e-05,-9.37296e-06,8.99285e-06,0.00528693,-0.00187459,0.00179857,0.999439,-0.000705873,0.0334701,0.000967349,0.088919,0.529331,-0.980549,33.875,1,17399,8411279
102,6,0.999439,-0.000705873,0.0334701,0.000967349,-0.665397,-0.0844116,9.78634,0.0396372,-0.594542,0.981253,-0.00665579,-0.00084941,0.0978633,1,2.64346e-05,-9.37296e-06,8.99285e-06,0.00528693,-0.00187459,0.00179857,0.999439,-0.000705873,0.0334701,0.000967349,0.088919,0.529331,-0.980549,33.875,1,17399,8411279
103,1,0.999439,-0.000705873,0.0334701,0.000967349,-0.665397,-0.0844116,9.78634,0.0396372,-0.594542,0.981253,-0.00665579,-0.00084941,0.0978633,1,2.64346e-05,-9.37296e-06,8.99285e-06,0.00528693,-0.00187459,0.00179857,0.999439,-0.000705873,0.0334701,0.000967349,0.088919,0.529331,-0.980549,33.875,1,17399,8411279
103,2,0.999438,-0.000678876,0.033488,0.00093315,-0.672308,-0.0864398,9.79247,0.0333693,-0.598922,0.98893,-0.00671998,-0.000874147,0.0979248,1,4.83992e-05,1.56422e-05,2.00716e-05,0.00967983,0.00312843,0.00401433,0.999438,-0.000678876,0.033488,0.00093315,0.0883596,0.52891,-0.984091,33.875,1,17400,8411379
103,3,0.999438,-0.000678876,0.033488,0.00093315,-0.672308,-0.0864398,9.79247,0.0333693,-0.598922,0.98893,-0.00671998,-0.000874147,0.0979248,1,4.83992e-05,1.56422e-05,2.00716e-05,0.00967983,0.00312843,0.00401433,0.999438,-0.000678876,0.033488,0.00093315,0.0883596,0.52891,-0.984091,33.875,1,17400,8411379
103,4,0.999438,-0.000678876,0.033488,0.00093315,-0.672308,-0.0864398,9.79247,0.0333693,-0.598922,0.98893,-0.00671998,-0.000874147,0.0979248,1,4.83992e-05,1.56422e-05,2.00716e-05,0.00967983,0.00312843,0.00401433,0.999438,-0.000678876,0.033488,0.00093315,0.0883596,0.52891,-0.984091,33.875,1,17400,8411379
103,5,0.999439,-0.000668212,0.0334801,0.000902875,-0.662817,-0.0705503,9.78678,0.0429395,-0.584301,0.985542,-0.00662938,-0.00071447,0.0978676,1,4.47128e-05,-6.2845e-06,1.62404e-05,0.00894256,-0.0012569,0.00324809,0.999439,-0.000668212,0.0334801,0.000902875,0.0869566,0.526483,-0.984138,33.875,1,17401,8411479
103,6,0.999439,-0.000668212,0.0334801,0.000902875,-0.662817,-0.0705503,9.78678,0.0429395,-0.584301,0.985542,-0.00662938,-0.00071447,0.0978676,1,4.47128e-05,-6.2845e-06,1.62404e-05,0.00894256,-0.0012569,0.00324809,0.999439,-0.000668212,0.0334801,0.000902875,0.0869566,0.526483,-0.984138,33.875,1,17401,8411479
103,7,0.999439,-0.000668212,0.0334801,0.000902875,-0.662817,-0.0705503,9.78678,0.0429395,-0.584301,0.985542,-0.00662938,-0.00071447,0.0978676,1,4.47128e-05,-6.2845e-06,1.62404e-05,0.00894256,-0.0012569,0.00324809,0.999439,-0.000668212,0.0334801,0.000902875,0.0869566,0.526483,-0.984138,33.875,1,17401,8411479
103,8,0.999439,-0.000635472,0.0334746,0.000918851,-0.676586,-0.083624,9.78982,0.0287923,-0.593273,0.987734,-0.00676718,-0.000847511,0.097898,1,5.62874e-05,-6.85997e-06,1.85033e-05,0.0112575,-0.00137199,0.00370065,0.999439,-0.000635472,0.0334746,0.000918851,0.0846331,0.525962,-0.981109,33.875,1,17402,8411579
104,1,0.999439,-0.000635472,0.0334746,0.000918851,-0.676586,-0.083624,9.78982,0.0287923,-0.593273,0.987734,-0.00676718,-0.000847511,0.097898,1,5.62874e-05,-6.85997e-06,1.85033e-05,0.0112575,-0.00137199,0.00370065,0.999439,-0.000635472,0.0334746,0.000918851,0.0846331,0.525962,-0.981109,33.875,1,17402,8411579
104,2,0.999439,-0.000635472,0.0334746,0.000918851,-0.676586,-0.083624,9.78982,0.0287923,-0.593273,0.987734,-0.00676718,-0.000847511,0.097898,1,5.62874e-05,-6.85997e-06,1.85033e-05,0.0112575,-0.00137199,0.00370065,0.999439,-0.000635472,0.0334746,0.000918851,0.0846331,0.525962,-0.981109,33.875,1,17402,8411579
104,3,0.99944,-0.000593281,0.0334546,0.000973897,-0.660457,-0.0808797,9.79992,0.044547,-0.595969,0.993713,-0.00660892,-0.000817821,0.0979988,1,4.4573e-05,-2.2404e-05,2.17801e-05,0.0089146,-0.0044808,0.00435601,0.99944,-0.000593281,0.0334546,0.000973897,0.0842341,0.525424,-0.978088,33.875,1,17403,8411679
104,4,0.99944,-0.000593281,0.0334546,0.000973897,-0.660457,-0.0808797,9.79992,0.044547,-0.595969,0.993713,-0.00660892,-0.000817821,0.0979988,1,4.4573e-05,-2.2404e-05,2.17801e-05,0.0089146,-0.0044808,0.00435601,0.99944,-0.000593281,0.0334546,0.000973897,0.0842341,0.525424,-0.978088,33.875,1,17403,8411679
104,5,0.99944,-0.000593281,0.0334546,0.000973897,-0.660457,-0.0808797,9.79992,0.044547,-0.595969,0.993713,-0.00660892,-0.000817821,0.0979988,1,4.4573e-05,-2.2404e-05,2.17801e-05,0.0089146,-0.0044808,0.00435601,0.99944,-0.000593281,0.0334546,0.000973897,0.0842341,0.525424,-0.978088,33.875,1,17403,8411679
104,6,0.99944,-0.000548903,0.0334554,0.00101735,-0.675695,-0.0762502,9.79394,0.0286679,-0.589579,0.990611,-0.0067573,-0.000770568,0.0979393,1,3.98699e-05,-1.96142e-06,1.89059e-05,0.00797398,-0.000392285,0.00378118,0.99944,-0.000548903,0.0334554,0.00101735,0.0861548,0.526374,-0.977571,33.875,1,17404,8411779
104,7,0.99944,-0.000548903,0.0334554,0.00101735,-0.675695,-0.0762502,9.79394,0.0286679,-0.589579,0.990611,-0.0067573,-0.000770568,0.0979393,1,3.98699e-05,-1.96142e-06,1.89059e-05,0.00797398,-0.000392285,0.00378118,0.99944,-0.000548903,0.0334554,0.00101735,0.0861548,0.526374,-0.977571,33.875,1,17404,8411779
104,8,0.99944,-0.000548903,0.0334554,0.00101735,-0.675695,-0.0762502,9.79394,0.0286679,-0.589579,0.990611,-0.0067573,-0.000770568,0.0979393,1,3.98699e-05,-1.96142e-06,1.89059e-05,0.00797398,-0.000392285,0.00378118,0.99944,-0.000548903,0.0334554,0.00101735,0.0861548,0.526374,-0.977571,33.875,1,17404,8411779
105,1,0.99944,-0.000515531,0.0334532,0.00102319,-0.67302,-0.0686811,9.79026,0.0302061,-0.584278,0.985103,-0.00673121,-0.00069439,0.0979024,1,3.79235e-05,-5.25266e-06,1.13584e-05,0.00758469,-0.00105053,0.00227168,0.99944,-0.000515531,0.0334532,0.00102319,0.0879772,0.528842,-0.98005,33.875,1,17405,8411879
105,2,0.99944,-0.000515531,0.0334532,0.00102319,-0.67302,-0.0686811,9.79026,0.0302061,-0.584278,0.985103,-0.00673121,-0.00069439,0.0979024,1,3.79235e-05,-5.25266e-06,1.13584e-05,0.00758469,-0.00105053,0.00227168,0.99944,-0.000515531,0.0334532,0.00102319,0.0879772,0.528842,-0.98005,33.875,1,17405,8411879
105,3,0.99944,-0.000515531,0.0334532,0.00102319,-0.67302,-0.0686811,9.79026,0.0302061,-0.584278,0.985103,-0.00673121,-0.00069439,0.0979024,1,3.79235e-05,-5.25266e-06,1.13584e-05,0.00758469,-0.00105053,0.00227168,0.99944,-0.000515531,0.0334532,0.00102319,0.0879772,0.528842,-0.98005,33.875,1,17405,8411879
105,4,0.99944,-0.000510937,0.0334406,0.00102013,-0.673899,-0.0781032,9.78781,0.0293582,-0.589529,0.976472,-0.00674197,-0.000785777,0.0978779,1,2.30148e-05,-1.54133e-05,1.77957e-05,0.00460297,-0.00308267,0.00355915,0.99944,-0.000510937,0.0334406,0.00102013,0.0864679,0.528421,-0.983083,33.875,1,17406,8411979
106,1,0.99944,-0.000510937,0.0334406,0.00102013,-0.673899,-0.0781032,9.78781,0.0293582,-0.589529,0.976472,-0.00674197,-0.000785777,0.0978779,1,2.30148e-05,-1.54133e-05,1.77957e-05,0.00460297,-0.00308267,0.00355915,0.99944,-0.000510937,0.0334406,0.00102013,0.0864679,0.528421,-0.983083,33.875,1,17406,8411979
106,2,0.99944,-0.000510937,0.0334406,0.00102013,-0.673899,-0.0781032,9.78781,0.0293582,-0.589529,0.976472,-0.00674197,-0.000785777,0.0978779,1,2.30148e-05,-1.54133e-05,1.77957e-05,0.00460297,-0.00308267,0.00355915,0.99944,-0.000510937,0.0334406,0.00102013,0.0864679,0.528421,-0.983083,33.875,1,17406,8411979
106,3,0.99944,-0.000492816,0.0334322,0.00102291,-0.67377,-0.0909827,9.80025,0.0318695,-0.606697,0.996305,-0.00673972,-0.000918361,0.0980023,1,4.2729e-05,-1.04049e-05,1.18093e-05,0.0085458,-0.00208098,0.00236187,0.99944,-0.000492816,0.0334322,0.00102291,0.0860229,0.525507,-0.98365,33.875,1,17407,8412079
106,4,0.99944,-0.000492816,0.0334322,0.00102291,-0.67377,-0.0909827,9.80025,0.0318695,-0.606697,0.996305,-0.00673972,-0.000918361,0.0980023,1,4.2729e-05,-1.04049e-05,1.18093e-05,0.0085458,-0.00208098,0.00236187,0.99944,-0.000492816,0.0334322,0.00102291,0.0860229,0.525507,-0.98365,33.875,1,17407,8412079
106,5,0.99944,-0.000492816,0.0334322,0.00102291,-0.67377,-0.0909827,9.80025,0.0318695,-0.606697,0.996305,-0.00673972,-0.000918361,0.0980023,1,4.2729e-05,-1.04049e-05,1.18093e-05,0.0085458,-0.00208098,0.00236187,0.99944,-0.000492816,0.0334322,0.00102291,0.0860229,0.525507,-0.98365,33.875,1,17407,8412079
106,6,0.999441,-0.000477854,0.0334078,0.00105374,-0.666547,-0.085109,9.78704,0.0369155,-0.604561,0.980807,-0.0066709,-0.000858352,0.0978699,1,3.5245e-05,-2.79882e-05,2.71609e-05,0.00704901,-0.00559765,0.00543217,0.999441,-0.000477854,0.0334078,0.00105374,0.0856158,0.525457,-0.980619,33.875,1,17408,8412179
107,1,0.999441,-0.000477854,0.0334078,0.00105374,-0.666547,-0.085109,9.78704,0.0369155,-0.604561,0.980807,-0.0066709,-0.000858352,0.0978699,1,3.5245e-05,-2.79882e-05,2.71609e-05,0.00704901,-0.00559765,0.00543217,0.999441,-0.000477854,0.0334078,0.00105374,0.0856158,0.525457,-0.980619,33.875,1,17408,8412179
107,2,0.999441,-0.000477854,0.0334078,0.00105374,-0.666547,-0.085109,9.78704,0.0369155,-0.604561,0.980807,-0.0066709,-0.000858352,0.0978699,1,3.5245e-05,-2.79882e-05,2.71609e-05,0.00704901,-0.00559765,0.00543217,0.999441,-0.000477854,0.0334078,0.00105374,0.0856158,0.525457,-0.980619,33.875,1,17408,8412179
107,3,0.999442,-0.000439418,0.033387,0.00107482,-0.671284,-0.089041,9.78669,0.0307553,-0.607675,0.985466,-0.00671743,-0.000900398,0.0978665,1,4.97627e-05,-2.3644e-05,1.8494e-05,0.00995254,-0.0047288,0.0036988,0.999442,-0.000439418,0.033387,0.00107482,0.0866605,0.526352,-0.976564,33.875,1,17409,8412279
107,4,0.999442,-0.000439418,0.033387,0.00107482,-0.671284,-0.089041,9.78669,0.0307553,-0.607675,0.985466,-0.00671743,-0.000900398,0.0978665,1,4.97627e-05,-2.3644e-05,1.8494e-05,0.00995254,-0.0047288,0.0036988,0.999442,-0.000439418,0.033387,0.00107482,0.0866605,0.526352,-0.976564,33.875,1,17409,8412279
108,1,0.999442,-0.000439418,0.033387,0.00107482,-0.671284,-0.089041,9.78669,0.0307553,-0.607675,0.985466,-0.00671743,-0.000900398,0.0978665,1,4.97627e-05,-2.3644e-05,1.8494e-05,0.00995254,-0.0047288,0.0036988,0.999442,-0.000439418,0.033387,0.00107482,0.0866605,0.526352,-0.976564,33.875,1,17409,8412279
108,2,0.999442,-0.000383306,0.0333794,0.00106579,-0.667995,-0.0866203,9.79584,0.0379802,-0.608311,0.991214,-0.006682,-0.000877978,0.0979582,1,5.9994e-05,-1.04753e-05,1.61301e-06,0.0119988,-0.00209506,0.000322602,0.999442,-0.000383306,0.0333794,0.00106579,0.0865913,0.52833,-0.978035,33.875,1,17410,8412379
108,3,0.999442,-0.000383306,0.0333794,0.00106579,-0.667995,-0.0866203,9.79584,0.0379802,-0.608311,0.991214,-0.006682,-0.000877978,0.0979582,1,5.9994e-05,-1.04753e-05,1.61301e-06,0.0119988,-0.00209506,0.000322602,0.999442,-0.000383306,0.0333794,0.00106579,0.0865913,0.52833,-0.978035,33.875,1,17410,8412379
108,4,0.999442,-0.000383306,0.0333794,0.00106579,-0.667995,-0.0866203,9.79584,0.0379802,-0.608311,0.991214,-0.006682,-0.000877978,0.0979582,1,5.9994e-05,-1.04753e-05,1.61301e-06,0.0119988,-0.00209506,0.000322602,0.999442,-0.000383306,0.0333794,0.00106579,0.0865913,0.52833,-0.978035,33.875,1,17410,8412379
108,5,0.999442,-0.000352631,0.0333728,0.0010753,-0.680482,-0.0792648,9.78377,0.0246636,-0.598969,0.979184,-0.00680656,-0.000801726,0.0978375,1,4.49399e-05,-9.04888e-06,2.08898e-05,0.00898798,-0.00180978,0.00417796,0.999442,-0.000352631,0.0333728,0.0010753,0.0865168,0.526939,-0.982106,33.875,1,17411,8412479
108,6,0.999442,-0.000352631,0.0333728,0.0010753,-0.680482,-0.0792648,9.78377,0.0246636,-0.598969,0.979184,-0.00680656,-0.000801726,0.0978375,1,4.49399e-05,-9.04888e-06,2.08898e-05,0.00898798,-0.00180978,0.00417796,0.999442,-0.000352631,0.0333728,0.0010753,0.0865168,0.526939,-0.982106,33.875,1,17411,8412479
109,1,0.999442,-0.000352631,0.0333728,0.0010753,-0.680482,-0.0792648,9.78377,0.0246636,-0.598969,0.979184,-0.00680656,-0.000801726,0.0978375,1,4.49399e-05,-9.04888e-06,2.08898e-05,0.00898798,-0.00180978,0.00417796,0.999442,-0.000352631,0.0333728,0.0010753,0.0865168,0.526939,-0.982106,33.875,1,17411,8412479
109,2,0.999443,-0.000326141,0.0333603,0.00108066,-0.677217,-0.0824426,9.79696,0.023258,-0.600227,0.990758,-0.00677535,-0.000834178,0.0979693,1,4.89354e-05,-1.63337e-05,1.20831e-05,0.00978707,-0.00326674,0.00241662,0.999443,-0.000326141,0.0333603,0.00108066,0.0868911,0.527495,-0.986136,33.875,1,17412,8412579
109,3,0.999443,-0.000326141,0.0333603,0.00108066,-0.677217,-0.0824426,9.79696,0.023258,-0.600227,0.990758,-0.00677535,-0.000834178,0.0979693,1,4.89354e-05,-1.63337e-05,1.20831e-05,0.00978707,-0.00326674,0.00241662,0.999443,-0.000326141,0.0333603,0.00108066,0.0868911,0.527495,-0.986136,33.875,1,17412,8412579
109,4,0.999443,-0.000326141,0.0333603,0.00108066,-0.677217,-0.0824426,9.79696,0.023258,-0.600227,0.990758,-0.00677535,-0.000834178,0.0979693,1,4.89354e-05,-1.63337e-05,1.20831e-05,0.00978707,-0.00326674,0.00241662,0.999443,-0.000326141,0.0333603,0.00108066,0.0868911,0.527495,-0.986136,33.875,1,17412,8412579
110,1,0.999443,-0.000318918,0.0333631,0.00108787,-0.670952,-0.0782624,9.78677,0.029662,-0.597373,0.980821,-0.00670967,-0.000790638,0.0978676,1,3.98885e-05,-8.90486e-07,1.53947e-05,0.00797771,-0.000178097,0.00307894,0.999443,-0.000318918,0.0333631,0.00108787,0.0864143,0.527978,-0.985618,33.875,1,17413,8412679
110,2,0.999443,-0.000318918,0.0333631,0.00108787,-0.670952,-0.0782624,9.78677,0.029662,-0.597373,0.980821,-0.00670967,-0.000790638,0.0978676,1,3.98885e-05,-8.90486e-07,1.53947e-05,0.00797771,-0.000178097,0.00307894,0.999443,-0.000318918,0.0333631,0.00108787,0.0864143,0.527978,-0.985618,33.875,1,17413,8412679
110,3,0.999443,-0.000318918,0.0333631,0.00108787,-0.670952,-0.0782624,9.78677,0.029662,-0.597373,0.980821,-0.00670967,-0.000790638,0.0978676,1,3.98885e-05,-8.90486e-07,1.53947e-05,0.00797771,-0.000178097,0.00307894,0.999443,-0.000318918,0.0333631,0.00108787,0.0864143,0.527978,-0.985618,33.875,1,17413,8412679
110,4,0.999443,-0.00030646,0.0333547,0.00110312,-0.664274,-0.0850084,9.79481,0.0408897,-0.608229,0.991451,-0.00664513,-0.000858801,0.0979479,1,4.30867e-05,-1.23811e-05,2.08728e-05,0.00861734,-0.00247621,0.00417456,0.999443,-0.00030646,0.0333547,0.00110312,0.085575,0.52645,-0.981607,33.875,1,17414,8412779
111,1,0.999443,-0.00030646,0.0333547,0.00110312,-0.664274,-0.0850084,9.79481,0.0408897,-0.608229,0.991451,-0.00664513,-0.000858801,0.0979479,1,4.30867e-05,-1.23811e-05,2.08728e-05,0.00861734,-0.00247621,0.00417456,0.999443,-0.00030646,0.0333547,0.00110312,0.085575,0.52645,-0.981607,33.875,1,17414,8412779
111,2,0.999443,-0.00030646,0.0333547,0.00110312,-0.664274,-0.0850084,9.79481,0.0408897,-0.608229,0.991451,-0.00664513,-0.000858801,0.0979479,1,4.30867e-05,-1.23811e-05,2.08728e-05,0.00861734,-0.00247621,0.00417456,0.999443,-0.00030646,0.0333547,0.00110312,0.085575,0.52645,-0.981607,33.875,1,17414,8412779
112,1,0.999443,-0.000277686,0.0333405,0.00112457,-0.671718,-0.0857788,9.7891,0.0270759,-0.601225,0.984799,-0.00672047,-0.000866393,0.0978907,1,4.26322e-05,-1.69782e-05,1.92148e-05,0.00852645,-0.00339563,0.00384296,0.999443,-0.000277686,0.0333405,0.00112457,0.0861462,0.525417,-0.978602,33.875,1,17415,8412879
112,2,0.999443,-0.000277686,0.0333405,0.00112457,-0.671718,-0.0857788,9.7891,0.0270759,-0.601225,0.984799,-0.00672047,-0.000866393,0.0978907,1,4.26322e-05,-1.69782e-05,1.92148e-05,0.00852645,-0.00339563,0.00384296,0.999443,-0.000277686,0.0333405,0.00112457,0.0861462,0.525417,-0.978602,33.875,1,17415,8412879
112,3,0.999443,-0.000277686,0.0333405,0.00112457,-0.671718,-0.0857788,9.7891,0.0270759,-0.601225,0.984799,-0.00672047,-0.000866393,0.0978907,1,4.26322e-05,-1.69782e-05,1.92148e-05,0.00852645,-0.00339563,0.00384296,0.999443,-0.000277686,0.0333405,0.00112457,0.0861462,0.525417,-0.978602,33.875,1,17415,8412879
112,4,0.999444,-0.000229751,0.0333346,0.00113886,-0.671071,-0.0900862,9.79346,0.0332834,-0.613881,0.987,-0.00671238,-0.000911583,0.0979344,1,5.33461e-05,-8.67082e-06,2.03009e-05,0.0106692,-0.00173416,0.00406019,0.999444,-0.000229751,0.0333346,0.00113886,0.0865789,0.528339,-0.978539,33.875,1,17416,8412979
112,5,0.999444,-0.000229751,0.0333346,0.00113886,-0.671071,-0.0900862,9.79346,0.0332834,-0.613881,0.987,-0.00671238,-0.000911583,0.0979344,1,5.33461e-05,-8.67082e-06,2.03009e-05,0.0106692,-0.00173416,0.00406019,0.999444,-0.000229751,0.0333346,0.00113886,0.0865789,0.528339,-0.978539,33.875,1,17416,8412979
112,6,0.999444,-0.000229751,0.0333346,0.00113886,-0.671071,-0.0900862,9.79346,0.0332834,-0.613881,0.987,-0.00671238,-0.000911583,0.0979344,1,5.33461e-05,-8.67082e-06,2.03009e-05,0.0106692,-0.00173416,0.00406019,0.999444,-0.000229751,0.0333346,0.00113886,0.0865789,0.528339,-0.978539,33.875,1,17416,8412979
112,7,0.999443,-0.000196057,0.0333383,0.00113196,-0.66877,-0.0852769,9.79009,0.0320329,-0.60963,0.983841,-0.00668754,-0.000862082,0.0979009,1,4.72367e-05,8.13911e-07,4.75119e-06,0.00944734,0.000162782,0.000950238,0.999443,-0.000196057,0.0333383,0.00113196,0.0883928,0.52985,-0.98205,33.875,1,17417,8413079
112,8,0.999443,-0.000196057,0.0333383,0.00113196,-0.66877,-0.0852769,9.79009,0.0320329,-0.60963,0.983841,-0.00668754,-0.000862082,0.0979009,1,4.72367e-05,8.13911e-07,4.75119e-06,0.00944734,0.000162782,0.000950238,0.999443,-0.000196057,0.0333383,0.00113196,0.0883928,0.52985,-0.98205,33.875,1,17417,8413079
113,1,0.999443,-0.000196057,0.0333383,0.00113196,-0.66877,-0.0852769,9.79009,0.0320329,-0.60963,0.983841,-0.00668754,-0.000862082,0.0979009,1,4.72367e-05,8.13911e-07,4.75119e-06,0.00944734,0.000162782,0.000950238,0.999443,-0.000196057,0.0333383,0.00113196,0.0883928,0.52985,-0.98205,33.875,1,17417,8413079
113,2,0.999443,-0.000184952,0.0333465,0.00114065,-0.667914,-0.0805238,9.78537,0.0340555,-0.603832,0.978037,-0.00667832,-0.000812798,0.0978537,1,3.64633e-05,3.9414e-06,3.17263e-05,0.00729266,0.000788279,0.00634526,0.999443,-0.000184952,0.0333465,0.00114065,0.0878496,0.528454,-0.985614,33.875,1,17418,8413179
113,3,0.999443,-0.000184952,0.0333465,0.00114065,-0.667914,-0.0805238,9.78537,0.0340555,-0.603832,0.978037,-0.00667832,-0.000812798,0.0978537,1,3.64633e-05,3.9414e-06,3.17263e-05,0.00729266,0.000788279,0.00634526,0.999443,-0.000184952,0.0333465,0.00114065,0.0878496,0.528454,-0.985614,33.875,1,17418,8413179
113,4,0.999443,-0.000184952,0.0333465,0.00114065,-0.667914,-0.0805238,9.78537,0.0340555,-0.603832,0.978037,-0.00667832,-0.000812798,0.0978537,1,3.64633e-05,3.9414e-06,3.17263e-05,0.00729266,0.000788279,0.00634526,0.999443,-0.000184952,0.0333465,0.00114065,0.0878496,0.528454,-0.985614,33.875,1,17418,8413179
113,5,0.999444,-0.000163243,0.0333359,0.00113749,-0.665856,-0.0691797,9.7902,0.0343094,-0.592675,0.986515,-0.00666149,-0.000702276,0.0979018,1,5.28134e-05,-1.50147e-05,1.03548e-05,0.0105627,-0.00300295,0.00207097,0.999444,-0.000163243,0.0333359,0.00113749,0.0869319,0.526501,-0.985148,33.875,1,17419,8413279
113,6,0.999444,-0.000163243,0.0333359,0.00113749,-0.665856,-0.0691797,9.7902,0.0343094,-0.592675,0.986515,-0.00666149,-0.000702276,0.0979018,1,5.28134e-05,-1.50147e-05,1.03548e-05,0.0105627,-0.00300295,0.00207097,0.999444,-0.000163243,0.0333359,0.00113749,0.0869319,0.526501,-0.985148,33.875,1,17419,8413279
113,7,0.999444,-0.000163243,0.0333359,0.00113749,-0.665856,-0.0691797,9.7902,0.0343094,-0.592675,0.986515,-0.00666149,-0.000702276,0.0979018,1,5.28134e-05,-1.50147e-05,1.03548e-05,0.0105627,-0.00300295,0.00207097,0.999444,-0.000163243,0.0333359,0.00113749,0.0869319,0.526501,-0.985148,33.875,1,17419,8413279
113,8,0.999444,-0.000141028,0.0333374,0.00115159,-0.67259,-0.079966,9.79151,0.0294653,-0.606868,0.983311,-0.00672642,-0.000808985,0.097915,1,4.6542e-05,-2.78251e-06,1.57002e-05,0.00930839,-0.000556501,0.00314003,0.999444,-0.000141028,0.0333374,0.00115159,0.085566,0.524048,-0.983681,33.875,1,17420,8413379
114,1,0.999444,-0.000141028,0.0333374,0.00115159,-0.67259,-0.079966,9.79151,0.0294653,-0.606868,0.983311,-0.00672642,-0.000808985,0.097915,1,4.6542e-05,-2.78251e-06,1.57002e-05,0.00930839,-0.000556501,0.00314003,0.999444,-0.000141028,0.0333374,0.00115159,0.085566,0.524048,-0.983681,33.875,1,17420,8413379
114,2,0.999444,-0.000141028,0.0333374,0.00115159,-0.67259,-0.079966,9.79151,0.0294653,-0.606868,0.983311,-0.00672642,-0.000808985,0.097915,1,4.6542e-05,-2.78251e-06,1.57002e-05,0.00930839,-0.000556501,0.00314003,0.999444,-0.000141028,0.0333374,0.00115159,0.085566,0.524048,-0.983681,33.875,1,17420,8413379
114,3,0.999443,-0.000119231,0.0333396,0.00117937,-0.682728,-0.0852311,9.79899,0.0183525,-0.609539,0.993973,-0.00682762,-0.000859869,0.0979898,1,3.721e-05,-1.90739e-06,1.94945e-05,0.007442,-0.000381477,0.00389891,0.999443,-0.000119231,0.0333396,0.00117937,0.0851835,0.523979,-0.97964,33.875,1,17421,8413479
114,4,0.999443,-0.000119231,0.0333396,0.00117937,-0.682728,-0.0852311,9.79899,0.0183525,-0.609539,0.993973,-0.00682762,-0.000859869,0.0979898,1,3.721e-05,-1.90739e-06,1.94945e-05,0.007442,-0.000381477,0.00389891,0.999443,-0.000119231,0.0333396,0.00117937,0.0851835,0.523979,-0.97964,33.875,1,17421,8413479
114,5,0.999443,-0.000119231,0.0333396,0.00117937,-0.682728,-0.0852311,9.79899,0.0183525,-0.609539,0.993973,-0.00682762,-0.000859869,0.0979898,1,3.721e-05,-1.90739e-06,1.94945e-05,0.007442,-0.000381477,0.00389891,0.999443,-0.000119231,0.0333396,0.00117937,0.0851835,0.523979,-0.97964,33.875,1,17421,8413479
114,6,0.999443,-7.90898e-05,0.0333392,0.00119039,-0.674267,-0.0802306,9.79288,0.0312469,-0.608927,0.990672,-0.00674316,-0.000811779,0.0979287,1,4.7857e-05,-2.58316e-06,7.35549e-06,0.0095714,-0.000516633,0.0014711,0.999443,-7.90898e-05,0.0333392,0.00119039,0.088055,0.527822,-0.977548,33.875,1,17422,8413579
115,1,0.999443,-7.90898e-05,0.0333392,0.00119039,-0.674267,-0.0802306,9.79288,0.0312469,-0.608927,0.990672,-0.00674316,-0.000811779,0.0979287,1,4.7857e-05,-2.58316e-06,7.35549e-06,0.0095714,-0.000516633,0.0014711,0.999443,-7.90898e-05,0.0333392,0.00119039,0.088055,0.527822,-0.977548,33.875,1,17422,8413579
115,2,0.999443,-7.90898e-05,0.0333392,0.00119039,-0.674267,-0.0802306,9.79288,0.0312469,-0.608927,0.990672,-0.00674316,-0.000811779,0.0979287,1,4.7857e-05,-2.58316e-06,7.35549e-06,0.0095714,-0.000516633,0.0014711,0.999443,-7.90898e-05,0.0333392,0.00119039,0.088055,0.527822,-0.977548,33.875,1,17422,8413579
115,3,0.999444,-4.35085e-05,0.0333324,0.00118422,-0.663336,-0.0787117,9.78197,0.0371077,-0.605573,0.972721,-0.00663537,-0.000796616,0.0978195,1,4.76521e-05,-1.03788e-05,1.32616e-05,0.00953042,-0.00207577,0.00265233,0.999444,-4.35085e-05,0.0333324,0.00118422,0.0889109,0.529819,-0.980538,33.875,1,17423,8413679
115,4,0.999444,-4.35085e-05,0.0333324,0.00118422,-0.663336,-0.0787117,9.78197,0.0371077,-0.605573,0.972721,-0.00663537,-0.000796616,0.0978195,1,4.76521e-05,-1.03788e-05,1.32616e-05,0.00953042,-0.00207577,0.00265233,0.999444,-4.35085e-05,0.0333324,0.00118422,0.0889109,0.529819,-0.980538,33.875,1,17423,8413679
116,1,0.999444,-4.35085e-05,0.0333324,0.00118422,-0.663336,-0.0787117,9.78197,0.0371077,-0.605573,0.972721,-0.00663537,-0.000796616,0.0978195,1,4.76521e-05,-1.03788e-05,1.32616e-05,0.00953042,-0.00207577,0.00265233,0.999444,-4.35085e-05,0.0333324,0.00118422,0.0889109,0.529819,-0.980538,33.875,1,17423,8413679
116,2,0.999444,-1.25732e-05,0.03333,0.00117935,-0.664399,-0.0855202,9.78564,0.0378329,-0.615842,0.979455,-0.00664527,-0.000866002,0.0978563,1,5.40707e-05,-6.70717e-06,1.63857e-05,0.0108141,-0.00134143,0.00327714,0.999444,-1.25732e-05,0.03333,0.00117935,0.0869205,0.529401,-0.983568,33.875,1,17424,8413779
116,3,0.999444,-1.25732e-05,0.03333,0.00117935,-0.664399,-0.0855202,9.78564,0.0378329,-0.615842,0.979455,-0.00664527,-0.000866002,0.0978563,1,5.40707e-05,-6.70717e-06,1.63857e-05,0.0108141,-0.00134143,0.00327714,0.999444,-1.25732e-05,0.03333,0.00117935,0.0869205,0.529401,-0.983568,33.875,1,17424,8413779
116,4,0.999444,-1.25732e-05,0.03333,0.00117935,-0.664399,-0.0855202,9.78564,0.0378329,-0.615842,0.979455,-0.00664527,-0.000866002,0.0978563,1,5.40707e-05,-6.70717e-06,1.63857e-05,0.0108141,-0.00134143,0.00327714,0.999444,-1.25732e-05,0.03333,0.00117935,0.0869205,0.529401,-0.983568,33.875,1,17424,8413779
116,5,0.999444,-8.31934e-06,0.0333324,0.00119569,-0.676305,-0.0882494,9.79045,0.0229425,-0.61523,0.988888,-0.00676318,-0.00088884,0.0979044,1,3.07765e-05,-9.01453e-07,2.36239e-05,0.0061553,-0.000180291,0.00472478,0.999444,-8.31934e-06,0.0333324,0.00119569,0.0855299,0.526965,-0.983111,33.875,1,17425,8413879
116,6,0.999444,-8.31934e-06,0.0333324,0.00119569,-0.676305,-0.0882494,9.79045,0.0229425,-0.61523,0.988888,-0.00676318,-0.00088884,0.0979044,1,3.07765e-05,-9.01453e-07,2.36239e-05,0.0061553,-0.000180291,0.00472478,0.999444,-8.31934e-06,0.0333324,0.00119569,0.0855299,0.526965,-0.983111,33.875,1,17425,8413879
117,1,0.999444,-8.31934e-06,0.0333324,0.00119569,-0.676305,-0.0882494,9.79045,0.0229425,-0.61523,0.988888,-0.00676318,-0.00088884,0.0979044,1,3.07765e-05,-9.01453e-07,2.36239e-05,0.0061553,-0.000180291,0.00472478,0.999444,-8.31934e-06,0.0333324,0.00119569,0.0855299,0.526965,-0.983111,33.875,1,17425,8413879
117,2,0.999444,1.92504e-05,0.0333347,0.00120921,-0.672218,-0.088754,9.7894,0.0286098,-0.616615,0.988344,-0.00672249,-0.000897309,0.0978939,1,4.9334e-05,-1.69146e-06,8.16771e-06,0.0098668,-0.000338292,0.00163354,0.999444,1.92504e-05,0.0333347,0.00120921,0.0855622,0.525014,-0.983154,33.875,1,17426,8413979
117,3,0.999444,1.92504e-05,0.0333347,0.00120921,-0.672218,-0.088754,9.7894,0.0286098,-0.616615,0.988344,-0.00672249,-0.000897309,0.0978939,1,4.9334e-05,-1.69146e-06,8.16771e-06,0.0098668,-0.000338292,0.00163354,0.999444,1.92504e-05,0.0333347,0.00120921,0.0855622,0.525014,-0.983154,33.875,1,17426,8413979
117,4,0.999444,1.92504e-05,0.0333347,0.00120921,-0.672218,-0.088754,9.7894,0.0286098,-0.616615,0.988344,-0.00672249,-0.000897309,0.0978939,1,4.9334e-05,-1.69146e-06,8.16771e-06,0.0098668,-0.000338292,0.00163354,0.999444,1.92504e-05,0.0333347,0.00120921,0.0855622,0.525014,-0.983154,33.875,1,17426,8413979
117,5,0.999444,4.76467e-05,0.0333285,0.00122229,-0.662714,-0.0719225,9.79322,0.0404151,-0.602653,0.988418,-0.0066291,-0.000728851,0.097932,1,4.83468e-05,-1.01146e-05,1.18632e-05,0.00966935,-0.00202291,0.00237263,0.999444,4.76467e-05,0.0333285,0.00122229,0.0875606,0.524944,-0.980135,33.875,1,17427,8414079
117,6,0.999444,4.76467e-05,0.0333285,0.00122229,-0.662714,-0.0719225,9.79322,0.0404151,-0.602653,0.988418,-0.0066291,-0.000728851,0.097932,1,4.83468e-05,-1.01146e-05,1.18632e-05,0.00966935,-0.00202291,0.00237263,0.999444,4.76467e-05,0.0333285,0.00122229,0.0875606,0.524944,-0.980135,33.875,1,17427,8414079
117,7,0.999444,4.76467e-05,0.0333285,0.00122229,-0.662714,-0.0719225,9.79322,0.0404151,-0.602653,0.988418,-0.0066291,-0.000728851,0.097932,1,4.83468e-05,-1.01146e-05,1.18632e-05,0.00966935,-0.00202291,0.00237263,0.999444,4.76467e-05,0.0333285,0.00122229,0.0875606,0.524944,-0.980135,33.875,1,17427,8414079
117,8,0.999444,7.23363e-05,0.0333363,0.00121458,-0.66514,-0.0908612,9.78729,0.0347103,-0.616992,0.983176,-0.00665076,-0.000916489,0.0978729,1,3.976e-05,3.189e-06,7.08005e-06,0.007952,0.0006378,0.00141601,0.999444,7.23363e-05,0.0333363,0.00121458,0.0870762,0.52736,-0.978564,33.875,1,17428,8414179
117,9,0.999444,7.23363e-05,0.0333363,0.00121458,-0.66514,-0.0908612,9.78729,0.0347103,-0.616992,0.983176,-0.00665076,-0.000916489,0.0978729,1,3.976e-05,3.189e-06,7.08005e-06,0.007952,0.0006378,0.00141601,0.999444,7.23363e-05,0.0333363,0.00121458,0.0870762,0.52736,-0.978564,33.875,1,17428,8414179
117,10,0.999444,7.23363e-05,0.0333363,0.00121458,-0.66514,-0.0908612,9.78729,0.0347103,-0.616992,0.983176,-0.00665076,-0.000916489,0.0978729,1,3.976e-05,3.189e-06,7.08005e-06,0.007952,0.0006378,0.00141601,0.999444,7.23363e-05,0.0333363,0.00121458,0.0870762,0.52736,-0.978564,33.875,1,17428,8414179
118,1,0.999443,7.91508e-05,0.033339,0.00121187,-0.661355,-0.081071,9.79347,0.0430716,-0.609861,0.984263,-0.00661364,-0.000815297,0.0979346,1,2.28715e-05,-5.02917e-07,8.09128e-06,0.00457429,-0.000100583,0.00161826,0.999443,7.91508e-05,0.033339,0.00121187,0.0865172,0.528384,-0.981063,33.875,1,17429,8414279
118,2,0.999443,7.91508e-05,0.033339,0.00121187,-0.661355,-0.081071,9.79347,0.0430716,-0.609861,0.984263,-0.00661364,-0.000815297,0.0979346,1,2.28715e-05,-5.02917e-07,8.09128e-06,0.00457429,-0.000100583,0.00161826,0.999443,7.91508e-05,0.033339,0.00121187,0.0865172,0.528384,-0.981063,33.875,1,17429,8414279
118,3,0.999443,7.91508e-05,0.033339,0.00121187,-0.661355,-0.081071,9.79347,0.0430716,-0.609861,0.984263,-0.00661364,-0.000815297,0.0979346,1,2.28715e-05,-5.02917e-07,8.09128e-06,0.00457429,-0.000100583,0.00161826,0.999443,7.91508e-05,0.033339,0.00121187,0.0865172,0.528384,-0.981063,33.875,1,17429,8414279
118,4,0.999444,9.54403e-05,0.0333241,0.00121571,-0.672439,-0.0813852,9.79524,0.028663,-0.610233,0.989877,-0.00672795,-0.000821762,0.0979521,1,3.97154e-05,-1.82556e-05,9.64484e-06,0.00794308,-0.00365113,0.00192897,0.999444,9.54403e-05,0.0333241,0.00121571,0.0859578,0.527964,-0.984606,33.875,1,17430,8414379
118,5,0.999444,9.54403e-05,0.0333241,0.00121571,-0.672439,-0.0813852,9.79524,0.028663,-0.610233,0.989877,-0.00672795,-0.000821762,0.0979521,1,3.97154e-05,-1.82556e-05,9.64484e-06,0.00794308,-0.00365113,0.00192897,0.999444,9.54403e-05,0.0333241,0.00121571,0.0859578,0.527964,-0.984606,33.875,1,17430,8414379
