frame_id,subframe_id,acc_x,acc_y,acc_z,gyro_x,gyro_y,gyro_z,mag_x,mag_y,mag_z,roll,pitch,yaw
1,0,1.0383292436599734,-0.038318727165460593,9.74648189544678,0.02642358280718327,-0.03969220817089081,-0.0057629221118986615,-0.47245490550994873,0.6518818140029907,-0.8675348162651063,0.46429958957388157,3.843538490612174,0.14779323675654282,,,,,,
1,1,1.0383292436599734,-0.038318727165460593,9.74648189544678,0.02642358280718327,-0.03969220817089081,-0.0057629221118986615,-0.47245490550994873,0.6518818140029907,-0.8675348162651063,0.46429958957388157,3.843538490612174,0.14779323675654282,,,,,,
1,2,1.0383292436599734,-0.038318727165460593,9.74648189544678,0.02642358280718327,-0.03969220817089081,-0.0057629221118986615,-0.47245490550994873,0.6518818140029907,-0.8675348162651063,0.46429958957388157,3.843538490612174,0.14779323675654282,,,,,,
1,3,1.0383292436599734,-0.038318727165460593,9.74648189544678,0.02642358280718327,-0.03969220817089081,-0.0057629221118986615,-0.47245490550994873,0.6518818140029907,-0.8675348162651063,0.46429958957388157,3.843538490612174,0.14779323675654282,,,,,,
1,4,1.0383292436599734,-0.038318727165460593,9.74648189544678,0.02642358280718327,-0.03969220817089081,-0.0057629221118986615,-0.47245490550994873,0.6518818140029907,-0.8675348162651063,0.46429958957388157,3.843538490612174,0.14779323675654282,,,,,,
1,5,-0.5477914810180664,-0.6059553027153016,9.6878137588501,-0.00749366031959653,-0.016536593437194824,-0.001118299551308155,-0.4760556221008301,0.6435405611991883,-0.8631580471992494,0.4649872927107333,3.7980276819057277,0.12379093588863985,,,,,,
1,6,-0.5477914810180664,-0.6059553027153016,9.6878137588501,-0.00749366031959653,-0.016536593437194824,-0.001118299551308155,-0.4760556221008301,0.6435405611991883,-0.8631580471992494,0.4649872927107333,3.7980276819057277,0.12379093588863985,,,,,,
1,7,-0.5477914810180664,-0.6059553027153016,9.6878137588501,-0.00749366031959653,-0.016536593437194824,-0.001118299551308155,-0.4760556221008301,0.6435405611991883,-0.8631580471992494,0.4649872927107333,3.7980276819057277,0.12379093588863985,,,,,,
1,8,2.395771741867066,0.05285965278744698,10.13969135284424,0.002908223308622837,-0.040381111204624176,0.008971323259174825,-0.47287008166313177,0.6523194909095765,-0.8644928336143495,0.4634242013687165,3.7204808570433556,0.12863206078298392,,,,,,
1,9,1.0923451185226443,0.11740601807832719,10.161761283874513,0.03441517427563668,-0.02690064162015915,-0.0017714726272970438,-0.4752604365348816,0.6484733819961548,-0.8665874600410463,0.47965665362708926,3.6705636264188395,0.12424997425321198,,,,,,
1,10,1.268496870994568,0.22624351084232333,9.596412658691406,0.019210400059819225,-0.030881617218255997,-0.012993461452424528,-0.4775274395942688,0.6445371508598329,-0.8636341691017152,0.4843453198155371,3.6376588919418626,0.11512172260542185,,,,,,
1,11,1.268496870994568,0.22624351084232333,9.596412658691406,0.019210400059819225,-0.030881617218255997,-0.012993461452424528,-0.4775274395942688,0.6445371508598329,-0.8636341691017152,0.4843453198155371,3.6376588919418626,0.11512172260542185,,,,,,
1,12,1.268496870994568,0.22624351084232333,9.596412658691406,0.019210400059819225,-0.030881617218255997,-0.012993461452424528,-0.4775274395942688,0.6445371508598329,-0.8636341691017152,0.4843453198155371,3.6376588919418626,0.11512172260542185,,,,,,
1,13,1.9171841144561768,-0.31011801958084106,10.194679260253906,0.030237799510359768,-0.013783670961856842,-0.0031349221244454384,-0.4816905558109284,0.6521610617637635,-0.8513240814208984,0.4848691322194221,3.527230438291209,0.10568605431003232,,,,,,
1,14,1.9171841144561768,-0.31011801958084106,10.194679260253906,0.030237799510359768,-0.013783670961856842,-0.0031349221244454384,-0.4816905558109284,0.6521610617637635,-0.8513240814208984,0.4848691322194221,3.527230438291209,0.10568605431003232,,,,,,
1,15,1.9171841144561768,-0.31011801958084106,10.194679260253906,0.030237799510359768,-0.013783670961856842,-0.0031349221244454384,-0.4816905558109284,0.6521610617637635,-0.8513240814208984,0.4848691322194221,3.527230438291209,0.10568605431003232,,,,,,
1,16,1.298546552658081,0.27285003662109375,9.584768295288086,0.025452274829149246,-0.0200751293450594,-0.005073909647762775,-0.4823073744773865,0.6522642374038696,-0.8568745851516724,0.4927797578653511,3.49438521766744,0.1010209871468981,,,,,,
1,17,1.701940417289734,0.11874634027481079,10.029375076293945,0.002770048100501299,-0.0203147791326046,0.00026655921828933066,-0.4827519357204438,0.6507959365844727,-0.8564000725746156,0.4881662508369185,3.460140721573287,0.09950749517511896,,,,,,
1,18,1.392080903053284,-0.02020838670432568,9.852855682373047,0.018806487321853638,-0.01309338863939047,-0.008802296593785286,-0.48260864615440374,0.6487637162208558,-0.8519003987312318,0.4925747340155474,3.4285133250886277,0.09287420300386258,,,,,,
1,19,1.039960026741028,-0.24047692120075229,9.916898727416992,0.017263421788811687,0.0006262089009396733,-0.005328971892595291,-0.473680466413498,0.6512527465820312,-0.858957052230835,0.49377350619641786,3.339583845285661,0.07780327954642913,,,,,,
1,20,1.039960026741028,-0.24047692120075229,9.916898727416992,0.017263421788811687,0.0006262089009396733,-0.005328971892595291,-0.473680466413498,0.6512527465820312,-0.858957052230835,0.49377350619641786,3.339583845285661,0.07780327954642913,,,,,,
1,21,1.039960026741028,-0.24047692120075229,9.916898727416992,0.017263421788811687,0.0006262089009396733,-0.005328971892595291,-0.473680466413498,0.6512527465820312,-0.858957052230835,0.49377350619641786,3.339583845285661,0.07780327954642913,,,,,,
1,22,1.0200825929641726,-0.15332257747650146,10.394629478454592,0.015286083333194258,0.0139906145632267,-0.0034301492851227526,-0.47574442625045776,0.652334451675415,-0.8639740943908691,0.49639233785599585,3.3190873624153365,0.0744203784663322,,,,,,
1,23,0.4062090516090393,0.16850985586643222,9.640678405761719,0.018911123275756836,0.02321204356849194,-0.005703144241124392,-0.4795534610748291,0.6484823226928711,-0.865052342414856,0.5009219482578928,3.303038668176703,0.0697561485029841,,,,,,
1,24,1.3936244249343874,-0.5030206441879272,10.4546594619751,0.02054208517074585,0.008144079707562925,-0.00964697077870369,-0.4796394109725952,0.6496431231498719,-0.8478540182113647,0.5007633793008807,3.2132535693470605,0.04718961138928362,,,,,,
1,25,1.0568962097167969,-0.13052192330360413,9.89565181732178,0.0030357220675796275,-0.003151669399812818,0.00032655009999871254,-0.4756347835063935,0.6479174494743348,-0.8625576496124268,0.4956168898759103,3.1242225221833033,0.03464199765460463,,,,,,
1,26,1.0568962097167969,-0.13052192330360413,9.89565181732178,0.0030357220675796275,-0.003151669399812818,0.00032655009999871254,-0.4756347835063935,0.6479174494743348,-0.8625576496124268,0.4956168898759103,3.1242225221833033,0.03464199765460463,,,,,,
1,27,1.0568962097167969,-0.13052192330360413,9.89565181732178,0.0030357220675796275,-0.003151669399812818,0.00032655009999871254,-0.4756347835063935,0.6479174494743348,-0.8625576496124268,0.4956168898759103,3.1242225221833033,0.03464199765460463,,,,,,
1,28,1.0568962097167969,-0.13052192330360413,9.89565181732178,0.0030357220675796275,-0.003151669399812818,0.00032655009999871254,-0.4756347835063935,0.6479174494743348,-0.8625576496124268,0.4956168898759103,3.1242225221833033,0.03464199765460463,,,,,,
1,29,1.0568962097167969,-0.13052192330360413,9.89565181732178,0.0030357220675796275,-0.003151669399812818,0.00032655009999871254,-0.4756347835063935,0.6479174494743348,-0.8625576496124268,0.4956168898759103,3.1242225221833033,0.03464199765460463,,,,,,
1,30,0.8790792822837831,-0.4973218739032746,9.866235733032227,0.011704086326062681,-0.0014479828532785177,0.00020587445760611447,-0.47834923863410955,0.6463699936866761,-0.8565187454223633,0.4960461707204953,3.0896873007688175,0.0332161729771628,,,,,,
1,31,0.9799236655235292,0.3082773685455322,10.095378875732422,0.01793146319687367,-0.008260967209935188,-0.0021309638395905495,-0.479167252779007,0.6472363471984863,-0.849929928779602,0.4996012560176013,3.050735831403659,0.03031920139601534,,,,,,
1,32,0.5702449679374696,-0.12773528695106506,9.817509651184084,-0.0004486172983888537,-0.0030672855209559207,-0.008715502917766571,-0.47825160622596746,0.6559360623359681,-0.8457003235816957,0.48213785207522264,2.975980964711963,0.019084676037052835,,,,,,
1,33,0.5702449679374696,-0.12773528695106506,9.817509651184084,-0.0004486172983888537,-0.0030672855209559207,-0.008715502917766571,-0.47825160622596746,0.6559360623359681,-0.8457003235816957,0.48213785207522264,2.975980964711963,0.019084676037052835,,,,,,
1,34,0.7759910821914673,-0.03343423455953598,9.820680618286133,-0.011045128107070923,-0.004263086710125209,-0.007780218031257392,-0.4774587452411652,0.6536424756050111,-0.8543410301208496,0.46619250651493416,2.8895163243795334,0.005517320393116045,,,,,,
1,35,0.7759910821914673,-0.03343423455953598,9.820680618286133,-0.011045128107070923,-0.004263086710125209,-0.007780218031257392,-0.4774587452411652,0.6536424756050111,-0.8543410301208496,0.46619250651493416,2.8895163243795334,0.005517320393116045,,,,,,
1,36,1.0950084924697878,-0.304898351430893,9.983119010925295,-0.0040855477564036855,-0.013057110831141472,0.0027367018628865485,-0.4793105721473694,0.6492685675621034,-0.8544296622276307,0.457973262230683,2.8453097801914518,0.005587837441048071,,,,,,
1,37,0.8682494759559632,-0.4326794147491455,9.954442024230959,0.02835132367908955,0.0022625746205449104,0.0012406053720042112,-0.47963753342628485,0.6554242372512817,-0.8436850905418397,0.4643671524737357,2.775163616879228,0.004708320449064461,,,,,,
1,38,0.8682494759559632,-0.4326794147491455,9.954442024230959,0.02835132367908955,0.0022625746205449104,0.0012406053720042112,-0.47963753342628485,0.6554242372512817,-0.8436850905418397,0.4643671524737357,2.775163616879228,0.004708320449064461,,,,,,
1,39,1.332742691040039,0.6673612594604492,10.313653945922852,0.03475345298647881,-0.0032938250806182627,-0.005231390707194805,-0.4788693487644196,0.6531486511230469,-0.8533353209495546,0.4898216582397623,2.666924401372982,-0.0031498742648299297,,,,,,
1,40,1.332742691040039,0.6673612594604492,10.313653945922852,0.03475345298647881,-0.0032938250806182627,-0.005231390707194805,-0.4788693487644196,0.6531486511230469,-0.8533353209495546,0.4898216582397623,2.666924401372982,-0.0031498742648299297,,,,,,
2,0,1.0383292436599734,-0.038318727165460593,9.74648189544678,0.02642358280718327,-0.03969220817089081,-0.0057629221118986615,-0.47245490550994873,0.6518818140029907,-0.8675348162651063,0.46429958957388157,3.843538490612174,0.14779323675654282,,,,,,
2,1,1.0383292436599734,-0.038318727165460593,9.74648189544678,0.02642358280718327,-0.03969220817089081,-0.0057629221118986615,-0.47245490550994873,0.6518818140029907,-0.8675348162651063,0.46429958957388157,3.843538490612174,0.14779323675654282,,,,,,
2,2,1.0383292436599734,-0.038318727165460593,9.74648189544678,0.02642358280718327,-0.03969220817089081,-0.0057629221118986615,-0.47245490550994873,0.6518818140029907,-0.8675348162651063,0.46429958957388157,3.843538490612174,0.14779323675654282,,,,,,
2,3,1.0383292436599734,-0.038318727165460593,9.74648189544678,0.02642358280718327,-0.03969220817089081,-0.0057629221118986615,-0.47245490550994873,0.6518818140029907,-0.8675348162651063,0.46429958957388157,3.843538490612174,0.14779323675654282,,,,,,
2,4,1.0383292436599734,-0.038318727165460593,9.74648189544678,0.02642358280718327,-0.03969220817089081,-0.0057629221118986615,-0.47245490550994873,0.6518818140029907,-0.8675348162651063,0.46429958957388157,3.843538490612174,0.14779323675654282,,,,,,
2,5,-0.5477914810180664,-0.6059553027153016,9.6878137588501,-0.00749366031959653,-0.016536593437194824,-0.001118299551308155,-0.4760556221008301,0.6435405611991883,-0.8631580471992494,0.4649872927107333,3.7980276819057277,0.12379093588863985,,,,,,
2,6,-0.5477914810180664,-0.6059553027153016,9.6878137588501,-0.00749366031959653,-0.016536593437194824,-0.001118299551308155,-0.4760556221008301,0.6435405611991883,-0.8631580471992494,0.4649872927107333,3.7980276819057277,0.12379093588863985,,,,,,
2,7,-0.5477914810180664,-0.6059553027153016,9.6878137588501,-0.00749366031959653,-0.016536593437194824,-0.001118299551308155,-0.4760556221008301,0.6435405611991883,-0.8631580471992494,0.4649872927107333,3.7980276819057277,0.12379093588863985,,,,,,
2,8,2.395771741867066,0.05285965278744698,10.13969135284424,0.002908223308622837,-0.040381111204624176,0.008971323259174825,-0.47287008166313177,0.6523194909095765,-0.8644928336143495,0.4634242013687165,3.7204808570433556,0.12863206078298392,,,,,,
2,9,1.0923451185226443,0.11740601807832719,10.161761283874513,0.03441517427563668,-0.02690064162015915,-0.0017714726272970438,-0.4752604365348816,0.6484733819961548,-0.8665874600410463,0.47965665362708926,3.6705636264188395,0.12424997425321198,,,,,,
2,10,1.268496870994568,0.22624351084232333,9.596412658691406,0.019210400059819225,-0.030881617218255997,-0.012993461452424528,-0.4775274395942688,0.6445371508598329,-0.8636341691017152,0.4843453198155371,3.6376588919418626,0.11512172260542185,,,,,,
2,11,1.268496870994568,0.22624351084232333,9.596412658691406,0.019210400059819225,-0.030881617218255997,-0.012993461452424528,-0.4775274395942688,0.6445371508598329,-0.8636341691017152,0.4843453198155371,3.6376588919418626,0.11512172260542185,,,,,,
2,12,1.268496870994568,0.22624351084232333,9.596412658691406,0.019210400059819225,-0.030881617218255997,-0.012993461452424528,-0.4775274395942688,0.6445371508598329,-0.8636341691017152,0.4843453198155371,3.6376588919418626,0.11512172260542185,,,,,,
2,13,1.9171841144561768,-0.31011801958084106,10.194679260253906,0.030237799510359768,-0.013783670961856842,-0.0031349221244454384,-0.4816905558109284,0.6521610617637635,-0.8513240814208984,0.4848691322194221,3.527230438291209,0.10568605431003232,,,,,,
2,14,1.9171841144561768,-0.31011801958084106,10.194679260253906,0.030237799510359768,-0.013783670961856842,-0.0031349221244454384,-0.4816905558109284,0.6521610617637635,-0.8513240814208984,0.4848691322194221,3.527230438291209,0.10568605431003232,,,,,,
2,15,1.9171841144561768,-0.31011801958084106,10.194679260253906,0.030237799510359768,-0.013783670961856842,-0.0031349221244454384,-0.4816905558109284,0.6521610617637635,-0.8513240814208984,0.4848691322194221,3.527230438291209,0.10568605431003232,,,,,,
2,16,1.298546552658081,0.27285003662109375,9.584768295288086,0.025452274829149246,-0.0200751293450594,-0.005073909647762775,-0.4823073744773865,0.6522642374038696,-0.8568745851516724,0.4927797578653511,3.49438521766744,0.1010209871468981,,,,,,
2,17,1.701940417289734,0.11874634027481079,10.029375076293945,0.002770048100501299,-0.0203147791326046,0.00026655921828933066,-0.4827519357204438,0.6507959365844727,-0.8564000725746156,0.4881662508369185,3.460140721573287,0.09950749517511896,,,,,,
2,18,1.392080903053284,-0.02020838670432568,9.852855682373047,0.018806487321853638,-0.01309338863939047,-0.008802296593785286,-0.48260864615440374,0.6487637162208558,-0.8519003987312318,0.4925747340155474,3.4285133250886277,0.09287420300386258,,,,,,
2,19,1.039960026741028,-0.24047692120075229,9.916898727416992,0.017263421788811687,0.0006262089009396733,-0.005328971892595291,-0.473680466413498,0.6512527465820312,-0.858957052230835,0.49377350619641786,3.339583845285661,0.07780327954642913,,,,,,
2,20,1.039960026741028,-0.24047692120075229,9.916898727416992,0.017263421788811687,0.0006262089009396733,-0.005328971892595291,-0.473680466413498,0.6512527465820312,-0.858957052230835,0.49377350619641786,3.339583845285661,0.07780327954642913,,,,,,
2,21,1.039960026741028,-0.24047692120075229,9.916898727416992,0.017263421788811687,0.0006262089009396733,-0.005328971892595291,-0.473680466413498,0.6512527465820312,-0.858957052230835,0.49377350619641786,3.339583845285661,0.07780327954642913,,,,,,
2,22,1.0200825929641726,-0.15332257747650146,10.394629478454592,0.015286083333194258,0.0139906145632267,-0.0034301492851227526,-0.47574442625045776,0.652334451675415,-0.8639740943908691,0.49639233785599585,3.3190873624153365,0.0744203784663322,,,,,,
2,23,0.4062090516090393,0.16850985586643222,9.640678405761719,0.018911123275756836,0.02321204356849194,-0.005703144241124392,-0.4795534610748291,0.6484823226928711,-0.865052342414856,0.5009219482578928,3.303038668176703,0.0697561485029841,,,,,,
2,24,1.3936244249343874,-0.5030206441879272,10.4546594619751,0.02054208517074585,0.008144079707562925,-0.00964697077870369,-0.4796394109725952,0.6496431231498719,-0.8478540182113647,0.5007633793008807,3.2132535693470605,0.04718961138928362,,,,,,
2,25,1.0568962097167969,-0.13052192330360413,9.89565181732178,0.0030357220675796275,-0.003151669399812818,0.00032655009999871254,-0.4756347835063935,0.6479174494743348,-0.8625576496124268,0.4956168898759103,3.1242225221833033,0.03464199765460463,,,,,,
2,26,1.0568962097167969,-0.13052192330360413,9.89565181732178,0.0030357220675796275,-0.003151669399812818,0.00032655009999871254,-0.4756347835063935,0.6479174494743348,-0.8625576496124268,0.4956168898759103,3.1242225221833033,0.03464199765460463,,,,,,
2,27,1.0568962097167969,-0.13052192330360413,9.89565181732178,0.0030357220675796275,-0.003151669399812818,0.00032655009999871254,-0.4756347835063935,0.6479174494743348,-0.8625576496124268,0.4956168898759103,3.1242225221833033,0.03464199765460463,,,,,,
2,28,1.0568962097167969,-0.13052192330360413,9.89565181732178,0.0030357220675796275,-0.003151669399812818,0.00032655009999871254,-0.4756347835063935,0.6479174494743348,-0.8625576496124268,0.4956168898759103,3.1242225221833033,0.03464199765460463,,,,,,
2,29,1.0568962097167969,-0.13052192330360413,9.89565181732178,0.0030357220675796275,-0.003151669399812818,0.00032655009999871254,-0.4756347835063935,0.6479174494743348,-0.8625576496124268,0.4956168898759103,3.1242225221833033,0.03464199765460463,,,,,,
2,30,0.8790792822837831,-0.4973218739032746,9.866235733032227,0.011704086326062681,-0.0014479828532785177,0.00020587445760611447,-0.47834923863410955,0.6463699936866761,-0.8565187454223633,0.4960461707204953,3.0896873007688175,0.0332161729771628,,,,,,
2,31,0.9799236655235292,0.3082773685455322,10.095378875732422,0.01793146319687367,-0.008260967209935188,-0.0021309638395905495,-0.479167252779007,0.6472363471984863,-0.849929928779602,0.4996012560176013,3.050735831403659,0.03031920139601534,,,,,,
2,32,0.5702449679374696,-0.12773528695106506,9.817509651184084,-0.0004486172983888537,-0.0030672855209559207,-0.008715502917766571,-0.47825160622596746,0.6559360623359681,-0.8457003235816957,0.48213785207522264,2.975980964711963,0.019084676037052835,,,,,,
2,33,0.5702449679374696,-0.12773528695106506,9.817509651184084,-0.0004486172983888537,-0.0030672855209559207,-0.008715502917766571,-0.47825160622596746,0.6559360623359681,-0.8457003235816957,0.48213785207522264,2.975980964711963,0.019084676037052835,,,,,,
2,34,0.7759910821914673,-0.03343423455953598,9.820680618286133,-0.011045128107070923,-0.004263086710125209,-0.007780218031257392,-0.4774587452411652,0.6536424756050111,-0.8543410301208496,0.46619250651493416,2.8895163243795334,0.005517320393116045,,,,,,
2,35,0.7759910821914673,-0.03343423455953598,9.820680618286133,-0.011045128107070923,-0.004263086710125209,-0.007780218031257392,-0.4774587452411652,0.6536424756050111,-0.8543410301208496,0.46619250651493416,2.8895163243795334,0.005517320393116045,,,,,,
2,36,1.0950084924697878,-0.304898351430893,9.983119010925295,-0.0040855477564036855,-0.013057110831141472,0.0027367018628865485,-0.4793105721473694,0.6492685675621034,-0.8544296622276307,0.457973262230683,2.8453097801914518,0.005587837441048071,,,,,,
2,37,0.8682494759559632,-0.4326794147491455,9.954442024230959,0.02835132367908955,0.0022625746205449104,0.0012406053720042112,-0.47963753342628485,0.6554242372512817,-0.8436850905418397,0.4643671524737357,2.775163616879228,0.004708320449064461,,,,,,
2,38,0.8682494759559632,-0.4326794147491455,9.954442024230959,0.02835132367908955,0.0022625746205449104,0.0012406053720042112,-0.47963753342628485,0.6554242372512817,-0.8436850905418397,0.4643671524737357,2.775163616879228,0.004708320449064461,,,,,,
2,39,1.332742691040039,0.6673612594604492,10.313653945922852,0.03475345298647881,-0.0032938250806182627,-0.005231390707194805,-0.4788693487644196,0.6531486511230469,-0.8533353209495546,0.4898216582397623,2.666924401372982,-0.0031498742648299297,,,,,,
2,40,1.332742691040039,0.6673612594604492,10.313653945922852,0.03475345298647881,-0.0032938250806182627,-0.005231390707194805,-0.4788693487644196,0.6531486511230469,-0.8533353209495546,0.4898216582397623,2.666924401372982,-0.0031498742648299297,,,,,,
3,0,1.0383292436599734,-0.038318727165460593,9.74648189544678,0.02642358280718327,-0.03969220817089081,-0.0057629221118986615,-0.47245490550994873,0.6518818140029907,-0.8675348162651063,0.46429958957388157,3.843538490612174,0.14779323675654282,,,,,,
3,1,1.0383292436599734,-0.038318727165460593,9.74648189544678,0.02642358280718327,-0.03969220817089081,-0.0057629221118986615,-0.47245490550994873,0.6518818140029907,-0.8675348162651063,0.46429958957388157,3.843538490612174,0.14779323675654282,,,,,,
3,2,1.0383292436599734,-0.038318727165460593,9.74648189544678,0.02642358280718327,-0.03969220817089081,-0.0057629221118986615,-0.47245490550994873,0.6518818140029907,-0.8675348162651063,0.46429958957388157,3.843538490612174,0.14779323675654282,,,,,,
3,3,1.0383292436599734,-0.038318727165460593,9.74648189544678,0.02642358280718327,-0.03969220817089081,-0.0057629221118986615,-0.47245490550994873,0.6518818140029907,-0.8675348162651063,0.46429958957388157,3.843538490612174,0.14779323675654282,,,,,,
3,4,1.0383292436599734,-0.038318727165460593,9.74648189544678,0.02642358280718327,-0.03969220817089081,-0.0057629221118986615,-0.47245490550994873,0.6518818140029907,-0.8675348162651063,0.46429958957388157,3.843538490612174,0.14779323675654282,,,,,,
3,5,-0.5477914810180664,-0.6059553027153016,9.6878137588501,-0.00749366031959653,-0.016536593437194824,-0.001118299551308155,-0.4760556221008301,0.6435405611991883,-0.8631580471992494,0.4649872927107333,3.7980276819057277,0.12379093588863985,,,,,,
3,6,-0.5477914810180664,-0.6059553027153016,9.6878137588501,-0.00749366031959653,-0.016536593437194824,-0.001118299551308155,-0.4760556221008301,0.6435405611991883,-0.8631580471992494,0.4649872927107333,3.7980276819057277,0.12379093588863985,,,,,,
3,7,-0.5477914810180664,-0.6059553027153016,9.6878137588501,-0.00749366031959653,-0.016536593437194824,-0.001118299551308155,-0.4760556221008301,0.6435405611991883,-0.8631580471992494,0.4649872927107333,3.7980276819057277,0.12379093588863985,,,,,,
3,8,2.395771741867066,0.05285965278744698,10.13969135284424,0.002908223308622837,-0.040381111204624176,0.008971323259174825,-0.47287008166313177,0.6523194909095765,-0.8644928336143495,0.4634242013687165,3.7204808570433556,0.12863206078298392,,,,,,
3,9,1.0923451185226443,0.11740601807832719,10.161761283874513,0.03441517427563668,-0.02690064162015915,-0.0017714726272970438,-0.4752604365348816,0.6484733819961548,-0.8665874600410463,0.47965665362708926,3.6705636264188395,0.12424997425321198,,,,,,
3,10,1.268496870994568,0.22624351084232333,9.596412658691406,0.019210400059819225,-0.030881617218255997,-0.012993461452424528,-0.4775274395942688,0.6445371508598329,-0.8636341691017152,0.4843453198155371,3.6376588919418626,0.11512172260542185,,,,,,
3,11,1.268496870994568,0.22624351084232333,9.596412658691406,0.019210400059819225,-0.030881617218255997,-0.012993461452424528,-0.4775274395942688,0.6445371508598329,-0.8636341691017152,0.4843453198155371,3.6376588919418626,0.11512172260542185,,,,,,
3,12,1.268496870994568,0.22624351084232333,9.596412658691406,0.019210400059819225,-0.030881617218255997,-0.012993461452424528,-0.4775274395942688,0.6445371508598329,-0.8636341691017152,0.4843453198155371,3.6376588919418626,0.11512172260542185,,,,,,
3,13,1.9171841144561768,-0.31011801958084106,10.194679260253906,0.030237799510359768,-0.013783670961856842,-0.0031349221244454384,-0.4816905558109284,0.6521610617637635,-0.8513240814208984,0.4848691322194221,3.527230438291209,0.10568605431003232,,,,,,
3,14,1.9171841144561768,-0.31011801958084106,10.194679260253906,0.030237799510359768,-0.013783670961856842,-0.0031349221244454384,-0.4816905558109284,0.6521610617637635,-0.8513240814208984,0.4848691322194221,3.527230438291209,0.10568605431003232,,,,,,
3,15,1.9171841144561768,-0.31011801958084106,10.194679260253906,0.030237799510359768,-0.013783670961856842,-0.0031349221244454384,-0.4816905558109284,0.6521610617637635,-0.8513240814208984,0.4848691322194221,3.527230438291209,0.10568605431003232,,,,,,
3,16,1.298546552658081,0.27285003662109375,9.584768295288086,0.025452274829149246,-0.0200751293450594,-0.005073909647762775,-0.4823073744773865,0.6522642374038696,-0.8568745851516724,0.4927797578653511,3.49438521766744,0.1010209871468981,,,,,,
3,17,1.701940417289734,0.11874634027481079,10.029375076293945,0.002770048100501299,-0.0203147791326046,0.00026655921828933066,-0.4827519357204438,0.6507959365844727,-0.8564000725746156,0.4881662508369185,3.460140721573287,0.09950749517511896,,,,,,
3,18,1.392080903053284,-0.02020838670432568,9.852855682373047,0.018806487321853638,-0.01309338863939047,-0.008802296593785286,-0.48260864615440374,0.6487637162208558,-0.8519003987312318,0.4925747340155474,3.4285133250886277,0.09287420300386258,,,,,,
3,19,1.039960026741028,-0.24047692120075229,9.916898727416992,0.017263421788811687,0.0006262089009396733,-0.005328971892595291,-0.473680466413498,0.6512527465820312,-0.858957052230835,0.49377350619641786,3.339583845285661,0.07780327954642913,,,,,,
3,20,1.039960026741028,-0.24047692120075229,9.916898727416992,0.017263421788811687,0.0006262089009396733,-0.005328971892595291,-0.473680466413498,0.6512527465820312,-0.858957052230835,0.49377350619641786,3.339583845285661,0.07780327954642913,,,,,,
3,21,1.039960026741028,-0.24047692120075229,9.916898727416992,0.017263421788811687,0.0006262089009396733,-0.005328971892595291,-0.473680466413498,0.6512527465820312,-0.858957052230835,0.49377350619641786,3.339583845285661,0.07780327954642913,,,,,,
3,22,1.0200825929641726,-0.15332257747650146,10.394629478454592,0.015286083333194258,0.0139906145632267,-0.0034301492851227526,-0.47574442625045776,0.652334451675415,-0.8639740943908691,0.49639233785599585,3.3190873624153365,0.0744203784663322,,,,,,
3,23,0.4062090516090393,0.16850985586643222,9.640678405761719,0.018911123275756836,0.02321204356849194,-0.005703144241124392,-0.4795534610748291,0.6484823226928711,-0.865052342414856,0.5009219482578928,3.303038668176703,0.0697561485029841,,,,,,
3,24,1.3936244249343874,-0.5030206441879272,10.4546594619751,0.02054208517074585,0.008144079707562925,-0.00964697077870369,-0.4796394109725952,0.6496431231498719,-0.8478540182113647,0.5007633793008807,3.2132535693470605,0.04718961138928362,,,,,,
3,25,1.0568962097167969,-0.13052192330360413,9.89565181732178,0.0030357220675796275,-0.003151669399812818,0.00032655009999871254,-0.4756347835063935,0.6479174494743348,-0.8625576496124268,0.4956168898759103,3.1242225221833033,0.03464199765460463,,,,,,
3,26,1.0568962097167969,-0.13052192330360413,9.89565181732178,0.0030357220675796275,-0.003151669399812818,0.00032655009999871254,-0.4756347835063935,0.6479174494743348,-0.8625576496124268,0.4956168898759103,3.1242225221833033,0.03464199765460463,,,,,,
3,27,1.0568962097167969,-0.13052192330360413,9.89565181732178,0.0030357220675796275,-0.003151669399812818,0.00032655009999871254,-0.4756347835063935,0.6479174494743348,-0.8625576496124268,0.4956168898759103,3.1242225221833033,0.03464199765460463,,,,,,
3,28,1.0568962097167969,-0.13052192330360413,9.89565181732178,0.0030357220675796275,-0.003151669399812818,0.00032655009999871254,-0.4756347835063935,0.6479174494743348,-0.8625576496124268,0.4956168898759103,3.1242225221833033,0.03464199765460463,,,,,,
3,29,1.0568962097167969,-0.13052192330360413,9.89565181732178,0.0030357220675796275,-0.003151669399812818,0.00032655009999871254,-0.4756347835063935,0.6479174494743348,-0.8625576496124268,0.4956168898759103,3.1242225221833033,0.03464199765460463,,,,,,
3,30,0.8790792822837831,-0.4973218739032746,9.866235733032227,0.011704086326062681,-0.0014479828532785177,0.00020587445760611447,-0.47834923863410955,0.6463699936866761,-0.8565187454223633,0.4960461707204953,3.0896873007688175,0.0332161729771628,,,,,,
3,31,0.9799236655235292,0.3082773685455322,10.095378875732422,0.01793146319687367,-0.008260967209935188,-0.0021309638395905495,-0.479167252779007,0.6472363471984863,-0.849929928779602,0.4996012560176013,3.050735831403659,0.03031920139601534,,,,,,
3,32,0.5702449679374696,-0.12773528695106506,9.817509651184084,-0.0004486172983888537,-0.0030672855209559207,-0.008715502917766571,-0.47825160622596746,0.6559360623359681,-0.8457003235816957,0.48213785207522264,2.975980964711963,0.019084676037052835,,,,,,
3,33,0.5702449679374696,-0.12773528695106506,9.817509651184084,-0.0004486172983888537,-0.0030672855209559207,-0.008715502917766571,-0.47825160622596746,0.6559360623359681,-0.8457003235816957,0.48213785207522264,2.975980964711963,0.019084676037052835,,,,,,
3,34,0.7759910821914673,-0.03343423455953598,9.820680618286133,-0.011045128107070923,-0.004263086710125209,-0.007780218031257392,-0.4774587452411652,0.6536424756050111,-0.8543410301208496,0.46619250651493416,2.8895163243795334,0.005517320393116045,,,,,,
3,35,0.7759910821914673,-0.03343423455953598,9.820680618286133,-0.011045128107070923,-0.004263086710125209,-0.007780218031257392,-0.4774587452411652,0.6536424756050111,-0.8543410301208496,0.46619250651493416,2.8895163243795334,0.005517320393116045,,,,,,
3,36,1.0950084924697878,-0.304898351430893,9.983119010925295,-0.0040855477564036855,-0.013057110831141472,0.0027367018628865485,-0.4793105721473694,0.6492685675621034,-0.8544296622276307,0.457973262230683,2.8453097801914518,0.005587837441048071,,,,,,
3,37,0.8682494759559632,-0.4326794147491455,9.954442024230959,0.02835132367908955,0.0022625746205449104,0.0012406053720042112,-0.47963753342628485,0.6554242372512817,-0.8436850905418397,0.4643671524737357,2.775163616879228,0.004708320449064461,,,,,,
3,38,0.8682494759559632,-0.4326794147491455,9.954442024230959,0.02835132367908955,0.0022625746205449104,0.0012406053720042112,-0.47963753342628485,0.6554242372512817,-0.8436850905418397,0.4643671524737357,2.775163616879228,0.004708320449064461,,,,,,
3,39,1.332742691040039,0.6673612594604492,10.313653945922852,0.03475345298647881,-0.0032938250806182627,-0.005231390707194805,-0.4788693487644196,0.6531486511230469,-0.8533353209495546,0.4898216582397623,2.666924401372982,-0.0031498742648299297,,,,,,
3,40,1.332742691040039,0.6673612594604492,10.313653945922852,0.03475345298647881,-0.0032938250806182627,-0.005231390707194805,-0.4788693487644196,0.6531486511230469,-0.8533353209495546,0.4898216582397623,2.666924401372982,-0.0031498742648299297,,,,,,
4,0,1.0383292436599734,-0.038318727165460593,9.74648189544678,0.02642358280718327,-0.03969220817089081,-0.0057629221118986615,-0.47245490550994873,0.6518818140029907,-0.8675348162651063,0.46429958957388157,3.843538490612174,0.14779323675654282,,,,,,
4,1,1.0383292436599734,-0.038318727165460593,9.74648189544678,0.02642358280718327,-0.03969220817089081,-0.0057629221118986615,-0.47245490550994873,0.6518818140029907,-0.8675348162651063,0.46429958957388157,3.843538490612174,0.14779323675654282,,,,,,
4,2,1.0383292436599734,-0.038318727165460593,9.74648189544678,0.02642358280718327,-0.03969220817089081,-0.0057629221118986615,-0.47245490550994873,0.6518818140029907,-0.8675348162651063,0.46429958957388157,3.843538490612174,0.14779323675654282,,,,,,
4,3,1.0383292436599734,-0.038318727165460593,9.74648189544678,0.02642358280718327,-0.03969220817089081,-0.0057629221118986615,-0.47245490550994873,0.6518818140029907,-0.8675348162651063,0.46429958957388157,3.843538490612174,0.14779323675654282,,,,,,
4,4,1.0383292436599734,-0.038318727165460593,9.74648189544678,0.02642358280718327,-0.03969220817089081,-0.0057629221118986615,-0.47245490550994873,0.6518818140029907,-0.8675348162651063,0.46429958957388157,3.843538490612174,0.14779323675654282,,,,,,
4,5,-0.5477914810180664,-0.6059553027153016,9.6878137588501,-0.00749366031959653,-0.016536593437194824,-0.001118299551308155,-0.4760556221008301,0.6435405611991883,-0.8631580471992494,0.4649872927107333,3.7980276819057277,0.12379093588863985,,,,,,
4,6,-0.5477914810180664,-0.6059553027153016,9.6878137588501,-0.00749366031959653,-0.016536593437194824,-0.001118299551308155,-0.4760556221008301,0.6435405611991883,-0.8631580471992494,0.4649872927107333,3.7980276819057277,0.12379093588863985,,,,,,
4,7,-0.5477914810180664,-0.6059553027153016,9.6878137588501,-0.00749366031959653,-0.016536593437194824,-0.001118299551308155,-0.4760556221008301,0.6435405611991883,-0.8631580471992494,0.4649872927107333,3.7980276819057277,0.12379093588863985,,,,,,
4,8,2.395771741867066,0.05285965278744698,10.13969135284424,0.002908223308622837,-0.040381111204624176,0.008971323259174825,-0.47287008166313177,0.6523194909095765,-0.8644928336143495,0.4634242013687165,3.7204808570433556,0.12863206078298392,,,,,,
4,9,1.0923451185226443,0.11740601807832719,10.161761283874513,0.03441517427563668,-0.02690064162015915,-0.0017714726272970438,-0.4752604365348816,0.6484733819961548,-0.8665874600410463,0.47965665362708926,3.6705636264188395,0.12424997425321198,,,,,,
4,10,1.268496870994568,0.22624351084232333,9.596412658691406,0.019210400059819225,-0.030881617218255997,-0.012993461452424528,-0.4775274395942688,0.6445371508598329,-0.8636341691017152,0.4843453198155371,3.6376588919418626,0.11512172260542185,,,,,,
4,11,1.268496870994568,0.22624351084232333,9.596412658691406,0.019210400059819225,-0.030881617218255997,-0.012993461452424528,-0.4775274395942688,0.6445371508598329,-0.8636341691017152,0.4843453198155371,3.6376588919418626,0.11512172260542185,,,,,,
4,12,1.268496870994568,0.22624351084232333,9.596412658691406,0.019210400059819225,-0.030881617218255997,-0.012993461452424528,-0.4775274395942688,0.6445371508598329,-0.8636341691017152,0.4843453198155371,3.6376588919418626,0.11512172260542185,,,,,,
4,13,1.9171841144561768,-0.31011801958084106,10.194679260253906,0.030237799510359768,-0.013783670961856842,-0.0031349221244454384,-0.4816905558109284,0.6521610617637635,-0.8513240814208984,0.4848691322194221,3.527230438291209,0.10568605431003232,,,,,,
4,14,1.9171841144561768,-0.31011801958084106,10.194679260253906,0.030237799510359768,-0.013783670961856842,-0.0031349221244454384,-0.4816905558109284,0.6521610617637635,-0.8513240814208984,0.4848691322194221,3.527230438291209,0.10568605431003232,,,,,,
4,15,1.9171841144561768,-0.31011801958084106,10.194679260253906,0.030237799510359768,-0.013783670961856842,-0.0031349221244454384,-0.4816905558109284,0.6521610617637635,-0.8513240814208984,0.4848691322194221,3.527230438291209,0.10568605431003232,,,,,,
4,16,1.298546552658081,0.27285003662109375,9.584768295288086,0.025452274829149246,-0.0200751293450594,-0.005073909647762775,-0.4823073744773865,0.6522642374038696,-0.8568745851516724,0.4927797578653511,3.49438521766744,0.1010209871468981,,,,,,
4,17,1.701940417289734,0.11874634027481079,10.029375076293945,0.002770048100501299,-0.0203147791326046,0.00026655921828933066,-0.4827519357204438,0.6507959365844727,-0.8564000725746156,0.4881662508369185,3.460140721573287,0.09950749517511896,,,,,,
4,18,1.392080903053284,-0.02020838670432568,9.852855682373047,0.018806487321853638,-0.01309338863939047,-0.008802296593785286,-0.48260864615440374,0.6487637162208558,-0.8519003987312318,0.4925747340155474,3.4285133250886277,0.09287420300386258,,,,,,
4,19,1.039960026741028,-0.24047692120075229,9.916898727416992,0.017263421788811687,0.0006262089009396733,-0.005328971892595291,-0.473680466413498,0.6512527465820312,-0.858957052230835,0.49377350619641786,3.339583845285661,0.07780327954642913,,,,,,
4,20,1.039960026741028,-0.24047692120075229,9.916898727416992,0.017263421788811687,0.0006262089009396733,-0.005328971892595291,-0.473680466413498,0.6512527465820312,-0.858957052230835,0.49377350619641786,3.339583845285661,0.07780327954642913,,,,,,
4,21,1.039960026741028,-0.24047692120075229,9.916898727416992,0.017263421788811687,0.0006262089009396733,-0.005328971892595291,-0.473680466413498,0.6512527465820312,-0.858957052230835,0.49377350619641786,3.339583845285661,0.07780327954642913,,,,,,
4,22,1.0200825929641726,-0.15332257747650146,10.394629478454592,0.015286083333194258,0.0139906145632267,-0.0034301492851227526,-0.47574442625045776,0.652334451675415,-0.8639740943908691,0.49639233785599585,3.3190873624153365,0.0744203784663322,,,,,,
4,23,0.4062090516090393,0.16850985586643222,9.640678405761719,0.018911123275756836,0.02321204356849194,-0.005703144241124392,-0.4795534610748291,0.6484823226928711,-0.865052342414856,0.5009219482578928,3.303038668176703,0.0697561485029841,,,,,,
4,24,1.3936244249343874,-0.5030206441879272,10.4546594619751,0.02054208517074585,0.008144079707562925,-0.00964697077870369,-0.4796394109725952,0.6496431231498719,-0.8478540182113647,0.5007633793008807,3.2132535693470605,0.04718961138928362,,,,,,
4,25,1.0568962097167969,-0.13052192330360413,9.89565181732178,0.0030357220675796275,-0.003151669399812818,0.00032655009999871254,-0.4756347835063935,0.6479174494743348,-0.8625576496124268,0.4956168898759103,3.1242225221833033,0.03464199765460463,,,,,,
4,26,1.0568962097167969,-0.13052192330360413,9.89565181732178,0.0030357220675796275,-0.003151669399812818,0.00032655009999871254,-0.4756347835063935,0.6479174494743348,-0.8625576496124268,0.4956168898759103,3.1242225221833033,0.03464199765460463,,,,,,
4,27,1.0568962097167969,-0.13052192330360413,9.89565181732178,0.0030357220675796275,-0.003151669399812818,0.00032655009999871254,-0.4756347835063935,0.6479174494743348,-0.8625576496124268,0.4956168898759103,3.1242225221833033,0.03464199765460463,,,,,,
4,28,1.0568962097167969,-0.13052192330360413,9.89565181732178,0.0030357220675796275,-0.003151669399812818,0.00032655009999871254,-0.4756347835063935,0.6479174494743348,-0.8625576496124268,0.4956168898759103,3.1242225221833033,0.03464199765460463,,,,,,
4,29,1.0568962097167969,-0.13052192330360413,9.89565181732178,0.0030357220675796275,-0.003151669399812818,0.00032655009999871254,-0.4756347835063935,0.6479174494743348,-0.8625576496124268,0.4956168898759103,3.1242225221833033,0.03464199765460463,,,,,,
4,30,0.8790792822837831,-0.4973218739032746,9.866235733032227,0.011704086326062681,-0.0014479828532785177,0.00020587445760611447,-0.47834923863410955,0.6463699936866761,-0.8565187454223633,0.4960461707204953,3.0896873007688175,0.0332161729771628,,,,,,
4,31,0.9799236655235292,0.3082773685455322,10.095378875732422,0.01793146319687367,-0.008260967209935188,-0.0021309638395905495,-0.479167252779007,0.6472363471984863,-0.849929928779602,0.4996012560176013,3.050735831403659,0.03031920139601534,,,,,,
4,32,0.5702449679374696,-0.12773528695106506,9.817509651184084,-0.0004486172983888537,-0.0030672855209559207,-0.008715502917766571,-0.47825160622596746,0.6559360623359681,-0.8457003235816957,0.48213785207522264,2.975980964711963,0.019084676037052835,,,,,,
4,33,0.5702449679374696,-0.12773528695106506,9.817509651184084,-0.0004486172983888537,-0.0030672855209559207,-0.008715502917766571,-0.47825160622596746,0.6559360623359681,-0.8457003235816957,0.48213785207522264,2.975980964711963,0.019084676037052835,,,,,,
4,34,0.7759910821914673,-0.03343423455953598,9.820680618286133,-0.011045128107070923,-0.004263086710125209,-0.007780218031257392,-0.4774587452411652,0.6536424756050111,-0.8543410301208496,0.46619250651493416,2.8895163243795334,0.005517320393116045,,,,,,
4,35,0.7759910821914673,-0.03343423455953598,9.820680618286133,-0.011045128107070923,-0.004263086710125209,-0.007780218031257392,-0.4774587452411652,0.6536424756050111,-0.8543410301208496,0.46619250651493416,2.8895163243795334,0.005517320393116045,,,,,,
4,36,1.0950084924697878,-0.304898351430893,9.983119010925295,-0.0040855477564036855,-0.013057110831141472,0.0027367018628865485,-0.4793105721473694,0.6492685675621034,-0.8544296622276307,0.457973262230683,2.8453097801914518,0.005587837441048071,,,,,,
4,37,0.8682494759559632,-0.4326794147491455,9.954442024230959,0.02835132367908955,0.0022625746205449104,0.0012406053720042112,-0.47963753342628485,0.6554242372512817,-0.8436850905418397,0.4643671524737357,2.775163616879228,0.004708320449064461,,,,,,
4,38,0.8682494759559632,-0.4326794147491455,9.954442024230959,0.02835132367908955,0.0022625746205449104,0.0012406053720042112,-0.47963753342628485,0.6554242372512817,-0.8436850905418397,0.4643671524737357,2.775163616879228,0.004708320449064461,,,,,,
4,39,1.332742691040039,0.6673612594604492,10.313653945922852,0.03475345298647881,-0.0032938250806182627,-0.005231390707194805,-0.4788693487644196,0.6531486511230469,-0.8533353209495546,0.4898216582397623,2.666924401372982,-0.0031498742648299297,,,,,,
4,40,1.332742691040039,0.6673612594604492,10.313653945922852,0.03475345298647881,-0.0032938250806182627,-0.005231390707194805,-0.4788693487644196,0.6531486511230469,-0.8533353209495546,0.4898216582397623,2.666924401372982,-0.0031498742648299297,,,,,,
5,0,1.0383292436599734,-0.038318727165460593,9.74648189544678,0.02642358280718327,-0.03969220817089081,-0.0057629221118986615,-0.47245490550994873,0.6518818140029907,-0.8675348162651063,0.46429958957388157,3.843538490612174,0.14779323675654282,,,,,,
5,1,1.0383292436599734,-0.038318727165460593,9.74648189544678,0.02642358280718327,-0.03969220817089081,-0.0057629221118986615,-0.47245490550994873,0.6518818140029907,-0.8675348162651063,0.46429958957388157,3.843538490612174,0.14779323675654282,,,,,,
5,2,1.0383292436599734,-0.038318727165460593,9.74648189544678,0.02642358280718327,-0.03969220817089081,-0.0057629221118986615,-0.47245490550994873,0.6518818140029907,-0.8675348162651063,0.46429958957388157,3.843538490612174,0.14779323675654282,,,,,,
5,3,1.0383292436599734,-0.038318727165460593,9.74648189544678,0.02642358280718327,-0.03969220817089081,-0.0057629221118986615,-0.47245490550994873,0.6518818140029907,-0.8675348162651063,0.46429958957388157,3.843538490612174,0.14779323675654282,,,,,,
5,4,1.0383292436599734,-0.038318727165460593,9.74648189544678,0.02642358280718327,-0.03969220817089081,-0.0057629221118986615,-0.47245490550994873,0.6518818140029907,-0.8675348162651063,0.46429958957388157,3.843538490612174,0.14779323675654282,,,,,,
5,5,-0.5477914810180664,-0.6059553027153016,9.6878137588501,-0.00749366031959653,-0.016536593437194824,-0.001118299551308155,-0.4760556221008301,0.6435405611991883,-0.8631580471992494,0.4649872927107333,3.7980276819057277,0.12379093588863985,,,,,,
5,6,-0.5477914810180664,-0.6059553027153016,9.6878137588501,-0.00749366031959653,-0.016536593437194824,-0.001118299551308155,-0.4760556221008301,0.6435405611991883,-0.8631580471992494,0.4649872927107333,3.7980276819057277,0.12379093588863985,,,,,,
5,7,-0.5477914810180664,-0.6059553027153016,9.6878137588501,-0.00749366031959653,-0.016536593437194824,-0.001118299551308155,-0.4760556221008301,0.6435405611991883,-0.8631580471992494,0.4649872927107333,3.7980276819057277,0.12379093588863985,,,,,,
5,8,2.395771741867066,0.05285965278744698,10.13969135284424,0.002908223308622837,-0.040381111204624176,0.008971323259174825,-0.47287008166313177,0.6523194909095765,-0.8644928336143495,0.4634242013687165,3.7204808570433556,0.12863206078298392,,,,,,
5,9,1.0923451185226443,0.11740601807832719,10.161761283874513,0.03441517427563668,-0.02690064162015915,-0.0017714726272970438,-0.4752604365348816,0.6484733819961548,-0.8665874600410463,0.47965665362708926,3.6705636264188395,0.12424997425321198,,,,,,
5,10,1.268496870994568,0.22624351084232333,9.596412658691406,0.019210400059819225,-0.030881617218255997,-0.012993461452424528,-0.4775274395942688,0.6445371508598329,-0.8636341691017152,0.4843453198155371,3.6376588919418626,0.11512172260542185,,,,,,
5,11,1.268496870994568,0.22624351084232333,9.596412658691406,0.019210400059819225,-0.030881617218255997,-0.012993461452424528,-0.4775274395942688,0.6445371508598329,-0.8636341691017152,0.4843453198155371,3.6376588919418626,0.11512172260542185,,,,,,
5,12,1.268496870994568,0.22624351084232333,9.596412658691406,0.019210400059819225,-0.030881617218255997,-0.012993461452424528,-0.4775274395942688,0.6445371508598329,-0.8636341691017152,0.4843453198155371,3.6376588919418626,0.11512172260542185,,,,,,
5,13,1.9171841144561768,-0.31011801958084106,10.194679260253906,0.030237799510359768,-0.013783670961856842,-0.0031349221244454384,-0.4816905558109284,0.6521610617637635,-0.8513240814208984,0.4848691322194221,3.527230438291209,0.10568605431003232,,,,,,
5,14,1.9171841144561768,-0.31011801958084106,10.194679260253906,0.030237799510359768,-0.013783670961856842,-0.0031349221244454384,-0.4816905558109284,0.6521610617637635,-0.8513240814208984,0.4848691322194221,3.527230438291209,0.10568605431003232,,,,,,
5,15,1.9171841144561768,-0.31011801958084106,10.194679260253906,0.030237799510359768,-0.013783670961856842,-0.0031349221244454384,-0.4816905558109284,0.6521610617637635,-0.8513240814208984,0.4848691322194221,3.527230438291209,0.10568605431003232,,,,,,
5,16,1.298546552658081,0.27285003662109375,9.584768295288086,0.025452274829149246,-0.0200751293450594,-0.005073909647762775,-0.4823073744773865,0.6522642374038696,-0.8568745851516724,0.4927797578653511,3.49438521766744,0.1010209871468981,,,,,,
5,17,1.701940417289734,0.11874634027481079,10.029375076293945,0.002770048100501299,-0.0203147791326046,0.00026655921828933066,-0.4827519357204438,0.6507959365844727,-0.8564000725746156,0.4881662508369185,3.460140721573287,0.09950749517511896,,,,,,
5,18,1.392080903053284,-0.02020838670432568,9.852855682373047,0.018806487321853638,-0.01309338863939047,-0.008802296593785286,-0.48260864615440374,0.6487637162208558,-0.8519003987312318,0.4925747340155474,3.4285133250886277,0.09287420300386258,,,,,,
5,19,1.039960026741028,-0.24047692120075229,9.916898727416992,0.017263421788811687,0.0006262089009396733,-0.005328971892595291,-0.473680466413498,0.6512527465820312,-0.858957052230835,0.49377350619641786,3.339583845285661,0.07780327954642913,,,,,,
5,20,1.039960026741028,-0.24047692120075229,9.916898727416992,0.017263421788811687,0.0006262089009396733,-0.005328971892595291,-0.473680466413498,0.6512527465820312,-0.858957052230835,0.49377350619641786,3.339583845285661,0.07780327954642913,,,,,,
5,21,1.039960026741028,-0.24047692120075229,9.916898727416992,0.017263421788811687,0.0006262089009396733,-0.005328971892595291,-0.473680466413498,0.6512527465820312,-0.858957052230835,0.49377350619641786,3.339583845285661,0.07780327954642913,,,,,,
5,22,1.0200825929641726,-0.15332257747650146,10.394629478454592,0.015286083333194258,0.0139906145632267,-0.0034301492851227526,-0.47574442625045776,0.652334451675415,-0.8639740943908691,0.49639233785599585,3.3190873624153365,0.0744203784663322,,,,,,
5,23,0.4062090516090393,0.16850985586643222,9.640678405761719,0.018911123275756836,0.02321204356849194,-0.005703144241124392,-0.4795534610748291,0.6484823226928711,-0.865052342414856,0.5009219482578928,3.303038668176703,0.0697561485029841,,,,,,
5,24,1.3936244249343874,-0.5030206441879272,10.4546594619751,0.02054208517074585,0.008144079707562925,-0.00964697077870369,-0.4796394109725952,0.6496431231498719,-0.8478540182113647,0.5007633793008807,3.2132535693470605,0.04718961138928362,,,,,,
5,25,1.0568962097167969,-0.13052192330360413,9.89565181732178,0.0030357220675796275,-0.003151669399812818,0.00032655009999871254,-0.4756347835063935,0.6479174494743348,-0.8625576496124268,0.4956168898759103,3.1242225221833033,0.03464199765460463,,,,,,
5,26,1.0568962097167969,-0.13052192330360413,9.89565181732178,0.0030357220675796275,-0.003151669399812818,0.00032655009999871254,-0.4756347835063935,0.6479174494743348,-0.8625576496124268,0.4956168898759103,3.1242225221833033,0.03464199765460463,,,,,,
5,27,1.0568962097167969,-0.13052192330360413,9.89565181732178,0.0030357220675796275,-0.003151669399812818,0.00032655009999871254,-0.4756347835063935,0.6479174494743348,-0.8625576496124268,0.4956168898759103,3.1242225221833033,0.03464199765460463,,,,,,
5,28,1.0568962097167969,-0.13052192330360413,9.89565181732178,0.0030357220675796275,-0.003151669399812818,0.00032655009999871254,-0.4756347835063935,0.6479174494743348,-0.8625576496124268,0.4956168898759103,3.1242225221833033,0.03464199765460463,,,,,,
5,29,1.0568962097167969,-0.13052192330360413,9.89565181732178,0.0030357220675796275,-0.003151669399812818,0.00032655009999871254,-0.4756347835063935,0.6479174494743348,-0.8625576496124268,0.4956168898759103,3.1242225221833033,0.03464199765460463,,,,,,
5,30,0.8790792822837831,-0.4973218739032746,9.866235733032227,0.011704086326062681,-0.0014479828532785177,0.00020587445760611447,-0.47834923863410955,0.6463699936866761,-0.8565187454223633,0.4960461707204953,3.0896873007688175,0.0332161729771628,,,,,,
5,31,0.9799236655235292,0.3082773685455322,10.095378875732422,0.01793146319687367,-0.008260967209935188,-0.0021309638395905495,-0.479167252779007,0.6472363471984863,-0.849929928779602,0.4996012560176013,3.050735831403659,0.03031920139601534,,,,,,
5,32,0.5702449679374696,-0.12773528695106506,9.817509651184084,-0.0004486172983888537,-0.0030672855209559207,-0.008715502917766571,-0.47825160622596746,0.6559360623359681,-0.8457003235816957,0.48213785207522264,2.975980964711963,0.019084676037052835,,,,,,
5,33,0.5702449679374696,-0.12773528695106506,9.817509651184084,-0.0004486172983888537,-0.0030672855209559207,-0.008715502917766571,-0.47825160622596746,0.6559360623359681,-0.8457003235816957,0.48213785207522264,2.975980964711963,0.019084676037052835,,,,,,
5,34,0.7759910821914673,-0.03343423455953598,9.820680618286133,-0.011045128107070923,-0.004263086710125209,-0.007780218031257392,-0.4774587452411652,0.6536424756050111,-0.8543410301208496,0.46619250651493416,2.8895163243795334,0.005517320393116045,,,,,,
5,35,0.7759910821914673,-0.03343423455953598,9.820680618286133,-0.011045128107070923,-0.004263086710125209,-0.007780218031257392,-0.4774587452411652,0.6536424756050111,-0.8543410301208496,0.46619250651493416,2.8895163243795334,0.005517320393116045,,,,,,
5,36,1.0950084924697878,-0.304898351430893,9.983119010925295,-0.0040855477564036855,-0.013057110831141472,0.0027367018628865485,-0.4793105721473694,0.6492685675621034,-0.8544296622276307,0.457973262230683,2.8453097801914518,0.005587837441048071,,,,,,
5,37,0.8682494759559632,-0.4326794147491455,9.954442024230959,0.02835132367908955,0.0022625746205449104,0.0012406053720042112,-0.47963753342628485,0.6554242372512817,-0.8436850905418397,0.4643671524737357,2.775163616879228,0.004708320449064461,,,,,,
5,38,0.8682494759559632,-0.4326794147491455,9.954442024230959,0.02835132367908955,0.0022625746205449104,0.0012406053720042112,-0.47963753342628485,0.6554242372512817,-0.8436850905418397,0.4643671524737357,2.775163616879228,0.004708320449064461,,,,,,
5,39,1.332742691040039,0.6673612594604492,10.313653945922852,0.03475345298647881,-0.0032938250806182627,-0.005231390707194805,-0.4788693487644196,0.6531486511230469,-0.8533353209495546,0.4898216582397623,2.666924401372982,-0.0031498742648299297,,,,,,
5,40,1.332742691040039,0.6673612594604492,10.313653945922852,0.03475345298647881,-0.0032938250806182627,-0.005231390707194805,-0.4788693487644196,0.6531486511230469,-0.8533353209495546,0.4898216582397623,2.666924401372982,-0.0031498742648299297,,,,,,
6,0,1.0383292436599734,-0.038318727165460593,9.74648189544678,0.02642358280718327,-0.03969220817089081,-0.0057629221118986615,-0.47245490550994873,0.6518818140029907,-0.8675348162651063,0.46429958957388157,3.843538490612174,0.14779323675654282,,,,,,
6,1,1.0383292436599734,-0.038318727165460593,9.74648189544678,0.02642358280718327,-0.03969220817089081,-0.0057629221118986615,-0.47245490550994873,0.6518818140029907,-0.8675348162651063,0.46429958957388157,3.843538490612174,0.14779323675654282,,,,,,
6,2,1.0383292436599734,-0.038318727165460593,9.74648189544678,0.02642358280718327,-0.03969220817089081,-0.0057629221118986615,-0.47245490550994873,0.6518818140029907,-0.8675348162651063,0.46429958957388157,3.843538490612174,0.14779323675654282,,,,,,
6,3,1.0383292436599734,-0.038318727165460593,9.74648189544678,0.02642358280718327,-0.03969220817089081,-0.0057629221118986615,-0.47245490550994873,0.6518818140029907,-0.8675348162651063,0.46429958957388157,3.843538490612174,0.14779323675654282,,,,,,
6,4,1.0383292436599734,-0.038318727165460593,9.74648189544678,0.02642358280718327,-0.03969220817089081,-0.0057629221118986615,-0.47245490550994873,0.6518818140029907,-0.8675348162651063,0.46429958957388157,3.843538490612174,0.14779323675654282,,,,,,
6,5,-0.5477914810180664,-0.6059553027153016,9.6878137588501,-0.00749366031959653,-0.016536593437194824,-0.001118299551308155,-0.4760556221008301,0.6435405611991883,-0.8631580471992494,0.4649872927107333,3.7980276819057277,0.12379093588863985,,,,,,
6,6,-0.5477914810180664,-0.6059553027153016,9.6878137588501,-0.00749366031959653,-0.016536593437194824,-0.001118299551308155,-0.4760556221008301,0.6435405611991883,-0.8631580471992494,0.4649872927107333,3.7980276819057277,0.12379093588863985,,,,,,
6,7,-0.5477914810180664,-0.6059553027153016,9.6878137588501,-0.00749366031959653,-0.016536593437194824,-0.001118299551308155,-0.4760556221008301,0.6435405611991883,-0.8631580471992494,0.4649872927107333,3.7980276819057277,0.12379093588863985,,,,,,
6,8,2.395771741867066,0.05285965278744698,10.13969135284424,0.002908223308622837,-0.040381111204624176,0.008971323259174825,-0.47287008166313177,0.6523194909095765,-0.8644928336143495,0.4634242013687165,3.7204808570433556,0.12863206078298392,,,,,,
6,9,1.0923451185226443,0.11740601807832719,10.161761283874513,0.03441517427563668,-0.02690064162015915,-0.0017714726272970438,-0.4752604365348816,0.6484733819961548,-0.8665874600410463,0.47965665362708926,3.6705636264188395,0.12424997425321198,,,,,,
6,10,1.268496870994568,0.22624351084232333,9.596412658691406,0.019210400059819225,-0.030881617218255997,-0.012993461452424528,-0.4775274395942688,0.6445371508598329,-0.8636341691017152,0.4843453198155371,3.6376588919418626,0.11512172260542185,,,,,,
6,11,1.268496870994568,0.22624351084232333,9.596412658691406,0.019210400059819225,-0.030881617218255997,-0.012993461452424528,-0.4775274395942688,0.6445371508598329,-0.8636341691017152,0.4843453198155371,3.6376588919418626,0.11512172260542185,,,,,,
6,12,1.268496870994568,0.22624351084232333,9.596412658691406,0.019210400059819225,-0.030881617218255997,-0.012993461452424528,-0.4775274395942688,0.6445371508598329,-0.8636341691017152,0.4843453198155371,3.6376588919418626,0.11512172260542185,,,,,,
6,13,1.9171841144561768,-0.31011801958084106,10.194679260253906,0.030237799510359768,-0.013783670961856842,-0.0031349221244454384,-0.4816905558109284,0.6521610617637635,-0.8513240814208984,0.4848691322194221,3.527230438291209,0.10568605431003232,,,,,,
6,14,1.9171841144561768,-0.31011801958084106,10.194679260253906,0.030237799510359768,-0.013783670961856842,-0.0031349221244454384,-0.4816905558109284,0.6521610617637635,-0.8513240814208984,0.4848691322194221,3.527230438291209,0.10568605431003232,,,,,,
6,15,1.9171841144561768,-0.31011801958084106,10.194679260253906,0.030237799510359768,-0.013783670961856842,-0.0031349221244454384,-0.4816905558109284,0.6521610617637635,-0.8513240814208984,0.4848691322194221,3.527230438291209,0.10568605431003232,,,,,,
6,16,1.298546552658081,0.27285003662109375,9.584768295288086,0.025452274829149246,-0.0200751293450594,-0.005073909647762775,-0.4823073744773865,0.6522642374038696,-0.8568745851516724,0.4927797578653511,3.49438521766744,0.1010209871468981,,,,,,
6,17,1.701940417289734,0.11874634027481079,10.029375076293945,0.002770048100501299,-0.0203147791326046,0.00026655921828933066,-0.4827519357204438,0.6507959365844727,-0.8564000725746156,0.4881662508369185,3.460140721573287,0.09950749517511896,,,,,,
6,18,1.392080903053284,-0.02020838670432568,9.852855682373047,0.018806487321853638,-0.01309338863939047,-0.008802296593785286,-0.48260864615440374,0.6487637162208558,-0.8519003987312318,0.4925747340155474,3.4285133250886277,0.09287420300386258,,,,,,
6,19,1.039960026741028,-0.24047692120075229,9.916898727416992,0.017263421788811687,0.0006262089009396733,-0.005328971892595291,-0.473680466413498,0.6512527465820312,-0.858957052230835,0.49377350619641786,3.339583845285661,0.07780327954642913,,,,,,
6,20,1.039960026741028,-0.24047692120075229,9.916898727416992,0.017263421788811687,0.0006262089009396733,-0.005328971892595291,-0.473680466413498,0.6512527465820312,-0.858957052230835,0.49377350619641786,3.339583845285661,0.07780327954642913,,,,,,
6,21,1.039960026741028,-0.24047692120075229,9.916898727416992,0.017263421788811687,0.0006262089009396733,-0.005328971892595291,-0.473680466413498,0.6512527465820312,-0.858957052230835,0.49377350619641786,3.339583845285661,0.07780327954642913,,,,,,
6,22,1.0200825929641726,-0.15332257747650146,10.394629478454592,0.015286083333194258,0.0139906145632267,-0.0034301492851227526,-0.47574442625045776,0.652334451675415,-0.8639740943908691,0.49639233785599585,3.3190873624153365,0.0744203784663322,,,,,,
6,23,0.4062090516090393,0.16850985586643222,9.640678405761719,0.018911123275756836,0.02321204356849194,-0.005703144241124392,-0.4795534610748291,0.6484823226928711,-0.865052342414856,0.5009219482578928,3.303038668176703,0.0697561485029841,,,,,,
6,24,1.3936244249343874,-0.5030206441879272,10.4546594619751,0.02054208517074585,0.008144079707562925,-0.00964697077870369,-0.4796394109725952,0.6496431231498719,-0.8478540182113647,0.5007633793008807,3.2132535693470605,0.04718961138928362,,,,,,
6,25,1.0568962097167969,-0.13052192330360413,9.89565181732178,0.0030357220675796275,-0.003151669399812818,0.00032655009999871254,-0.4756347835063935,0.6479174494743348,-0.8625576496124268,0.4956168898759103,3.1242225221833033,0.03464199765460463,,,,,,
6,26,1.0568962097167969,-0.13052192330360413,9.89565181732178,0.0030357220675796275,-0.003151669399812818,0.00032655009999871254,-0.4756347835063935,0.6479174494743348,-0.8625576496124268,0.4956168898759103,3.1242225221833033,0.03464199765460463,,,,,,
6,27,1.0568962097167969,-0.13052192330360413,9.89565181732178,0.0030357220675796275,-0.003151669399812818,0.00032655009999871254,-0.4756347835063935,0.6479174494743348,-0.8625576496124268,0.4956168898759103,3.1242225221833033,0.03464199765460463,,,,,,
6,28,1.0568962097167969,-0.13052192330360413,9.89565181732178,0.0030357220675796275,-0.003151669399812818,0.00032655009999871254,-0.4756347835063935,0.6479174494743348,-0.8625576496124268,0.4956168898759103,3.1242225221833033,0.03464199765460463,,,,,,
6,29,1.0568962097167969,-0.13052192330360413,9.89565181732178,0.0030357220675796275,-0.003151669399812818,0.00032655009999871254,-0.4756347835063935,0.6479174494743348,-0.8625576496124268,0.4956168898759103,3.1242225221833033,0.03464199765460463,,,,,,
6,30,0.8790792822837831,-0.4973218739032746,9.866235733032227,0.011704086326062681,-0.0014479828532785177,0.00020587445760611447,-0.47834923863410955,0.6463699936866761,-0.8565187454223633,0.4960461707204953,3.0896873007688175,0.0332161729771628,,,,,,
6,31,0.9799236655235292,0.3082773685455322,10.095378875732422,0.01793146319687367,-0.008260967209935188,-0.0021309638395905495,-0.479167252779007,0.6472363471984863,-0.849929928779602,0.4996012560176013,3.050735831403659,0.03031920139601534,,,,,,
6,32,0.5702449679374696,-0.12773528695106506,9.817509651184084,-0.0004486172983888537,-0.0030672855209559207,-0.008715502917766571,-0.47825160622596746,0.6559360623359681,-0.8457003235816957,0.48213785207522264,2.975980964711963,0.019084676037052835,,,,,,
6,33,0.5702449679374696,-0.12773528695106506,9.817509651184084,-0.0004486172983888537,-0.0030672855209559207,-0.008715502917766571,-0.47825160622596746,0.6559360623359681,-0.8457003235816957,0.48213785207522264,2.975980964711963,0.019084676037052835,,,,,,
6,34,0.7759910821914673,-0.03343423455953598,9.820680618286133,-0.011045128107070923,-0.004263086710125209,-0.007780218031257392,-0.4774587452411652,0.6536424756050111,-0.8543410301208496,0.46619250651493416,2.8895163243795334,0.005517320393116045,,,,,,
6,35,0.7759910821914673,-0.03343423455953598,9.820680618286133,-0.011045128107070923,-0.004263086710125209,-0.007780218031257392,-0.4774587452411652,0.6536424756050111,-0.8543410301208496,0.46619250651493416,2.8895163243795334,0.005517320393116045,,,,,,
6,36,1.0950084924697878,-0.304898351430893,9.983119010925295,-0.0040855477564036855,-0.013057110831141472,0.0027367018628865485,-0.4793105721473694,0.6492685675621034,-0.8544296622276307,0.457973262230683,2.8453097801914518,0.005587837441048071,,,,,,
6,37,0.8682494759559632,-0.4326794147491455,9.954442024230959,0.02835132367908955,0.0022625746205449104,0.0012406053720042112,-0.47963753342628485,0.6554242372512817,-0.8436850905418397,0.4643671524737357,2.775163616879228,0.004708320449064461,,,,,,
6,38,0.8682494759559632,-0.4326794147491455,9.954442024230959,0.02835132367908955,0.0022625746205449104,0.0012406053720042112,-0.47963753342628485,0.6554242372512817,-0.8436850905418397,0.4643671524737357,2.775163616879228,0.004708320449064461,,,,,,
6,39,1.332742691040039,0.6673612594604492,10.313653945922852,0.03475345298647881,-0.0032938250806182627,-0.005231390707194805,-0.4788693487644196,0.6531486511230469,-0.8533353209495546,0.4898216582397623,2.666924401372982,-0.0031498742648299297,,,,,,
6,40,1.332742691040039,0.6673612594604492,10.313653945922852,0.03475345298647881,-0.0032938250806182627,-0.005231390707194805,-0.4788693487644196,0.6531486511230469,-0.8533353209495546,0.4898216582397623,2.666924401372982,-0.0031498742648299297,,,,,,
7,0,1.0383292436599734,-0.038318727165460593,9.74648189544678,0.02642358280718327,-0.03969220817089081,-0.0057629221118986615,-0.47245490550994873,0.6518818140029907,-0.8675348162651063,0.46429958957388157,3.843538490612174,0.14779323675654282,,,,,,
7,1,1.0383292436599734,-0.038318727165460593,9.74648189544678,0.02642358280718327,-0.03969220817089081,-0.0057629221118986615,-0.47245490550994873,0.6518818140029907,-0.8675348162651063,0.46429958957388157,3.843538490612174,0.14779323675654282,,,,,,
7,2,1.0383292436599734,-0.038318727165460593,9.74648189544678,0.02642358280718327,-0.03969220817089081,-0.0057629221118986615,-0.47245490550994873,0.6518818140029907,-0.8675348162651063,0.46429958957388157,3.843538490612174,0.14779323675654282,,,,,,
7,3,1.0383292436599734,-0.038318727165460593,9.74648189544678,0.02642358280718327,-0.03969220817089081,-0.0057629221118986615,-0.47245490550994873,0.6518818140029907,-0.8675348162651063,0.46429958957388157,3.843538490612174,0.14779323675654282,,,,,,
7,4,1.0383292436599734,-0.038318727165460593,9.74648189544678,0.02642358280718327,-0.03969220817089081,-0.0057629221118986615,-0.47245490550994873,0.6518818140029907,-0.8675348162651063,0.46429958957388157,3.843538490612174,0.14779323675654282,,,,,,
7,5,-0.5477914810180664,-0.6059553027153016,9.6878137588501,-0.00749366031959653,-0.016536593437194824,-0.001118299551308155,-0.4760556221008301,0.6435405611991883,-0.8631580471992494,0.4649872927107333,3.7980276819057277,0.12379093588863985,,,,,,
7,6,-0.5477914810180664,-0.6059553027153016,9.6878137588501,-0.00749366031959653,-0.016536593437194824,-0.001118299551308155,-0.4760556221008301,0.6435405611991883,-0.8631580471992494,0.4649872927107333,3.7980276819057277,0.12379093588863985,,,,,,
7,7,-0.5477914810180664,-0.6059553027153016,9.6878137588501,-0.00749366031959653,-0.016536593437194824,-0.001118299551308155,-0.4760556221008301,0.6435405611991883,-0.8631580471992494,0.4649872927107333,3.7980276819057277,0.12379093588863985,,,,,,
7,8,2.395771741867066,0.05285965278744698,10.13969135284424,0.002908223308622837,-0.040381111204624176,0.008971323259174825,-0.47287008166313177,0.6523194909095765,-0.8644928336143495,0.4634242013687165,3.7204808570433556,0.12863206078298392,,,,,,
7,9,1.0923451185226443,0.11740601807832719,10.161761283874513,0.03441517427563668,-0.02690064162015915,-0.0017714726272970438,-0.4752604365348816,0.6484733819961548,-0.8665874600410463,0.47965665362708926,3.6705636264188395,0.12424997425321198,,,,,,
7,10,1.268496870994568,0.22624351084232333,9.596412658691406,0.019210400059819225,-0.030881617218255997,-0.012993461452424528,-0.4775274395942688,0.6445371508598329,-0.8636341691017152,0.4843453198155371,3.6376588919418626,0.11512172260542185,,,,,,
7,11,1.268496870994568,0.22624351084232333,9.596412658691406,0.019210400059819225,-0.030881617218255997,-0.012993461452424528,-0.4775274395942688,0.6445371508598329,-0.8636341691017152,0.4843453198155371,3.6376588919418626,0.11512172260542185,,,,,,
7,12,1.268496870994568,0.22624351084232333,9.596412658691406,0.019210400059819225,-0.030881617218255997,-0.012993461452424528,-0.4775274395942688,0.6445371508598329,-0.8636341691017152,0.4843453198155371,3.6376588919418626,0.11512172260542185,,,,,,
7,13,1.9171841144561768,-0.31011801958084106,10.194679260253906,0.030237799510359768,-0.013783670961856842,-0.0031349221244454384,-0.4816905558109284,0.6521610617637635,-0.8513240814208984,0.4848691322194221,3.527230438291209,0.10568605431003232,,,,,,
7,14,1.9171841144561768,-0.31011801958084106,10.194679260253906,0.030237799510359768,-0.013783670961856842,-0.0031349221244454384,-0.4816905558109284,0.6521610617637635,-0.8513240814208984,0.4848691322194221,3.527230438291209,0.10568605431003232,,,,,,
7,15,1.9171841144561768,-0.31011801958084106,10.194679260253906,0.030237799510359768,-0.013783670961856842,-0.0031349221244454384,-0.4816905558109284,0.6521610617637635,-0.8513240814208984,0.4848691322194221,3.527230438291209,0.10568605431003232,,,,,,
7,16,1.298546552658081,0.27285003662109375,9.584768295288086,0.025452274829149246,-0.0200751293450594,-0.005073909647762775,-0.4823073744773865,0.6522642374038696,-0.8568745851516724,0.4927797578653511,3.49438521766744,0.1010209871468981,,,,,,
7,17,1.701940417289734,0.11874634027481079,10.029375076293945,0.002770048100501299,-0.0203147791326046,0.00026655921828933066,-0.4827519357204438,0.6507959365844727,-0.8564000725746156,0.4881662508369185,3.460140721573287,0.09950749517511896,,,,,,
7,18,1.392080903053284,-0.02020838670432568,9.852855682373047,0.018806487321853638,-0.01309338863939047,-0.008802296593785286,-0.48260864615440374,0.6487637162208558,-0.8519003987312318,0.4925747340155474,3.4285133250886277,0.09287420300386258,,,,,,
7,19,1.039960026741028,-0.24047692120075229,9.916898727416992,0.017263421788811687,0.0006262089009396733,-0.005328971892595291,-0.473680466413498,0.6512527465820312,-0.858957052230835,0.49377350619641786,3.339583845285661,0.07780327954642913,,,,,,
7,20,1.039960026741028,-0.24047692120075229,9.916898727416992,0.017263421788811687,0.0006262089009396733,-0.005328971892595291,-0.473680466413498,0.6512527465820312,-0.858957052230835,0.49377350619641786,3.339583845285661,0.07780327954642913,,,,,,
7,21,1.039960026741028,-0.24047692120075229,9.916898727416992,0.017263421788811687,0.0006262089009396733,-0.005328971892595291,-0.473680466413498,0.6512527465820312,-0.858957052230835,0.49377350619641786,3.339583845285661,0.07780327954642913,,,,,,
7,22,1.0200825929641726,-0.15332257747650146,10.394629478454592,0.015286083333194258,0.0139906145632267,-0.0034301492851227526,-0.47574442625045776,0.652334451675415,-0.8639740943908691,0.49639233785599585,3.3190873624153365,0.0744203784663322,,,,,,
7,23,0.4062090516090393,0.16850985586643222,9.640678405761719,0.018911123275756836,0.02321204356849194,-0.005703144241124392,-0.4795534610748291,0.6484823226928711,-0.865052342414856,0.5009219482578928,3.303038668176703,0.0697561485029841,,,,,,
7,24,1.3936244249343874,-0.5030206441879272,10.4546594619751,0.02054208517074585,0.008144079707562925,-0.00964697077870369,-0.4796394109725952,0.6496431231498719,-0.8478540182113647,0.5007633793008807,3.2132535693470605,0.04718961138928362,,,,,,
7,25,1.0568962097167969,-0.13052192330360413,9.89565181732178,0.0030357220675796275,-0.003151669399812818,0.00032655009999871254,-0.4756347835063935,0.6479174494743348,-0.8625576496124268,0.4956168898759103,3.1242225221833033,0.03464199765460463,,,,,,
7,26,1.0568962097167969,-0.13052192330360413,9.89565181732178,0.0030357220675796275,-0.003151669399812818,0.00032655009999871254,-0.4756347835063935,0.6479174494743348,-0.8625576496124268,0.4956168898759103,3.1242225221833033,0.03464199765460463,,,,,,
7,27,1.0568962097167969,-0.13052192330360413,9.89565181732178,0.0030357220675796275,-0.003151669399812818,0.00032655009999871254,-0.4756347835063935,0.6479174494743348,-0.8625576496124268,0.4956168898759103,3.1242225221833033,0.03464199765460463,,,,,,
7,28,1.0568962097167969,-0.13052192330360413,9.89565181732178,0.0030357220675796275,-0.003151669399812818,0.00032655009999871254,-0.4756347835063935,0.6479174494743348,-0.8625576496124268,0.4956168898759103,3.1242225221833033,0.03464199765460463,,,,,,
7,29,1.0568962097167969,-0.13052192330360413,9.89565181732178,0.0030357220675796275,-0.003151669399812818,0.00032655009999871254,-0.4756347835063935,0.6479174494743348,-0.8625576496124268,0.4956168898759103,3.1242225221833033,0.03464199765460463,,,,,,
7,30,0.8790792822837831,-0.4973218739032746,9.866235733032227,0.011704086326062681,-0.0014479828532785177,0.00020587445760611447,-0.47834923863410955,0.6463699936866761,-0.8565187454223633,0.4960461707204953,3.0896873007688175,0.0332161729771628,,,,,,
7,31,0.9799236655235292,0.3082773685455322,10.095378875732422,0.01793146319687367,-0.008260967209935188,-0.0021309638395905495,-0.479167252779007,0.6472363471984863,-0.849929928779602,0.4996012560176013,3.050735831403659,0.03031920139601534,,,,,,
7,32,0.5702449679374696,-0.12773528695106506,9.817509651184084,-0.0004486172983888537,-0.0030672855209559207,-0.008715502917766571,-0.47825160622596746,0.6559360623359681,-0.8457003235816957,0.48213785207522264,2.975980964711963,0.019084676037052835,,,,,,
7,33,0.5702449679374696,-0.12773528695106506,9.817509651184084,-0.0004486172983888537,-0.0030672855209559207,-0.008715502917766571,-0.47825160622596746,0.6559360623359681,-0.8457003235816957,0.48213785207522264,2.975980964711963,0.019084676037052835,,,,,,
7,34,0.7759910821914673,-0.03343423455953598,9.820680618286133,-0.011045128107070923,-0.004263086710125209,-0.007780218031257392,-0.4774587452411652,0.6536424756050111,-0.8543410301208496,0.46619250651493416,2.8895163243795334,0.005517320393116045,,,,,,
7,35,0.7759910821914673,-0.03343423455953598,9.820680618286133,-0.011045128107070923,-0.004263086710125209,-0.007780218031257392,-0.4774587452411652,0.6536424756050111,-0.8543410301208496,0.46619250651493416,2.8895163243795334,0.005517320393116045,,,,,,
7,36,1.0950084924697878,-0.304898351430893,9.983119010925295,-0.0040855477564036855,-0.013057110831141472,0.0027367018628865485,-0.4793105721473694,0.6492685675621034,-0.8544296622276307,0.457973262230683,2.8453097801914518,0.005587837441048071,,,,,,
7,37,0.8682494759559632,-0.4326794147491455,9.954442024230959,0.02835132367908955,0.0022625746205449104,0.0012406053720042112,-0.47963753342628485,0.6554242372512817,-0.8436850905418397,0.4643671524737357,2.775163616879228,0.004708320449064461,,,,,,
7,38,0.8682494759559632,-0.4326794147491455,9.954442024230959,0.02835132367908955,0.0022625746205449104,0.0012406053720042112,-0.47963753342628485,0.6554242372512817,-0.8436850905418397,0.4643671524737357,2.775163616879228,0.004708320449064461,,,,,,
7,39,1.332742691040039,0.6673612594604492,10.313653945922852,0.03475345298647881,-0.0032938250806182627,-0.005231390707194805,-0.4788693487644196,0.6531486511230469,-0.8533353209495546,0.4898216582397623,2.666924401372982,-0.0031498742648299297,,,,,,
7,40,1.332742691040039,0.6673612594604492,10.313653945922852,0.03475345298647881,-0.0032938250806182627,-0.005231390707194805,-0.4788693487644196,0.6531486511230469,-0.8533353209495546,0.4898216582397623,2.666924401372982,-0.0031498742648299297,,,,,,
8,0,1.0383292436599734,-0.038318727165460593,9.74648189544678,0.02642358280718327,-0.03969220817089081,-0.0057629221118986615,-0.47245490550994873,0.6518818140029907,-0.8675348162651063,0.46429958957388157,3.843538490612174,0.14779323675654282,,,,,,
8,1,1.0383292436599734,-0.038318727165460593,9.74648189544678,0.02642358280718327,-0.03969220817089081,-0.0057629221118986615,-0.47245490550994873,0.6518818140029907,-0.8675348162651063,0.46429958957388157,3.843538490612174,0.14779323675654282,,,,,,
8,2,1.0383292436599734,-0.038318727165460593,9.74648189544678,0.02642358280718327,-0.03969220817089081,-0.0057629221118986615,-0.47245490550994873,0.6518818140029907,-0.8675348162651063,0.46429958957388157,3.843538490612174,0.14779323675654282,,,,,,
8,3,1.0383292436599734,-0.038318727165460593,9.74648189544678,0.02642358280718327,-0.03969220817089081,-0.0057629221118986615,-0.47245490550994873,0.6518818140029907,-0.8675348162651063,0.46429958957388157,3.843538490612174,0.14779323675654282,,,,,,
8,4,1.0383292436599734,-0.038318727165460593,9.74648189544678,0.02642358280718327,-0.03969220817089081,-0.0057629221118986615,-0.47245490550994873,0.6518818140029907,-0.8675348162651063,0.46429958957388157,3.843538490612174,0.14779323675654282,,,,,,
8,5,-0.5477914810180664,-0.6059553027153016,9.6878137588501,-0.00749366031959653,-0.016536593437194824,-0.001118299551308155,-0.4760556221008301,0.6435405611991883,-0.8631580471992494,0.4649872927107333,3.7980276819057277,0.12379093588863985,,,,,,
8,6,-0.5477914810180664,-0.6059553027153016,9.6878137588501,-0.00749366031959653,-0.016536593437194824,-0.001118299551308155,-0.4760556221008301,0.6435405611991883,-0.8631580471992494,0.4649872927107333,3.7980276819057277,0.12379093588863985,,,,,,
8,7,-0.5477914810180664,-0.6059553027153016,9.6878137588501,-0.00749366031959653,-0.016536593437194824,-0.001118299551308155,-0.4760556221008301,0.6435405611991883,-0.8631580471992494,0.4649872927107333,3.7980276819057277,0.12379093588863985,,,,,,
8,8,2.395771741867066,0.05285965278744698,10.13969135284424,0.002908223308622837,-0.040381111204624176,0.008971323259174825,-0.47287008166313177,0.6523194909095765,-0.8644928336143495,0.4634242013687165,3.7204808570433556,0.12863206078298392,,,,,,
8,9,1.0923451185226443,0.11740601807832719,10.161761283874513,0.03441517427563668,-0.02690064162015915,-0.0017714726272970438,-0.4752604365348816,0.6484733819961548,-0.8665874600410463,0.47965665362708926,3.6705636264188395,0.12424997425321198,,,,,,
8,10,1.268496870994568,0.22624351084232333,9.596412658691406,0.019210400059819225,-0.030881617218255997,-0.012993461452424528,-0.4775274395942688,0.6445371508598329,-0.8636341691017152,0.4843453198155371,3.6376588919418626,0.11512172260542185,,,,,,
8,11,1.268496870994568,0.22624351084232333,9.596412658691406,0.019210400059819225,-0.030881617218255997,-0.012993461452424528,-0.4775274395942688,0.6445371508598329,-0.8636341691017152,0.4843453198155371,3.6376588919418626,0.11512172260542185,,,,,,
8,12,1.268496870994568,0.22624351084232333,9.596412658691406,0.019210400059819225,-0.030881617218255997,-0.012993461452424528,-0.4775274395942688,0.6445371508598329,-0.8636341691017152,0.4843453198155371,3.6376588919418626,0.11512172260542185,,,,,,
8,13,1.9171841144561768,-0.31011801958084106,10.194679260253906,0.030237799510359768,-0.013783670961856842,-0.0031349221244454384,-0.4816905558109284,0.6521610617637635,-0.8513240814208984,0.4848691322194221,3.527230438291209,0.10568605431003232,,,,,,
8,14,1.9171841144561768,-0.31011801958084106,10.194679260253906,0.030237799510359768,-0.013783670961856842,-0.0031349221244454384,-0.4816905558109284,0.6521610617637635,-0.8513240814208984,0.4848691322194221,3.527230438291209,0.10568605431003232,,,,,,
8,15,1.9171841144561768,-0.31011801958084106,10.194679260253906,0.030237799510359768,-0.013783670961856842,-0.0031349221244454384,-0.4816905558109284,0.6521610617637635,-0.8513240814208984,0.4848691322194221,3.527230438291209,0.10568605431003232,,,,,,
8,16,1.298546552658081,0.27285003662109375,9.584768295288086,0.025452274829149246,-0.0200751293450594,-0.005073909647762775,-0.4823073744773865,0.6522642374038696,-0.8568745851516724,0.4927797578653511,3.49438521766744,0.1010209871468981,,,,,,
8,17,1.701940417289734,0.11874634027481079,10.029375076293945,0.002770048100501299,-0.0203147791326046,0.00026655921828933066,-0.4827519357204438,0.6507959365844727,-0.8564000725746156,0.4881662508369185,3.460140721573287,0.09950749517511896,,,,,,
8,18,1.392080903053284,-0.02020838670432568,9.852855682373047,0.018806487321853638,-0.01309338863939047,-0.008802296593785286,-0.48260864615440374,0.6487637162208558,-0.8519003987312318,0.4925747340155474,3.4285133250886277,0.09287420300386258,,,,,,
8,19,1.039960026741028,-0.24047692120075229,9.916898727416992,0.017263421788811687,0.0006262089009396733,-0.005328971892595291,-0.473680466413498,0.6512527465820312,-0.858957052230835,0.49377350619641786,3.339583845285661,0.07780327954642913,,,,,,
8,20,1.039960026741028,-0.24047692120075229,9.916898727416992,0.017263421788811687,0.0006262089009396733,-0.005328971892595291,-0.473680466413498,0.6512527465820312,-0.858957052230835,0.49377350619641786,3.339583845285661,0.07780327954642913,,,,,,
8,21,1.039960026741028,-0.24047692120075229,9.916898727416992,0.017263421788811687,0.0006262089009396733,-0.005328971892595291,-0.473680466413498,0.6512527465820312,-0.858957052230835,0.49377350619641786,3.339583845285661,0.07780327954642913,,,,,,
8,22,1.0200825929641726,-0.15332257747650146,10.394629478454592,0.015286083333194258,0.0139906145632267,-0.0034301492851227526,-0.47574442625045776,0.652334451675415,-0.8639740943908691,0.49639233785599585,3.3190873624153365,0.0744203784663322,,,,,,
8,23,0.4062090516090393,0.16850985586643222,9.640678405761719,0.018911123275756836,0.02321204356849194,-0.005703144241124392,-0.4795534610748291,0.6484823226928711,-0.865052342414856,0.5009219482578928,3.303038668176703,0.0697561485029841,,,,,,
8,24,1.3936244249343874,-0.5030206441879272,10.4546594619751,0.02054208517074585,0.008144079707562925,-0.00964697077870369,-0.4796394109725952,0.6496431231498719,-0.8478540182113647,0.5007633793008807,3.2132535693470605,0.04718961138928362,,,,,,
8,25,1.0568962097167969,-0.13052192330360413,9.89565181732178,0.0030357220675796275,-0.003151669399812818,0.00032655009999871254,-0.4756347835063935,0.6479174494743348,-0.8625576496124268,0.4956168898759103,3.1242225221833033,0.03464199765460463,,,,,,
8,26,1.0568962097167969,-0.13052192330360413,9.89565181732178,0.0030357220675796275,-0.003151669399812818,0.00032655009999871254,-0.4756347835063935,0.6479174494743348,-0.8625576496124268,0.4956168898759103,3.1242225221833033,0.03464199765460463,,,,,,
8,27,1.0568962097167969,-0.13052192330360413,9.89565181732178,0.0030357220675796275,-0.003151669399812818,0.00032655009999871254,-0.4756347835063935,0.6479174494743348,-0.8625576496124268,0.4956168898759103,3.1242225221833033,0.03464199765460463,,,,,,
8,28,1.0568962097167969,-0.13052192330360413,9.89565181732178,0.0030357220675796275,-0.003151669399812818,0.00032655009999871254,-0.4756347835063935,0.6479174494743348,-0.8625576496124268,0.4956168898759103,3.1242225221833033,0.03464199765460463,,,,,,
8,29,1.0568962097167969,-0.13052192330360413,9.89565181732178,0.0030357220675796275,-0.003151669399812818,0.00032655009999871254,-0.4756347835063935,0.6479174494743348,-0.8625576496124268,0.4956168898759103,3.1242225221833033,0.03464199765460463,,,,,,
8,30,0.8790792822837831,-0.4973218739032746,9.866235733032227,0.011704086326062681,-0.0014479828532785177,0.00020587445760611447,-0.47834923863410955,0.6463699936866761,-0.8565187454223633,0.4960461707204953,3.0896873007688175,0.0332161729771628,,,,,,
8,31,0.9799236655235292,0.3082773685455322,10.095378875732422,0.01793146319687367,-0.008260967209935188,-0.0021309638395905495,-0.479167252779007,0.6472363471984863,-0.849929928779602,0.4996012560176013,3.050735831403659,0.03031920139601534,,,,,,
8,32,0.5702449679374696,-0.12773528695106506,9.817509651184084,-0.0004486172983888537,-0.0030672855209559207,-0.008715502917766571,-0.47825160622596746,0.6559360623359681,-0.8457003235816957,0.48213785207522264,2.975980964711963,0.019084676037052835,,,,,,
8,33,0.5702449679374696,-0.12773528695106506,9.817509651184084,-0.0004486172983888537,-0.0030672855209559207,-0.008715502917766571,-0.47825160622596746,0.6559360623359681,-0.8457003235816957,0.48213785207522264,2.975980964711963,0.019084676037052835,,,,,,
8,34,0.7759910821914673,-0.03343423455953598,9.820680618286133,-0.011045128107070923,-0.004263086710125209,-0.007780218031257392,-0.4774587452411652,0.6536424756050111,-0.8543410301208496,0.46619250651493416,2.8895163243795334,0.005517320393116045,,,,,,
8,35,0.7759910821914673,-0.03343423455953598,9.820680618286133,-0.011045128107070923,-0.004263086710125209,-0.007780218031257392,-0.4774587452411652,0.6536424756050111,-0.8543410301208496,0.46619250651493416,2.8895163243795334,0.005517320393116045,,,,,,
8,36,1.0950084924697878,-0.304898351430893,9.983119010925295,-0.0040855477564036855,-0.013057110831141472,0.0027367018628865485,-0.4793105721473694,0.6492685675621034,-0.8544296622276307,0.457973262230683,2.8453097801914518,0.005587837441048071,,,,,,
8,37,0.8682494759559632,-0.4326794147491455,9.954442024230959,0.02835132367908955,0.0022625746205449104,0.0012406053720042112,-0.47963753342628485,0.6554242372512817,-0.8436850905418397,0.4643671524737357,2.775163616879228,0.004708320449064461,,,,,,
8,38,0.8682494759559632,-0.4326794147491455,9.954442024230959,0.02835132367908955,0.0022625746205449104,0.0012406053720042112,-0.47963753342628485,0.6554242372512817,-0.8436850905418397,0.4643671524737357,2.775163616879228,0.004708320449064461,,,,,,
8,39,1.332742691040039,0.6673612594604492,10.313653945922852,0.03475345298647881,-0.0032938250806182627,-0.005231390707194805,-0.4788693487644196,0.6531486511230469,-0.8533353209495546,0.4898216582397623,2.666924401372982,-0.0031498742648299297,,,,,,
8,40,1.332742691040039,0.6673612594604492,10.313653945922852,0.03475345298647881,-0.0032938250806182627,-0.005231390707194805,-0.4788693487644196,0.6531486511230469,-0.8533353209495546,0.4898216582397623,2.666924401372982,-0.0031498742648299297,,,,,,
9,0,1.0383292436599734,-0.038318727165460593,9.74648189544678,0.02642358280718327,-0.03969220817089081,-0.0057629221118986615,-0.47245490550994873,0.6518818140029907,-0.8675348162651063,0.46429958957388157,3.843538490612174,0.14779323675654282,,,,,,
9,1,1.0383292436599734,-0.038318727165460593,9.74648189544678,0.02642358280718327,-0.03969220817089081,-0.0057629221118986615,-0.47245490550994873,0.6518818140029907,-0.8675348162651063,0.46429958957388157,3.843538490612174,0.14779323675654282,,,,,,
9,2,1.0383292436599734,-0.038318727165460593,9.74648189544678,0.02642358280718327,-0.03969220817089081,-0.0057629221118986615,-0.47245490550994873,0.6518818140029907,-0.8675348162651063,0.46429958957388157,3.843538490612174,0.14779323675654282,,,,,,
9,3,1.0383292436599734,-0.038318727165460593,9.74648189544678,0.02642358280718327,-0.03969220817089081,-0.0057629221118986615,-0.47245490550994873,0.6518818140029907,-0.8675348162651063,0.46429958957388157,3.843538490612174,0.14779323675654282,,,,,,
9,4,1.0383292436599734,-0.038318727165460593,9.74648189544678,0.02642358280718327,-0.03969220817089081,-0.0057629221118986615,-0.47245490550994873,0.6518818140029907,-0.8675348162651063,0.46429958957388157,3.843538490612174,0.14779323675654282,,,,,,
9,5,-0.5477914810180664,-0.6059553027153016,9.6878137588501,-0.00749366031959653,-0.016536593437194824,-0.001118299551308155,-0.4760556221008301,0.6435405611991883,-0.8631580471992494,0.4649872927107333,3.7980276819057277,0.12379093588863985,,,,,,
9,6,-0.5477914810180664,-0.6059553027153016,9.6878137588501,-0.00749366031959653,-0.016536593437194824,-0.001118299551308155,-0.4760556221008301,0.6435405611991883,-0.8631580471992494,0.4649872927107333,3.7980276819057277,0.12379093588863985,,,,,,
9,7,-0.5477914810180664,-0.6059553027153016,9.6878137588501,-0.00749366031959653,-0.016536593437194824,-0.001118299551308155,-0.4760556221008301,0.6435405611991883,-0.8631580471992494,0.4649872927107333,3.7980276819057277,0.12379093588863985,,,,,,
9,8,2.395771741867066,0.05285965278744698,10.13969135284424,0.002908223308622837,-0.040381111204624176,0.008971323259174825,-0.47287008166313177,0.6523194909095765,-0.8644928336143495,0.4634242013687165,3.7204808570433556,0.12863206078298392,,,,,,
9,9,1.0923451185226443,0.11740601807832719,10.161761283874513,0.03441517427563668,-0.02690064162015915,-0.0017714726272970438,-0.4752604365348816,0.6484733819961548,-0.8665874600410463,0.47965665362708926,3.6705636264188395,0.12424997425321198,,,,,,
9,10,1.268496870994568,0.22624351084232333,9.596412658691406,0.019210400059819225,-0.030881617218255997,-0.012993461452424528,-0.4775274395942688,0.6445371508598329,-0.8636341691017152,0.4843453198155371,3.6376588919418626,0.11512172260542185,,,,,,
9,11,1.268496870994568,0.22624351084232333,9.596412658691406,0.019210400059819225,-0.030881617218255997,-0.012993461452424528,-0.4775274395942688,0.6445371508598329,-0.8636341691017152,0.4843453198155371,3.6376588919418626,0.11512172260542185,,,,,,
9,12,1.268496870994568,0.22624351084232333,9.596412658691406,0.019210400059819225,-0.030881617218255997,-0.012993461452424528,-0.4775274395942688,0.6445371508598329,-0.8636341691017152,0.4843453198155371,3.6376588919418626,0.11512172260542185,,,,,,
9,13,1.9171841144561768,-0.31011801958084106,10.194679260253906,0.030237799510359768,-0.013783670961856842,-0.0031349221244454384,-0.4816905558109284,0.6521610617637635,-0.8513240814208984,0.4848691322194221,3.527230438291209,0.10568605431003232,,,,,,
9,14,1.9171841144561768,-0.31011801958084106,10.194679260253906,0.030237799510359768,-0.013783670961856842,-0.0031349221244454384,-0.4816905558109284,0.6521610617637635,-0.8513240814208984,0.4848691322194221,3.527230438291209,0.10568605431003232,,,,,,
9,15,1.9171841144561768,-0.31011801958084106,10.194679260253906,0.030237799510359768,-0.013783670961856842,-0.0031349221244454384,-0.4816905558109284,0.6521610617637635,-0.8513240814208984,0.4848691322194221,3.527230438291209,0.10568605431003232,,,,,,
9,16,1.298546552658081,0.27285003662109375,9.584768295288086,0.025452274829149246,-0.0200751293450594,-0.005073909647762775,-0.4823073744773865,0.6522642374038696,-0.8568745851516724,0.4927797578653511,3.49438521766744,0.1010209871468981,,,,,,
9,17,1.701940417289734,0.11874634027481079,10.029375076293945,0.002770048100501299,-0.0203147791326046,0.00026655921828933066,-0.4827519357204438,0.6507959365844727,-0.8564000725746156,0.4881662508369185,3.460140721573287,0.09950749517511896,,,,,,
9,18,1.392080903053284,-0.02020838670432568,9.852855682373047,0.018806487321853638,-0.01309338863939047,-0.008802296593785286,-0.48260864615440374,0.6487637162208558,-0.8519003987312318,0.4925747340155474,3.4285133250886277,0.09287420300386258,,,,,,
9,19,1.039960026741028,-0.24047692120075229,9.916898727416992,0.017263421788811687,0.0006262089009396733,-0.005328971892595291,-0.473680466413498,0.6512527465820312,-0.858957052230835,0.49377350619641786,3.339583845285661,0.07780327954642913,,,,,,
9,20,1.039960026741028,-0.24047692120075229,9.916898727416992,0.017263421788811687,0.0006262089009396733,-0.005328971892595291,-0.473680466413498,0.6512527465820312,-0.858957052230835,0.49377350619641786,3.339583845285661,0.07780327954642913,,,,,,
9,21,1.039960026741028,-0.24047692120075229,9.916898727416992,0.017263421788811687,0.0006262089009396733,-0.005328971892595291,-0.473680466413498,0.6512527465820312,-0.858957052230835,0.49377350619641786,3.339583845285661,0.07780327954642913,,,,,,
9,22,1.0200825929641726,-0.15332257747650146,10.394629478454592,0.015286083333194258,0.0139906145632267,-0.0034301492851227526,-0.47574442625045776,0.652334451675415,-0.8639740943908691,0.49639233785599585,3.3190873624153365,0.0744203784663322,,,,,,
9,23,0.4062090516090393,0.16850985586643222,9.640678405761719,0.018911123275756836,0.02321204356849194,-0.005703144241124392,-0.4795534610748291,0.6484823226928711,-0.865052342414856,0.5009219482578928,3.303038668176703,0.0697561485029841,,,,,,
9,24,1.3936244249343874,-0.5030206441879272,10.4546594619751,0.02054208517074585,0.008144079707562925,-0.00964697077870369,-0.4796394109725952,0.6496431231498719,-0.8478540182113647,0.5007633793008807,3.2132535693470605,0.04718961138928362,,,,,,
9,25,1.0568962097167969,-0.13052192330360413,9.89565181732178,0.0030357220675796275,-0.003151669399812818,0.00032655009999871254,-0.4756347835063935,0.6479174494743348,-0.8625576496124268,0.4956168898759103,3.1242225221833033,0.03464199765460463,,,,,,
9,26,1.0568962097167969,-0.13052192330360413,9.89565181732178,0.0030357220675796275,-0.003151669399812818,0.00032655009999871254,-0.4756347835063935,0.6479174494743348,-0.8625576496124268,0.4956168898759103,3.1242225221833033,0.03464199765460463,,,,,,
9,27,1.0568962097167969,-0.13052192330360413,9.89565181732178,0.0030357220675796275,-0.003151669399812818,0.00032655009999871254,-0.4756347835063935,0.6479174494743348,-0.8625576496124268,0.4956168898759103,3.1242225221833033,0.03464199765460463,,,,,,
9,28,1.0568962097167969,-0.13052192330360413,9.89565181732178,0.0030357220675796275,-0.003151669399812818,0.00032655009999871254,-0.4756347835063935,0.6479174494743348,-0.8625576496124268,0.4956168898759103,3.1242225221833033,0.03464199765460463,,,,,,
9,29,1.0568962097167969,-0.13052192330360413,9.89565181732178,0.0030357220675796275,-0.003151669399812818,0.00032655009999871254,-0.4756347835063935,0.6479174494743348,-0.8625576496124268,0.4956168898759103,3.1242225221833033,0.03464199765460463,,,,,,
9,30,0.8790792822837831,-0.4973218739032746,9.866235733032227,0.011704086326062681,-0.0014479828532785177,0.00020587445760611447,-0.47834923863410955,0.6463699936866761,-0.8565187454223633,0.4960461707204953,3.0896873007688175,0.0332161729771628,,,,,,
9,31,0.9799236655235292,0.3082773685455322,10.095378875732422,0.01793146319687367,-0.008260967209935188,-0.0021309638395905495,-0.479167252779007,0.6472363471984863,-0.849929928779602,0.4996012560176013,3.050735831403659,0.03031920139601534,,,,,,
9,32,0.5702449679374696,-0.12773528695106506,9.817509651184084,-0.0004486172983888537,-0.0030672855209559207,-0.008715502917766571,-0.47825160622596746,0.6559360623359681,-0.8457003235816957,0.48213785207522264,2.975980964711963,0.019084676037052835,,,,,,
9,33,0.5702449679374696,-0.12773528695106506,9.817509651184084,-0.0004486172983888537,-0.0030672855209559207,-0.008715502917766571,-0.47825160622596746,0.6559360623359681,-0.8457003235816957,0.48213785207522264,2.975980964711963,0.019084676037052835,,,,,,
9,34,0.7759910821914673,-0.03343423455953598,9.820680618286133,-0.011045128107070923,-0.004263086710125209,-0.007780218031257392,-0.4774587452411652,0.6536424756050111,-0.8543410301208496,0.46619250651493416,2.8895163243795334,0.005517320393116045,,,,,,
9,35,0.7759910821914673,-0.03343423455953598,9.820680618286133,-0.011045128107070923,-0.004263086710125209,-0.007780218031257392,-0.4774587452411652,0.6536424756050111,-0.8543410301208496,0.46619250651493416,2.8895163243795334,0.005517320393116045,,,,,,
9,36,1.0950084924697878,-0.304898351430893,9.983119010925295,-0.0040855477564036855,-0.013057110831141472,0.0027367018628865485,-0.4793105721473694,0.6492685675621034,-0.8544296622276307,0.457973262230683,2.8453097801914518,0.005587837441048071,,,,,,
9,37,0.8682494759559632,-0.4326794147491455,9.954442024230959,0.02835132367908955,0.0022625746205449104,0.0012406053720042112,-0.47963753342628485,0.6554242372512817,-0.8436850905418397,0.4643671524737357,2.775163616879228,0.004708320449064461,,,,,,
9,38,0.8682494759559632,-0.4326794147491455,9.954442024230959,0.02835132367908955,0.0022625746205449104,0.0012406053720042112,-0.47963753342628485,0.6554242372512817,-0.8436850905418397,0.4643671524737357,2.775163616879228,0.004708320449064461,,,,,,
9,39,1.332742691040039,0.6673612594604492,10.313653945922852,0.03475345298647881,-0.0032938250806182627,-0.005231390707194805,-0.4788693487644196,0.6531486511230469,-0.8533353209495546,0.4898216582397623,2.666924401372982,-0.0031498742648299297,,,,,,
9,40,1.332742691040039,0.6673612594604492,10.313653945922852,0.03475345298647881,-0.0032938250806182627,-0.005231390707194805,-0.4788693487644196,0.6531486511230469,-0.8533353209495546,0.4898216582397623,2.666924401372982,-0.0031498742648299297,,,,,,
10,0,1.0383292436599734,-0.038318727165460593,9.74648189544678,0.02642358280718327,-0.03969220817089081,-0.0057629221118986615,-0.47245490550994873,0.6518818140029907,-0.8675348162651063,0.46429958957388157,3.843538490612174,0.14779323675654282,,,,,,
10,1,1.0383292436599734,-0.038318727165460593,9.74648189544678,0.02642358280718327,-0.03969220817089081,-0.0057629221118986615,-0.47245490550994873,0.6518818140029907,-0.8675348162651063,0.46429958957388157,3.843538490612174,0.14779323675654282,,,,,,
10,2,1.0383292436599734,-0.038318727165460593,9.74648189544678,0.02642358280718327,-0.03969220817089081,-0.0057629221118986615,-0.47245490550994873,0.6518818140029907,-0.8675348162651063,0.46429958957388157,3.843538490612174,0.14779323675654282,,,,,,
10,3,1.0383292436599734,-0.038318727165460593,9.74648189544678,0.02642358280718327,-0.03969220817089081,-0.0057629221118986615,-0.47245490550994873,0.6518818140029907,-0.8675348162651063,0.46429958957388157,3.843538490612174,0.14779323675654282,,,,,,
10,4,1.0383292436599734,-0.038318727165460593,9.74648189544678,0.02642358280718327,-0.03969220817089081,-0.0057629221118986615,-0.47245490550994873,0.6518818140029907,-0.8675348162651063,0.46429958957388157,3.843538490612174,0.14779323675654282,,,,,,
10,5,-0.5477914810180664,-0.6059553027153016,9.6878137588501,-0.00749366031959653,-0.016536593437194824,-0.001118299551308155,-0.4760556221008301,0.6435405611991883,-0.8631580471992494,0.4649872927107333,3.7980276819057277,0.12379093588863985,,,,,,
10,6,-0.5477914810180664,-0.6059553027153016,9.6878137588501,-0.00749366031959653,-0.016536593437194824,-0.001118299551308155,-0.4760556221008301,0.6435405611991883,-0.8631580471992494,0.4649872927107333,3.7980276819057277,0.12379093588863985,,,,,,
10,7,-0.5477914810180664,-0.6059553027153016,9.6878137588501,-0.00749366031959653,-0.016536593437194824,-0.001118299551308155,-0.4760556221008301,0.6435405611991883,-0.8631580471992494,0.4649872927107333,3.7980276819057277,0.12379093588863985,,,,,,
10,8,2.395771741867066,0.05285965278744698,10.13969135284424,0.002908223308622837,-0.040381111204624176,0.008971323259174825,-0.47287008166313177,0.6523194909095765,-0.8644928336143495,0.4634242013687165,3.7204808570433556,0.12863206078298392,,,,,,
10,9,1.0923451185226443,0.11740601807832719,10.161761283874513,0.03441517427563668,-0.02690064162015915,-0.0017714726272970438,-0.4752604365348816,0.6484733819961548,-0.8665874600410463,0.47965665362708926,3.6705636264188395,0.12424997425321198,,,,,,
10,10,1.268496870994568,0.22624351084232333,9.596412658691406,0.019210400059819225,-0.030881617218255997,-0.012993461452424528,-0.4775274395942688,0.6445371508598329,-0.8636341691017152,0.4843453198155371,3.6376588919418626,0.11512172260542185,,,,,,
10,11,1.268496870994568,0.22624351084232333,9.596412658691406,0.019210400059819225,-0.030881617218255997,-0.012993461452424528,-0.4775274395942688,0.6445371508598329,-0.8636341691017152,0.4843453198155371,3.6376588919418626,0.11512172260542185,,,,,,
10,12,1.268496870994568,0.22624351084232333,9.596412658691406,0.019210400059819225,-0.030881617218255997,-0.012993461452424528,-0.4775274395942688,0.6445371508598329,-0.8636341691017152,0.4843453198155371,3.6376588919418626,0.11512172260542185,,,,,,
10,13,1.9171841144561768,-0.31011801958084106,10.194679260253906,0.030237799510359768,-0.013783670961856842,-0.0031349221244454384,-0.4816905558109284,0.6521610617637635,-0.8513240814208984,0.4848691322194221,3.527230438291209,0.10568605431003232,,,,,,
10,14,1.9171841144561768,-0.31011801958084106,10.194679260253906,0.030237799510359768,-0.013783670961856842,-0.0031349221244454384,-0.4816905558109284,0.6521610617637635,-0.8513240814208984,0.4848691322194221,3.527230438291209,0.10568605431003232,,,,,,
10,15,1.9171841144561768,-0.31011801958084106,10.194679260253906,0.030237799510359768,-0.013783670961856842,-0.0031349221244454384,-0.4816905558109284,0.6521610617637635,-0.8513240814208984,0.4848691322194221,3.527230438291209,0.10568605431003232,,,,,,
10,16,1.298546552658081,0.27285003662109375,9.584768295288086,0.025452274829149246,-0.0200751293450594,-0.005073909647762775,-0.4823073744773865,0.6522642374038696,-0.8568745851516724,0.4927797578653511,3.49438521766744,0.1010209871468981,,,,,,
10,17,1.701940417289734,0.11874634027481079,10.029375076293945,0.002770048100501299,-0.0203147791326046,0.00026655921828933066,-0.4827519357204438,0.6507959365844727,-0.8564000725746156,0.4881662508369185,3.460140721573287,0.09950749517511896,,,,,,
10,18,1.392080903053284,-0.02020838670432568,9.852855682373047,0.018806487321853638,-0.01309338863939047,-0.008802296593785286,-0.48260864615440374,0.6487637162208558,-0.8519003987312318,0.4925747340155474,3.4285133250886277,0.09287420300386258,,,,,,
10,19,1.039960026741028,-0.24047692120075229,9.916898727416992,0.017263421788811687,0.0006262089009396733,-0.005328971892595291,-0.473680466413498,0.6512527465820312,-0.858957052230835,0.49377350619641786,3.339583845285661,0.07780327954642913,,,,,,
10,20,1.039960026741028,-0.24047692120075229,9.916898727416992,0.017263421788811687,0.0006262089009396733,-0.005328971892595291,-0.473680466413498,0.6512527465820312,-0.858957052230835,0.49377350619641786,3.339583845285661,0.07780327954642913,,,,,,
10,21,1.039960026741028,-0.24047692120075229,9.916898727416992,0.017263421788811687,0.0006262089009396733,-0.005328971892595291,-0.473680466413498,0.6512527465820312,-0.858957052230835,0.49377350619641786,3.339583845285661,0.07780327954642913,,,,,,
10,22,1.0200825929641726,-0.15332257747650146,10.394629478454592,0.015286083333194258,0.0139906145632267,-0.0034301492851227526,-0.47574442625045776,0.652334451675415,-0.8639740943908691,0.49639233785599585,3.3190873624153365,0.0744203784663322,,,,,,
10,23,0.4062090516090393,0.16850985586643222,9.640678405761719,0.018911123275756836,0.02321204356849194,-0.005703144241124392,-0.4795534610748291,0.6484823226928711,-0.865052342414856,0.5009219482578928,3.303038668176703,0.0697561485029841,,,,,,
10,24,1.3936244249343874,-0.5030206441879272,10.4546594619751,0.02054208517074585,0.008144079707562925,-0.00964697077870369,-0.4796394109725952,0.6496431231498719,-0.8478540182113647,0.5007633793008807,3.2132535693470605,0.04718961138928362,,,,,,
10,25,1.0568962097167969,-0.13052192330360413,9.89565181732178,0.0030357220675796275,-0.003151669399812818,0.00032655009999871254,-0.4756347835063935,0.6479174494743348,-0.8625576496124268,0.4956168898759103,3.1242225221833033,0.03464199765460463,,,,,,
10,26,1.0568962097167969,-0.13052192330360413,9.89565181732178,0.0030357220675796275,-0.003151669399812818,0.00032655009999871254,-0.4756347835063935,0.6479174494743348,-0.8625576496124268,0.4956168898759103,3.1242225221833033,0.03464199765460463,,,,,,
10,27,1.0568962097167969,-0.13052192330360413,9.89565181732178,0.0030357220675796275,-0.003151669399812818,0.00032655009999871254,-0.4756347835063935,0.6479174494743348,-0.8625576496124268,0.4956168898759103,3.1242225221833033,0.03464199765460463,,,,,,
10,28,1.0568962097167969,-0.13052192330360413,9.89565181732178,0.0030357220675796275,-0.003151669399812818,0.00032655009999871254,-0.4756347835063935,0.6479174494743348,-0.8625576496124268,0.4956168898759103,3.1242225221833033,0.03464199765460463,,,,,,
10,29,1.0568962097167969,-0.13052192330360413,9.89565181732178,0.0030357220675796275,-0.003151669399812818,0.00032655009999871254,-0.4756347835063935,0.6479174494743348,-0.8625576496124268,0.4956168898759103,3.1242225221833033,0.03464199765460463,,,,,,
10,30,0.8790792822837831,-0.4973218739032746,9.866235733032227,0.011704086326062681,-0.0014479828532785177,0.00020587445760611447,-0.47834923863410955,0.6463699936866761,-0.8565187454223633,0.4960461707204953,3.0896873007688175,0.0332161729771628,,,,,,
10,31,0.9799236655235292,0.3082773685455322,10.095378875732422,0.01793146319687367,-0.008260967209935188,-0.0021309638395905495,-0.479167252779007,0.6472363471984863,-0.849929928779602,0.4996012560176013,3.050735831403659,0.03031920139601534,,,,,,
10,32,0.5702449679374696,-0.12773528695106506,9.817509651184084,-0.0004486172983888537,-0.0030672855209559207,-0.008715502917766571,-0.47825160622596746,0.6559360623359681,-0.8457003235816957,0.48213785207522264,2.975980964711963,0.019084676037052835,,,,,,
10,33,0.5702449679374696,-0.12773528695106506,9.817509651184084,-0.0004486172983888537,-0.0030672855209559207,-0.008715502917766571,-0.47825160622596746,0.6559360623359681,-0.8457003235816957,0.48213785207522264,2.975980964711963,0.019084676037052835,,,,,,
10,34,0.7759910821914673,-0.03343423455953598,9.820680618286133,-0.011045128107070923,-0.004263086710125209,-0.007780218031257392,-0.4774587452411652,0.6536424756050111,-0.8543410301208496,0.46619250651493416,2.8895163243795334,0.005517320393116045,,,,,,
10,35,0.7759910821914673,-0.03343423455953598,9.820680618286133,-0.011045128107070923,-0.004263086710125209,-0.007780218031257392,-0.4774587452411652,0.6536424756050111,-0.8543410301208496,0.46619250651493416,2.8895163243795334,0.005517320393116045,,,,,,
10,36,1.0950084924697878,-0.304898351430893,9.983119010925295,-0.0040855477564036855,-0.013057110831141472,0.0027367018628865485,-0.4793105721473694,0.6492685675621034,-0.8544296622276307,0.457973262230683,2.8453097801914518,0.005587837441048071,,,,,,
10,37,0.8682494759559632,-0.4326794147491455,9.954442024230959,0.02835132367908955,0.0022625746205449104,0.0012406053720042112,-0.47963753342628485,0.6554242372512817,-0.8436850905418397,0.4643671524737357,2.775163616879228,0.004708320449064461,,,,,,
10,38,0.8682494759559632,-0.4326794147491455,9.954442024230959,0.02835132367908955,0.0022625746205449104,0.0012406053720042112,-0.47963753342628485,0.6554242372512817,-0.8436850905418397,0.4643671524737357,2.775163616879228,0.004708320449064461,,,,,,
10,39,1.332742691040039,0.6673612594604492,10.313653945922852,0.03475345298647881,-0.0032938250806182627,-0.005231390707194805,-0.4788693487644196,0.6531486511230469,-0.8533353209495546,0.4898216582397623,2.666924401372982,-0.0031498742648299297,,,,,,
10,40,1.332742691040039,0.6673612594604492,10.313653945922852,0.03475345298647881,-0.0032938250806182627,-0.005231390707194805,-0.4788693487644196,0.6531486511230469,-0.8533353209495546,0.4898216582397623,2.666924401372982,-0.0031498742648299297,,,,,,
11,0,1.0383292436599734,-0.038318727165460593,9.74648189544678,0.02642358280718327,-0.03969220817089081,-0.0057629221118986615,-0.47245490550994873,0.6518818140029907,-0.8675348162651063,0.46429958957388157,3.843538490612174,0.14779323675654282,,,,,,
11,1,1.0383292436599734,-0.038318727165460593,9.74648189544678,0.02642358280718327,-0.03969220817089081,-0.0057629221118986615,-0.47245490550994873,0.6518818140029907,-0.8675348162651063,0.46429958957388157,3.843538490612174,0.14779323675654282,,,,,,
11,2,1.0383292436599734,-0.038318727165460593,9.74648189544678,0.02642358280718327,-0.03969220817089081,-0.0057629221118986615,-0.47245490550994873,0.6518818140029907,-0.8675348162651063,0.46429958957388157,3.843538490612174,0.14779323675654282,,,,,,
11,3,1.0383292436599734,-0.038318727165460593,9.74648189544678,0.02642358280718327,-0.03969220817089081,-0.0057629221118986615,-0.47245490550994873,0.6518818140029907,-0.8675348162651063,0.46429958957388157,3.843538490612174,0.14779323675654282,,,,,,
11,4,1.0383292436599734,-0.038318727165460593,9.74648189544678,0.02642358280718327,-0.03969220817089081,-0.0057629221118986615,-0.47245490550994873,0.6518818140029907,-0.8675348162651063,0.46429958957388157,3.843538490612174,0.14779323675654282,,,,,,
11,5,-0.5477914810180664,-0.6059553027153016,9.6878137588501,-0.00749366031959653,-0.016536593437194824,-0.001118299551308155,-0.4760556221008301,0.6435405611991883,-0.8631580471992494,0.4649872927107333,3.7980276819057277,0.12379093588863985,,,,,,
11,6,-0.5477914810180664,-0.6059553027153016,9.6878137588501,-0.00749366031959653,-0.016536593437194824,-0.001118299551308155,-0.4760556221008301,0.6435405611991883,-0.8631580471992494,0.4649872927107333,3.7980276819057277,0.12379093588863985,,,,,,
11,7,-0.5477914810180664,-0.6059553027153016,9.6878137588501,-0.00749366031959653,-0.016536593437194824,-0.001118299551308155,-0.4760556221008301,0.6435405611991883,-0.8631580471992494,0.4649872927107333,3.7980276819057277,0.12379093588863985,,,,,,
11,8,2.395771741867066,0.05285965278744698,10.13969135284424,0.002908223308622837,-0.040381111204624176,0.008971323259174825,-0.47287008166313177,0.6523194909095765,-0.8644928336143495,0.4634242013687165,3.7204808570433556,0.12863206078298392,,,,,,
11,9,1.0923451185226443,0.11740601807832719,10.161761283874513,0.03441517427563668,-0.02690064162015915,-0.0017714726272970438,-0.4752604365348816,0.6484733819961548,-0.8665874600410463,0.47965665362708926,3.6705636264188395,0.12424997425321198,,,,,,
11,10,1.268496870994568,0.22624351084232333,9.596412658691406,0.019210400059819225,-0.030881617218255997,-0.012993461452424528,-0.4775274395942688,0.6445371508598329,-0.8636341691017152,0.4843453198155371,3.6376588919418626,0.11512172260542185,,,,,,
11,11,1.268496870994568,0.22624351084232333,9.596412658691406,0.019210400059819225,-0.030881617218255997,-0.012993461452424528,-0.4775274395942688,0.6445371508598329,-0.8636341691017152,0.4843453198155371,3.6376588919418626,0.11512172260542185,,,,,,
11,12,1.268496870994568,0.22624351084232333,9.596412658691406,0.019210400059819225,-0.030881617218255997,-0.012993461452424528,-0.4775274395942688,0.6445371508598329,-0.8636341691017152,0.4843453198155371,3.6376588919418626,0.11512172260542185,,,,,,
11,13,1.9171841144561768,-0.31011801958084106,10.194679260253906,0.030237799510359768,-0.013783670961856842,-0.0031349221244454384,-0.4816905558109284,0.6521610617637635,-0.8513240814208984,0.4848691322194221,3.527230438291209,0.10568605431003232,,,,,,
11,14,1.9171841144561768,-0.31011801958084106,10.194679260253906,0.030237799510359768,-0.013783670961856842,-0.0031349221244454384,-0.4816905558109284,0.6521610617637635,-0.8513240814208984,0.4848691322194221,3.527230438291209,0.10568605431003232,,,,,,
11,15,1.9171841144561768,-0.31011801958084106,10.194679260253906,0.030237799510359768,-0.013783670961856842,-0.0031349221244454384,-0.4816905558109284,0.6521610617637635,-0.8513240814208984,0.4848691322194221,3.527230438291209,0.10568605431003232,,,,,,
11,16,1.298546552658081,0.27285003662109375,9.584768295288086,0.025452274829149246,-0.0200751293450594,-0.005073909647762775,-0.4823073744773865,0.6522642374038696,-0.8568745851516724,0.4927797578653511,3.49438521766744,0.1010209871468981,,,,,,
11,17,1.701940417289734,0.11874634027481079,10.029375076293945,0.002770048100501299,-0.0203147791326046,0.00026655921828933066,-0.4827519357204438,0.6507959365844727,-0.8564000725746156,0.4881662508369185,3.460140721573287,0.09950749517511896,,,,,,
11,18,1.392080903053284,-0.02020838670432568,9.852855682373047,0.018806487321853638,-0.01309338863939047,-0.008802296593785286,-0.48260864615440374,0.6487637162208558,-0.8519003987312318,0.4925747340155474,3.4285133250886277,0.09287420300386258,,,,,,
11,19,1.039960026741028,-0.24047692120075229,9.916898727416992,0.017263421788811687,0.0006262089009396733,-0.005328971892595291,-0.473680466413498,0.6512527465820312,-0.858957052230835,0.49377350619641786,3.339583845285661,0.07780327954642913,,,,,,
11,20,1.039960026741028,-0.24047692120075229,9.916898727416992,0.017263421788811687,0.0006262089009396733,-0.005328971892595291,-0.473680466413498,0.6512527465820312,-0.858957052230835,0.49377350619641786,3.339583845285661,0.07780327954642913,,,,,,
11,21,1.039960026741028,-0.24047692120075229,9.916898727416992,0.017263421788811687,0.0006262089009396733,-0.005328971892595291,-0.473680466413498,0.6512527465820312,-0.858957052230835,0.49377350619641786,3.339583845285661,0.07780327954642913,,,,,,
11,22,1.0200825929641726,-0.15332257747650146,10.394629478454592,0.015286083333194258,0.0139906145632267,-0.0034301492851227526,-0.47574442625045776,0.652334451675415,-0.8639740943908691,0.49639233785599585,3.3190873624153365,0.0744203784663322,,,,,,
11,23,0.4062090516090393,0.16850985586643222,9.640678405761719,0.018911123275756836,0.02321204356849194,-0.005703144241124392,-0.4795534610748291,0.6484823226928711,-0.865052342414856,0.5009219482578928,3.303038668176703,0.0697561485029841,,,,,,
11,24,1.3936244249343874,-0.5030206441879272,10.4546594619751,0.02054208517074585,0.008144079707562925,-0.00964697077870369,-0.4796394109725952,0.6496431231498719,-0.8478540182113647,0.5007633793008807,3.2132535693470605,0.04718961138928362,,,,,,
11,25,1.0568962097167969,-0.13052192330360413,9.89565181732178,0.0030357220675796275,-0.003151669399812818,0.00032655009999871254,-0.4756347835063935,0.6479174494743348,-0.8625576496124268,0.4956168898759103,3.1242225221833033,0.03464199765460463,,,,,,
11,26,1.0568962097167969,-0.13052192330360413,9.89565181732178,0.0030357220675796275,-0.003151669399812818,0.00032655009999871254,-0.4756347835063935,0.6479174494743348,-0.8625576496124268,0.4956168898759103,3.1242225221833033,0.03464199765460463,,,,,,
11,27,1.0568962097167969,-0.13052192330360413,9.89565181732178,0.0030357220675796275,-0.003151669399812818,0.00032655009999871254,-0.4756347835063935,0.6479174494743348,-0.8625576496124268,0.4956168898759103,3.1242225221833033,0.03464199765460463,,,,,,
11,28,1.0568962097167969,-0.13052192330360413,9.89565181732178,0.0030357220675796275,-0.003151669399812818,0.00032655009999871254,-0.4756347835063935,0.6479174494743348,-0.8625576496124268,0.4956168898759103,3.1242225221833033,0.03464199765460463,,,,,,
11,29,1.0568962097167969,-0.13052192330360413,9.89565181732178,0.0030357220675796275,-0.003151669399812818,0.00032655009999871254,-0.4756347835063935,0.6479174494743348,-0.8625576496124268,0.4956168898759103,3.1242225221833033,0.03464199765460463,,,,,,
11,30,0.8790792822837831,-0.4973218739032746,9.866235733032227,0.011704086326062681,-0.0014479828532785177,0.00020587445760611447,-0.47834923863410955,0.6463699936866761,-0.8565187454223633,0.4960461707204953,3.0896873007688175,0.0332161729771628,,,,,,
11,31,0.9799236655235292,0.3082773685455322,10.095378875732422,0.01793146319687367,-0.008260967209935188,-0.0021309638395905495,-0.479167252779007,0.6472363471984863,-0.849929928779602,0.4996012560176013,3.050735831403659,0.03031920139601534,,,,,,
11,32,0.5702449679374696,-0.12773528695106506,9.817509651184084,-0.0004486172983888537,-0.0030672855209559207,-0.008715502917766571,-0.47825160622596746,0.6559360623359681,-0.8457003235816957,0.48213785207522264,2.975980964711963,0.019084676037052835,,,,,,
11,33,0.5702449679374696,-0.12773528695106506,9.817509651184084,-0.0004486172983888537,-0.0030672855209559207,-0.008715502917766571,-0.47825160622596746,0.6559360623359681,-0.8457003235816957,0.48213785207522264,2.975980964711963,0.019084676037052835,,,,,,
11,34,0.7759910821914673,-0.03343423455953598,9.820680618286133,-0.011045128107070923,-0.004263086710125209,-0.007780218031257392,-0.4774587452411652,0.6536424756050111,-0.8543410301208496,0.46619250651493416,2.8895163243795334,0.005517320393116045,,,,,,
11,35,0.7759910821914673,-0.03343423455953598,9.820680618286133,-0.011045128107070923,-0.004263086710125209,-0.007780218031257392,-0.4774587452411652,0.6536424756050111,-0.8543410301208496,0.46619250651493416,2.8895163243795334,0.005517320393116045,,,,,,
11,36,1.0950084924697878,-0.304898351430893,9.983119010925295,-0.0040855477564036855,-0.013057110831141472,0.0027367018628865485,-0.4793105721473694,0.6492685675621034,-0.8544296622276307,0.457973262230683,2.8453097801914518,0.005587837441048071,,,,,,
11,37,0.8682494759559632,-0.4326794147491455,9.954442024230959,0.02835132367908955,0.0022625746205449104,0.0012406053720042112,-0.47963753342628485,0.6554242372512817,-0.8436850905418397,0.4643671524737357,2.775163616879228,0.004708320449064461,,,,,,
11,38,0.8682494759559632,-0.4326794147491455,9.954442024230959,0.02835132367908955,0.0022625746205449104,0.0012406053720042112,-0.47963753342628485,0.6554242372512817,-0.8436850905418397,0.4643671524737357,2.775163616879228,0.004708320449064461,,,,,,
11,39,1.332742691040039,0.6673612594604492,10.313653945922852,0.03475345298647881,-0.0032938250806182627,-0.005231390707194805,-0.4788693487644196,0.6531486511230469,-0.8533353209495546,0.4898216582397623,2.666924401372982,-0.0031498742648299297,,,,,,
11,40,1.332742691040039,0.6673612594604492,10.313653945922852,0.03475345298647881,-0.0032938250806182627,-0.005231390707194805,-0.4788693487644196,0.6531486511230469,-0.8533353209495546,0.4898216582397623,2.666924401372982,-0.0031498742648299297,,,,,,
12,0,1.0383292436599734,-0.038318727165460593,9.74648189544678,0.02642358280718327,-0.03969220817089081,-0.0057629221118986615,-0.47245490550994873,0.6518818140029907,-0.8675348162651063,0.46429958957388157,3.843538490612174,0.14779323675654282,,,,,,
12,1,1.0383292436599734,-0.038318727165460593,9.74648189544678,0.02642358280718327,-0.03969220817089081,-0.0057629221118986615,-0.47245490550994873,0.6518818140029907,-0.8675348162651063,0.46429958957388157,3.843538490612174,0.14779323675654282,,,,,,
12,2,1.0383292436599734,-0.038318727165460593,9.74648189544678,0.02642358280718327,-0.03969220817089081,-0.0057629221118986615,-0.47245490550994873,0.6518818140029907,-0.8675348162651063,0.46429958957388157,3.843538490612174,0.14779323675654282,,,,,,
12,3,1.0383292436599734,-0.038318727165460593,9.74648189544678,0.02642358280718327,-0.03969220817089081,-0.0057629221118986615,-0.47245490550994873,0.6518818140029907,-0.8675348162651063,0.46429958957388157,3.843538490612174,0.14779323675654282,,,,,,
12,4,1.0383292436599734,-0.038318727165460593,9.74648189544678,0.02642358280718327,-0.03969220817089081,-0.0057629221118986615,-0.47245490550994873,0.6518818140029907,-0.8675348162651063,0.46429958957388157,3.843538490612174,0.14779323675654282,,,,,,
12,5,-0.5477914810180664,-0.6059553027153016,9.6878137588501,-0.00749366031959653,-0.016536593437194824,-0.001118299551308155,-0.4760556221008301,0.6435405611991883,-0.8631580471992494,0.4649872927107333,3.7980276819057277,0.12379093588863985,,,,,,
12,6,-0.5477914810180664,-0.6059553027153016,9.6878137588501,-0.00749366031959653,-0.016536593437194824,-0.001118299551308155,-0.4760556221008301,0.6435405611991883,-0.8631580471992494,0.4649872927107333,3.7980276819057277,0.12379093588863985,,,,,,
12,7,-0.5477914810180664,-0.6059553027153016,9.6878137588501,-0.00749366031959653,-0.016536593437194824,-0.001118299551308155,-0.4760556221008301,0.6435405611991883,-0.8631580471992494,0.4649872927107333,3.7980276819057277,0.12379093588863985,,,,,,
12,8,2.395771741867066,0.05285965278744698,10.13969135284424,0.002908223308622837,-0.040381111204624176,0.008971323259174825,-0.47287008166313177,0.6523194909095765,-0.8644928336143495,0.4634242013687165,3.7204808570433556,0.12863206078298392,,,,,,
12,9,1.0923451185226443,0.11740601807832719,10.161761283874513,0.03441517427563668,-0.02690064162015915,-0.0017714726272970438,-0.4752604365348816,0.6484733819961548,-0.8665874600410463,0.47965665362708926,3.6705636264188395,0.12424997425321198,,,,,,
12,10,1.268496870994568,0.22624351084232333,9.596412658691406,0.019210400059819225,-0.030881617218255997,-0.012993461452424528,-0.4775274395942688,0.6445371508598329,-0.8636341691017152,0.4843453198155371,3.6376588919418626,0.11512172260542185,,,,,,
12,11,1.268496870994568,0.22624351084232333,9.596412658691406,0.019210400059819225,-0.030881617218255997,-0.012993461452424528,-0.4775274395942688,0.6445371508598329,-0.8636341691017152,0.4843453198155371,3.6376588919418626,0.11512172260542185,,,,,,
12,12,1.268496870994568,0.22624351084232333,9.596412658691406,0.019210400059819225,-0.030881617218255997,-0.012993461452424528,-0.4775274395942688,0.6445371508598329,-0.8636341691017152,0.4843453198155371,3.6376588919418626,0.11512172260542185,,,,,,
12,13,1.9171841144561768,-0.31011801958084106,10.194679260253906,0.030237799510359768,-0.013783670961856842,-0.0031349221244454384,-0.4816905558109284,0.6521610617637635,-0.8513240814208984,0.4848691322194221,3.527230438291209,0.10568605431003232,,,,,,
12,14,1.9171841144561768,-0.31011801958084106,10.194679260253906,0.030237799510359768,-0.013783670961856842,-0.0031349221244454384,-0.4816905558109284,0.6521610617637635,-0.8513240814208984,0.4848691322194221,3.527230438291209,0.10568605431003232,,,,,,
12,15,1.9171841144561768,-0.31011801958084106,10.194679260253906,0.030237799510359768,-0.013783670961856842,-0.0031349221244454384,-0.4816905558109284,0.6521610617637635,-0.8513240814208984,0.4848691322194221,3.527230438291209,0.10568605431003232,,,,,,
12,16,1.298546552658081,0.27285003662109375,9.584768295288086,0.025452274829149246,-0.0200751293450594,-0.005073909647762775,-0.4823073744773865,0.6522642374038696,-0.8568745851516724,0.4927797578653511,3.49438521766744,0.1010209871468981,,,,,,
12,17,1.701940417289734,0.11874634027481079,10.029375076293945,0.002770048100501299,-0.0203147791326046,0.00026655921828933066,-0.4827519357204438,0.6507959365844727,-0.8564000725746156,0.4881662508369185,3.460140721573287,0.09950749517511896,,,,,,
12,18,1.392080903053284,-0.02020838670432568,9.852855682373047,0.018806487321853638,-0.01309338863939047,-0.008802296593785286,-0.48260864615440374,0.6487637162208558,-0.8519003987312318,0.4925747340155474,3.4285133250886277,0.09287420300386258,,,,,,
12,19,1.039960026741028,-0.24047692120075229,9.916898727416992,0.017263421788811687,0.0006262089009396733,-0.005328971892595291,-0.473680466413498,0.6512527465820312,-0.858957052230835,0.49377350619641786,3.339583845285661,0.07780327954642913,,,,,,
12,20,1.039960026741028,-0.24047692120075229,9.916898727416992,0.017263421788811687,0.0006262089009396733,-0.005328971892595291,-0.473680466413498,0.6512527465820312,-0.858957052230835,0.49377350619641786,3.339583845285661,0.07780327954642913,,,,,,
12,21,1.039960026741028,-0.24047692120075229,9.916898727416992,0.017263421788811687,0.0006262089009396733,-0.005328971892595291,-0.473680466413498,0.6512527465820312,-0.858957052230835,0.49377350619641786,3.339583845285661,0.07780327954642913,,,,,,
12,22,1.0200825929641726,-0.15332257747650146,10.394629478454592,0.015286083333194258,0.0139906145632267,-0.0034301492851227526,-0.47574442625045776,0.652334451675415,-0.8639740943908691,0.49639233785599585,3.3190873624153365,0.0744203784663322,,,,,,
12,23,0.4062090516090393,0.16850985586643222,9.640678405761719,0.018911123275756836,0.02321204356849194,-0.005703144241124392,-0.4795534610748291,0.6484823226928711,-0.865052342414856,0.5009219482578928,3.303038668176703,0.0697561485029841,,,,,,
12,24,1.3936244249343874,-0.5030206441879272,10.4546594619751,0.02054208517074585,0.008144079707562925,-0.00964697077870369,-0.4796394109725952,0.6496431231498719,-0.8478540182113647,0.5007633793008807,3.2132535693470605,0.04718961138928362,,,,,,
12,25,1.0568962097167969,-0.13052192330360413,9.89565181732178,0.0030357220675796275,-0.003151669399812818,0.00032655009999871254,-0.4756347835063935,0.6479174494743348,-0.8625576496124268,0.4956168898759103,3.1242225221833033,0.03464199765460463,,,,,,
12,26,1.0568962097167969,-0.13052192330360413,9.89565181732178,0.0030357220675796275,-0.003151669399812818,0.00032655009999871254,-0.4756347835063935,0.6479174494743348,-0.8625576496124268,0.4956168898759103,3.1242225221833033,0.03464199765460463,,,,,,
12,27,1.0568962097167969,-0.13052192330360413,9.89565181732178,0.0030357220675796275,-0.003151669399812818,0.00032655009999871254,-0.4756347835063935,0.6479174494743348,-0.8625576496124268,0.4956168898759103,3.1242225221833033,0.03464199765460463,,,,,,
