frame_id,subframe_id,acc_x,acc_y,acc_z,gyro_x,gyro_y,gyro_z,mag_x,mag_y,mag_z,roll,pitch,yaw
1,0,-0.7650567889213563,-0.09067373722791673,9.770956039428711,0.007477028761059047,0.0034168378915637736,-1.1913332855328918e-05,-0.4627757668495178,0.6236774921417236,-0.9050758481025697,0.15913082026597591,4.199452227675201,0.15053515437891293,,,,,,
1,1,-0.7650567889213563,-0.09067373722791673,9.770956039428711,0.007477028761059047,0.0034168378915637736,-1.1913332855328918e-05,-0.4627757668495178,0.6236774921417236,-0.9050758481025697,0.15913082026597591,4.199452227675201,0.15053515437891293,,,,,,
1,2,-0.7650567889213563,-0.09067373722791673,9.770956039428711,0.007477028761059047,0.0034168378915637736,-1.1913332855328918e-05,-0.4627757668495178,0.6236774921417236,-0.9050758481025697,0.15913082026597591,4.199452227675201,0.15053515437891293,,,,,,
1,3,-0.7650567889213563,-0.09067373722791673,9.770956039428711,0.007477028761059047,0.0034168378915637736,-1.1913332855328918e-05,-0.4627757668495178,0.6236774921417236,-0.9050758481025697,0.15913082026597591,4.199452227675201,0.15053515437891293,,,,,,
1,4,-0.7650567889213563,-0.09067373722791673,9.770956039428711,0.007477028761059047,0.0034168378915637736,-1.1913332855328918e-05,-0.4627757668495178,0.6236774921417236,-0.9050758481025697,0.15913082026597591,4.199452227675201,0.15053515437891293,,,,,,
1,5,-0.7832673192024232,-0.05849195271730423,9.77984619140625,0.012099014595150948,0.003340766998007894,0.0032994961366057396,-0.46217980980873113,0.6226258277893066,-0.9010614156723022,0.16412263043727043,4.203304270795506,0.1518630547243696,,,,,,
1,6,-0.6695815324783325,-0.06493399292230607,9.78309440612793,0.00985826086252928,0.0033481698483228683,0.0040959916077554235,-0.4588391184806824,0.6279182434082031,-0.8984339237213135,0.1715236402054141,4.211126694404382,0.15509058157844557,,,,,,
1,7,-0.6703875660896302,-0.0804511532187462,9.797222137451172,0.008904211223125458,0.0036794114857912064,0.0038906966801732783,-0.4584775269031525,0.6270378828048706,-0.9040108919143677,0.17460507624166388,4.215100376132839,0.15672662521742978,,,,,,
1,8,-0.6703875660896302,-0.0804511532187462,9.797222137451172,0.008904211223125458,0.0036794114857912064,0.0038906966801732783,-0.4584775269031525,0.6270378828048706,-0.9040108919143677,0.17460507624166388,4.215100376132839,0.15672662521742978,,,,,,
1,9,-0.6567347049713135,-0.08080110698938371,9.779129028320312,0.008653844706714155,0.006588935852050781,0.003030885010957718,-0.4603455066680908,0.6236395239830018,-0.9040777683258057,0.1818974452622636,4.223435777045026,0.1604656513839012,,,,,,
1,10,-0.5536327362060547,-0.0796031802892685,9.795750617980959,0.010193490423262121,0.008014252409338951,0.0015608636895194652,-0.46165746450424194,0.6230735778808594,-0.8990337252616883,0.18545538861449953,4.229691492542615,0.16071932280788695,,,,,,
1,11,-0.5536327362060547,-0.0796031802892685,9.795750617980959,0.010193490423262121,0.008014252409338951,0.0015608636895194652,-0.46165746450424194,0.6230735778808594,-0.8990337252616883,0.18545538861449953,4.229691492542615,0.16071932280788695,,,,,,
1,12,-0.6893809437751771,0.002693592803552747,9.796686172485352,0.010905723087489607,0.01002484653145075,0.003387714270502329,-0.46162804961204534,0.6249795556068422,-0.8964661955833436,0.18944387769846097,4.2369199605245775,0.16200714219959234,,,,,,
1,13,-0.843400239944458,0.004312660079449416,9.796010971069336,0.00954639818519354,0.014338657259941101,0.0017375237075611951,-0.4593040943145752,0.6269466876983643,-0.8984533548355103,0.19260189492198812,4.246564035149199,0.16235931907381806,,,,,,
1,14,-0.9088470339775087,-0.058125413954257965,9.792925834655763,0.010694963857531548,0.0006935828714631499,0.004876360297203064,-0.45994982123374945,0.6265891790390015,-0.9055292010307313,0.1998137834693802,4.254098926656275,0.16552511872598666,,,,,,
1,15,-0.9088470339775087,-0.058125413954257965,9.792925834655763,0.010694963857531548,0.0006935828714631499,0.004876360297203064,-0.45994982123374945,0.6265891790390015,-0.9055292010307313,0.1998137834693802,4.254098926656275,0.16552511872598666,,,,,,
1,16,-0.749722957611084,-0.07402681559324266,9.794439315795898,0.012264027260243894,-0.0016224064165726306,0.002315207850188017,-0.4599094688892365,0.6241503953933716,-0.9055836200714111,0.20451196103671848,4.25498202911022,0.16617274912083838,,,,,,
1,17,-0.6332428455352783,-0.0644819661974907,9.795742988586428,0.01069975458085537,0.004759859759360553,0.0014599452260881662,-0.45978656411170965,0.622614860534668,-0.9015778303146362,0.2082290100255847,4.259508066458309,0.1663272395269225,,,,,,
1,18,-1.0854668617248535,-0.032777588814497,9.73869037628174,0.011053355410695076,-0.002003432018682361,0.0034495112486183643,-0.4594321846961975,0.625112771987915,-0.9050593376159668,0.22371329451213678,4.278810047070525,0.17336716504175645,,,,,,
1,19,-1.0854668617248535,-0.032777588814497,9.73869037628174,0.011053355410695076,-0.002003432018682361,0.0034495112486183643,-0.4594321846961975,0.625112771987915,-0.9050593376159668,0.22371329451213678,4.278810047070525,0.17336716504175645,,,,,,
1,20,-1.0854668617248535,-0.032777588814497,9.73869037628174,0.011053355410695076,-0.002003432018682361,0.0034495112486183643,-0.4594321846961975,0.625112771987915,-0.9050593376159668,0.22371329451213678,4.278810047070525,0.17336716504175645,,,,,,
1,21,-1.0854668617248535,-0.032777588814497,9.73869037628174,0.011053355410695076,-0.002003432018682361,0.0034495112486183643,-0.4594321846961975,0.625112771987915,-0.9050593376159668,0.22371329451213678,4.278810047070525,0.17336716504175645,,,,,,
1,22,-1.0229671001434326,-0.05043073743581772,9.737146377563477,0.009932709857821465,-0.012289800681173803,0.005806514527648688,-0.46127545833587646,0.6216964125633241,-0.9041166901588441,0.22696628550239772,4.273827211155346,0.1759238534430878,,,,,,
1,23,-1.0500130653381348,0.03224946931004525,9.761116027832031,0.007973642088472845,-0.012668938376009466,0.004989312961697578,-0.45926374197006226,0.6245078444480897,-0.8985077738761903,0.23220104524168458,4.263520992001739,0.17985283696940846,,,,,,
2,0,-0.7650567889213563,-0.09067373722791673,9.770956039428711,0.007477028761059047,0.0034168378915637736,-1.1913332855328918e-05,-0.4627757668495178,0.6236774921417236,-0.9050758481025697,0.15913082026597591,4.199452227675201,0.15053515437891293,,,,,,
2,1,-0.7650567889213563,-0.09067373722791673,9.770956039428711,0.007477028761059047,0.0034168378915637736,-1.1913332855328918e-05,-0.4627757668495178,0.6236774921417236,-0.9050758481025697,0.15913082026597591,4.199452227675201,0.15053515437891293,,,,,,
2,2,-0.7650567889213563,-0.09067373722791673,9.770956039428711,0.007477028761059047,0.0034168378915637736,-1.1913332855328918e-05,-0.4627757668495178,0.6236774921417236,-0.9050758481025697,0.15913082026597591,4.199452227675201,0.15053515437891293,,,,,,
2,3,-0.7650567889213563,-0.09067373722791673,9.770956039428711,0.007477028761059047,0.0034168378915637736,-1.1913332855328918e-05,-0.4627757668495178,0.6236774921417236,-0.9050758481025697,0.15913082026597591,4.199452227675201,0.15053515437891293,,,,,,
2,4,-0.7650567889213563,-0.09067373722791673,9.770956039428711,0.007477028761059047,0.0034168378915637736,-1.1913332855328918e-05,-0.4627757668495178,0.6236774921417236,-0.9050758481025697,0.15913082026597591,4.199452227675201,0.15053515437891293,,,,,,
2,5,-0.7832673192024232,-0.05849195271730423,9.77984619140625,0.012099014595150948,0.003340766998007894,0.0032994961366057396,-0.46217980980873113,0.6226258277893066,-0.9010614156723022,0.16412263043727043,4.203304270795506,0.1518630547243696,,,,,,
2,6,-0.6695815324783325,-0.06493399292230607,9.78309440612793,0.00985826086252928,0.0033481698483228683,0.0040959916077554235,-0.4588391184806824,0.6279182434082031,-0.8984339237213135,0.1715236402054141,4.211126694404382,0.15509058157844557,,,,,,
2,7,-0.6703875660896302,-0.0804511532187462,9.797222137451172,0.008904211223125458,0.0036794114857912064,0.0038906966801732783,-0.4584775269031525,0.6270378828048706,-0.9040108919143677,0.17460507624166388,4.215100376132839,0.15672662521742978,,,,,,
2,8,-0.6703875660896302,-0.0804511532187462,9.797222137451172,0.008904211223125458,0.0036794114857912064,0.0038906966801732783,-0.4584775269031525,0.6270378828048706,-0.9040108919143677,0.17460507624166388,4.215100376132839,0.15672662521742978,,,,,,
2,9,-0.6567347049713135,-0.08080110698938371,9.779129028320312,0.008653844706714155,0.006588935852050781,0.003030885010957718,-0.4603455066680908,0.6236395239830018,-0.9040777683258057,0.1818974452622636,4.223435777045026,0.1604656513839012,,,,,,
2,10,-0.5536327362060547,-0.0796031802892685,9.795750617980959,0.010193490423262121,0.008014252409338951,0.0015608636895194652,-0.46165746450424194,0.6230735778808594,-0.8990337252616883,0.18545538861449953,4.229691492542615,0.16071932280788695,,,,,,
2,11,-0.5536327362060547,-0.0796031802892685,9.795750617980959,0.010193490423262121,0.008014252409338951,0.0015608636895194652,-0.46165746450424194,0.6230735778808594,-0.8990337252616883,0.18545538861449953,4.229691492542615,0.16071932280788695,,,,,,
2,12,-0.6893809437751771,0.002693592803552747,9.796686172485352,0.010905723087489607,0.01002484653145075,0.003387714270502329,-0.46162804961204534,0.6249795556068422,-0.8964661955833436,0.18944387769846097,4.2369199605245775,0.16200714219959234,,,,,,
2,13,-0.843400239944458,0.004312660079449416,9.796010971069336,0.00954639818519354,0.014338657259941101,0.0017375237075611951,-0.4593040943145752,0.6269466876983643,-0.8984533548355103,0.19260189492198812,4.246564035149199,0.16235931907381806,,,,,,
2,14,-0.9088470339775087,-0.058125413954257965,9.792925834655763,0.010694963857531548,0.0006935828714631499,0.004876360297203064,-0.45994982123374945,0.6265891790390015,-0.9055292010307313,0.1998137834693802,4.254098926656275,0.16552511872598666,,,,,,
2,15,-0.9088470339775087,-0.058125413954257965,9.792925834655763,0.010694963857531548,0.0006935828714631499,0.004876360297203064,-0.45994982123374945,0.6265891790390015,-0.9055292010307313,0.1998137834693802,4.254098926656275,0.16552511872598666,,,,,,
2,16,-0.749722957611084,-0.07402681559324266,9.794439315795898,0.012264027260243894,-0.0016224064165726306,0.002315207850188017,-0.4599094688892365,0.6241503953933716,-0.9055836200714111,0.20451196103671848,4.25498202911022,0.16617274912083838,,,,,,
2,17,-0.6332428455352783,-0.0644819661974907,9.795742988586428,0.01069975458085537,0.004759859759360553,0.0014599452260881662,-0.45978656411170965,0.622614860534668,-0.9015778303146362,0.2082290100255847,4.259508066458309,0.1663272395269225,,,,,,
2,18,-1.0854668617248535,-0.032777588814497,9.73869037628174,0.011053355410695076,-0.002003432018682361,0.0034495112486183643,-0.4594321846961975,0.625112771987915,-0.9050593376159668,0.22371329451213678,4.278810047070525,0.17336716504175645,,,,,,
2,19,-1.0854668617248535,-0.032777588814497,9.73869037628174,0.011053355410695076,-0.002003432018682361,0.0034495112486183643,-0.4594321846961975,0.625112771987915,-0.9050593376159668,0.22371329451213678,4.278810047070525,0.17336716504175645,,,,,,
2,20,-1.0854668617248535,-0.032777588814497,9.73869037628174,0.011053355410695076,-0.002003432018682361,0.0034495112486183643,-0.4594321846961975,0.625112771987915,-0.9050593376159668,0.22371329451213678,4.278810047070525,0.17336716504175645,,,,,,
2,21,-1.0854668617248535,-0.032777588814497,9.73869037628174,0.011053355410695076,-0.002003432018682361,0.0034495112486183643,-0.4594321846961975,0.625112771987915,-0.9050593376159668,0.22371329451213678,4.278810047070525,0.17336716504175645,,,,,,
2,22,-1.0229671001434326,-0.05043073743581772,9.737146377563477,0.009932709857821465,-0.012289800681173803,0.005806514527648688,-0.46127545833587646,0.6216964125633241,-0.9041166901588441,0.22696628550239772,4.273827211155346,0.1759238534430878,,,,,,
2,23,-1.0500130653381348,0.03224946931004525,9.761116027832031,0.007973642088472845,-0.012668938376009466,0.004989312961697578,-0.45926374197006226,0.6245078444480897,-0.8985077738761903,0.23220104524168458,4.263520992001739,0.17985283696940846,,,,,,
3,0,-0.7650567889213563,-0.09067373722791673,9.770956039428711,0.007477028761059047,0.0034168378915637736,-1.1913332855328918e-05,-0.4627757668495178,0.6236774921417236,-0.9050758481025697,0.15913082026597591,4.199452227675201,0.15053515437891293,,,,,,
3,1,-0.7650567889213563,-0.09067373722791673,9.770956039428711,0.007477028761059047,0.0034168378915637736,-1.1913332855328918e-05,-0.4627757668495178,0.6236774921417236,-0.9050758481025697,0.15913082026597591,4.199452227675201,0.15053515437891293,,,,,,
3,2,-0.7650567889213563,-0.09067373722791673,9.770956039428711,0.007477028761059047,0.0034168378915637736,-1.1913332855328918e-05,-0.4627757668495178,0.6236774921417236,-0.9050758481025697,0.15913082026597591,4.199452227675201,0.15053515437891293,,,,,,
3,3,-0.7650567889213563,-0.09067373722791673,9.770956039428711,0.007477028761059047,0.0034168378915637736,-1.1913332855328918e-05,-0.4627757668495178,0.6236774921417236,-0.9050758481025697,0.15913082026597591,4.199452227675201,0.15053515437891293,,,,,,
3,4,-0.7650567889213563,-0.09067373722791673,9.770956039428711,0.007477028761059047,0.0034168378915637736,-1.1913332855328918e-05,-0.4627757668495178,0.6236774921417236,-0.9050758481025697,0.15913082026597591,4.199452227675201,0.15053515437891293,,,,,,
3,5,-0.7832673192024232,-0.05849195271730423,9.77984619140625,0.012099014595150948,0.003340766998007894,0.0032994961366057396,-0.46217980980873113,0.6226258277893066,-0.9010614156723022,0.16412263043727043,4.203304270795506,0.1518630547243696,,,,,,
3,6,-0.6695815324783325,-0.06493399292230607,9.78309440612793,0.00985826086252928,0.0033481698483228683,0.0040959916077554235,-0.4588391184806824,0.6279182434082031,-0.8984339237213135,0.1715236402054141,4.211126694404382,0.15509058157844557,,,,,,
3,7,-0.6703875660896302,-0.0804511532187462,9.797222137451172,0.008904211223125458,0.0036794114857912064,0.0038906966801732783,-0.4584775269031525,0.6270378828048706,-0.9040108919143677,0.17460507624166388,4.215100376132839,0.15672662521742978,,,,,,
3,8,-0.6703875660896302,-0.0804511532187462,9.797222137451172,0.008904211223125458,0.0036794114857912064,0.0038906966801732783,-0.4584775269031525,0.6270378828048706,-0.9040108919143677,0.17460507624166388,4.215100376132839,0.15672662521742978,,,,,,
3,9,-0.6567347049713135,-0.08080110698938371,9.779129028320312,0.008653844706714155,0.006588935852050781,0.003030885010957718,-0.4603455066680908,0.6236395239830018,-0.9040777683258057,0.1818974452622636,4.223435777045026,0.1604656513839012,,,,,,
3,10,-0.5536327362060547,-0.0796031802892685,9.795750617980959,0.010193490423262121,0.008014252409338951,0.0015608636895194652,-0.46165746450424194,0.6230735778808594,-0.8990337252616883,0.18545538861449953,4.229691492542615,0.16071932280788695,,,,,,
3,11,-0.5536327362060547,-0.0796031802892685,9.795750617980959,0.010193490423262121,0.008014252409338951,0.0015608636895194652,-0.46165746450424194,0.6230735778808594,-0.8990337252616883,0.18545538861449953,4.229691492542615,0.16071932280788695,,,,,,
3,12,-0.6893809437751771,0.002693592803552747,9.796686172485352,0.010905723087489607,0.01002484653145075,0.003387714270502329,-0.46162804961204534,0.6249795556068422,-0.8964661955833436,0.18944387769846097,4.2369199605245775,0.16200714219959234,,,,,,
3,13,-0.843400239944458,0.004312660079449416,9.796010971069336,0.00954639818519354,0.014338657259941101,0.0017375237075611951,-0.4593040943145752,0.6269466876983643,-0.8984533548355103,0.19260189492198812,4.246564035149199,0.16235931907381806,,,,,,
3,14,-0.9088470339775087,-0.058125413954257965,9.792925834655763,0.010694963857531548,0.0006935828714631499,0.004876360297203064,-0.45994982123374945,0.6265891790390015,-0.9055292010307313,0.1998137834693802,4.254098926656275,0.16552511872598666,,,,,,
3,15,-0.9088470339775087,-0.058125413954257965,9.792925834655763,0.010694963857531548,0.0006935828714631499,0.004876360297203064,-0.45994982123374945,0.6265891790390015,-0.9055292010307313,0.1998137834693802,4.254098926656275,0.16552511872598666,,,,,,
3,16,-0.749722957611084,-0.07402681559324266,9.794439315795898,0.012264027260243894,-0.0016224064165726306,0.002315207850188017,-0.4599094688892365,0.6241503953933716,-0.9055836200714111,0.20451196103671848,4.25498202911022,0.16617274912083838,,,,,,
3,17,-0.6332428455352783,-0.0644819661974907,9.795742988586428,0.01069975458085537,0.004759859759360553,0.0014599452260881662,-0.45978656411170965,0.622614860534668,-0.9015778303146362,0.2082290100255847,4.259508066458309,0.1663272395269225,,,,,,
3,18,-1.0854668617248535,-0.032777588814497,9.73869037628174,0.011053355410695076,-0.002003432018682361,0.0034495112486183643,-0.4594321846961975,0.625112771987915,-0.9050593376159668,0.22371329451213678,4.278810047070525,0.17336716504175645,,,,,,
3,19,-1.0854668617248535,-0.032777588814497,9.73869037628174,0.011053355410695076,-0.002003432018682361,0.0034495112486183643,-0.4594321846961975,0.625112771987915,-0.9050593376159668,0.22371329451213678,4.278810047070525,0.17336716504175645,,,,,,
3,20,-1.0854668617248535,-0.032777588814497,9.73869037628174,0.011053355410695076,-0.002003432018682361,0.0034495112486183643,-0.4594321846961975,0.625112771987915,-0.9050593376159668,0.22371329451213678,4.278810047070525,0.17336716504175645,,,,,,
3,21,-1.0854668617248535,-0.032777588814497,9.73869037628174,0.011053355410695076,-0.002003432018682361,0.0034495112486183643,-0.4594321846961975,0.625112771987915,-0.9050593376159668,0.22371329451213678,4.278810047070525,0.17336716504175645,,,,,,
3,22,-1.0229671001434326,-0.05043073743581772,9.737146377563477,0.009932709857821465,-0.012289800681173803,0.005806514527648688,-0.46127545833587646,0.6216964125633241,-0.9041166901588441,0.22696628550239772,4.273827211155346,0.1759238534430878,,,,,,
3,23,-1.0500130653381348,0.03224946931004525,9.761116027832031,0.007973642088472845,-0.012668938376009466,0.004989312961697578,-0.45926374197006226,0.6245078444480897,-0.8985077738761903,0.23220104524168458,4.263520992001739,0.17985283696940846,,,,,,
4,0,-0.7650567889213563,-0.09067373722791673,9.770956039428711,0.007477028761059047,0.0034168378915637736,-1.1913332855328918e-05,-0.4627757668495178,0.6236774921417236,-0.9050758481025697,0.15913082026597591,4.199452227675201,0.15053515437891293,,,,,,
4,1,-0.7650567889213563,-0.09067373722791673,9.770956039428711,0.007477028761059047,0.0034168378915637736,-1.1913332855328918e-05,-0.4627757668495178,0.6236774921417236,-0.9050758481025697,0.15913082026597591,4.199452227675201,0.15053515437891293,,,,,,
4,2,-0.7650567889213563,-0.09067373722791673,9.770956039428711,0.007477028761059047,0.0034168378915637736,-1.1913332855328918e-05,-0.4627757668495178,0.6236774921417236,-0.9050758481025697,0.15913082026597591,4.199452227675201,0.15053515437891293,,,,,,
4,3,-0.7650567889213563,-0.09067373722791673,9.770956039428711,0.007477028761059047,0.0034168378915637736,-1.1913332855328918e-05,-0.4627757668495178,0.6236774921417236,-0.9050758481025697,0.15913082026597591,4.199452227675201,0.15053515437891293,,,,,,
4,4,-0.7650567889213563,-0.09067373722791673,9.770956039428711,0.007477028761059047,0.0034168378915637736,-1.1913332855328918e-05,-0.4627757668495178,0.6236774921417236,-0.9050758481025697,0.15913082026597591,4.199452227675201,0.15053515437891293,,,,,,
4,5,-0.7832673192024232,-0.05849195271730423,9.77984619140625,0.012099014595150948,0.003340766998007894,0.0032994961366057396,-0.46217980980873113,0.6226258277893066,-0.9010614156723022,0.16412263043727043,4.203304270795506,0.1518630547243696,,,,,,
4,6,-0.6695815324783325,-0.06493399292230607,9.78309440612793,0.00985826086252928,0.0033481698483228683,0.0040959916077554235,-0.4588391184806824,0.6279182434082031,-0.8984339237213135,0.1715236402054141,4.211126694404382,0.15509058157844557,,,,,,
4,7,-0.6703875660896302,-0.0804511532187462,9.797222137451172,0.008904211223125458,0.0036794114857912064,0.0038906966801732783,-0.4584775269031525,0.6270378828048706,-0.9040108919143677,0.17460507624166388,4.215100376132839,0.15672662521742978,,,,,,
4,8,-0.6703875660896302,-0.0804511532187462,9.797222137451172,0.008904211223125458,0.0036794114857912064,0.0038906966801732783,-0.4584775269031525,0.6270378828048706,-0.9040108919143677,0.17460507624166388,4.215100376132839,0.15672662521742978,,,,,,
4,9,-0.6567347049713135,-0.08080110698938371,9.779129028320312,0.008653844706714155,0.006588935852050781,0.003030885010957718,-0.4603455066680908,0.6236395239830018,-0.9040777683258057,0.1818974452622636,4.223435777045026,0.1604656513839012,,,,,,
4,10,-0.5536327362060547,-0.0796031802892685,9.795750617980959,0.010193490423262121,0.008014252409338951,0.0015608636895194652,-0.46165746450424194,0.6230735778808594,-0.8990337252616883,0.18545538861449953,4.229691492542615,0.16071932280788695,,,,,,
4,11,-0.5536327362060547,-0.0796031802892685,9.795750617980959,0.010193490423262121,0.008014252409338951,0.0015608636895194652,-0.46165746450424194,0.6230735778808594,-0.8990337252616883,0.18545538861449953,4.229691492542615,0.16071932280788695,,,,,,
4,12,-0.6893809437751771,0.002693592803552747,9.796686172485352,0.010905723087489607,0.01002484653145075,0.003387714270502329,-0.46162804961204534,0.6249795556068422,-0.8964661955833436,0.18944387769846097,4.2369199605245775,0.16200714219959234,,,,,,
4,13,-0.843400239944458,0.004312660079449416,9.796010971069336,0.00954639818519354,0.014338657259941101,0.0017375237075611951,-0.4593040943145752,0.6269466876983643,-0.8984533548355103,0.19260189492198812,4.246564035149199,0.16235931907381806,,,,,,
4,14,-0.9088470339775087,-0.058125413954257965,9.792925834655763,0.010694963857531548,0.0006935828714631499,0.004876360297203064,-0.45994982123374945,0.6265891790390015,-0.9055292010307313,0.1998137834693802,4.254098926656275,0.16552511872598666,,,,,,
4,15,-0.9088470339775087,-0.058125413954257965,9.792925834655763,0.010694963857531548,0.0006935828714631499,0.004876360297203064,-0.45994982123374945,0.6265891790390015,-0.9055292010307313,0.1998137834693802,4.254098926656275,0.16552511872598666,,,,,,
4,16,-0.749722957611084,-0.07402681559324266,9.794439315795898,0.012264027260243894,-0.0016224064165726306,0.002315207850188017,-0.4599094688892365,0.6241503953933716,-0.9055836200714111,0.20451196103671848,4.25498202911022,0.16617274912083838,,,,,,
4,17,-0.6332428455352783,-0.0644819661974907,9.795742988586428,0.01069975458085537,0.004759859759360553,0.0014599452260881662,-0.45978656411170965,0.622614860534668,-0.9015778303146362,0.2082290100255847,4.259508066458309,0.1663272395269225,,,,,,
4,18,-1.0854668617248535,-0.032777588814497,9.73869037628174,0.011053355410695076,-0.002003432018682361,0.0034495112486183643,-0.4594321846961975,0.625112771987915,-0.9050593376159668,0.22371329451213678,4.278810047070525,0.17336716504175645,,,,,,
4,19,-1.0854668617248535,-0.032777588814497,9.73869037628174,0.011053355410695076,-0.002003432018682361,0.0034495112486183643,-0.4594321846961975,0.625112771987915,-0.9050593376159668,0.22371329451213678,4.278810047070525,0.17336716504175645,,,,,,
4,20,-1.0854668617248535,-0.032777588814497,9.73869037628174,0.011053355410695076,-0.002003432018682361,0.0034495112486183643,-0.4594321846961975,0.625112771987915,-0.9050593376159668,0.22371329451213678,4.278810047070525,0.17336716504175645,,,,,,
4,21,-1.0854668617248535,-0.032777588814497,9.73869037628174,0.011053355410695076,-0.002003432018682361,0.0034495112486183643,-0.4594321846961975,0.625112771987915,-0.9050593376159668,0.22371329451213678,4.278810047070525,0.17336716504175645,,,,,,
4,22,-1.0229671001434326,-0.05043073743581772,9.737146377563477,0.009932709857821465,-0.012289800681173803,0.005806514527648688,-0.46127545833587646,0.6216964125633241,-0.9041166901588441,0.22696628550239772,4.273827211155346,0.1759238534430878,,,,,,
4,23,-1.0500130653381348,0.03224946931004525,9.761116027832031,0.007973642088472845,-0.012668938376009466,0.004989312961697578,-0.45926374197006226,0.6245078444480897,-0.8985077738761903,0.23220104524168458,4.263520992001739,0.17985283696940846,,,,,,
5,0,-0.7650567889213563,-0.09067373722791673,9.770956039428711,0.007477028761059047,0.0034168378915637736,-1.1913332855328918e-05,-0.4627757668495178,0.6236774921417236,-0.9050758481025697,0.15913082026597591,4.199452227675201,0.15053515437891293,,,,,,
5,1,-0.7650567889213563,-0.09067373722791673,9.770956039428711,0.007477028761059047,0.0034168378915637736,-1.1913332855328918e-05,-0.4627757668495178,0.6236774921417236,-0.9050758481025697,0.15913082026597591,4.199452227675201,0.15053515437891293,,,,,,
5,2,-0.7650567889213563,-0.09067373722791673,9.770956039428711,0.007477028761059047,0.0034168378915637736,-1.1913332855328918e-05,-0.4627757668495178,0.6236774921417236,-0.9050758481025697,0.15913082026597591,4.199452227675201,0.15053515437891293,,,,,,
5,3,-0.7650567889213563,-0.09067373722791673,9.770956039428711,0.007477028761059047,0.0034168378915637736,-1.1913332855328918e-05,-0.4627757668495178,0.6236774921417236,-0.9050758481025697,0.15913082026597591,4.199452227675201,0.15053515437891293,,,,,,
5,4,-0.7650567889213563,-0.09067373722791673,9.770956039428711,0.007477028761059047,0.0034168378915637736,-1.1913332855328918e-05,-0.4627757668495178,0.6236774921417236,-0.9050758481025697,0.15913082026597591,4.199452227675201,0.15053515437891293,,,,,,
5,5,-0.7832673192024232,-0.05849195271730423,9.77984619140625,0.012099014595150948,0.003340766998007894,0.0032994961366057396,-0.46217980980873113,0.6226258277893066,-0.9010614156723022,0.16412263043727043,4.203304270795506,0.1518630547243696,,,,,,
5,6,-0.6695815324783325,-0.06493399292230607,9.78309440612793,0.00985826086252928,0.0033481698483228683,0.0040959916077554235,-0.4588391184806824,0.6279182434082031,-0.8984339237213135,0.1715236402054141,4.211126694404382,0.15509058157844557,,,,,,
5,7,-0.6703875660896302,-0.0804511532187462,9.797222137451172,0.008904211223125458,0.0036794114857912064,0.0038906966801732783,-0.4584775269031525,0.6270378828048706,-0.9040108919143677,0.17460507624166388,4.215100376132839,0.15672662521742978,,,,,,
5,8,-0.6703875660896302,-0.0804511532187462,9.797222137451172,0.008904211223125458,0.0036794114857912064,0.0038906966801732783,-0.4584775269031525,0.6270378828048706,-0.9040108919143677,0.17460507624166388,4.215100376132839,0.15672662521742978,,,,,,
5,9,-0.6567347049713135,-0.08080110698938371,9.779129028320312,0.008653844706714155,0.006588935852050781,0.003030885010957718,-0.4603455066680908,0.6236395239830018,-0.9040777683258057,0.1818974452622636,4.223435777045026,0.1604656513839012,,,,,,
5,10,-0.5536327362060547,-0.0796031802892685,9.795750617980959,0.010193490423262121,0.008014252409338951,0.0015608636895194652,-0.46165746450424194,0.6230735778808594,-0.8990337252616883,0.18545538861449953,4.229691492542615,0.16071932280788695,,,,,,
5,11,-0.5536327362060547,-0.0796031802892685,9.795750617980959,0.010193490423262121,0.008014252409338951,0.0015608636895194652,-0.46165746450424194,0.6230735778808594,-0.8990337252616883,0.18545538861449953,4.229691492542615,0.16071932280788695,,,,,,
5,12,-0.6893809437751771,0.002693592803552747,9.796686172485352,0.010905723087489607,0.01002484653145075,0.003387714270502329,-0.46162804961204534,0.6249795556068422,-0.8964661955833436,0.18944387769846097,4.2369199605245775,0.16200714219959234,,,,,,
5,13,-0.843400239944458,0.004312660079449416,9.796010971069336,0.00954639818519354,0.014338657259941101,0.0017375237075611951,-0.4593040943145752,0.6269466876983643,-0.8984533548355103,0.19260189492198812,4.246564035149199,0.16235931907381806,,,,,,
5,14,-0.9088470339775087,-0.058125413954257965,9.792925834655763,0.010694963857531548,0.0006935828714631499,0.004876360297203064,-0.45994982123374945,0.6265891790390015,-0.9055292010307313,0.1998137834693802,4.254098926656275,0.16552511872598666,,,,,,
5,15,-0.9088470339775087,-0.058125413954257965,9.792925834655763,0.010694963857531548,0.0006935828714631499,0.004876360297203064,-0.45994982123374945,0.6265891790390015,-0.9055292010307313,0.1998137834693802,4.254098926656275,0.16552511872598666,,,,,,
5,16,-0.749722957611084,-0.07402681559324266,9.794439315795898,0.012264027260243894,-0.0016224064165726306,0.002315207850188017,-0.4599094688892365,0.6241503953933716,-0.9055836200714111,0.20451196103671848,4.25498202911022,0.16617274912083838,,,,,,
5,17,-0.6332428455352783,-0.0644819661974907,9.795742988586428,0.01069975458085537,0.004759859759360553,0.0014599452260881662,-0.45978656411170965,0.622614860534668,-0.9015778303146362,0.2082290100255847,4.259508066458309,0.1663272395269225,,,,,,
5,18,-1.0854668617248535,-0.032777588814497,9.73869037628174,0.011053355410695076,-0.002003432018682361,0.0034495112486183643,-0.4594321846961975,0.625112771987915,-0.9050593376159668,0.22371329451213678,4.278810047070525,0.17336716504175645,,,,,,
5,19,-1.0854668617248535,-0.032777588814497,9.73869037628174,0.011053355410695076,-0.002003432018682361,0.0034495112486183643,-0.4594321846961975,0.625112771987915,-0.9050593376159668,0.22371329451213678,4.278810047070525,0.17336716504175645,,,,,,
5,20,-1.0854668617248535,-0.032777588814497,9.73869037628174,0.011053355410695076,-0.002003432018682361,0.0034495112486183643,-0.4594321846961975,0.625112771987915,-0.9050593376159668,0.22371329451213678,4.278810047070525,0.17336716504175645,,,,,,
5,21,-1.0854668617248535,-0.032777588814497,9.73869037628174,0.011053355410695076,-0.002003432018682361,0.0034495112486183643,-0.4594321846961975,0.625112771987915,-0.9050593376159668,0.22371329451213678,4.278810047070525,0.17336716504175645,,,,,,
5,22,-1.0229671001434326,-0.05043073743581772,9.737146377563477,0.009932709857821465,-0.012289800681173803,0.005806514527648688,-0.46127545833587646,0.6216964125633241,-0.9041166901588441,0.22696628550239772,4.273827211155346,0.1759238534430878,,,,,,
5,23,-1.0500130653381348,0.03224946931004525,9.761116027832031,0.007973642088472845,-0.012668938376009466,0.004989312961697578,-0.45926374197006226,0.6245078444480897,-0.8985077738761903,0.23220104524168458,4.263520992001739,0.17985283696940846,,,,,,
6,0,-0.7650567889213563,-0.09067373722791673,9.770956039428711,0.007477028761059047,0.0034168378915637736,-1.1913332855328918e-05,-0.4627757668495178,0.6236774921417236,-0.9050758481025697,0.15913082026597591,4.199452227675201,0.15053515437891293,,,,,,
6,1,-0.7650567889213563,-0.09067373722791673,9.770956039428711,0.007477028761059047,0.0034168378915637736,-1.1913332855328918e-05,-0.4627757668495178,0.6236774921417236,-0.9050758481025697,0.15913082026597591,4.199452227675201,0.15053515437891293,,,,,,
6,2,-0.7650567889213563,-0.09067373722791673,9.770956039428711,0.007477028761059047,0.0034168378915637736,-1.1913332855328918e-05,-0.4627757668495178,0.6236774921417236,-0.9050758481025697,0.15913082026597591,4.199452227675201,0.15053515437891293,,,,,,
6,3,-0.7650567889213563,-0.09067373722791673,9.770956039428711,0.007477028761059047,0.0034168378915637736,-1.1913332855328918e-05,-0.4627757668495178,0.6236774921417236,-0.9050758481025697,0.15913082026597591,4.199452227675201,0.15053515437891293,,,,,,
6,4,-0.7650567889213563,-0.09067373722791673,9.770956039428711,0.007477028761059047,0.0034168378915637736,-1.1913332855328918e-05,-0.4627757668495178,0.6236774921417236,-0.9050758481025697,0.15913082026597591,4.199452227675201,0.15053515437891293,,,,,,
6,5,-0.7832673192024232,-0.05849195271730423,9.77984619140625,0.012099014595150948,0.003340766998007894,0.0032994961366057396,-0.46217980980873113,0.6226258277893066,-0.9010614156723022,0.16412263043727043,4.203304270795506,0.1518630547243696,,,,,,
6,6,-0.6695815324783325,-0.06493399292230607,9.78309440612793,0.00985826086252928,0.0033481698483228683,0.0040959916077554235,-0.4588391184806824,0.6279182434082031,-0.8984339237213135,0.1715236402054141,4.211126694404382,0.15509058157844557,,,,,,
6,7,-0.6703875660896302,-0.0804511532187462,9.797222137451172,0.008904211223125458,0.0036794114857912064,0.0038906966801732783,-0.4584775269031525,0.6270378828048706,-0.9040108919143677,0.17460507624166388,4.215100376132839,0.15672662521742978,,,,,,
6,8,-0.6703875660896302,-0.0804511532187462,9.797222137451172,0.008904211223125458,0.0036794114857912064,0.0038906966801732783,-0.4584775269031525,0.6270378828048706,-0.9040108919143677,0.17460507624166388,4.215100376132839,0.15672662521742978,,,,,,
6,9,-0.6567347049713135,-0.08080110698938371,9.779129028320312,0.008653844706714155,0.006588935852050781,0.003030885010957718,-0.4603455066680908,0.6236395239830018,-0.9040777683258057,0.1818974452622636,4.223435777045026,0.1604656513839012,,,,,,
6,10,-0.5536327362060547,-0.0796031802892685,9.795750617980959,0.010193490423262121,0.008014252409338951,0.0015608636895194652,-0.46165746450424194,0.6230735778808594,-0.8990337252616883,0.18545538861449953,4.229691492542615,0.16071932280788695,,,,,,
6,11,-0.5536327362060547,-0.0796031802892685,9.795750617980959,0.010193490423262121,0.008014252409338951,0.0015608636895194652,-0.46165746450424194,0.6230735778808594,-0.8990337252616883,0.18545538861449953,4.229691492542615,0.16071932280788695,,,,,,
6,12,-0.6893809437751771,0.002693592803552747,9.796686172485352,0.010905723087489607,0.01002484653145075,0.003387714270502329,-0.46162804961204534,0.6249795556068422,-0.8964661955833436,0.18944387769846097,4.2369199605245775,0.16200714219959234,,,,,,
6,13,-0.843400239944458,0.004312660079449416,9.796010971069336,0.00954639818519354,0.014338657259941101,0.0017375237075611951,-0.4593040943145752,0.6269466876983643,-0.8984533548355103,0.19260189492198812,4.246564035149199,0.16235931907381806,,,,,,
6,14,-0.9088470339775087,-0.058125413954257965,9.792925834655763,0.010694963857531548,0.0006935828714631499,0.004876360297203064,-0.45994982123374945,0.6265891790390015,-0.9055292010307313,0.1998137834693802,4.254098926656275,0.16552511872598666,,,,,,
6,15,-0.9088470339775087,-0.058125413954257965,9.792925834655763,0.010694963857531548,0.0006935828714631499,0.004876360297203064,-0.45994982123374945,0.6265891790390015,-0.9055292010307313,0.1998137834693802,4.254098926656275,0.16552511872598666,,,,,,
6,16,-0.749722957611084,-0.07402681559324266,9.794439315795898,0.012264027260243894,-0.0016224064165726306,0.002315207850188017,-0.4599094688892365,0.6241503953933716,-0.9055836200714111,0.20451196103671848,4.25498202911022,0.16617274912083838,,,,,,
6,17,-0.6332428455352783,-0.0644819661974907,9.795742988586428,0.01069975458085537,0.004759859759360553,0.0014599452260881662,-0.45978656411170965,0.622614860534668,-0.9015778303146362,0.2082290100255847,4.259508066458309,0.1663272395269225,,,,,,
6,18,-1.0854668617248535,-0.032777588814497,9.73869037628174,0.011053355410695076,-0.002003432018682361,0.0034495112486183643,-0.4594321846961975,0.625112771987915,-0.9050593376159668,0.22371329451213678,4.278810047070525,0.17336716504175645,,,,,,
6,19,-1.0854668617248535,-0.032777588814497,9.73869037628174,0.011053355410695076,-0.002003432018682361,0.0034495112486183643,-0.4594321846961975,0.625112771987915,-0.9050593376159668,0.22371329451213678,4.278810047070525,0.17336716504175645,,,,,,
6,20,-1.0854668617248535,-0.032777588814497,9.73869037628174,0.011053355410695076,-0.002003432018682361,0.0034495112486183643,-0.4594321846961975,0.625112771987915,-0.9050593376159668,0.22371329451213678,4.278810047070525,0.17336716504175645,,,,,,
6,21,-1.0854668617248535,-0.032777588814497,9.73869037628174,0.011053355410695076,-0.002003432018682361,0.0034495112486183643,-0.4594321846961975,0.625112771987915,-0.9050593376159668,0.22371329451213678,4.278810047070525,0.17336716504175645,,,,,,
6,22,-1.0229671001434326,-0.05043073743581772,9.737146377563477,0.009932709857821465,-0.012289800681173803,0.005806514527648688,-0.46127545833587646,0.6216964125633241,-0.9041166901588441,0.22696628550239772,4.273827211155346,0.1759238534430878,,,,,,
6,23,-1.0500130653381348,0.03224946931004525,9.761116027832031,0.007973642088472845,-0.012668938376009466,0.004989312961697578,-0.45926374197006226,0.6245078444480897,-0.8985077738761903,0.23220104524168458,4.263520992001739,0.17985283696940846,,,,,,
7,0,-0.7650567889213563,-0.09067373722791673,9.770956039428711,0.007477028761059047,0.0034168378915637736,-1.1913332855328918e-05,-0.4627757668495178,0.6236774921417236,-0.9050758481025697,0.15913082026597591,4.199452227675201,0.15053515437891293,,,,,,
7,1,-0.7650567889213563,-0.09067373722791673,9.770956039428711,0.007477028761059047,0.0034168378915637736,-1.1913332855328918e-05,-0.4627757668495178,0.6236774921417236,-0.9050758481025697,0.15913082026597591,4.199452227675201,0.15053515437891293,,,,,,
7,2,-0.7650567889213563,-0.09067373722791673,9.770956039428711,0.007477028761059047,0.0034168378915637736,-1.1913332855328918e-05,-0.4627757668495178,0.6236774921417236,-0.9050758481025697,0.15913082026597591,4.199452227675201,0.15053515437891293,,,,,,
7,3,-0.7650567889213563,-0.09067373722791673,9.770956039428711,0.007477028761059047,0.0034168378915637736,-1.1913332855328918e-05,-0.4627757668495178,0.6236774921417236,-0.9050758481025697,0.15913082026597591,4.199452227675201,0.15053515437891293,,,,,,
7,4,-0.7650567889213563,-0.09067373722791673,9.770956039428711,0.007477028761059047,0.0034168378915637736,-1.1913332855328918e-05,-0.4627757668495178,0.6236774921417236,-0.9050758481025697,0.15913082026597591,4.199452227675201,0.15053515437891293,,,,,,
7,5,-0.7832673192024232,-0.05849195271730423,9.77984619140625,0.012099014595150948,0.003340766998007894,0.0032994961366057396,-0.46217980980873113,0.6226258277893066,-0.9010614156723022,0.16412263043727043,4.203304270795506,0.1518630547243696,,,,,,
7,6,-0.6695815324783325,-0.06493399292230607,9.78309440612793,0.00985826086252928,0.0033481698483228683,0.0040959916077554235,-0.4588391184806824,0.6279182434082031,-0.8984339237213135,0.1715236402054141,4.211126694404382,0.15509058157844557,,,,,,
7,7,-0.6703875660896302,-0.0804511532187462,9.797222137451172,0.008904211223125458,0.0036794114857912064,0.0038906966801732783,-0.4584775269031525,0.6270378828048706,-0.9040108919143677,0.17460507624166388,4.215100376132839,0.15672662521742978,,,,,,
7,8,-0.6703875660896302,-0.0804511532187462,9.797222137451172,0.008904211223125458,0.0036794114857912064,0.0038906966801732783,-0.4584775269031525,0.6270378828048706,-0.9040108919143677,0.17460507624166388,4.215100376132839,0.15672662521742978,,,,,,
7,9,-0.6567347049713135,-0.08080110698938371,9.779129028320312,0.008653844706714155,0.006588935852050781,0.003030885010957718,-0.4603455066680908,0.6236395239830018,-0.9040777683258057,0.1818974452622636,4.223435777045026,0.1604656513839012,,,,,,
7,10,-0.5536327362060547,-0.0796031802892685,9.795750617980959,0.010193490423262121,0.008014252409338951,0.0015608636895194652,-0.46165746450424194,0.6230735778808594,-0.8990337252616883,0.18545538861449953,4.229691492542615,0.16071932280788695,,,,,,
7,11,-0.5536327362060547,-0.0796031802892685,9.795750617980959,0.010193490423262121,0.008014252409338951,0.0015608636895194652,-0.46165746450424194,0.6230735778808594,-0.8990337252616883,0.18545538861449953,4.229691492542615,0.16071932280788695,,,,,,
7,12,-0.6893809437751771,0.002693592803552747,9.796686172485352,0.010905723087489607,0.01002484653145075,0.003387714270502329,-0.46162804961204534,0.6249795556068422,-0.8964661955833436,0.18944387769846097,4.2369199605245775,0.16200714219959234,,,,,,
7,13,-0.843400239944458,0.004312660079449416,9.796010971069336,0.00954639818519354,0.014338657259941101,0.0017375237075611951,-0.4593040943145752,0.6269466876983643,-0.8984533548355103,0.19260189492198812,4.246564035149199,0.16235931907381806,,,,,,
7,14,-0.9088470339775087,-0.058125413954257965,9.792925834655763,0.010694963857531548,0.0006935828714631499,0.004876360297203064,-0.45994982123374945,0.6265891790390015,-0.9055292010307313,0.1998137834693802,4.254098926656275,0.16552511872598666,,,,,,
7,15,-0.9088470339775087,-0.058125413954257965,9.792925834655763,0.010694963857531548,0.0006935828714631499,0.004876360297203064,-0.45994982123374945,0.6265891790390015,-0.9055292010307313,0.1998137834693802,4.254098926656275,0.16552511872598666,,,,,,
7,16,-0.749722957611084,-0.07402681559324266,9.794439315795898,0.012264027260243894,-0.0016224064165726306,0.002315207850188017,-0.4599094688892365,0.6241503953933716,-0.9055836200714111,0.20451196103671848,4.25498202911022,0.16617274912083838,,,,,,
7,17,-0.6332428455352783,-0.0644819661974907,9.795742988586428,0.01069975458085537,0.004759859759360553,0.0014599452260881662,-0.45978656411170965,0.622614860534668,-0.9015778303146362,0.2082290100255847,4.259508066458309,0.1663272395269225,,,,,,
7,18,-1.0854668617248535,-0.032777588814497,9.73869037628174,0.011053355410695076,-0.002003432018682361,0.0034495112486183643,-0.4594321846961975,0.625112771987915,-0.9050593376159668,0.22371329451213678,4.278810047070525,0.17336716504175645,,,,,,
7,19,-1.0854668617248535,-0.032777588814497,9.73869037628174,0.011053355410695076,-0.002003432018682361,0.0034495112486183643,-0.4594321846961975,0.625112771987915,-0.9050593376159668,0.22371329451213678,4.278810047070525,0.17336716504175645,,,,,,
7,20,-1.0854668617248535,-0.032777588814497,9.73869037628174,0.011053355410695076,-0.002003432018682361,0.0034495112486183643,-0.4594321846961975,0.625112771987915,-0.9050593376159668,0.22371329451213678,4.278810047070525,0.17336716504175645,,,,,,
7,21,-1.0854668617248535,-0.032777588814497,9.73869037628174,0.011053355410695076,-0.002003432018682361,0.0034495112486183643,-0.4594321846961975,0.625112771987915,-0.9050593376159668,0.22371329451213678,4.278810047070525,0.17336716504175645,,,,,,
7,22,-1.0229671001434326,-0.05043073743581772,9.737146377563477,0.009932709857821465,-0.012289800681173803,0.005806514527648688,-0.46127545833587646,0.6216964125633241,-0.9041166901588441,0.22696628550239772,4.273827211155346,0.1759238534430878,,,,,,
7,23,-1.0500130653381348,0.03224946931004525,9.761116027832031,0.007973642088472845,-0.012668938376009466,0.004989312961697578,-0.45926374197006226,0.6245078444480897,-0.8985077738761903,0.23220104524168458,4.263520992001739,0.17985283696940846,,,,,,
8,0,-0.7650567889213563,-0.09067373722791673,9.770956039428711,0.007477028761059047,0.0034168378915637736,-1.1913332855328918e-05,-0.4627757668495178,0.6236774921417236,-0.9050758481025697,0.15913082026597591,4.199452227675201,0.15053515437891293,,,,,,
8,1,-0.7650567889213563,-0.09067373722791673,9.770956039428711,0.007477028761059047,0.0034168378915637736,-1.1913332855328918e-05,-0.4627757668495178,0.6236774921417236,-0.9050758481025697,0.15913082026597591,4.199452227675201,0.15053515437891293,,,,,,
8,2,-0.7650567889213563,-0.09067373722791673,9.770956039428711,0.007477028761059047,0.0034168378915637736,-1.1913332855328918e-05,-0.4627757668495178,0.6236774921417236,-0.9050758481025697,0.15913082026597591,4.199452227675201,0.15053515437891293,,,,,,
8,3,-0.7650567889213563,-0.09067373722791673,9.770956039428711,0.007477028761059047,0.0034168378915637736,-1.1913332855328918e-05,-0.4627757668495178,0.6236774921417236,-0.9050758481025697,0.15913082026597591,4.199452227675201,0.15053515437891293,,,,,,
8,4,-0.7650567889213563,-0.09067373722791673,9.770956039428711,0.007477028761059047,0.0034168378915637736,-1.1913332855328918e-05,-0.4627757668495178,0.6236774921417236,-0.9050758481025697,0.15913082026597591,4.199452227675201,0.15053515437891293,,,,,,
8,5,-0.7832673192024232,-0.05849195271730423,9.77984619140625,0.012099014595150948,0.003340766998007894,0.0032994961366057396,-0.46217980980873113,0.6226258277893066,-0.9010614156723022,0.16412263043727043,4.203304270795506,0.1518630547243696,,,,,,
8,6,-0.6695815324783325,-0.06493399292230607,9.78309440612793,0.00985826086252928,0.0033481698483228683,0.0040959916077554235,-0.4588391184806824,0.6279182434082031,-0.8984339237213135,0.1715236402054141,4.211126694404382,0.15509058157844557,,,,,,
8,7,-0.6703875660896302,-0.0804511532187462,9.797222137451172,0.008904211223125458,0.0036794114857912064,0.0038906966801732783,-0.4584775269031525,0.6270378828048706,-0.9040108919143677,0.17460507624166388,4.215100376132839,0.15672662521742978,,,,,,
8,8,-0.6703875660896302,-0.0804511532187462,9.797222137451172,0.008904211223125458,0.0036794114857912064,0.0038906966801732783,-0.4584775269031525,0.6270378828048706,-0.9040108919143677,0.17460507624166388,4.215100376132839,0.15672662521742978,,,,,,
8,9,-0.6567347049713135,-0.08080110698938371,9.779129028320312,0.008653844706714155,0.006588935852050781,0.003030885010957718,-0.4603455066680908,0.6236395239830018,-0.9040777683258057,0.1818974452622636,4.223435777045026,0.1604656513839012,,,,,,
8,10,-0.5536327362060547,-0.0796031802892685,9.795750617980959,0.010193490423262121,0.008014252409338951,0.0015608636895194652,-0.46165746450424194,0.6230735778808594,-0.8990337252616883,0.18545538861449953,4.229691492542615,0.16071932280788695,,,,,,
8,11,-0.5536327362060547,-0.0796031802892685,9.795750617980959,0.010193490423262121,0.008014252409338951,0.0015608636895194652,-0.46165746450424194,0.6230735778808594,-0.8990337252616883,0.18545538861449953,4.229691492542615,0.16071932280788695,,,,,,
8,12,-0.6893809437751771,0.002693592803552747,9.796686172485352,0.010905723087489607,0.01002484653145075,0.003387714270502329,-0.46162804961204534,0.6249795556068422,-0.8964661955833436,0.18944387769846097,4.2369199605245775,0.16200714219959234,,,,,,
8,13,-0.843400239944458,0.004312660079449416,9.796010971069336,0.00954639818519354,0.014338657259941101,0.0017375237075611951,-0.4593040943145752,0.6269466876983643,-0.8984533548355103,0.19260189492198812,4.246564035149199,0.16235931907381806,,,,,,
8,14,-0.9088470339775087,-0.058125413954257965,9.792925834655763,0.010694963857531548,0.0006935828714631499,0.004876360297203064,-0.45994982123374945,0.6265891790390015,-0.9055292010307313,0.1998137834693802,4.254098926656275,0.16552511872598666,,,,,,
8,15,-0.9088470339775087,-0.058125413954257965,9.792925834655763,0.010694963857531548,0.0006935828714631499,0.004876360297203064,-0.45994982123374945,0.6265891790390015,-0.9055292010307313,0.1998137834693802,4.254098926656275,0.16552511872598666,,,,,,
8,16,-0.749722957611084,-0.07402681559324266,9.794439315795898,0.012264027260243894,-0.0016224064165726306,0.002315207850188017,-0.4599094688892365,0.6241503953933716,-0.9055836200714111,0.20451196103671848,4.25498202911022,0.16617274912083838,,,,,,
8,17,-0.6332428455352783,-0.0644819661974907,9.795742988586428,0.01069975458085537,0.004759859759360553,0.0014599452260881662,-0.45978656411170965,0.622614860534668,-0.9015778303146362,0.2082290100255847,4.259508066458309,0.1663272395269225,,,,,,
8,18,-1.0854668617248535,-0.032777588814497,9.73869037628174,0.011053355410695076,-0.002003432018682361,0.0034495112486183643,-0.4594321846961975,0.625112771987915,-0.9050593376159668,0.22371329451213678,4.278810047070525,0.17336716504175645,,,,,,
8,19,-1.0854668617248535,-0.032777588814497,9.73869037628174,0.011053355410695076,-0.002003432018682361,0.0034495112486183643,-0.4594321846961975,0.625112771987915,-0.9050593376159668,0.22371329451213678,4.278810047070525,0.17336716504175645,,,,,,
8,20,-1.0854668617248535,-0.032777588814497,9.73869037628174,0.011053355410695076,-0.002003432018682361,0.0034495112486183643,-0.4594321846961975,0.625112771987915,-0.9050593376159668,0.22371329451213678,4.278810047070525,0.17336716504175645,,,,,,
8,21,-1.0854668617248535,-0.032777588814497,9.73869037628174,0.011053355410695076,-0.002003432018682361,0.0034495112486183643,-0.4594321846961975,0.625112771987915,-0.9050593376159668,0.22371329451213678,4.278810047070525,0.17336716504175645,,,,,,
8,22,-1.0229671001434326,-0.05043073743581772,9.737146377563477,0.009932709857821465,-0.012289800681173803,0.005806514527648688,-0.46127545833587646,0.6216964125633241,-0.9041166901588441,0.22696628550239772,4.273827211155346,0.1759238534430878,,,,,,
8,23,-1.0500130653381348,0.03224946931004525,9.761116027832031,0.007973642088472845,-0.012668938376009466,0.004989312961697578,-0.45926374197006226,0.6245078444480897,-0.8985077738761903,0.23220104524168458,4.263520992001739,0.17985283696940846,,,,,,
9,0,-0.7650567889213563,-0.09067373722791673,9.770956039428711,0.007477028761059047,0.0034168378915637736,-1.1913332855328918e-05,-0.4627757668495178,0.6236774921417236,-0.9050758481025697,0.15913082026597591,4.199452227675201,0.15053515437891293,,,,,,
9,1,-0.7650567889213563,-0.09067373722791673,9.770956039428711,0.007477028761059047,0.0034168378915637736,-1.1913332855328918e-05,-0.4627757668495178,0.6236774921417236,-0.9050758481025697,0.15913082026597591,4.199452227675201,0.15053515437891293,,,,,,
9,2,-0.7650567889213563,-0.09067373722791673,9.770956039428711,0.007477028761059047,0.0034168378915637736,-1.1913332855328918e-05,-0.4627757668495178,0.6236774921417236,-0.9050758481025697,0.15913082026597591,4.199452227675201,0.15053515437891293,,,,,,
9,3,-0.7650567889213563,-0.09067373722791673,9.770956039428711,0.007477028761059047,0.0034168378915637736,-1.1913332855328918e-05,-0.4627757668495178,0.6236774921417236,-0.9050758481025697,0.15913082026597591,4.199452227675201,0.15053515437891293,,,,,,
9,4,-0.7650567889213563,-0.09067373722791673,9.770956039428711,0.007477028761059047,0.0034168378915637736,-1.1913332855328918e-05,-0.4627757668495178,0.6236774921417236,-0.9050758481025697,0.15913082026597591,4.199452227675201,0.15053515437891293,,,,,,
9,5,-0.7832673192024232,-0.05849195271730423,9.77984619140625,0.012099014595150948,0.003340766998007894,0.0032994961366057396,-0.46217980980873113,0.6226258277893066,-0.9010614156723022,0.16412263043727043,4.203304270795506,0.1518630547243696,,,,,,
9,6,-0.6695815324783325,-0.06493399292230607,9.78309440612793,0.00985826086252928,0.0033481698483228683,0.0040959916077554235,-0.4588391184806824,0.6279182434082031,-0.8984339237213135,0.1715236402054141,4.211126694404382,0.15509058157844557,,,,,,
9,7,-0.6703875660896302,-0.0804511532187462,9.797222137451172,0.008904211223125458,0.0036794114857912064,0.0038906966801732783,-0.4584775269031525,0.6270378828048706,-0.9040108919143677,0.17460507624166388,4.215100376132839,0.15672662521742978,,,,,,
9,8,-0.6703875660896302,-0.0804511532187462,9.797222137451172,0.008904211223125458,0.0036794114857912064,0.0038906966801732783,-0.4584775269031525,0.6270378828048706,-0.9040108919143677,0.17460507624166388,4.215100376132839,0.15672662521742978,,,,,,
9,9,-0.6567347049713135,-0.08080110698938371,9.779129028320312,0.008653844706714155,0.006588935852050781,0.003030885010957718,-0.4603455066680908,0.6236395239830018,-0.9040777683258057,0.1818974452622636,4.223435777045026,0.1604656513839012,,,,,,
9,10,-0.5536327362060547,-0.0796031802892685,9.795750617980959,0.010193490423262121,0.008014252409338951,0.0015608636895194652,-0.46165746450424194,0.6230735778808594,-0.8990337252616883,0.18545538861449953,4.229691492542615,0.16071932280788695,,,,,,
9,11,-0.5536327362060547,-0.0796031802892685,9.795750617980959,0.010193490423262121,0.008014252409338951,0.0015608636895194652,-0.46165746450424194,0.6230735778808594,-0.8990337252616883,0.18545538861449953,4.229691492542615,0.16071932280788695,,,,,,
9,12,-0.6893809437751771,0.002693592803552747,9.796686172485352,0.010905723087489607,0.01002484653145075,0.003387714270502329,-0.46162804961204534,0.6249795556068422,-0.8964661955833436,0.18944387769846097,4.2369199605245775,0.16200714219959234,,,,,,
9,13,-0.843400239944458,0.004312660079449416,9.796010971069336,0.00954639818519354,0.014338657259941101,0.0017375237075611951,-0.4593040943145752,0.6269466876983643,-0.8984533548355103,0.19260189492198812,4.246564035149199,0.16235931907381806,,,,,,
9,14,-0.9088470339775087,-0.058125413954257965,9.792925834655763,0.010694963857531548,0.0006935828714631499,0.004876360297203064,-0.45994982123374945,0.6265891790390015,-0.9055292010307313,0.1998137834693802,4.254098926656275,0.16552511872598666,,,,,,
9,15,-0.9088470339775087,-0.058125413954257965,9.792925834655763,0.010694963857531548,0.0006935828714631499,0.004876360297203064,-0.45994982123374945,0.6265891790390015,-0.9055292010307313,0.1998137834693802,4.254098926656275,0.16552511872598666,,,,,,
9,16,-0.749722957611084,-0.07402681559324266,9.794439315795898,0.012264027260243894,-0.0016224064165726306,0.002315207850188017,-0.4599094688892365,0.6241503953933716,-0.9055836200714111,0.20451196103671848,4.25498202911022,0.16617274912083838,,,,,,
9,17,-0.6332428455352783,-0.0644819661974907,9.795742988586428,0.01069975458085537,0.004759859759360553,0.0014599452260881662,-0.45978656411170965,0.622614860534668,-0.9015778303146362,0.2082290100255847,4.259508066458309,0.1663272395269225,,,,,,
9,18,-1.0854668617248535,-0.032777588814497,9.73869037628174,0.011053355410695076,-0.002003432018682361,0.0034495112486183643,-0.4594321846961975,0.625112771987915,-0.9050593376159668,0.22371329451213678,4.278810047070525,0.17336716504175645,,,,,,
9,19,-1.0854668617248535,-0.032777588814497,9.73869037628174,0.011053355410695076,-0.002003432018682361,0.0034495112486183643,-0.4594321846961975,0.625112771987915,-0.9050593376159668,0.22371329451213678,4.278810047070525,0.17336716504175645,,,,,,
9,20,-1.0854668617248535,-0.032777588814497,9.73869037628174,0.011053355410695076,-0.002003432018682361,0.0034495112486183643,-0.4594321846961975,0.625112771987915,-0.9050593376159668,0.22371329451213678,4.278810047070525,0.17336716504175645,,,,,,
9,21,-1.0854668617248535,-0.032777588814497,9.73869037628174,0.011053355410695076,-0.002003432018682361,0.0034495112486183643,-0.4594321846961975,0.625112771987915,-0.9050593376159668,0.22371329451213678,4.278810047070525,0.17336716504175645,,,,,,
9,22,-1.0229671001434326,-0.05043073743581772,9.737146377563477,0.009932709857821465,-0.012289800681173803,0.005806514527648688,-0.46127545833587646,0.6216964125633241,-0.9041166901588441,0.22696628550239772,4.273827211155346,0.1759238534430878,,,,,,
9,23,-1.0500130653381348,0.03224946931004525,9.761116027832031,0.007973642088472845,-0.012668938376009466,0.004989312961697578,-0.45926374197006226,0.6245078444480897,-0.8985077738761903,0.23220104524168458,4.263520992001739,0.17985283696940846,,,,,,
10,0,-0.7650567889213563,-0.09067373722791673,9.770956039428711,0.007477028761059047,0.0034168378915637736,-1.1913332855328918e-05,-0.4627757668495178,0.6236774921417236,-0.9050758481025697,0.15913082026597591,4.199452227675201,0.15053515437891293,,,,,,
10,1,-0.7650567889213563,-0.09067373722791673,9.770956039428711,0.007477028761059047,0.0034168378915637736,-1.1913332855328918e-05,-0.4627757668495178,0.6236774921417236,-0.9050758481025697,0.15913082026597591,4.199452227675201,0.15053515437891293,,,,,,
10,2,-0.7650567889213563,-0.09067373722791673,9.770956039428711,0.007477028761059047,0.0034168378915637736,-1.1913332855328918e-05,-0.4627757668495178,0.6236774921417236,-0.9050758481025697,0.15913082026597591,4.199452227675201,0.15053515437891293,,,,,,
10,3,-0.7650567889213563,-0.09067373722791673,9.770956039428711,0.007477028761059047,0.0034168378915637736,-1.1913332855328918e-05,-0.4627757668495178,0.6236774921417236,-0.9050758481025697,0.15913082026597591,4.199452227675201,0.15053515437891293,,,,,,
10,4,-0.7650567889213563,-0.09067373722791673,9.770956039428711,0.007477028761059047,0.0034168378915637736,-1.1913332855328918e-05,-0.4627757668495178,0.6236774921417236,-0.9050758481025697,0.15913082026597591,4.199452227675201,0.15053515437891293,,,,,,
10,5,-0.7832673192024232,-0.05849195271730423,9.77984619140625,0.012099014595150948,0.003340766998007894,0.0032994961366057396,-0.46217980980873113,0.6226258277893066,-0.9010614156723022,0.16412263043727043,4.203304270795506,0.1518630547243696,,,,,,
10,6,-0.6695815324783325,-0.06493399292230607,9.78309440612793,0.00985826086252928,0.0033481698483228683,0.0040959916077554235,-0.4588391184806824,0.6279182434082031,-0.8984339237213135,0.1715236402054141,4.211126694404382,0.15509058157844557,,,,,,
10,7,-0.6703875660896302,-0.0804511532187462,9.797222137451172,0.008904211223125458,0.0036794114857912064,0.0038906966801732783,-0.4584775269031525,0.6270378828048706,-0.9040108919143677,0.17460507624166388,4.215100376132839,0.15672662521742978,,,,,,
10,8,-0.6703875660896302,-0.0804511532187462,9.797222137451172,0.008904211223125458,0.0036794114857912064,0.0038906966801732783,-0.4584775269031525,0.6270378828048706,-0.9040108919143677,0.17460507624166388,4.215100376132839,0.15672662521742978,,,,,,
10,9,-0.6567347049713135,-0.08080110698938371,9.779129028320312,0.008653844706714155,0.006588935852050781,0.003030885010957718,-0.4603455066680908,0.6236395239830018,-0.9040777683258057,0.1818974452622636,4.223435777045026,0.1604656513839012,,,,,,
10,10,-0.5536327362060547,-0.0796031802892685,9.795750617980959,0.010193490423262121,0.008014252409338951,0.0015608636895194652,-0.46165746450424194,0.6230735778808594,-0.8990337252616883,0.18545538861449953,4.229691492542615,0.16071932280788695,,,,,,
10,11,-0.5536327362060547,-0.0796031802892685,9.795750617980959,0.010193490423262121,0.008014252409338951,0.0015608636895194652,-0.46165746450424194,0.6230735778808594,-0.8990337252616883,0.18545538861449953,4.229691492542615,0.16071932280788695,,,,,,
10,12,-0.6893809437751771,0.002693592803552747,9.796686172485352,0.010905723087489607,0.01002484653145075,0.003387714270502329,-0.46162804961204534,0.6249795556068422,-0.8964661955833436,0.18944387769846097,4.2369199605245775,0.16200714219959234,,,,,,
10,13,-0.843400239944458,0.004312660079449416,9.796010971069336,0.00954639818519354,0.014338657259941101,0.0017375237075611951,-0.4593040943145752,0.6269466876983643,-0.8984533548355103,0.19260189492198812,4.246564035149199,0.16235931907381806,,,,,,
10,14,-0.9088470339775087,-0.058125413954257965,9.792925834655763,0.010694963857531548,0.0006935828714631499,0.004876360297203064,-0.45994982123374945,0.6265891790390015,-0.9055292010307313,0.1998137834693802,4.254098926656275,0.16552511872598666,,,,,,
10,15,-0.9088470339775087,-0.058125413954257965,9.792925834655763,0.010694963857531548,0.0006935828714631499,0.004876360297203064,-0.45994982123374945,0.6265891790390015,-0.9055292010307313,0.1998137834693802,4.254098926656275,0.16552511872598666,,,,,,
10,16,-0.749722957611084,-0.07402681559324266,9.794439315795898,0.012264027260243894,-0.0016224064165726306,0.002315207850188017,-0.4599094688892365,0.6241503953933716,-0.9055836200714111,0.20451196103671848,4.25498202911022,0.16617274912083838,,,,,,
10,17,-0.6332428455352783,-0.0644819661974907,9.795742988586428,0.01069975458085537,0.004759859759360553,0.0014599452260881662,-0.45978656411170965,0.622614860534668,-0.9015778303146362,0.2082290100255847,4.259508066458309,0.1663272395269225,,,,,,
10,18,-1.0854668617248535,-0.032777588814497,9.73869037628174,0.011053355410695076,-0.002003432018682361,0.0034495112486183643,-0.4594321846961975,0.625112771987915,-0.9050593376159668,0.22371329451213678,4.278810047070525,0.17336716504175645,,,,,,
10,19,-1.0854668617248535,-0.032777588814497,9.73869037628174,0.011053355410695076,-0.002003432018682361,0.0034495112486183643,-0.4594321846961975,0.625112771987915,-0.9050593376159668,0.22371329451213678,4.278810047070525,0.17336716504175645,,,,,,
10,20,-1.0854668617248535,-0.032777588814497,9.73869037628174,0.011053355410695076,-0.002003432018682361,0.0034495112486183643,-0.4594321846961975,0.625112771987915,-0.9050593376159668,0.22371329451213678,4.278810047070525,0.17336716504175645,,,,,,
10,21,-1.0854668617248535,-0.032777588814497,9.73869037628174,0.011053355410695076,-0.002003432018682361,0.0034495112486183643,-0.4594321846961975,0.625112771987915,-0.9050593376159668,0.22371329451213678,4.278810047070525,0.17336716504175645,,,,,,
10,22,-1.0229671001434326,-0.05043073743581772,9.737146377563477,0.009932709857821465,-0.012289800681173803,0.005806514527648688,-0.46127545833587646,0.6216964125633241,-0.9041166901588441,0.22696628550239772,4.273827211155346,0.1759238534430878,,,,,,
10,23,-1.0500130653381348,0.03224946931004525,9.761116027832031,0.007973642088472845,-0.012668938376009466,0.004989312961697578,-0.45926374197006226,0.6245078444480897,-0.8985077738761903,0.23220104524168458,4.263520992001739,0.17985283696940846,,,,,,
11,0,-0.7650567889213563,-0.09067373722791673,9.770956039428711,0.007477028761059047,0.0034168378915637736,-1.1913332855328918e-05,-0.4627757668495178,0.6236774921417236,-0.9050758481025697,0.15913082026597591,4.199452227675201,0.15053515437891293,,,,,,
11,1,-0.7650567889213563,-0.09067373722791673,9.770956039428711,0.007477028761059047,0.0034168378915637736,-1.1913332855328918e-05,-0.4627757668495178,0.6236774921417236,-0.9050758481025697,0.15913082026597591,4.199452227675201,0.15053515437891293,,,,,,
11,2,-0.7650567889213563,-0.09067373722791673,9.770956039428711,0.007477028761059047,0.0034168378915637736,-1.1913332855328918e-05,-0.4627757668495178,0.6236774921417236,-0.9050758481025697,0.15913082026597591,4.199452227675201,0.15053515437891293,,,,,,
11,3,-0.7650567889213563,-0.09067373722791673,9.770956039428711,0.007477028761059047,0.0034168378915637736,-1.1913332855328918e-05,-0.4627757668495178,0.6236774921417236,-0.9050758481025697,0.15913082026597591,4.199452227675201,0.15053515437891293,,,,,,
11,4,-0.7650567889213563,-0.09067373722791673,9.770956039428711,0.007477028761059047,0.0034168378915637736,-1.1913332855328918e-05,-0.4627757668495178,0.6236774921417236,-0.9050758481025697,0.15913082026597591,4.199452227675201,0.15053515437891293,,,,,,
11,5,-0.7832673192024232,-0.05849195271730423,9.77984619140625,0.012099014595150948,0.003340766998007894,0.0032994961366057396,-0.46217980980873113,0.6226258277893066,-0.9010614156723022,0.16412263043727043,4.203304270795506,0.1518630547243696,,,,,,
11,6,-0.6695815324783325,-0.06493399292230607,9.78309440612793,0.00985826086252928,0.0033481698483228683,0.0040959916077554235,-0.4588391184806824,0.6279182434082031,-0.8984339237213135,0.1715236402054141,4.211126694404382,0.15509058157844557,,,,,,
11,7,-0.6703875660896302,-0.0804511532187462,9.797222137451172,0.008904211223125458,0.0036794114857912064,0.0038906966801732783,-0.4584775269031525,0.6270378828048706,-0.9040108919143677,0.17460507624166388,4.215100376132839,0.15672662521742978,,,,,,
11,8,-0.6703875660896302,-0.0804511532187462,9.797222137451172,0.008904211223125458,0.0036794114857912064,0.0038906966801732783,-0.4584775269031525,0.6270378828048706,-0.9040108919143677,0.17460507624166388,4.215100376132839,0.15672662521742978,,,,,,
11,9,-0.6567347049713135,-0.08080110698938371,9.779129028320312,0.008653844706714155,0.006588935852050781,0.003030885010957718,-0.4603455066680908,0.6236395239830018,-0.9040777683258057,0.1818974452622636,4.223435777045026,0.1604656513839012,,,,,,
11,10,-0.5536327362060547,-0.0796031802892685,9.795750617980959,0.010193490423262121,0.008014252409338951,0.0015608636895194652,-0.46165746450424194,0.6230735778808594,-0.8990337252616883,0.18545538861449953,4.229691492542615,0.16071932280788695,,,,,,
11,11,-0.5536327362060547,-0.0796031802892685,9.795750617980959,0.010193490423262121,0.008014252409338951,0.0015608636895194652,-0.46165746450424194,0.6230735778808594,-0.8990337252616883,0.18545538861449953,4.229691492542615,0.16071932280788695,,,,,,
11,12,-0.6893809437751771,0.002693592803552747,9.796686172485352,0.010905723087489607,0.01002484653145075,0.003387714270502329,-0.46162804961204534,0.6249795556068422,-0.8964661955833436,0.18944387769846097,4.2369199605245775,0.16200714219959234,,,,,,
11,13,-0.843400239944458,0.004312660079449416,9.796010971069336,0.00954639818519354,0.014338657259941101,0.0017375237075611951,-0.4593040943145752,0.6269466876983643,-0.8984533548355103,0.19260189492198812,4.246564035149199,0.16235931907381806,,,,,,
11,14,-0.9088470339775087,-0.058125413954257965,9.792925834655763,0.010694963857531548,0.0006935828714631499,0.004876360297203064,-0.45994982123374945,0.6265891790390015,-0.9055292010307313,0.1998137834693802,4.254098926656275,0.16552511872598666,,,,,,
11,15,-0.9088470339775087,-0.058125413954257965,9.792925834655763,0.010694963857531548,0.0006935828714631499,0.004876360297203064,-0.45994982123374945,0.6265891790390015,-0.9055292010307313,0.1998137834693802,4.254098926656275,0.16552511872598666,,,,,,
11,16,-0.749722957611084,-0.07402681559324266,9.794439315795898,0.012264027260243894,-0.0016224064165726306,0.002315207850188017,-0.4599094688892365,0.6241503953933716,-0.9055836200714111,0.20451196103671848,4.25498202911022,0.16617274912083838,,,,,,
11,17,-0.6332428455352783,-0.0644819661974907,9.795742988586428,0.01069975458085537,0.004759859759360553,0.0014599452260881662,-0.45978656411170965,0.622614860534668,-0.9015778303146362,0.2082290100255847,4.259508066458309,0.1663272395269225,,,,,,
11,18,-1.0854668617248535,-0.032777588814497,9.73869037628174,0.011053355410695076,-0.002003432018682361,0.0034495112486183643,-0.4594321846961975,0.625112771987915,-0.9050593376159668,0.22371329451213678,4.278810047070525,0.17336716504175645,,,,,,
11,19,-1.0854668617248535,-0.032777588814497,9.73869037628174,0.011053355410695076,-0.002003432018682361,0.0034495112486183643,-0.4594321846961975,0.625112771987915,-0.9050593376159668,0.22371329451213678,4.278810047070525,0.17336716504175645,,,,,,
11,20,-1.0854668617248535,-0.032777588814497,9.73869037628174,0.011053355410695076,-0.002003432018682361,0.0034495112486183643,-0.4594321846961975,0.625112771987915,-0.9050593376159668,0.22371329451213678,4.278810047070525,0.17336716504175645,,,,,,
11,21,-1.0854668617248535,-0.032777588814497,9.73869037628174,0.011053355410695076,-0.002003432018682361,0.0034495112486183643,-0.4594321846961975,0.625112771987915,-0.9050593376159668,0.22371329451213678,4.278810047070525,0.17336716504175645,,,,,,
11,22,-1.0229671001434326,-0.05043073743581772,9.737146377563477,0.009932709857821465,-0.012289800681173803,0.005806514527648688,-0.46127545833587646,0.6216964125633241,-0.9041166901588441,0.22696628550239772,4.273827211155346,0.1759238534430878,,,,,,
11,23,-1.0500130653381348,0.03224946931004525,9.761116027832031,0.007973642088472845,-0.012668938376009466,0.004989312961697578,-0.45926374197006226,0.6245078444480897,-0.8985077738761903,0.23220104524168458,4.263520992001739,0.17985283696940846,,,,,,
12,0,-0.7650567889213563,-0.09067373722791673,9.770956039428711,0.007477028761059047,0.0034168378915637736,-1.1913332855328918e-05,-0.4627757668495178,0.6236774921417236,-0.9050758481025697,0.15913082026597591,4.199452227675201,0.15053515437891293,,,,,,
12,1,-0.7650567889213563,-0.09067373722791673,9.770956039428711,0.007477028761059047,0.0034168378915637736,-1.1913332855328918e-05,-0.4627757668495178,0.6236774921417236,-0.9050758481025697,0.15913082026597591,4.199452227675201,0.15053515437891293,,,,,,
12,2,-0.7650567889213563,-0.09067373722791673,9.770956039428711,0.007477028761059047,0.0034168378915637736,-1.1913332855328918e-05,-0.4627757668495178,0.6236774921417236,-0.9050758481025697,0.15913082026597591,4.199452227675201,0.15053515437891293,,,,,,
12,3,-0.7650567889213563,-0.09067373722791673,9.770956039428711,0.007477028761059047,0.0034168378915637736,-1.1913332855328918e-05,-0.4627757668495178,0.6236774921417236,-0.9050758481025697,0.15913082026597591,4.199452227675201,0.15053515437891293,,,,,,
12,4,-0.7650567889213563,-0.09067373722791673,9.770956039428711,0.007477028761059047,0.0034168378915637736,-1.1913332855328918e-05,-0.4627757668495178,0.6236774921417236,-0.9050758481025697,0.15913082026597591,4.199452227675201,0.15053515437891293,,,,,,
12,5,-0.7832673192024232,-0.05849195271730423,9.77984619140625,0.012099014595150948,0.003340766998007894,0.0032994961366057396,-0.46217980980873113,0.6226258277893066,-0.9010614156723022,0.16412263043727043,4.203304270795506,0.1518630547243696,,,,,,
12,6,-0.6695815324783325,-0.06493399292230607,9.78309440612793,0.00985826086252928,0.0033481698483228683,0.0040959916077554235,-0.4588391184806824,0.6279182434082031,-0.8984339237213135,0.1715236402054141,4.211126694404382,0.15509058157844557,,,,,,
12,7,-0.6703875660896302,-0.0804511532187462,9.797222137451172,0.008904211223125458,0.0036794114857912064,0.0038906966801732783,-0.4584775269031525,0.6270378828048706,-0.9040108919143677,0.17460507624166388,4.215100376132839,0.15672662521742978,,,,,,
12,8,-0.6703875660896302,-0.0804511532187462,9.797222137451172,0.008904211223125458,0.0036794114857912064,0.0038906966801732783,-0.4584775269031525,0.6270378828048706,-0.9040108919143677,0.17460507624166388,4.215100376132839,0.15672662521742978,,,,,,
12,9,-0.6567347049713135,-0.08080110698938371,9.779129028320312,0.008653844706714155,0.006588935852050781,0.003030885010957718,-0.4603455066680908,0.6236395239830018,-0.9040777683258057,0.1818974452622636,4.223435777045026,0.1604656513839012,,,,,,
12,10,-0.5536327362060547,-0.0796031802892685,9.795750617980959,0.010193490423262121,0.008014252409338951,0.0015608636895194652,-0.46165746450424194,0.6230735778808594,-0.8990337252616883,0.18545538861449953,4.229691492542615,0.16071932280788695,,,,,,
12,11,-0.5536327362060547,-0.0796031802892685,9.795750617980959,0.010193490423262121,0.008014252409338951,0.0015608636895194652,-0.46165746450424194,0.6230735778808594,-0.8990337252616883,0.18545538861449953,4.229691492542615,0.16071932280788695,,,,,,
12,12,-0.6893809437751771,0.002693592803552747,9.796686172485352,0.010905723087489607,0.01002484653145075,0.003387714270502329,-0.46162804961204534,0.6249795556068422,-0.8964661955833436,0.18944387769846097,4.2369199605245775,0.16200714219959234,,,,,,
12,13,-0.843400239944458,0.004312660079449416,9.796010971069336,0.00954639818519354,0.014338657259941101,0.0017375237075611951,-0.4593040943145752,0.6269466876983643,-0.8984533548355103,0.19260189492198812,4.246564035149199,0.16235931907381806,,,,,,
12,14,-0.9088470339775087,-0.058125413954257965,9.792925834655763,0.010694963857531548,0.0006935828714631499,0.004876360297203064,-0.45994982123374945,0.6265891790390015,-0.9055292010307313,0.1998137834693802,4.254098926656275,0.16552511872598666,,,,,,
12,15,-0.9088470339775087,-0.058125413954257965,9.792925834655763,0.010694963857531548,0.0006935828714631499,0.004876360297203064,-0.45994982123374945,0.6265891790390015,-0.9055292010307313,0.1998137834693802,4.254098926656275,0.16552511872598666,,,,,,
12,16,-0.749722957611084,-0.07402681559324266,9.794439315795898,0.012264027260243894,-0.0016224064165726306,0.002315207850188017,-0.4599094688892365,0.6241503953933716,-0.9055836200714111,0.20451196103671848,4.25498202911022,0.16617274912083838,,,,,,
12,17,-0.6332428455352783,-0.0644819661974907,9.795742988586428,0.01069975458085537,0.004759859759360553,0.0014599452260881662,-0.45978656411170965,0.622614860534668,-0.9015778303146362,0.2082290100255847,4.259508066458309,0.1663272395269225,,,,,,
12,18,-1.0854668617248535,-0.032777588814497,9.73869037628174,0.011053355410695076,-0.002003432018682361,0.0034495112486183643,-0.4594321846961975,0.625112771987915,-0.9050593376159668,0.22371329451213678,4.278810047070525,0.17336716504175645,,,,,,
12,19,-1.0854668617248535,-0.032777588814497,9.73869037628174,0.011053355410695076,-0.002003432018682361,0.0034495112486183643,-0.4594321846961975,0.625112771987915,-0.9050593376159668,0.22371329451213678,4.278810047070525,0.17336716504175645,,,,,,
12,20,-1.0854668617248535,-0.032777588814497,9.73869037628174,0.011053355410695076,-0.002003432018682361,0.0034495112486183643,-0.4594321846961975,0.625112771987915,-0.9050593376159668,0.22371329451213678,4.278810047070525,0.17336716504175645,,,,,,
12,21,-1.0854668617248535,-0.032777588814497,9.73869037628174,0.011053355410695076,-0.002003432018682361,0.0034495112486183643,-0.4594321846961975,0.625112771987915,-0.9050593376159668,0.22371329451213678,4.278810047070525,0.17336716504175645,,,,,,
12,22,-1.0229671001434326,-0.05043073743581772,9.737146377563477,0.009932709857821465,-0.012289800681173803,0.005806514527648688,-0.46127545833587646,0.6216964125633241,-0.9041166901588441,0.22696628550239772,4.273827211155346,0.1759238534430878,,,,,,
12,23,-1.0500130653381348,0.03224946931004525,9.761116027832031,0.007973642088472845,-0.012668938376009466,0.004989312961697578,-0.45926374197006226,0.6245078444480897,-0.8985077738761903,0.23220104524168458,4.263520992001739,0.17985283696940846,,,,,,
13,0,-0.7650567889213563,-0.09067373722791673,9.770956039428711,0.007477028761059047,0.0034168378915637736,-1.1913332855328918e-05,-0.4627757668495178,0.6236774921417236,-0.9050758481025697,0.15913082026597591,4.199452227675201,0.15053515437891293,,,,,,
13,1,-0.7650567889213563,-0.09067373722791673,9.770956039428711,0.007477028761059047,0.0034168378915637736,-1.1913332855328918e-05,-0.4627757668495178,0.6236774921417236,-0.9050758481025697,0.15913082026597591,4.199452227675201,0.15053515437891293,,,,,,
13,2,-0.7650567889213563,-0.09067373722791673,9.770956039428711,0.007477028761059047,0.0034168378915637736,-1.1913332855328918e-05,-0.4627757668495178,0.6236774921417236,-0.9050758481025697,0.15913082026597591,4.199452227675201,0.15053515437891293,,,,,,
13,3,-0.7650567889213563,-0.09067373722791673,9.770956039428711,0.007477028761059047,0.0034168378915637736,-1.1913332855328918e-05,-0.4627757668495178,0.6236774921417236,-0.9050758481025697,0.15913082026597591,4.199452227675201,0.15053515437891293,,,,,,
13,4,-0.7650567889213563,-0.09067373722791673,9.770956039428711,0.007477028761059047,0.0034168378915637736,-1.1913332855328918e-05,-0.4627757668495178,0.6236774921417236,-0.9050758481025697,0.15913082026597591,4.199452227675201,0.15053515437891293,,,,,,
13,5,-0.7832673192024232,-0.05849195271730423,9.77984619140625,0.012099014595150948,0.003340766998007894,0.0032994961366057396,-0.46217980980873113,0.6226258277893066,-0.9010614156723022,0.16412263043727043,4.203304270795506,0.1518630547243696,,,,,,
13,6,-0.6695815324783325,-0.06493399292230607,9.78309440612793,0.00985826086252928,0.0033481698483228683,0.0040959916077554235,-0.4588391184806824,0.6279182434082031,-0.8984339237213135,0.1715236402054141,4.211126694404382,0.15509058157844557,,,,,,
13,7,-0.6703875660896302,-0.0804511532187462,9.797222137451172,0.008904211223125458,0.0036794114857912064,0.0038906966801732783,-0.4584775269031525,0.6270378828048706,-0.9040108919143677,0.17460507624166388,4.215100376132839,0.15672662521742978,,,,,,
13,8,-0.6703875660896302,-0.0804511532187462,9.797222137451172,0.008904211223125458,0.0036794114857912064,0.0038906966801732783,-0.4584775269031525,0.6270378828048706,-0.9040108919143677,0.17460507624166388,4.215100376132839,0.15672662521742978,,,,,,
13,9,-0.6567347049713135,-0.08080110698938371,9.779129028320312,0.008653844706714155,0.006588935852050781,0.003030885010957718,-0.4603455066680908,0.6236395239830018,-0.9040777683258057,0.1818974452622636,4.223435777045026,0.1604656513839012,,,,,,
13,10,-0.5536327362060547,-0.0796031802892685,9.795750617980959,0.010193490423262121,0.008014252409338951,0.0015608636895194652,-0.46165746450424194,0.6230735778808594,-0.8990337252616883,0.18545538861449953,4.229691492542615,0.16071932280788695,,,,,,
13,11,-0.5536327362060547,-0.0796031802892685,9.795750617980959,0.010193490423262121,0.008014252409338951,0.0015608636895194652,-0.46165746450424194,0.6230735778808594,-0.8990337252616883,0.18545538861449953,4.229691492542615,0.16071932280788695,,,,,,
13,12,-0.6893809437751771,0.002693592803552747,9.796686172485352,0.010905723087489607,0.01002484653145075,0.003387714270502329,-0.46162804961204534,0.6249795556068422,-0.8964661955833436,0.18944387769846097,4.2369199605245775,0.16200714219959234,,,,,,
13,13,-0.843400239944458,0.004312660079449416,9.796010971069336,0.00954639818519354,0.014338657259941101,0.0017375237075611951,-0.4593040943145752,0.6269466876983643,-0.8984533548355103,0.19260189492198812,4.246564035149199,0.16235931907381806,,,,,,
13,14,-0.9088470339775087,-0.058125413954257965,9.792925834655763,0.010694963857531548,0.0006935828714631499,0.004876360297203064,-0.45994982123374945,0.6265891790390015,-0.9055292010307313,0.1998137834693802,4.254098926656275,0.16552511872598666,,,,,,
13,15,-0.9088470339775087,-0.058125413954257965,9.792925834655763,0.010694963857531548,0.0006935828714631499,0.004876360297203064,-0.45994982123374945,0.6265891790390015,-0.9055292010307313,0.1998137834693802,4.254098926656275,0.16552511872598666,,,,,,
13,16,-0.749722957611084,-0.07402681559324266,9.794439315795898,0.012264027260243894,-0.0016224064165726306,0.002315207850188017,-0.4599094688892365,0.6241503953933716,-0.9055836200714111,0.20451196103671848,4.25498202911022,0.16617274912083838,,,,,,
13,17,-0.6332428455352783,-0.0644819661974907,9.795742988586428,0.01069975458085537,0.004759859759360553,0.0014599452260881662,-0.45978656411170965,0.622614860534668,-0.9015778303146362,0.2082290100255847,4.259508066458309,0.1663272395269225,,,,,,
13,18,-1.0854668617248535,-0.032777588814497,9.73869037628174,0.011053355410695076,-0.002003432018682361,0.0034495112486183643,-0.4594321846961975,0.625112771987915,-0.9050593376159668,0.22371329451213678,4.278810047070525,0.17336716504175645,,,,,,
13,19,-1.0854668617248535,-0.032777588814497,9.73869037628174,0.011053355410695076,-0.002003432018682361,0.0034495112486183643,-0.4594321846961975,0.625112771987915,-0.9050593376159668,0.22371329451213678,4.278810047070525,0.17336716504175645,,,,,,
13,20,-1.0854668617248535,-0.032777588814497,9.73869037628174,0.011053355410695076,-0.002003432018682361,0.0034495112486183643,-0.4594321846961975,0.625112771987915,-0.9050593376159668,0.22371329451213678,4.278810047070525,0.17336716504175645,,,,,,
13,21,-1.0854668617248535,-0.032777588814497,9.73869037628174,0.011053355410695076,-0.002003432018682361,0.0034495112486183643,-0.4594321846961975,0.625112771987915,-0.9050593376159668,0.22371329451213678,4.278810047070525,0.17336716504175645,,,,,,
13,22,-1.0229671001434326,-0.05043073743581772,9.737146377563477,0.009932709857821465,-0.012289800681173803,0.005806514527648688,-0.46127545833587646,0.6216964125633241,-0.9041166901588441,0.22696628550239772,4.273827211155346,0.1759238534430878,,,,,,
13,23,-1.0500130653381348,0.03224946931004525,9.761116027832031,0.007973642088472845,-0.012668938376009466,0.004989312961697578,-0.45926374197006226,0.6245078444480897,-0.8985077738761903,0.23220104524168458,4.263520992001739,0.17985283696940846,,,,,,
14,0,-0.7650567889213563,-0.09067373722791673,9.770956039428711,0.007477028761059047,0.0034168378915637736,-1.1913332855328918e-05,-0.4627757668495178,0.6236774921417236,-0.9050758481025697,0.15913082026597591,4.199452227675201,0.15053515437891293,,,,,,
14,1,-0.7650567889213563,-0.09067373722791673,9.770956039428711,0.007477028761059047,0.0034168378915637736,-1.1913332855328918e-05,-0.4627757668495178,0.6236774921417236,-0.9050758481025697,0.15913082026597591,4.199452227675201,0.15053515437891293,,,,,,
14,2,-0.7650567889213563,-0.09067373722791673,9.770956039428711,0.007477028761059047,0.0034168378915637736,-1.1913332855328918e-05,-0.4627757668495178,0.6236774921417236,-0.9050758481025697,0.15913082026597591,4.199452227675201,0.15053515437891293,,,,,,
14,3,-0.7650567889213563,-0.09067373722791673,9.770956039428711,0.007477028761059047,0.0034168378915637736,-1.1913332855328918e-05,-0.4627757668495178,0.6236774921417236,-0.9050758481025697,0.15913082026597591,4.199452227675201,0.15053515437891293,,,,,,
14,4,-0.7650567889213563,-0.09067373722791673,9.770956039428711,0.007477028761059047,0.0034168378915637736,-1.1913332855328918e-05,-0.4627757668495178,0.6236774921417236,-0.9050758481025697,0.15913082026597591,4.199452227675201,0.15053515437891293,,,,,,
14,5,-0.7832673192024232,-0.05849195271730423,9.77984619140625,0.012099014595150948,0.003340766998007894,0.0032994961366057396,-0.46217980980873113,0.6226258277893066,-0.9010614156723022,0.16412263043727043,4.203304270795506,0.1518630547243696,,,,,,
14,6,-0.6695815324783325,-0.06493399292230607,9.78309440612793,0.00985826086252928,0.0033481698483228683,0.0040959916077554235,-0.4588391184806824,0.6279182434082031,-0.8984339237213135,0.1715236402054141,4.211126694404382,0.15509058157844557,,,,,,
14,7,-0.6703875660896302,-0.0804511532187462,9.797222137451172,0.008904211223125458,0.0036794114857912064,0.0038906966801732783,-0.4584775269031525,0.6270378828048706,-0.9040108919143677,0.17460507624166388,4.215100376132839,0.15672662521742978,,,,,,
14,8,-0.6703875660896302,-0.0804511532187462,9.797222137451172,0.008904211223125458,0.0036794114857912064,0.0038906966801732783,-0.4584775269031525,0.6270378828048706,-0.9040108919143677,0.17460507624166388,4.215100376132839,0.15672662521742978,,,,,,
14,9,-0.6567347049713135,-0.08080110698938371,9.779129028320312,0.008653844706714155,0.006588935852050781,0.003030885010957718,-0.4603455066680908,0.6236395239830018,-0.9040777683258057,0.1818974452622636,4.223435777045026,0.1604656513839012,,,,,,
14,10,-0.5536327362060547,-0.0796031802892685,9.795750617980959,0.010193490423262121,0.008014252409338951,0.0015608636895194652,-0.46165746450424194,0.6230735778808594,-0.8990337252616883,0.18545538861449953,4.229691492542615,0.16071932280788695,,,,,,
14,11,-0.5536327362060547,-0.0796031802892685,9.795750617980959,0.010193490423262121,0.008014252409338951,0.0015608636895194652,-0.46165746450424194,0.6230735778808594,-0.8990337252616883,0.18545538861449953,4.229691492542615,0.16071932280788695,,,,,,
14,12,-0.6893809437751771,0.002693592803552747,9.796686172485352,0.010905723087489607,0.01002484653145075,0.003387714270502329,-0.46162804961204534,0.6249795556068422,-0.8964661955833436,0.18944387769846097,4.2369199605245775,0.16200714219959234,,,,,,
14,13,-0.843400239944458,0.004312660079449416,9.796010971069336,0.00954639818519354,0.014338657259941101,0.0017375237075611951,-0.4593040943145752,0.6269466876983643,-0.8984533548355103,0.19260189492198812,4.246564035149199,0.16235931907381806,,,,,,
14,14,-0.9088470339775087,-0.058125413954257965,9.792925834655763,0.010694963857531548,0.0006935828714631499,0.004876360297203064,-0.45994982123374945,0.6265891790390015,-0.9055292010307313,0.1998137834693802,4.254098926656275,0.16552511872598666,,,,,,
14,15,-0.9088470339775087,-0.058125413954257965,9.792925834655763,0.010694963857531548,0.0006935828714631499,0.004876360297203064,-0.45994982123374945,0.6265891790390015,-0.9055292010307313,0.1998137834693802,4.254098926656275,0.16552511872598666,,,,,,
14,16,-0.749722957611084,-0.07402681559324266,9.794439315795898,0.012264027260243894,-0.0016224064165726306,0.002315207850188017,-0.4599094688892365,0.6241503953933716,-0.9055836200714111,0.20451196103671848,4.25498202911022,0.16617274912083838,,,,,,
14,17,-0.6332428455352783,-0.0644819661974907,9.795742988586428,0.01069975458085537,0.004759859759360553,0.0014599452260881662,-0.45978656411170965,0.622614860534668,-0.9015778303146362,0.2082290100255847,4.259508066458309,0.1663272395269225,,,,,,
14,18,-1.0854668617248535,-0.032777588814497,9.73869037628174,0.011053355410695076,-0.002003432018682361,0.0034495112486183643,-0.4594321846961975,0.625112771987915,-0.9050593376159668,0.22371329451213678,4.278810047070525,0.17336716504175645,,,,,,
14,19,-1.0854668617248535,-0.032777588814497,9.73869037628174,0.011053355410695076,-0.002003432018682361,0.0034495112486183643,-0.4594321846961975,0.625112771987915,-0.9050593376159668,0.22371329451213678,4.278810047070525,0.17336716504175645,,,,,,
14,20,-1.0854668617248535,-0.032777588814497,9.73869037628174,0.011053355410695076,-0.002003432018682361,0.0034495112486183643,-0.4594321846961975,0.625112771987915,-0.9050593376159668,0.22371329451213678,4.278810047070525,0.17336716504175645,,,,,,
14,21,-1.0854668617248535,-0.032777588814497,9.73869037628174,0.011053355410695076,-0.002003432018682361,0.0034495112486183643,-0.4594321846961975,0.625112771987915,-0.9050593376159668,0.22371329451213678,4.278810047070525,0.17336716504175645,,,,,,
14,22,-1.0229671001434326,-0.05043073743581772,9.737146377563477,0.009932709857821465,-0.012289800681173803,0.005806514527648688,-0.46127545833587646,0.6216964125633241,-0.9041166901588441,0.22696628550239772,4.273827211155346,0.1759238534430878,,,,,,
14,23,-1.0500130653381348,0.03224946931004525,9.761116027832031,0.007973642088472845,-0.012668938376009466,0.004989312961697578,-0.45926374197006226,0.6245078444480897,-0.8985077738761903,0.23220104524168458,4.263520992001739,0.17985283696940846,,,,,,
15,0,-0.7650567889213563,-0.09067373722791673,9.770956039428711,0.007477028761059047,0.0034168378915637736,-1.1913332855328918e-05,-0.4627757668495178,0.6236774921417236,-0.9050758481025697,0.15913082026597591,4.199452227675201,0.15053515437891293,,,,,,
15,1,-0.7650567889213563,-0.09067373722791673,9.770956039428711,0.007477028761059047,0.0034168378915637736,-1.1913332855328918e-05,-0.4627757668495178,0.6236774921417236,-0.9050758481025697,0.15913082026597591,4.199452227675201,0.15053515437891293,,,,,,
15,2,-0.7650567889213563,-0.09067373722791673,9.770956039428711,0.007477028761059047,0.0034168378915637736,-1.1913332855328918e-05,-0.4627757668495178,0.6236774921417236,-0.9050758481025697,0.15913082026597591,4.199452227675201,0.15053515437891293,,,,,,
15,3,-0.7650567889213563,-0.09067373722791673,9.770956039428711,0.007477028761059047,0.0034168378915637736,-1.1913332855328918e-05,-0.4627757668495178,0.6236774921417236,-0.9050758481025697,0.15913082026597591,4.199452227675201,0.15053515437891293,,,,,,
15,4,-0.7650567889213563,-0.09067373722791673,9.770956039428711,0.007477028761059047,0.0034168378915637736,-1.1913332855328918e-05,-0.4627757668495178,0.6236774921417236,-0.9050758481025697,0.15913082026597591,4.199452227675201,0.15053515437891293,,,,,,
15,5,-0.7832673192024232,-0.05849195271730423,9.77984619140625,0.012099014595150948,0.003340766998007894,0.0032994961366057396,-0.46217980980873113,0.6226258277893066,-0.9010614156723022,0.16412263043727043,4.203304270795506,0.1518630547243696,,,,,,
15,6,-0.6695815324783325,-0.06493399292230607,9.78309440612793,0.00985826086252928,0.0033481698483228683,0.0040959916077554235,-0.4588391184806824,0.6279182434082031,-0.8984339237213135,0.1715236402054141,4.211126694404382,0.15509058157844557,,,,,,
15,7,-0.6703875660896302,-0.0804511532187462,9.797222137451172,0.008904211223125458,0.0036794114857912064,0.0038906966801732783,-0.4584775269031525,0.6270378828048706,-0.9040108919143677,0.17460507624166388,4.215100376132839,0.15672662521742978,,,,,,
15,8,-0.6703875660896302,-0.0804511532187462,9.797222137451172,0.008904211223125458,0.0036794114857912064,0.0038906966801732783,-0.4584775269031525,0.6270378828048706,-0.9040108919143677,0.17460507624166388,4.215100376132839,0.15672662521742978,,,,,,
15,9,-0.6567347049713135,-0.08080110698938371,9.779129028320312,0.008653844706714155,0.006588935852050781,0.003030885010957718,-0.4603455066680908,0.6236395239830018,-0.9040777683258057,0.1818974452622636,4.223435777045026,0.1604656513839012,,,,,,
15,10,-0.5536327362060547,-0.0796031802892685,9.795750617980959,0.010193490423262121,0.008014252409338951,0.0015608636895194652,-0.46165746450424194,0.6230735778808594,-0.8990337252616883,0.18545538861449953,4.229691492542615,0.16071932280788695,,,,,,
15,11,-0.5536327362060547,-0.0796031802892685,9.795750617980959,0.010193490423262121,0.008014252409338951,0.0015608636895194652,-0.46165746450424194,0.6230735778808594,-0.8990337252616883,0.18545538861449953,4.229691492542615,0.16071932280788695,,,,,,
15,12,-0.6893809437751771,0.002693592803552747,9.796686172485352,0.010905723087489607,0.01002484653145075,0.003387714270502329,-0.46162804961204534,0.6249795556068422,-0.8964661955833436,0.18944387769846097,4.2369199605245775,0.16200714219959234,,,,,,
15,13,-0.843400239944458,0.004312660079449416,9.796010971069336,0.00954639818519354,0.014338657259941101,0.0017375237075611951,-0.4593040943145752,0.6269466876983643,-0.8984533548355103,0.19260189492198812,4.246564035149199,0.16235931907381806,,,,,,
15,14,-0.9088470339775087,-0.058125413954257965,9.792925834655763,0.010694963857531548,0.0006935828714631499,0.004876360297203064,-0.45994982123374945,0.6265891790390015,-0.9055292010307313,0.1998137834693802,4.254098926656275,0.16552511872598666,,,,,,
15,15,-0.9088470339775087,-0.058125413954257965,9.792925834655763,0.010694963857531548,0.0006935828714631499,0.004876360297203064,-0.45994982123374945,0.6265891790390015,-0.9055292010307313,0.1998137834693802,4.254098926656275,0.16552511872598666,,,,,,
15,16,-0.749722957611084,-0.07402681559324266,9.794439315795898,0.012264027260243894,-0.0016224064165726306,0.002315207850188017,-0.4599094688892365,0.6241503953933716,-0.9055836200714111,0.20451196103671848,4.25498202911022,0.16617274912083838,,,,,,
15,17,-0.6332428455352783,-0.0644819661974907,9.795742988586428,0.01069975458085537,0.004759859759360553,0.0014599452260881662,-0.45978656411170965,0.622614860534668,-0.9015778303146362,0.2082290100255847,4.259508066458309,0.1663272395269225,,,,,,
15,18,-1.0854668617248535,-0.032777588814497,9.73869037628174,0.011053355410695076,-0.002003432018682361,0.0034495112486183643,-0.4594321846961975,0.625112771987915,-0.9050593376159668,0.22371329451213678,4.278810047070525,0.17336716504175645,,,,,,
15,19,-1.0854668617248535,-0.032777588814497,9.73869037628174,0.011053355410695076,-0.002003432018682361,0.0034495112486183643,-0.4594321846961975,0.625112771987915,-0.9050593376159668,0.22371329451213678,4.278810047070525,0.17336716504175645,,,,,,
15,20,-1.0854668617248535,-0.032777588814497,9.73869037628174,0.011053355410695076,-0.002003432018682361,0.0034495112486183643,-0.4594321846961975,0.625112771987915,-0.9050593376159668,0.22371329451213678,4.278810047070525,0.17336716504175645,,,,,,
15,21,-1.0854668617248535,-0.032777588814497,9.73869037628174,0.011053355410695076,-0.002003432018682361,0.0034495112486183643,-0.4594321846961975,0.625112771987915,-0.9050593376159668,0.22371329451213678,4.278810047070525,0.17336716504175645,,,,,,
15,22,-1.0229671001434326,-0.05043073743581772,9.737146377563477,0.009932709857821465,-0.012289800681173803,0.005806514527648688,-0.46127545833587646,0.6216964125633241,-0.9041166901588441,0.22696628550239772,4.273827211155346,0.1759238534430878,,,,,,
15,23,-1.0500130653381348,0.03224946931004525,9.761116027832031,0.007973642088472845,-0.012668938376009466,0.004989312961697578,-0.45926374197006226,0.6245078444480897,-0.8985077738761903,0.23220104524168458,4.263520992001739,0.17985283696940846,,,,,,
16,0,-0.7650567889213563,-0.09067373722791673,9.770956039428711,0.007477028761059047,0.0034168378915637736,-1.1913332855328918e-05,-0.4627757668495178,0.6236774921417236,-0.9050758481025697,0.15913082026597591,4.199452227675201,0.15053515437891293,,,,,,
16,1,-0.7650567889213563,-0.09067373722791673,9.770956039428711,0.007477028761059047,0.0034168378915637736,-1.1913332855328918e-05,-0.4627757668495178,0.6236774921417236,-0.9050758481025697,0.15913082026597591,4.199452227675201,0.15053515437891293,,,,,,
16,2,-0.7650567889213563,-0.09067373722791673,9.770956039428711,0.007477028761059047,0.0034168378915637736,-1.1913332855328918e-05,-0.4627757668495178,0.6236774921417236,-0.9050758481025697,0.15913082026597591,4.199452227675201,0.15053515437891293,,,,,,
16,3,-0.7650567889213563,-0.09067373722791673,9.770956039428711,0.007477028761059047,0.0034168378915637736,-1.1913332855328918e-05,-0.4627757668495178,0.6236774921417236,-0.9050758481025697,0.15913082026597591,4.199452227675201,0.15053515437891293,,,,,,
16,4,-0.7650567889213563,-0.09067373722791673,9.770956039428711,0.007477028761059047,0.0034168378915637736,-1.1913332855328918e-05,-0.4627757668495178,0.6236774921417236,-0.9050758481025697,0.15913082026597591,4.199452227675201,0.15053515437891293,,,,,,
16,5,-0.7832673192024232,-0.05849195271730423,9.77984619140625,0.012099014595150948,0.003340766998007894,0.0032994961366057396,-0.46217980980873113,0.6226258277893066,-0.9010614156723022,0.16412263043727043,4.203304270795506,0.1518630547243696,,,,,,
16,6,-0.6695815324783325,-0.06493399292230607,9.78309440612793,0.00985826086252928,0.0033481698483228683,0.0040959916077554235,-0.4588391184806824,0.6279182434082031,-0.8984339237213135,0.1715236402054141,4.211126694404382,0.15509058157844557,,,,,,
16,7,-0.6703875660896302,-0.0804511532187462,9.797222137451172,0.008904211223125458,0.0036794114857912064,0.0038906966801732783,-0.4584775269031525,0.6270378828048706,-0.9040108919143677,0.17460507624166388,4.215100376132839,0.15672662521742978,,,,,,
16,8,-0.6703875660896302,-0.0804511532187462,9.797222137451172,0.008904211223125458,0.0036794114857912064,0.0038906966801732783,-0.4584775269031525,0.6270378828048706,-0.9040108919143677,0.17460507624166388,4.215100376132839,0.15672662521742978,,,,,,
16,9,-0.6567347049713135,-0.08080110698938371,9.779129028320312,0.008653844706714155,0.006588935852050781,0.003030885010957718,-0.4603455066680908,0.6236395239830018,-0.9040777683258057,0.1818974452622636,4.223435777045026,0.1604656513839012,,,,,,
16,10,-0.5536327362060547,-0.0796031802892685,9.795750617980959,0.010193490423262121,0.008014252409338951,0.0015608636895194652,-0.46165746450424194,0.6230735778808594,-0.8990337252616883,0.18545538861449953,4.229691492542615,0.16071932280788695,,,,,,
16,11,-0.5536327362060547,-0.0796031802892685,9.795750617980959,0.010193490423262121,0.008014252409338951,0.0015608636895194652,-0.46165746450424194,0.6230735778808594,-0.8990337252616883,0.18545538861449953,4.229691492542615,0.16071932280788695,,,,,,
16,12,-0.6893809437751771,0.002693592803552747,9.796686172485352,0.010905723087489607,0.01002484653145075,0.003387714270502329,-0.46162804961204534,0.6249795556068422,-0.8964661955833436,0.18944387769846097,4.2369199605245775,0.16200714219959234,,,,,,
16,13,-0.843400239944458,0.004312660079449416,9.796010971069336,0.00954639818519354,0.014338657259941101,0.0017375237075611951,-0.4593040943145752,0.6269466876983643,-0.8984533548355103,0.19260189492198812,4.246564035149199,0.16235931907381806,,,,,,
16,14,-0.9088470339775087,-0.058125413954257965,9.792925834655763,0.010694963857531548,0.0006935828714631499,0.004876360297203064,-0.45994982123374945,0.6265891790390015,-0.9055292010307313,0.1998137834693802,4.254098926656275,0.16552511872598666,,,,,,
16,15,-0.9088470339775087,-0.058125413954257965,9.792925834655763,0.010694963857531548,0.0006935828714631499,0.004876360297203064,-0.45994982123374945,0.6265891790390015,-0.9055292010307313,0.1998137834693802,4.254098926656275,0.16552511872598666,,,,,,
16,16,-0.749722957611084,-0.07402681559324266,9.794439315795898,0.012264027260243894,-0.0016224064165726306,0.002315207850188017,-0.4599094688892365,0.6241503953933716,-0.9055836200714111,0.20451196103671848,4.25498202911022,0.16617274912083838,,,,,,
16,17,-0.6332428455352783,-0.0644819661974907,9.795742988586428,0.01069975458085537,0.004759859759360553,0.0014599452260881662,-0.45978656411170965,0.622614860534668,-0.9015778303146362,0.2082290100255847,4.259508066458309,0.1663272395269225,,,,,,
16,18,-1.0854668617248535,-0.032777588814497,9.73869037628174,0.011053355410695076,-0.002003432018682361,0.0034495112486183643,-0.4594321846961975,0.625112771987915,-0.9050593376159668,0.22371329451213678,4.278810047070525,0.17336716504175645,,,,,,
16,19,-1.0854668617248535,-0.032777588814497,9.73869037628174,0.011053355410695076,-0.002003432018682361,0.0034495112486183643,-0.4594321846961975,0.625112771987915,-0.9050593376159668,0.22371329451213678,4.278810047070525,0.17336716504175645,,,,,,
16,20,-1.0854668617248535,-0.032777588814497,9.73869037628174,0.011053355410695076,-0.002003432018682361,0.0034495112486183643,-0.4594321846961975,0.625112771987915,-0.9050593376159668,0.22371329451213678,4.278810047070525,0.17336716504175645,,,,,,
16,21,-1.0854668617248535,-0.032777588814497,9.73869037628174,0.011053355410695076,-0.002003432018682361,0.0034495112486183643,-0.4594321846961975,0.625112771987915,-0.9050593376159668,0.22371329451213678,4.278810047070525,0.17336716504175645,,,,,,
16,22,-1.0229671001434326,-0.05043073743581772,9.737146377563477,0.009932709857821465,-0.012289800681173803,0.005806514527648688,-0.46127545833587646,0.6216964125633241,-0.9041166901588441,0.22696628550239772,4.273827211155346,0.1759238534430878,,,,,,
16,23,-1.0500130653381348,0.03224946931004525,9.761116027832031,0.007973642088472845,-0.012668938376009466,0.004989312961697578,-0.45926374197006226,0.6245078444480897,-0.8985077738761903,0.23220104524168458,4.263520992001739,0.17985283696940846,,,,,,
17,0,-0.7650567889213563,-0.09067373722791673,9.770956039428711,0.007477028761059047,0.0034168378915637736,-1.1913332855328918e-05,-0.4627757668495178,0.6236774921417236,-0.9050758481025697,0.15913082026597591,4.199452227675201,0.15053515437891293,,,,,,
17,1,-0.7650567889213563,-0.09067373722791673,9.770956039428711,0.007477028761059047,0.0034168378915637736,-1.1913332855328918e-05,-0.4627757668495178,0.6236774921417236,-0.9050758481025697,0.15913082026597591,4.199452227675201,0.15053515437891293,,,,,,
17,2,-0.7650567889213563,-0.09067373722791673,9.770956039428711,0.007477028761059047,0.0034168378915637736,-1.1913332855328918e-05,-0.4627757668495178,0.6236774921417236,-0.9050758481025697,0.15913082026597591,4.199452227675201,0.15053515437891293,,,,,,
17,3,-0.7650567889213563,-0.09067373722791673,9.770956039428711,0.007477028761059047,0.0034168378915637736,-1.1913332855328918e-05,-0.4627757668495178,0.6236774921417236,-0.9050758481025697,0.15913082026597591,4.199452227675201,0.15053515437891293,,,,,,
17,4,-0.7650567889213563,-0.09067373722791673,9.770956039428711,0.007477028761059047,0.0034168378915637736,-1.1913332855328918e-05,-0.4627757668495178,0.6236774921417236,-0.9050758481025697,0.15913082026597591,4.199452227675201,0.15053515437891293,,,,,,
17,5,-0.7832673192024232,-0.05849195271730423,9.77984619140625,0.012099014595150948,0.003340766998007894,0.0032994961366057396,-0.46217980980873113,0.6226258277893066,-0.9010614156723022,0.16412263043727043,4.203304270795506,0.1518630547243696,,,,,,
17,6,-0.6695815324783325,-0.06493399292230607,9.78309440612793,0.00985826086252928,0.0033481698483228683,0.0040959916077554235,-0.4588391184806824,0.6279182434082031,-0.8984339237213135,0.1715236402054141,4.211126694404382,0.15509058157844557,,,,,,
17,7,-0.6703875660896302,-0.0804511532187462,9.797222137451172,0.008904211223125458,0.0036794114857912064,0.0038906966801732783,-0.4584775269031525,0.6270378828048706,-0.9040108919143677,0.17460507624166388,4.215100376132839,0.15672662521742978,,,,,,
17,8,-0.6703875660896302,-0.0804511532187462,9.797222137451172,0.008904211223125458,0.0036794114857912064,0.0038906966801732783,-0.4584775269031525,0.6270378828048706,-0.9040108919143677,0.17460507624166388,4.215100376132839,0.15672662521742978,,,,,,
17,9,-0.6567347049713135,-0.08080110698938371,9.779129028320312,0.008653844706714155,0.006588935852050781,0.003030885010957718,-0.4603455066680908,0.6236395239830018,-0.9040777683258057,0.1818974452622636,4.223435777045026,0.1604656513839012,,,,,,
17,10,-0.5536327362060547,-0.0796031802892685,9.795750617980959,0.010193490423262121,0.008014252409338951,0.0015608636895194652,-0.46165746450424194,0.6230735778808594,-0.8990337252616883,0.18545538861449953,4.229691492542615,0.16071932280788695,,,,,,
17,11,-0.5536327362060547,-0.0796031802892685,9.795750617980959,0.010193490423262121,0.008014252409338951,0.0015608636895194652,-0.46165746450424194,0.6230735778808594,-0.8990337252616883,0.18545538861449953,4.229691492542615,0.16071932280788695,,,,,,
17,12,-0.6893809437751771,0.002693592803552747,9.796686172485352,0.010905723087489607,0.01002484653145075,0.003387714270502329,-0.46162804961204534,0.6249795556068422,-0.8964661955833436,0.18944387769846097,4.2369199605245775,0.16200714219959234,,,,,,
17,13,-0.843400239944458,0.004312660079449416,9.796010971069336,0.00954639818519354,0.014338657259941101,0.0017375237075611951,-0.4593040943145752,0.6269466876983643,-0.8984533548355103,0.19260189492198812,4.246564035149199,0.16235931907381806,,,,,,
17,14,-0.9088470339775087,-0.058125413954257965,9.792925834655763,0.010694963857531548,0.0006935828714631499,0.004876360297203064,-0.45994982123374945,0.6265891790390015,-0.9055292010307313,0.1998137834693802,4.254098926656275,0.16552511872598666,,,,,,
17,15,-0.9088470339775087,-0.058125413954257965,9.792925834655763,0.010694963857531548,0.0006935828714631499,0.004876360297203064,-0.45994982123374945,0.6265891790390015,-0.9055292010307313,0.1998137834693802,4.254098926656275,0.16552511872598666,,,,,,
17,16,-0.749722957611084,-0.07402681559324266,9.794439315795898,0.012264027260243894,-0.0016224064165726306,0.002315207850188017,-0.4599094688892365,0.6241503953933716,-0.9055836200714111,0.20451196103671848,4.25498202911022,0.16617274912083838,,,,,,
17,17,-0.6332428455352783,-0.0644819661974907,9.795742988586428,0.01069975458085537,0.004759859759360553,0.0014599452260881662,-0.45978656411170965,0.622614860534668,-0.9015778303146362,0.2082290100255847,4.259508066458309,0.1663272395269225,,,,,,
17,18,-1.0854668617248535,-0.032777588814497,9.73869037628174,0.011053355410695076,-0.002003432018682361,0.0034495112486183643,-0.4594321846961975,0.625112771987915,-0.9050593376159668,0.22371329451213678,4.278810047070525,0.17336716504175645,,,,,,
17,19,-1.0854668617248535,-0.032777588814497,9.73869037628174,0.011053355410695076,-0.002003432018682361,0.0034495112486183643,-0.4594321846961975,0.625112771987915,-0.9050593376159668,0.22371329451213678,4.278810047070525,0.17336716504175645,,,,,,
17,20,-1.0854668617248535,-0.032777588814497,9.73869037628174,0.011053355410695076,-0.002003432018682361,0.0034495112486183643,-0.4594321846961975,0.625112771987915,-0.9050593376159668,0.22371329451213678,4.278810047070525,0.17336716504175645,,,,,,
17,21,-1.0854668617248535,-0.032777588814497,9.73869037628174,0.011053355410695076,-0.002003432018682361,0.0034495112486183643,-0.4594321846961975,0.625112771987915,-0.9050593376159668,0.22371329451213678,4.278810047070525,0.17336716504175645,,,,,,
17,22,-1.0229671001434326,-0.05043073743581772,9.737146377563477,0.009932709857821465,-0.012289800681173803,0.005806514527648688,-0.46127545833587646,0.6216964125633241,-0.9041166901588441,0.22696628550239772,4.273827211155346,0.1759238534430878,,,,,,
17,23,-1.0500130653381348,0.03224946931004525,9.761116027832031,0.007973642088472845,-0.012668938376009466,0.004989312961697578,-0.45926374197006226,0.6245078444480897,-0.8985077738761903,0.23220104524168458,4.263520992001739,0.17985283696940846,,,,,,
18,0,-0.7650567889213563,-0.09067373722791673,9.770956039428711,0.007477028761059047,0.0034168378915637736,-1.1913332855328918e-05,-0.4627757668495178,0.6236774921417236,-0.9050758481025697,0.15913082026597591,4.199452227675201,0.15053515437891293,,,,,,
18,1,-0.7650567889213563,-0.09067373722791673,9.770956039428711,0.007477028761059047,0.0034168378915637736,-1.1913332855328918e-05,-0.4627757668495178,0.6236774921417236,-0.9050758481025697,0.15913082026597591,4.199452227675201,0.15053515437891293,,,,,,
18,2,-0.7650567889213563,-0.09067373722791673,9.770956039428711,0.007477028761059047,0.0034168378915637736,-1.1913332855328918e-05,-0.4627757668495178,0.6236774921417236,-0.9050758481025697,0.15913082026597591,4.199452227675201,0.15053515437891293,,,,,,
18,3,-0.7650567889213563,-0.09067373722791673,9.770956039428711,0.007477028761059047,0.0034168378915637736,-1.1913332855328918e-05,-0.4627757668495178,0.6236774921417236,-0.9050758481025697,0.15913082026597591,4.199452227675201,0.15053515437891293,,,,,,
18,4,-0.7650567889213563,-0.09067373722791673,9.770956039428711,0.007477028761059047,0.0034168378915637736,-1.1913332855328918e-05,-0.4627757668495178,0.6236774921417236,-0.9050758481025697,0.15913082026597591,4.199452227675201,0.15053515437891293,,,,,,
18,5,-0.7832673192024232,-0.05849195271730423,9.77984619140625,0.012099014595150948,0.003340766998007894,0.0032994961366057396,-0.46217980980873113,0.6226258277893066,-0.9010614156723022,0.16412263043727043,4.203304270795506,0.1518630547243696,,,,,,
18,6,-0.6695815324783325,-0.06493399292230607,9.78309440612793,0.00985826086252928,0.0033481698483228683,0.0040959916077554235,-0.4588391184806824,0.6279182434082031,-0.8984339237213135,0.1715236402054141,4.211126694404382,0.15509058157844557,,,,,,
18,7,-0.6703875660896302,-0.0804511532187462,9.797222137451172,0.008904211223125458,0.0036794114857912064,0.0038906966801732783,-0.4584775269031525,0.6270378828048706,-0.9040108919143677,0.17460507624166388,4.215100376132839,0.15672662521742978,,,,,,
18,8,-0.6703875660896302,-0.0804511532187462,9.797222137451172,0.008904211223125458,0.0036794114857912064,0.0038906966801732783,-0.4584775269031525,0.6270378828048706,-0.9040108919143677,0.17460507624166388,4.215100376132839,0.15672662521742978,,,,,,
18,9,-0.6567347049713135,-0.08080110698938371,9.779129028320312,0.008653844706714155,0.006588935852050781,0.003030885010957718,-0.4603455066680908,0.6236395239830018,-0.9040777683258057,0.1818974452622636,4.223435777045026,0.1604656513839012,,,,,,
18,10,-0.5536327362060547,-0.0796031802892685,9.795750617980959,0.010193490423262121,0.008014252409338951,0.0015608636895194652,-0.46165746450424194,0.6230735778808594,-0.8990337252616883,0.18545538861449953,4.229691492542615,0.16071932280788695,,,,,,
18,11,-0.5536327362060547,-0.0796031802892685,9.795750617980959,0.010193490423262121,0.008014252409338951,0.0015608636895194652,-0.46165746450424194,0.6230735778808594,-0.8990337252616883,0.18545538861449953,4.229691492542615,0.16071932280788695,,,,,,
18,12,-0.6893809437751771,0.002693592803552747,9.796686172485352,0.010905723087489607,0.01002484653145075,0.003387714270502329,-0.46162804961204534,0.6249795556068422,-0.8964661955833436,0.18944387769846097,4.2369199605245775,0.16200714219959234,,,,,,
18,13,-0.843400239944458,0.004312660079449416,9.796010971069336,0.00954639818519354,0.014338657259941101,0.0017375237075611951,-0.4593040943145752,0.6269466876983643,-0.8984533548355103,0.19260189492198812,4.246564035149199,0.16235931907381806,,,,,,
18,14,-0.9088470339775087,-0.058125413954257965,9.792925834655763,0.010694963857531548,0.0006935828714631499,0.004876360297203064,-0.45994982123374945,0.6265891790390015,-0.9055292010307313,0.1998137834693802,4.254098926656275,0.16552511872598666,,,,,,
18,15,-0.9088470339775087,-0.058125413954257965,9.792925834655763,0.010694963857531548,0.0006935828714631499,0.004876360297203064,-0.45994982123374945,0.6265891790390015,-0.9055292010307313,0.1998137834693802,4.254098926656275,0.16552511872598666,,,,,,
18,16,-0.749722957611084,-0.07402681559324266,9.794439315795898,0.012264027260243894,-0.0016224064165726306,0.002315207850188017,-0.4599094688892365,0.6241503953933716,-0.9055836200714111,0.20451196103671848,4.25498202911022,0.16617274912083838,,,,,,
18,17,-0.6332428455352783,-0.0644819661974907,9.795742988586428,0.01069975458085537,0.004759859759360553,0.0014599452260881662,-0.45978656411170965,0.622614860534668,-0.9015778303146362,0.2082290100255847,4.259508066458309,0.1663272395269225,,,,,,
18,18,-1.0854668617248535,-0.032777588814497,9.73869037628174,0.011053355410695076,-0.002003432018682361,0.0034495112486183643,-0.4594321846961975,0.625112771987915,-0.9050593376159668,0.22371329451213678,4.278810047070525,0.17336716504175645,,,,,,
18,19,-1.0854668617248535,-0.032777588814497,9.73869037628174,0.011053355410695076,-0.002003432018682361,0.0034495112486183643,-0.4594321846961975,0.625112771987915,-0.9050593376159668,0.22371329451213678,4.278810047070525,0.17336716504175645,,,,,,
18,20,-1.0854668617248535,-0.032777588814497,9.73869037628174,0.011053355410695076,-0.002003432018682361,0.0034495112486183643,-0.4594321846961975,0.625112771987915,-0.9050593376159668,0.22371329451213678,4.278810047070525,0.17336716504175645,,,,,,
18,21,-1.0854668617248535,-0.032777588814497,9.73869037628174,0.011053355410695076,-0.002003432018682361,0.0034495112486183643,-0.4594321846961975,0.625112771987915,-0.9050593376159668,0.22371329451213678,4.278810047070525,0.17336716504175645,,,,,,
18,22,-1.0229671001434326,-0.05043073743581772,9.737146377563477,0.009932709857821465,-0.012289800681173803,0.005806514527648688,-0.46127545833587646,0.6216964125633241,-0.9041166901588441,0.22696628550239772,4.273827211155346,0.1759238534430878,,,,,,
18,23,-1.0500130653381348,0.03224946931004525,9.761116027832031,0.007973642088472845,-0.012668938376009466,0.004989312961697578,-0.45926374197006226,0.6245078444480897,-0.8985077738761903,0.23220104524168458,4.263520992001739,0.17985283696940846,,,,,,
19,0,-0.7650567889213563,-0.09067373722791673,9.770956039428711,0.007477028761059047,0.0034168378915637736,-1.1913332855328918e-05,-0.4627757668495178,0.6236774921417236,-0.9050758481025697,0.15913082026597591,4.199452227675201,0.15053515437891293,,,,,,
19,1,-0.7650567889213563,-0.09067373722791673,9.770956039428711,0.007477028761059047,0.0034168378915637736,-1.1913332855328918e-05,-0.4627757668495178,0.6236774921417236,-0.9050758481025697,0.15913082026597591,4.199452227675201,0.15053515437891293,,,,,,
19,2,-0.7650567889213563,-0.09067373722791673,9.770956039428711,0.007477028761059047,0.0034168378915637736,-1.1913332855328918e-05,-0.4627757668495178,0.6236774921417236,-0.9050758481025697,0.15913082026597591,4.199452227675201,0.15053515437891293,,,,,,
19,3,-0.7650567889213563,-0.09067373722791673,9.770956039428711,0.007477028761059047,0.0034168378915637736,-1.1913332855328918e-05,-0.4627757668495178,0.6236774921417236,-0.9050758481025697,0.15913082026597591,4.199452227675201,0.15053515437891293,,,,,,
19,4,-0.7650567889213563,-0.09067373722791673,9.770956039428711,0.007477028761059047,0.0034168378915637736,-1.1913332855328918e-05,-0.4627757668495178,0.6236774921417236,-0.9050758481025697,0.15913082026597591,4.199452227675201,0.15053515437891293,,,,,,
19,5,-0.7832673192024232,-0.05849195271730423,9.77984619140625,0.012099014595150948,0.003340766998007894,0.0032994961366057396,-0.46217980980873113,0.6226258277893066,-0.9010614156723022,0.16412263043727043,4.203304270795506,0.1518630547243696,,,,,,
19,6,-0.6695815324783325,-0.06493399292230607,9.78309440612793,0.00985826086252928,0.0033481698483228683,0.0040959916077554235,-0.4588391184806824,0.6279182434082031,-0.8984339237213135,0.1715236402054141,4.211126694404382,0.15509058157844557,,,,,,
19,7,-0.6703875660896302,-0.0804511532187462,9.797222137451172,0.008904211223125458,0.0036794114857912064,0.0038906966801732783,-0.4584775269031525,0.6270378828048706,-0.9040108919143677,0.17460507624166388,4.215100376132839,0.15672662521742978,,,,,,
19,8,-0.6703875660896302,-0.0804511532187462,9.797222137451172,0.008904211223125458,0.0036794114857912064,0.0038906966801732783,-0.4584775269031525,0.6270378828048706,-0.9040108919143677,0.17460507624166388,4.215100376132839,0.15672662521742978,,,,,,
19,9,-0.6567347049713135,-0.08080110698938371,9.779129028320312,0.008653844706714155,0.006588935852050781,0.003030885010957718,-0.4603455066680908,0.6236395239830018,-0.9040777683258057,0.1818974452622636,4.223435777045026,0.1604656513839012,,,,,,
19,10,-0.5536327362060547,-0.0796031802892685,9.795750617980959,0.010193490423262121,0.008014252409338951,0.0015608636895194652,-0.46165746450424194,0.6230735778808594,-0.8990337252616883,0.18545538861449953,4.229691492542615,0.16071932280788695,,,,,,
19,11,-0.5536327362060547,-0.0796031802892685,9.795750617980959,0.010193490423262121,0.008014252409338951,0.0015608636895194652,-0.46165746450424194,0.6230735778808594,-0.8990337252616883,0.18545538861449953,4.229691492542615,0.16071932280788695,,,,,,
19,12,-0.6893809437751771,0.002693592803552747,9.796686172485352,0.010905723087489607,0.01002484653145075,0.003387714270502329,-0.46162804961204534,0.6249795556068422,-0.8964661955833436,0.18944387769846097,4.2369199605245775,0.16200714219959234,,,,,,
19,13,-0.843400239944458,0.004312660079449416,9.796010971069336,0.00954639818519354,0.014338657259941101,0.0017375237075611951,-0.4593040943145752,0.6269466876983643,-0.8984533548355103,0.19260189492198812,4.246564035149199,0.16235931907381806,,,,,,
19,14,-0.9088470339775087,-0.058125413954257965,9.792925834655763,0.010694963857531548,0.0006935828714631499,0.004876360297203064,-0.45994982123374945,0.6265891790390015,-0.9055292010307313,0.1998137834693802,4.254098926656275,0.16552511872598666,,,,,,
19,15,-0.9088470339775087,-0.058125413954257965,9.792925834655763,0.010694963857531548,0.0006935828714631499,0.004876360297203064,-0.45994982123374945,0.6265891790390015,-0.9055292010307313,0.1998137834693802,4.254098926656275,0.16552511872598666,,,,,,
19,16,-0.749722957611084,-0.07402681559324266,9.794439315795898,0.012264027260243894,-0.0016224064165726306,0.002315207850188017,-0.4599094688892365,0.6241503953933716,-0.9055836200714111,0.20451196103671848,4.25498202911022,0.16617274912083838,,,,,,
19,17,-0.6332428455352783,-0.0644819661974907,9.795742988586428,0.01069975458085537,0.004759859759360553,0.0014599452260881662,-0.45978656411170965,0.622614860534668,-0.9015778303146362,0.2082290100255847,4.259508066458309,0.1663272395269225,,,,,,
19,18,-1.0854668617248535,-0.032777588814497,9.73869037628174,0.011053355410695076,-0.002003432018682361,0.0034495112486183643,-0.4594321846961975,0.625112771987915,-0.9050593376159668,0.22371329451213678,4.278810047070525,0.17336716504175645,,,,,,
19,19,-1.0854668617248535,-0.032777588814497,9.73869037628174,0.011053355410695076,-0.002003432018682361,0.0034495112486183643,-0.4594321846961975,0.625112771987915,-0.9050593376159668,0.22371329451213678,4.278810047070525,0.17336716504175645,,,,,,
19,20,-1.0854668617248535,-0.032777588814497,9.73869037628174,0.011053355410695076,-0.002003432018682361,0.0034495112486183643,-0.4594321846961975,0.625112771987915,-0.9050593376159668,0.22371329451213678,4.278810047070525,0.17336716504175645,,,,,,
19,21,-1.0854668617248535,-0.032777588814497,9.73869037628174,0.011053355410695076,-0.002003432018682361,0.0034495112486183643,-0.4594321846961975,0.625112771987915,-0.9050593376159668,0.22371329451213678,4.278810047070525,0.17336716504175645,,,,,,
19,22,-1.0229671001434326,-0.05043073743581772,9.737146377563477,0.009932709857821465,-0.012289800681173803,0.005806514527648688,-0.46127545833587646,0.6216964125633241,-0.9041166901588441,0.22696628550239772,4.273827211155346,0.1759238534430878,,,,,,
19,23,-1.0500130653381348,0.03224946931004525,9.761116027832031,0.007973642088472845,-0.012668938376009466,0.004989312961697578,-0.45926374197006226,0.6245078444480897,-0.8985077738761903,0.23220104524168458,4.263520992001739,0.17985283696940846,,,,,,
20,0,-0.7650567889213563,-0.09067373722791673,9.770956039428711,0.007477028761059047,0.0034168378915637736,-1.1913332855328918e-05,-0.4627757668495178,0.6236774921417236,-0.9050758481025697,0.15913082026597591,4.199452227675201,0.15053515437891293,,,,,,
20,1,-0.7650567889213563,-0.09067373722791673,9.770956039428711,0.007477028761059047,0.0034168378915637736,-1.1913332855328918e-05,-0.4627757668495178,0.6236774921417236,-0.9050758481025697,0.15913082026597591,4.199452227675201,0.15053515437891293,,,,,,
20,2,-0.7650567889213563,-0.09067373722791673,9.770956039428711,0.007477028761059047,0.0034168378915637736,-1.1913332855328918e-05,-0.4627757668495178,0.6236774921417236,-0.9050758481025697,0.15913082026597591,4.199452227675201,0.15053515437891293,,,,,,
20,3,-0.7650567889213563,-0.09067373722791673,9.770956039428711,0.007477028761059047,0.0034168378915637736,-1.1913332855328918e-05,-0.4627757668495178,0.6236774921417236,-0.9050758481025697,0.15913082026597591,4.199452227675201,0.15053515437891293,,,,,,
20,4,-0.7650567889213563,-0.09067373722791673,9.770956039428711,0.007477028761059047,0.0034168378915637736,-1.1913332855328918e-05,-0.4627757668495178,0.6236774921417236,-0.9050758481025697,0.15913082026597591,4.199452227675201,0.15053515437891293,,,,,,
20,5,-0.7832673192024232,-0.05849195271730423,9.77984619140625,0.012099014595150948,0.003340766998007894,0.0032994961366057396,-0.46217980980873113,0.6226258277893066,-0.9010614156723022,0.16412263043727043,4.203304270795506,0.1518630547243696,,,,,,
20,6,-0.6695815324783325,-0.06493399292230607,9.78309440612793,0.00985826086252928,0.0033481698483228683,0.0040959916077554235,-0.4588391184806824,0.6279182434082031,-0.8984339237213135,0.1715236402054141,4.211126694404382,0.15509058157844557,,,,,,
20,7,-0.6703875660896302,-0.0804511532187462,9.797222137451172,0.008904211223125458,0.0036794114857912064,0.0038906966801732783,-0.4584775269031525,0.6270378828048706,-0.9040108919143677,0.17460507624166388,4.215100376132839,0.15672662521742978,,,,,,
20,8,-0.6703875660896302,-0.0804511532187462,9.797222137451172,0.008904211223125458,0.0036794114857912064,0.0038906966801732783,-0.4584775269031525,0.6270378828048706,-0.9040108919143677,0.17460507624166388,4.215100376132839,0.15672662521742978,,,,,,
20,9,-0.6567347049713135,-0.08080110698938371,9.779129028320312,0.008653844706714155,0.006588935852050781,0.003030885010957718,-0.4603455066680908,0.6236395239830018,-0.9040777683258057,0.1818974452622636,4.223435777045026,0.1604656513839012,,,,,,
20,10,-0.5536327362060547,-0.0796031802892685,9.795750617980959,0.010193490423262121,0.008014252409338951,0.0015608636895194652,-0.46165746450424194,0.6230735778808594,-0.8990337252616883,0.18545538861449953,4.229691492542615,0.16071932280788695,,,,,,
20,11,-0.5536327362060547,-0.0796031802892685,9.795750617980959,0.010193490423262121,0.008014252409338951,0.0015608636895194652,-0.46165746450424194,0.6230735778808594,-0.8990337252616883,0.18545538861449953,4.229691492542615,0.16071932280788695,,,,,,
20,12,-0.6893809437751771,0.002693592803552747,9.796686172485352,0.010905723087489607,0.01002484653145075,0.003387714270502329,-0.46162804961204534,0.6249795556068422,-0.8964661955833436,0.18944387769846097,4.2369199605245775,0.16200714219959234,,,,,,
20,13,-0.843400239944458,0.004312660079449416,9.796010971069336,0.00954639818519354,0.014338657259941101,0.0017375237075611951,-0.4593040943145752,0.6269466876983643,-0.8984533548355103,0.19260189492198812,4.246564035149199,0.16235931907381806,,,,,,
20,14,-0.9088470339775087,-0.058125413954257965,9.792925834655763,0.010694963857531548,0.0006935828714631499,0.004876360297203064,-0.45994982123374945,0.6265891790390015,-0.9055292010307313,0.1998137834693802,4.254098926656275,0.16552511872598666,,,,,,
20,15,-0.9088470339775087,-0.058125413954257965,9.792925834655763,0.010694963857531548,0.0006935828714631499,0.004876360297203064,-0.45994982123374945,0.6265891790390015,-0.9055292010307313,0.1998137834693802,4.254098926656275,0.16552511872598666,,,,,,
20,16,-0.749722957611084,-0.07402681559324266,9.794439315795898,0.012264027260243894,-0.0016224064165726306,0.002315207850188017,-0.4599094688892365,0.6241503953933716,-0.9055836200714111,0.20451196103671848,4.25498202911022,0.16617274912083838,,,,,,
20,17,-0.6332428455352783,-0.0644819661974907,9.795742988586428,0.01069975458085537,0.004759859759360553,0.0014599452260881662,-0.45978656411170965,0.622614860534668,-0.9015778303146362,0.2082290100255847,4.259508066458309,0.1663272395269225,,,,,,
20,18,-1.0854668617248535,-0.032777588814497,9.73869037628174,0.011053355410695076,-0.002003432018682361,0.0034495112486183643,-0.4594321846961975,0.625112771987915,-0.9050593376159668,0.22371329451213678,4.278810047070525,0.17336716504175645,,,,,,
20,19,-1.0854668617248535,-0.032777588814497,9.73869037628174,0.011053355410695076,-0.002003432018682361,0.0034495112486183643,-0.4594321846961975,0.625112771987915,-0.9050593376159668,0.22371329451213678,4.278810047070525,0.17336716504175645,,,,,,
20,20,-1.0854668617248535,-0.032777588814497,9.73869037628174,0.011053355410695076,-0.002003432018682361,0.0034495112486183643,-0.4594321846961975,0.625112771987915,-0.9050593376159668,0.22371329451213678,4.278810047070525,0.17336716504175645,,,,,,
20,21,-1.0854668617248535,-0.032777588814497,9.73869037628174,0.011053355410695076,-0.002003432018682361,0.0034495112486183643,-0.4594321846961975,0.625112771987915,-0.9050593376159668,0.22371329451213678,4.278810047070525,0.17336716504175645,,,,,,
