frame_id,subframe_id,acc_x,acc_y,acc_z,gyro_x,gyro_y,gyro_z,mag_x,mag_y,mag_z,roll,pitch,yaw
1,0,-0.7753235101699829,-0.05859982967376709,9.766324996948242,0.009786692447960378,0.0018332430627197027,0.0031851716339588165,-0.21596437692642212,0.5632414221763612,-0.8878611326217651,0.1960956592134148,4.65859886928919,0.1270653519427623,,,,,,
1,1,-0.7753235101699829,-0.05859982967376709,9.766324996948242,0.009786692447960378,0.0018332430627197027,0.0031851716339588165,-0.21596437692642212,0.5632414221763612,-0.8878611326217651,0.1960956592134148,4.65859886928919,0.1270653519427623,,,,,,
1,2,-0.7753235101699829,-0.05859982967376709,9.766324996948242,0.009786692447960378,0.0018332430627197027,0.0031851716339588165,-0.21596437692642212,0.5632414221763612,-0.8878611326217651,0.1960956592134148,4.65859886928919,0.1270653519427623,,,,,,
1,3,-0.7753235101699829,-0.05859982967376709,9.766324996948242,0.009786692447960378,0.0018332430627197027,0.0031851716339588165,-0.21596437692642212,0.5632414221763612,-0.8878611326217651,0.1960956592134148,4.65859886928919,0.1270653519427623,,,,,,
1,4,-0.7753235101699829,-0.05859982967376709,9.766324996948242,0.009786692447960378,0.0018332430627197027,0.0031851716339588165,-0.21596437692642212,0.5632414221763612,-0.8878611326217651,0.1960956592134148,4.65859886928919,0.1270653519427623,,,,,,
1,5,-0.8319666385650635,-0.0537542924284935,9.781357765197756,0.008768592029809952,0.0009696961496956648,0.0017482663970440626,-0.21505953371524814,0.5637572407722474,-0.8898741006851196,0.19833434509389103,4.658790589525142,0.12713420572908501,,,,,,
1,6,-0.7624657154083252,-0.032555580139160156,9.774637222290039,0.010176392272114754,-0.004326184745877982,0.0032994202338159084,-0.2151947766542435,0.5653017163276673,-0.8943846821784974,0.2050855722484405,4.655387996878984,0.12898148724691808,,,,,,
1,7,-0.7624657154083252,-0.032555580139160156,9.774637222290039,0.010176392272114754,-0.004326184745877982,0.0032994202338159084,-0.2151947766542435,0.5653017163276673,-0.8943846821784974,0.2050855722484405,4.655387996878984,0.12898148724691808,,,,,,
1,8,-0.7920506596565248,-0.033656846731901176,9.790097236633303,0.00969209335744381,-0.003463035682216287,0.0035375177394598727,-0.21657690405845642,0.5638233423233032,-0.8928959369659424,0.20788864557855602,4.653063958964304,0.13005504594113756,,,,,,
1,9,-0.7873581051826478,-0.07828039675951005,9.784252166748047,0.01093296427279711,-0.002754915039986372,0.005267942789942027,-0.2141215205192566,0.5652124881744385,-0.8898460865020752,0.21691924819416228,4.64768055067607,0.13076828547632657,,,,,,
1,10,-0.7873581051826478,-0.07828039675951005,9.784252166748047,0.01093296427279711,-0.002754915039986372,0.005267942789942027,-0.2141215205192566,0.5652124881744385,-0.8898460865020752,0.21691924819416228,4.64768055067607,0.13076828547632657,,,,,,
1,11,-0.7873581051826478,-0.07828039675951005,9.784252166748047,0.01093296427279711,-0.002754915039986372,0.005267942789942027,-0.2141215205192566,0.5652124881744385,-0.8898460865020752,0.21691924819416228,4.64768055067607,0.13076828547632657,,,,,,
1,12,-0.7505720257759095,-0.04019816964864731,9.789419174194336,0.008004860952496529,-0.0030808520969003443,0.005056379362940788,-0.21665854752063754,0.5658105015754701,-0.8948716521263124,0.22153891027415493,4.643963144392451,0.13392841932298596,,,,,,
1,13,-0.7505720257759095,-0.04019816964864731,9.789419174194336,0.008004860952496529,-0.0030808520969003443,0.005056379362940788,-0.21665854752063754,0.5658105015754701,-0.8948716521263124,0.22153891027415493,4.643963144392451,0.13392841932298596,,,,,,
1,14,-0.7649802565574647,-0.02575980313122273,9.780140876770021,0.008851305581629278,-0.00246537639759481,0.004994112998247147,-0.21751874685287476,0.563334584236145,-0.892397403717041,0.22374012883075994,4.642210808107137,0.13578071372799785,,,,,,
1,15,-0.7527645230293275,-0.02355765923857689,9.773296356201172,0.009825429879128935,-0.0035148761235177517,0.0004518653149716556,-0.21693466603755954,0.563737154006958,-0.8878456354141235,0.22686603375433717,4.637835024434061,0.1341068636355504,,,,,,
1,16,-0.7527645230293275,-0.02355765923857689,9.773296356201172,0.009825429879128935,-0.0035148761235177517,0.0004518653149716556,-0.21693466603755954,0.563737154006958,-0.8878456354141235,0.22686603375433717,4.637835024434061,0.1341068636355504,,,,,,
1,17,-0.8705109357833862,-0.08262673020362854,9.761026382446289,0.004063168540596962,-0.002344357781112194,0.0044360882602632054,-0.2156384289264679,0.5667239427566528,-0.8918257355690004,0.22830230497866927,4.635112198836438,0.13589780716762204,,,,,,
1,18,-0.7785137891769409,-0.08178564161062242,9.778741836547852,0.010013207793235779,-0.00244721700437367,0.0025860811583697796,-0.21807342767715454,0.5648379325866699,-0.8943817019462587,0.23096839859762022,4.6333907953750355,0.13633776411753107,,,,,,
1,19,-0.7785137891769409,-0.08178564161062242,9.778741836547852,0.010013207793235779,-0.00244721700437367,0.0025860811583697796,-0.21807342767715454,0.5648379325866699,-0.8943817019462587,0.23096839859762022,4.6333907953750355,0.13633776411753107,,,,,,
1,20,-0.7890277504920961,-0.002412120578810573,9.794074058532717,0.013721363618969917,-0.00011512226046761499,0.0037729553878307343,-0.21887192130088806,0.56231689453125,-0.8893834352493286,0.2378017244017344,4.631646665345962,0.13743246976657017,,,,,,
1,21,-0.8304286599159242,-0.05378455296158791,9.771861076354982,0.008410626091063024,-0.004877083003520966,-0.0005390508449636401,-0.21463112533092502,0.5662010908126831,-0.8903267979621888,0.24252650630738368,4.6276582464453915,0.13629109986963386,,,,,,
2,0,-0.7753235101699829,-0.05859982967376709,9.766324996948242,0.009786692447960378,0.0018332430627197027,0.0031851716339588165,-0.21596437692642212,0.5632414221763612,-0.8878611326217651,0.1960956592134148,4.65859886928919,0.1270653519427623,,,,,,
2,1,-0.7753235101699829,-0.05859982967376709,9.766324996948242,0.009786692447960378,0.0018332430627197027,0.0031851716339588165,-0.21596437692642212,0.5632414221763612,-0.8878611326217651,0.1960956592134148,4.65859886928919,0.1270653519427623,,,,,,
2,2,-0.7753235101699829,-0.05859982967376709,9.766324996948242,0.009786692447960378,0.0018332430627197027,0.0031851716339588165,-0.21596437692642212,0.5632414221763612,-0.8878611326217651,0.1960956592134148,4.65859886928919,0.1270653519427623,,,,,,
2,3,-0.7753235101699829,-0.05859982967376709,9.766324996948242,0.009786692447960378,0.0018332430627197027,0.0031851716339588165,-0.21596437692642212,0.5632414221763612,-0.8878611326217651,0.1960956592134148,4.65859886928919,0.1270653519427623,,,,,,
2,4,-0.7753235101699829,-0.05859982967376709,9.766324996948242,0.009786692447960378,0.0018332430627197027,0.0031851716339588165,-0.21596437692642212,0.5632414221763612,-0.8878611326217651,0.1960956592134148,4.65859886928919,0.1270653519427623,,,,,,
2,5,-0.8319666385650635,-0.0537542924284935,9.781357765197756,0.008768592029809952,0.0009696961496956648,0.0017482663970440626,-0.21505953371524814,0.5637572407722474,-0.8898741006851196,0.19833434509389103,4.658790589525142,0.12713420572908501,,,,,,
2,6,-0.7624657154083252,-0.032555580139160156,9.774637222290039,0.010176392272114754,-0.004326184745877982,0.0032994202338159084,-0.2151947766542435,0.5653017163276673,-0.8943846821784974,0.2050855722484405,4.655387996878984,0.12898148724691808,,,,,,
2,7,-0.7624657154083252,-0.032555580139160156,9.774637222290039,0.010176392272114754,-0.004326184745877982,0.0032994202338159084,-0.2151947766542435,0.5653017163276673,-0.8943846821784974,0.2050855722484405,4.655387996878984,0.12898148724691808,,,,,,
2,8,-0.7920506596565248,-0.033656846731901176,9.790097236633303,0.00969209335744381,-0.003463035682216287,0.0035375177394598727,-0.21657690405845642,0.5638233423233032,-0.8928959369659424,0.20788864557855602,4.653063958964304,0.13005504594113756,,,,,,
2,9,-0.7873581051826478,-0.07828039675951005,9.784252166748047,0.01093296427279711,-0.002754915039986372,0.005267942789942027,-0.2141215205192566,0.5652124881744385,-0.8898460865020752,0.21691924819416228,4.64768055067607,0.13076828547632657,,,,,,
2,10,-0.7873581051826478,-0.07828039675951005,9.784252166748047,0.01093296427279711,-0.002754915039986372,0.005267942789942027,-0.2141215205192566,0.5652124881744385,-0.8898460865020752,0.21691924819416228,4.64768055067607,0.13076828547632657,,,,,,
2,11,-0.7873581051826478,-0.07828039675951005,9.784252166748047,0.01093296427279711,-0.002754915039986372,0.005267942789942027,-0.2141215205192566,0.5652124881744385,-0.8898460865020752,0.21691924819416228,4.64768055067607,0.13076828547632657,,,,,,
2,12,-0.7505720257759095,-0.04019816964864731,9.789419174194336,0.008004860952496529,-0.0030808520969003443,0.005056379362940788,-0.21665854752063754,0.5658105015754701,-0.8948716521263124,0.22153891027415493,4.643963144392451,0.13392841932298596,,,,,,
2,13,-0.7505720257759095,-0.04019816964864731,9.789419174194336,0.008004860952496529,-0.0030808520969003443,0.005056379362940788,-0.21665854752063754,0.5658105015754701,-0.8948716521263124,0.22153891027415493,4.643963144392451,0.13392841932298596,,,,,,
2,14,-0.7649802565574647,-0.02575980313122273,9.780140876770021,0.008851305581629278,-0.00246537639759481,0.004994112998247147,-0.21751874685287476,0.563334584236145,-0.892397403717041,0.22374012883075994,4.642210808107137,0.13578071372799785,,,,,,
2,15,-0.7527645230293275,-0.02355765923857689,9.773296356201172,0.009825429879128935,-0.0035148761235177517,0.0004518653149716556,-0.21693466603755954,0.563737154006958,-0.8878456354141235,0.22686603375433717,4.637835024434061,0.1341068636355504,,,,,,
2,16,-0.7527645230293275,-0.02355765923857689,9.773296356201172,0.009825429879128935,-0.0035148761235177517,0.0004518653149716556,-0.21693466603755954,0.563737154006958,-0.8878456354141235,0.22686603375433717,4.637835024434061,0.1341068636355504,,,,,,
2,17,-0.8705109357833862,-0.08262673020362854,9.761026382446289,0.004063168540596962,-0.002344357781112194,0.0044360882602632054,-0.2156384289264679,0.5667239427566528,-0.8918257355690004,0.22830230497866927,4.635112198836438,0.13589780716762204,,,,,,
2,18,-0.7785137891769409,-0.08178564161062242,9.778741836547852,0.010013207793235779,-0.00244721700437367,0.0025860811583697796,-0.21807342767715454,0.5648379325866699,-0.8943817019462587,0.23096839859762022,4.6333907953750355,0.13633776411753107,,,,,,
2,19,-0.7785137891769409,-0.08178564161062242,9.778741836547852,0.010013207793235779,-0.00244721700437367,0.0025860811583697796,-0.21807342767715454,0.5648379325866699,-0.8943817019462587,0.23096839859762022,4.6333907953750355,0.13633776411753107,,,,,,
2,20,-0.7890277504920961,-0.002412120578810573,9.794074058532717,0.013721363618969917,-0.00011512226046761499,0.0037729553878307343,-0.21887192130088806,0.56231689453125,-0.8893834352493286,0.2378017244017344,4.631646665345962,0.13743246976657017,,,,,,
2,21,-0.8304286599159242,-0.05378455296158791,9.771861076354982,0.008410626091063024,-0.004877083003520966,-0.0005390508449636401,-0.21463112533092502,0.5662010908126831,-0.8903267979621888,0.24252650630738368,4.6276582464453915,0.13629109986963386,,,,,,
3,0,-0.7753235101699829,-0.05859982967376709,9.766324996948242,0.009786692447960378,0.0018332430627197027,0.0031851716339588165,-0.21596437692642212,0.5632414221763612,-0.8878611326217651,0.1960956592134148,4.65859886928919,0.1270653519427623,,,,,,
3,1,-0.7753235101699829,-0.05859982967376709,9.766324996948242,0.009786692447960378,0.0018332430627197027,0.0031851716339588165,-0.21596437692642212,0.5632414221763612,-0.8878611326217651,0.1960956592134148,4.65859886928919,0.1270653519427623,,,,,,
3,2,-0.7753235101699829,-0.05859982967376709,9.766324996948242,0.009786692447960378,0.0018332430627197027,0.0031851716339588165,-0.21596437692642212,0.5632414221763612,-0.8878611326217651,0.1960956592134148,4.65859886928919,0.1270653519427623,,,,,,
3,3,-0.7753235101699829,-0.05859982967376709,9.766324996948242,0.009786692447960378,0.0018332430627197027,0.0031851716339588165,-0.21596437692642212,0.5632414221763612,-0.8878611326217651,0.1960956592134148,4.65859886928919,0.1270653519427623,,,,,,
3,4,-0.7753235101699829,-0.05859982967376709,9.766324996948242,0.009786692447960378,0.0018332430627197027,0.0031851716339588165,-0.21596437692642212,0.5632414221763612,-0.8878611326217651,0.1960956592134148,4.65859886928919,0.1270653519427623,,,,,,
3,5,-0.8319666385650635,-0.0537542924284935,9.781357765197756,0.008768592029809952,0.0009696961496956648,0.0017482663970440626,-0.21505953371524814,0.5637572407722474,-0.8898741006851196,0.19833434509389103,4.658790589525142,0.12713420572908501,,,,,,
3,6,-0.7624657154083252,-0.032555580139160156,9.774637222290039,0.010176392272114754,-0.004326184745877982,0.0032994202338159084,-0.2151947766542435,0.5653017163276673,-0.8943846821784974,0.2050855722484405,4.655387996878984,0.12898148724691808,,,,,,
3,7,-0.7624657154083252,-0.032555580139160156,9.774637222290039,0.010176392272114754,-0.004326184745877982,0.0032994202338159084,-0.2151947766542435,0.5653017163276673,-0.8943846821784974,0.2050855722484405,4.655387996878984,0.12898148724691808,,,,,,
3,8,-0.7920506596565248,-0.033656846731901176,9.790097236633303,0.00969209335744381,-0.003463035682216287,0.0035375177394598727,-0.21657690405845642,0.5638233423233032,-0.8928959369659424,0.20788864557855602,4.653063958964304,0.13005504594113756,,,,,,
3,9,-0.7873581051826478,-0.07828039675951005,9.784252166748047,0.01093296427279711,-0.002754915039986372,0.005267942789942027,-0.2141215205192566,0.5652124881744385,-0.8898460865020752,0.21691924819416228,4.64768055067607,0.13076828547632657,,,,,,
3,10,-0.7873581051826478,-0.07828039675951005,9.784252166748047,0.01093296427279711,-0.002754915039986372,0.005267942789942027,-0.2141215205192566,0.5652124881744385,-0.8898460865020752,0.21691924819416228,4.64768055067607,0.13076828547632657,,,,,,
3,11,-0.7873581051826478,-0.07828039675951005,9.784252166748047,0.01093296427279711,-0.002754915039986372,0.005267942789942027,-0.2141215205192566,0.5652124881744385,-0.8898460865020752,0.21691924819416228,4.64768055067607,0.13076828547632657,,,,,,
3,12,-0.7505720257759095,-0.04019816964864731,9.789419174194336,0.008004860952496529,-0.0030808520969003443,0.005056379362940788,-0.21665854752063754,0.5658105015754701,-0.8948716521263124,0.22153891027415493,4.643963144392451,0.13392841932298596,,,,,,
3,13,-0.7505720257759095,-0.04019816964864731,9.789419174194336,0.008004860952496529,-0.0030808520969003443,0.005056379362940788,-0.21665854752063754,0.5658105015754701,-0.8948716521263124,0.22153891027415493,4.643963144392451,0.13392841932298596,,,,,,
3,14,-0.7649802565574647,-0.02575980313122273,9.780140876770021,0.008851305581629278,-0.00246537639759481,0.004994112998247147,-0.21751874685287476,0.563334584236145,-0.892397403717041,0.22374012883075994,4.642210808107137,0.13578071372799785,,,,,,
3,15,-0.7527645230293275,-0.02355765923857689,9.773296356201172,0.009825429879128935,-0.0035148761235177517,0.0004518653149716556,-0.21693466603755954,0.563737154006958,-0.8878456354141235,0.22686603375433717,4.637835024434061,0.1341068636355504,,,,,,
3,16,-0.7527645230293275,-0.02355765923857689,9.773296356201172,0.009825429879128935,-0.0035148761235177517,0.0004518653149716556,-0.21693466603755954,0.563737154006958,-0.8878456354141235,0.22686603375433717,4.637835024434061,0.1341068636355504,,,,,,
3,17,-0.8705109357833862,-0.08262673020362854,9.761026382446289,0.004063168540596962,-0.002344357781112194,0.0044360882602632054,-0.2156384289264679,0.5667239427566528,-0.8918257355690004,0.22830230497866927,4.635112198836438,0.13589780716762204,,,,,,
3,18,-0.7785137891769409,-0.08178564161062242,9.778741836547852,0.010013207793235779,-0.00244721700437367,0.0025860811583697796,-0.21807342767715454,0.5648379325866699,-0.8943817019462587,0.23096839859762022,4.6333907953750355,0.13633776411753107,,,,,,
3,19,-0.7785137891769409,-0.08178564161062242,9.778741836547852,0.010013207793235779,-0.00244721700437367,0.0025860811583697796,-0.21807342767715454,0.5648379325866699,-0.8943817019462587,0.23096839859762022,4.6333907953750355,0.13633776411753107,,,,,,
3,20,-0.7890277504920961,-0.002412120578810573,9.794074058532717,0.013721363618969917,-0.00011512226046761499,0.0037729553878307343,-0.21887192130088806,0.56231689453125,-0.8893834352493286,0.2378017244017344,4.631646665345962,0.13743246976657017,,,,,,
3,21,-0.8304286599159242,-0.05378455296158791,9.771861076354982,0.008410626091063024,-0.004877083003520966,-0.0005390508449636401,-0.21463112533092502,0.5662010908126831,-0.8903267979621888,0.24252650630738368,4.6276582464453915,0.13629109986963386,,,,,,
4,0,-0.7753235101699829,-0.05859982967376709,9.766324996948242,0.009786692447960378,0.0018332430627197027,0.0031851716339588165,-0.21596437692642212,0.5632414221763612,-0.8878611326217651,0.1960956592134148,4.65859886928919,0.1270653519427623,,,,,,
4,1,-0.7753235101699829,-0.05859982967376709,9.766324996948242,0.009786692447960378,0.0018332430627197027,0.0031851716339588165,-0.21596437692642212,0.5632414221763612,-0.8878611326217651,0.1960956592134148,4.65859886928919,0.1270653519427623,,,,,,
4,2,-0.7753235101699829,-0.05859982967376709,9.766324996948242,0.009786692447960378,0.0018332430627197027,0.0031851716339588165,-0.21596437692642212,0.5632414221763612,-0.8878611326217651,0.1960956592134148,4.65859886928919,0.1270653519427623,,,,,,
4,3,-0.7753235101699829,-0.05859982967376709,9.766324996948242,0.009786692447960378,0.0018332430627197027,0.0031851716339588165,-0.21596437692642212,0.5632414221763612,-0.8878611326217651,0.1960956592134148,4.65859886928919,0.1270653519427623,,,,,,
4,4,-0.7753235101699829,-0.05859982967376709,9.766324996948242,0.009786692447960378,0.0018332430627197027,0.0031851716339588165,-0.21596437692642212,0.5632414221763612,-0.8878611326217651,0.1960956592134148,4.65859886928919,0.1270653519427623,,,,,,
4,5,-0.8319666385650635,-0.0537542924284935,9.781357765197756,0.008768592029809952,0.0009696961496956648,0.0017482663970440626,-0.21505953371524814,0.5637572407722474,-0.8898741006851196,0.19833434509389103,4.658790589525142,0.12713420572908501,,,,,,
4,6,-0.7624657154083252,-0.032555580139160156,9.774637222290039,0.010176392272114754,-0.004326184745877982,0.0032994202338159084,-0.2151947766542435,0.5653017163276673,-0.8943846821784974,0.2050855722484405,4.655387996878984,0.12898148724691808,,,,,,
4,7,-0.7624657154083252,-0.032555580139160156,9.774637222290039,0.010176392272114754,-0.004326184745877982,0.0032994202338159084,-0.2151947766542435,0.5653017163276673,-0.8943846821784974,0.2050855722484405,4.655387996878984,0.12898148724691808,,,,,,
4,8,-0.7920506596565248,-0.033656846731901176,9.790097236633303,0.00969209335744381,-0.003463035682216287,0.0035375177394598727,-0.21657690405845642,0.5638233423233032,-0.8928959369659424,0.20788864557855602,4.653063958964304,0.13005504594113756,,,,,,
4,9,-0.7873581051826478,-0.07828039675951005,9.784252166748047,0.01093296427279711,-0.002754915039986372,0.005267942789942027,-0.2141215205192566,0.5652124881744385,-0.8898460865020752,0.21691924819416228,4.64768055067607,0.13076828547632657,,,,,,
4,10,-0.7873581051826478,-0.07828039675951005,9.784252166748047,0.01093296427279711,-0.002754915039986372,0.005267942789942027,-0.2141215205192566,0.5652124881744385,-0.8898460865020752,0.21691924819416228,4.64768055067607,0.13076828547632657,,,,,,
4,11,-0.7873581051826478,-0.07828039675951005,9.784252166748047,0.01093296427279711,-0.002754915039986372,0.005267942789942027,-0.2141215205192566,0.5652124881744385,-0.8898460865020752,0.21691924819416228,4.64768055067607,0.13076828547632657,,,,,,
4,12,-0.7505720257759095,-0.04019816964864731,9.789419174194336,0.008004860952496529,-0.0030808520969003443,0.005056379362940788,-0.21665854752063754,0.5658105015754701,-0.8948716521263124,0.22153891027415493,4.643963144392451,0.13392841932298596,,,,,,
4,13,-0.7505720257759095,-0.04019816964864731,9.789419174194336,0.008004860952496529,-0.0030808520969003443,0.005056379362940788,-0.21665854752063754,0.5658105015754701,-0.8948716521263124,0.22153891027415493,4.643963144392451,0.13392841932298596,,,,,,
4,14,-0.7649802565574647,-0.02575980313122273,9.780140876770021,0.008851305581629278,-0.00246537639759481,0.004994112998247147,-0.21751874685287476,0.563334584236145,-0.892397403717041,0.22374012883075994,4.642210808107137,0.13578071372799785,,,,,,
4,15,-0.7527645230293275,-0.02355765923857689,9.773296356201172,0.009825429879128935,-0.0035148761235177517,0.0004518653149716556,-0.21693466603755954,0.563737154006958,-0.8878456354141235,0.22686603375433717,4.637835024434061,0.1341068636355504,,,,,,
4,16,-0.7527645230293275,-0.02355765923857689,9.773296356201172,0.009825429879128935,-0.0035148761235177517,0.0004518653149716556,-0.21693466603755954,0.563737154006958,-0.8878456354141235,0.22686603375433717,4.637835024434061,0.1341068636355504,,,,,,
4,17,-0.8705109357833862,-0.08262673020362854,9.761026382446289,0.004063168540596962,-0.002344357781112194,0.0044360882602632054,-0.2156384289264679,0.5667239427566528,-0.8918257355690004,0.22830230497866927,4.635112198836438,0.13589780716762204,,,,,,
4,18,-0.7785137891769409,-0.08178564161062242,9.778741836547852,0.010013207793235779,-0.00244721700437367,0.0025860811583697796,-0.21807342767715454,0.5648379325866699,-0.8943817019462587,0.23096839859762022,4.6333907953750355,0.13633776411753107,,,,,,
4,19,-0.7785137891769409,-0.08178564161062242,9.778741836547852,0.010013207793235779,-0.00244721700437367,0.0025860811583697796,-0.21807342767715454,0.5648379325866699,-0.8943817019462587,0.23096839859762022,4.6333907953750355,0.13633776411753107,,,,,,
4,20,-0.7890277504920961,-0.002412120578810573,9.794074058532717,0.013721363618969917,-0.00011512226046761499,0.0037729553878307343,-0.21887192130088806,0.56231689453125,-0.8893834352493286,0.2378017244017344,4.631646665345962,0.13743246976657017,,,,,,
4,21,-0.8304286599159242,-0.05378455296158791,9.771861076354982,0.008410626091063024,-0.004877083003520966,-0.0005390508449636401,-0.21463112533092502,0.5662010908126831,-0.8903267979621888,0.24252650630738368,4.6276582464453915,0.13629109986963386,,,,,,
5,0,-0.7753235101699829,-0.05859982967376709,9.766324996948242,0.009786692447960378,0.0018332430627197027,0.0031851716339588165,-0.21596437692642212,0.5632414221763612,-0.8878611326217651,0.1960956592134148,4.65859886928919,0.1270653519427623,,,,,,
5,1,-0.7753235101699829,-0.05859982967376709,9.766324996948242,0.009786692447960378,0.0018332430627197027,0.0031851716339588165,-0.21596437692642212,0.5632414221763612,-0.8878611326217651,0.1960956592134148,4.65859886928919,0.1270653519427623,,,,,,
5,2,-0.7753235101699829,-0.05859982967376709,9.766324996948242,0.009786692447960378,0.0018332430627197027,0.0031851716339588165,-0.21596437692642212,0.5632414221763612,-0.8878611326217651,0.1960956592134148,4.65859886928919,0.1270653519427623,,,,,,
5,3,-0.7753235101699829,-0.05859982967376709,9.766324996948242,0.009786692447960378,0.0018332430627197027,0.0031851716339588165,-0.21596437692642212,0.5632414221763612,-0.8878611326217651,0.1960956592134148,4.65859886928919,0.1270653519427623,,,,,,
5,4,-0.7753235101699829,-0.05859982967376709,9.766324996948242,0.009786692447960378,0.0018332430627197027,0.0031851716339588165,-0.21596437692642212,0.5632414221763612,-0.8878611326217651,0.1960956592134148,4.65859886928919,0.1270653519427623,,,,,,
5,5,-0.8319666385650635,-0.0537542924284935,9.781357765197756,0.008768592029809952,0.0009696961496956648,0.0017482663970440626,-0.21505953371524814,0.5637572407722474,-0.8898741006851196,0.19833434509389103,4.658790589525142,0.12713420572908501,,,,,,
5,6,-0.7624657154083252,-0.032555580139160156,9.774637222290039,0.010176392272114754,-0.004326184745877982,0.0032994202338159084,-0.2151947766542435,0.5653017163276673,-0.8943846821784974,0.2050855722484405,4.655387996878984,0.12898148724691808,,,,,,
5,7,-0.7624657154083252,-0.032555580139160156,9.774637222290039,0.010176392272114754,-0.004326184745877982,0.0032994202338159084,-0.2151947766542435,0.5653017163276673,-0.8943846821784974,0.2050855722484405,4.655387996878984,0.12898148724691808,,,,,,
5,8,-0.7920506596565248,-0.033656846731901176,9.790097236633303,0.00969209335744381,-0.003463035682216287,0.0035375177394598727,-0.21657690405845642,0.5638233423233032,-0.8928959369659424,0.20788864557855602,4.653063958964304,0.13005504594113756,,,,,,
5,9,-0.7873581051826478,-0.07828039675951005,9.784252166748047,0.01093296427279711,-0.002754915039986372,0.005267942789942027,-0.2141215205192566,0.5652124881744385,-0.8898460865020752,0.21691924819416228,4.64768055067607,0.13076828547632657,,,,,,
5,10,-0.7873581051826478,-0.07828039675951005,9.784252166748047,0.01093296427279711,-0.002754915039986372,0.005267942789942027,-0.2141215205192566,0.5652124881744385,-0.8898460865020752,0.21691924819416228,4.64768055067607,0.13076828547632657,,,,,,
5,11,-0.7873581051826478,-0.07828039675951005,9.784252166748047,0.01093296427279711,-0.002754915039986372,0.005267942789942027,-0.2141215205192566,0.5652124881744385,-0.8898460865020752,0.21691924819416228,4.64768055067607,0.13076828547632657,,,,,,
5,12,-0.7505720257759095,-0.04019816964864731,9.789419174194336,0.008004860952496529,-0.0030808520969003443,0.005056379362940788,-0.21665854752063754,0.5658105015754701,-0.8948716521263124,0.22153891027415493,4.643963144392451,0.13392841932298596,,,,,,
5,13,-0.7505720257759095,-0.04019816964864731,9.789419174194336,0.008004860952496529,-0.0030808520969003443,0.005056379362940788,-0.21665854752063754,0.5658105015754701,-0.8948716521263124,0.22153891027415493,4.643963144392451,0.13392841932298596,,,,,,
5,14,-0.7649802565574647,-0.02575980313122273,9.780140876770021,0.008851305581629278,-0.00246537639759481,0.004994112998247147,-0.21751874685287476,0.563334584236145,-0.892397403717041,0.22374012883075994,4.642210808107137,0.13578071372799785,,,,,,
5,15,-0.7527645230293275,-0.02355765923857689,9.773296356201172,0.009825429879128935,-0.0035148761235177517,0.0004518653149716556,-0.21693466603755954,0.563737154006958,-0.8878456354141235,0.22686603375433717,4.637835024434061,0.1341068636355504,,,,,,
5,16,-0.7527645230293275,-0.02355765923857689,9.773296356201172,0.009825429879128935,-0.0035148761235177517,0.0004518653149716556,-0.21693466603755954,0.563737154006958,-0.8878456354141235,0.22686603375433717,4.637835024434061,0.1341068636355504,,,,,,
5,17,-0.8705109357833862,-0.08262673020362854,9.761026382446289,0.004063168540596962,-0.002344357781112194,0.0044360882602632054,-0.2156384289264679,0.5667239427566528,-0.8918257355690004,0.22830230497866927,4.635112198836438,0.13589780716762204,,,,,,
5,18,-0.7785137891769409,-0.08178564161062242,9.778741836547852,0.010013207793235779,-0.00244721700437367,0.0025860811583697796,-0.21807342767715454,0.5648379325866699,-0.8943817019462587,0.23096839859762022,4.6333907953750355,0.13633776411753107,,,,,,
5,19,-0.7785137891769409,-0.08178564161062242,9.778741836547852,0.010013207793235779,-0.00244721700437367,0.0025860811583697796,-0.21807342767715454,0.5648379325866699,-0.8943817019462587,0.23096839859762022,4.6333907953750355,0.13633776411753107,,,,,,
5,20,-0.7890277504920961,-0.002412120578810573,9.794074058532717,0.013721363618969917,-0.00011512226046761499,0.0037729553878307343,-0.21887192130088806,0.56231689453125,-0.8893834352493286,0.2378017244017344,4.631646665345962,0.13743246976657017,,,,,,
5,21,-0.8304286599159242,-0.05378455296158791,9.771861076354982,0.008410626091063024,-0.004877083003520966,-0.0005390508449636401,-0.21463112533092502,0.5662010908126831,-0.8903267979621888,0.24252650630738368,4.6276582464453915,0.13629109986963386,,,,,,
6,0,-0.7753235101699829,-0.05859982967376709,9.766324996948242,0.009786692447960378,0.0018332430627197027,0.0031851716339588165,-0.21596437692642212,0.5632414221763612,-0.8878611326217651,0.1960956592134148,4.65859886928919,0.1270653519427623,,,,,,
6,1,-0.7753235101699829,-0.05859982967376709,9.766324996948242,0.009786692447960378,0.0018332430627197027,0.0031851716339588165,-0.21596437692642212,0.5632414221763612,-0.8878611326217651,0.1960956592134148,4.65859886928919,0.1270653519427623,,,,,,
6,2,-0.7753235101699829,-0.05859982967376709,9.766324996948242,0.009786692447960378,0.0018332430627197027,0.0031851716339588165,-0.21596437692642212,0.5632414221763612,-0.8878611326217651,0.1960956592134148,4.65859886928919,0.1270653519427623,,,,,,
6,3,-0.7753235101699829,-0.05859982967376709,9.766324996948242,0.009786692447960378,0.0018332430627197027,0.0031851716339588165,-0.21596437692642212,0.5632414221763612,-0.8878611326217651,0.1960956592134148,4.65859886928919,0.1270653519427623,,,,,,
6,4,-0.7753235101699829,-0.05859982967376709,9.766324996948242,0.009786692447960378,0.0018332430627197027,0.0031851716339588165,-0.21596437692642212,0.5632414221763612,-0.8878611326217651,0.1960956592134148,4.65859886928919,0.1270653519427623,,,,,,
6,5,-0.8319666385650635,-0.0537542924284935,9.781357765197756,0.008768592029809952,0.0009696961496956648,0.0017482663970440626,-0.21505953371524814,0.5637572407722474,-0.8898741006851196,0.19833434509389103,4.658790589525142,0.12713420572908501,,,,,,
6,6,-0.7624657154083252,-0.032555580139160156,9.774637222290039,0.010176392272114754,-0.004326184745877982,0.0032994202338159084,-0.2151947766542435,0.5653017163276673,-0.8943846821784974,0.2050855722484405,4.655387996878984,0.12898148724691808,,,,,,
6,7,-0.7624657154083252,-0.032555580139160156,9.774637222290039,0.010176392272114754,-0.004326184745877982,0.0032994202338159084,-0.2151947766542435,0.5653017163276673,-0.8943846821784974,0.2050855722484405,4.655387996878984,0.12898148724691808,,,,,,
6,8,-0.7920506596565248,-0.033656846731901176,9.790097236633303,0.00969209335744381,-0.003463035682216287,0.0035375177394598727,-0.21657690405845642,0.5638233423233032,-0.8928959369659424,0.20788864557855602,4.653063958964304,0.13005504594113756,,,,,,
6,9,-0.7873581051826478,-0.07828039675951005,9.784252166748047,0.01093296427279711,-0.002754915039986372,0.005267942789942027,-0.2141215205192566,0.5652124881744385,-0.8898460865020752,0.21691924819416228,4.64768055067607,0.13076828547632657,,,,,,
6,10,-0.7873581051826478,-0.07828039675951005,9.784252166748047,0.01093296427279711,-0.002754915039986372,0.005267942789942027,-0.2141215205192566,0.5652124881744385,-0.8898460865020752,0.21691924819416228,4.64768055067607,0.13076828547632657,,,,,,
6,11,-0.7873581051826478,-0.07828039675951005,9.784252166748047,0.01093296427279711,-0.002754915039986372,0.005267942789942027,-0.2141215205192566,0.5652124881744385,-0.8898460865020752,0.21691924819416228,4.64768055067607,0.13076828547632657,,,,,,
6,12,-0.7505720257759095,-0.04019816964864731,9.789419174194336,0.008004860952496529,-0.0030808520969003443,0.005056379362940788,-0.21665854752063754,0.5658105015754701,-0.8948716521263124,0.22153891027415493,4.643963144392451,0.13392841932298596,,,,,,
6,13,-0.7505720257759095,-0.04019816964864731,9.789419174194336,0.008004860952496529,-0.0030808520969003443,0.005056379362940788,-0.21665854752063754,0.5658105015754701,-0.8948716521263124,0.22153891027415493,4.643963144392451,0.13392841932298596,,,,,,
6,14,-0.7649802565574647,-0.02575980313122273,9.780140876770021,0.008851305581629278,-0.00246537639759481,0.004994112998247147,-0.21751874685287476,0.563334584236145,-0.892397403717041,0.22374012883075994,4.642210808107137,0.13578071372799785,,,,,,
6,15,-0.7527645230293275,-0.02355765923857689,9.773296356201172,0.009825429879128935,-0.0035148761235177517,0.0004518653149716556,-0.21693466603755954,0.563737154006958,-0.8878456354141235,0.22686603375433717,4.637835024434061,0.1341068636355504,,,,,,
6,16,-0.7527645230293275,-0.02355765923857689,9.773296356201172,0.009825429879128935,-0.0035148761235177517,0.0004518653149716556,-0.21693466603755954,0.563737154006958,-0.8878456354141235,0.22686603375433717,4.637835024434061,0.1341068636355504,,,,,,
6,17,-0.8705109357833862,-0.08262673020362854,9.761026382446289,0.004063168540596962,-0.002344357781112194,0.0044360882602632054,-0.2156384289264679,0.5667239427566528,-0.8918257355690004,0.22830230497866927,4.635112198836438,0.13589780716762204,,,,,,
6,18,-0.7785137891769409,-0.08178564161062242,9.778741836547852,0.010013207793235779,-0.00244721700437367,0.0025860811583697796,-0.21807342767715454,0.5648379325866699,-0.8943817019462587,0.23096839859762022,4.6333907953750355,0.13633776411753107,,,,,,
6,19,-0.7785137891769409,-0.08178564161062242,9.778741836547852,0.010013207793235779,-0.00244721700437367,0.0025860811583697796,-0.21807342767715454,0.5648379325866699,-0.8943817019462587,0.23096839859762022,4.6333907953750355,0.13633776411753107,,,,,,
6,20,-0.7890277504920961,-0.002412120578810573,9.794074058532717,0.013721363618969917,-0.00011512226046761499,0.0037729553878307343,-0.21887192130088806,0.56231689453125,-0.8893834352493286,0.2378017244017344,4.631646665345962,0.13743246976657017,,,,,,
6,21,-0.8304286599159242,-0.05378455296158791,9.771861076354982,0.008410626091063024,-0.004877083003520966,-0.0005390508449636401,-0.21463112533092502,0.5662010908126831,-0.8903267979621888,0.24252650630738368,4.6276582464453915,0.13629109986963386,,,,,,
7,0,-0.7753235101699829,-0.05859982967376709,9.766324996948242,0.009786692447960378,0.0018332430627197027,0.0031851716339588165,-0.21596437692642212,0.5632414221763612,-0.8878611326217651,0.1960956592134148,4.65859886928919,0.1270653519427623,,,,,,
7,1,-0.7753235101699829,-0.05859982967376709,9.766324996948242,0.009786692447960378,0.0018332430627197027,0.0031851716339588165,-0.21596437692642212,0.5632414221763612,-0.8878611326217651,0.1960956592134148,4.65859886928919,0.1270653519427623,,,,,,
7,2,-0.7753235101699829,-0.05859982967376709,9.766324996948242,0.009786692447960378,0.0018332430627197027,0.0031851716339588165,-0.21596437692642212,0.5632414221763612,-0.8878611326217651,0.1960956592134148,4.65859886928919,0.1270653519427623,,,,,,
7,3,-0.7753235101699829,-0.05859982967376709,9.766324996948242,0.009786692447960378,0.0018332430627197027,0.0031851716339588165,-0.21596437692642212,0.5632414221763612,-0.8878611326217651,0.1960956592134148,4.65859886928919,0.1270653519427623,,,,,,
7,4,-0.7753235101699829,-0.05859982967376709,9.766324996948242,0.009786692447960378,0.0018332430627197027,0.0031851716339588165,-0.21596437692642212,0.5632414221763612,-0.8878611326217651,0.1960956592134148,4.65859886928919,0.1270653519427623,,,,,,
7,5,-0.8319666385650635,-0.0537542924284935,9.781357765197756,0.008768592029809952,0.0009696961496956648,0.0017482663970440626,-0.21505953371524814,0.5637572407722474,-0.8898741006851196,0.19833434509389103,4.658790589525142,0.12713420572908501,,,,,,
7,6,-0.7624657154083252,-0.032555580139160156,9.774637222290039,0.010176392272114754,-0.004326184745877982,0.0032994202338159084,-0.2151947766542435,0.5653017163276673,-0.8943846821784974,0.2050855722484405,4.655387996878984,0.12898148724691808,,,,,,
7,7,-0.7624657154083252,-0.032555580139160156,9.774637222290039,0.010176392272114754,-0.004326184745877982,0.0032994202338159084,-0.2151947766542435,0.5653017163276673,-0.8943846821784974,0.2050855722484405,4.655387996878984,0.12898148724691808,,,,,,
7,8,-0.7920506596565248,-0.033656846731901176,9.790097236633303,0.00969209335744381,-0.003463035682216287,0.0035375177394598727,-0.21657690405845642,0.5638233423233032,-0.8928959369659424,0.20788864557855602,4.653063958964304,0.13005504594113756,,,,,,
7,9,-0.7873581051826478,-0.07828039675951005,9.784252166748047,0.01093296427279711,-0.002754915039986372,0.005267942789942027,-0.2141215205192566,0.5652124881744385,-0.8898460865020752,0.21691924819416228,4.64768055067607,0.13076828547632657,,,,,,
7,10,-0.7873581051826478,-0.07828039675951005,9.784252166748047,0.01093296427279711,-0.002754915039986372,0.005267942789942027,-0.2141215205192566,0.5652124881744385,-0.8898460865020752,0.21691924819416228,4.64768055067607,0.13076828547632657,,,,,,
7,11,-0.7873581051826478,-0.07828039675951005,9.784252166748047,0.01093296427279711,-0.002754915039986372,0.005267942789942027,-0.2141215205192566,0.5652124881744385,-0.8898460865020752,0.21691924819416228,4.64768055067607,0.13076828547632657,,,,,,
7,12,-0.7505720257759095,-0.04019816964864731,9.789419174194336,0.008004860952496529,-0.0030808520969003443,0.005056379362940788,-0.21665854752063754,0.5658105015754701,-0.8948716521263124,0.22153891027415493,4.643963144392451,0.13392841932298596,,,,,,
7,13,-0.7505720257759095,-0.04019816964864731,9.789419174194336,0.008004860952496529,-0.0030808520969003443,0.005056379362940788,-0.21665854752063754,0.5658105015754701,-0.8948716521263124,0.22153891027415493,4.643963144392451,0.13392841932298596,,,,,,
7,14,-0.7649802565574647,-0.02575980313122273,9.780140876770021,0.008851305581629278,-0.00246537639759481,0.004994112998247147,-0.21751874685287476,0.563334584236145,-0.892397403717041,0.22374012883075994,4.642210808107137,0.13578071372799785,,,,,,
7,15,-0.7527645230293275,-0.02355765923857689,9.773296356201172,0.009825429879128935,-0.0035148761235177517,0.0004518653149716556,-0.21693466603755954,0.563737154006958,-0.8878456354141235,0.22686603375433717,4.637835024434061,0.1341068636355504,,,,,,
7,16,-0.7527645230293275,-0.02355765923857689,9.773296356201172,0.009825429879128935,-0.0035148761235177517,0.0004518653149716556,-0.21693466603755954,0.563737154006958,-0.8878456354141235,0.22686603375433717,4.637835024434061,0.1341068636355504,,,,,,
7,17,-0.8705109357833862,-0.08262673020362854,9.761026382446289,0.004063168540596962,-0.002344357781112194,0.0044360882602632054,-0.2156384289264679,0.5667239427566528,-0.8918257355690004,0.22830230497866927,4.635112198836438,0.13589780716762204,,,,,,
7,18,-0.7785137891769409,-0.08178564161062242,9.778741836547852,0.010013207793235779,-0.00244721700437367,0.0025860811583697796,-0.21807342767715454,0.5648379325866699,-0.8943817019462587,0.23096839859762022,4.6333907953750355,0.13633776411753107,,,,,,
7,19,-0.7785137891769409,-0.08178564161062242,9.778741836547852,0.010013207793235779,-0.00244721700437367,0.0025860811583697796,-0.21807342767715454,0.5648379325866699,-0.8943817019462587,0.23096839859762022,4.6333907953750355,0.13633776411753107,,,,,,
7,20,-0.7890277504920961,-0.002412120578810573,9.794074058532717,0.013721363618969917,-0.00011512226046761499,0.0037729553878307343,-0.21887192130088806,0.56231689453125,-0.8893834352493286,0.2378017244017344,4.631646665345962,0.13743246976657017,,,,,,
7,21,-0.8304286599159242,-0.05378455296158791,9.771861076354982,0.008410626091063024,-0.004877083003520966,-0.0005390508449636401,-0.21463112533092502,0.5662010908126831,-0.8903267979621888,0.24252650630738368,4.6276582464453915,0.13629109986963386,,,,,,
8,0,-0.7753235101699829,-0.05859982967376709,9.766324996948242,0.009786692447960378,0.0018332430627197027,0.0031851716339588165,-0.21596437692642212,0.5632414221763612,-0.8878611326217651,0.1960956592134148,4.65859886928919,0.1270653519427623,,,,,,
8,1,-0.7753235101699829,-0.05859982967376709,9.766324996948242,0.009786692447960378,0.0018332430627197027,0.0031851716339588165,-0.21596437692642212,0.5632414221763612,-0.8878611326217651,0.1960956592134148,4.65859886928919,0.1270653519427623,,,,,,
8,2,-0.7753235101699829,-0.05859982967376709,9.766324996948242,0.009786692447960378,0.0018332430627197027,0.0031851716339588165,-0.21596437692642212,0.5632414221763612,-0.8878611326217651,0.1960956592134148,4.65859886928919,0.1270653519427623,,,,,,
8,3,-0.7753235101699829,-0.05859982967376709,9.766324996948242,0.009786692447960378,0.0018332430627197027,0.0031851716339588165,-0.21596437692642212,0.5632414221763612,-0.8878611326217651,0.1960956592134148,4.65859886928919,0.1270653519427623,,,,,,
8,4,-0.7753235101699829,-0.05859982967376709,9.766324996948242,0.009786692447960378,0.0018332430627197027,0.0031851716339588165,-0.21596437692642212,0.5632414221763612,-0.8878611326217651,0.1960956592134148,4.65859886928919,0.1270653519427623,,,,,,
8,5,-0.8319666385650635,-0.0537542924284935,9.781357765197756,0.008768592029809952,0.0009696961496956648,0.0017482663970440626,-0.21505953371524814,0.5637572407722474,-0.8898741006851196,0.19833434509389103,4.658790589525142,0.12713420572908501,,,,,,
8,6,-0.7624657154083252,-0.032555580139160156,9.774637222290039,0.010176392272114754,-0.004326184745877982,0.0032994202338159084,-0.2151947766542435,0.5653017163276673,-0.8943846821784974,0.2050855722484405,4.655387996878984,0.12898148724691808,,,,,,
8,7,-0.7624657154083252,-0.032555580139160156,9.774637222290039,0.010176392272114754,-0.004326184745877982,0.0032994202338159084,-0.2151947766542435,0.5653017163276673,-0.8943846821784974,0.2050855722484405,4.655387996878984,0.12898148724691808,,,,,,
8,8,-0.7920506596565248,-0.033656846731901176,9.790097236633303,0.00969209335744381,-0.003463035682216287,0.0035375177394598727,-0.21657690405845642,0.5638233423233032,-0.8928959369659424,0.20788864557855602,4.653063958964304,0.13005504594113756,,,,,,
8,9,-0.7873581051826478,-0.07828039675951005,9.784252166748047,0.01093296427279711,-0.002754915039986372,0.005267942789942027,-0.2141215205192566,0.5652124881744385,-0.8898460865020752,0.21691924819416228,4.64768055067607,0.13076828547632657,,,,,,
8,10,-0.7873581051826478,-0.07828039675951005,9.784252166748047,0.01093296427279711,-0.002754915039986372,0.005267942789942027,-0.2141215205192566,0.5652124881744385,-0.8898460865020752,0.21691924819416228,4.64768055067607,0.13076828547632657,,,,,,
8,11,-0.7873581051826478,-0.07828039675951005,9.784252166748047,0.01093296427279711,-0.002754915039986372,0.005267942789942027,-0.2141215205192566,0.5652124881744385,-0.8898460865020752,0.21691924819416228,4.64768055067607,0.13076828547632657,,,,,,
8,12,-0.7505720257759095,-0.04019816964864731,9.789419174194336,0.008004860952496529,-0.0030808520969003443,0.005056379362940788,-0.21665854752063754,0.5658105015754701,-0.8948716521263124,0.22153891027415493,4.643963144392451,0.13392841932298596,,,,,,
8,13,-0.7505720257759095,-0.04019816964864731,9.789419174194336,0.008004860952496529,-0.0030808520969003443,0.005056379362940788,-0.21665854752063754,0.5658105015754701,-0.8948716521263124,0.22153891027415493,4.643963144392451,0.13392841932298596,,,,,,
8,14,-0.7649802565574647,-0.02575980313122273,9.780140876770021,0.008851305581629278,-0.00246537639759481,0.004994112998247147,-0.21751874685287476,0.563334584236145,-0.892397403717041,0.22374012883075994,4.642210808107137,0.13578071372799785,,,,,,
8,15,-0.7527645230293275,-0.02355765923857689,9.773296356201172,0.009825429879128935,-0.0035148761235177517,0.0004518653149716556,-0.21693466603755954,0.563737154006958,-0.8878456354141235,0.22686603375433717,4.637835024434061,0.1341068636355504,,,,,,
8,16,-0.7527645230293275,-0.02355765923857689,9.773296356201172,0.009825429879128935,-0.0035148761235177517,0.0004518653149716556,-0.21693466603755954,0.563737154006958,-0.8878456354141235,0.22686603375433717,4.637835024434061,0.1341068636355504,,,,,,
8,17,-0.8705109357833862,-0.08262673020362854,9.761026382446289,0.004063168540596962,-0.002344357781112194,0.0044360882602632054,-0.2156384289264679,0.5667239427566528,-0.8918257355690004,0.22830230497866927,4.635112198836438,0.13589780716762204,,,,,,
8,18,-0.7785137891769409,-0.08178564161062242,9.778741836547852,0.010013207793235779,-0.00244721700437367,0.0025860811583697796,-0.21807342767715454,0.5648379325866699,-0.8943817019462587,0.23096839859762022,4.6333907953750355,0.13633776411753107,,,,,,
8,19,-0.7785137891769409,-0.08178564161062242,9.778741836547852,0.010013207793235779,-0.00244721700437367,0.0025860811583697796,-0.21807342767715454,0.5648379325866699,-0.8943817019462587,0.23096839859762022,4.6333907953750355,0.13633776411753107,,,,,,
8,20,-0.7890277504920961,-0.002412120578810573,9.794074058532717,0.013721363618969917,-0.00011512226046761499,0.0037729553878307343,-0.21887192130088806,0.56231689453125,-0.8893834352493286,0.2378017244017344,4.631646665345962,0.13743246976657017,,,,,,
8,21,-0.8304286599159242,-0.05378455296158791,9.771861076354982,0.008410626091063024,-0.004877083003520966,-0.0005390508449636401,-0.21463112533092502,0.5662010908126831,-0.8903267979621888,0.24252650630738368,4.6276582464453915,0.13629109986963386,,,,,,
9,0,-0.7753235101699829,-0.05859982967376709,9.766324996948242,0.009786692447960378,0.0018332430627197027,0.0031851716339588165,-0.21596437692642212,0.5632414221763612,-0.8878611326217651,0.1960956592134148,4.65859886928919,0.1270653519427623,,,,,,
9,1,-0.7753235101699829,-0.05859982967376709,9.766324996948242,0.009786692447960378,0.0018332430627197027,0.0031851716339588165,-0.21596437692642212,0.5632414221763612,-0.8878611326217651,0.1960956592134148,4.65859886928919,0.1270653519427623,,,,,,
9,2,-0.7753235101699829,-0.05859982967376709,9.766324996948242,0.009786692447960378,0.0018332430627197027,0.0031851716339588165,-0.21596437692642212,0.5632414221763612,-0.8878611326217651,0.1960956592134148,4.65859886928919,0.1270653519427623,,,,,,
9,3,-0.7753235101699829,-0.05859982967376709,9.766324996948242,0.009786692447960378,0.0018332430627197027,0.0031851716339588165,-0.21596437692642212,0.5632414221763612,-0.8878611326217651,0.1960956592134148,4.65859886928919,0.1270653519427623,,,,,,
9,4,-0.7753235101699829,-0.05859982967376709,9.766324996948242,0.009786692447960378,0.0018332430627197027,0.0031851716339588165,-0.21596437692642212,0.5632414221763612,-0.8878611326217651,0.1960956592134148,4.65859886928919,0.1270653519427623,,,,,,
9,5,-0.8319666385650635,-0.0537542924284935,9.781357765197756,0.008768592029809952,0.0009696961496956648,0.0017482663970440626,-0.21505953371524814,0.5637572407722474,-0.8898741006851196,0.19833434509389103,4.658790589525142,0.12713420572908501,,,,,,
9,6,-0.7624657154083252,-0.032555580139160156,9.774637222290039,0.010176392272114754,-0.004326184745877982,0.0032994202338159084,-0.2151947766542435,0.5653017163276673,-0.8943846821784974,0.2050855722484405,4.655387996878984,0.12898148724691808,,,,,,
9,7,-0.7624657154083252,-0.032555580139160156,9.774637222290039,0.010176392272114754,-0.004326184745877982,0.0032994202338159084,-0.2151947766542435,0.5653017163276673,-0.8943846821784974,0.2050855722484405,4.655387996878984,0.12898148724691808,,,,,,
9,8,-0.7920506596565248,-0.033656846731901176,9.790097236633303,0.00969209335744381,-0.003463035682216287,0.0035375177394598727,-0.21657690405845642,0.5638233423233032,-0.8928959369659424,0.20788864557855602,4.653063958964304,0.13005504594113756,,,,,,
9,9,-0.7873581051826478,-0.07828039675951005,9.784252166748047,0.01093296427279711,-0.002754915039986372,0.005267942789942027,-0.2141215205192566,0.5652124881744385,-0.8898460865020752,0.21691924819416228,4.64768055067607,0.13076828547632657,,,,,,
9,10,-0.7873581051826478,-0.07828039675951005,9.784252166748047,0.01093296427279711,-0.002754915039986372,0.005267942789942027,-0.2141215205192566,0.5652124881744385,-0.8898460865020752,0.21691924819416228,4.64768055067607,0.13076828547632657,,,,,,
9,11,-0.7873581051826478,-0.07828039675951005,9.784252166748047,0.01093296427279711,-0.002754915039986372,0.005267942789942027,-0.2141215205192566,0.5652124881744385,-0.8898460865020752,0.21691924819416228,4.64768055067607,0.13076828547632657,,,,,,
9,12,-0.7505720257759095,-0.04019816964864731,9.789419174194336,0.008004860952496529,-0.0030808520969003443,0.005056379362940788,-0.21665854752063754,0.5658105015754701,-0.8948716521263124,0.22153891027415493,4.643963144392451,0.13392841932298596,,,,,,
9,13,-0.7505720257759095,-0.04019816964864731,9.789419174194336,0.008004860952496529,-0.0030808520969003443,0.005056379362940788,-0.21665854752063754,0.5658105015754701,-0.8948716521263124,0.22153891027415493,4.643963144392451,0.13392841932298596,,,,,,
9,14,-0.7649802565574647,-0.02575980313122273,9.780140876770021,0.008851305581629278,-0.00246537639759481,0.004994112998247147,-0.21751874685287476,0.563334584236145,-0.892397403717041,0.22374012883075994,4.642210808107137,0.13578071372799785,,,,,,
9,15,-0.7527645230293275,-0.02355765923857689,9.773296356201172,0.009825429879128935,-0.0035148761235177517,0.0004518653149716556,-0.21693466603755954,0.563737154006958,-0.8878456354141235,0.22686603375433717,4.637835024434061,0.1341068636355504,,,,,,
9,16,-0.7527645230293275,-0.02355765923857689,9.773296356201172,0.009825429879128935,-0.0035148761235177517,0.0004518653149716556,-0.21693466603755954,0.563737154006958,-0.8878456354141235,0.22686603375433717,4.637835024434061,0.1341068636355504,,,,,,
9,17,-0.8705109357833862,-0.08262673020362854,9.761026382446289,0.004063168540596962,-0.002344357781112194,0.0044360882602632054,-0.2156384289264679,0.5667239427566528,-0.8918257355690004,0.22830230497866927,4.635112198836438,0.13589780716762204,,,,,,
9,18,-0.7785137891769409,-0.08178564161062242,9.778741836547852,0.010013207793235779,-0.00244721700437367,0.0025860811583697796,-0.21807342767715454,0.5648379325866699,-0.8943817019462587,0.23096839859762022,4.6333907953750355,0.13633776411753107,,,,,,
9,19,-0.7785137891769409,-0.08178564161062242,9.778741836547852,0.010013207793235779,-0.00244721700437367,0.0025860811583697796,-0.21807342767715454,0.5648379325866699,-0.8943817019462587,0.23096839859762022,4.6333907953750355,0.13633776411753107,,,,,,
9,20,-0.7890277504920961,-0.002412120578810573,9.794074058532717,0.013721363618969917,-0.00011512226046761499,0.0037729553878307343,-0.21887192130088806,0.56231689453125,-0.8893834352493286,0.2378017244017344,4.631646665345962,0.13743246976657017,,,,,,
9,21,-0.8304286599159242,-0.05378455296158791,9.771861076354982,0.008410626091063024,-0.004877083003520966,-0.0005390508449636401,-0.21463112533092502,0.5662010908126831,-0.8903267979621888,0.24252650630738368,4.6276582464453915,0.13629109986963386,,,,,,
10,0,-0.7753235101699829,-0.05859982967376709,9.766324996948242,0.009786692447960378,0.0018332430627197027,0.0031851716339588165,-0.21596437692642212,0.5632414221763612,-0.8878611326217651,0.1960956592134148,4.65859886928919,0.1270653519427623,,,,,,
10,1,-0.7753235101699829,-0.05859982967376709,9.766324996948242,0.009786692447960378,0.0018332430627197027,0.0031851716339588165,-0.21596437692642212,0.5632414221763612,-0.8878611326217651,0.1960956592134148,4.65859886928919,0.1270653519427623,,,,,,
10,2,-0.7753235101699829,-0.05859982967376709,9.766324996948242,0.009786692447960378,0.0018332430627197027,0.0031851716339588165,-0.21596437692642212,0.5632414221763612,-0.8878611326217651,0.1960956592134148,4.65859886928919,0.1270653519427623,,,,,,
10,3,-0.7753235101699829,-0.05859982967376709,9.766324996948242,0.009786692447960378,0.0018332430627197027,0.0031851716339588165,-0.21596437692642212,0.5632414221763612,-0.8878611326217651,0.1960956592134148,4.65859886928919,0.1270653519427623,,,,,,
10,4,-0.7753235101699829,-0.05859982967376709,9.766324996948242,0.009786692447960378,0.0018332430627197027,0.0031851716339588165,-0.21596437692642212,0.5632414221763612,-0.8878611326217651,0.1960956592134148,4.65859886928919,0.1270653519427623,,,,,,
10,5,-0.8319666385650635,-0.0537542924284935,9.781357765197756,0.008768592029809952,0.0009696961496956648,0.0017482663970440626,-0.21505953371524814,0.5637572407722474,-0.8898741006851196,0.19833434509389103,4.658790589525142,0.12713420572908501,,,,,,
10,6,-0.7624657154083252,-0.032555580139160156,9.774637222290039,0.010176392272114754,-0.004326184745877982,0.0032994202338159084,-0.2151947766542435,0.5653017163276673,-0.8943846821784974,0.2050855722484405,4.655387996878984,0.12898148724691808,,,,,,
10,7,-0.7624657154083252,-0.032555580139160156,9.774637222290039,0.010176392272114754,-0.004326184745877982,0.0032994202338159084,-0.2151947766542435,0.5653017163276673,-0.8943846821784974,0.2050855722484405,4.655387996878984,0.12898148724691808,,,,,,
10,8,-0.7920506596565248,-0.033656846731901176,9.790097236633303,0.00969209335744381,-0.003463035682216287,0.0035375177394598727,-0.21657690405845642,0.5638233423233032,-0.8928959369659424,0.20788864557855602,4.653063958964304,0.13005504594113756,,,,,,
10,9,-0.7873581051826478,-0.07828039675951005,9.784252166748047,0.01093296427279711,-0.002754915039986372,0.005267942789942027,-0.2141215205192566,0.5652124881744385,-0.8898460865020752,0.21691924819416228,4.64768055067607,0.13076828547632657,,,,,,
10,10,-0.7873581051826478,-0.07828039675951005,9.784252166748047,0.01093296427279711,-0.002754915039986372,0.005267942789942027,-0.2141215205192566,0.5652124881744385,-0.8898460865020752,0.21691924819416228,4.64768055067607,0.13076828547632657,,,,,,
10,11,-0.7873581051826478,-0.07828039675951005,9.784252166748047,0.01093296427279711,-0.002754915039986372,0.005267942789942027,-0.2141215205192566,0.5652124881744385,-0.8898460865020752,0.21691924819416228,4.64768055067607,0.13076828547632657,,,,,,
10,12,-0.7505720257759095,-0.04019816964864731,9.789419174194336,0.008004860952496529,-0.0030808520969003443,0.005056379362940788,-0.21665854752063754,0.5658105015754701,-0.8948716521263124,0.22153891027415493,4.643963144392451,0.13392841932298596,,,,,,
10,13,-0.7505720257759095,-0.04019816964864731,9.789419174194336,0.008004860952496529,-0.0030808520969003443,0.005056379362940788,-0.21665854752063754,0.5658105015754701,-0.8948716521263124,0.22153891027415493,4.643963144392451,0.13392841932298596,,,,,,
10,14,-0.7649802565574647,-0.02575980313122273,9.780140876770021,0.008851305581629278,-0.00246537639759481,0.004994112998247147,-0.21751874685287476,0.563334584236145,-0.892397403717041,0.22374012883075994,4.642210808107137,0.13578071372799785,,,,,,
10,15,-0.7527645230293275,-0.02355765923857689,9.773296356201172,0.009825429879128935,-0.0035148761235177517,0.0004518653149716556,-0.21693466603755954,0.563737154006958,-0.8878456354141235,0.22686603375433717,4.637835024434061,0.1341068636355504,,,,,,
10,16,-0.7527645230293275,-0.02355765923857689,9.773296356201172,0.009825429879128935,-0.0035148761235177517,0.0004518653149716556,-0.21693466603755954,0.563737154006958,-0.8878456354141235,0.22686603375433717,4.637835024434061,0.1341068636355504,,,,,,
10,17,-0.8705109357833862,-0.08262673020362854,9.761026382446289,0.004063168540596962,-0.002344357781112194,0.0044360882602632054,-0.2156384289264679,0.5667239427566528,-0.8918257355690004,0.22830230497866927,4.635112198836438,0.13589780716762204,,,,,,
10,18,-0.7785137891769409,-0.08178564161062242,9.778741836547852,0.010013207793235779,-0.00244721700437367,0.0025860811583697796,-0.21807342767715454,0.5648379325866699,-0.8943817019462587,0.23096839859762022,4.6333907953750355,0.13633776411753107,,,,,,
10,19,-0.7785137891769409,-0.08178564161062242,9.778741836547852,0.010013207793235779,-0.00244721700437367,0.0025860811583697796,-0.21807342767715454,0.5648379325866699,-0.8943817019462587,0.23096839859762022,4.6333907953750355,0.13633776411753107,,,,,,
10,20,-0.7890277504920961,-0.002412120578810573,9.794074058532717,0.013721363618969917,-0.00011512226046761499,0.0037729553878307343,-0.21887192130088806,0.56231689453125,-0.8893834352493286,0.2378017244017344,4.631646665345962,0.13743246976657017,,,,,,
10,21,-0.8304286599159242,-0.05378455296158791,9.771861076354982,0.008410626091063024,-0.004877083003520966,-0.0005390508449636401,-0.21463112533092502,0.5662010908126831,-0.8903267979621888,0.24252650630738368,4.6276582464453915,0.13629109986963386,,,,,,
11,0,-0.7753235101699829,-0.05859982967376709,9.766324996948242,0.009786692447960378,0.0018332430627197027,0.0031851716339588165,-0.21596437692642212,0.5632414221763612,-0.8878611326217651,0.1960956592134148,4.65859886928919,0.1270653519427623,,,,,,
11,1,-0.7753235101699829,-0.05859982967376709,9.766324996948242,0.009786692447960378,0.0018332430627197027,0.0031851716339588165,-0.21596437692642212,0.5632414221763612,-0.8878611326217651,0.1960956592134148,4.65859886928919,0.1270653519427623,,,,,,
11,2,-0.7753235101699829,-0.05859982967376709,9.766324996948242,0.009786692447960378,0.0018332430627197027,0.0031851716339588165,-0.21596437692642212,0.5632414221763612,-0.8878611326217651,0.1960956592134148,4.65859886928919,0.1270653519427623,,,,,,
11,3,-0.7753235101699829,-0.05859982967376709,9.766324996948242,0.009786692447960378,0.0018332430627197027,0.0031851716339588165,-0.21596437692642212,0.5632414221763612,-0.8878611326217651,0.1960956592134148,4.65859886928919,0.1270653519427623,,,,,,
11,4,-0.7753235101699829,-0.05859982967376709,9.766324996948242,0.009786692447960378,0.0018332430627197027,0.0031851716339588165,-0.21596437692642212,0.5632414221763612,-0.8878611326217651,0.1960956592134148,4.65859886928919,0.1270653519427623,,,,,,
11,5,-0.8319666385650635,-0.0537542924284935,9.781357765197756,0.008768592029809952,0.0009696961496956648,0.0017482663970440626,-0.21505953371524814,0.5637572407722474,-0.8898741006851196,0.19833434509389103,4.658790589525142,0.12713420572908501,,,,,,
11,6,-0.7624657154083252,-0.032555580139160156,9.774637222290039,0.010176392272114754,-0.004326184745877982,0.0032994202338159084,-0.2151947766542435,0.5653017163276673,-0.8943846821784974,0.2050855722484405,4.655387996878984,0.12898148724691808,,,,,,
11,7,-0.7624657154083252,-0.032555580139160156,9.774637222290039,0.010176392272114754,-0.004326184745877982,0.0032994202338159084,-0.2151947766542435,0.5653017163276673,-0.8943846821784974,0.2050855722484405,4.655387996878984,0.12898148724691808,,,,,,
11,8,-0.7920506596565248,-0.033656846731901176,9.790097236633303,0.00969209335744381,-0.003463035682216287,0.0035375177394598727,-0.21657690405845642,0.5638233423233032,-0.8928959369659424,0.20788864557855602,4.653063958964304,0.13005504594113756,,,,,,
11,9,-0.7873581051826478,-0.07828039675951005,9.784252166748047,0.01093296427279711,-0.002754915039986372,0.005267942789942027,-0.2141215205192566,0.5652124881744385,-0.8898460865020752,0.21691924819416228,4.64768055067607,0.13076828547632657,,,,,,
11,10,-0.7873581051826478,-0.07828039675951005,9.784252166748047,0.01093296427279711,-0.002754915039986372,0.005267942789942027,-0.2141215205192566,0.5652124881744385,-0.8898460865020752,0.21691924819416228,4.64768055067607,0.13076828547632657,,,,,,
11,11,-0.7873581051826478,-0.07828039675951005,9.784252166748047,0.01093296427279711,-0.002754915039986372,0.005267942789942027,-0.2141215205192566,0.5652124881744385,-0.8898460865020752,0.21691924819416228,4.64768055067607,0.13076828547632657,,,,,,
11,12,-0.7505720257759095,-0.04019816964864731,9.789419174194336,0.008004860952496529,-0.0030808520969003443,0.005056379362940788,-0.21665854752063754,0.5658105015754701,-0.8948716521263124,0.22153891027415493,4.643963144392451,0.13392841932298596,,,,,,
11,13,-0.7505720257759095,-0.04019816964864731,9.789419174194336,0.008004860952496529,-0.0030808520969003443,0.005056379362940788,-0.21665854752063754,0.5658105015754701,-0.8948716521263124,0.22153891027415493,4.643963144392451,0.13392841932298596,,,,,,
11,14,-0.7649802565574647,-0.02575980313122273,9.780140876770021,0.008851305581629278,-0.00246537639759481,0.004994112998247147,-0.21751874685287476,0.563334584236145,-0.892397403717041,0.22374012883075994,4.642210808107137,0.13578071372799785,,,,,,
11,15,-0.7527645230293275,-0.02355765923857689,9.773296356201172,0.009825429879128935,-0.0035148761235177517,0.0004518653149716556,-0.21693466603755954,0.563737154006958,-0.8878456354141235,0.22686603375433717,4.637835024434061,0.1341068636355504,,,,,,
11,16,-0.7527645230293275,-0.02355765923857689,9.773296356201172,0.009825429879128935,-0.0035148761235177517,0.0004518653149716556,-0.21693466603755954,0.563737154006958,-0.8878456354141235,0.22686603375433717,4.637835024434061,0.1341068636355504,,,,,,
11,17,-0.8705109357833862,-0.08262673020362854,9.761026382446289,0.004063168540596962,-0.002344357781112194,0.0044360882602632054,-0.2156384289264679,0.5667239427566528,-0.8918257355690004,0.22830230497866927,4.635112198836438,0.13589780716762204,,,,,,
11,18,-0.7785137891769409,-0.08178564161062242,9.778741836547852,0.010013207793235779,-0.00244721700437367,0.0025860811583697796,-0.21807342767715454,0.5648379325866699,-0.8943817019462587,0.23096839859762022,4.6333907953750355,0.13633776411753107,,,,,,
11,19,-0.7785137891769409,-0.08178564161062242,9.778741836547852,0.010013207793235779,-0.00244721700437367,0.0025860811583697796,-0.21807342767715454,0.5648379325866699,-0.8943817019462587,0.23096839859762022,4.6333907953750355,0.13633776411753107,,,,,,
11,20,-0.7890277504920961,-0.002412120578810573,9.794074058532717,0.013721363618969917,-0.00011512226046761499,0.0037729553878307343,-0.21887192130088806,0.56231689453125,-0.8893834352493286,0.2378017244017344,4.631646665345962,0.13743246976657017,,,,,,
11,21,-0.8304286599159242,-0.05378455296158791,9.771861076354982,0.008410626091063024,-0.004877083003520966,-0.0005390508449636401,-0.21463112533092502,0.5662010908126831,-0.8903267979621888,0.24252650630738368,4.6276582464453915,0.13629109986963386,,,,,,
12,0,-0.7753235101699829,-0.05859982967376709,9.766324996948242,0.009786692447960378,0.0018332430627197027,0.0031851716339588165,-0.21596437692642212,0.5632414221763612,-0.8878611326217651,0.1960956592134148,4.65859886928919,0.1270653519427623,,,,,,
12,1,-0.7753235101699829,-0.05859982967376709,9.766324996948242,0.009786692447960378,0.0018332430627197027,0.0031851716339588165,-0.21596437692642212,0.5632414221763612,-0.8878611326217651,0.1960956592134148,4.65859886928919,0.1270653519427623,,,,,,
12,2,-0.7753235101699829,-0.05859982967376709,9.766324996948242,0.009786692447960378,0.0018332430627197027,0.0031851716339588165,-0.21596437692642212,0.5632414221763612,-0.8878611326217651,0.1960956592134148,4.65859886928919,0.1270653519427623,,,,,,
12,3,-0.7753235101699829,-0.05859982967376709,9.766324996948242,0.009786692447960378,0.0018332430627197027,0.0031851716339588165,-0.21596437692642212,0.5632414221763612,-0.8878611326217651,0.1960956592134148,4.65859886928919,0.1270653519427623,,,,,,
12,4,-0.7753235101699829,-0.05859982967376709,9.766324996948242,0.009786692447960378,0.0018332430627197027,0.0031851716339588165,-0.21596437692642212,0.5632414221763612,-0.8878611326217651,0.1960956592134148,4.65859886928919,0.1270653519427623,,,,,,
12,5,-0.8319666385650635,-0.0537542924284935,9.781357765197756,0.008768592029809952,0.0009696961496956648,0.0017482663970440626,-0.21505953371524814,0.5637572407722474,-0.8898741006851196,0.19833434509389103,4.658790589525142,0.12713420572908501,,,,,,
12,6,-0.7624657154083252,-0.032555580139160156,9.774637222290039,0.010176392272114754,-0.004326184745877982,0.0032994202338159084,-0.2151947766542435,0.5653017163276673,-0.8943846821784974,0.2050855722484405,4.655387996878984,0.12898148724691808,,,,,,
12,7,-0.7624657154083252,-0.032555580139160156,9.774637222290039,0.010176392272114754,-0.004326184745877982,0.0032994202338159084,-0.2151947766542435,0.5653017163276673,-0.8943846821784974,0.2050855722484405,4.655387996878984,0.12898148724691808,,,,,,
12,8,-0.7920506596565248,-0.033656846731901176,9.790097236633303,0.00969209335744381,-0.003463035682216287,0.0035375177394598727,-0.21657690405845642,0.5638233423233032,-0.8928959369659424,0.20788864557855602,4.653063958964304,0.13005504594113756,,,,,,
12,9,-0.7873581051826478,-0.07828039675951005,9.784252166748047,0.01093296427279711,-0.002754915039986372,0.005267942789942027,-0.2141215205192566,0.5652124881744385,-0.8898460865020752,0.21691924819416228,4.64768055067607,0.13076828547632657,,,,,,
12,10,-0.7873581051826478,-0.07828039675951005,9.784252166748047,0.01093296427279711,-0.002754915039986372,0.005267942789942027,-0.2141215205192566,0.5652124881744385,-0.8898460865020752,0.21691924819416228,4.64768055067607,0.13076828547632657,,,,,,
12,11,-0.7873581051826478,-0.07828039675951005,9.784252166748047,0.01093296427279711,-0.002754915039986372,0.005267942789942027,-0.2141215205192566,0.5652124881744385,-0.8898460865020752,0.21691924819416228,4.64768055067607,0.13076828547632657,,,,,,
12,12,-0.7505720257759095,-0.04019816964864731,9.789419174194336,0.008004860952496529,-0.0030808520969003443,0.005056379362940788,-0.21665854752063754,0.5658105015754701,-0.8948716521263124,0.22153891027415493,4.643963144392451,0.13392841932298596,,,,,,
12,13,-0.7505720257759095,-0.04019816964864731,9.789419174194336,0.008004860952496529,-0.0030808520969003443,0.005056379362940788,-0.21665854752063754,0.5658105015754701,-0.8948716521263124,0.22153891027415493,4.643963144392451,0.13392841932298596,,,,,,
12,14,-0.7649802565574647,-0.02575980313122273,9.780140876770021,0.008851305581629278,-0.00246537639759481,0.004994112998247147,-0.21751874685287476,0.563334584236145,-0.892397403717041,0.22374012883075994,4.642210808107137,0.13578071372799785,,,,,,
12,15,-0.7527645230293275,-0.02355765923857689,9.773296356201172,0.009825429879128935,-0.0035148761235177517,0.0004518653149716556,-0.21693466603755954,0.563737154006958,-0.8878456354141235,0.22686603375433717,4.637835024434061,0.1341068636355504,,,,,,
12,16,-0.7527645230293275,-0.02355765923857689,9.773296356201172,0.009825429879128935,-0.0035148761235177517,0.0004518653149716556,-0.21693466603755954,0.563737154006958,-0.8878456354141235,0.22686603375433717,4.637835024434061,0.1341068636355504,,,,,,
12,17,-0.8705109357833862,-0.08262673020362854,9.761026382446289,0.004063168540596962,-0.002344357781112194,0.0044360882602632054,-0.2156384289264679,0.5667239427566528,-0.8918257355690004,0.22830230497866927,4.635112198836438,0.13589780716762204,,,,,,
12,18,-0.7785137891769409,-0.08178564161062242,9.778741836547852,0.010013207793235779,-0.00244721700437367,0.0025860811583697796,-0.21807342767715454,0.5648379325866699,-0.8943817019462587,0.23096839859762022,4.6333907953750355,0.13633776411753107,,,,,,
12,19,-0.7785137891769409,-0.08178564161062242,9.778741836547852,0.010013207793235779,-0.00244721700437367,0.0025860811583697796,-0.21807342767715454,0.5648379325866699,-0.8943817019462587,0.23096839859762022,4.6333907953750355,0.13633776411753107,,,,,,
12,20,-0.7890277504920961,-0.002412120578810573,9.794074058532717,0.013721363618969917,-0.00011512226046761499,0.0037729553878307343,-0.21887192130088806,0.56231689453125,-0.8893834352493286,0.2378017244017344,4.631646665345962,0.13743246976657017,,,,,,
12,21,-0.8304286599159242,-0.05378455296158791,9.771861076354982,0.008410626091063024,-0.004877083003520966,-0.0005390508449636401,-0.21463112533092502,0.5662010908126831,-0.8903267979621888,0.24252650630738368,4.6276582464453915,0.13629109986963386,,,,,,
13,0,-0.7753235101699829,-0.05859982967376709,9.766324996948242,0.009786692447960378,0.0018332430627197027,0.0031851716339588165,-0.21596437692642212,0.5632414221763612,-0.8878611326217651,0.1960956592134148,4.65859886928919,0.1270653519427623,,,,,,
13,1,-0.7753235101699829,-0.05859982967376709,9.766324996948242,0.009786692447960378,0.0018332430627197027,0.0031851716339588165,-0.21596437692642212,0.5632414221763612,-0.8878611326217651,0.1960956592134148,4.65859886928919,0.1270653519427623,,,,,,
13,2,-0.7753235101699829,-0.05859982967376709,9.766324996948242,0.009786692447960378,0.0018332430627197027,0.0031851716339588165,-0.21596437692642212,0.5632414221763612,-0.8878611326217651,0.1960956592134148,4.65859886928919,0.1270653519427623,,,,,,
13,3,-0.7753235101699829,-0.05859982967376709,9.766324996948242,0.009786692447960378,0.0018332430627197027,0.0031851716339588165,-0.21596437692642212,0.5632414221763612,-0.8878611326217651,0.1960956592134148,4.65859886928919,0.1270653519427623,,,,,,
13,4,-0.7753235101699829,-0.05859982967376709,9.766324996948242,0.009786692447960378,0.0018332430627197027,0.0031851716339588165,-0.21596437692642212,0.5632414221763612,-0.8878611326217651,0.1960956592134148,4.65859886928919,0.1270653519427623,,,,,,
13,5,-0.8319666385650635,-0.0537542924284935,9.781357765197756,0.008768592029809952,0.0009696961496956648,0.0017482663970440626,-0.21505953371524814,0.5637572407722474,-0.8898741006851196,0.19833434509389103,4.658790589525142,0.12713420572908501,,,,,,
13,6,-0.7624657154083252,-0.032555580139160156,9.774637222290039,0.010176392272114754,-0.004326184745877982,0.0032994202338159084,-0.2151947766542435,0.5653017163276673,-0.8943846821784974,0.2050855722484405,4.655387996878984,0.12898148724691808,,,,,,
13,7,-0.7624657154083252,-0.032555580139160156,9.774637222290039,0.010176392272114754,-0.004326184745877982,0.0032994202338159084,-0.2151947766542435,0.5653017163276673,-0.8943846821784974,0.2050855722484405,4.655387996878984,0.12898148724691808,,,,,,
13,8,-0.7920506596565248,-0.033656846731901176,9.790097236633303,0.00969209335744381,-0.003463035682216287,0.0035375177394598727,-0.21657690405845642,0.5638233423233032,-0.8928959369659424,0.20788864557855602,4.653063958964304,0.13005504594113756,,,,,,
13,9,-0.7873581051826478,-0.07828039675951005,9.784252166748047,0.01093296427279711,-0.002754915039986372,0.005267942789942027,-0.2141215205192566,0.5652124881744385,-0.8898460865020752,0.21691924819416228,4.64768055067607,0.13076828547632657,,,,,,
13,10,-0.7873581051826478,-0.07828039675951005,9.784252166748047,0.01093296427279711,-0.002754915039986372,0.005267942789942027,-0.2141215205192566,0.5652124881744385,-0.8898460865020752,0.21691924819416228,4.64768055067607,0.13076828547632657,,,,,,
13,11,-0.7873581051826478,-0.07828039675951005,9.784252166748047,0.01093296427279711,-0.002754915039986372,0.005267942789942027,-0.2141215205192566,0.5652124881744385,-0.8898460865020752,0.21691924819416228,4.64768055067607,0.13076828547632657,,,,,,
13,12,-0.7505720257759095,-0.04019816964864731,9.789419174194336,0.008004860952496529,-0.0030808520969003443,0.005056379362940788,-0.21665854752063754,0.5658105015754701,-0.8948716521263124,0.22153891027415493,4.643963144392451,0.13392841932298596,,,,,,
13,13,-0.7505720257759095,-0.04019816964864731,9.789419174194336,0.008004860952496529,-0.0030808520969003443,0.005056379362940788,-0.21665854752063754,0.5658105015754701,-0.8948716521263124,0.22153891027415493,4.643963144392451,0.13392841932298596,,,,,,
13,14,-0.7649802565574647,-0.02575980313122273,9.780140876770021,0.008851305581629278,-0.00246537639759481,0.004994112998247147,-0.21751874685287476,0.563334584236145,-0.892397403717041,0.22374012883075994,4.642210808107137,0.13578071372799785,,,,,,
13,15,-0.7527645230293275,-0.02355765923857689,9.773296356201172,0.009825429879128935,-0.0035148761235177517,0.0004518653149716556,-0.21693466603755954,0.563737154006958,-0.8878456354141235,0.22686603375433717,4.637835024434061,0.1341068636355504,,,,,,
13,16,-0.7527645230293275,-0.02355765923857689,9.773296356201172,0.009825429879128935,-0.0035148761235177517,0.0004518653149716556,-0.21693466603755954,0.563737154006958,-0.8878456354141235,0.22686603375433717,4.637835024434061,0.1341068636355504,,,,,,
13,17,-0.8705109357833862,-0.08262673020362854,9.761026382446289,0.004063168540596962,-0.002344357781112194,0.0044360882602632054,-0.2156384289264679,0.5667239427566528,-0.8918257355690004,0.22830230497866927,4.635112198836438,0.13589780716762204,,,,,,
13,18,-0.7785137891769409,-0.08178564161062242,9.778741836547852,0.010013207793235779,-0.00244721700437367,0.0025860811583697796,-0.21807342767715454,0.5648379325866699,-0.8943817019462587,0.23096839859762022,4.6333907953750355,0.13633776411753107,,,,,,
13,19,-0.7785137891769409,-0.08178564161062242,9.778741836547852,0.010013207793235779,-0.00244721700437367,0.0025860811583697796,-0.21807342767715454,0.5648379325866699,-0.8943817019462587,0.23096839859762022,4.6333907953750355,0.13633776411753107,,,,,,
13,20,-0.7890277504920961,-0.002412120578810573,9.794074058532717,0.013721363618969917,-0.00011512226046761499,0.0037729553878307343,-0.21887192130088806,0.56231689453125,-0.8893834352493286,0.2378017244017344,4.631646665345962,0.13743246976657017,,,,,,
13,21,-0.8304286599159242,-0.05378455296158791,9.771861076354982,0.008410626091063024,-0.004877083003520966,-0.0005390508449636401,-0.21463112533092502,0.5662010908126831,-0.8903267979621888,0.24252650630738368,4.6276582464453915,0.13629109986963386,,,,,,
14,0,-0.7753235101699829,-0.05859982967376709,9.766324996948242,0.009786692447960378,0.0018332430627197027,0.0031851716339588165,-0.21596437692642212,0.5632414221763612,-0.8878611326217651,0.1960956592134148,4.65859886928919,0.1270653519427623,,,,,,
14,1,-0.7753235101699829,-0.05859982967376709,9.766324996948242,0.009786692447960378,0.0018332430627197027,0.0031851716339588165,-0.21596437692642212,0.5632414221763612,-0.8878611326217651,0.1960956592134148,4.65859886928919,0.1270653519427623,,,,,,
14,2,-0.7753235101699829,-0.05859982967376709,9.766324996948242,0.009786692447960378,0.0018332430627197027,0.0031851716339588165,-0.21596437692642212,0.5632414221763612,-0.8878611326217651,0.1960956592134148,4.65859886928919,0.1270653519427623,,,,,,
14,3,-0.7753235101699829,-0.05859982967376709,9.766324996948242,0.009786692447960378,0.0018332430627197027,0.0031851716339588165,-0.21596437692642212,0.5632414221763612,-0.8878611326217651,0.1960956592134148,4.65859886928919,0.1270653519427623,,,,,,
14,4,-0.7753235101699829,-0.05859982967376709,9.766324996948242,0.009786692447960378,0.0018332430627197027,0.0031851716339588165,-0.21596437692642212,0.5632414221763612,-0.8878611326217651,0.1960956592134148,4.65859886928919,0.1270653519427623,,,,,,
14,5,-0.8319666385650635,-0.0537542924284935,9.781357765197756,0.008768592029809952,0.0009696961496956648,0.0017482663970440626,-0.21505953371524814,0.5637572407722474,-0.8898741006851196,0.19833434509389103,4.658790589525142,0.12713420572908501,,,,,,
14,6,-0.7624657154083252,-0.032555580139160156,9.774637222290039,0.010176392272114754,-0.004326184745877982,0.0032994202338159084,-0.2151947766542435,0.5653017163276673,-0.8943846821784974,0.2050855722484405,4.655387996878984,0.12898148724691808,,,,,,
14,7,-0.7624657154083252,-0.032555580139160156,9.774637222290039,0.010176392272114754,-0.004326184745877982,0.0032994202338159084,-0.2151947766542435,0.5653017163276673,-0.8943846821784974,0.2050855722484405,4.655387996878984,0.12898148724691808,,,,,,
14,8,-0.7920506596565248,-0.033656846731901176,9.790097236633303,0.00969209335744381,-0.003463035682216287,0.0035375177394598727,-0.21657690405845642,0.5638233423233032,-0.8928959369659424,0.20788864557855602,4.653063958964304,0.13005504594113756,,,,,,
14,9,-0.7873581051826478,-0.07828039675951005,9.784252166748047,0.01093296427279711,-0.002754915039986372,0.005267942789942027,-0.2141215205192566,0.5652124881744385,-0.8898460865020752,0.21691924819416228,4.64768055067607,0.13076828547632657,,,,,,
14,10,-0.7873581051826478,-0.07828039675951005,9.784252166748047,0.01093296427279711,-0.002754915039986372,0.005267942789942027,-0.2141215205192566,0.5652124881744385,-0.8898460865020752,0.21691924819416228,4.64768055067607,0.13076828547632657,,,,,,
14,11,-0.7873581051826478,-0.07828039675951005,9.784252166748047,0.01093296427279711,-0.002754915039986372,0.005267942789942027,-0.2141215205192566,0.5652124881744385,-0.8898460865020752,0.21691924819416228,4.64768055067607,0.13076828547632657,,,,,,
14,12,-0.7505720257759095,-0.04019816964864731,9.789419174194336,0.008004860952496529,-0.0030808520969003443,0.005056379362940788,-0.21665854752063754,0.5658105015754701,-0.8948716521263124,0.22153891027415493,4.643963144392451,0.13392841932298596,,,,,,
14,13,-0.7505720257759095,-0.04019816964864731,9.789419174194336,0.008004860952496529,-0.0030808520969003443,0.005056379362940788,-0.21665854752063754,0.5658105015754701,-0.8948716521263124,0.22153891027415493,4.643963144392451,0.13392841932298596,,,,,,
14,14,-0.7649802565574647,-0.02575980313122273,9.780140876770021,0.008851305581629278,-0.00246537639759481,0.004994112998247147,-0.21751874685287476,0.563334584236145,-0.892397403717041,0.22374012883075994,4.642210808107137,0.13578071372799785,,,,,,
14,15,-0.7527645230293275,-0.02355765923857689,9.773296356201172,0.009825429879128935,-0.0035148761235177517,0.0004518653149716556,-0.21693466603755954,0.563737154006958,-0.8878456354141235,0.22686603375433717,4.637835024434061,0.1341068636355504,,,,,,
14,16,-0.7527645230293275,-0.02355765923857689,9.773296356201172,0.009825429879128935,-0.0035148761235177517,0.0004518653149716556,-0.21693466603755954,0.563737154006958,-0.8878456354141235,0.22686603375433717,4.637835024434061,0.1341068636355504,,,,,,
14,17,-0.8705109357833862,-0.08262673020362854,9.761026382446289,0.004063168540596962,-0.002344357781112194,0.0044360882602632054,-0.2156384289264679,0.5667239427566528,-0.8918257355690004,0.22830230497866927,4.635112198836438,0.13589780716762204,,,,,,
14,18,-0.7785137891769409,-0.08178564161062242,9.778741836547852,0.010013207793235779,-0.00244721700437367,0.0025860811583697796,-0.21807342767715454,0.5648379325866699,-0.8943817019462587,0.23096839859762022,4.6333907953750355,0.13633776411753107,,,,,,
14,19,-0.7785137891769409,-0.08178564161062242,9.778741836547852,0.010013207793235779,-0.00244721700437367,0.0025860811583697796,-0.21807342767715454,0.5648379325866699,-0.8943817019462587,0.23096839859762022,4.6333907953750355,0.13633776411753107,,,,,,
14,20,-0.7890277504920961,-0.002412120578810573,9.794074058532717,0.013721363618969917,-0.00011512226046761499,0.0037729553878307343,-0.21887192130088806,0.56231689453125,-0.8893834352493286,0.2378017244017344,4.631646665345962,0.13743246976657017,,,,,,
14,21,-0.8304286599159242,-0.05378455296158791,9.771861076354982,0.008410626091063024,-0.004877083003520966,-0.0005390508449636401,-0.21463112533092502,0.5662010908126831,-0.8903267979621888,0.24252650630738368,4.6276582464453915,0.13629109986963386,,,,,,
15,0,-0.7753235101699829,-0.05859982967376709,9.766324996948242,0.009786692447960378,0.0018332430627197027,0.0031851716339588165,-0.21596437692642212,0.5632414221763612,-0.8878611326217651,0.1960956592134148,4.65859886928919,0.1270653519427623,,,,,,
15,1,-0.7753235101699829,-0.05859982967376709,9.766324996948242,0.009786692447960378,0.0018332430627197027,0.0031851716339588165,-0.21596437692642212,0.5632414221763612,-0.8878611326217651,0.1960956592134148,4.65859886928919,0.1270653519427623,,,,,,
15,2,-0.7753235101699829,-0.05859982967376709,9.766324996948242,0.009786692447960378,0.0018332430627197027,0.0031851716339588165,-0.21596437692642212,0.5632414221763612,-0.8878611326217651,0.1960956592134148,4.65859886928919,0.1270653519427623,,,,,,
15,3,-0.7753235101699829,-0.05859982967376709,9.766324996948242,0.009786692447960378,0.0018332430627197027,0.0031851716339588165,-0.21596437692642212,0.5632414221763612,-0.8878611326217651,0.1960956592134148,4.65859886928919,0.1270653519427623,,,,,,
15,4,-0.7753235101699829,-0.05859982967376709,9.766324996948242,0.009786692447960378,0.0018332430627197027,0.0031851716339588165,-0.21596437692642212,0.5632414221763612,-0.8878611326217651,0.1960956592134148,4.65859886928919,0.1270653519427623,,,,,,
15,5,-0.8319666385650635,-0.0537542924284935,9.781357765197756,0.008768592029809952,0.0009696961496956648,0.0017482663970440626,-0.21505953371524814,0.5637572407722474,-0.8898741006851196,0.19833434509389103,4.658790589525142,0.12713420572908501,,,,,,
15,6,-0.7624657154083252,-0.032555580139160156,9.774637222290039,0.010176392272114754,-0.004326184745877982,0.0032994202338159084,-0.2151947766542435,0.5653017163276673,-0.8943846821784974,0.2050855722484405,4.655387996878984,0.12898148724691808,,,,,,
15,7,-0.7624657154083252,-0.032555580139160156,9.774637222290039,0.010176392272114754,-0.004326184745877982,0.0032994202338159084,-0.2151947766542435,0.5653017163276673,-0.8943846821784974,0.2050855722484405,4.655387996878984,0.12898148724691808,,,,,,
15,8,-0.7920506596565248,-0.033656846731901176,9.790097236633303,0.00969209335744381,-0.003463035682216287,0.0035375177394598727,-0.21657690405845642,0.5638233423233032,-0.8928959369659424,0.20788864557855602,4.653063958964304,0.13005504594113756,,,,,,
15,9,-0.7873581051826478,-0.07828039675951005,9.784252166748047,0.01093296427279711,-0.002754915039986372,0.005267942789942027,-0.2141215205192566,0.5652124881744385,-0.8898460865020752,0.21691924819416228,4.64768055067607,0.13076828547632657,,,,,,
15,10,-0.7873581051826478,-0.07828039675951005,9.784252166748047,0.01093296427279711,-0.002754915039986372,0.005267942789942027,-0.2141215205192566,0.5652124881744385,-0.8898460865020752,0.21691924819416228,4.64768055067607,0.13076828547632657,,,,,,
15,11,-0.7873581051826478,-0.07828039675951005,9.784252166748047,0.01093296427279711,-0.002754915039986372,0.005267942789942027,-0.2141215205192566,0.5652124881744385,-0.8898460865020752,0.21691924819416228,4.64768055067607,0.13076828547632657,,,,,,
15,12,-0.7505720257759095,-0.04019816964864731,9.789419174194336,0.008004860952496529,-0.0030808520969003443,0.005056379362940788,-0.21665854752063754,0.5658105015754701,-0.8948716521263124,0.22153891027415493,4.643963144392451,0.13392841932298596,,,,,,
15,13,-0.7505720257759095,-0.04019816964864731,9.789419174194336,0.008004860952496529,-0.0030808520969003443,0.005056379362940788,-0.21665854752063754,0.5658105015754701,-0.8948716521263124,0.22153891027415493,4.643963144392451,0.13392841932298596,,,,,,
15,14,-0.7649802565574647,-0.02575980313122273,9.780140876770021,0.008851305581629278,-0.00246537639759481,0.004994112998247147,-0.21751874685287476,0.563334584236145,-0.892397403717041,0.22374012883075994,4.642210808107137,0.13578071372799785,,,,,,
15,15,-0.7527645230293275,-0.02355765923857689,9.773296356201172,0.009825429879128935,-0.0035148761235177517,0.0004518653149716556,-0.21693466603755954,0.563737154006958,-0.8878456354141235,0.22686603375433717,4.637835024434061,0.1341068636355504,,,,,,
15,16,-0.7527645230293275,-0.02355765923857689,9.773296356201172,0.009825429879128935,-0.0035148761235177517,0.0004518653149716556,-0.21693466603755954,0.563737154006958,-0.8878456354141235,0.22686603375433717,4.637835024434061,0.1341068636355504,,,,,,
15,17,-0.8705109357833862,-0.08262673020362854,9.761026382446289,0.004063168540596962,-0.002344357781112194,0.0044360882602632054,-0.2156384289264679,0.5667239427566528,-0.8918257355690004,0.22830230497866927,4.635112198836438,0.13589780716762204,,,,,,
15,18,-0.7785137891769409,-0.08178564161062242,9.778741836547852,0.010013207793235779,-0.00244721700437367,0.0025860811583697796,-0.21807342767715454,0.5648379325866699,-0.8943817019462587,0.23096839859762022,4.6333907953750355,0.13633776411753107,,,,,,
15,19,-0.7785137891769409,-0.08178564161062242,9.778741836547852,0.010013207793235779,-0.00244721700437367,0.0025860811583697796,-0.21807342767715454,0.5648379325866699,-0.8943817019462587,0.23096839859762022,4.6333907953750355,0.13633776411753107,,,,,,
15,20,-0.7890277504920961,-0.002412120578810573,9.794074058532717,0.013721363618969917,-0.00011512226046761499,0.0037729553878307343,-0.21887192130088806,0.56231689453125,-0.8893834352493286,0.2378017244017344,4.631646665345962,0.13743246976657017,,,,,,
15,21,-0.8304286599159242,-0.05378455296158791,9.771861076354982,0.008410626091063024,-0.004877083003520966,-0.0005390508449636401,-0.21463112533092502,0.5662010908126831,-0.8903267979621888,0.24252650630738368,4.6276582464453915,0.13629109986963386,,,,,,
16,0,-0.7753235101699829,-0.05859982967376709,9.766324996948242,0.009786692447960378,0.0018332430627197027,0.0031851716339588165,-0.21596437692642212,0.5632414221763612,-0.8878611326217651,0.1960956592134148,4.65859886928919,0.1270653519427623,,,,,,
16,1,-0.7753235101699829,-0.05859982967376709,9.766324996948242,0.009786692447960378,0.0018332430627197027,0.0031851716339588165,-0.21596437692642212,0.5632414221763612,-0.8878611326217651,0.1960956592134148,4.65859886928919,0.1270653519427623,,,,,,
16,2,-0.7753235101699829,-0.05859982967376709,9.766324996948242,0.009786692447960378,0.0018332430627197027,0.0031851716339588165,-0.21596437692642212,0.5632414221763612,-0.8878611326217651,0.1960956592134148,4.65859886928919,0.1270653519427623,,,,,,
16,3,-0.7753235101699829,-0.05859982967376709,9.766324996948242,0.009786692447960378,0.0018332430627197027,0.0031851716339588165,-0.21596437692642212,0.5632414221763612,-0.8878611326217651,0.1960956592134148,4.65859886928919,0.1270653519427623,,,,,,
16,4,-0.7753235101699829,-0.05859982967376709,9.766324996948242,0.009786692447960378,0.0018332430627197027,0.0031851716339588165,-0.21596437692642212,0.5632414221763612,-0.8878611326217651,0.1960956592134148,4.65859886928919,0.1270653519427623,,,,,,
16,5,-0.8319666385650635,-0.0537542924284935,9.781357765197756,0.008768592029809952,0.0009696961496956648,0.0017482663970440626,-0.21505953371524814,0.5637572407722474,-0.8898741006851196,0.19833434509389103,4.658790589525142,0.12713420572908501,,,,,,
16,6,-0.7624657154083252,-0.032555580139160156,9.774637222290039,0.010176392272114754,-0.004326184745877982,0.0032994202338159084,-0.2151947766542435,0.5653017163276673,-0.8943846821784974,0.2050855722484405,4.655387996878984,0.12898148724691808,,,,,,
16,7,-0.7624657154083252,-0.032555580139160156,9.774637222290039,0.010176392272114754,-0.004326184745877982,0.0032994202338159084,-0.2151947766542435,0.5653017163276673,-0.8943846821784974,0.2050855722484405,4.655387996878984,0.12898148724691808,,,,,,
16,8,-0.7920506596565248,-0.033656846731901176,9.790097236633303,0.00969209335744381,-0.003463035682216287,0.0035375177394598727,-0.21657690405845642,0.5638233423233032,-0.8928959369659424,0.20788864557855602,4.653063958964304,0.13005504594113756,,,,,,
16,9,-0.7873581051826478,-0.07828039675951005,9.784252166748047,0.01093296427279711,-0.002754915039986372,0.005267942789942027,-0.2141215205192566,0.5652124881744385,-0.8898460865020752,0.21691924819416228,4.64768055067607,0.13076828547632657,,,,,,
16,10,-0.7873581051826478,-0.07828039675951005,9.784252166748047,0.01093296427279711,-0.002754915039986372,0.005267942789942027,-0.2141215205192566,0.5652124881744385,-0.8898460865020752,0.21691924819416228,4.64768055067607,0.13076828547632657,,,,,,
16,11,-0.7873581051826478,-0.07828039675951005,9.784252166748047,0.01093296427279711,-0.002754915039986372,0.005267942789942027,-0.2141215205192566,0.5652124881744385,-0.8898460865020752,0.21691924819416228,4.64768055067607,0.13076828547632657,,,,,,
16,12,-0.7505720257759095,-0.04019816964864731,9.789419174194336,0.008004860952496529,-0.0030808520969003443,0.005056379362940788,-0.21665854752063754,0.5658105015754701,-0.8948716521263124,0.22153891027415493,4.643963144392451,0.13392841932298596,,,,,,
16,13,-0.7505720257759095,-0.04019816964864731,9.789419174194336,0.008004860952496529,-0.0030808520969003443,0.005056379362940788,-0.21665854752063754,0.5658105015754701,-0.8948716521263124,0.22153891027415493,4.643963144392451,0.13392841932298596,,,,,,
16,14,-0.7649802565574647,-0.02575980313122273,9.780140876770021,0.008851305581629278,-0.00246537639759481,0.004994112998247147,-0.21751874685287476,0.563334584236145,-0.892397403717041,0.22374012883075994,4.642210808107137,0.13578071372799785,,,,,,
16,15,-0.7527645230293275,-0.02355765923857689,9.773296356201172,0.009825429879128935,-0.0035148761235177517,0.0004518653149716556,-0.21693466603755954,0.563737154006958,-0.8878456354141235,0.22686603375433717,4.637835024434061,0.1341068636355504,,,,,,
16,16,-0.7527645230293275,-0.02355765923857689,9.773296356201172,0.009825429879128935,-0.0035148761235177517,0.0004518653149716556,-0.21693466603755954,0.563737154006958,-0.8878456354141235,0.22686603375433717,4.637835024434061,0.1341068636355504,,,,,,
16,17,-0.8705109357833862,-0.08262673020362854,9.761026382446289,0.004063168540596962,-0.002344357781112194,0.0044360882602632054,-0.2156384289264679,0.5667239427566528,-0.8918257355690004,0.22830230497866927,4.635112198836438,0.13589780716762204,,,,,,
16,18,-0.7785137891769409,-0.08178564161062242,9.778741836547852,0.010013207793235779,-0.00244721700437367,0.0025860811583697796,-0.21807342767715454,0.5648379325866699,-0.8943817019462587,0.23096839859762022,4.6333907953750355,0.13633776411753107,,,,,,
16,19,-0.7785137891769409,-0.08178564161062242,9.778741836547852,0.010013207793235779,-0.00244721700437367,0.0025860811583697796,-0.21807342767715454,0.5648379325866699,-0.8943817019462587,0.23096839859762022,4.6333907953750355,0.13633776411753107,,,,,,
16,20,-0.7890277504920961,-0.002412120578810573,9.794074058532717,0.013721363618969917,-0.00011512226046761499,0.0037729553878307343,-0.21887192130088806,0.56231689453125,-0.8893834352493286,0.2378017244017344,4.631646665345962,0.13743246976657017,,,,,,
16,21,-0.8304286599159242,-0.05378455296158791,9.771861076354982,0.008410626091063024,-0.004877083003520966,-0.0005390508449636401,-0.21463112533092502,0.5662010908126831,-0.8903267979621888,0.24252650630738368,4.6276582464453915,0.13629109986963386,,,,,,
17,0,-0.7753235101699829,-0.05859982967376709,9.766324996948242,0.009786692447960378,0.0018332430627197027,0.0031851716339588165,-0.21596437692642212,0.5632414221763612,-0.8878611326217651,0.1960956592134148,4.65859886928919,0.1270653519427623,,,,,,
17,1,-0.7753235101699829,-0.05859982967376709,9.766324996948242,0.009786692447960378,0.0018332430627197027,0.0031851716339588165,-0.21596437692642212,0.5632414221763612,-0.8878611326217651,0.1960956592134148,4.65859886928919,0.1270653519427623,,,,,,
17,2,-0.7753235101699829,-0.05859982967376709,9.766324996948242,0.009786692447960378,0.0018332430627197027,0.0031851716339588165,-0.21596437692642212,0.5632414221763612,-0.8878611326217651,0.1960956592134148,4.65859886928919,0.1270653519427623,,,,,,
17,3,-0.7753235101699829,-0.05859982967376709,9.766324996948242,0.009786692447960378,0.0018332430627197027,0.0031851716339588165,-0.21596437692642212,0.5632414221763612,-0.8878611326217651,0.1960956592134148,4.65859886928919,0.1270653519427623,,,,,,
17,4,-0.7753235101699829,-0.05859982967376709,9.766324996948242,0.009786692447960378,0.0018332430627197027,0.0031851716339588165,-0.21596437692642212,0.5632414221763612,-0.8878611326217651,0.1960956592134148,4.65859886928919,0.1270653519427623,,,,,,
17,5,-0.8319666385650635,-0.0537542924284935,9.781357765197756,0.008768592029809952,0.0009696961496956648,0.0017482663970440626,-0.21505953371524814,0.5637572407722474,-0.8898741006851196,0.19833434509389103,4.658790589525142,0.12713420572908501,,,,,,
17,6,-0.7624657154083252,-0.032555580139160156,9.774637222290039,0.010176392272114754,-0.004326184745877982,0.0032994202338159084,-0.2151947766542435,0.5653017163276673,-0.8943846821784974,0.2050855722484405,4.655387996878984,0.12898148724691808,,,,,,
17,7,-0.7624657154083252,-0.032555580139160156,9.774637222290039,0.010176392272114754,-0.004326184745877982,0.0032994202338159084,-0.2151947766542435,0.5653017163276673,-0.8943846821784974,0.2050855722484405,4.655387996878984,0.12898148724691808,,,,,,
17,8,-0.7920506596565248,-0.033656846731901176,9.790097236633303,0.00969209335744381,-0.003463035682216287,0.0035375177394598727,-0.21657690405845642,0.5638233423233032,-0.8928959369659424,0.20788864557855602,4.653063958964304,0.13005504594113756,,,,,,
17,9,-0.7873581051826478,-0.07828039675951005,9.784252166748047,0.01093296427279711,-0.002754915039986372,0.005267942789942027,-0.2141215205192566,0.5652124881744385,-0.8898460865020752,0.21691924819416228,4.64768055067607,0.13076828547632657,,,,,,
17,10,-0.7873581051826478,-0.07828039675951005,9.784252166748047,0.01093296427279711,-0.002754915039986372,0.005267942789942027,-0.2141215205192566,0.5652124881744385,-0.8898460865020752,0.21691924819416228,4.64768055067607,0.13076828547632657,,,,,,
17,11,-0.7873581051826478,-0.07828039675951005,9.784252166748047,0.01093296427279711,-0.002754915039986372,0.005267942789942027,-0.2141215205192566,0.5652124881744385,-0.8898460865020752,0.21691924819416228,4.64768055067607,0.13076828547632657,,,,,,
17,12,-0.7505720257759095,-0.04019816964864731,9.789419174194336,0.008004860952496529,-0.0030808520969003443,0.005056379362940788,-0.21665854752063754,0.5658105015754701,-0.8948716521263124,0.22153891027415493,4.643963144392451,0.13392841932298596,,,,,,
17,13,-0.7505720257759095,-0.04019816964864731,9.789419174194336,0.008004860952496529,-0.0030808520969003443,0.005056379362940788,-0.21665854752063754,0.5658105015754701,-0.8948716521263124,0.22153891027415493,4.643963144392451,0.13392841932298596,,,,,,
17,14,-0.7649802565574647,-0.02575980313122273,9.780140876770021,0.008851305581629278,-0.00246537639759481,0.004994112998247147,-0.21751874685287476,0.563334584236145,-0.892397403717041,0.22374012883075994,4.642210808107137,0.13578071372799785,,,,,,
17,15,-0.7527645230293275,-0.02355765923857689,9.773296356201172,0.009825429879128935,-0.0035148761235177517,0.0004518653149716556,-0.21693466603755954,0.563737154006958,-0.8878456354141235,0.22686603375433717,4.637835024434061,0.1341068636355504,,,,,,
17,16,-0.7527645230293275,-0.02355765923857689,9.773296356201172,0.009825429879128935,-0.0035148761235177517,0.0004518653149716556,-0.21693466603755954,0.563737154006958,-0.8878456354141235,0.22686603375433717,4.637835024434061,0.1341068636355504,,,,,,
17,17,-0.8705109357833862,-0.08262673020362854,9.761026382446289,0.004063168540596962,-0.002344357781112194,0.0044360882602632054,-0.2156384289264679,0.5667239427566528,-0.8918257355690004,0.22830230497866927,4.635112198836438,0.13589780716762204,,,,,,
17,18,-0.7785137891769409,-0.08178564161062242,9.778741836547852,0.010013207793235779,-0.00244721700437367,0.0025860811583697796,-0.21807342767715454,0.5648379325866699,-0.8943817019462587,0.23096839859762022,4.6333907953750355,0.13633776411753107,,,,,,
17,19,-0.7785137891769409,-0.08178564161062242,9.778741836547852,0.010013207793235779,-0.00244721700437367,0.0025860811583697796,-0.21807342767715454,0.5648379325866699,-0.8943817019462587,0.23096839859762022,4.6333907953750355,0.13633776411753107,,,,,,
17,20,-0.7890277504920961,-0.002412120578810573,9.794074058532717,0.013721363618969917,-0.00011512226046761499,0.0037729553878307343,-0.21887192130088806,0.56231689453125,-0.8893834352493286,0.2378017244017344,4.631646665345962,0.13743246976657017,,,,,,
17,21,-0.8304286599159242,-0.05378455296158791,9.771861076354982,0.008410626091063024,-0.004877083003520966,-0.0005390508449636401,-0.21463112533092502,0.5662010908126831,-0.8903267979621888,0.24252650630738368,4.6276582464453915,0.13629109986963386,,,,,,
18,0,-0.7753235101699829,-0.05859982967376709,9.766324996948242,0.009786692447960378,0.0018332430627197027,0.0031851716339588165,-0.21596437692642212,0.5632414221763612,-0.8878611326217651,0.1960956592134148,4.65859886928919,0.1270653519427623,,,,,,
18,1,-0.7753235101699829,-0.05859982967376709,9.766324996948242,0.009786692447960378,0.0018332430627197027,0.0031851716339588165,-0.21596437692642212,0.5632414221763612,-0.8878611326217651,0.1960956592134148,4.65859886928919,0.1270653519427623,,,,,,
18,2,-0.7753235101699829,-0.05859982967376709,9.766324996948242,0.009786692447960378,0.0018332430627197027,0.0031851716339588165,-0.21596437692642212,0.5632414221763612,-0.8878611326217651,0.1960956592134148,4.65859886928919,0.1270653519427623,,,,,,
18,3,-0.7753235101699829,-0.05859982967376709,9.766324996948242,0.009786692447960378,0.0018332430627197027,0.0031851716339588165,-0.21596437692642212,0.5632414221763612,-0.8878611326217651,0.1960956592134148,4.65859886928919,0.1270653519427623,,,,,,
18,4,-0.7753235101699829,-0.05859982967376709,9.766324996948242,0.009786692447960378,0.0018332430627197027,0.0031851716339588165,-0.21596437692642212,0.5632414221763612,-0.8878611326217651,0.1960956592134148,4.65859886928919,0.1270653519427623,,,,,,
18,5,-0.8319666385650635,-0.0537542924284935,9.781357765197756,0.008768592029809952,0.0009696961496956648,0.0017482663970440626,-0.21505953371524814,0.5637572407722474,-0.8898741006851196,0.19833434509389103,4.658790589525142,0.12713420572908501,,,,,,
18,6,-0.7624657154083252,-0.032555580139160156,9.774637222290039,0.010176392272114754,-0.004326184745877982,0.0032994202338159084,-0.2151947766542435,0.5653017163276673,-0.8943846821784974,0.2050855722484405,4.655387996878984,0.12898148724691808,,,,,,
18,7,-0.7624657154083252,-0.032555580139160156,9.774637222290039,0.010176392272114754,-0.004326184745877982,0.0032994202338159084,-0.2151947766542435,0.5653017163276673,-0.8943846821784974,0.2050855722484405,4.655387996878984,0.12898148724691808,,,,,,
18,8,-0.7920506596565248,-0.033656846731901176,9.790097236633303,0.00969209335744381,-0.003463035682216287,0.0035375177394598727,-0.21657690405845642,0.5638233423233032,-0.8928959369659424,0.20788864557855602,4.653063958964304,0.13005504594113756,,,,,,
18,9,-0.7873581051826478,-0.07828039675951005,9.784252166748047,0.01093296427279711,-0.002754915039986372,0.005267942789942027,-0.2141215205192566,0.5652124881744385,-0.8898460865020752,0.21691924819416228,4.64768055067607,0.13076828547632657,,,,,,
18,10,-0.7873581051826478,-0.07828039675951005,9.784252166748047,0.01093296427279711,-0.002754915039986372,0.005267942789942027,-0.2141215205192566,0.5652124881744385,-0.8898460865020752,0.21691924819416228,4.64768055067607,0.13076828547632657,,,,,,
18,11,-0.7873581051826478,-0.07828039675951005,9.784252166748047,0.01093296427279711,-0.002754915039986372,0.005267942789942027,-0.2141215205192566,0.5652124881744385,-0.8898460865020752,0.21691924819416228,4.64768055067607,0.13076828547632657,,,,,,
18,12,-0.7505720257759095,-0.04019816964864731,9.789419174194336,0.008004860952496529,-0.0030808520969003443,0.005056379362940788,-0.21665854752063754,0.5658105015754701,-0.8948716521263124,0.22153891027415493,4.643963144392451,0.13392841932298596,,,,,,
18,13,-0.7505720257759095,-0.04019816964864731,9.789419174194336,0.008004860952496529,-0.0030808520969003443,0.005056379362940788,-0.21665854752063754,0.5658105015754701,-0.8948716521263124,0.22153891027415493,4.643963144392451,0.13392841932298596,,,,,,
18,14,-0.7649802565574647,-0.02575980313122273,9.780140876770021,0.008851305581629278,-0.00246537639759481,0.004994112998247147,-0.21751874685287476,0.563334584236145,-0.892397403717041,0.22374012883075994,4.642210808107137,0.13578071372799785,,,,,,
18,15,-0.7527645230293275,-0.02355765923857689,9.773296356201172,0.009825429879128935,-0.0035148761235177517,0.0004518653149716556,-0.21693466603755954,0.563737154006958,-0.8878456354141235,0.22686603375433717,4.637835024434061,0.1341068636355504,,,,,,
18,16,-0.7527645230293275,-0.02355765923857689,9.773296356201172,0.009825429879128935,-0.0035148761235177517,0.0004518653149716556,-0.21693466603755954,0.563737154006958,-0.8878456354141235,0.22686603375433717,4.637835024434061,0.1341068636355504,,,,,,
18,17,-0.8705109357833862,-0.08262673020362854,9.761026382446289,0.004063168540596962,-0.002344357781112194,0.0044360882602632054,-0.2156384289264679,0.5667239427566528,-0.8918257355690004,0.22830230497866927,4.635112198836438,0.13589780716762204,,,,,,
18,18,-0.7785137891769409,-0.08178564161062242,9.778741836547852,0.010013207793235779,-0.00244721700437367,0.0025860811583697796,-0.21807342767715454,0.5648379325866699,-0.8943817019462587,0.23096839859762022,4.6333907953750355,0.13633776411753107,,,,,,
18,19,-0.7785137891769409,-0.08178564161062242,9.778741836547852,0.010013207793235779,-0.00244721700437367,0.0025860811583697796,-0.21807342767715454,0.5648379325866699,-0.8943817019462587,0.23096839859762022,4.6333907953750355,0.13633776411753107,,,,,,
18,20,-0.7890277504920961,-0.002412120578810573,9.794074058532717,0.013721363618969917,-0.00011512226046761499,0.0037729553878307343,-0.21887192130088806,0.56231689453125,-0.8893834352493286,0.2378017244017344,4.631646665345962,0.13743246976657017,,,,,,
18,21,-0.8304286599159242,-0.05378455296158791,9.771861076354982,0.008410626091063024,-0.004877083003520966,-0.0005390508449636401,-0.21463112533092502,0.5662010908126831,-0.8903267979621888,0.24252650630738368,4.6276582464453915,0.13629109986963386,,,,,,
19,0,-0.7753235101699829,-0.05859982967376709,9.766324996948242,0.009786692447960378,0.0018332430627197027,0.0031851716339588165,-0.21596437692642212,0.5632414221763612,-0.8878611326217651,0.1960956592134148,4.65859886928919,0.1270653519427623,,,,,,
19,1,-0.7753235101699829,-0.05859982967376709,9.766324996948242,0.009786692447960378,0.0018332430627197027,0.0031851716339588165,-0.21596437692642212,0.5632414221763612,-0.8878611326217651,0.1960956592134148,4.65859886928919,0.1270653519427623,,,,,,
19,2,-0.7753235101699829,-0.05859982967376709,9.766324996948242,0.009786692447960378,0.0018332430627197027,0.0031851716339588165,-0.21596437692642212,0.5632414221763612,-0.8878611326217651,0.1960956592134148,4.65859886928919,0.1270653519427623,,,,,,
19,3,-0.7753235101699829,-0.05859982967376709,9.766324996948242,0.009786692447960378,0.0018332430627197027,0.0031851716339588165,-0.21596437692642212,0.5632414221763612,-0.8878611326217651,0.1960956592134148,4.65859886928919,0.1270653519427623,,,,,,
19,4,-0.7753235101699829,-0.05859982967376709,9.766324996948242,0.009786692447960378,0.0018332430627197027,0.0031851716339588165,-0.21596437692642212,0.5632414221763612,-0.8878611326217651,0.1960956592134148,4.65859886928919,0.1270653519427623,,,,,,
19,5,-0.8319666385650635,-0.0537542924284935,9.781357765197756,0.008768592029809952,0.0009696961496956648,0.0017482663970440626,-0.21505953371524814,0.5637572407722474,-0.8898741006851196,0.19833434509389103,4.658790589525142,0.12713420572908501,,,,,,
19,6,-0.7624657154083252,-0.032555580139160156,9.774637222290039,0.010176392272114754,-0.004326184745877982,0.0032994202338159084,-0.2151947766542435,0.5653017163276673,-0.8943846821784974,0.2050855722484405,4.655387996878984,0.12898148724691808,,,,,,
19,7,-0.7624657154083252,-0.032555580139160156,9.774637222290039,0.010176392272114754,-0.004326184745877982,0.0032994202338159084,-0.2151947766542435,0.5653017163276673,-0.8943846821784974,0.2050855722484405,4.655387996878984,0.12898148724691808,,,,,,
19,8,-0.7920506596565248,-0.033656846731901176,9.790097236633303,0.00969209335744381,-0.003463035682216287,0.0035375177394598727,-0.21657690405845642,0.5638233423233032,-0.8928959369659424,0.20788864557855602,4.653063958964304,0.13005504594113756,,,,,,
19,9,-0.7873581051826478,-0.07828039675951005,9.784252166748047,0.01093296427279711,-0.002754915039986372,0.005267942789942027,-0.2141215205192566,0.5652124881744385,-0.8898460865020752,0.21691924819416228,4.64768055067607,0.13076828547632657,,,,,,
19,10,-0.7873581051826478,-0.07828039675951005,9.784252166748047,0.01093296427279711,-0.002754915039986372,0.005267942789942027,-0.2141215205192566,0.5652124881744385,-0.8898460865020752,0.21691924819416228,4.64768055067607,0.13076828547632657,,,,,,
19,11,-0.7873581051826478,-0.07828039675951005,9.784252166748047,0.01093296427279711,-0.002754915039986372,0.005267942789942027,-0.2141215205192566,0.5652124881744385,-0.8898460865020752,0.21691924819416228,4.64768055067607,0.13076828547632657,,,,,,
19,12,-0.7505720257759095,-0.04019816964864731,9.789419174194336,0.008004860952496529,-0.0030808520969003443,0.005056379362940788,-0.21665854752063754,0.5658105015754701,-0.8948716521263124,0.22153891027415493,4.643963144392451,0.13392841932298596,,,,,,
19,13,-0.7505720257759095,-0.04019816964864731,9.789419174194336,0.008004860952496529,-0.0030808520969003443,0.005056379362940788,-0.21665854752063754,0.5658105015754701,-0.8948716521263124,0.22153891027415493,4.643963144392451,0.13392841932298596,,,,,,
19,14,-0.7649802565574647,-0.02575980313122273,9.780140876770021,0.008851305581629278,-0.00246537639759481,0.004994112998247147,-0.21751874685287476,0.563334584236145,-0.892397403717041,0.22374012883075994,4.642210808107137,0.13578071372799785,,,,,,
19,15,-0.7527645230293275,-0.02355765923857689,9.773296356201172,0.009825429879128935,-0.0035148761235177517,0.0004518653149716556,-0.21693466603755954,0.563737154006958,-0.8878456354141235,0.22686603375433717,4.637835024434061,0.1341068636355504,,,,,,
19,16,-0.7527645230293275,-0.02355765923857689,9.773296356201172,0.009825429879128935,-0.0035148761235177517,0.0004518653149716556,-0.21693466603755954,0.563737154006958,-0.8878456354141235,0.22686603375433717,4.637835024434061,0.1341068636355504,,,,,,
19,17,-0.8705109357833862,-0.08262673020362854,9.761026382446289,0.004063168540596962,-0.002344357781112194,0.0044360882602632054,-0.2156384289264679,0.5667239427566528,-0.8918257355690004,0.22830230497866927,4.635112198836438,0.13589780716762204,,,,,,
19,18,-0.7785137891769409,-0.08178564161062242,9.778741836547852,0.010013207793235779,-0.00244721700437367,0.0025860811583697796,-0.21807342767715454,0.5648379325866699,-0.8943817019462587,0.23096839859762022,4.6333907953750355,0.13633776411753107,,,,,,
19,19,-0.7785137891769409,-0.08178564161062242,9.778741836547852,0.010013207793235779,-0.00244721700437367,0.0025860811583697796,-0.21807342767715454,0.5648379325866699,-0.8943817019462587,0.23096839859762022,4.6333907953750355,0.13633776411753107,,,,,,
19,20,-0.7890277504920961,-0.002412120578810573,9.794074058532717,0.013721363618969917,-0.00011512226046761499,0.0037729553878307343,-0.21887192130088806,0.56231689453125,-0.8893834352493286,0.2378017244017344,4.631646665345962,0.13743246976657017,,,,,,
19,21,-0.8304286599159242,-0.05378455296158791,9.771861076354982,0.008410626091063024,-0.004877083003520966,-0.0005390508449636401,-0.21463112533092502,0.5662010908126831,-0.8903267979621888,0.24252650630738368,4.6276582464453915,0.13629109986963386,,,,,,
20,0,-0.7753235101699829,-0.05859982967376709,9.766324996948242,0.009786692447960378,0.0018332430627197027,0.0031851716339588165,-0.21596437692642212,0.5632414221763612,-0.8878611326217651,0.1960956592134148,4.65859886928919,0.1270653519427623,,,,,,
20,1,-0.7753235101699829,-0.05859982967376709,9.766324996948242,0.009786692447960378,0.0018332430627197027,0.0031851716339588165,-0.21596437692642212,0.5632414221763612,-0.8878611326217651,0.1960956592134148,4.65859886928919,0.1270653519427623,,,,,,
20,2,-0.7753235101699829,-0.05859982967376709,9.766324996948242,0.009786692447960378,0.0018332430627197027,0.0031851716339588165,-0.21596437692642212,0.5632414221763612,-0.8878611326217651,0.1960956592134148,4.65859886928919,0.1270653519427623,,,,,,
20,3,-0.7753235101699829,-0.05859982967376709,9.766324996948242,0.009786692447960378,0.0018332430627197027,0.0031851716339588165,-0.21596437692642212,0.5632414221763612,-0.8878611326217651,0.1960956592134148,4.65859886928919,0.1270653519427623,,,,,,
20,4,-0.7753235101699829,-0.05859982967376709,9.766324996948242,0.009786692447960378,0.0018332430627197027,0.0031851716339588165,-0.21596437692642212,0.5632414221763612,-0.8878611326217651,0.1960956592134148,4.65859886928919,0.1270653519427623,,,,,,
20,5,-0.8319666385650635,-0.0537542924284935,9.781357765197756,0.008768592029809952,0.0009696961496956648,0.0017482663970440626,-0.21505953371524814,0.5637572407722474,-0.8898741006851196,0.19833434509389103,4.658790589525142,0.12713420572908501,,,,,,
20,6,-0.7624657154083252,-0.032555580139160156,9.774637222290039,0.010176392272114754,-0.004326184745877982,0.0032994202338159084,-0.2151947766542435,0.5653017163276673,-0.8943846821784974,0.2050855722484405,4.655387996878984,0.12898148724691808,,,,,,
20,7,-0.7624657154083252,-0.032555580139160156,9.774637222290039,0.010176392272114754,-0.004326184745877982,0.0032994202338159084,-0.2151947766542435,0.5653017163276673,-0.8943846821784974,0.2050855722484405,4.655387996878984,0.12898148724691808,,,,,,
20,8,-0.7920506596565248,-0.033656846731901176,9.790097236633303,0.00969209335744381,-0.003463035682216287,0.0035375177394598727,-0.21657690405845642,0.5638233423233032,-0.8928959369659424,0.20788864557855602,4.653063958964304,0.13005504594113756,,,,,,
20,9,-0.7873581051826478,-0.07828039675951005,9.784252166748047,0.01093296427279711,-0.002754915039986372,0.005267942789942027,-0.2141215205192566,0.5652124881744385,-0.8898460865020752,0.21691924819416228,4.64768055067607,0.13076828547632657,,,,,,
20,10,-0.7873581051826478,-0.07828039675951005,9.784252166748047,0.01093296427279711,-0.002754915039986372,0.005267942789942027,-0.2141215205192566,0.5652124881744385,-0.8898460865020752,0.21691924819416228,4.64768055067607,0.13076828547632657,,,,,,
20,11,-0.7873581051826478,-0.07828039675951005,9.784252166748047,0.01093296427279711,-0.002754915039986372,0.005267942789942027,-0.2141215205192566,0.5652124881744385,-0.8898460865020752,0.21691924819416228,4.64768055067607,0.13076828547632657,,,,,,
20,12,-0.7505720257759095,-0.04019816964864731,9.789419174194336,0.008004860952496529,-0.0030808520969003443,0.005056379362940788,-0.21665854752063754,0.5658105015754701,-0.8948716521263124,0.22153891027415493,4.643963144392451,0.13392841932298596,,,,,,
20,13,-0.7505720257759095,-0.04019816964864731,9.789419174194336,0.008004860952496529,-0.0030808520969003443,0.005056379362940788,-0.21665854752063754,0.5658105015754701,-0.8948716521263124,0.22153891027415493,4.643963144392451,0.13392841932298596,,,,,,
20,14,-0.7649802565574647,-0.02575980313122273,9.780140876770021,0.008851305581629278,-0.00246537639759481,0.004994112998247147,-0.21751874685287476,0.563334584236145,-0.892397403717041,0.22374012883075994,4.642210808107137,0.13578071372799785,,,,,,
20,15,-0.7527645230293275,-0.02355765923857689,9.773296356201172,0.009825429879128935,-0.0035148761235177517,0.0004518653149716556,-0.21693466603755954,0.563737154006958,-0.8878456354141235,0.22686603375433717,4.637835024434061,0.1341068636355504,,,,,,
20,16,-0.7527645230293275,-0.02355765923857689,9.773296356201172,0.009825429879128935,-0.0035148761235177517,0.0004518653149716556,-0.21693466603755954,0.563737154006958,-0.8878456354141235,0.22686603375433717,4.637835024434061,0.1341068636355504,,,,,,
20,17,-0.8705109357833862,-0.08262673020362854,9.761026382446289,0.004063168540596962,-0.002344357781112194,0.0044360882602632054,-0.2156384289264679,0.5667239427566528,-0.8918257355690004,0.22830230497866927,4.635112198836438,0.13589780716762204,,,,,,
20,18,-0.7785137891769409,-0.08178564161062242,9.778741836547852,0.010013207793235779,-0.00244721700437367,0.0025860811583697796,-0.21807342767715454,0.5648379325866699,-0.8943817019462587,0.23096839859762022,4.6333907953750355,0.13633776411753107,,,,,,
20,19,-0.7785137891769409,-0.08178564161062242,9.778741836547852,0.010013207793235779,-0.00244721700437367,0.0025860811583697796,-0.21807342767715454,0.5648379325866699,-0.8943817019462587,0.23096839859762022,4.6333907953750355,0.13633776411753107,,,,,,
20,20,-0.7890277504920961,-0.002412120578810573,9.794074058532717,0.013721363618969917,-0.00011512226046761499,0.0037729553878307343,-0.21887192130088806,0.56231689453125,-0.8893834352493286,0.2378017244017344,4.631646665345962,0.13743246976657017,,,,,,
20,21,-0.8304286599159242,-0.05378455296158791,9.771861076354982,0.008410626091063024,-0.004877083003520966,-0.0005390508449636401,-0.21463112533092502,0.5662010908126831,-0.8903267979621888,0.24252650630738368,4.6276582464453915,0.13629109986963386,,,,,,
21,0,-0.7753235101699829,-0.05859982967376709,9.766324996948242,0.009786692447960378,0.0018332430627197027,0.0031851716339588165,-0.21596437692642212,0.5632414221763612,-0.8878611326217651,0.1960956592134148,4.65859886928919,0.1270653519427623,,,,,,
21,1,-0.7753235101699829,-0.05859982967376709,9.766324996948242,0.009786692447960378,0.0018332430627197027,0.0031851716339588165,-0.21596437692642212,0.5632414221763612,-0.8878611326217651,0.1960956592134148,4.65859886928919,0.1270653519427623,,,,,,
21,2,-0.7753235101699829,-0.05859982967376709,9.766324996948242,0.009786692447960378,0.0018332430627197027,0.0031851716339588165,-0.21596437692642212,0.5632414221763612,-0.8878611326217651,0.1960956592134148,4.65859886928919,0.1270653519427623,,,,,,
21,3,-0.7753235101699829,-0.05859982967376709,9.766324996948242,0.009786692447960378,0.0018332430627197027,0.0031851716339588165,-0.21596437692642212,0.5632414221763612,-0.8878611326217651,0.1960956592134148,4.65859886928919,0.1270653519427623,,,,,,
21,4,-0.7753235101699829,-0.05859982967376709,9.766324996948242,0.009786692447960378,0.0018332430627197027,0.0031851716339588165,-0.21596437692642212,0.5632414221763612,-0.8878611326217651,0.1960956592134148,4.65859886928919,0.1270653519427623,,,,,,
21,5,-0.8319666385650635,-0.0537542924284935,9.781357765197756,0.008768592029809952,0.0009696961496956648,0.0017482663970440626,-0.21505953371524814,0.5637572407722474,-0.8898741006851196,0.19833434509389103,4.658790589525142,0.12713420572908501,,,,,,
21,6,-0.7624657154083252,-0.032555580139160156,9.774637222290039,0.010176392272114754,-0.004326184745877982,0.0032994202338159084,-0.2151947766542435,0.5653017163276673,-0.8943846821784974,0.2050855722484405,4.655387996878984,0.12898148724691808,,,,,,
21,7,-0.7624657154083252,-0.032555580139160156,9.774637222290039,0.010176392272114754,-0.004326184745877982,0.0032994202338159084,-0.2151947766542435,0.5653017163276673,-0.8943846821784974,0.2050855722484405,4.655387996878984,0.12898148724691808,,,,,,
21,8,-0.7920506596565248,-0.033656846731901176,9.790097236633303,0.00969209335744381,-0.003463035682216287,0.0035375177394598727,-0.21657690405845642,0.5638233423233032,-0.8928959369659424,0.20788864557855602,4.653063958964304,0.13005504594113756,,,,,,
21,9,-0.7873581051826478,-0.07828039675951005,9.784252166748047,0.01093296427279711,-0.002754915039986372,0.005267942789942027,-0.2141215205192566,0.5652124881744385,-0.8898460865020752,0.21691924819416228,4.64768055067607,0.13076828547632657,,,,,,
21,10,-0.7873581051826478,-0.07828039675951005,9.784252166748047,0.01093296427279711,-0.002754915039986372,0.005267942789942027,-0.2141215205192566,0.5652124881744385,-0.8898460865020752,0.21691924819416228,4.64768055067607,0.13076828547632657,,,,,,
21,11,-0.7873581051826478,-0.07828039675951005,9.784252166748047,0.01093296427279711,-0.002754915039986372,0.005267942789942027,-0.2141215205192566,0.5652124881744385,-0.8898460865020752,0.21691924819416228,4.64768055067607,0.13076828547632657,,,,,,
21,12,-0.7505720257759095,-0.04019816964864731,9.789419174194336,0.008004860952496529,-0.0030808520969003443,0.005056379362940788,-0.21665854752063754,0.5658105015754701,-0.8948716521263124,0.22153891027415493,4.643963144392451,0.13392841932298596,,,,,,
21,13,-0.7505720257759095,-0.04019816964864731,9.789419174194336,0.008004860952496529,-0.0030808520969003443,0.005056379362940788,-0.21665854752063754,0.5658105015754701,-0.8948716521263124,0.22153891027415493,4.643963144392451,0.13392841932298596,,,,,,
21,14,-0.7649802565574647,-0.02575980313122273,9.780140876770021,0.008851305581629278,-0.00246537639759481,0.004994112998247147,-0.21751874685287476,0.563334584236145,-0.892397403717041,0.22374012883075994,4.642210808107137,0.13578071372799785,,,,,,
21,15,-0.7527645230293275,-0.02355765923857689,9.773296356201172,0.009825429879128935,-0.0035148761235177517,0.0004518653149716556,-0.21693466603755954,0.563737154006958,-0.8878456354141235,0.22686603375433717,4.637835024434061,0.1341068636355504,,,,,,
21,16,-0.7527645230293275,-0.02355765923857689,9.773296356201172,0.009825429879128935,-0.0035148761235177517,0.0004518653149716556,-0.21693466603755954,0.563737154006958,-0.8878456354141235,0.22686603375433717,4.637835024434061,0.1341068636355504,,,,,,
21,17,-0.8705109357833862,-0.08262673020362854,9.761026382446289,0.004063168540596962,-0.002344357781112194,0.0044360882602632054,-0.2156384289264679,0.5667239427566528,-0.8918257355690004,0.22830230497866927,4.635112198836438,0.13589780716762204,,,,,,
21,18,-0.7785137891769409,-0.08178564161062242,9.778741836547852,0.010013207793235779,-0.00244721700437367,0.0025860811583697796,-0.21807342767715454,0.5648379325866699,-0.8943817019462587,0.23096839859762022,4.6333907953750355,0.13633776411753107,,,,,,
21,19,-0.7785137891769409,-0.08178564161062242,9.778741836547852,0.010013207793235779,-0.00244721700437367,0.0025860811583697796,-0.21807342767715454,0.5648379325866699,-0.8943817019462587,0.23096839859762022,4.6333907953750355,0.13633776411753107,,,,,,
21,20,-0.7890277504920961,-0.002412120578810573,9.794074058532717,0.013721363618969917,-0.00011512226046761499,0.0037729553878307343,-0.21887192130088806,0.56231689453125,-0.8893834352493286,0.2378017244017344,4.631646665345962,0.13743246976657017,,,,,,
21,21,-0.8304286599159242,-0.05378455296158791,9.771861076354982,0.008410626091063024,-0.004877083003520966,-0.0005390508449636401,-0.21463112533092502,0.5662010908126831,-0.8903267979621888,0.24252650630738368,4.6276582464453915,0.13629109986963386,,,,,,
22,0,-0.8306774497032167,-0.07938518375158311,9.766140937805178,0.009718540124595167,-0.003315110923722387,0.005289176478981972,-0.21850611269474032,0.5619152784347534,-0.8944447040557861,0.24993901884367561,4.616829197608015,0.1378425246794523,,,,,,
22,1,-0.8665321469306947,-0.042081840336322784,9.788422584533693,0.006286781281232834,-0.004030778538435698,0.003974908497184516,-0.21836188435554504,0.562773585319519,-0.8878604173660278,0.25281218391701266,4.612114386700391,0.14092332672387942,,,,,,
22,2,-0.8665321469306947,-0.042081840336322784,9.788422584533693,0.006286781281232834,-0.004030778538435698,0.003974908497184516,-0.21836188435554504,0.562773585319519,-0.8878604173660278,0.25281218391701266,4.612114386700391,0.14092332672387942,,,,,,
22,3,-0.8665321469306947,-0.042081840336322784,9.788422584533693,0.006286781281232834,-0.004030778538435698,0.003974908497184516,-0.21836188435554504,0.562773585319519,-0.8878604173660278,0.25281218391701266,4.612114386700391,0.14092332672387942,,,,,,
22,4,-0.8665321469306947,-0.042081840336322784,9.788422584533693,0.006286781281232834,-0.004030778538435698,0.003974908497184516,-0.21836188435554504,0.562773585319519,-0.8878604173660278,0.25281218391701266,4.612114386700391,0.14092332672387942,,,,,,
22,5,-0.8665321469306947,-0.042081840336322784,9.788422584533693,0.006286781281232834,-0.004030778538435698,0.003974908497184516,-0.21836188435554504,0.562773585319519,-0.8878604173660278,0.25281218391701266,4.612114386700391,0.14092332672387942,,,,,,
22,6,-0.8712480068206787,-0.0775211751461029,9.7755823135376,0.008930996060371399,-0.0015418779803439977,0.003906376659870148,-0.2161000669002533,0.5633406043052674,-0.8934139609336854,0.2583184173664637,4.607058338896019,0.1458817467356815,,,,,,
22,7,-0.8041617274284364,-0.09853681921958923,9.783790588378906,0.008728384971618652,-0.003775894874706865,0.0035591393243521456,-0.21751493215560913,0.5623680353164673,-0.8929239511489868,0.2600328408568617,4.605097588316248,0.14680348491747927,,,,,,
22,8,-0.8041617274284364,-0.09853681921958923,9.783790588378906,0.008728384971618652,-0.003775894874706865,0.0035591393243521456,-0.21751493215560913,0.5623680353164673,-0.8929239511489868,0.2600328408568617,4.605097588316248,0.14680348491747927,,,,,,
22,9,-0.8041617274284364,-0.09853681921958923,9.783790588378906,0.008728384971618652,-0.003775894874706865,0.0035591393243521456,-0.21751493215560913,0.5623680353164673,-0.8929239511489868,0.2600328408568617,4.605097588316248,0.14680348491747927,,,,,,
23,0,-0.8306774497032167,-0.07938518375158311,9.766140937805178,0.009718540124595167,-0.003315110923722387,0.005289176478981972,-0.21850611269474032,0.5619152784347534,-0.8944447040557861,0.24993901884367561,4.616829197608015,0.1378425246794523,,,,,,
23,1,-0.8665321469306947,-0.042081840336322784,9.788422584533693,0.006286781281232834,-0.004030778538435698,0.003974908497184516,-0.21836188435554504,0.562773585319519,-0.8878604173660278,0.25281218391701266,4.612114386700391,0.14092332672387942,,,,,,
23,2,-0.8665321469306947,-0.042081840336322784,9.788422584533693,0.006286781281232834,-0.004030778538435698,0.003974908497184516,-0.21836188435554504,0.562773585319519,-0.8878604173660278,0.25281218391701266,4.612114386700391,0.14092332672387942,,,,,,
23,3,-0.8665321469306947,-0.042081840336322784,9.788422584533693,0.006286781281232834,-0.004030778538435698,0.003974908497184516,-0.21836188435554504,0.562773585319519,-0.8878604173660278,0.25281218391701266,4.612114386700391,0.14092332672387942,,,,,,
