frame_id,subframe_id,acc_x,acc_y,acc_z,gyro_x,gyro_y,gyro_z,mag_x,mag_y,mag_z,roll,pitch,yaw
1,0,-0.8028874397277832,-0.049055442214012146,9.784682273864748,0.001408927026204765,0.003321473952382803,0.012650703079998495,-0.46186271309852606,0.6498607397079468,-0.8686387538909912,0.10179387092682705,4.22566584996515,0.14533813872301612,,,,,,
1,1,-0.8028874397277832,-0.049055442214012146,9.784682273864748,0.001408927026204765,0.003321473952382803,0.012650703079998495,-0.46186271309852606,0.6498607397079468,-0.8686387538909912,0.10179387092682705,4.22566584996515,0.14533813872301612,,,,,,
1,2,-0.8028874397277832,-0.049055442214012146,9.784682273864748,0.001408927026204765,0.003321473952382803,0.012650703079998495,-0.46186271309852606,0.6498607397079468,-0.8686387538909912,0.10179387092682705,4.22566584996515,0.14533813872301612,,,,,,
1,3,-0.8028874397277832,-0.049055442214012146,9.784682273864748,0.001408927026204765,0.003321473952382803,0.012650703079998495,-0.46186271309852606,0.6498607397079468,-0.8686387538909912,0.10179387092682705,4.22566584996515,0.14533813872301612,,,,,,
1,4,-0.8028874397277832,-0.049055442214012146,9.784682273864748,0.001408927026204765,0.003321473952382803,0.012650703079998495,-0.46186271309852606,0.6498607397079468,-0.8686387538909912,0.10179387092682705,4.22566584996515,0.14533813872301612,,,,,,
1,5,-1.0021094083786013,-0.03895267471671105,9.77662467956543,0.0035178461112082005,-0.0003735831996891648,0.010737023316323759,-0.46188738942146307,0.6498787999153138,-0.8696483969688417,0.10273620526783603,4.225202245728076,0.1510505477546398,,,,,,
1,6,-1.2510000467300417,-0.0812363848090172,9.79896640777588,-0.0009585150983184576,0.001147386385127902,0.006482755299657584,-0.46329417824745184,0.6484184265136719,-0.8691692352294922,0.1015936089451295,4.225477662908149,0.15708213566184248,,,,,,
1,7,-1.2510000467300417,-0.0812363848090172,9.79896640777588,-0.0009585150983184576,0.001147386385127902,0.006482755299657584,-0.46329417824745184,0.6484184265136719,-0.8691692352294922,0.1015936089451295,4.225477662908149,0.15708213566184248,,,,,,
1,8,-1.2431231737136843,-0.10984155535697937,9.759576797485352,0.0025778419803828005,0.01172863319516182,0.005535162054002285,-0.46185415983200073,0.6508182883262635,-0.8676074147224427,0.10036310190023999,4.236177245407859,0.16258598620581666,,,,,,
1,9,-0.9184997677803041,0.02495016343891621,9.845148086547852,0.0008523471769876779,-0.00015533450641669333,0.0005047681042924523,-0.46190351247787476,0.6508543491363525,-0.8696266412734985,0.10072201121868675,4.257897337781613,0.16211858780862567,,,,,,
1,10,-0.9184997677803041,0.02495016343891621,9.845148086547852,0.0008523471769876779,-0.00015533450641669333,0.0005047681042924523,-0.46190351247787476,0.6508543491363525,-0.8696266412734985,0.10072201121868675,4.257897337781613,0.16211858780862567,,,,,,
1,11,-0.9184997677803041,0.02495016343891621,9.845148086547852,0.0008523471769876779,-0.00015533450641669333,0.0005047681042924523,-0.46190351247787476,0.6508543491363525,-0.8696266412734985,0.10072201121868675,4.257897337781613,0.16211858780862567,,,,,,
1,12,-0.9184997677803041,0.02495016343891621,9.845148086547852,0.0008523471769876779,-0.00015533450641669333,0.0005047681042924523,-0.46190351247787476,0.6508543491363525,-0.8696266412734985,0.10072201121868675,4.257897337781613,0.16211858780862567,,,,,,
1,13,-0.9184997677803041,0.02495016343891621,9.845148086547852,0.0008523471769876779,-0.00015533450641669333,0.0005047681042924523,-0.46190351247787476,0.6508543491363525,-0.8696266412734985,0.10072201121868675,4.257897337781613,0.16211858780862567,,,,,,
1,14,-0.7810639739036561,0.026088248938322067,9.822874069213867,0.0028200410306453705,-0.0036939878482371573,-0.0037692664191126823,-0.46088385581970215,0.6503224968910218,-0.8676229119300843,0.10054498231943955,4.258613211927671,0.1595183707115457,,,,,,
1,15,-0.6369430422782899,0.06485122442245483,9.813408851623537,0.004755767527967692,-0.004672247450798751,-0.00407356396317482,-0.46087151765823364,0.650313436985016,-0.8671181201934814,0.10149951297777762,4.258762979581839,0.1567528100797606,,,,,,
1,16,-0.507940709590912,0.009966820478439331,9.799517631530763,0.0054191877134144315,-0.006855301558971405,-0.006923421751707793,-0.45998713374137884,0.6513261198997499,-0.8696249723434448,0.10278184711481007,4.257535032054258,0.15236589425494845,,,,,,
1,17,-0.478173702955246,-0.0802043452858925,9.771397590637209,0.0048961383290588864,-0.00531376525759697,-0.002607717178761959,-0.4599913954734802,0.6508473753929139,-0.8701406717300415,0.10396877535841301,4.256949187199781,0.15046168854826014,,,,,,
1,18,-0.47059896588325506,-0.13238880038261414,9.774964332580568,0.00014520816330332312,-0.005820007994771004,-0.001336242654360831,-0.4604402184486389,0.6489002704620361,-0.8701818585395814,0.10242858820295361,4.25581443500083,0.14926531079919042,,,,,,
1,19,-0.4867832064628601,-0.12732587754726413,9.790393829345703,0.003929441794753075,-0.007430458441376686,-9.980287723010407e-05,-0.4599913954734802,0.6508473753929139,-0.8701406717300415,0.103005859920014,4.253496100162578,0.1487424074630791,,,,,,
1,20,-0.5202251672744751,-0.05270708352327347,9.824844360351562,0.003687680466100574,-0.006405257619917393,-0.001778807956725359,-0.46041557192802435,0.6488822102546693,-0.869172215461731,0.10440055408855413,4.249627593274955,0.14814551311844715,,,,,,
1,21,-0.5202251672744751,-0.05270708352327347,9.824844360351562,0.003687680466100574,-0.006405257619917393,-0.001778807956725359,-0.46041557192802435,0.6488822102546693,-0.869172215461731,0.10440055408855413,4.249627593274955,0.14814551311844715,,,,,,
1,22,-0.5731143951416016,-0.12348468601703644,9.855476379394531,0.005195640493184329,-0.006357966922223568,0.000742435280699283,-0.4600207805633545,0.6489413380622865,-0.8727082014083862,0.10556947353689093,4.247228043761125,0.14804455763749336,,,,,,
1,23,-0.6483218073844911,-0.1844727843999863,9.802183151245117,0.0030927364714443684,-0.0027679000049829483,0.0006675312179140748,-0.46198225021362305,0.6489843726158143,-0.8742133378982544,0.10544113556686271,4.246726902229396,0.14787492285622428,,,,,,
1,24,-0.6538373231887817,-0.08507087826728821,9.738963127136232,0.00978637393563986,-0.004464446566998959,0.004115984309464694,-0.4619205594062805,0.6489393115043641,-0.8716893196105957,0.10915435284061752,4.24516151324446,0.14964160096513152,,,,,,
1,25,-0.5083993077278138,-0.026446104049682617,9.799543380737305,0.008682931773364546,-0.005770074669271708,0.0005785865942016244,-0.4585233628749848,0.6508172750473022,-0.8691379427909852,0.11814613180551693,4.235981328705199,0.15330858540672912,,,,,,
1,26,-0.5083993077278138,-0.026446104049682617,9.799543380737305,0.008682931773364546,-0.005770074669271708,0.0005785865942016244,-0.4585233628749848,0.6508172750473022,-0.8691379427909852,0.11814613180551693,4.235981328705199,0.15330858540672912,,,,,,
1,27,-0.5083993077278138,-0.026446104049682617,9.799543380737305,0.008682931773364546,-0.005770074669271708,0.0005785865942016244,-0.4585233628749848,0.6508172750473022,-0.8691379427909852,0.11814613180551693,4.235981328705199,0.15330858540672912,,,,,,
1,28,-0.5766341686248779,-0.09427771717309953,9.79636859893799,0.00902416743338108,-0.0036469560582190756,0.0031837082933634524,-0.46191203594207764,0.649896800518036,-0.8706579804420472,0.12402716285179691,4.231263856704433,0.15514701349738366,,,,,,
1,29,-0.5766724944114686,-0.10244869440793992,9.79153823852539,0.009319931268692017,-0.0033627070952206854,0.004624293185770512,-0.46090519428253174,0.6479287147521973,-0.8702012896537782,0.1273575847060514,4.229466166165935,0.15715013316682025,,,,,,
1,30,-0.5766724944114686,-0.10244869440793992,9.79153823852539,0.009319931268692017,-0.0033627070952206854,0.004624293185770512,-0.46090519428253174,0.6479287147521973,-0.8702012896537782,0.1273575847060514,4.229466166165935,0.15715013316682025,,,,,,
1,31,-0.6005130410194398,-0.0400548055768013,9.816320419311523,0.007198777049779892,-0.0009494996047578753,0.006751692853868008,-0.46089667081832886,0.6488862037658691,-0.8691698908805848,0.1320942031964233,4.22722735055892,0.16039646285721015,,,,,,
1,32,-0.6005130410194398,-0.0400548055768013,9.816320419311523,0.007198777049779892,-0.0009494996047578753,0.006751692853868008,-0.46089667081832886,0.6488862037658691,-0.8691698908805848,0.1320942031964233,4.22722735055892,0.16039646285721015,,,,,,
1,33,-0.6473661065101625,-0.02007589489221573,9.811713218688967,0.006691368296742439,-0.00027342708199284976,0.00396668678149581,-0.46140629053115845,0.6498748064041138,-0.8696507215499878,0.13378812483597177,4.226831493701121,0.16198818259989758,,,,,,
1,34,-0.6748306751251221,-0.04709471389651299,9.796733856201172,0.008460874669253828,0.00021007657051086426,0.002728045685216785,-0.46139395236968994,0.6498657464981079,-0.8691458702087402,0.13645233880781088,4.226652889950263,0.16287036399535051,,,,,,
1,35,-0.7196210622787476,-0.11604707688093187,9.775415420532227,0.007914386689662933,0.0006082618492655457,0.004502733703702689,-0.4624092876911164,0.6508763432502748,-0.870633900165558,0.14143685784383206,4.226439558054327,0.16982745197816407,,,,,,
1,36,-0.7196210622787476,-0.11604707688093187,9.775415420532227,0.007914386689662933,0.0006082618492655457,0.004502733703702689,-0.4624092876911164,0.6508763432502748,-0.870633900165558,0.14143685784383206,4.226439558054327,0.16982745197816407,,,,,,
1,37,-0.7196210622787476,-0.11604707688093187,9.775415420532227,0.007914386689662933,0.0006082618492655457,0.004502733703702689,-0.4624092876911164,0.6508763432502748,-0.870633900165558,0.14143685784383206,4.226439558054327,0.16982745197816407,,,,,,
1,38,-0.7398974895477295,-0.05208315700292587,9.769652366638185,0.00939259957522154,0.000379597011487931,0.0075511340983212,-0.45946139097213745,0.6493620276451112,-0.8691659569740297,0.14464424597940104,4.226319970090825,0.17342230998688163,,,,,,
2,0,-0.8028874397277832,-0.049055442214012146,9.784682273864748,0.001408927026204765,0.003321473952382803,0.012650703079998495,-0.46186271309852606,0.6498607397079468,-0.8686387538909912,0.10179387092682705,4.22566584996515,0.14533813872301612,,,,,,
2,1,-0.8028874397277832,-0.049055442214012146,9.784682273864748,0.001408927026204765,0.003321473952382803,0.012650703079998495,-0.46186271309852606,0.6498607397079468,-0.8686387538909912,0.10179387092682705,4.22566584996515,0.14533813872301612,,,,,,
2,2,-0.8028874397277832,-0.049055442214012146,9.784682273864748,0.001408927026204765,0.003321473952382803,0.012650703079998495,-0.46186271309852606,0.6498607397079468,-0.8686387538909912,0.10179387092682705,4.22566584996515,0.14533813872301612,,,,,,
2,3,-0.8028874397277832,-0.049055442214012146,9.784682273864748,0.001408927026204765,0.003321473952382803,0.012650703079998495,-0.46186271309852606,0.6498607397079468,-0.8686387538909912,0.10179387092682705,4.22566584996515,0.14533813872301612,,,,,,
2,4,-0.8028874397277832,-0.049055442214012146,9.784682273864748,0.001408927026204765,0.003321473952382803,0.012650703079998495,-0.46186271309852606,0.6498607397079468,-0.8686387538909912,0.10179387092682705,4.22566584996515,0.14533813872301612,,,,,,
2,5,-1.0021094083786013,-0.03895267471671105,9.77662467956543,0.0035178461112082005,-0.0003735831996891648,0.010737023316323759,-0.46188738942146307,0.6498787999153138,-0.8696483969688417,0.10273620526783603,4.225202245728076,0.1510505477546398,,,,,,
2,6,-1.2510000467300417,-0.0812363848090172,9.79896640777588,-0.0009585150983184576,0.001147386385127902,0.006482755299657584,-0.46329417824745184,0.6484184265136719,-0.8691692352294922,0.1015936089451295,4.225477662908149,0.15708213566184248,,,,,,
2,7,-1.2510000467300417,-0.0812363848090172,9.79896640777588,-0.0009585150983184576,0.001147386385127902,0.006482755299657584,-0.46329417824745184,0.6484184265136719,-0.8691692352294922,0.1015936089451295,4.225477662908149,0.15708213566184248,,,,,,
2,8,-1.2431231737136843,-0.10984155535697937,9.759576797485352,0.0025778419803828005,0.01172863319516182,0.005535162054002285,-0.46185415983200073,0.6508182883262635,-0.8676074147224427,0.10036310190023999,4.236177245407859,0.16258598620581666,,,,,,
2,9,-0.9184997677803041,0.02495016343891621,9.845148086547852,0.0008523471769876779,-0.00015533450641669333,0.0005047681042924523,-0.46190351247787476,0.6508543491363525,-0.8696266412734985,0.10072201121868675,4.257897337781613,0.16211858780862567,,,,,,
2,10,-0.9184997677803041,0.02495016343891621,9.845148086547852,0.0008523471769876779,-0.00015533450641669333,0.0005047681042924523,-0.46190351247787476,0.6508543491363525,-0.8696266412734985,0.10072201121868675,4.257897337781613,0.16211858780862567,,,,,,
2,11,-0.9184997677803041,0.02495016343891621,9.845148086547852,0.0008523471769876779,-0.00015533450641669333,0.0005047681042924523,-0.46190351247787476,0.6508543491363525,-0.8696266412734985,0.10072201121868675,4.257897337781613,0.16211858780862567,,,,,,
2,12,-0.9184997677803041,0.02495016343891621,9.845148086547852,0.0008523471769876779,-0.00015533450641669333,0.0005047681042924523,-0.46190351247787476,0.6508543491363525,-0.8696266412734985,0.10072201121868675,4.257897337781613,0.16211858780862567,,,,,,
2,13,-0.9184997677803041,0.02495016343891621,9.845148086547852,0.0008523471769876779,-0.00015533450641669333,0.0005047681042924523,-0.46190351247787476,0.6508543491363525,-0.8696266412734985,0.10072201121868675,4.257897337781613,0.16211858780862567,,,,,,
2,14,-0.7810639739036561,0.026088248938322067,9.822874069213867,0.0028200410306453705,-0.0036939878482371573,-0.0037692664191126823,-0.46088385581970215,0.6503224968910218,-0.8676229119300843,0.10054498231943955,4.258613211927671,0.1595183707115457,,,,,,
2,15,-0.6369430422782899,0.06485122442245483,9.813408851623537,0.004755767527967692,-0.004672247450798751,-0.00407356396317482,-0.46087151765823364,0.650313436985016,-0.8671181201934814,0.10149951297777762,4.258762979581839,0.1567528100797606,,,,,,
2,16,-0.507940709590912,0.009966820478439331,9.799517631530763,0.0054191877134144315,-0.006855301558971405,-0.006923421751707793,-0.45998713374137884,0.6513261198997499,-0.8696249723434448,0.10278184711481007,4.257535032054258,0.15236589425494845,,,,,,
2,17,-0.478173702955246,-0.0802043452858925,9.771397590637209,0.0048961383290588864,-0.00531376525759697,-0.002607717178761959,-0.4599913954734802,0.6508473753929139,-0.8701406717300415,0.10396877535841301,4.256949187199781,0.15046168854826014,,,,,,
2,18,-0.47059896588325506,-0.13238880038261414,9.774964332580568,0.00014520816330332312,-0.005820007994771004,-0.001336242654360831,-0.4604402184486389,0.6489002704620361,-0.8701818585395814,0.10242858820295361,4.25581443500083,0.14926531079919042,,,,,,
2,19,-0.4867832064628601,-0.12732587754726413,9.790393829345703,0.003929441794753075,-0.007430458441376686,-9.980287723010407e-05,-0.4599913954734802,0.6508473753929139,-0.8701406717300415,0.103005859920014,4.253496100162578,0.1487424074630791,,,,,,
2,20,-0.5202251672744751,-0.05270708352327347,9.824844360351562,0.003687680466100574,-0.006405257619917393,-0.001778807956725359,-0.46041557192802435,0.6488822102546693,-0.869172215461731,0.10440055408855413,4.249627593274955,0.14814551311844715,,,,,,
2,21,-0.5202251672744751,-0.05270708352327347,9.824844360351562,0.003687680466100574,-0.006405257619917393,-0.001778807956725359,-0.46041557192802435,0.6488822102546693,-0.869172215461731,0.10440055408855413,4.249627593274955,0.14814551311844715,,,,,,
2,22,-0.5731143951416016,-0.12348468601703644,9.855476379394531,0.005195640493184329,-0.006357966922223568,0.000742435280699283,-0.4600207805633545,0.6489413380622865,-0.8727082014083862,0.10556947353689093,4.247228043761125,0.14804455763749336,,,,,,
2,23,-0.6483218073844911,-0.1844727843999863,9.802183151245117,0.0030927364714443684,-0.0027679000049829483,0.0006675312179140748,-0.46198225021362305,0.6489843726158143,-0.8742133378982544,0.10544113556686271,4.246726902229396,0.14787492285622428,,,,,,
2,24,-0.6538373231887817,-0.08507087826728821,9.738963127136232,0.00978637393563986,-0.004464446566998959,0.004115984309464694,-0.4619205594062805,0.6489393115043641,-0.8716893196105957,0.10915435284061752,4.24516151324446,0.14964160096513152,,,,,,
2,25,-0.5083993077278138,-0.026446104049682617,9.799543380737305,0.008682931773364546,-0.005770074669271708,0.0005785865942016244,-0.4585233628749848,0.6508172750473022,-0.8691379427909852,0.11814613180551693,4.235981328705199,0.15330858540672912,,,,,,
2,26,-0.5083993077278138,-0.026446104049682617,9.799543380737305,0.008682931773364546,-0.005770074669271708,0.0005785865942016244,-0.4585233628749848,0.6508172750473022,-0.8691379427909852,0.11814613180551693,4.235981328705199,0.15330858540672912,,,,,,
2,27,-0.5083993077278138,-0.026446104049682617,9.799543380737305,0.008682931773364546,-0.005770074669271708,0.0005785865942016244,-0.4585233628749848,0.6508172750473022,-0.8691379427909852,0.11814613180551693,4.235981328705199,0.15330858540672912,,,,,,
2,28,-0.5766341686248779,-0.09427771717309953,9.79636859893799,0.00902416743338108,-0.0036469560582190756,0.0031837082933634524,-0.46191203594207764,0.649896800518036,-0.8706579804420472,0.12402716285179691,4.231263856704433,0.15514701349738366,,,,,,
2,29,-0.5766724944114686,-0.10244869440793992,9.79153823852539,0.009319931268692017,-0.0033627070952206854,0.004624293185770512,-0.46090519428253174,0.6479287147521973,-0.8702012896537782,0.1273575847060514,4.229466166165935,0.15715013316682025,,,,,,
2,30,-0.5766724944114686,-0.10244869440793992,9.79153823852539,0.009319931268692017,-0.0033627070952206854,0.004624293185770512,-0.46090519428253174,0.6479287147521973,-0.8702012896537782,0.1273575847060514,4.229466166165935,0.15715013316682025,,,,,,
2,31,-0.6005130410194398,-0.0400548055768013,9.816320419311523,0.007198777049779892,-0.0009494996047578753,0.006751692853868008,-0.46089667081832886,0.6488862037658691,-0.8691698908805848,0.1320942031964233,4.22722735055892,0.16039646285721015,,,,,,
2,32,-0.6005130410194398,-0.0400548055768013,9.816320419311523,0.007198777049779892,-0.0009494996047578753,0.006751692853868008,-0.46089667081832886,0.6488862037658691,-0.8691698908805848,0.1320942031964233,4.22722735055892,0.16039646285721015,,,,,,
2,33,-0.6473661065101625,-0.02007589489221573,9.811713218688967,0.006691368296742439,-0.00027342708199284976,0.00396668678149581,-0.46140629053115845,0.6498748064041138,-0.8696507215499878,0.13378812483597177,4.226831493701121,0.16198818259989758,,,,,,
2,34,-0.6748306751251221,-0.04709471389651299,9.796733856201172,0.008460874669253828,0.00021007657051086426,0.002728045685216785,-0.46139395236968994,0.6498657464981079,-0.8691458702087402,0.13645233880781088,4.226652889950263,0.16287036399535051,,,,,,
2,35,-0.7196210622787476,-0.11604707688093187,9.775415420532227,0.007914386689662933,0.0006082618492655457,0.004502733703702689,-0.4624092876911164,0.6508763432502748,-0.870633900165558,0.14143685784383206,4.226439558054327,0.16982745197816407,,,,,,
2,36,-0.7196210622787476,-0.11604707688093187,9.775415420532227,0.007914386689662933,0.0006082618492655457,0.004502733703702689,-0.4624092876911164,0.6508763432502748,-0.870633900165558,0.14143685784383206,4.226439558054327,0.16982745197816407,,,,,,
2,37,-0.7196210622787476,-0.11604707688093187,9.775415420532227,0.007914386689662933,0.0006082618492655457,0.004502733703702689,-0.4624092876911164,0.6508763432502748,-0.870633900165558,0.14143685784383206,4.226439558054327,0.16982745197816407,,,,,,
2,38,-0.7398974895477295,-0.05208315700292587,9.769652366638185,0.00939259957522154,0.000379597011487931,0.0075511340983212,-0.45946139097213745,0.6493620276451112,-0.8691659569740297,0.14464424597940104,4.226319970090825,0.17342230998688163,,,,,,
3,0,-0.8028874397277832,-0.049055442214012146,9.784682273864748,0.001408927026204765,0.003321473952382803,0.012650703079998495,-0.46186271309852606,0.6498607397079468,-0.8686387538909912,0.10179387092682705,4.22566584996515,0.14533813872301612,,,,,,
3,1,-0.8028874397277832,-0.049055442214012146,9.784682273864748,0.001408927026204765,0.003321473952382803,0.012650703079998495,-0.46186271309852606,0.6498607397079468,-0.8686387538909912,0.10179387092682705,4.22566584996515,0.14533813872301612,,,,,,
3,2,-0.8028874397277832,-0.049055442214012146,9.784682273864748,0.001408927026204765,0.003321473952382803,0.012650703079998495,-0.46186271309852606,0.6498607397079468,-0.8686387538909912,0.10179387092682705,4.22566584996515,0.14533813872301612,,,,,,
3,3,-0.8028874397277832,-0.049055442214012146,9.784682273864748,0.001408927026204765,0.003321473952382803,0.012650703079998495,-0.46186271309852606,0.6498607397079468,-0.8686387538909912,0.10179387092682705,4.22566584996515,0.14533813872301612,,,,,,
3,4,-0.8028874397277832,-0.049055442214012146,9.784682273864748,0.001408927026204765,0.003321473952382803,0.012650703079998495,-0.46186271309852606,0.6498607397079468,-0.8686387538909912,0.10179387092682705,4.22566584996515,0.14533813872301612,,,,,,
3,5,-1.0021094083786013,-0.03895267471671105,9.77662467956543,0.0035178461112082005,-0.0003735831996891648,0.010737023316323759,-0.46188738942146307,0.6498787999153138,-0.8696483969688417,0.10273620526783603,4.225202245728076,0.1510505477546398,,,,,,
3,6,-1.2510000467300417,-0.0812363848090172,9.79896640777588,-0.0009585150983184576,0.001147386385127902,0.006482755299657584,-0.46329417824745184,0.6484184265136719,-0.8691692352294922,0.1015936089451295,4.225477662908149,0.15708213566184248,,,,,,
3,7,-1.2510000467300417,-0.0812363848090172,9.79896640777588,-0.0009585150983184576,0.001147386385127902,0.006482755299657584,-0.46329417824745184,0.6484184265136719,-0.8691692352294922,0.1015936089451295,4.225477662908149,0.15708213566184248,,,,,,
3,8,-1.2431231737136843,-0.10984155535697937,9.759576797485352,0.0025778419803828005,0.01172863319516182,0.005535162054002285,-0.46185415983200073,0.6508182883262635,-0.8676074147224427,0.10036310190023999,4.236177245407859,0.16258598620581666,,,,,,
3,9,-0.9184997677803041,0.02495016343891621,9.845148086547852,0.0008523471769876779,-0.00015533450641669333,0.0005047681042924523,-0.46190351247787476,0.6508543491363525,-0.8696266412734985,0.10072201121868675,4.257897337781613,0.16211858780862567,,,,,,
3,10,-0.9184997677803041,0.02495016343891621,9.845148086547852,0.0008523471769876779,-0.00015533450641669333,0.0005047681042924523,-0.46190351247787476,0.6508543491363525,-0.8696266412734985,0.10072201121868675,4.257897337781613,0.16211858780862567,,,,,,
3,11,-0.9184997677803041,0.02495016343891621,9.845148086547852,0.0008523471769876779,-0.00015533450641669333,0.0005047681042924523,-0.46190351247787476,0.6508543491363525,-0.8696266412734985,0.10072201121868675,4.257897337781613,0.16211858780862567,,,,,,
3,12,-0.9184997677803041,0.02495016343891621,9.845148086547852,0.0008523471769876779,-0.00015533450641669333,0.0005047681042924523,-0.46190351247787476,0.6508543491363525,-0.8696266412734985,0.10072201121868675,4.257897337781613,0.16211858780862567,,,,,,
3,13,-0.9184997677803041,0.02495016343891621,9.845148086547852,0.0008523471769876779,-0.00015533450641669333,0.0005047681042924523,-0.46190351247787476,0.6508543491363525,-0.8696266412734985,0.10072201121868675,4.257897337781613,0.16211858780862567,,,,,,
3,14,-0.7810639739036561,0.026088248938322067,9.822874069213867,0.0028200410306453705,-0.0036939878482371573,-0.0037692664191126823,-0.46088385581970215,0.6503224968910218,-0.8676229119300843,0.10054498231943955,4.258613211927671,0.1595183707115457,,,,,,
3,15,-0.6369430422782899,0.06485122442245483,9.813408851623537,0.004755767527967692,-0.004672247450798751,-0.00407356396317482,-0.46087151765823364,0.650313436985016,-0.8671181201934814,0.10149951297777762,4.258762979581839,0.1567528100797606,,,,,,
3,16,-0.507940709590912,0.009966820478439331,9.799517631530763,0.0054191877134144315,-0.006855301558971405,-0.006923421751707793,-0.45998713374137884,0.6513261198997499,-0.8696249723434448,0.10278184711481007,4.257535032054258,0.15236589425494845,,,,,,
3,17,-0.478173702955246,-0.0802043452858925,9.771397590637209,0.0048961383290588864,-0.00531376525759697,-0.002607717178761959,-0.4599913954734802,0.6508473753929139,-0.8701406717300415,0.10396877535841301,4.256949187199781,0.15046168854826014,,,,,,
3,18,-0.47059896588325506,-0.13238880038261414,9.774964332580568,0.00014520816330332312,-0.005820007994771004,-0.001336242654360831,-0.4604402184486389,0.6489002704620361,-0.8701818585395814,0.10242858820295361,4.25581443500083,0.14926531079919042,,,,,,
3,19,-0.4867832064628601,-0.12732587754726413,9.790393829345703,0.003929441794753075,-0.007430458441376686,-9.980287723010407e-05,-0.4599913954734802,0.6508473753929139,-0.8701406717300415,0.103005859920014,4.253496100162578,0.1487424074630791,,,,,,
3,20,-0.5202251672744751,-0.05270708352327347,9.824844360351562,0.003687680466100574,-0.006405257619917393,-0.001778807956725359,-0.46041557192802435,0.6488822102546693,-0.869172215461731,0.10440055408855413,4.249627593274955,0.14814551311844715,,,,,,
3,21,-0.5202251672744751,-0.05270708352327347,9.824844360351562,0.003687680466100574,-0.006405257619917393,-0.001778807956725359,-0.46041557192802435,0.6488822102546693,-0.869172215461731,0.10440055408855413,4.249627593274955,0.14814551311844715,,,,,,
3,22,-0.5731143951416016,-0.12348468601703644,9.855476379394531,0.005195640493184329,-0.006357966922223568,0.000742435280699283,-0.4600207805633545,0.6489413380622865,-0.8727082014083862,0.10556947353689093,4.247228043761125,0.14804455763749336,,,,,,
3,23,-0.6483218073844911,-0.1844727843999863,9.802183151245117,0.0030927364714443684,-0.0027679000049829483,0.0006675312179140748,-0.46198225021362305,0.6489843726158143,-0.8742133378982544,0.10544113556686271,4.246726902229396,0.14787492285622428,,,,,,
3,24,-0.6538373231887817,-0.08507087826728821,9.738963127136232,0.00978637393563986,-0.004464446566998959,0.004115984309464694,-0.4619205594062805,0.6489393115043641,-0.8716893196105957,0.10915435284061752,4.24516151324446,0.14964160096513152,,,,,,
3,25,-0.5083993077278138,-0.026446104049682617,9.799543380737305,0.008682931773364546,-0.005770074669271708,0.0005785865942016244,-0.4585233628749848,0.6508172750473022,-0.8691379427909852,0.11814613180551693,4.235981328705199,0.15330858540672912,,,,,,
3,26,-0.5083993077278138,-0.026446104049682617,9.799543380737305,0.008682931773364546,-0.005770074669271708,0.0005785865942016244,-0.4585233628749848,0.6508172750473022,-0.8691379427909852,0.11814613180551693,4.235981328705199,0.15330858540672912,,,,,,
3,27,-0.5083993077278138,-0.026446104049682617,9.799543380737305,0.008682931773364546,-0.005770074669271708,0.0005785865942016244,-0.4585233628749848,0.6508172750473022,-0.8691379427909852,0.11814613180551693,4.235981328705199,0.15330858540672912,,,,,,
3,28,-0.5766341686248779,-0.09427771717309953,9.79636859893799,0.00902416743338108,-0.0036469560582190756,0.0031837082933634524,-0.46191203594207764,0.649896800518036,-0.8706579804420472,0.12402716285179691,4.231263856704433,0.15514701349738366,,,,,,
3,29,-0.5766724944114686,-0.10244869440793992,9.79153823852539,0.009319931268692017,-0.0033627070952206854,0.004624293185770512,-0.46090519428253174,0.6479287147521973,-0.8702012896537782,0.1273575847060514,4.229466166165935,0.15715013316682025,,,,,,
3,30,-0.5766724944114686,-0.10244869440793992,9.79153823852539,0.009319931268692017,-0.0033627070952206854,0.004624293185770512,-0.46090519428253174,0.6479287147521973,-0.8702012896537782,0.1273575847060514,4.229466166165935,0.15715013316682025,,,,,,
3,31,-0.6005130410194398,-0.0400548055768013,9.816320419311523,0.007198777049779892,-0.0009494996047578753,0.006751692853868008,-0.46089667081832886,0.6488862037658691,-0.8691698908805848,0.1320942031964233,4.22722735055892,0.16039646285721015,,,,,,
3,32,-0.6005130410194398,-0.0400548055768013,9.816320419311523,0.007198777049779892,-0.0009494996047578753,0.006751692853868008,-0.46089667081832886,0.6488862037658691,-0.8691698908805848,0.1320942031964233,4.22722735055892,0.16039646285721015,,,,,,
3,33,-0.6473661065101625,-0.02007589489221573,9.811713218688967,0.006691368296742439,-0.00027342708199284976,0.00396668678149581,-0.46140629053115845,0.6498748064041138,-0.8696507215499878,0.13378812483597177,4.226831493701121,0.16198818259989758,,,,,,
3,34,-0.6748306751251221,-0.04709471389651299,9.796733856201172,0.008460874669253828,0.00021007657051086426,0.002728045685216785,-0.46139395236968994,0.6498657464981079,-0.8691458702087402,0.13645233880781088,4.226652889950263,0.16287036399535051,,,,,,
3,35,-0.7196210622787476,-0.11604707688093187,9.775415420532227,0.007914386689662933,0.0006082618492655457,0.004502733703702689,-0.4624092876911164,0.6508763432502748,-0.870633900165558,0.14143685784383206,4.226439558054327,0.16982745197816407,,,,,,
3,36,-0.7196210622787476,-0.11604707688093187,9.775415420532227,0.007914386689662933,0.0006082618492655457,0.004502733703702689,-0.4624092876911164,0.6508763432502748,-0.870633900165558,0.14143685784383206,4.226439558054327,0.16982745197816407,,,,,,
3,37,-0.7196210622787476,-0.11604707688093187,9.775415420532227,0.007914386689662933,0.0006082618492655457,0.004502733703702689,-0.4624092876911164,0.6508763432502748,-0.870633900165558,0.14143685784383206,4.226439558054327,0.16982745197816407,,,,,,
3,38,-0.7398974895477295,-0.05208315700292587,9.769652366638185,0.00939259957522154,0.000379597011487931,0.0075511340983212,-0.45946139097213745,0.6493620276451112,-0.8691659569740297,0.14464424597940104,4.226319970090825,0.17342230998688163,,,,,,
4,0,-0.8028874397277832,-0.049055442214012146,9.784682273864748,0.001408927026204765,0.003321473952382803,0.012650703079998495,-0.46186271309852606,0.6498607397079468,-0.8686387538909912,0.10179387092682705,4.22566584996515,0.14533813872301612,,,,,,
4,1,-0.8028874397277832,-0.049055442214012146,9.784682273864748,0.001408927026204765,0.003321473952382803,0.012650703079998495,-0.46186271309852606,0.6498607397079468,-0.8686387538909912,0.10179387092682705,4.22566584996515,0.14533813872301612,,,,,,
4,2,-0.8028874397277832,-0.049055442214012146,9.784682273864748,0.001408927026204765,0.003321473952382803,0.012650703079998495,-0.46186271309852606,0.6498607397079468,-0.8686387538909912,0.10179387092682705,4.22566584996515,0.14533813872301612,,,,,,
4,3,-0.8028874397277832,-0.049055442214012146,9.784682273864748,0.001408927026204765,0.003321473952382803,0.012650703079998495,-0.46186271309852606,0.6498607397079468,-0.8686387538909912,0.10179387092682705,4.22566584996515,0.14533813872301612,,,,,,
4,4,-0.8028874397277832,-0.049055442214012146,9.784682273864748,0.001408927026204765,0.003321473952382803,0.012650703079998495,-0.46186271309852606,0.6498607397079468,-0.8686387538909912,0.10179387092682705,4.22566584996515,0.14533813872301612,,,,,,
4,5,-1.0021094083786013,-0.03895267471671105,9.77662467956543,0.0035178461112082005,-0.0003735831996891648,0.010737023316323759,-0.46188738942146307,0.6498787999153138,-0.8696483969688417,0.10273620526783603,4.225202245728076,0.1510505477546398,,,,,,
4,6,-1.2510000467300417,-0.0812363848090172,9.79896640777588,-0.0009585150983184576,0.001147386385127902,0.006482755299657584,-0.46329417824745184,0.6484184265136719,-0.8691692352294922,0.1015936089451295,4.225477662908149,0.15708213566184248,,,,,,
4,7,-1.2510000467300417,-0.0812363848090172,9.79896640777588,-0.0009585150983184576,0.001147386385127902,0.006482755299657584,-0.46329417824745184,0.6484184265136719,-0.8691692352294922,0.1015936089451295,4.225477662908149,0.15708213566184248,,,,,,
4,8,-1.2431231737136843,-0.10984155535697937,9.759576797485352,0.0025778419803828005,0.01172863319516182,0.005535162054002285,-0.46185415983200073,0.6508182883262635,-0.8676074147224427,0.10036310190023999,4.236177245407859,0.16258598620581666,,,,,,
4,9,-0.9184997677803041,0.02495016343891621,9.845148086547852,0.0008523471769876779,-0.00015533450641669333,0.0005047681042924523,-0.46190351247787476,0.6508543491363525,-0.8696266412734985,0.10072201121868675,4.257897337781613,0.16211858780862567,,,,,,
4,10,-0.9184997677803041,0.02495016343891621,9.845148086547852,0.0008523471769876779,-0.00015533450641669333,0.0005047681042924523,-0.46190351247787476,0.6508543491363525,-0.8696266412734985,0.10072201121868675,4.257897337781613,0.16211858780862567,,,,,,
4,11,-0.9184997677803041,0.02495016343891621,9.845148086547852,0.0008523471769876779,-0.00015533450641669333,0.0005047681042924523,-0.46190351247787476,0.6508543491363525,-0.8696266412734985,0.10072201121868675,4.257897337781613,0.16211858780862567,,,,,,
4,12,-0.9184997677803041,0.02495016343891621,9.845148086547852,0.0008523471769876779,-0.00015533450641669333,0.0005047681042924523,-0.46190351247787476,0.6508543491363525,-0.8696266412734985,0.10072201121868675,4.257897337781613,0.16211858780862567,,,,,,
4,13,-0.9184997677803041,0.02495016343891621,9.845148086547852,0.0008523471769876779,-0.00015533450641669333,0.0005047681042924523,-0.46190351247787476,0.6508543491363525,-0.8696266412734985,0.10072201121868675,4.257897337781613,0.16211858780862567,,,,,,
4,14,-0.7810639739036561,0.026088248938322067,9.822874069213867,0.0028200410306453705,-0.0036939878482371573,-0.0037692664191126823,-0.46088385581970215,0.6503224968910218,-0.8676229119300843,0.10054498231943955,4.258613211927671,0.1595183707115457,,,,,,
4,15,-0.6369430422782899,0.06485122442245483,9.813408851623537,0.004755767527967692,-0.004672247450798751,-0.00407356396317482,-0.46087151765823364,0.650313436985016,-0.8671181201934814,0.10149951297777762,4.258762979581839,0.1567528100797606,,,,,,
4,16,-0.507940709590912,0.009966820478439331,9.799517631530763,0.0054191877134144315,-0.006855301558971405,-0.006923421751707793,-0.45998713374137884,0.6513261198997499,-0.8696249723434448,0.10278184711481007,4.257535032054258,0.15236589425494845,,,,,,
4,17,-0.478173702955246,-0.0802043452858925,9.771397590637209,0.0048961383290588864,-0.00531376525759697,-0.002607717178761959,-0.4599913954734802,0.6508473753929139,-0.8701406717300415,0.10396877535841301,4.256949187199781,0.15046168854826014,,,,,,
4,18,-0.47059896588325506,-0.13238880038261414,9.774964332580568,0.00014520816330332312,-0.005820007994771004,-0.001336242654360831,-0.4604402184486389,0.6489002704620361,-0.8701818585395814,0.10242858820295361,4.25581443500083,0.14926531079919042,,,,,,
4,19,-0.4867832064628601,-0.12732587754726413,9.790393829345703,0.003929441794753075,-0.007430458441376686,-9.980287723010407e-05,-0.4599913954734802,0.6508473753929139,-0.8701406717300415,0.103005859920014,4.253496100162578,0.1487424074630791,,,,,,
4,20,-0.5202251672744751,-0.05270708352327347,9.824844360351562,0.003687680466100574,-0.006405257619917393,-0.001778807956725359,-0.46041557192802435,0.6488822102546693,-0.869172215461731,0.10440055408855413,4.249627593274955,0.14814551311844715,,,,,,
4,21,-0.5202251672744751,-0.05270708352327347,9.824844360351562,0.003687680466100574,-0.006405257619917393,-0.001778807956725359,-0.46041557192802435,0.6488822102546693,-0.869172215461731,0.10440055408855413,4.249627593274955,0.14814551311844715,,,,,,
4,22,-0.5731143951416016,-0.12348468601703644,9.855476379394531,0.005195640493184329,-0.006357966922223568,0.000742435280699283,-0.4600207805633545,0.6489413380622865,-0.8727082014083862,0.10556947353689093,4.247228043761125,0.14804455763749336,,,,,,
4,23,-0.6483218073844911,-0.1844727843999863,9.802183151245117,0.0030927364714443684,-0.0027679000049829483,0.0006675312179140748,-0.46198225021362305,0.6489843726158143,-0.8742133378982544,0.10544113556686271,4.246726902229396,0.14787492285622428,,,,,,
4,24,-0.6538373231887817,-0.08507087826728821,9.738963127136232,0.00978637393563986,-0.004464446566998959,0.004115984309464694,-0.4619205594062805,0.6489393115043641,-0.8716893196105957,0.10915435284061752,4.24516151324446,0.14964160096513152,,,,,,
4,25,-0.5083993077278138,-0.026446104049682617,9.799543380737305,0.008682931773364546,-0.005770074669271708,0.0005785865942016244,-0.4585233628749848,0.6508172750473022,-0.8691379427909852,0.11814613180551693,4.235981328705199,0.15330858540672912,,,,,,
4,26,-0.5083993077278138,-0.026446104049682617,9.799543380737305,0.008682931773364546,-0.005770074669271708,0.0005785865942016244,-0.4585233628749848,0.6508172750473022,-0.8691379427909852,0.11814613180551693,4.235981328705199,0.15330858540672912,,,,,,
4,27,-0.5083993077278138,-0.026446104049682617,9.799543380737305,0.008682931773364546,-0.005770074669271708,0.0005785865942016244,-0.4585233628749848,0.6508172750473022,-0.8691379427909852,0.11814613180551693,4.235981328705199,0.15330858540672912,,,,,,
4,28,-0.5766341686248779,-0.09427771717309953,9.79636859893799,0.00902416743338108,-0.0036469560582190756,0.0031837082933634524,-0.46191203594207764,0.649896800518036,-0.8706579804420472,0.12402716285179691,4.231263856704433,0.15514701349738366,,,,,,
4,29,-0.5766724944114686,-0.10244869440793992,9.79153823852539,0.009319931268692017,-0.0033627070952206854,0.004624293185770512,-0.46090519428253174,0.6479287147521973,-0.8702012896537782,0.1273575847060514,4.229466166165935,0.15715013316682025,,,,,,
4,30,-0.5766724944114686,-0.10244869440793992,9.79153823852539,0.009319931268692017,-0.0033627070952206854,0.004624293185770512,-0.46090519428253174,0.6479287147521973,-0.8702012896537782,0.1273575847060514,4.229466166165935,0.15715013316682025,,,,,,
4,31,-0.6005130410194398,-0.0400548055768013,9.816320419311523,0.007198777049779892,-0.0009494996047578753,0.006751692853868008,-0.46089667081832886,0.6488862037658691,-0.8691698908805848,0.1320942031964233,4.22722735055892,0.16039646285721015,,,,,,
4,32,-0.6005130410194398,-0.0400548055768013,9.816320419311523,0.007198777049779892,-0.0009494996047578753,0.006751692853868008,-0.46089667081832886,0.6488862037658691,-0.8691698908805848,0.1320942031964233,4.22722735055892,0.16039646285721015,,,,,,
4,33,-0.6473661065101625,-0.02007589489221573,9.811713218688967,0.006691368296742439,-0.00027342708199284976,0.00396668678149581,-0.46140629053115845,0.6498748064041138,-0.8696507215499878,0.13378812483597177,4.226831493701121,0.16198818259989758,,,,,,
4,34,-0.6748306751251221,-0.04709471389651299,9.796733856201172,0.008460874669253828,0.00021007657051086426,0.002728045685216785,-0.46139395236968994,0.6498657464981079,-0.8691458702087402,0.13645233880781088,4.226652889950263,0.16287036399535051,,,,,,
4,35,-0.7196210622787476,-0.11604707688093187,9.775415420532227,0.007914386689662933,0.0006082618492655457,0.004502733703702689,-0.4624092876911164,0.6508763432502748,-0.870633900165558,0.14143685784383206,4.226439558054327,0.16982745197816407,,,,,,
4,36,-0.7196210622787476,-0.11604707688093187,9.775415420532227,0.007914386689662933,0.0006082618492655457,0.004502733703702689,-0.4624092876911164,0.6508763432502748,-0.870633900165558,0.14143685784383206,4.226439558054327,0.16982745197816407,,,,,,
4,37,-0.7196210622787476,-0.11604707688093187,9.775415420532227,0.007914386689662933,0.0006082618492655457,0.004502733703702689,-0.4624092876911164,0.6508763432502748,-0.870633900165558,0.14143685784383206,4.226439558054327,0.16982745197816407,,,,,,
4,38,-0.7398974895477295,-0.05208315700292587,9.769652366638185,0.00939259957522154,0.000379597011487931,0.0075511340983212,-0.45946139097213745,0.6493620276451112,-0.8691659569740297,0.14464424597940104,4.226319970090825,0.17342230998688163,,,,,,
5,0,-0.8028874397277832,-0.049055442214012146,9.784682273864748,0.001408927026204765,0.003321473952382803,0.012650703079998495,-0.46186271309852606,0.6498607397079468,-0.8686387538909912,0.10179387092682705,4.22566584996515,0.14533813872301612,,,,,,
5,1,-0.8028874397277832,-0.049055442214012146,9.784682273864748,0.001408927026204765,0.003321473952382803,0.012650703079998495,-0.46186271309852606,0.6498607397079468,-0.8686387538909912,0.10179387092682705,4.22566584996515,0.14533813872301612,,,,,,
5,2,-0.8028874397277832,-0.049055442214012146,9.784682273864748,0.001408927026204765,0.003321473952382803,0.012650703079998495,-0.46186271309852606,0.6498607397079468,-0.8686387538909912,0.10179387092682705,4.22566584996515,0.14533813872301612,,,,,,
5,3,-0.8028874397277832,-0.049055442214012146,9.784682273864748,0.001408927026204765,0.003321473952382803,0.012650703079998495,-0.46186271309852606,0.6498607397079468,-0.8686387538909912,0.10179387092682705,4.22566584996515,0.14533813872301612,,,,,,
5,4,-0.8028874397277832,-0.049055442214012146,9.784682273864748,0.001408927026204765,0.003321473952382803,0.012650703079998495,-0.46186271309852606,0.6498607397079468,-0.8686387538909912,0.10179387092682705,4.22566584996515,0.14533813872301612,,,,,,
5,5,-1.0021094083786013,-0.03895267471671105,9.77662467956543,0.0035178461112082005,-0.0003735831996891648,0.010737023316323759,-0.46188738942146307,0.6498787999153138,-0.8696483969688417,0.10273620526783603,4.225202245728076,0.1510505477546398,,,,,,
5,6,-1.2510000467300417,-0.0812363848090172,9.79896640777588,-0.0009585150983184576,0.001147386385127902,0.006482755299657584,-0.46329417824745184,0.6484184265136719,-0.8691692352294922,0.1015936089451295,4.225477662908149,0.15708213566184248,,,,,,
5,7,-1.2510000467300417,-0.0812363848090172,9.79896640777588,-0.0009585150983184576,0.001147386385127902,0.006482755299657584,-0.46329417824745184,0.6484184265136719,-0.8691692352294922,0.1015936089451295,4.225477662908149,0.15708213566184248,,,,,,
5,8,-1.2431231737136843,-0.10984155535697937,9.759576797485352,0.0025778419803828005,0.01172863319516182,0.005535162054002285,-0.46185415983200073,0.6508182883262635,-0.8676074147224427,0.10036310190023999,4.236177245407859,0.16258598620581666,,,,,,
5,9,-0.9184997677803041,0.02495016343891621,9.845148086547852,0.0008523471769876779,-0.00015533450641669333,0.0005047681042924523,-0.46190351247787476,0.6508543491363525,-0.8696266412734985,0.10072201121868675,4.257897337781613,0.16211858780862567,,,,,,
5,10,-0.9184997677803041,0.02495016343891621,9.845148086547852,0.0008523471769876779,-0.00015533450641669333,0.0005047681042924523,-0.46190351247787476,0.6508543491363525,-0.8696266412734985,0.10072201121868675,4.257897337781613,0.16211858780862567,,,,,,
5,11,-0.9184997677803041,0.02495016343891621,9.845148086547852,0.0008523471769876779,-0.00015533450641669333,0.0005047681042924523,-0.46190351247787476,0.6508543491363525,-0.8696266412734985,0.10072201121868675,4.257897337781613,0.16211858780862567,,,,,,
5,12,-0.9184997677803041,0.02495016343891621,9.845148086547852,0.0008523471769876779,-0.00015533450641669333,0.0005047681042924523,-0.46190351247787476,0.6508543491363525,-0.8696266412734985,0.10072201121868675,4.257897337781613,0.16211858780862567,,,,,,
5,13,-0.9184997677803041,0.02495016343891621,9.845148086547852,0.0008523471769876779,-0.00015533450641669333,0.0005047681042924523,-0.46190351247787476,0.6508543491363525,-0.8696266412734985,0.10072201121868675,4.257897337781613,0.16211858780862567,,,,,,
5,14,-0.7810639739036561,0.026088248938322067,9.822874069213867,0.0028200410306453705,-0.0036939878482371573,-0.0037692664191126823,-0.46088385581970215,0.6503224968910218,-0.8676229119300843,0.10054498231943955,4.258613211927671,0.1595183707115457,,,,,,
5,15,-0.6369430422782899,0.06485122442245483,9.813408851623537,0.004755767527967692,-0.004672247450798751,-0.00407356396317482,-0.46087151765823364,0.650313436985016,-0.8671181201934814,0.10149951297777762,4.258762979581839,0.1567528100797606,,,,,,
5,16,-0.507940709590912,0.009966820478439331,9.799517631530763,0.0054191877134144315,-0.006855301558971405,-0.006923421751707793,-0.45998713374137884,0.6513261198997499,-0.8696249723434448,0.10278184711481007,4.257535032054258,0.15236589425494845,,,,,,
5,17,-0.478173702955246,-0.0802043452858925,9.771397590637209,0.0048961383290588864,-0.00531376525759697,-0.002607717178761959,-0.4599913954734802,0.6508473753929139,-0.8701406717300415,0.10396877535841301,4.256949187199781,0.15046168854826014,,,,,,
5,18,-0.47059896588325506,-0.13238880038261414,9.774964332580568,0.00014520816330332312,-0.005820007994771004,-0.001336242654360831,-0.4604402184486389,0.6489002704620361,-0.8701818585395814,0.10242858820295361,4.25581443500083,0.14926531079919042,,,,,,
5,19,-0.4867832064628601,-0.12732587754726413,9.790393829345703,0.003929441794753075,-0.007430458441376686,-9.980287723010407e-05,-0.4599913954734802,0.6508473753929139,-0.8701406717300415,0.103005859920014,4.253496100162578,0.1487424074630791,,,,,,
5,20,-0.5202251672744751,-0.05270708352327347,9.824844360351562,0.003687680466100574,-0.006405257619917393,-0.001778807956725359,-0.46041557192802435,0.6488822102546693,-0.869172215461731,0.10440055408855413,4.249627593274955,0.14814551311844715,,,,,,
5,21,-0.5202251672744751,-0.05270708352327347,9.824844360351562,0.003687680466100574,-0.006405257619917393,-0.001778807956725359,-0.46041557192802435,0.6488822102546693,-0.869172215461731,0.10440055408855413,4.249627593274955,0.14814551311844715,,,,,,
5,22,-0.5731143951416016,-0.12348468601703644,9.855476379394531,0.005195640493184329,-0.006357966922223568,0.000742435280699283,-0.4600207805633545,0.6489413380622865,-0.8727082014083862,0.10556947353689093,4.247228043761125,0.14804455763749336,,,,,,
5,23,-0.6483218073844911,-0.1844727843999863,9.802183151245117,0.0030927364714443684,-0.0027679000049829483,0.0006675312179140748,-0.46198225021362305,0.6489843726158143,-0.8742133378982544,0.10544113556686271,4.246726902229396,0.14787492285622428,,,,,,
5,24,-0.6538373231887817,-0.08507087826728821,9.738963127136232,0.00978637393563986,-0.004464446566998959,0.004115984309464694,-0.4619205594062805,0.6489393115043641,-0.8716893196105957,0.10915435284061752,4.24516151324446,0.14964160096513152,,,,,,
5,25,-0.5083993077278138,-0.026446104049682617,9.799543380737305,0.008682931773364546,-0.005770074669271708,0.0005785865942016244,-0.4585233628749848,0.6508172750473022,-0.8691379427909852,0.11814613180551693,4.235981328705199,0.15330858540672912,,,,,,
5,26,-0.5083993077278138,-0.026446104049682617,9.799543380737305,0.008682931773364546,-0.005770074669271708,0.0005785865942016244,-0.4585233628749848,0.6508172750473022,-0.8691379427909852,0.11814613180551693,4.235981328705199,0.15330858540672912,,,,,,
5,27,-0.5083993077278138,-0.026446104049682617,9.799543380737305,0.008682931773364546,-0.005770074669271708,0.0005785865942016244,-0.4585233628749848,0.6508172750473022,-0.8691379427909852,0.11814613180551693,4.235981328705199,0.15330858540672912,,,,,,
5,28,-0.5766341686248779,-0.09427771717309953,9.79636859893799,0.00902416743338108,-0.0036469560582190756,0.0031837082933634524,-0.46191203594207764,0.649896800518036,-0.8706579804420472,0.12402716285179691,4.231263856704433,0.15514701349738366,,,,,,
5,29,-0.5766724944114686,-0.10244869440793992,9.79153823852539,0.009319931268692017,-0.0033627070952206854,0.004624293185770512,-0.46090519428253174,0.6479287147521973,-0.8702012896537782,0.1273575847060514,4.229466166165935,0.15715013316682025,,,,,,
5,30,-0.5766724944114686,-0.10244869440793992,9.79153823852539,0.009319931268692017,-0.0033627070952206854,0.004624293185770512,-0.46090519428253174,0.6479287147521973,-0.8702012896537782,0.1273575847060514,4.229466166165935,0.15715013316682025,,,,,,
5,31,-0.6005130410194398,-0.0400548055768013,9.816320419311523,0.007198777049779892,-0.0009494996047578753,0.006751692853868008,-0.46089667081832886,0.6488862037658691,-0.8691698908805848,0.1320942031964233,4.22722735055892,0.16039646285721015,,,,,,
5,32,-0.6005130410194398,-0.0400548055768013,9.816320419311523,0.007198777049779892,-0.0009494996047578753,0.006751692853868008,-0.46089667081832886,0.6488862037658691,-0.8691698908805848,0.1320942031964233,4.22722735055892,0.16039646285721015,,,,,,
5,33,-0.6473661065101625,-0.02007589489221573,9.811713218688967,0.006691368296742439,-0.00027342708199284976,0.00396668678149581,-0.46140629053115845,0.6498748064041138,-0.8696507215499878,0.13378812483597177,4.226831493701121,0.16198818259989758,,,,,,
5,34,-0.6748306751251221,-0.04709471389651299,9.796733856201172,0.008460874669253828,0.00021007657051086426,0.002728045685216785,-0.46139395236968994,0.6498657464981079,-0.8691458702087402,0.13645233880781088,4.226652889950263,0.16287036399535051,,,,,,
5,35,-0.7196210622787476,-0.11604707688093187,9.775415420532227,0.007914386689662933,0.0006082618492655457,0.004502733703702689,-0.4624092876911164,0.6508763432502748,-0.870633900165558,0.14143685784383206,4.226439558054327,0.16982745197816407,,,,,,
5,36,-0.7196210622787476,-0.11604707688093187,9.775415420532227,0.007914386689662933,0.0006082618492655457,0.004502733703702689,-0.4624092876911164,0.6508763432502748,-0.870633900165558,0.14143685784383206,4.226439558054327,0.16982745197816407,,,,,,
5,37,-0.7196210622787476,-0.11604707688093187,9.775415420532227,0.007914386689662933,0.0006082618492655457,0.004502733703702689,-0.4624092876911164,0.6508763432502748,-0.870633900165558,0.14143685784383206,4.226439558054327,0.16982745197816407,,,,,,
5,38,-0.7398974895477295,-0.05208315700292587,9.769652366638185,0.00939259957522154,0.000379597011487931,0.0075511340983212,-0.45946139097213745,0.6493620276451112,-0.8691659569740297,0.14464424597940104,4.226319970090825,0.17342230998688163,,,,,,
6,0,-0.8028874397277832,-0.049055442214012146,9.784682273864748,0.001408927026204765,0.003321473952382803,0.012650703079998495,-0.46186271309852606,0.6498607397079468,-0.8686387538909912,0.10179387092682705,4.22566584996515,0.14533813872301612,,,,,,
6,1,-0.8028874397277832,-0.049055442214012146,9.784682273864748,0.001408927026204765,0.003321473952382803,0.012650703079998495,-0.46186271309852606,0.6498607397079468,-0.8686387538909912,0.10179387092682705,4.22566584996515,0.14533813872301612,,,,,,
6,2,-0.8028874397277832,-0.049055442214012146,9.784682273864748,0.001408927026204765,0.003321473952382803,0.012650703079998495,-0.46186271309852606,0.6498607397079468,-0.8686387538909912,0.10179387092682705,4.22566584996515,0.14533813872301612,,,,,,
6,3,-0.8028874397277832,-0.049055442214012146,9.784682273864748,0.001408927026204765,0.003321473952382803,0.012650703079998495,-0.46186271309852606,0.6498607397079468,-0.8686387538909912,0.10179387092682705,4.22566584996515,0.14533813872301612,,,,,,
6,4,-0.8028874397277832,-0.049055442214012146,9.784682273864748,0.001408927026204765,0.003321473952382803,0.012650703079998495,-0.46186271309852606,0.6498607397079468,-0.8686387538909912,0.10179387092682705,4.22566584996515,0.14533813872301612,,,,,,
6,5,-1.0021094083786013,-0.03895267471671105,9.77662467956543,0.0035178461112082005,-0.0003735831996891648,0.010737023316323759,-0.46188738942146307,0.6498787999153138,-0.8696483969688417,0.10273620526783603,4.225202245728076,0.1510505477546398,,,,,,
6,6,-1.2510000467300417,-0.0812363848090172,9.79896640777588,-0.0009585150983184576,0.001147386385127902,0.006482755299657584,-0.46329417824745184,0.6484184265136719,-0.8691692352294922,0.1015936089451295,4.225477662908149,0.15708213566184248,,,,,,
6,7,-1.2510000467300417,-0.0812363848090172,9.79896640777588,-0.0009585150983184576,0.001147386385127902,0.006482755299657584,-0.46329417824745184,0.6484184265136719,-0.8691692352294922,0.1015936089451295,4.225477662908149,0.15708213566184248,,,,,,
6,8,-1.2431231737136843,-0.10984155535697937,9.759576797485352,0.0025778419803828005,0.01172863319516182,0.005535162054002285,-0.46185415983200073,0.6508182883262635,-0.8676074147224427,0.10036310190023999,4.236177245407859,0.16258598620581666,,,,,,
6,9,-0.9184997677803041,0.02495016343891621,9.845148086547852,0.0008523471769876779,-0.00015533450641669333,0.0005047681042924523,-0.46190351247787476,0.6508543491363525,-0.8696266412734985,0.10072201121868675,4.257897337781613,0.16211858780862567,,,,,,
6,10,-0.9184997677803041,0.02495016343891621,9.845148086547852,0.0008523471769876779,-0.00015533450641669333,0.0005047681042924523,-0.46190351247787476,0.6508543491363525,-0.8696266412734985,0.10072201121868675,4.257897337781613,0.16211858780862567,,,,,,
6,11,-0.9184997677803041,0.02495016343891621,9.845148086547852,0.0008523471769876779,-0.00015533450641669333,0.0005047681042924523,-0.46190351247787476,0.6508543491363525,-0.8696266412734985,0.10072201121868675,4.257897337781613,0.16211858780862567,,,,,,
6,12,-0.9184997677803041,0.02495016343891621,9.845148086547852,0.0008523471769876779,-0.00015533450641669333,0.0005047681042924523,-0.46190351247787476,0.6508543491363525,-0.8696266412734985,0.10072201121868675,4.257897337781613,0.16211858780862567,,,,,,
6,13,-0.9184997677803041,0.02495016343891621,9.845148086547852,0.0008523471769876779,-0.00015533450641669333,0.0005047681042924523,-0.46190351247787476,0.6508543491363525,-0.8696266412734985,0.10072201121868675,4.257897337781613,0.16211858780862567,,,,,,
6,14,-0.7810639739036561,0.026088248938322067,9.822874069213867,0.0028200410306453705,-0.0036939878482371573,-0.0037692664191126823,-0.46088385581970215,0.6503224968910218,-0.8676229119300843,0.10054498231943955,4.258613211927671,0.1595183707115457,,,,,,
6,15,-0.6369430422782899,0.06485122442245483,9.813408851623537,0.004755767527967692,-0.004672247450798751,-0.00407356396317482,-0.46087151765823364,0.650313436985016,-0.8671181201934814,0.10149951297777762,4.258762979581839,0.1567528100797606,,,,,,
6,16,-0.507940709590912,0.009966820478439331,9.799517631530763,0.0054191877134144315,-0.006855301558971405,-0.006923421751707793,-0.45998713374137884,0.6513261198997499,-0.8696249723434448,0.10278184711481007,4.257535032054258,0.15236589425494845,,,,,,
6,17,-0.478173702955246,-0.0802043452858925,9.771397590637209,0.0048961383290588864,-0.00531376525759697,-0.002607717178761959,-0.4599913954734802,0.6508473753929139,-0.8701406717300415,0.10396877535841301,4.256949187199781,0.15046168854826014,,,,,,
6,18,-0.47059896588325506,-0.13238880038261414,9.774964332580568,0.00014520816330332312,-0.005820007994771004,-0.001336242654360831,-0.4604402184486389,0.6489002704620361,-0.8701818585395814,0.10242858820295361,4.25581443500083,0.14926531079919042,,,,,,
6,19,-0.4867832064628601,-0.12732587754726413,9.790393829345703,0.003929441794753075,-0.007430458441376686,-9.980287723010407e-05,-0.4599913954734802,0.6508473753929139,-0.8701406717300415,0.103005859920014,4.253496100162578,0.1487424074630791,,,,,,
6,20,-0.5202251672744751,-0.05270708352327347,9.824844360351562,0.003687680466100574,-0.006405257619917393,-0.001778807956725359,-0.46041557192802435,0.6488822102546693,-0.869172215461731,0.10440055408855413,4.249627593274955,0.14814551311844715,,,,,,
6,21,-0.5202251672744751,-0.05270708352327347,9.824844360351562,0.003687680466100574,-0.006405257619917393,-0.001778807956725359,-0.46041557192802435,0.6488822102546693,-0.869172215461731,0.10440055408855413,4.249627593274955,0.14814551311844715,,,,,,
6,22,-0.5731143951416016,-0.12348468601703644,9.855476379394531,0.005195640493184329,-0.006357966922223568,0.000742435280699283,-0.4600207805633545,0.6489413380622865,-0.8727082014083862,0.10556947353689093,4.247228043761125,0.14804455763749336,,,,,,
6,23,-0.6483218073844911,-0.1844727843999863,9.802183151245117,0.0030927364714443684,-0.0027679000049829483,0.0006675312179140748,-0.46198225021362305,0.6489843726158143,-0.8742133378982544,0.10544113556686271,4.246726902229396,0.14787492285622428,,,,,,
6,24,-0.6538373231887817,-0.08507087826728821,9.738963127136232,0.00978637393563986,-0.004464446566998959,0.004115984309464694,-0.4619205594062805,0.6489393115043641,-0.8716893196105957,0.10915435284061752,4.24516151324446,0.14964160096513152,,,,,,
6,25,-0.5083993077278138,-0.026446104049682617,9.799543380737305,0.008682931773364546,-0.005770074669271708,0.0005785865942016244,-0.4585233628749848,0.6508172750473022,-0.8691379427909852,0.11814613180551693,4.235981328705199,0.15330858540672912,,,,,,
6,26,-0.5083993077278138,-0.026446104049682617,9.799543380737305,0.008682931773364546,-0.005770074669271708,0.0005785865942016244,-0.4585233628749848,0.6508172750473022,-0.8691379427909852,0.11814613180551693,4.235981328705199,0.15330858540672912,,,,,,
6,27,-0.5083993077278138,-0.026446104049682617,9.799543380737305,0.008682931773364546,-0.005770074669271708,0.0005785865942016244,-0.4585233628749848,0.6508172750473022,-0.8691379427909852,0.11814613180551693,4.235981328705199,0.15330858540672912,,,,,,
6,28,-0.5766341686248779,-0.09427771717309953,9.79636859893799,0.00902416743338108,-0.0036469560582190756,0.0031837082933634524,-0.46191203594207764,0.649896800518036,-0.8706579804420472,0.12402716285179691,4.231263856704433,0.15514701349738366,,,,,,
6,29,-0.5766724944114686,-0.10244869440793992,9.79153823852539,0.009319931268692017,-0.0033627070952206854,0.004624293185770512,-0.46090519428253174,0.6479287147521973,-0.8702012896537782,0.1273575847060514,4.229466166165935,0.15715013316682025,,,,,,
6,30,-0.5766724944114686,-0.10244869440793992,9.79153823852539,0.009319931268692017,-0.0033627070952206854,0.004624293185770512,-0.46090519428253174,0.6479287147521973,-0.8702012896537782,0.1273575847060514,4.229466166165935,0.15715013316682025,,,,,,
6,31,-0.6005130410194398,-0.0400548055768013,9.816320419311523,0.007198777049779892,-0.0009494996047578753,0.006751692853868008,-0.46089667081832886,0.6488862037658691,-0.8691698908805848,0.1320942031964233,4.22722735055892,0.16039646285721015,,,,,,
6,32,-0.6005130410194398,-0.0400548055768013,9.816320419311523,0.007198777049779892,-0.0009494996047578753,0.006751692853868008,-0.46089667081832886,0.6488862037658691,-0.8691698908805848,0.1320942031964233,4.22722735055892,0.16039646285721015,,,,,,
6,33,-0.6473661065101625,-0.02007589489221573,9.811713218688967,0.006691368296742439,-0.00027342708199284976,0.00396668678149581,-0.46140629053115845,0.6498748064041138,-0.8696507215499878,0.13378812483597177,4.226831493701121,0.16198818259989758,,,,,,
6,34,-0.6748306751251221,-0.04709471389651299,9.796733856201172,0.008460874669253828,0.00021007657051086426,0.002728045685216785,-0.46139395236968994,0.6498657464981079,-0.8691458702087402,0.13645233880781088,4.226652889950263,0.16287036399535051,,,,,,
6,35,-0.7196210622787476,-0.11604707688093187,9.775415420532227,0.007914386689662933,0.0006082618492655457,0.004502733703702689,-0.4624092876911164,0.6508763432502748,-0.870633900165558,0.14143685784383206,4.226439558054327,0.16982745197816407,,,,,,
6,36,-0.7196210622787476,-0.11604707688093187,9.775415420532227,0.007914386689662933,0.0006082618492655457,0.004502733703702689,-0.4624092876911164,0.6508763432502748,-0.870633900165558,0.14143685784383206,4.226439558054327,0.16982745197816407,,,,,,
6,37,-0.7196210622787476,-0.11604707688093187,9.775415420532227,0.007914386689662933,0.0006082618492655457,0.004502733703702689,-0.4624092876911164,0.6508763432502748,-0.870633900165558,0.14143685784383206,4.226439558054327,0.16982745197816407,,,,,,
6,38,-0.7398974895477295,-0.05208315700292587,9.769652366638185,0.00939259957522154,0.000379597011487931,0.0075511340983212,-0.45946139097213745,0.6493620276451112,-0.8691659569740297,0.14464424597940104,4.226319970090825,0.17342230998688163,,,,,,
7,0,-0.8028874397277832,-0.049055442214012146,9.784682273864748,0.001408927026204765,0.003321473952382803,0.012650703079998495,-0.46186271309852606,0.6498607397079468,-0.8686387538909912,0.10179387092682705,4.22566584996515,0.14533813872301612,,,,,,
7,1,-0.8028874397277832,-0.049055442214012146,9.784682273864748,0.001408927026204765,0.003321473952382803,0.012650703079998495,-0.46186271309852606,0.6498607397079468,-0.8686387538909912,0.10179387092682705,4.22566584996515,0.14533813872301612,,,,,,
7,2,-0.8028874397277832,-0.049055442214012146,9.784682273864748,0.001408927026204765,0.003321473952382803,0.012650703079998495,-0.46186271309852606,0.6498607397079468,-0.8686387538909912,0.10179387092682705,4.22566584996515,0.14533813872301612,,,,,,
7,3,-0.8028874397277832,-0.049055442214012146,9.784682273864748,0.001408927026204765,0.003321473952382803,0.012650703079998495,-0.46186271309852606,0.6498607397079468,-0.8686387538909912,0.10179387092682705,4.22566584996515,0.14533813872301612,,,,,,
7,4,-0.8028874397277832,-0.049055442214012146,9.784682273864748,0.001408927026204765,0.003321473952382803,0.012650703079998495,-0.46186271309852606,0.6498607397079468,-0.8686387538909912,0.10179387092682705,4.22566584996515,0.14533813872301612,,,,,,
7,5,-1.0021094083786013,-0.03895267471671105,9.77662467956543,0.0035178461112082005,-0.0003735831996891648,0.010737023316323759,-0.46188738942146307,0.6498787999153138,-0.8696483969688417,0.10273620526783603,4.225202245728076,0.1510505477546398,,,,,,
7,6,-1.2510000467300417,-0.0812363848090172,9.79896640777588,-0.0009585150983184576,0.001147386385127902,0.006482755299657584,-0.46329417824745184,0.6484184265136719,-0.8691692352294922,0.1015936089451295,4.225477662908149,0.15708213566184248,,,,,,
7,7,-1.2510000467300417,-0.0812363848090172,9.79896640777588,-0.0009585150983184576,0.001147386385127902,0.006482755299657584,-0.46329417824745184,0.6484184265136719,-0.8691692352294922,0.1015936089451295,4.225477662908149,0.15708213566184248,,,,,,
7,8,-1.2431231737136843,-0.10984155535697937,9.759576797485352,0.0025778419803828005,0.01172863319516182,0.005535162054002285,-0.46185415983200073,0.6508182883262635,-0.8676074147224427,0.10036310190023999,4.236177245407859,0.16258598620581666,,,,,,
7,9,-0.9184997677803041,0.02495016343891621,9.845148086547852,0.0008523471769876779,-0.00015533450641669333,0.0005047681042924523,-0.46190351247787476,0.6508543491363525,-0.8696266412734985,0.10072201121868675,4.257897337781613,0.16211858780862567,,,,,,
7,10,-0.9184997677803041,0.02495016343891621,9.845148086547852,0.0008523471769876779,-0.00015533450641669333,0.0005047681042924523,-0.46190351247787476,0.6508543491363525,-0.8696266412734985,0.10072201121868675,4.257897337781613,0.16211858780862567,,,,,,
7,11,-0.9184997677803041,0.02495016343891621,9.845148086547852,0.0008523471769876779,-0.00015533450641669333,0.0005047681042924523,-0.46190351247787476,0.6508543491363525,-0.8696266412734985,0.10072201121868675,4.257897337781613,0.16211858780862567,,,,,,
7,12,-0.9184997677803041,0.02495016343891621,9.845148086547852,0.0008523471769876779,-0.00015533450641669333,0.0005047681042924523,-0.46190351247787476,0.6508543491363525,-0.8696266412734985,0.10072201121868675,4.257897337781613,0.16211858780862567,,,,,,
7,13,-0.9184997677803041,0.02495016343891621,9.845148086547852,0.0008523471769876779,-0.00015533450641669333,0.0005047681042924523,-0.46190351247787476,0.6508543491363525,-0.8696266412734985,0.10072201121868675,4.257897337781613,0.16211858780862567,,,,,,
7,14,-0.7810639739036561,0.026088248938322067,9.822874069213867,0.0028200410306453705,-0.0036939878482371573,-0.0037692664191126823,-0.46088385581970215,0.6503224968910218,-0.8676229119300843,0.10054498231943955,4.258613211927671,0.1595183707115457,,,,,,
7,15,-0.6369430422782899,0.06485122442245483,9.813408851623537,0.004755767527967692,-0.004672247450798751,-0.00407356396317482,-0.46087151765823364,0.650313436985016,-0.8671181201934814,0.10149951297777762,4.258762979581839,0.1567528100797606,,,,,,
7,16,-0.507940709590912,0.009966820478439331,9.799517631530763,0.0054191877134144315,-0.006855301558971405,-0.006923421751707793,-0.45998713374137884,0.6513261198997499,-0.8696249723434448,0.10278184711481007,4.257535032054258,0.15236589425494845,,,,,,
7,17,-0.478173702955246,-0.0802043452858925,9.771397590637209,0.0048961383290588864,-0.00531376525759697,-0.002607717178761959,-0.4599913954734802,0.6508473753929139,-0.8701406717300415,0.10396877535841301,4.256949187199781,0.15046168854826014,,,,,,
7,18,-0.47059896588325506,-0.13238880038261414,9.774964332580568,0.00014520816330332312,-0.005820007994771004,-0.001336242654360831,-0.4604402184486389,0.6489002704620361,-0.8701818585395814,0.10242858820295361,4.25581443500083,0.14926531079919042,,,,,,
7,19,-0.4867832064628601,-0.12732587754726413,9.790393829345703,0.003929441794753075,-0.007430458441376686,-9.980287723010407e-05,-0.4599913954734802,0.6508473753929139,-0.8701406717300415,0.103005859920014,4.253496100162578,0.1487424074630791,,,,,,
7,20,-0.5202251672744751,-0.05270708352327347,9.824844360351562,0.003687680466100574,-0.006405257619917393,-0.001778807956725359,-0.46041557192802435,0.6488822102546693,-0.869172215461731,0.10440055408855413,4.249627593274955,0.14814551311844715,,,,,,
7,21,-0.5202251672744751,-0.05270708352327347,9.824844360351562,0.003687680466100574,-0.006405257619917393,-0.001778807956725359,-0.46041557192802435,0.6488822102546693,-0.869172215461731,0.10440055408855413,4.249627593274955,0.14814551311844715,,,,,,
7,22,-0.5731143951416016,-0.12348468601703644,9.855476379394531,0.005195640493184329,-0.006357966922223568,0.000742435280699283,-0.4600207805633545,0.6489413380622865,-0.8727082014083862,0.10556947353689093,4.247228043761125,0.14804455763749336,,,,,,
7,23,-0.6483218073844911,-0.1844727843999863,9.802183151245117,0.0030927364714443684,-0.0027679000049829483,0.0006675312179140748,-0.46198225021362305,0.6489843726158143,-0.8742133378982544,0.10544113556686271,4.246726902229396,0.14787492285622428,,,,,,
7,24,-0.6538373231887817,-0.08507087826728821,9.738963127136232,0.00978637393563986,-0.004464446566998959,0.004115984309464694,-0.4619205594062805,0.6489393115043641,-0.8716893196105957,0.10915435284061752,4.24516151324446,0.14964160096513152,,,,,,
7,25,-0.5083993077278138,-0.026446104049682617,9.799543380737305,0.008682931773364546,-0.005770074669271708,0.0005785865942016244,-0.4585233628749848,0.6508172750473022,-0.8691379427909852,0.11814613180551693,4.235981328705199,0.15330858540672912,,,,,,
7,26,-0.5083993077278138,-0.026446104049682617,9.799543380737305,0.008682931773364546,-0.005770074669271708,0.0005785865942016244,-0.4585233628749848,0.6508172750473022,-0.8691379427909852,0.11814613180551693,4.235981328705199,0.15330858540672912,,,,,,
7,27,-0.5083993077278138,-0.026446104049682617,9.799543380737305,0.008682931773364546,-0.005770074669271708,0.0005785865942016244,-0.4585233628749848,0.6508172750473022,-0.8691379427909852,0.11814613180551693,4.235981328705199,0.15330858540672912,,,,,,
7,28,-0.5766341686248779,-0.09427771717309953,9.79636859893799,0.00902416743338108,-0.0036469560582190756,0.0031837082933634524,-0.46191203594207764,0.649896800518036,-0.8706579804420472,0.12402716285179691,4.231263856704433,0.15514701349738366,,,,,,
7,29,-0.5766724944114686,-0.10244869440793992,9.79153823852539,0.009319931268692017,-0.0033627070952206854,0.004624293185770512,-0.46090519428253174,0.6479287147521973,-0.8702012896537782,0.1273575847060514,4.229466166165935,0.15715013316682025,,,,,,
7,30,-0.5766724944114686,-0.10244869440793992,9.79153823852539,0.009319931268692017,-0.0033627070952206854,0.004624293185770512,-0.46090519428253174,0.6479287147521973,-0.8702012896537782,0.1273575847060514,4.229466166165935,0.15715013316682025,,,,,,
7,31,-0.6005130410194398,-0.0400548055768013,9.816320419311523,0.007198777049779892,-0.0009494996047578753,0.006751692853868008,-0.46089667081832886,0.6488862037658691,-0.8691698908805848,0.1320942031964233,4.22722735055892,0.16039646285721015,,,,,,
7,32,-0.6005130410194398,-0.0400548055768013,9.816320419311523,0.007198777049779892,-0.0009494996047578753,0.006751692853868008,-0.46089667081832886,0.6488862037658691,-0.8691698908805848,0.1320942031964233,4.22722735055892,0.16039646285721015,,,,,,
7,33,-0.6473661065101625,-0.02007589489221573,9.811713218688967,0.006691368296742439,-0.00027342708199284976,0.00396668678149581,-0.46140629053115845,0.6498748064041138,-0.8696507215499878,0.13378812483597177,4.226831493701121,0.16198818259989758,,,,,,
7,34,-0.6748306751251221,-0.04709471389651299,9.796733856201172,0.008460874669253828,0.00021007657051086426,0.002728045685216785,-0.46139395236968994,0.6498657464981079,-0.8691458702087402,0.13645233880781088,4.226652889950263,0.16287036399535051,,,,,,
7,35,-0.7196210622787476,-0.11604707688093187,9.775415420532227,0.007914386689662933,0.0006082618492655457,0.004502733703702689,-0.4624092876911164,0.6508763432502748,-0.870633900165558,0.14143685784383206,4.226439558054327,0.16982745197816407,,,,,,
7,36,-0.7196210622787476,-0.11604707688093187,9.775415420532227,0.007914386689662933,0.0006082618492655457,0.004502733703702689,-0.4624092876911164,0.6508763432502748,-0.870633900165558,0.14143685784383206,4.226439558054327,0.16982745197816407,,,,,,
7,37,-0.7196210622787476,-0.11604707688093187,9.775415420532227,0.007914386689662933,0.0006082618492655457,0.004502733703702689,-0.4624092876911164,0.6508763432502748,-0.870633900165558,0.14143685784383206,4.226439558054327,0.16982745197816407,,,,,,
7,38,-0.7398974895477295,-0.05208315700292587,9.769652366638185,0.00939259957522154,0.000379597011487931,0.0075511340983212,-0.45946139097213745,0.6493620276451112,-0.8691659569740297,0.14464424597940104,4.226319970090825,0.17342230998688163,,,,,,
8,0,-0.8028874397277832,-0.049055442214012146,9.784682273864748,0.001408927026204765,0.003321473952382803,0.012650703079998495,-0.46186271309852606,0.6498607397079468,-0.8686387538909912,0.10179387092682705,4.22566584996515,0.14533813872301612,,,,,,
8,1,-0.8028874397277832,-0.049055442214012146,9.784682273864748,0.001408927026204765,0.003321473952382803,0.012650703079998495,-0.46186271309852606,0.6498607397079468,-0.8686387538909912,0.10179387092682705,4.22566584996515,0.14533813872301612,,,,,,
8,2,-0.8028874397277832,-0.049055442214012146,9.784682273864748,0.001408927026204765,0.003321473952382803,0.012650703079998495,-0.46186271309852606,0.6498607397079468,-0.8686387538909912,0.10179387092682705,4.22566584996515,0.14533813872301612,,,,,,
8,3,-0.8028874397277832,-0.049055442214012146,9.784682273864748,0.001408927026204765,0.003321473952382803,0.012650703079998495,-0.46186271309852606,0.6498607397079468,-0.8686387538909912,0.10179387092682705,4.22566584996515,0.14533813872301612,,,,,,
8,4,-0.8028874397277832,-0.049055442214012146,9.784682273864748,0.001408927026204765,0.003321473952382803,0.012650703079998495,-0.46186271309852606,0.6498607397079468,-0.8686387538909912,0.10179387092682705,4.22566584996515,0.14533813872301612,,,,,,
8,5,-1.0021094083786013,-0.03895267471671105,9.77662467956543,0.0035178461112082005,-0.0003735831996891648,0.010737023316323759,-0.46188738942146307,0.6498787999153138,-0.8696483969688417,0.10273620526783603,4.225202245728076,0.1510505477546398,,,,,,
8,6,-1.2510000467300417,-0.0812363848090172,9.79896640777588,-0.0009585150983184576,0.001147386385127902,0.006482755299657584,-0.46329417824745184,0.6484184265136719,-0.8691692352294922,0.1015936089451295,4.225477662908149,0.15708213566184248,,,,,,
8,7,-1.2510000467300417,-0.0812363848090172,9.79896640777588,-0.0009585150983184576,0.001147386385127902,0.006482755299657584,-0.46329417824745184,0.6484184265136719,-0.8691692352294922,0.1015936089451295,4.225477662908149,0.15708213566184248,,,,,,
8,8,-1.2431231737136843,-0.10984155535697937,9.759576797485352,0.0025778419803828005,0.01172863319516182,0.005535162054002285,-0.46185415983200073,0.6508182883262635,-0.8676074147224427,0.10036310190023999,4.236177245407859,0.16258598620581666,,,,,,
8,9,-0.9184997677803041,0.02495016343891621,9.845148086547852,0.0008523471769876779,-0.00015533450641669333,0.0005047681042924523,-0.46190351247787476,0.6508543491363525,-0.8696266412734985,0.10072201121868675,4.257897337781613,0.16211858780862567,,,,,,
8,10,-0.9184997677803041,0.02495016343891621,9.845148086547852,0.0008523471769876779,-0.00015533450641669333,0.0005047681042924523,-0.46190351247787476,0.6508543491363525,-0.8696266412734985,0.10072201121868675,4.257897337781613,0.16211858780862567,,,,,,
8,11,-0.9184997677803041,0.02495016343891621,9.845148086547852,0.0008523471769876779,-0.00015533450641669333,0.0005047681042924523,-0.46190351247787476,0.6508543491363525,-0.8696266412734985,0.10072201121868675,4.257897337781613,0.16211858780862567,,,,,,
8,12,-0.9184997677803041,0.02495016343891621,9.845148086547852,0.0008523471769876779,-0.00015533450641669333,0.0005047681042924523,-0.46190351247787476,0.6508543491363525,-0.8696266412734985,0.10072201121868675,4.257897337781613,0.16211858780862567,,,,,,
8,13,-0.9184997677803041,0.02495016343891621,9.845148086547852,0.0008523471769876779,-0.00015533450641669333,0.0005047681042924523,-0.46190351247787476,0.6508543491363525,-0.8696266412734985,0.10072201121868675,4.257897337781613,0.16211858780862567,,,,,,
8,14,-0.7810639739036561,0.026088248938322067,9.822874069213867,0.0028200410306453705,-0.0036939878482371573,-0.0037692664191126823,-0.46088385581970215,0.6503224968910218,-0.8676229119300843,0.10054498231943955,4.258613211927671,0.1595183707115457,,,,,,
8,15,-0.6369430422782899,0.06485122442245483,9.813408851623537,0.004755767527967692,-0.004672247450798751,-0.00407356396317482,-0.46087151765823364,0.650313436985016,-0.8671181201934814,0.10149951297777762,4.258762979581839,0.1567528100797606,,,,,,
8,16,-0.507940709590912,0.009966820478439331,9.799517631530763,0.0054191877134144315,-0.006855301558971405,-0.006923421751707793,-0.45998713374137884,0.6513261198997499,-0.8696249723434448,0.10278184711481007,4.257535032054258,0.15236589425494845,,,,,,
8,17,-0.478173702955246,-0.0802043452858925,9.771397590637209,0.0048961383290588864,-0.00531376525759697,-0.002607717178761959,-0.4599913954734802,0.6508473753929139,-0.8701406717300415,0.10396877535841301,4.256949187199781,0.15046168854826014,,,,,,
8,18,-0.47059896588325506,-0.13238880038261414,9.774964332580568,0.00014520816330332312,-0.005820007994771004,-0.001336242654360831,-0.4604402184486389,0.6489002704620361,-0.8701818585395814,0.10242858820295361,4.25581443500083,0.14926531079919042,,,,,,
8,19,-0.4867832064628601,-0.12732587754726413,9.790393829345703,0.003929441794753075,-0.007430458441376686,-9.980287723010407e-05,-0.4599913954734802,0.6508473753929139,-0.8701406717300415,0.103005859920014,4.253496100162578,0.1487424074630791,,,,,,
8,20,-0.5202251672744751,-0.05270708352327347,9.824844360351562,0.003687680466100574,-0.006405257619917393,-0.001778807956725359,-0.46041557192802435,0.6488822102546693,-0.869172215461731,0.10440055408855413,4.249627593274955,0.14814551311844715,,,,,,
8,21,-0.5202251672744751,-0.05270708352327347,9.824844360351562,0.003687680466100574,-0.006405257619917393,-0.001778807956725359,-0.46041557192802435,0.6488822102546693,-0.869172215461731,0.10440055408855413,4.249627593274955,0.14814551311844715,,,,,,
8,22,-0.5731143951416016,-0.12348468601703644,9.855476379394531,0.005195640493184329,-0.006357966922223568,0.000742435280699283,-0.4600207805633545,0.6489413380622865,-0.8727082014083862,0.10556947353689093,4.247228043761125,0.14804455763749336,,,,,,
8,23,-0.6483218073844911,-0.1844727843999863,9.802183151245117,0.0030927364714443684,-0.0027679000049829483,0.0006675312179140748,-0.46198225021362305,0.6489843726158143,-0.8742133378982544,0.10544113556686271,4.246726902229396,0.14787492285622428,,,,,,
8,24,-0.6538373231887817,-0.08507087826728821,9.738963127136232,0.00978637393563986,-0.004464446566998959,0.004115984309464694,-0.4619205594062805,0.6489393115043641,-0.8716893196105957,0.10915435284061752,4.24516151324446,0.14964160096513152,,,,,,
8,25,-0.5083993077278138,-0.026446104049682617,9.799543380737305,0.008682931773364546,-0.005770074669271708,0.0005785865942016244,-0.4585233628749848,0.6508172750473022,-0.8691379427909852,0.11814613180551693,4.235981328705199,0.15330858540672912,,,,,,
8,26,-0.5083993077278138,-0.026446104049682617,9.799543380737305,0.008682931773364546,-0.005770074669271708,0.0005785865942016244,-0.4585233628749848,0.6508172750473022,-0.8691379427909852,0.11814613180551693,4.235981328705199,0.15330858540672912,,,,,,
8,27,-0.5083993077278138,-0.026446104049682617,9.799543380737305,0.008682931773364546,-0.005770074669271708,0.0005785865942016244,-0.4585233628749848,0.6508172750473022,-0.8691379427909852,0.11814613180551693,4.235981328705199,0.15330858540672912,,,,,,
8,28,-0.5766341686248779,-0.09427771717309953,9.79636859893799,0.00902416743338108,-0.0036469560582190756,0.0031837082933634524,-0.46191203594207764,0.649896800518036,-0.8706579804420472,0.12402716285179691,4.231263856704433,0.15514701349738366,,,,,,
8,29,-0.5766724944114686,-0.10244869440793992,9.79153823852539,0.009319931268692017,-0.0033627070952206854,0.004624293185770512,-0.46090519428253174,0.6479287147521973,-0.8702012896537782,0.1273575847060514,4.229466166165935,0.15715013316682025,,,,,,
8,30,-0.5766724944114686,-0.10244869440793992,9.79153823852539,0.009319931268692017,-0.0033627070952206854,0.004624293185770512,-0.46090519428253174,0.6479287147521973,-0.8702012896537782,0.1273575847060514,4.229466166165935,0.15715013316682025,,,,,,
8,31,-0.6005130410194398,-0.0400548055768013,9.816320419311523,0.007198777049779892,-0.0009494996047578753,0.006751692853868008,-0.46089667081832886,0.6488862037658691,-0.8691698908805848,0.1320942031964233,4.22722735055892,0.16039646285721015,,,,,,
8,32,-0.6005130410194398,-0.0400548055768013,9.816320419311523,0.007198777049779892,-0.0009494996047578753,0.006751692853868008,-0.46089667081832886,0.6488862037658691,-0.8691698908805848,0.1320942031964233,4.22722735055892,0.16039646285721015,,,,,,
8,33,-0.6473661065101625,-0.02007589489221573,9.811713218688967,0.006691368296742439,-0.00027342708199284976,0.00396668678149581,-0.46140629053115845,0.6498748064041138,-0.8696507215499878,0.13378812483597177,4.226831493701121,0.16198818259989758,,,,,,
8,34,-0.6748306751251221,-0.04709471389651299,9.796733856201172,0.008460874669253828,0.00021007657051086426,0.002728045685216785,-0.46139395236968994,0.6498657464981079,-0.8691458702087402,0.13645233880781088,4.226652889950263,0.16287036399535051,,,,,,
8,35,-0.7196210622787476,-0.11604707688093187,9.775415420532227,0.007914386689662933,0.0006082618492655457,0.004502733703702689,-0.4624092876911164,0.6508763432502748,-0.870633900165558,0.14143685784383206,4.226439558054327,0.16982745197816407,,,,,,
8,36,-0.7196210622787476,-0.11604707688093187,9.775415420532227,0.007914386689662933,0.0006082618492655457,0.004502733703702689,-0.4624092876911164,0.6508763432502748,-0.870633900165558,0.14143685784383206,4.226439558054327,0.16982745197816407,,,,,,
8,37,-0.7196210622787476,-0.11604707688093187,9.775415420532227,0.007914386689662933,0.0006082618492655457,0.004502733703702689,-0.4624092876911164,0.6508763432502748,-0.870633900165558,0.14143685784383206,4.226439558054327,0.16982745197816407,,,,,,
8,38,-0.7398974895477295,-0.05208315700292587,9.769652366638185,0.00939259957522154,0.000379597011487931,0.0075511340983212,-0.45946139097213745,0.6493620276451112,-0.8691659569740297,0.14464424597940104,4.226319970090825,0.17342230998688163,,,,,,
9,0,-0.8028874397277832,-0.049055442214012146,9.784682273864748,0.001408927026204765,0.003321473952382803,0.012650703079998495,-0.46186271309852606,0.6498607397079468,-0.8686387538909912,0.10179387092682705,4.22566584996515,0.14533813872301612,,,,,,
9,1,-0.8028874397277832,-0.049055442214012146,9.784682273864748,0.001408927026204765,0.003321473952382803,0.012650703079998495,-0.46186271309852606,0.6498607397079468,-0.8686387538909912,0.10179387092682705,4.22566584996515,0.14533813872301612,,,,,,
9,2,-0.8028874397277832,-0.049055442214012146,9.784682273864748,0.001408927026204765,0.003321473952382803,0.012650703079998495,-0.46186271309852606,0.6498607397079468,-0.8686387538909912,0.10179387092682705,4.22566584996515,0.14533813872301612,,,,,,
9,3,-0.8028874397277832,-0.049055442214012146,9.784682273864748,0.001408927026204765,0.003321473952382803,0.012650703079998495,-0.46186271309852606,0.6498607397079468,-0.8686387538909912,0.10179387092682705,4.22566584996515,0.14533813872301612,,,,,,
9,4,-0.8028874397277832,-0.049055442214012146,9.784682273864748,0.001408927026204765,0.003321473952382803,0.012650703079998495,-0.46186271309852606,0.6498607397079468,-0.8686387538909912,0.10179387092682705,4.22566584996515,0.14533813872301612,,,,,,
9,5,-1.0021094083786013,-0.03895267471671105,9.77662467956543,0.0035178461112082005,-0.0003735831996891648,0.010737023316323759,-0.46188738942146307,0.6498787999153138,-0.8696483969688417,0.10273620526783603,4.225202245728076,0.1510505477546398,,,,,,
9,6,-1.2510000467300417,-0.0812363848090172,9.79896640777588,-0.0009585150983184576,0.001147386385127902,0.006482755299657584,-0.46329417824745184,0.6484184265136719,-0.8691692352294922,0.1015936089451295,4.225477662908149,0.15708213566184248,,,,,,
9,7,-1.2510000467300417,-0.0812363848090172,9.79896640777588,-0.0009585150983184576,0.001147386385127902,0.006482755299657584,-0.46329417824745184,0.6484184265136719,-0.8691692352294922,0.1015936089451295,4.225477662908149,0.15708213566184248,,,,,,
9,8,-1.2431231737136843,-0.10984155535697937,9.759576797485352,0.0025778419803828005,0.01172863319516182,0.005535162054002285,-0.46185415983200073,0.6508182883262635,-0.8676074147224427,0.10036310190023999,4.236177245407859,0.16258598620581666,,,,,,
9,9,-0.9184997677803041,0.02495016343891621,9.845148086547852,0.0008523471769876779,-0.00015533450641669333,0.0005047681042924523,-0.46190351247787476,0.6508543491363525,-0.8696266412734985,0.10072201121868675,4.257897337781613,0.16211858780862567,,,,,,
9,10,-0.9184997677803041,0.02495016343891621,9.845148086547852,0.0008523471769876779,-0.00015533450641669333,0.0005047681042924523,-0.46190351247787476,0.6508543491363525,-0.8696266412734985,0.10072201121868675,4.257897337781613,0.16211858780862567,,,,,,
9,11,-0.9184997677803041,0.02495016343891621,9.845148086547852,0.0008523471769876779,-0.00015533450641669333,0.0005047681042924523,-0.46190351247787476,0.6508543491363525,-0.8696266412734985,0.10072201121868675,4.257897337781613,0.16211858780862567,,,,,,
9,12,-0.9184997677803041,0.02495016343891621,9.845148086547852,0.0008523471769876779,-0.00015533450641669333,0.0005047681042924523,-0.46190351247787476,0.6508543491363525,-0.8696266412734985,0.10072201121868675,4.257897337781613,0.16211858780862567,,,,,,
9,13,-0.9184997677803041,0.02495016343891621,9.845148086547852,0.0008523471769876779,-0.00015533450641669333,0.0005047681042924523,-0.46190351247787476,0.6508543491363525,-0.8696266412734985,0.10072201121868675,4.257897337781613,0.16211858780862567,,,,,,
9,14,-0.7810639739036561,0.026088248938322067,9.822874069213867,0.0028200410306453705,-0.0036939878482371573,-0.0037692664191126823,-0.46088385581970215,0.6503224968910218,-0.8676229119300843,0.10054498231943955,4.258613211927671,0.1595183707115457,,,,,,
9,15,-0.6369430422782899,0.06485122442245483,9.813408851623537,0.004755767527967692,-0.004672247450798751,-0.00407356396317482,-0.46087151765823364,0.650313436985016,-0.8671181201934814,0.10149951297777762,4.258762979581839,0.1567528100797606,,,,,,
9,16,-0.507940709590912,0.009966820478439331,9.799517631530763,0.0054191877134144315,-0.006855301558971405,-0.006923421751707793,-0.45998713374137884,0.6513261198997499,-0.8696249723434448,0.10278184711481007,4.257535032054258,0.15236589425494845,,,,,,
9,17,-0.478173702955246,-0.0802043452858925,9.771397590637209,0.0048961383290588864,-0.00531376525759697,-0.002607717178761959,-0.4599913954734802,0.6508473753929139,-0.8701406717300415,0.10396877535841301,4.256949187199781,0.15046168854826014,,,,,,
9,18,-0.47059896588325506,-0.13238880038261414,9.774964332580568,0.00014520816330332312,-0.005820007994771004,-0.001336242654360831,-0.4604402184486389,0.6489002704620361,-0.8701818585395814,0.10242858820295361,4.25581443500083,0.14926531079919042,,,,,,
9,19,-0.4867832064628601,-0.12732587754726413,9.790393829345703,0.003929441794753075,-0.007430458441376686,-9.980287723010407e-05,-0.4599913954734802,0.6508473753929139,-0.8701406717300415,0.103005859920014,4.253496100162578,0.1487424074630791,,,,,,
9,20,-0.5202251672744751,-0.05270708352327347,9.824844360351562,0.003687680466100574,-0.006405257619917393,-0.001778807956725359,-0.46041557192802435,0.6488822102546693,-0.869172215461731,0.10440055408855413,4.249627593274955,0.14814551311844715,,,,,,
9,21,-0.5202251672744751,-0.05270708352327347,9.824844360351562,0.003687680466100574,-0.006405257619917393,-0.001778807956725359,-0.46041557192802435,0.6488822102546693,-0.869172215461731,0.10440055408855413,4.249627593274955,0.14814551311844715,,,,,,
9,22,-0.5731143951416016,-0.12348468601703644,9.855476379394531,0.005195640493184329,-0.006357966922223568,0.000742435280699283,-0.4600207805633545,0.6489413380622865,-0.8727082014083862,0.10556947353689093,4.247228043761125,0.14804455763749336,,,,,,
9,23,-0.6483218073844911,-0.1844727843999863,9.802183151245117,0.0030927364714443684,-0.0027679000049829483,0.0006675312179140748,-0.46198225021362305,0.6489843726158143,-0.8742133378982544,0.10544113556686271,4.246726902229396,0.14787492285622428,,,,,,
9,24,-0.6538373231887817,-0.08507087826728821,9.738963127136232,0.00978637393563986,-0.004464446566998959,0.004115984309464694,-0.4619205594062805,0.6489393115043641,-0.8716893196105957,0.10915435284061752,4.24516151324446,0.14964160096513152,,,,,,
9,25,-0.5083993077278138,-0.026446104049682617,9.799543380737305,0.008682931773364546,-0.005770074669271708,0.0005785865942016244,-0.4585233628749848,0.6508172750473022,-0.8691379427909852,0.11814613180551693,4.235981328705199,0.15330858540672912,,,,,,
9,26,-0.5083993077278138,-0.026446104049682617,9.799543380737305,0.008682931773364546,-0.005770074669271708,0.0005785865942016244,-0.4585233628749848,0.6508172750473022,-0.8691379427909852,0.11814613180551693,4.235981328705199,0.15330858540672912,,,,,,
9,27,-0.5083993077278138,-0.026446104049682617,9.799543380737305,0.008682931773364546,-0.005770074669271708,0.0005785865942016244,-0.4585233628749848,0.6508172750473022,-0.8691379427909852,0.11814613180551693,4.235981328705199,0.15330858540672912,,,,,,
9,28,-0.5766341686248779,-0.09427771717309953,9.79636859893799,0.00902416743338108,-0.0036469560582190756,0.0031837082933634524,-0.46191203594207764,0.649896800518036,-0.8706579804420472,0.12402716285179691,4.231263856704433,0.15514701349738366,,,,,,
9,29,-0.5766724944114686,-0.10244869440793992,9.79153823852539,0.009319931268692017,-0.0033627070952206854,0.004624293185770512,-0.46090519428253174,0.6479287147521973,-0.8702012896537782,0.1273575847060514,4.229466166165935,0.15715013316682025,,,,,,
9,30,-0.5766724944114686,-0.10244869440793992,9.79153823852539,0.009319931268692017,-0.0033627070952206854,0.004624293185770512,-0.46090519428253174,0.6479287147521973,-0.8702012896537782,0.1273575847060514,4.229466166165935,0.15715013316682025,,,,,,
9,31,-0.6005130410194398,-0.0400548055768013,9.816320419311523,0.007198777049779892,-0.0009494996047578753,0.006751692853868008,-0.46089667081832886,0.6488862037658691,-0.8691698908805848,0.1320942031964233,4.22722735055892,0.16039646285721015,,,,,,
9,32,-0.6005130410194398,-0.0400548055768013,9.816320419311523,0.007198777049779892,-0.0009494996047578753,0.006751692853868008,-0.46089667081832886,0.6488862037658691,-0.8691698908805848,0.1320942031964233,4.22722735055892,0.16039646285721015,,,,,,
9,33,-0.6473661065101625,-0.02007589489221573,9.811713218688967,0.006691368296742439,-0.00027342708199284976,0.00396668678149581,-0.46140629053115845,0.6498748064041138,-0.8696507215499878,0.13378812483597177,4.226831493701121,0.16198818259989758,,,,,,
9,34,-0.6748306751251221,-0.04709471389651299,9.796733856201172,0.008460874669253828,0.00021007657051086426,0.002728045685216785,-0.46139395236968994,0.6498657464981079,-0.8691458702087402,0.13645233880781088,4.226652889950263,0.16287036399535051,,,,,,
9,35,-0.7196210622787476,-0.11604707688093187,9.775415420532227,0.007914386689662933,0.0006082618492655457,0.004502733703702689,-0.4624092876911164,0.6508763432502748,-0.870633900165558,0.14143685784383206,4.226439558054327,0.16982745197816407,,,,,,
9,36,-0.7196210622787476,-0.11604707688093187,9.775415420532227,0.007914386689662933,0.0006082618492655457,0.004502733703702689,-0.4624092876911164,0.6508763432502748,-0.870633900165558,0.14143685784383206,4.226439558054327,0.16982745197816407,,,,,,
9,37,-0.7196210622787476,-0.11604707688093187,9.775415420532227,0.007914386689662933,0.0006082618492655457,0.004502733703702689,-0.4624092876911164,0.6508763432502748,-0.870633900165558,0.14143685784383206,4.226439558054327,0.16982745197816407,,,,,,
9,38,-0.7398974895477295,-0.05208315700292587,9.769652366638185,0.00939259957522154,0.000379597011487931,0.0075511340983212,-0.45946139097213745,0.6493620276451112,-0.8691659569740297,0.14464424597940104,4.226319970090825,0.17342230998688163,,,,,,
10,0,-0.8028874397277832,-0.049055442214012146,9.784682273864748,0.001408927026204765,0.003321473952382803,0.012650703079998495,-0.46186271309852606,0.6498607397079468,-0.8686387538909912,0.10179387092682705,4.22566584996515,0.14533813872301612,,,,,,
10,1,-0.8028874397277832,-0.049055442214012146,9.784682273864748,0.001408927026204765,0.003321473952382803,0.012650703079998495,-0.46186271309852606,0.6498607397079468,-0.8686387538909912,0.10179387092682705,4.22566584996515,0.14533813872301612,,,,,,
10,2,-0.8028874397277832,-0.049055442214012146,9.784682273864748,0.001408927026204765,0.003321473952382803,0.012650703079998495,-0.46186271309852606,0.6498607397079468,-0.8686387538909912,0.10179387092682705,4.22566584996515,0.14533813872301612,,,,,,
10,3,-0.8028874397277832,-0.049055442214012146,9.784682273864748,0.001408927026204765,0.003321473952382803,0.012650703079998495,-0.46186271309852606,0.6498607397079468,-0.8686387538909912,0.10179387092682705,4.22566584996515,0.14533813872301612,,,,,,
10,4,-0.8028874397277832,-0.049055442214012146,9.784682273864748,0.001408927026204765,0.003321473952382803,0.012650703079998495,-0.46186271309852606,0.6498607397079468,-0.8686387538909912,0.10179387092682705,4.22566584996515,0.14533813872301612,,,,,,
10,5,-1.0021094083786013,-0.03895267471671105,9.77662467956543,0.0035178461112082005,-0.0003735831996891648,0.010737023316323759,-0.46188738942146307,0.6498787999153138,-0.8696483969688417,0.10273620526783603,4.225202245728076,0.1510505477546398,,,,,,
10,6,-1.2510000467300417,-0.0812363848090172,9.79896640777588,-0.0009585150983184576,0.001147386385127902,0.006482755299657584,-0.46329417824745184,0.6484184265136719,-0.8691692352294922,0.1015936089451295,4.225477662908149,0.15708213566184248,,,,,,
10,7,-1.2510000467300417,-0.0812363848090172,9.79896640777588,-0.0009585150983184576,0.001147386385127902,0.006482755299657584,-0.46329417824745184,0.6484184265136719,-0.8691692352294922,0.1015936089451295,4.225477662908149,0.15708213566184248,,,,,,
10,8,-1.2431231737136843,-0.10984155535697937,9.759576797485352,0.0025778419803828005,0.01172863319516182,0.005535162054002285,-0.46185415983200073,0.6508182883262635,-0.8676074147224427,0.10036310190023999,4.236177245407859,0.16258598620581666,,,,,,
10,9,-0.9184997677803041,0.02495016343891621,9.845148086547852,0.0008523471769876779,-0.00015533450641669333,0.0005047681042924523,-0.46190351247787476,0.6508543491363525,-0.8696266412734985,0.10072201121868675,4.257897337781613,0.16211858780862567,,,,,,
10,10,-0.9184997677803041,0.02495016343891621,9.845148086547852,0.0008523471769876779,-0.00015533450641669333,0.0005047681042924523,-0.46190351247787476,0.6508543491363525,-0.8696266412734985,0.10072201121868675,4.257897337781613,0.16211858780862567,,,,,,
10,11,-0.9184997677803041,0.02495016343891621,9.845148086547852,0.0008523471769876779,-0.00015533450641669333,0.0005047681042924523,-0.46190351247787476,0.6508543491363525,-0.8696266412734985,0.10072201121868675,4.257897337781613,0.16211858780862567,,,,,,
10,12,-0.9184997677803041,0.02495016343891621,9.845148086547852,0.0008523471769876779,-0.00015533450641669333,0.0005047681042924523,-0.46190351247787476,0.6508543491363525,-0.8696266412734985,0.10072201121868675,4.257897337781613,0.16211858780862567,,,,,,
10,13,-0.9184997677803041,0.02495016343891621,9.845148086547852,0.0008523471769876779,-0.00015533450641669333,0.0005047681042924523,-0.46190351247787476,0.6508543491363525,-0.8696266412734985,0.10072201121868675,4.257897337781613,0.16211858780862567,,,,,,
10,14,-0.7810639739036561,0.026088248938322067,9.822874069213867,0.0028200410306453705,-0.0036939878482371573,-0.0037692664191126823,-0.46088385581970215,0.6503224968910218,-0.8676229119300843,0.10054498231943955,4.258613211927671,0.1595183707115457,,,,,,
10,15,-0.6369430422782899,0.06485122442245483,9.813408851623537,0.004755767527967692,-0.004672247450798751,-0.00407356396317482,-0.46087151765823364,0.650313436985016,-0.8671181201934814,0.10149951297777762,4.258762979581839,0.1567528100797606,,,,,,
10,16,-0.507940709590912,0.009966820478439331,9.799517631530763,0.0054191877134144315,-0.006855301558971405,-0.006923421751707793,-0.45998713374137884,0.6513261198997499,-0.8696249723434448,0.10278184711481007,4.257535032054258,0.15236589425494845,,,,,,
10,17,-0.478173702955246,-0.0802043452858925,9.771397590637209,0.0048961383290588864,-0.00531376525759697,-0.002607717178761959,-0.4599913954734802,0.6508473753929139,-0.8701406717300415,0.10396877535841301,4.256949187199781,0.15046168854826014,,,,,,
10,18,-0.47059896588325506,-0.13238880038261414,9.774964332580568,0.00014520816330332312,-0.005820007994771004,-0.001336242654360831,-0.4604402184486389,0.6489002704620361,-0.8701818585395814,0.10242858820295361,4.25581443500083,0.14926531079919042,,,,,,
10,19,-0.4867832064628601,-0.12732587754726413,9.790393829345703,0.003929441794753075,-0.007430458441376686,-9.980287723010407e-05,-0.4599913954734802,0.6508473753929139,-0.8701406717300415,0.103005859920014,4.253496100162578,0.1487424074630791,,,,,,
10,20,-0.5202251672744751,-0.05270708352327347,9.824844360351562,0.003687680466100574,-0.006405257619917393,-0.001778807956725359,-0.46041557192802435,0.6488822102546693,-0.869172215461731,0.10440055408855413,4.249627593274955,0.14814551311844715,,,,,,
10,21,-0.5202251672744751,-0.05270708352327347,9.824844360351562,0.003687680466100574,-0.006405257619917393,-0.001778807956725359,-0.46041557192802435,0.6488822102546693,-0.869172215461731,0.10440055408855413,4.249627593274955,0.14814551311844715,,,,,,
10,22,-0.5731143951416016,-0.12348468601703644,9.855476379394531,0.005195640493184329,-0.006357966922223568,0.000742435280699283,-0.4600207805633545,0.6489413380622865,-0.8727082014083862,0.10556947353689093,4.247228043761125,0.14804455763749336,,,,,,
10,23,-0.6483218073844911,-0.1844727843999863,9.802183151245117,0.0030927364714443684,-0.0027679000049829483,0.0006675312179140748,-0.46198225021362305,0.6489843726158143,-0.8742133378982544,0.10544113556686271,4.246726902229396,0.14787492285622428,,,,,,
10,24,-0.6538373231887817,-0.08507087826728821,9.738963127136232,0.00978637393563986,-0.004464446566998959,0.004115984309464694,-0.4619205594062805,0.6489393115043641,-0.8716893196105957,0.10915435284061752,4.24516151324446,0.14964160096513152,,,,,,
10,25,-0.5083993077278138,-0.026446104049682617,9.799543380737305,0.008682931773364546,-0.005770074669271708,0.0005785865942016244,-0.4585233628749848,0.6508172750473022,-0.8691379427909852,0.11814613180551693,4.235981328705199,0.15330858540672912,,,,,,
10,26,-0.5083993077278138,-0.026446104049682617,9.799543380737305,0.008682931773364546,-0.005770074669271708,0.0005785865942016244,-0.4585233628749848,0.6508172750473022,-0.8691379427909852,0.11814613180551693,4.235981328705199,0.15330858540672912,,,,,,
10,27,-0.5083993077278138,-0.026446104049682617,9.799543380737305,0.008682931773364546,-0.005770074669271708,0.0005785865942016244,-0.4585233628749848,0.6508172750473022,-0.8691379427909852,0.11814613180551693,4.235981328705199,0.15330858540672912,,,,,,
10,28,-0.5766341686248779,-0.09427771717309953,9.79636859893799,0.00902416743338108,-0.0036469560582190756,0.0031837082933634524,-0.46191203594207764,0.649896800518036,-0.8706579804420472,0.12402716285179691,4.231263856704433,0.15514701349738366,,,,,,
10,29,-0.5766724944114686,-0.10244869440793992,9.79153823852539,0.009319931268692017,-0.0033627070952206854,0.004624293185770512,-0.46090519428253174,0.6479287147521973,-0.8702012896537782,0.1273575847060514,4.229466166165935,0.15715013316682025,,,,,,
10,30,-0.5766724944114686,-0.10244869440793992,9.79153823852539,0.009319931268692017,-0.0033627070952206854,0.004624293185770512,-0.46090519428253174,0.6479287147521973,-0.8702012896537782,0.1273575847060514,4.229466166165935,0.15715013316682025,,,,,,
10,31,-0.6005130410194398,-0.0400548055768013,9.816320419311523,0.007198777049779892,-0.0009494996047578753,0.006751692853868008,-0.46089667081832886,0.6488862037658691,-0.8691698908805848,0.1320942031964233,4.22722735055892,0.16039646285721015,,,,,,
10,32,-0.6005130410194398,-0.0400548055768013,9.816320419311523,0.007198777049779892,-0.0009494996047578753,0.006751692853868008,-0.46089667081832886,0.6488862037658691,-0.8691698908805848,0.1320942031964233,4.22722735055892,0.16039646285721015,,,,,,
10,33,-0.6473661065101625,-0.02007589489221573,9.811713218688967,0.006691368296742439,-0.00027342708199284976,0.00396668678149581,-0.46140629053115845,0.6498748064041138,-0.8696507215499878,0.13378812483597177,4.226831493701121,0.16198818259989758,,,,,,
10,34,-0.6748306751251221,-0.04709471389651299,9.796733856201172,0.008460874669253828,0.00021007657051086426,0.002728045685216785,-0.46139395236968994,0.6498657464981079,-0.8691458702087402,0.13645233880781088,4.226652889950263,0.16287036399535051,,,,,,
10,35,-0.7196210622787476,-0.11604707688093187,9.775415420532227,0.007914386689662933,0.0006082618492655457,0.004502733703702689,-0.4624092876911164,0.6508763432502748,-0.870633900165558,0.14143685784383206,4.226439558054327,0.16982745197816407,,,,,,
10,36,-0.7196210622787476,-0.11604707688093187,9.775415420532227,0.007914386689662933,0.0006082618492655457,0.004502733703702689,-0.4624092876911164,0.6508763432502748,-0.870633900165558,0.14143685784383206,4.226439558054327,0.16982745197816407,,,,,,
10,37,-0.7196210622787476,-0.11604707688093187,9.775415420532227,0.007914386689662933,0.0006082618492655457,0.004502733703702689,-0.4624092876911164,0.6508763432502748,-0.870633900165558,0.14143685784383206,4.226439558054327,0.16982745197816407,,,,,,
10,38,-0.7398974895477295,-0.05208315700292587,9.769652366638185,0.00939259957522154,0.000379597011487931,0.0075511340983212,-0.45946139097213745,0.6493620276451112,-0.8691659569740297,0.14464424597940104,4.226319970090825,0.17342230998688163,,,,,,
11,0,-0.8028874397277832,-0.049055442214012146,9.784682273864748,0.001408927026204765,0.003321473952382803,0.012650703079998495,-0.46186271309852606,0.6498607397079468,-0.8686387538909912,0.10179387092682705,4.22566584996515,0.14533813872301612,,,,,,
11,1,-0.8028874397277832,-0.049055442214012146,9.784682273864748,0.001408927026204765,0.003321473952382803,0.012650703079998495,-0.46186271309852606,0.6498607397079468,-0.8686387538909912,0.10179387092682705,4.22566584996515,0.14533813872301612,,,,,,
11,2,-0.8028874397277832,-0.049055442214012146,9.784682273864748,0.001408927026204765,0.003321473952382803,0.012650703079998495,-0.46186271309852606,0.6498607397079468,-0.8686387538909912,0.10179387092682705,4.22566584996515,0.14533813872301612,,,,,,
11,3,-0.8028874397277832,-0.049055442214012146,9.784682273864748,0.001408927026204765,0.003321473952382803,0.012650703079998495,-0.46186271309852606,0.6498607397079468,-0.8686387538909912,0.10179387092682705,4.22566584996515,0.14533813872301612,,,,,,
11,4,-0.8028874397277832,-0.049055442214012146,9.784682273864748,0.001408927026204765,0.003321473952382803,0.012650703079998495,-0.46186271309852606,0.6498607397079468,-0.8686387538909912,0.10179387092682705,4.22566584996515,0.14533813872301612,,,,,,
11,5,-1.0021094083786013,-0.03895267471671105,9.77662467956543,0.0035178461112082005,-0.0003735831996891648,0.010737023316323759,-0.46188738942146307,0.6498787999153138,-0.8696483969688417,0.10273620526783603,4.225202245728076,0.1510505477546398,,,,,,
11,6,-1.2510000467300417,-0.0812363848090172,9.79896640777588,-0.0009585150983184576,0.001147386385127902,0.006482755299657584,-0.46329417824745184,0.6484184265136719,-0.8691692352294922,0.1015936089451295,4.225477662908149,0.15708213566184248,,,,,,
11,7,-1.2510000467300417,-0.0812363848090172,9.79896640777588,-0.0009585150983184576,0.001147386385127902,0.006482755299657584,-0.46329417824745184,0.6484184265136719,-0.8691692352294922,0.1015936089451295,4.225477662908149,0.15708213566184248,,,,,,
11,8,-1.2431231737136843,-0.10984155535697937,9.759576797485352,0.0025778419803828005,0.01172863319516182,0.005535162054002285,-0.46185415983200073,0.6508182883262635,-0.8676074147224427,0.10036310190023999,4.236177245407859,0.16258598620581666,,,,,,
11,9,-0.9184997677803041,0.02495016343891621,9.845148086547852,0.0008523471769876779,-0.00015533450641669333,0.0005047681042924523,-0.46190351247787476,0.6508543491363525,-0.8696266412734985,0.10072201121868675,4.257897337781613,0.16211858780862567,,,,,,
11,10,-0.9184997677803041,0.02495016343891621,9.845148086547852,0.0008523471769876779,-0.00015533450641669333,0.0005047681042924523,-0.46190351247787476,0.6508543491363525,-0.8696266412734985,0.10072201121868675,4.257897337781613,0.16211858780862567,,,,,,
11,11,-0.9184997677803041,0.02495016343891621,9.845148086547852,0.0008523471769876779,-0.00015533450641669333,0.0005047681042924523,-0.46190351247787476,0.6508543491363525,-0.8696266412734985,0.10072201121868675,4.257897337781613,0.16211858780862567,,,,,,
11,12,-0.9184997677803041,0.02495016343891621,9.845148086547852,0.0008523471769876779,-0.00015533450641669333,0.0005047681042924523,-0.46190351247787476,0.6508543491363525,-0.8696266412734985,0.10072201121868675,4.257897337781613,0.16211858780862567,,,,,,
11,13,-0.9184997677803041,0.02495016343891621,9.845148086547852,0.0008523471769876779,-0.00015533450641669333,0.0005047681042924523,-0.46190351247787476,0.6508543491363525,-0.8696266412734985,0.10072201121868675,4.257897337781613,0.16211858780862567,,,,,,
11,14,-0.7810639739036561,0.026088248938322067,9.822874069213867,0.0028200410306453705,-0.0036939878482371573,-0.0037692664191126823,-0.46088385581970215,0.6503224968910218,-0.8676229119300843,0.10054498231943955,4.258613211927671,0.1595183707115457,,,,,,
11,15,-0.6369430422782899,0.06485122442245483,9.813408851623537,0.004755767527967692,-0.004672247450798751,-0.00407356396317482,-0.46087151765823364,0.650313436985016,-0.8671181201934814,0.10149951297777762,4.258762979581839,0.1567528100797606,,,,,,
11,16,-0.507940709590912,0.009966820478439331,9.799517631530763,0.0054191877134144315,-0.006855301558971405,-0.006923421751707793,-0.45998713374137884,0.6513261198997499,-0.8696249723434448,0.10278184711481007,4.257535032054258,0.15236589425494845,,,,,,
11,17,-0.478173702955246,-0.0802043452858925,9.771397590637209,0.0048961383290588864,-0.00531376525759697,-0.002607717178761959,-0.4599913954734802,0.6508473753929139,-0.8701406717300415,0.10396877535841301,4.256949187199781,0.15046168854826014,,,,,,
11,18,-0.47059896588325506,-0.13238880038261414,9.774964332580568,0.00014520816330332312,-0.005820007994771004,-0.001336242654360831,-0.4604402184486389,0.6489002704620361,-0.8701818585395814,0.10242858820295361,4.25581443500083,0.14926531079919042,,,,,,
11,19,-0.4867832064628601,-0.12732587754726413,9.790393829345703,0.003929441794753075,-0.007430458441376686,-9.980287723010407e-05,-0.4599913954734802,0.6508473753929139,-0.8701406717300415,0.103005859920014,4.253496100162578,0.1487424074630791,,,,,,
11,20,-0.5202251672744751,-0.05270708352327347,9.824844360351562,0.003687680466100574,-0.006405257619917393,-0.001778807956725359,-0.46041557192802435,0.6488822102546693,-0.869172215461731,0.10440055408855413,4.249627593274955,0.14814551311844715,,,,,,
11,21,-0.5202251672744751,-0.05270708352327347,9.824844360351562,0.003687680466100574,-0.006405257619917393,-0.001778807956725359,-0.46041557192802435,0.6488822102546693,-0.869172215461731,0.10440055408855413,4.249627593274955,0.14814551311844715,,,,,,
11,22,-0.5731143951416016,-0.12348468601703644,9.855476379394531,0.005195640493184329,-0.006357966922223568,0.000742435280699283,-0.4600207805633545,0.6489413380622865,-0.8727082014083862,0.10556947353689093,4.247228043761125,0.14804455763749336,,,,,,
11,23,-0.6483218073844911,-0.1844727843999863,9.802183151245117,0.0030927364714443684,-0.0027679000049829483,0.0006675312179140748,-0.46198225021362305,0.6489843726158143,-0.8742133378982544,0.10544113556686271,4.246726902229396,0.14787492285622428,,,,,,
11,24,-0.6538373231887817,-0.08507087826728821,9.738963127136232,0.00978637393563986,-0.004464446566998959,0.004115984309464694,-0.4619205594062805,0.6489393115043641,-0.8716893196105957,0.10915435284061752,4.24516151324446,0.14964160096513152,,,,,,
11,25,-0.5083993077278138,-0.026446104049682617,9.799543380737305,0.008682931773364546,-0.005770074669271708,0.0005785865942016244,-0.4585233628749848,0.6508172750473022,-0.8691379427909852,0.11814613180551693,4.235981328705199,0.15330858540672912,,,,,,
11,26,-0.5083993077278138,-0.026446104049682617,9.799543380737305,0.008682931773364546,-0.005770074669271708,0.0005785865942016244,-0.4585233628749848,0.6508172750473022,-0.8691379427909852,0.11814613180551693,4.235981328705199,0.15330858540672912,,,,,,
11,27,-0.5083993077278138,-0.026446104049682617,9.799543380737305,0.008682931773364546,-0.005770074669271708,0.0005785865942016244,-0.4585233628749848,0.6508172750473022,-0.8691379427909852,0.11814613180551693,4.235981328705199,0.15330858540672912,,,,,,
11,28,-0.5766341686248779,-0.09427771717309953,9.79636859893799,0.00902416743338108,-0.0036469560582190756,0.0031837082933634524,-0.46191203594207764,0.649896800518036,-0.8706579804420472,0.12402716285179691,4.231263856704433,0.15514701349738366,,,,,,
11,29,-0.5766724944114686,-0.10244869440793992,9.79153823852539,0.009319931268692017,-0.0033627070952206854,0.004624293185770512,-0.46090519428253174,0.6479287147521973,-0.8702012896537782,0.1273575847060514,4.229466166165935,0.15715013316682025,,,,,,
11,30,-0.5766724944114686,-0.10244869440793992,9.79153823852539,0.009319931268692017,-0.0033627070952206854,0.004624293185770512,-0.46090519428253174,0.6479287147521973,-0.8702012896537782,0.1273575847060514,4.229466166165935,0.15715013316682025,,,,,,
11,31,-0.6005130410194398,-0.0400548055768013,9.816320419311523,0.007198777049779892,-0.0009494996047578753,0.006751692853868008,-0.46089667081832886,0.6488862037658691,-0.8691698908805848,0.1320942031964233,4.22722735055892,0.16039646285721015,,,,,,
11,32,-0.6005130410194398,-0.0400548055768013,9.816320419311523,0.007198777049779892,-0.0009494996047578753,0.006751692853868008,-0.46089667081832886,0.6488862037658691,-0.8691698908805848,0.1320942031964233,4.22722735055892,0.16039646285721015,,,,,,
11,33,-0.6473661065101625,-0.02007589489221573,9.811713218688967,0.006691368296742439,-0.00027342708199284976,0.00396668678149581,-0.46140629053115845,0.6498748064041138,-0.8696507215499878,0.13378812483597177,4.226831493701121,0.16198818259989758,,,,,,
11,34,-0.6748306751251221,-0.04709471389651299,9.796733856201172,0.008460874669253828,0.00021007657051086426,0.002728045685216785,-0.46139395236968994,0.6498657464981079,-0.8691458702087402,0.13645233880781088,4.226652889950263,0.16287036399535051,,,,,,
11,35,-0.7196210622787476,-0.11604707688093187,9.775415420532227,0.007914386689662933,0.0006082618492655457,0.004502733703702689,-0.4624092876911164,0.6508763432502748,-0.870633900165558,0.14143685784383206,4.226439558054327,0.16982745197816407,,,,,,
11,36,-0.7196210622787476,-0.11604707688093187,9.775415420532227,0.007914386689662933,0.0006082618492655457,0.004502733703702689,-0.4624092876911164,0.6508763432502748,-0.870633900165558,0.14143685784383206,4.226439558054327,0.16982745197816407,,,,,,
11,37,-0.7196210622787476,-0.11604707688093187,9.775415420532227,0.007914386689662933,0.0006082618492655457,0.004502733703702689,-0.4624092876911164,0.6508763432502748,-0.870633900165558,0.14143685784383206,4.226439558054327,0.16982745197816407,,,,,,
11,38,-0.7398974895477295,-0.05208315700292587,9.769652366638185,0.00939259957522154,0.000379597011487931,0.0075511340983212,-0.45946139097213745,0.6493620276451112,-0.8691659569740297,0.14464424597940104,4.226319970090825,0.17342230998688163,,,,,,
12,0,-0.8028874397277832,-0.049055442214012146,9.784682273864748,0.001408927026204765,0.003321473952382803,0.012650703079998495,-0.46186271309852606,0.6498607397079468,-0.8686387538909912,0.10179387092682705,4.22566584996515,0.14533813872301612,,,,,,
12,1,-0.8028874397277832,-0.049055442214012146,9.784682273864748,0.001408927026204765,0.003321473952382803,0.012650703079998495,-0.46186271309852606,0.6498607397079468,-0.8686387538909912,0.10179387092682705,4.22566584996515,0.14533813872301612,,,,,,
12,2,-0.8028874397277832,-0.049055442214012146,9.784682273864748,0.001408927026204765,0.003321473952382803,0.012650703079998495,-0.46186271309852606,0.6498607397079468,-0.8686387538909912,0.10179387092682705,4.22566584996515,0.14533813872301612,,,,,,
12,3,-0.8028874397277832,-0.049055442214012146,9.784682273864748,0.001408927026204765,0.003321473952382803,0.012650703079998495,-0.46186271309852606,0.6498607397079468,-0.8686387538909912,0.10179387092682705,4.22566584996515,0.14533813872301612,,,,,,
12,4,-0.8028874397277832,-0.049055442214012146,9.784682273864748,0.001408927026204765,0.003321473952382803,0.012650703079998495,-0.46186271309852606,0.6498607397079468,-0.8686387538909912,0.10179387092682705,4.22566584996515,0.14533813872301612,,,,,,
12,5,-1.0021094083786013,-0.03895267471671105,9.77662467956543,0.0035178461112082005,-0.0003735831996891648,0.010737023316323759,-0.46188738942146307,0.6498787999153138,-0.8696483969688417,0.10273620526783603,4.225202245728076,0.1510505477546398,,,,,,
12,6,-1.2510000467300417,-0.0812363848090172,9.79896640777588,-0.0009585150983184576,0.001147386385127902,0.006482755299657584,-0.46329417824745184,0.6484184265136719,-0.8691692352294922,0.1015936089451295,4.225477662908149,0.15708213566184248,,,,,,
12,7,-1.2510000467300417,-0.0812363848090172,9.79896640777588,-0.0009585150983184576,0.001147386385127902,0.006482755299657584,-0.46329417824745184,0.6484184265136719,-0.8691692352294922,0.1015936089451295,4.225477662908149,0.15708213566184248,,,,,,
12,8,-1.2431231737136843,-0.10984155535697937,9.759576797485352,0.0025778419803828005,0.01172863319516182,0.005535162054002285,-0.46185415983200073,0.6508182883262635,-0.8676074147224427,0.10036310190023999,4.236177245407859,0.16258598620581666,,,,,,
12,9,-0.9184997677803041,0.02495016343891621,9.845148086547852,0.0008523471769876779,-0.00015533450641669333,0.0005047681042924523,-0.46190351247787476,0.6508543491363525,-0.8696266412734985,0.10072201121868675,4.257897337781613,0.16211858780862567,,,,,,
12,10,-0.9184997677803041,0.02495016343891621,9.845148086547852,0.0008523471769876779,-0.00015533450641669333,0.0005047681042924523,-0.46190351247787476,0.6508543491363525,-0.8696266412734985,0.10072201121868675,4.257897337781613,0.16211858780862567,,,,,,
12,11,-0.9184997677803041,0.02495016343891621,9.845148086547852,0.0008523471769876779,-0.00015533450641669333,0.0005047681042924523,-0.46190351247787476,0.6508543491363525,-0.8696266412734985,0.10072201121868675,4.257897337781613,0.16211858780862567,,,,,,
12,12,-0.9184997677803041,0.02495016343891621,9.845148086547852,0.0008523471769876779,-0.00015533450641669333,0.0005047681042924523,-0.46190351247787476,0.6508543491363525,-0.8696266412734985,0.10072201121868675,4.257897337781613,0.16211858780862567,,,,,,
12,13,-0.9184997677803041,0.02495016343891621,9.845148086547852,0.0008523471769876779,-0.00015533450641669333,0.0005047681042924523,-0.46190351247787476,0.6508543491363525,-0.8696266412734985,0.10072201121868675,4.257897337781613,0.16211858780862567,,,,,,
12,14,-0.7810639739036561,0.026088248938322067,9.822874069213867,0.0028200410306453705,-0.0036939878482371573,-0.0037692664191126823,-0.46088385581970215,0.6503224968910218,-0.8676229119300843,0.10054498231943955,4.258613211927671,0.1595183707115457,,,,,,
12,15,-0.6369430422782899,0.06485122442245483,9.813408851623537,0.004755767527967692,-0.004672247450798751,-0.00407356396317482,-0.46087151765823364,0.650313436985016,-0.8671181201934814,0.10149951297777762,4.258762979581839,0.1567528100797606,,,,,,
12,16,-0.507940709590912,0.009966820478439331,9.799517631530763,0.0054191877134144315,-0.006855301558971405,-0.006923421751707793,-0.45998713374137884,0.6513261198997499,-0.8696249723434448,0.10278184711481007,4.257535032054258,0.15236589425494845,,,,,,
12,17,-0.478173702955246,-0.0802043452858925,9.771397590637209,0.0048961383290588864,-0.00531376525759697,-0.002607717178761959,-0.4599913954734802,0.6508473753929139,-0.8701406717300415,0.10396877535841301,4.256949187199781,0.15046168854826014,,,,,,
12,18,-0.47059896588325506,-0.13238880038261414,9.774964332580568,0.00014520816330332312,-0.005820007994771004,-0.001336242654360831,-0.4604402184486389,0.6489002704620361,-0.8701818585395814,0.10242858820295361,4.25581443500083,0.14926531079919042,,,,,,
12,19,-0.4867832064628601,-0.12732587754726413,9.790393829345703,0.003929441794753075,-0.007430458441376686,-9.980287723010407e-05,-0.4599913954734802,0.6508473753929139,-0.8701406717300415,0.103005859920014,4.253496100162578,0.1487424074630791,,,,,,
12,20,-0.5202251672744751,-0.05270708352327347,9.824844360351562,0.003687680466100574,-0.006405257619917393,-0.001778807956725359,-0.46041557192802435,0.6488822102546693,-0.869172215461731,0.10440055408855413,4.249627593274955,0.14814551311844715,,,,,,
12,21,-0.5202251672744751,-0.05270708352327347,9.824844360351562,0.003687680466100574,-0.006405257619917393,-0.001778807956725359,-0.46041557192802435,0.6488822102546693,-0.869172215461731,0.10440055408855413,4.249627593274955,0.14814551311844715,,,,,,
12,22,-0.5731143951416016,-0.12348468601703644,9.855476379394531,0.005195640493184329,-0.006357966922223568,0.000742435280699283,-0.4600207805633545,0.6489413380622865,-0.8727082014083862,0.10556947353689093,4.247228043761125,0.14804455763749336,,,,,,
12,23,-0.6483218073844911,-0.1844727843999863,9.802183151245117,0.0030927364714443684,-0.0027679000049829483,0.0006675312179140748,-0.46198225021362305,0.6489843726158143,-0.8742133378982544,0.10544113556686271,4.246726902229396,0.14787492285622428,,,,,,
12,24,-0.6538373231887817,-0.08507087826728821,9.738963127136232,0.00978637393563986,-0.004464446566998959,0.004115984309464694,-0.4619205594062805,0.6489393115043641,-0.8716893196105957,0.10915435284061752,4.24516151324446,0.14964160096513152,,,,,,
12,25,-0.5083993077278138,-0.026446104049682617,9.799543380737305,0.008682931773364546,-0.005770074669271708,0.0005785865942016244,-0.4585233628749848,0.6508172750473022,-0.8691379427909852,0.11814613180551693,4.235981328705199,0.15330858540672912,,,,,,
12,26,-0.5083993077278138,-0.026446104049682617,9.799543380737305,0.008682931773364546,-0.005770074669271708,0.0005785865942016244,-0.4585233628749848,0.6508172750473022,-0.8691379427909852,0.11814613180551693,4.235981328705199,0.15330858540672912,,,,,,
12,27,-0.5083993077278138,-0.026446104049682617,9.799543380737305,0.008682931773364546,-0.005770074669271708,0.0005785865942016244,-0.4585233628749848,0.6508172750473022,-0.8691379427909852,0.11814613180551693,4.235981328705199,0.15330858540672912,,,,,,
12,28,-0.5766341686248779,-0.09427771717309953,9.79636859893799,0.00902416743338108,-0.0036469560582190756,0.0031837082933634524,-0.46191203594207764,0.649896800518036,-0.8706579804420472,0.12402716285179691,4.231263856704433,0.15514701349738366,,,,,,
12,29,-0.5766724944114686,-0.10244869440793992,9.79153823852539,0.009319931268692017,-0.0033627070952206854,0.004624293185770512,-0.46090519428253174,0.6479287147521973,-0.8702012896537782,0.1273575847060514,4.229466166165935,0.15715013316682025,,,,,,
12,30,-0.5766724944114686,-0.10244869440793992,9.79153823852539,0.009319931268692017,-0.0033627070952206854,0.004624293185770512,-0.46090519428253174,0.6479287147521973,-0.8702012896537782,0.1273575847060514,4.229466166165935,0.15715013316682025,,,,,,
12,31,-0.6005130410194398,-0.0400548055768013,9.816320419311523,0.007198777049779892,-0.0009494996047578753,0.006751692853868008,-0.46089667081832886,0.6488862037658691,-0.8691698908805848,0.1320942031964233,4.22722735055892,0.16039646285721015,,,,,,
12,32,-0.6005130410194398,-0.0400548055768013,9.816320419311523,0.007198777049779892,-0.0009494996047578753,0.006751692853868008,-0.46089667081832886,0.6488862037658691,-0.8691698908805848,0.1320942031964233,4.22722735055892,0.16039646285721015,,,,,,
12,33,-0.6473661065101625,-0.02007589489221573,9.811713218688967,0.006691368296742439,-0.00027342708199284976,0.00396668678149581,-0.46140629053115845,0.6498748064041138,-0.8696507215499878,0.13378812483597177,4.226831493701121,0.16198818259989758,,,,,,
12,34,-0.6748306751251221,-0.04709471389651299,9.796733856201172,0.008460874669253828,0.00021007657051086426,0.002728045685216785,-0.46139395236968994,0.6498657464981079,-0.8691458702087402,0.13645233880781088,4.226652889950263,0.16287036399535051,,,,,,
12,35,-0.7196210622787476,-0.11604707688093187,9.775415420532227,0.007914386689662933,0.0006082618492655457,0.004502733703702689,-0.4624092876911164,0.6508763432502748,-0.870633900165558,0.14143685784383206,4.226439558054327,0.16982745197816407,,,,,,
12,36,-0.7196210622787476,-0.11604707688093187,9.775415420532227,0.007914386689662933,0.0006082618492655457,0.004502733703702689,-0.4624092876911164,0.6508763432502748,-0.870633900165558,0.14143685784383206,4.226439558054327,0.16982745197816407,,,,,,
12,37,-0.7196210622787476,-0.11604707688093187,9.775415420532227,0.007914386689662933,0.0006082618492655457,0.004502733703702689,-0.4624092876911164,0.6508763432502748,-0.870633900165558,0.14143685784383206,4.226439558054327,0.16982745197816407,,,,,,
12,38,-0.7398974895477295,-0.05208315700292587,9.769652366638185,0.00939259957522154,0.000379597011487931,0.0075511340983212,-0.45946139097213745,0.6493620276451112,-0.8691659569740297,0.14464424597940104,4.226319970090825,0.17342230998688163,,,,,,
13,0,-0.8028874397277832,-0.049055442214012146,9.784682273864748,0.001408927026204765,0.003321473952382803,0.012650703079998495,-0.46186271309852606,0.6498607397079468,-0.8686387538909912,0.10179387092682705,4.22566584996515,0.14533813872301612,,,,,,
13,1,-0.8028874397277832,-0.049055442214012146,9.784682273864748,0.001408927026204765,0.003321473952382803,0.012650703079998495,-0.46186271309852606,0.6498607397079468,-0.8686387538909912,0.10179387092682705,4.22566584996515,0.14533813872301612,,,,,,
13,2,-0.8028874397277832,-0.049055442214012146,9.784682273864748,0.001408927026204765,0.003321473952382803,0.012650703079998495,-0.46186271309852606,0.6498607397079468,-0.8686387538909912,0.10179387092682705,4.22566584996515,0.14533813872301612,,,,,,
13,3,-0.8028874397277832,-0.049055442214012146,9.784682273864748,0.001408927026204765,0.003321473952382803,0.012650703079998495,-0.46186271309852606,0.6498607397079468,-0.8686387538909912,0.10179387092682705,4.22566584996515,0.14533813872301612,,,,,,
13,4,-0.8028874397277832,-0.049055442214012146,9.784682273864748,0.001408927026204765,0.003321473952382803,0.012650703079998495,-0.46186271309852606,0.6498607397079468,-0.8686387538909912,0.10179387092682705,4.22566584996515,0.14533813872301612,,,,,,
13,5,-1.0021094083786013,-0.03895267471671105,9.77662467956543,0.0035178461112082005,-0.0003735831996891648,0.010737023316323759,-0.46188738942146307,0.6498787999153138,-0.8696483969688417,0.10273620526783603,4.225202245728076,0.1510505477546398,,,,,,
13,6,-1.2510000467300417,-0.0812363848090172,9.79896640777588,-0.0009585150983184576,0.001147386385127902,0.006482755299657584,-0.46329417824745184,0.6484184265136719,-0.8691692352294922,0.1015936089451295,4.225477662908149,0.15708213566184248,,,,,,
13,7,-1.2510000467300417,-0.0812363848090172,9.79896640777588,-0.0009585150983184576,0.001147386385127902,0.006482755299657584,-0.46329417824745184,0.6484184265136719,-0.8691692352294922,0.1015936089451295,4.225477662908149,0.15708213566184248,,,,,,
