frame_id,subframe_id,acc_x,acc_y,acc_z,gyro_x,gyro_y,gyro_z,mag_x,mag_y,mag_z,roll,pitch,yaw
1,0,-0.7446457743644715,-0.03390292078256607,9.779523849487305,0.0064171948470175275,-0.0008419068180955948,0.0024351878091692924,-0.4993517994880676,0.6405075192451478,-0.8737241625785829,1.048963687271509,4.260417554452163,0.1251500992350362,,,,,,
1,1,-0.7446457743644715,-0.03390292078256607,9.779523849487305,0.0064171948470175275,-0.0008419068180955948,0.0024351878091692924,-0.4993517994880676,0.6405075192451478,-0.8737241625785829,1.048963687271509,4.260417554452163,0.1251500992350362,,,,,,
1,2,-0.7446457743644715,-0.03390292078256607,9.779523849487305,0.0064171948470175275,-0.0008419068180955948,0.0024351878091692924,-0.4993517994880676,0.6405075192451478,-0.8737241625785829,1.048963687271509,4.260417554452163,0.1251500992350362,,,,,,
1,3,-0.7446457743644715,-0.03390292078256607,9.779523849487305,0.0064171948470175275,-0.0008419068180955948,0.0024351878091692924,-0.4993517994880676,0.6405075192451478,-0.8737241625785829,1.048963687271509,4.260417554452163,0.1251500992350362,,,,,,
1,4,-0.7446457743644715,-0.03390292078256607,9.779523849487305,0.0064171948470175275,-0.0008419068180955948,0.0024351878091692924,-0.4993517994880676,0.6405075192451478,-0.8737241625785829,1.048963687271509,4.260417554452163,0.1251500992350362,,,,,,
1,5,-0.7530964016914369,-0.04874535650014877,9.785545349121094,0.00772848865017295,0.0005208536749705672,0.002329410752281547,-0.499972403049469,0.641577184200287,-0.8787481784820557,1.0433745833622137,4.261655675761577,0.12345826396937158,,,,,,
1,6,-0.757329285144806,-0.06858279556035997,9.779645919799805,0.006949163973331451,-0.0005353080923669041,0.0028457320295274258,-0.5014413595199585,0.6387166976928711,-0.8818353414535522,1.031742591302323,4.262180172236231,0.12178054314349547,,,,,,
1,7,-0.757329285144806,-0.06858279556035997,9.779645919799805,0.006949163973331451,-0.0005353080923669041,0.0028457320295274258,-0.5014413595199585,0.6387166976928711,-0.8818353414535522,1.031742591302323,4.262180172236231,0.12178054314349547,,,,,,
1,8,-0.7922788858413696,-0.06251309067010881,9.786722183227539,0.010919969528913498,-0.0019214812200516462,0.005786077585071326,-0.5022479295730591,0.6366834044456483,-0.8768261671066284,1.0280245599296798,4.262000102774826,0.12201755092983049,,,,,,
1,9,-0.7813375592231752,-0.048003725707530975,9.800016403198242,0.008359224535524847,-0.004100705496966839,0.002490732818841934,-0.5003429651260376,0.640054762363434,-0.8752448558807373,1.0177543710242456,4.262064489238363,0.11985137912899677,,,,,,
1,10,-0.7813375592231752,-0.048003725707530975,9.800016403198242,0.008359224535524847,-0.004100705496966839,0.002490732818841934,-0.5003429651260376,0.640054762363434,-0.8752448558807373,1.0177543710242456,4.262064489238363,0.11985137912899677,,,,,,
1,11,-0.7669385671615601,-0.042573917657136924,9.785367965698242,0.008923575282096863,-0.0019568318966776137,0.00297685619443655,-0.49803987145423895,0.6410734057426454,-0.8787682652473451,1.0126916499657719,4.261996910802068,0.11844603584659513,,,,,,
1,12,-0.7869029641151429,-0.06516851484775543,9.787337303161623,0.00852121226489544,-0.002108180662617088,0.0007920382777228951,-0.5000307559967041,0.6392104029655458,-0.8828409910202026,1.0027029844244044,4.262325063021067,0.11402745246747324,,,,,,
1,13,-0.7869029641151429,-0.06516851484775543,9.787337303161623,0.00852121226489544,-0.002108180662617088,0.0007920382777228951,-0.5000307559967041,0.6392104029655458,-0.8828409910202026,1.0027029844244044,4.262325063021067,0.11402745246747324,,,,,,
1,14,-0.7820929288864136,-0.06817101687192918,9.780496597290039,0.006187727209180594,-0.0019662119448184967,0.004901341162621975,-0.5017995834350586,0.6371852755546571,-0.8778272271156312,0.9961256836184789,4.2622929720273035,0.11371670488494308,,,,,,
1,15,-0.7617877125740052,-0.06942797452211381,9.771529197692873,0.010018793866038322,-0.0011563843581825495,0.003406388452276588,-0.4989157617092133,0.641018271446228,-0.875230073928833,0.9868903204954836,4.261621697495146,0.1108818485316184,,,,,,
1,16,-0.7617877125740052,-0.06942797452211381,9.771529197692873,0.010018793866038322,-0.0011563843581825495,0.003406388452276588,-0.4989157617092133,0.641018271446228,-0.875230073928833,0.9868903204954836,4.261621697495146,0.1108818485316184,,,,,,
1,17,-0.7456713318824769,-0.0765470787882805,9.779837608337404,0.00993978325277567,-0.0026628882624208927,0.005401710979640484,-0.4991212189197541,0.6416503787040712,-0.883296012878418,0.9770518843229143,4.262116877416509,0.11132905684881349,,,,,,
1,18,-0.7640969157218934,-0.0719476565718651,9.79695796966553,0.004929691553115845,0.0014949593460187318,0.0055439649149775505,-0.5003106594085693,0.638103723526001,-0.8752884268760682,0.9578887613485737,4.2642068145558625,0.10680864203399928,,,,,,
1,19,-0.7640969157218934,-0.0719476565718651,9.79695796966553,0.004929691553115845,0.0014949593460187318,0.0055439649149775505,-0.5003106594085693,0.638103723526001,-0.8752884268760682,0.9578887613485737,4.2642068145558625,0.10680864203399928,,,,,,
1,20,-0.7640969157218934,-0.0719476565718651,9.79695796966553,0.004929691553115845,0.0014949593460187318,0.0055439649149775505,-0.5003106594085693,0.638103723526001,-0.8752884268760682,0.9578887613485737,4.2642068145558625,0.10680864203399928,,,,,,
1,21,-0.7640969157218934,-0.0719476565718651,9.79695796966553,0.004929691553115845,0.0014949593460187318,0.0055439649149775505,-0.5003106594085693,0.638103723526001,-0.8752884268760682,0.9578887613485737,4.2642068145558625,0.10680864203399928,,,,,,
1,22,-0.7626082301139833,-0.07031195610761644,9.787137985229492,0.00879169534891844,-0.002288815565407276,0.003282333025708795,-0.5005147457122803,0.6430715918540956,-0.8802276253700257,0.9490695998412458,4.264891220274184,0.10534322253396056,,,,,,
1,23,-0.7626082301139833,-0.07031195610761644,9.787137985229492,0.00879169534891844,-0.002288815565407276,0.003282333025708795,-0.5005147457122803,0.6430715918540956,-0.8802276253700257,0.9490695998412458,4.264891220274184,0.10534322253396056,,,,,,
1,24,-0.7703502178192139,-0.08124648034572601,9.780994415283203,0.008750302717089653,-0.004300510510802269,0.0025354714598506693,-0.5010044574737549,0.6421180963516235,-0.8812566995620728,0.9437709501436717,4.263602906598607,0.10362438357553327,,,,,,
1,25,-0.7475715279579164,-0.061036687344312675,9.796281814575195,0.009162344969809057,-0.004660730250179768,0.004131335765123367,-0.5008620023727417,0.6371952891349794,-0.8788414597511293,0.9340554086002039,4.260739114064195,0.10177691672480134,,,,,,
1,26,-0.7475715279579164,-0.061036687344312675,9.796281814575195,0.009162344969809057,-0.004660730250179768,0.004131335765123367,-0.5008620023727417,0.6371952891349794,-0.8788414597511293,0.9340554086002039,4.260739114064195,0.10177691672480134,,,,,,
1,27,-0.761182725429535,-0.040105246007442474,9.776194572448732,0.008522289805114271,-0.005451255477964878,0.003439990105107427,-0.501786768436432,0.6386215090751649,-0.8762801885604858,0.9286683677860229,4.2587876612477515,0.10056949792200288,,,,,,
1,28,-0.7386725544929506,-0.057050421833992004,9.787418365478516,0.010533629916608335,-0.001586233265697956,-6.517091242130846e-05,-0.5005237460136415,0.64066880941391,-0.8823012113571167,0.913630206220633,4.258095425875856,0.0929521581448804,,,,,,
2,0,-0.7446457743644715,-0.03390292078256607,9.779523849487305,0.0064171948470175275,-0.0008419068180955948,0.0024351878091692924,-0.4993517994880676,0.6405075192451478,-0.8737241625785829,1.048963687271509,4.260417554452163,0.1251500992350362,,,,,,
2,1,-0.7446457743644715,-0.03390292078256607,9.779523849487305,0.0064171948470175275,-0.0008419068180955948,0.0024351878091692924,-0.4993517994880676,0.6405075192451478,-0.8737241625785829,1.048963687271509,4.260417554452163,0.1251500992350362,,,,,,
2,2,-0.7446457743644715,-0.03390292078256607,9.779523849487305,0.0064171948470175275,-0.0008419068180955948,0.0024351878091692924,-0.4993517994880676,0.6405075192451478,-0.8737241625785829,1.048963687271509,4.260417554452163,0.1251500992350362,,,,,,
2,3,-0.7446457743644715,-0.03390292078256607,9.779523849487305,0.0064171948470175275,-0.0008419068180955948,0.0024351878091692924,-0.4993517994880676,0.6405075192451478,-0.8737241625785829,1.048963687271509,4.260417554452163,0.1251500992350362,,,,,,
2,4,-0.7446457743644715,-0.03390292078256607,9.779523849487305,0.0064171948470175275,-0.0008419068180955948,0.0024351878091692924,-0.4993517994880676,0.6405075192451478,-0.8737241625785829,1.048963687271509,4.260417554452163,0.1251500992350362,,,,,,
2,5,-0.7530964016914369,-0.04874535650014877,9.785545349121094,0.00772848865017295,0.0005208536749705672,0.002329410752281547,-0.499972403049469,0.641577184200287,-0.8787481784820557,1.0433745833622137,4.261655675761577,0.12345826396937158,,,,,,
2,6,-0.757329285144806,-0.06858279556035997,9.779645919799805,0.006949163973331451,-0.0005353080923669041,0.0028457320295274258,-0.5014413595199585,0.6387166976928711,-0.8818353414535522,1.031742591302323,4.262180172236231,0.12178054314349547,,,,,,
2,7,-0.757329285144806,-0.06858279556035997,9.779645919799805,0.006949163973331451,-0.0005353080923669041,0.0028457320295274258,-0.5014413595199585,0.6387166976928711,-0.8818353414535522,1.031742591302323,4.262180172236231,0.12178054314349547,,,,,,
2,8,-0.7922788858413696,-0.06251309067010881,9.786722183227539,0.010919969528913498,-0.0019214812200516462,0.005786077585071326,-0.5022479295730591,0.6366834044456483,-0.8768261671066284,1.0280245599296798,4.262000102774826,0.12201755092983049,,,,,,
2,9,-0.7813375592231752,-0.048003725707530975,9.800016403198242,0.008359224535524847,-0.004100705496966839,0.002490732818841934,-0.5003429651260376,0.640054762363434,-0.8752448558807373,1.0177543710242456,4.262064489238363,0.11985137912899677,,,,,,
2,10,-0.7813375592231752,-0.048003725707530975,9.800016403198242,0.008359224535524847,-0.004100705496966839,0.002490732818841934,-0.5003429651260376,0.640054762363434,-0.8752448558807373,1.0177543710242456,4.262064489238363,0.11985137912899677,,,,,,
2,11,-0.7669385671615601,-0.042573917657136924,9.785367965698242,0.008923575282096863,-0.0019568318966776137,0.00297685619443655,-0.49803987145423895,0.6410734057426454,-0.8787682652473451,1.0126916499657719,4.261996910802068,0.11844603584659513,,,,,,
2,12,-0.7869029641151429,-0.06516851484775543,9.787337303161623,0.00852121226489544,-0.002108180662617088,0.0007920382777228951,-0.5000307559967041,0.6392104029655458,-0.8828409910202026,1.0027029844244044,4.262325063021067,0.11402745246747324,,,,,,
2,13,-0.7869029641151429,-0.06516851484775543,9.787337303161623,0.00852121226489544,-0.002108180662617088,0.0007920382777228951,-0.5000307559967041,0.6392104029655458,-0.8828409910202026,1.0027029844244044,4.262325063021067,0.11402745246747324,,,,,,
2,14,-0.7820929288864136,-0.06817101687192918,9.780496597290039,0.006187727209180594,-0.0019662119448184967,0.004901341162621975,-0.5017995834350586,0.6371852755546571,-0.8778272271156312,0.9961256836184789,4.2622929720273035,0.11371670488494308,,,,,,
2,15,-0.7617877125740052,-0.06942797452211381,9.771529197692873,0.010018793866038322,-0.0011563843581825495,0.003406388452276588,-0.4989157617092133,0.641018271446228,-0.875230073928833,0.9868903204954836,4.261621697495146,0.1108818485316184,,,,,,
2,16,-0.7617877125740052,-0.06942797452211381,9.771529197692873,0.010018793866038322,-0.0011563843581825495,0.003406388452276588,-0.4989157617092133,0.641018271446228,-0.875230073928833,0.9868903204954836,4.261621697495146,0.1108818485316184,,,,,,
2,17,-0.7456713318824769,-0.0765470787882805,9.779837608337404,0.00993978325277567,-0.0026628882624208927,0.005401710979640484,-0.4991212189197541,0.6416503787040712,-0.883296012878418,0.9770518843229143,4.262116877416509,0.11132905684881349,,,,,,
2,18,-0.7640969157218934,-0.0719476565718651,9.79695796966553,0.004929691553115845,0.0014949593460187318,0.0055439649149775505,-0.5003106594085693,0.638103723526001,-0.8752884268760682,0.9578887613485737,4.2642068145558625,0.10680864203399928,,,,,,
2,19,-0.7640969157218934,-0.0719476565718651,9.79695796966553,0.004929691553115845,0.0014949593460187318,0.0055439649149775505,-0.5003106594085693,0.638103723526001,-0.8752884268760682,0.9578887613485737,4.2642068145558625,0.10680864203399928,,,,,,
2,20,-0.7640969157218934,-0.0719476565718651,9.79695796966553,0.004929691553115845,0.0014949593460187318,0.0055439649149775505,-0.5003106594085693,0.638103723526001,-0.8752884268760682,0.9578887613485737,4.2642068145558625,0.10680864203399928,,,,,,
2,21,-0.7640969157218934,-0.0719476565718651,9.79695796966553,0.004929691553115845,0.0014949593460187318,0.0055439649149775505,-0.5003106594085693,0.638103723526001,-0.8752884268760682,0.9578887613485737,4.2642068145558625,0.10680864203399928,,,,,,
2,22,-0.7626082301139833,-0.07031195610761644,9.787137985229492,0.00879169534891844,-0.002288815565407276,0.003282333025708795,-0.5005147457122803,0.6430715918540956,-0.8802276253700257,0.9490695998412458,4.264891220274184,0.10534322253396056,,,,,,
2,23,-0.7626082301139833,-0.07031195610761644,9.787137985229492,0.00879169534891844,-0.002288815565407276,0.003282333025708795,-0.5005147457122803,0.6430715918540956,-0.8802276253700257,0.9490695998412458,4.264891220274184,0.10534322253396056,,,,,,
2,24,-0.7703502178192139,-0.08124648034572601,9.780994415283203,0.008750302717089653,-0.004300510510802269,0.0025354714598506693,-0.5010044574737549,0.6421180963516235,-0.8812566995620728,0.9437709501436717,4.263602906598607,0.10362438357553327,,,,,,
2,25,-0.7475715279579164,-0.061036687344312675,9.796281814575195,0.009162344969809057,-0.004660730250179768,0.004131335765123367,-0.5008620023727417,0.6371952891349794,-0.8788414597511293,0.9340554086002039,4.260739114064195,0.10177691672480134,,,,,,
2,26,-0.7475715279579164,-0.061036687344312675,9.796281814575195,0.009162344969809057,-0.004660730250179768,0.004131335765123367,-0.5008620023727417,0.6371952891349794,-0.8788414597511293,0.9340554086002039,4.260739114064195,0.10177691672480134,,,,,,
2,27,-0.761182725429535,-0.040105246007442474,9.776194572448732,0.008522289805114271,-0.005451255477964878,0.003439990105107427,-0.501786768436432,0.6386215090751649,-0.8762801885604858,0.9286683677860229,4.2587876612477515,0.10056949792200288,,,,,,
2,28,-0.7386725544929506,-0.057050421833992004,9.787418365478516,0.010533629916608335,-0.001586233265697956,-6.517091242130846e-05,-0.5005237460136415,0.64066880941391,-0.8823012113571167,0.913630206220633,4.258095425875856,0.0929521581448804,,,,,,
3,0,-0.7446457743644715,-0.03390292078256607,9.779523849487305,0.0064171948470175275,-0.0008419068180955948,0.0024351878091692924,-0.4993517994880676,0.6405075192451478,-0.8737241625785829,1.048963687271509,4.260417554452163,0.1251500992350362,,,,,,
3,1,-0.7446457743644715,-0.03390292078256607,9.779523849487305,0.0064171948470175275,-0.0008419068180955948,0.0024351878091692924,-0.4993517994880676,0.6405075192451478,-0.8737241625785829,1.048963687271509,4.260417554452163,0.1251500992350362,,,,,,
3,2,-0.7446457743644715,-0.03390292078256607,9.779523849487305,0.0064171948470175275,-0.0008419068180955948,0.0024351878091692924,-0.4993517994880676,0.6405075192451478,-0.8737241625785829,1.048963687271509,4.260417554452163,0.1251500992350362,,,,,,
3,3,-0.7446457743644715,-0.03390292078256607,9.779523849487305,0.0064171948470175275,-0.0008419068180955948,0.0024351878091692924,-0.4993517994880676,0.6405075192451478,-0.8737241625785829,1.048963687271509,4.260417554452163,0.1251500992350362,,,,,,
3,4,-0.7446457743644715,-0.03390292078256607,9.779523849487305,0.0064171948470175275,-0.0008419068180955948,0.0024351878091692924,-0.4993517994880676,0.6405075192451478,-0.8737241625785829,1.048963687271509,4.260417554452163,0.1251500992350362,,,,,,
3,5,-0.7530964016914369,-0.04874535650014877,9.785545349121094,0.00772848865017295,0.0005208536749705672,0.002329410752281547,-0.499972403049469,0.641577184200287,-0.8787481784820557,1.0433745833622137,4.261655675761577,0.12345826396937158,,,,,,
3,6,-0.757329285144806,-0.06858279556035997,9.779645919799805,0.006949163973331451,-0.0005353080923669041,0.0028457320295274258,-0.5014413595199585,0.6387166976928711,-0.8818353414535522,1.031742591302323,4.262180172236231,0.12178054314349547,,,,,,
3,7,-0.757329285144806,-0.06858279556035997,9.779645919799805,0.006949163973331451,-0.0005353080923669041,0.0028457320295274258,-0.5014413595199585,0.6387166976928711,-0.8818353414535522,1.031742591302323,4.262180172236231,0.12178054314349547,,,,,,
3,8,-0.7922788858413696,-0.06251309067010881,9.786722183227539,0.010919969528913498,-0.0019214812200516462,0.005786077585071326,-0.5022479295730591,0.6366834044456483,-0.8768261671066284,1.0280245599296798,4.262000102774826,0.12201755092983049,,,,,,
3,9,-0.7813375592231752,-0.048003725707530975,9.800016403198242,0.008359224535524847,-0.004100705496966839,0.002490732818841934,-0.5003429651260376,0.640054762363434,-0.8752448558807373,1.0177543710242456,4.262064489238363,0.11985137912899677,,,,,,
3,10,-0.7813375592231752,-0.048003725707530975,9.800016403198242,0.008359224535524847,-0.004100705496966839,0.002490732818841934,-0.5003429651260376,0.640054762363434,-0.8752448558807373,1.0177543710242456,4.262064489238363,0.11985137912899677,,,,,,
3,11,-0.7669385671615601,-0.042573917657136924,9.785367965698242,0.008923575282096863,-0.0019568318966776137,0.00297685619443655,-0.49803987145423895,0.6410734057426454,-0.8787682652473451,1.0126916499657719,4.261996910802068,0.11844603584659513,,,,,,
3,12,-0.7869029641151429,-0.06516851484775543,9.787337303161623,0.00852121226489544,-0.002108180662617088,0.0007920382777228951,-0.5000307559967041,0.6392104029655458,-0.8828409910202026,1.0027029844244044,4.262325063021067,0.11402745246747324,,,,,,
3,13,-0.7869029641151429,-0.06516851484775543,9.787337303161623,0.00852121226489544,-0.002108180662617088,0.0007920382777228951,-0.5000307559967041,0.6392104029655458,-0.8828409910202026,1.0027029844244044,4.262325063021067,0.11402745246747324,,,,,,
3,14,-0.7820929288864136,-0.06817101687192918,9.780496597290039,0.006187727209180594,-0.0019662119448184967,0.004901341162621975,-0.5017995834350586,0.6371852755546571,-0.8778272271156312,0.9961256836184789,4.2622929720273035,0.11371670488494308,,,,,,
3,15,-0.7617877125740052,-0.06942797452211381,9.771529197692873,0.010018793866038322,-0.0011563843581825495,0.003406388452276588,-0.4989157617092133,0.641018271446228,-0.875230073928833,0.9868903204954836,4.261621697495146,0.1108818485316184,,,,,,
3,16,-0.7617877125740052,-0.06942797452211381,9.771529197692873,0.010018793866038322,-0.0011563843581825495,0.003406388452276588,-0.4989157617092133,0.641018271446228,-0.875230073928833,0.9868903204954836,4.261621697495146,0.1108818485316184,,,,,,
3,17,-0.7456713318824769,-0.0765470787882805,9.779837608337404,0.00993978325277567,-0.0026628882624208927,0.005401710979640484,-0.4991212189197541,0.6416503787040712,-0.883296012878418,0.9770518843229143,4.262116877416509,0.11132905684881349,,,,,,
3,18,-0.7640969157218934,-0.0719476565718651,9.79695796966553,0.004929691553115845,0.0014949593460187318,0.0055439649149775505,-0.5003106594085693,0.638103723526001,-0.8752884268760682,0.9578887613485737,4.2642068145558625,0.10680864203399928,,,,,,
3,19,-0.7640969157218934,-0.0719476565718651,9.79695796966553,0.004929691553115845,0.0014949593460187318,0.0055439649149775505,-0.5003106594085693,0.638103723526001,-0.8752884268760682,0.9578887613485737,4.2642068145558625,0.10680864203399928,,,,,,
3,20,-0.7640969157218934,-0.0719476565718651,9.79695796966553,0.004929691553115845,0.0014949593460187318,0.0055439649149775505,-0.5003106594085693,0.638103723526001,-0.8752884268760682,0.9578887613485737,4.2642068145558625,0.10680864203399928,,,,,,
3,21,-0.7640969157218934,-0.0719476565718651,9.79695796966553,0.004929691553115845,0.0014949593460187318,0.0055439649149775505,-0.5003106594085693,0.638103723526001,-0.8752884268760682,0.9578887613485737,4.2642068145558625,0.10680864203399928,,,,,,
3,22,-0.7626082301139833,-0.07031195610761644,9.787137985229492,0.00879169534891844,-0.002288815565407276,0.003282333025708795,-0.5005147457122803,0.6430715918540956,-0.8802276253700257,0.9490695998412458,4.264891220274184,0.10534322253396056,,,,,,
3,23,-0.7626082301139833,-0.07031195610761644,9.787137985229492,0.00879169534891844,-0.002288815565407276,0.003282333025708795,-0.5005147457122803,0.6430715918540956,-0.8802276253700257,0.9490695998412458,4.264891220274184,0.10534322253396056,,,,,,
3,24,-0.7703502178192139,-0.08124648034572601,9.780994415283203,0.008750302717089653,-0.004300510510802269,0.0025354714598506693,-0.5010044574737549,0.6421180963516235,-0.8812566995620728,0.9437709501436717,4.263602906598607,0.10362438357553327,,,,,,
3,25,-0.7475715279579164,-0.061036687344312675,9.796281814575195,0.009162344969809057,-0.004660730250179768,0.004131335765123367,-0.5008620023727417,0.6371952891349794,-0.8788414597511293,0.9340554086002039,4.260739114064195,0.10177691672480134,,,,,,
3,26,-0.7475715279579164,-0.061036687344312675,9.796281814575195,0.009162344969809057,-0.004660730250179768,0.004131335765123367,-0.5008620023727417,0.6371952891349794,-0.8788414597511293,0.9340554086002039,4.260739114064195,0.10177691672480134,,,,,,
3,27,-0.761182725429535,-0.040105246007442474,9.776194572448732,0.008522289805114271,-0.005451255477964878,0.003439990105107427,-0.501786768436432,0.6386215090751649,-0.8762801885604858,0.9286683677860229,4.2587876612477515,0.10056949792200288,,,,,,
3,28,-0.7386725544929506,-0.057050421833992004,9.787418365478516,0.010533629916608335,-0.001586233265697956,-6.517091242130846e-05,-0.5005237460136415,0.64066880941391,-0.8823012113571167,0.913630206220633,4.258095425875856,0.0929521581448804,,,,,,
4,0,-0.7446457743644715,-0.03390292078256607,9.779523849487305,0.0064171948470175275,-0.0008419068180955948,0.0024351878091692924,-0.4993517994880676,0.6405075192451478,-0.8737241625785829,1.048963687271509,4.260417554452163,0.1251500992350362,,,,,,
4,1,-0.7446457743644715,-0.03390292078256607,9.779523849487305,0.0064171948470175275,-0.0008419068180955948,0.0024351878091692924,-0.4993517994880676,0.6405075192451478,-0.8737241625785829,1.048963687271509,4.260417554452163,0.1251500992350362,,,,,,
4,2,-0.7446457743644715,-0.03390292078256607,9.779523849487305,0.0064171948470175275,-0.0008419068180955948,0.0024351878091692924,-0.4993517994880676,0.6405075192451478,-0.8737241625785829,1.048963687271509,4.260417554452163,0.1251500992350362,,,,,,
4,3,-0.7446457743644715,-0.03390292078256607,9.779523849487305,0.0064171948470175275,-0.0008419068180955948,0.0024351878091692924,-0.4993517994880676,0.6405075192451478,-0.8737241625785829,1.048963687271509,4.260417554452163,0.1251500992350362,,,,,,
4,4,-0.7446457743644715,-0.03390292078256607,9.779523849487305,0.0064171948470175275,-0.0008419068180955948,0.0024351878091692924,-0.4993517994880676,0.6405075192451478,-0.8737241625785829,1.048963687271509,4.260417554452163,0.1251500992350362,,,,,,
4,5,-0.7530964016914369,-0.04874535650014877,9.785545349121094,0.00772848865017295,0.0005208536749705672,0.002329410752281547,-0.499972403049469,0.641577184200287,-0.8787481784820557,1.0433745833622137,4.261655675761577,0.12345826396937158,,,,,,
4,6,-0.757329285144806,-0.06858279556035997,9.779645919799805,0.006949163973331451,-0.0005353080923669041,0.0028457320295274258,-0.5014413595199585,0.6387166976928711,-0.8818353414535522,1.031742591302323,4.262180172236231,0.12178054314349547,,,,,,
4,7,-0.757329285144806,-0.06858279556035997,9.779645919799805,0.006949163973331451,-0.0005353080923669041,0.0028457320295274258,-0.5014413595199585,0.6387166976928711,-0.8818353414535522,1.031742591302323,4.262180172236231,0.12178054314349547,,,,,,
4,8,-0.7922788858413696,-0.06251309067010881,9.786722183227539,0.010919969528913498,-0.0019214812200516462,0.005786077585071326,-0.5022479295730591,0.6366834044456483,-0.8768261671066284,1.0280245599296798,4.262000102774826,0.12201755092983049,,,,,,
4,9,-0.7813375592231752,-0.048003725707530975,9.800016403198242,0.008359224535524847,-0.004100705496966839,0.002490732818841934,-0.5003429651260376,0.640054762363434,-0.8752448558807373,1.0177543710242456,4.262064489238363,0.11985137912899677,,,,,,
4,10,-0.7813375592231752,-0.048003725707530975,9.800016403198242,0.008359224535524847,-0.004100705496966839,0.002490732818841934,-0.5003429651260376,0.640054762363434,-0.8752448558807373,1.0177543710242456,4.262064489238363,0.11985137912899677,,,,,,
4,11,-0.7669385671615601,-0.042573917657136924,9.785367965698242,0.008923575282096863,-0.0019568318966776137,0.00297685619443655,-0.49803987145423895,0.6410734057426454,-0.8787682652473451,1.0126916499657719,4.261996910802068,0.11844603584659513,,,,,,
4,12,-0.7869029641151429,-0.06516851484775543,9.787337303161623,0.00852121226489544,-0.002108180662617088,0.0007920382777228951,-0.5000307559967041,0.6392104029655458,-0.8828409910202026,1.0027029844244044,4.262325063021067,0.11402745246747324,,,,,,
4,13,-0.7869029641151429,-0.06516851484775543,9.787337303161623,0.00852121226489544,-0.002108180662617088,0.0007920382777228951,-0.5000307559967041,0.6392104029655458,-0.8828409910202026,1.0027029844244044,4.262325063021067,0.11402745246747324,,,,,,
4,14,-0.7820929288864136,-0.06817101687192918,9.780496597290039,0.006187727209180594,-0.0019662119448184967,0.004901341162621975,-0.5017995834350586,0.6371852755546571,-0.8778272271156312,0.9961256836184789,4.2622929720273035,0.11371670488494308,,,,,,
4,15,-0.7617877125740052,-0.06942797452211381,9.771529197692873,0.010018793866038322,-0.0011563843581825495,0.003406388452276588,-0.4989157617092133,0.641018271446228,-0.875230073928833,0.9868903204954836,4.261621697495146,0.1108818485316184,,,,,,
4,16,-0.7617877125740052,-0.06942797452211381,9.771529197692873,0.010018793866038322,-0.0011563843581825495,0.003406388452276588,-0.4989157617092133,0.641018271446228,-0.875230073928833,0.9868903204954836,4.261621697495146,0.1108818485316184,,,,,,
4,17,-0.7456713318824769,-0.0765470787882805,9.779837608337404,0.00993978325277567,-0.0026628882624208927,0.005401710979640484,-0.4991212189197541,0.6416503787040712,-0.883296012878418,0.9770518843229143,4.262116877416509,0.11132905684881349,,,,,,
4,18,-0.7640969157218934,-0.0719476565718651,9.79695796966553,0.004929691553115845,0.0014949593460187318,0.0055439649149775505,-0.5003106594085693,0.638103723526001,-0.8752884268760682,0.9578887613485737,4.2642068145558625,0.10680864203399928,,,,,,
4,19,-0.7640969157218934,-0.0719476565718651,9.79695796966553,0.004929691553115845,0.0014949593460187318,0.0055439649149775505,-0.5003106594085693,0.638103723526001,-0.8752884268760682,0.9578887613485737,4.2642068145558625,0.10680864203399928,,,,,,
4,20,-0.7640969157218934,-0.0719476565718651,9.79695796966553,0.004929691553115845,0.0014949593460187318,0.0055439649149775505,-0.5003106594085693,0.638103723526001,-0.8752884268760682,0.9578887613485737,4.2642068145558625,0.10680864203399928,,,,,,
4,21,-0.7640969157218934,-0.0719476565718651,9.79695796966553,0.004929691553115845,0.0014949593460187318,0.0055439649149775505,-0.5003106594085693,0.638103723526001,-0.8752884268760682,0.9578887613485737,4.2642068145558625,0.10680864203399928,,,,,,
4,22,-0.7626082301139833,-0.07031195610761644,9.787137985229492,0.00879169534891844,-0.002288815565407276,0.003282333025708795,-0.5005147457122803,0.6430715918540956,-0.8802276253700257,0.9490695998412458,4.264891220274184,0.10534322253396056,,,,,,
4,23,-0.7626082301139833,-0.07031195610761644,9.787137985229492,0.00879169534891844,-0.002288815565407276,0.003282333025708795,-0.5005147457122803,0.6430715918540956,-0.8802276253700257,0.9490695998412458,4.264891220274184,0.10534322253396056,,,,,,
4,24,-0.7703502178192139,-0.08124648034572601,9.780994415283203,0.008750302717089653,-0.004300510510802269,0.0025354714598506693,-0.5010044574737549,0.6421180963516235,-0.8812566995620728,0.9437709501436717,4.263602906598607,0.10362438357553327,,,,,,
4,25,-0.7475715279579164,-0.061036687344312675,9.796281814575195,0.009162344969809057,-0.004660730250179768,0.004131335765123367,-0.5008620023727417,0.6371952891349794,-0.8788414597511293,0.9340554086002039,4.260739114064195,0.10177691672480134,,,,,,
4,26,-0.7475715279579164,-0.061036687344312675,9.796281814575195,0.009162344969809057,-0.004660730250179768,0.004131335765123367,-0.5008620023727417,0.6371952891349794,-0.8788414597511293,0.9340554086002039,4.260739114064195,0.10177691672480134,,,,,,
4,27,-0.761182725429535,-0.040105246007442474,9.776194572448732,0.008522289805114271,-0.005451255477964878,0.003439990105107427,-0.501786768436432,0.6386215090751649,-0.8762801885604858,0.9286683677860229,4.2587876612477515,0.10056949792200288,,,,,,
4,28,-0.7386725544929506,-0.057050421833992004,9.787418365478516,0.010533629916608335,-0.001586233265697956,-6.517091242130846e-05,-0.5005237460136415,0.64066880941391,-0.8823012113571167,0.913630206220633,4.258095425875856,0.0929521581448804,,,,,,
5,0,-0.7446457743644715,-0.03390292078256607,9.779523849487305,0.0064171948470175275,-0.0008419068180955948,0.0024351878091692924,-0.4993517994880676,0.6405075192451478,-0.8737241625785829,1.048963687271509,4.260417554452163,0.1251500992350362,,,,,,
5,1,-0.7446457743644715,-0.03390292078256607,9.779523849487305,0.0064171948470175275,-0.0008419068180955948,0.0024351878091692924,-0.4993517994880676,0.6405075192451478,-0.8737241625785829,1.048963687271509,4.260417554452163,0.1251500992350362,,,,,,
5,2,-0.7446457743644715,-0.03390292078256607,9.779523849487305,0.0064171948470175275,-0.0008419068180955948,0.0024351878091692924,-0.4993517994880676,0.6405075192451478,-0.8737241625785829,1.048963687271509,4.260417554452163,0.1251500992350362,,,,,,
5,3,-0.7446457743644715,-0.03390292078256607,9.779523849487305,0.0064171948470175275,-0.0008419068180955948,0.0024351878091692924,-0.4993517994880676,0.6405075192451478,-0.8737241625785829,1.048963687271509,4.260417554452163,0.1251500992350362,,,,,,
5,4,-0.7446457743644715,-0.03390292078256607,9.779523849487305,0.0064171948470175275,-0.0008419068180955948,0.0024351878091692924,-0.4993517994880676,0.6405075192451478,-0.8737241625785829,1.048963687271509,4.260417554452163,0.1251500992350362,,,,,,
5,5,-0.7530964016914369,-0.04874535650014877,9.785545349121094,0.00772848865017295,0.0005208536749705672,0.002329410752281547,-0.499972403049469,0.641577184200287,-0.8787481784820557,1.0433745833622137,4.261655675761577,0.12345826396937158,,,,,,
5,6,-0.757329285144806,-0.06858279556035997,9.779645919799805,0.006949163973331451,-0.0005353080923669041,0.0028457320295274258,-0.5014413595199585,0.6387166976928711,-0.8818353414535522,1.031742591302323,4.262180172236231,0.12178054314349547,,,,,,
5,7,-0.757329285144806,-0.06858279556035997,9.779645919799805,0.006949163973331451,-0.0005353080923669041,0.0028457320295274258,-0.5014413595199585,0.6387166976928711,-0.8818353414535522,1.031742591302323,4.262180172236231,0.12178054314349547,,,,,,
5,8,-0.7922788858413696,-0.06251309067010881,9.786722183227539,0.010919969528913498,-0.0019214812200516462,0.005786077585071326,-0.5022479295730591,0.6366834044456483,-0.8768261671066284,1.0280245599296798,4.262000102774826,0.12201755092983049,,,,,,
5,9,-0.7813375592231752,-0.048003725707530975,9.800016403198242,0.008359224535524847,-0.004100705496966839,0.002490732818841934,-0.5003429651260376,0.640054762363434,-0.8752448558807373,1.0177543710242456,4.262064489238363,0.11985137912899677,,,,,,
5,10,-0.7813375592231752,-0.048003725707530975,9.800016403198242,0.008359224535524847,-0.004100705496966839,0.002490732818841934,-0.5003429651260376,0.640054762363434,-0.8752448558807373,1.0177543710242456,4.262064489238363,0.11985137912899677,,,,,,
5,11,-0.7669385671615601,-0.042573917657136924,9.785367965698242,0.008923575282096863,-0.0019568318966776137,0.00297685619443655,-0.49803987145423895,0.6410734057426454,-0.8787682652473451,1.0126916499657719,4.261996910802068,0.11844603584659513,,,,,,
5,12,-0.7869029641151429,-0.06516851484775543,9.787337303161623,0.00852121226489544,-0.002108180662617088,0.0007920382777228951,-0.5000307559967041,0.6392104029655458,-0.8828409910202026,1.0027029844244044,4.262325063021067,0.11402745246747324,,,,,,
5,13,-0.7869029641151429,-0.06516851484775543,9.787337303161623,0.00852121226489544,-0.002108180662617088,0.0007920382777228951,-0.5000307559967041,0.6392104029655458,-0.8828409910202026,1.0027029844244044,4.262325063021067,0.11402745246747324,,,,,,
5,14,-0.7820929288864136,-0.06817101687192918,9.780496597290039,0.006187727209180594,-0.0019662119448184967,0.004901341162621975,-0.5017995834350586,0.6371852755546571,-0.8778272271156312,0.9961256836184789,4.2622929720273035,0.11371670488494308,,,,,,
5,15,-0.7617877125740052,-0.06942797452211381,9.771529197692873,0.010018793866038322,-0.0011563843581825495,0.003406388452276588,-0.4989157617092133,0.641018271446228,-0.875230073928833,0.9868903204954836,4.261621697495146,0.1108818485316184,,,,,,
5,16,-0.7617877125740052,-0.06942797452211381,9.771529197692873,0.010018793866038322,-0.0011563843581825495,0.003406388452276588,-0.4989157617092133,0.641018271446228,-0.875230073928833,0.9868903204954836,4.261621697495146,0.1108818485316184,,,,,,
5,17,-0.7456713318824769,-0.0765470787882805,9.779837608337404,0.00993978325277567,-0.0026628882624208927,0.005401710979640484,-0.4991212189197541,0.6416503787040712,-0.883296012878418,0.9770518843229143,4.262116877416509,0.11132905684881349,,,,,,
5,18,-0.7640969157218934,-0.0719476565718651,9.79695796966553,0.004929691553115845,0.0014949593460187318,0.0055439649149775505,-0.5003106594085693,0.638103723526001,-0.8752884268760682,0.9578887613485737,4.2642068145558625,0.10680864203399928,,,,,,
5,19,-0.7640969157218934,-0.0719476565718651,9.79695796966553,0.004929691553115845,0.0014949593460187318,0.0055439649149775505,-0.5003106594085693,0.638103723526001,-0.8752884268760682,0.9578887613485737,4.2642068145558625,0.10680864203399928,,,,,,
5,20,-0.7640969157218934,-0.0719476565718651,9.79695796966553,0.004929691553115845,0.0014949593460187318,0.0055439649149775505,-0.5003106594085693,0.638103723526001,-0.8752884268760682,0.9578887613485737,4.2642068145558625,0.10680864203399928,,,,,,
5,21,-0.7640969157218934,-0.0719476565718651,9.79695796966553,0.004929691553115845,0.0014949593460187318,0.0055439649149775505,-0.5003106594085693,0.638103723526001,-0.8752884268760682,0.9578887613485737,4.2642068145558625,0.10680864203399928,,,,,,
5,22,-0.7626082301139833,-0.07031195610761644,9.787137985229492,0.00879169534891844,-0.002288815565407276,0.003282333025708795,-0.5005147457122803,0.6430715918540956,-0.8802276253700257,0.9490695998412458,4.264891220274184,0.10534322253396056,,,,,,
5,23,-0.7626082301139833,-0.07031195610761644,9.787137985229492,0.00879169534891844,-0.002288815565407276,0.003282333025708795,-0.5005147457122803,0.6430715918540956,-0.8802276253700257,0.9490695998412458,4.264891220274184,0.10534322253396056,,,,,,
5,24,-0.7703502178192139,-0.08124648034572601,9.780994415283203,0.008750302717089653,-0.004300510510802269,0.0025354714598506693,-0.5010044574737549,0.6421180963516235,-0.8812566995620728,0.9437709501436717,4.263602906598607,0.10362438357553327,,,,,,
5,25,-0.7475715279579164,-0.061036687344312675,9.796281814575195,0.009162344969809057,-0.004660730250179768,0.004131335765123367,-0.5008620023727417,0.6371952891349794,-0.8788414597511293,0.9340554086002039,4.260739114064195,0.10177691672480134,,,,,,
5,26,-0.7475715279579164,-0.061036687344312675,9.796281814575195,0.009162344969809057,-0.004660730250179768,0.004131335765123367,-0.5008620023727417,0.6371952891349794,-0.8788414597511293,0.9340554086002039,4.260739114064195,0.10177691672480134,,,,,,
5,27,-0.761182725429535,-0.040105246007442474,9.776194572448732,0.008522289805114271,-0.005451255477964878,0.003439990105107427,-0.501786768436432,0.6386215090751649,-0.8762801885604858,0.9286683677860229,4.2587876612477515,0.10056949792200288,,,,,,
5,28,-0.7386725544929506,-0.057050421833992004,9.787418365478516,0.010533629916608335,-0.001586233265697956,-6.517091242130846e-05,-0.5005237460136415,0.64066880941391,-0.8823012113571167,0.913630206220633,4.258095425875856,0.0929521581448804,,,,,,
6,0,-0.7446457743644715,-0.03390292078256607,9.779523849487305,0.0064171948470175275,-0.0008419068180955948,0.0024351878091692924,-0.4993517994880676,0.6405075192451478,-0.8737241625785829,1.048963687271509,4.260417554452163,0.1251500992350362,,,,,,
6,1,-0.7446457743644715,-0.03390292078256607,9.779523849487305,0.0064171948470175275,-0.0008419068180955948,0.0024351878091692924,-0.4993517994880676,0.6405075192451478,-0.8737241625785829,1.048963687271509,4.260417554452163,0.1251500992350362,,,,,,
6,2,-0.7446457743644715,-0.03390292078256607,9.779523849487305,0.0064171948470175275,-0.0008419068180955948,0.0024351878091692924,-0.4993517994880676,0.6405075192451478,-0.8737241625785829,1.048963687271509,4.260417554452163,0.1251500992350362,,,,,,
6,3,-0.7446457743644715,-0.03390292078256607,9.779523849487305,0.0064171948470175275,-0.0008419068180955948,0.0024351878091692924,-0.4993517994880676,0.6405075192451478,-0.8737241625785829,1.048963687271509,4.260417554452163,0.1251500992350362,,,,,,
6,4,-0.7446457743644715,-0.03390292078256607,9.779523849487305,0.0064171948470175275,-0.0008419068180955948,0.0024351878091692924,-0.4993517994880676,0.6405075192451478,-0.8737241625785829,1.048963687271509,4.260417554452163,0.1251500992350362,,,,,,
6,5,-0.7530964016914369,-0.04874535650014877,9.785545349121094,0.00772848865017295,0.0005208536749705672,0.002329410752281547,-0.499972403049469,0.641577184200287,-0.8787481784820557,1.0433745833622137,4.261655675761577,0.12345826396937158,,,,,,
6,6,-0.757329285144806,-0.06858279556035997,9.779645919799805,0.006949163973331451,-0.0005353080923669041,0.0028457320295274258,-0.5014413595199585,0.6387166976928711,-0.8818353414535522,1.031742591302323,4.262180172236231,0.12178054314349547,,,,,,
6,7,-0.757329285144806,-0.06858279556035997,9.779645919799805,0.006949163973331451,-0.0005353080923669041,0.0028457320295274258,-0.5014413595199585,0.6387166976928711,-0.8818353414535522,1.031742591302323,4.262180172236231,0.12178054314349547,,,,,,
6,8,-0.7922788858413696,-0.06251309067010881,9.786722183227539,0.010919969528913498,-0.0019214812200516462,0.005786077585071326,-0.5022479295730591,0.6366834044456483,-0.8768261671066284,1.0280245599296798,4.262000102774826,0.12201755092983049,,,,,,
6,9,-0.7813375592231752,-0.048003725707530975,9.800016403198242,0.008359224535524847,-0.004100705496966839,0.002490732818841934,-0.5003429651260376,0.640054762363434,-0.8752448558807373,1.0177543710242456,4.262064489238363,0.11985137912899677,,,,,,
6,10,-0.7813375592231752,-0.048003725707530975,9.800016403198242,0.008359224535524847,-0.004100705496966839,0.002490732818841934,-0.5003429651260376,0.640054762363434,-0.8752448558807373,1.0177543710242456,4.262064489238363,0.11985137912899677,,,,,,
6,11,-0.7669385671615601,-0.042573917657136924,9.785367965698242,0.008923575282096863,-0.0019568318966776137,0.00297685619443655,-0.49803987145423895,0.6410734057426454,-0.8787682652473451,1.0126916499657719,4.261996910802068,0.11844603584659513,,,,,,
6,12,-0.7869029641151429,-0.06516851484775543,9.787337303161623,0.00852121226489544,-0.002108180662617088,0.0007920382777228951,-0.5000307559967041,0.6392104029655458,-0.8828409910202026,1.0027029844244044,4.262325063021067,0.11402745246747324,,,,,,
6,13,-0.7869029641151429,-0.06516851484775543,9.787337303161623,0.00852121226489544,-0.002108180662617088,0.0007920382777228951,-0.5000307559967041,0.6392104029655458,-0.8828409910202026,1.0027029844244044,4.262325063021067,0.11402745246747324,,,,,,
6,14,-0.7820929288864136,-0.06817101687192918,9.780496597290039,0.006187727209180594,-0.0019662119448184967,0.004901341162621975,-0.5017995834350586,0.6371852755546571,-0.8778272271156312,0.9961256836184789,4.2622929720273035,0.11371670488494308,,,,,,
6,15,-0.7617877125740052,-0.06942797452211381,9.771529197692873,0.010018793866038322,-0.0011563843581825495,0.003406388452276588,-0.4989157617092133,0.641018271446228,-0.875230073928833,0.9868903204954836,4.261621697495146,0.1108818485316184,,,,,,
6,16,-0.7617877125740052,-0.06942797452211381,9.771529197692873,0.010018793866038322,-0.0011563843581825495,0.003406388452276588,-0.4989157617092133,0.641018271446228,-0.875230073928833,0.9868903204954836,4.261621697495146,0.1108818485316184,,,,,,
6,17,-0.7456713318824769,-0.0765470787882805,9.779837608337404,0.00993978325277567,-0.0026628882624208927,0.005401710979640484,-0.4991212189197541,0.6416503787040712,-0.883296012878418,0.9770518843229143,4.262116877416509,0.11132905684881349,,,,,,
6,18,-0.7640969157218934,-0.0719476565718651,9.79695796966553,0.004929691553115845,0.0014949593460187318,0.0055439649149775505,-0.5003106594085693,0.638103723526001,-0.8752884268760682,0.9578887613485737,4.2642068145558625,0.10680864203399928,,,,,,
6,19,-0.7640969157218934,-0.0719476565718651,9.79695796966553,0.004929691553115845,0.0014949593460187318,0.0055439649149775505,-0.5003106594085693,0.638103723526001,-0.8752884268760682,0.9578887613485737,4.2642068145558625,0.10680864203399928,,,,,,
6,20,-0.7640969157218934,-0.0719476565718651,9.79695796966553,0.004929691553115845,0.0014949593460187318,0.0055439649149775505,-0.5003106594085693,0.638103723526001,-0.8752884268760682,0.9578887613485737,4.2642068145558625,0.10680864203399928,,,,,,
6,21,-0.7640969157218934,-0.0719476565718651,9.79695796966553,0.004929691553115845,0.0014949593460187318,0.0055439649149775505,-0.5003106594085693,0.638103723526001,-0.8752884268760682,0.9578887613485737,4.2642068145558625,0.10680864203399928,,,,,,
6,22,-0.7626082301139833,-0.07031195610761644,9.787137985229492,0.00879169534891844,-0.002288815565407276,0.003282333025708795,-0.5005147457122803,0.6430715918540956,-0.8802276253700257,0.9490695998412458,4.264891220274184,0.10534322253396056,,,,,,
6,23,-0.7626082301139833,-0.07031195610761644,9.787137985229492,0.00879169534891844,-0.002288815565407276,0.003282333025708795,-0.5005147457122803,0.6430715918540956,-0.8802276253700257,0.9490695998412458,4.264891220274184,0.10534322253396056,,,,,,
6,24,-0.7703502178192139,-0.08124648034572601,9.780994415283203,0.008750302717089653,-0.004300510510802269,0.0025354714598506693,-0.5010044574737549,0.6421180963516235,-0.8812566995620728,0.9437709501436717,4.263602906598607,0.10362438357553327,,,,,,
6,25,-0.7475715279579164,-0.061036687344312675,9.796281814575195,0.009162344969809057,-0.004660730250179768,0.004131335765123367,-0.5008620023727417,0.6371952891349794,-0.8788414597511293,0.9340554086002039,4.260739114064195,0.10177691672480134,,,,,,
6,26,-0.7475715279579164,-0.061036687344312675,9.796281814575195,0.009162344969809057,-0.004660730250179768,0.004131335765123367,-0.5008620023727417,0.6371952891349794,-0.8788414597511293,0.9340554086002039,4.260739114064195,0.10177691672480134,,,,,,
6,27,-0.761182725429535,-0.040105246007442474,9.776194572448732,0.008522289805114271,-0.005451255477964878,0.003439990105107427,-0.501786768436432,0.6386215090751649,-0.8762801885604858,0.9286683677860229,4.2587876612477515,0.10056949792200288,,,,,,
6,28,-0.7386725544929506,-0.057050421833992004,9.787418365478516,0.010533629916608335,-0.001586233265697956,-6.517091242130846e-05,-0.5005237460136415,0.64066880941391,-0.8823012113571167,0.913630206220633,4.258095425875856,0.0929521581448804,,,,,,
7,0,-0.7446457743644715,-0.03390292078256607,9.779523849487305,0.0064171948470175275,-0.0008419068180955948,0.0024351878091692924,-0.4993517994880676,0.6405075192451478,-0.8737241625785829,1.048963687271509,4.260417554452163,0.1251500992350362,,,,,,
7,1,-0.7446457743644715,-0.03390292078256607,9.779523849487305,0.0064171948470175275,-0.0008419068180955948,0.0024351878091692924,-0.4993517994880676,0.6405075192451478,-0.8737241625785829,1.048963687271509,4.260417554452163,0.1251500992350362,,,,,,
7,2,-0.7446457743644715,-0.03390292078256607,9.779523849487305,0.0064171948470175275,-0.0008419068180955948,0.0024351878091692924,-0.4993517994880676,0.6405075192451478,-0.8737241625785829,1.048963687271509,4.260417554452163,0.1251500992350362,,,,,,
7,3,-0.7446457743644715,-0.03390292078256607,9.779523849487305,0.0064171948470175275,-0.0008419068180955948,0.0024351878091692924,-0.4993517994880676,0.6405075192451478,-0.8737241625785829,1.048963687271509,4.260417554452163,0.1251500992350362,,,,,,
7,4,-0.7446457743644715,-0.03390292078256607,9.779523849487305,0.0064171948470175275,-0.0008419068180955948,0.0024351878091692924,-0.4993517994880676,0.6405075192451478,-0.8737241625785829,1.048963687271509,4.260417554452163,0.1251500992350362,,,,,,
7,5,-0.7530964016914369,-0.04874535650014877,9.785545349121094,0.00772848865017295,0.0005208536749705672,0.002329410752281547,-0.499972403049469,0.641577184200287,-0.8787481784820557,1.0433745833622137,4.261655675761577,0.12345826396937158,,,,,,
7,6,-0.757329285144806,-0.06858279556035997,9.779645919799805,0.006949163973331451,-0.0005353080923669041,0.0028457320295274258,-0.5014413595199585,0.6387166976928711,-0.8818353414535522,1.031742591302323,4.262180172236231,0.12178054314349547,,,,,,
7,7,-0.757329285144806,-0.06858279556035997,9.779645919799805,0.006949163973331451,-0.0005353080923669041,0.0028457320295274258,-0.5014413595199585,0.6387166976928711,-0.8818353414535522,1.031742591302323,4.262180172236231,0.12178054314349547,,,,,,
7,8,-0.7922788858413696,-0.06251309067010881,9.786722183227539,0.010919969528913498,-0.0019214812200516462,0.005786077585071326,-0.5022479295730591,0.6366834044456483,-0.8768261671066284,1.0280245599296798,4.262000102774826,0.12201755092983049,,,,,,
7,9,-0.7813375592231752,-0.048003725707530975,9.800016403198242,0.008359224535524847,-0.004100705496966839,0.002490732818841934,-0.5003429651260376,0.640054762363434,-0.8752448558807373,1.0177543710242456,4.262064489238363,0.11985137912899677,,,,,,
7,10,-0.7813375592231752,-0.048003725707530975,9.800016403198242,0.008359224535524847,-0.004100705496966839,0.002490732818841934,-0.5003429651260376,0.640054762363434,-0.8752448558807373,1.0177543710242456,4.262064489238363,0.11985137912899677,,,,,,
7,11,-0.7669385671615601,-0.042573917657136924,9.785367965698242,0.008923575282096863,-0.0019568318966776137,0.00297685619443655,-0.49803987145423895,0.6410734057426454,-0.8787682652473451,1.0126916499657719,4.261996910802068,0.11844603584659513,,,,,,
7,12,-0.7869029641151429,-0.06516851484775543,9.787337303161623,0.00852121226489544,-0.002108180662617088,0.0007920382777228951,-0.5000307559967041,0.6392104029655458,-0.8828409910202026,1.0027029844244044,4.262325063021067,0.11402745246747324,,,,,,
7,13,-0.7869029641151429,-0.06516851484775543,9.787337303161623,0.00852121226489544,-0.002108180662617088,0.0007920382777228951,-0.5000307559967041,0.6392104029655458,-0.8828409910202026,1.0027029844244044,4.262325063021067,0.11402745246747324,,,,,,
7,14,-0.7820929288864136,-0.06817101687192918,9.780496597290039,0.006187727209180594,-0.0019662119448184967,0.004901341162621975,-0.5017995834350586,0.6371852755546571,-0.8778272271156312,0.9961256836184789,4.2622929720273035,0.11371670488494308,,,,,,
7,15,-0.7617877125740052,-0.06942797452211381,9.771529197692873,0.010018793866038322,-0.0011563843581825495,0.003406388452276588,-0.4989157617092133,0.641018271446228,-0.875230073928833,0.9868903204954836,4.261621697495146,0.1108818485316184,,,,,,
7,16,-0.7617877125740052,-0.06942797452211381,9.771529197692873,0.010018793866038322,-0.0011563843581825495,0.003406388452276588,-0.4989157617092133,0.641018271446228,-0.875230073928833,0.9868903204954836,4.261621697495146,0.1108818485316184,,,,,,
7,17,-0.7456713318824769,-0.0765470787882805,9.779837608337404,0.00993978325277567,-0.0026628882624208927,0.005401710979640484,-0.4991212189197541,0.6416503787040712,-0.883296012878418,0.9770518843229143,4.262116877416509,0.11132905684881349,,,,,,
7,18,-0.7640969157218934,-0.0719476565718651,9.79695796966553,0.004929691553115845,0.0014949593460187318,0.0055439649149775505,-0.5003106594085693,0.638103723526001,-0.8752884268760682,0.9578887613485737,4.2642068145558625,0.10680864203399928,,,,,,
7,19,-0.7640969157218934,-0.0719476565718651,9.79695796966553,0.004929691553115845,0.0014949593460187318,0.0055439649149775505,-0.5003106594085693,0.638103723526001,-0.8752884268760682,0.9578887613485737,4.2642068145558625,0.10680864203399928,,,,,,
7,20,-0.7640969157218934,-0.0719476565718651,9.79695796966553,0.004929691553115845,0.0014949593460187318,0.0055439649149775505,-0.5003106594085693,0.638103723526001,-0.8752884268760682,0.9578887613485737,4.2642068145558625,0.10680864203399928,,,,,,
7,21,-0.7640969157218934,-0.0719476565718651,9.79695796966553,0.004929691553115845,0.0014949593460187318,0.0055439649149775505,-0.5003106594085693,0.638103723526001,-0.8752884268760682,0.9578887613485737,4.2642068145558625,0.10680864203399928,,,,,,
7,22,-0.7626082301139833,-0.07031195610761644,9.787137985229492,0.00879169534891844,-0.002288815565407276,0.003282333025708795,-0.5005147457122803,0.6430715918540956,-0.8802276253700257,0.9490695998412458,4.264891220274184,0.10534322253396056,,,,,,
7,23,-0.7626082301139833,-0.07031195610761644,9.787137985229492,0.00879169534891844,-0.002288815565407276,0.003282333025708795,-0.5005147457122803,0.6430715918540956,-0.8802276253700257,0.9490695998412458,4.264891220274184,0.10534322253396056,,,,,,
7,24,-0.7703502178192139,-0.08124648034572601,9.780994415283203,0.008750302717089653,-0.004300510510802269,0.0025354714598506693,-0.5010044574737549,0.6421180963516235,-0.8812566995620728,0.9437709501436717,4.263602906598607,0.10362438357553327,,,,,,
7,25,-0.7475715279579164,-0.061036687344312675,9.796281814575195,0.009162344969809057,-0.004660730250179768,0.004131335765123367,-0.5008620023727417,0.6371952891349794,-0.8788414597511293,0.9340554086002039,4.260739114064195,0.10177691672480134,,,,,,
7,26,-0.7475715279579164,-0.061036687344312675,9.796281814575195,0.009162344969809057,-0.004660730250179768,0.004131335765123367,-0.5008620023727417,0.6371952891349794,-0.8788414597511293,0.9340554086002039,4.260739114064195,0.10177691672480134,,,,,,
7,27,-0.761182725429535,-0.040105246007442474,9.776194572448732,0.008522289805114271,-0.005451255477964878,0.003439990105107427,-0.501786768436432,0.6386215090751649,-0.8762801885604858,0.9286683677860229,4.2587876612477515,0.10056949792200288,,,,,,
7,28,-0.7386725544929506,-0.057050421833992004,9.787418365478516,0.010533629916608335,-0.001586233265697956,-6.517091242130846e-05,-0.5005237460136415,0.64066880941391,-0.8823012113571167,0.913630206220633,4.258095425875856,0.0929521581448804,,,,,,
8,0,-0.7446457743644715,-0.03390292078256607,9.779523849487305,0.0064171948470175275,-0.0008419068180955948,0.0024351878091692924,-0.4993517994880676,0.6405075192451478,-0.8737241625785829,1.048963687271509,4.260417554452163,0.1251500992350362,,,,,,
8,1,-0.7446457743644715,-0.03390292078256607,9.779523849487305,0.0064171948470175275,-0.0008419068180955948,0.0024351878091692924,-0.4993517994880676,0.6405075192451478,-0.8737241625785829,1.048963687271509,4.260417554452163,0.1251500992350362,,,,,,
8,2,-0.7446457743644715,-0.03390292078256607,9.779523849487305,0.0064171948470175275,-0.0008419068180955948,0.0024351878091692924,-0.4993517994880676,0.6405075192451478,-0.8737241625785829,1.048963687271509,4.260417554452163,0.1251500992350362,,,,,,
8,3,-0.7446457743644715,-0.03390292078256607,9.779523849487305,0.0064171948470175275,-0.0008419068180955948,0.0024351878091692924,-0.4993517994880676,0.6405075192451478,-0.8737241625785829,1.048963687271509,4.260417554452163,0.1251500992350362,,,,,,
8,4,-0.7446457743644715,-0.03390292078256607,9.779523849487305,0.0064171948470175275,-0.0008419068180955948,0.0024351878091692924,-0.4993517994880676,0.6405075192451478,-0.8737241625785829,1.048963687271509,4.260417554452163,0.1251500992350362,,,,,,
8,5,-0.7530964016914369,-0.04874535650014877,9.785545349121094,0.00772848865017295,0.0005208536749705672,0.002329410752281547,-0.499972403049469,0.641577184200287,-0.8787481784820557,1.0433745833622137,4.261655675761577,0.12345826396937158,,,,,,
8,6,-0.757329285144806,-0.06858279556035997,9.779645919799805,0.006949163973331451,-0.0005353080923669041,0.0028457320295274258,-0.5014413595199585,0.6387166976928711,-0.8818353414535522,1.031742591302323,4.262180172236231,0.12178054314349547,,,,,,
8,7,-0.757329285144806,-0.06858279556035997,9.779645919799805,0.006949163973331451,-0.0005353080923669041,0.0028457320295274258,-0.5014413595199585,0.6387166976928711,-0.8818353414535522,1.031742591302323,4.262180172236231,0.12178054314349547,,,,,,
8,8,-0.7922788858413696,-0.06251309067010881,9.786722183227539,0.010919969528913498,-0.0019214812200516462,0.005786077585071326,-0.5022479295730591,0.6366834044456483,-0.8768261671066284,1.0280245599296798,4.262000102774826,0.12201755092983049,,,,,,
8,9,-0.7813375592231752,-0.048003725707530975,9.800016403198242,0.008359224535524847,-0.004100705496966839,0.002490732818841934,-0.5003429651260376,0.640054762363434,-0.8752448558807373,1.0177543710242456,4.262064489238363,0.11985137912899677,,,,,,
8,10,-0.7813375592231752,-0.048003725707530975,9.800016403198242,0.008359224535524847,-0.004100705496966839,0.002490732818841934,-0.5003429651260376,0.640054762363434,-0.8752448558807373,1.0177543710242456,4.262064489238363,0.11985137912899677,,,,,,
8,11,-0.7669385671615601,-0.042573917657136924,9.785367965698242,0.008923575282096863,-0.0019568318966776137,0.00297685619443655,-0.49803987145423895,0.6410734057426454,-0.8787682652473451,1.0126916499657719,4.261996910802068,0.11844603584659513,,,,,,
8,12,-0.7869029641151429,-0.06516851484775543,9.787337303161623,0.00852121226489544,-0.002108180662617088,0.0007920382777228951,-0.5000307559967041,0.6392104029655458,-0.8828409910202026,1.0027029844244044,4.262325063021067,0.11402745246747324,,,,,,
8,13,-0.7869029641151429,-0.06516851484775543,9.787337303161623,0.00852121226489544,-0.002108180662617088,0.0007920382777228951,-0.5000307559967041,0.6392104029655458,-0.8828409910202026,1.0027029844244044,4.262325063021067,0.11402745246747324,,,,,,
8,14,-0.7820929288864136,-0.06817101687192918,9.780496597290039,0.006187727209180594,-0.0019662119448184967,0.004901341162621975,-0.5017995834350586,0.6371852755546571,-0.8778272271156312,0.9961256836184789,4.2622929720273035,0.11371670488494308,,,,,,
8,15,-0.7617877125740052,-0.06942797452211381,9.771529197692873,0.010018793866038322,-0.0011563843581825495,0.003406388452276588,-0.4989157617092133,0.641018271446228,-0.875230073928833,0.9868903204954836,4.261621697495146,0.1108818485316184,,,,,,
8,16,-0.7617877125740052,-0.06942797452211381,9.771529197692873,0.010018793866038322,-0.0011563843581825495,0.003406388452276588,-0.4989157617092133,0.641018271446228,-0.875230073928833,0.9868903204954836,4.261621697495146,0.1108818485316184,,,,,,
8,17,-0.7456713318824769,-0.0765470787882805,9.779837608337404,0.00993978325277567,-0.0026628882624208927,0.005401710979640484,-0.4991212189197541,0.6416503787040712,-0.883296012878418,0.9770518843229143,4.262116877416509,0.11132905684881349,,,,,,
8,18,-0.7640969157218934,-0.0719476565718651,9.79695796966553,0.004929691553115845,0.0014949593460187318,0.0055439649149775505,-0.5003106594085693,0.638103723526001,-0.8752884268760682,0.9578887613485737,4.2642068145558625,0.10680864203399928,,,,,,
8,19,-0.7640969157218934,-0.0719476565718651,9.79695796966553,0.004929691553115845,0.0014949593460187318,0.0055439649149775505,-0.5003106594085693,0.638103723526001,-0.8752884268760682,0.9578887613485737,4.2642068145558625,0.10680864203399928,,,,,,
8,20,-0.7640969157218934,-0.0719476565718651,9.79695796966553,0.004929691553115845,0.0014949593460187318,0.0055439649149775505,-0.5003106594085693,0.638103723526001,-0.8752884268760682,0.9578887613485737,4.2642068145558625,0.10680864203399928,,,,,,
8,21,-0.7640969157218934,-0.0719476565718651,9.79695796966553,0.004929691553115845,0.0014949593460187318,0.0055439649149775505,-0.5003106594085693,0.638103723526001,-0.8752884268760682,0.9578887613485737,4.2642068145558625,0.10680864203399928,,,,,,
8,22,-0.7626082301139833,-0.07031195610761644,9.787137985229492,0.00879169534891844,-0.002288815565407276,0.003282333025708795,-0.5005147457122803,0.6430715918540956,-0.8802276253700257,0.9490695998412458,4.264891220274184,0.10534322253396056,,,,,,
8,23,-0.7626082301139833,-0.07031195610761644,9.787137985229492,0.00879169534891844,-0.002288815565407276,0.003282333025708795,-0.5005147457122803,0.6430715918540956,-0.8802276253700257,0.9490695998412458,4.264891220274184,0.10534322253396056,,,,,,
8,24,-0.7703502178192139,-0.08124648034572601,9.780994415283203,0.008750302717089653,-0.004300510510802269,0.0025354714598506693,-0.5010044574737549,0.6421180963516235,-0.8812566995620728,0.9437709501436717,4.263602906598607,0.10362438357553327,,,,,,
8,25,-0.7475715279579164,-0.061036687344312675,9.796281814575195,0.009162344969809057,-0.004660730250179768,0.004131335765123367,-0.5008620023727417,0.6371952891349794,-0.8788414597511293,0.9340554086002039,4.260739114064195,0.10177691672480134,,,,,,
8,26,-0.7475715279579164,-0.061036687344312675,9.796281814575195,0.009162344969809057,-0.004660730250179768,0.004131335765123367,-0.5008620023727417,0.6371952891349794,-0.8788414597511293,0.9340554086002039,4.260739114064195,0.10177691672480134,,,,,,
8,27,-0.761182725429535,-0.040105246007442474,9.776194572448732,0.008522289805114271,-0.005451255477964878,0.003439990105107427,-0.501786768436432,0.6386215090751649,-0.8762801885604858,0.9286683677860229,4.2587876612477515,0.10056949792200288,,,,,,
8,28,-0.7386725544929506,-0.057050421833992004,9.787418365478516,0.010533629916608335,-0.001586233265697956,-6.517091242130846e-05,-0.5005237460136415,0.64066880941391,-0.8823012113571167,0.913630206220633,4.258095425875856,0.0929521581448804,,,,,,
9,0,-0.7446457743644715,-0.03390292078256607,9.779523849487305,0.0064171948470175275,-0.0008419068180955948,0.0024351878091692924,-0.4993517994880676,0.6405075192451478,-0.8737241625785829,1.048963687271509,4.260417554452163,0.1251500992350362,,,,,,
9,1,-0.7446457743644715,-0.03390292078256607,9.779523849487305,0.0064171948470175275,-0.0008419068180955948,0.0024351878091692924,-0.4993517994880676,0.6405075192451478,-0.8737241625785829,1.048963687271509,4.260417554452163,0.1251500992350362,,,,,,
9,2,-0.7446457743644715,-0.03390292078256607,9.779523849487305,0.0064171948470175275,-0.0008419068180955948,0.0024351878091692924,-0.4993517994880676,0.6405075192451478,-0.8737241625785829,1.048963687271509,4.260417554452163,0.1251500992350362,,,,,,
9,3,-0.7446457743644715,-0.03390292078256607,9.779523849487305,0.0064171948470175275,-0.0008419068180955948,0.0024351878091692924,-0.4993517994880676,0.6405075192451478,-0.8737241625785829,1.048963687271509,4.260417554452163,0.1251500992350362,,,,,,
9,4,-0.7446457743644715,-0.03390292078256607,9.779523849487305,0.0064171948470175275,-0.0008419068180955948,0.0024351878091692924,-0.4993517994880676,0.6405075192451478,-0.8737241625785829,1.048963687271509,4.260417554452163,0.1251500992350362,,,,,,
9,5,-0.7530964016914369,-0.04874535650014877,9.785545349121094,0.00772848865017295,0.0005208536749705672,0.002329410752281547,-0.499972403049469,0.641577184200287,-0.8787481784820557,1.0433745833622137,4.261655675761577,0.12345826396937158,,,,,,
9,6,-0.757329285144806,-0.06858279556035997,9.779645919799805,0.006949163973331451,-0.0005353080923669041,0.0028457320295274258,-0.5014413595199585,0.6387166976928711,-0.8818353414535522,1.031742591302323,4.262180172236231,0.12178054314349547,,,,,,
9,7,-0.757329285144806,-0.06858279556035997,9.779645919799805,0.006949163973331451,-0.0005353080923669041,0.0028457320295274258,-0.5014413595199585,0.6387166976928711,-0.8818353414535522,1.031742591302323,4.262180172236231,0.12178054314349547,,,,,,
9,8,-0.7922788858413696,-0.06251309067010881,9.786722183227539,0.010919969528913498,-0.0019214812200516462,0.005786077585071326,-0.5022479295730591,0.6366834044456483,-0.8768261671066284,1.0280245599296798,4.262000102774826,0.12201755092983049,,,,,,
9,9,-0.7813375592231752,-0.048003725707530975,9.800016403198242,0.008359224535524847,-0.004100705496966839,0.002490732818841934,-0.5003429651260376,0.640054762363434,-0.8752448558807373,1.0177543710242456,4.262064489238363,0.11985137912899677,,,,,,
9,10,-0.7813375592231752,-0.048003725707530975,9.800016403198242,0.008359224535524847,-0.004100705496966839,0.002490732818841934,-0.5003429651260376,0.640054762363434,-0.8752448558807373,1.0177543710242456,4.262064489238363,0.11985137912899677,,,,,,
9,11,-0.7669385671615601,-0.042573917657136924,9.785367965698242,0.008923575282096863,-0.0019568318966776137,0.00297685619443655,-0.49803987145423895,0.6410734057426454,-0.8787682652473451,1.0126916499657719,4.261996910802068,0.11844603584659513,,,,,,
9,12,-0.7869029641151429,-0.06516851484775543,9.787337303161623,0.00852121226489544,-0.002108180662617088,0.0007920382777228951,-0.5000307559967041,0.6392104029655458,-0.8828409910202026,1.0027029844244044,4.262325063021067,0.11402745246747324,,,,,,
9,13,-0.7869029641151429,-0.06516851484775543,9.787337303161623,0.00852121226489544,-0.002108180662617088,0.0007920382777228951,-0.5000307559967041,0.6392104029655458,-0.8828409910202026,1.0027029844244044,4.262325063021067,0.11402745246747324,,,,,,
9,14,-0.7820929288864136,-0.06817101687192918,9.780496597290039,0.006187727209180594,-0.0019662119448184967,0.004901341162621975,-0.5017995834350586,0.6371852755546571,-0.8778272271156312,0.9961256836184789,4.2622929720273035,0.11371670488494308,,,,,,
9,15,-0.7617877125740052,-0.06942797452211381,9.771529197692873,0.010018793866038322,-0.0011563843581825495,0.003406388452276588,-0.4989157617092133,0.641018271446228,-0.875230073928833,0.9868903204954836,4.261621697495146,0.1108818485316184,,,,,,
9,16,-0.7617877125740052,-0.06942797452211381,9.771529197692873,0.010018793866038322,-0.0011563843581825495,0.003406388452276588,-0.4989157617092133,0.641018271446228,-0.875230073928833,0.9868903204954836,4.261621697495146,0.1108818485316184,,,,,,
9,17,-0.7456713318824769,-0.0765470787882805,9.779837608337404,0.00993978325277567,-0.0026628882624208927,0.005401710979640484,-0.4991212189197541,0.6416503787040712,-0.883296012878418,0.9770518843229143,4.262116877416509,0.11132905684881349,,,,,,
9,18,-0.7640969157218934,-0.0719476565718651,9.79695796966553,0.004929691553115845,0.0014949593460187318,0.0055439649149775505,-0.5003106594085693,0.638103723526001,-0.8752884268760682,0.9578887613485737,4.2642068145558625,0.10680864203399928,,,,,,
9,19,-0.7640969157218934,-0.0719476565718651,9.79695796966553,0.004929691553115845,0.0014949593460187318,0.0055439649149775505,-0.5003106594085693,0.638103723526001,-0.8752884268760682,0.9578887613485737,4.2642068145558625,0.10680864203399928,,,,,,
9,20,-0.7640969157218934,-0.0719476565718651,9.79695796966553,0.004929691553115845,0.0014949593460187318,0.0055439649149775505,-0.5003106594085693,0.638103723526001,-0.8752884268760682,0.9578887613485737,4.2642068145558625,0.10680864203399928,,,,,,
9,21,-0.7640969157218934,-0.0719476565718651,9.79695796966553,0.004929691553115845,0.0014949593460187318,0.0055439649149775505,-0.5003106594085693,0.638103723526001,-0.8752884268760682,0.9578887613485737,4.2642068145558625,0.10680864203399928,,,,,,
9,22,-0.7626082301139833,-0.07031195610761644,9.787137985229492,0.00879169534891844,-0.002288815565407276,0.003282333025708795,-0.5005147457122803,0.6430715918540956,-0.8802276253700257,0.9490695998412458,4.264891220274184,0.10534322253396056,,,,,,
9,23,-0.7626082301139833,-0.07031195610761644,9.787137985229492,0.00879169534891844,-0.002288815565407276,0.003282333025708795,-0.5005147457122803,0.6430715918540956,-0.8802276253700257,0.9490695998412458,4.264891220274184,0.10534322253396056,,,,,,
9,24,-0.7703502178192139,-0.08124648034572601,9.780994415283203,0.008750302717089653,-0.004300510510802269,0.0025354714598506693,-0.5010044574737549,0.6421180963516235,-0.8812566995620728,0.9437709501436717,4.263602906598607,0.10362438357553327,,,,,,
9,25,-0.7475715279579164,-0.061036687344312675,9.796281814575195,0.009162344969809057,-0.004660730250179768,0.004131335765123367,-0.5008620023727417,0.6371952891349794,-0.8788414597511293,0.9340554086002039,4.260739114064195,0.10177691672480134,,,,,,
9,26,-0.7475715279579164,-0.061036687344312675,9.796281814575195,0.009162344969809057,-0.004660730250179768,0.004131335765123367,-0.5008620023727417,0.6371952891349794,-0.8788414597511293,0.9340554086002039,4.260739114064195,0.10177691672480134,,,,,,
9,27,-0.761182725429535,-0.040105246007442474,9.776194572448732,0.008522289805114271,-0.005451255477964878,0.003439990105107427,-0.501786768436432,0.6386215090751649,-0.8762801885604858,0.9286683677860229,4.2587876612477515,0.10056949792200288,,,,,,
9,28,-0.7386725544929506,-0.057050421833992004,9.787418365478516,0.010533629916608335,-0.001586233265697956,-6.517091242130846e-05,-0.5005237460136415,0.64066880941391,-0.8823012113571167,0.913630206220633,4.258095425875856,0.0929521581448804,,,,,,
10,0,-0.7446457743644715,-0.03390292078256607,9.779523849487305,0.0064171948470175275,-0.0008419068180955948,0.0024351878091692924,-0.4993517994880676,0.6405075192451478,-0.8737241625785829,1.048963687271509,4.260417554452163,0.1251500992350362,,,,,,
10,1,-0.7446457743644715,-0.03390292078256607,9.779523849487305,0.0064171948470175275,-0.0008419068180955948,0.0024351878091692924,-0.4993517994880676,0.6405075192451478,-0.8737241625785829,1.048963687271509,4.260417554452163,0.1251500992350362,,,,,,
10,2,-0.7446457743644715,-0.03390292078256607,9.779523849487305,0.0064171948470175275,-0.0008419068180955948,0.0024351878091692924,-0.4993517994880676,0.6405075192451478,-0.8737241625785829,1.048963687271509,4.260417554452163,0.1251500992350362,,,,,,
10,3,-0.7446457743644715,-0.03390292078256607,9.779523849487305,0.0064171948470175275,-0.0008419068180955948,0.0024351878091692924,-0.4993517994880676,0.6405075192451478,-0.8737241625785829,1.048963687271509,4.260417554452163,0.1251500992350362,,,,,,
10,4,-0.7446457743644715,-0.03390292078256607,9.779523849487305,0.0064171948470175275,-0.0008419068180955948,0.0024351878091692924,-0.4993517994880676,0.6405075192451478,-0.8737241625785829,1.048963687271509,4.260417554452163,0.1251500992350362,,,,,,
10,5,-0.7530964016914369,-0.04874535650014877,9.785545349121094,0.00772848865017295,0.0005208536749705672,0.002329410752281547,-0.499972403049469,0.641577184200287,-0.8787481784820557,1.0433745833622137,4.261655675761577,0.12345826396937158,,,,,,
10,6,-0.757329285144806,-0.06858279556035997,9.779645919799805,0.006949163973331451,-0.0005353080923669041,0.0028457320295274258,-0.5014413595199585,0.6387166976928711,-0.8818353414535522,1.031742591302323,4.262180172236231,0.12178054314349547,,,,,,
10,7,-0.757329285144806,-0.06858279556035997,9.779645919799805,0.006949163973331451,-0.0005353080923669041,0.0028457320295274258,-0.5014413595199585,0.6387166976928711,-0.8818353414535522,1.031742591302323,4.262180172236231,0.12178054314349547,,,,,,
10,8,-0.7922788858413696,-0.06251309067010881,9.786722183227539,0.010919969528913498,-0.0019214812200516462,0.005786077585071326,-0.5022479295730591,0.6366834044456483,-0.8768261671066284,1.0280245599296798,4.262000102774826,0.12201755092983049,,,,,,
10,9,-0.7813375592231752,-0.048003725707530975,9.800016403198242,0.008359224535524847,-0.004100705496966839,0.002490732818841934,-0.5003429651260376,0.640054762363434,-0.8752448558807373,1.0177543710242456,4.262064489238363,0.11985137912899677,,,,,,
10,10,-0.7813375592231752,-0.048003725707530975,9.800016403198242,0.008359224535524847,-0.004100705496966839,0.002490732818841934,-0.5003429651260376,0.640054762363434,-0.8752448558807373,1.0177543710242456,4.262064489238363,0.11985137912899677,,,,,,
10,11,-0.7669385671615601,-0.042573917657136924,9.785367965698242,0.008923575282096863,-0.0019568318966776137,0.00297685619443655,-0.49803987145423895,0.6410734057426454,-0.8787682652473451,1.0126916499657719,4.261996910802068,0.11844603584659513,,,,,,
10,12,-0.7869029641151429,-0.06516851484775543,9.787337303161623,0.00852121226489544,-0.002108180662617088,0.0007920382777228951,-0.5000307559967041,0.6392104029655458,-0.8828409910202026,1.0027029844244044,4.262325063021067,0.11402745246747324,,,,,,
10,13,-0.7869029641151429,-0.06516851484775543,9.787337303161623,0.00852121226489544,-0.002108180662617088,0.0007920382777228951,-0.5000307559967041,0.6392104029655458,-0.8828409910202026,1.0027029844244044,4.262325063021067,0.11402745246747324,,,,,,
10,14,-0.7820929288864136,-0.06817101687192918,9.780496597290039,0.006187727209180594,-0.0019662119448184967,0.004901341162621975,-0.5017995834350586,0.6371852755546571,-0.8778272271156312,0.9961256836184789,4.2622929720273035,0.11371670488494308,,,,,,
10,15,-0.7617877125740052,-0.06942797452211381,9.771529197692873,0.010018793866038322,-0.0011563843581825495,0.003406388452276588,-0.4989157617092133,0.641018271446228,-0.875230073928833,0.9868903204954836,4.261621697495146,0.1108818485316184,,,,,,
10,16,-0.7617877125740052,-0.06942797452211381,9.771529197692873,0.010018793866038322,-0.0011563843581825495,0.003406388452276588,-0.4989157617092133,0.641018271446228,-0.875230073928833,0.9868903204954836,4.261621697495146,0.1108818485316184,,,,,,
10,17,-0.7456713318824769,-0.0765470787882805,9.779837608337404,0.00993978325277567,-0.0026628882624208927,0.005401710979640484,-0.4991212189197541,0.6416503787040712,-0.883296012878418,0.9770518843229143,4.262116877416509,0.11132905684881349,,,,,,
10,18,-0.7640969157218934,-0.0719476565718651,9.79695796966553,0.004929691553115845,0.0014949593460187318,0.0055439649149775505,-0.5003106594085693,0.638103723526001,-0.8752884268760682,0.9578887613485737,4.2642068145558625,0.10680864203399928,,,,,,
10,19,-0.7640969157218934,-0.0719476565718651,9.79695796966553,0.004929691553115845,0.0014949593460187318,0.0055439649149775505,-0.5003106594085693,0.638103723526001,-0.8752884268760682,0.9578887613485737,4.2642068145558625,0.10680864203399928,,,,,,
10,20,-0.7640969157218934,-0.0719476565718651,9.79695796966553,0.004929691553115845,0.0014949593460187318,0.0055439649149775505,-0.5003106594085693,0.638103723526001,-0.8752884268760682,0.9578887613485737,4.2642068145558625,0.10680864203399928,,,,,,
10,21,-0.7640969157218934,-0.0719476565718651,9.79695796966553,0.004929691553115845,0.0014949593460187318,0.0055439649149775505,-0.5003106594085693,0.638103723526001,-0.8752884268760682,0.9578887613485737,4.2642068145558625,0.10680864203399928,,,,,,
10,22,-0.7626082301139833,-0.07031195610761644,9.787137985229492,0.00879169534891844,-0.002288815565407276,0.003282333025708795,-0.5005147457122803,0.6430715918540956,-0.8802276253700257,0.9490695998412458,4.264891220274184,0.10534322253396056,,,,,,
10,23,-0.7626082301139833,-0.07031195610761644,9.787137985229492,0.00879169534891844,-0.002288815565407276,0.003282333025708795,-0.5005147457122803,0.6430715918540956,-0.8802276253700257,0.9490695998412458,4.264891220274184,0.10534322253396056,,,,,,
10,24,-0.7703502178192139,-0.08124648034572601,9.780994415283203,0.008750302717089653,-0.004300510510802269,0.0025354714598506693,-0.5010044574737549,0.6421180963516235,-0.8812566995620728,0.9437709501436717,4.263602906598607,0.10362438357553327,,,,,,
10,25,-0.7475715279579164,-0.061036687344312675,9.796281814575195,0.009162344969809057,-0.004660730250179768,0.004131335765123367,-0.5008620023727417,0.6371952891349794,-0.8788414597511293,0.9340554086002039,4.260739114064195,0.10177691672480134,,,,,,
10,26,-0.7475715279579164,-0.061036687344312675,9.796281814575195,0.009162344969809057,-0.004660730250179768,0.004131335765123367,-0.5008620023727417,0.6371952891349794,-0.8788414597511293,0.9340554086002039,4.260739114064195,0.10177691672480134,,,,,,
10,27,-0.761182725429535,-0.040105246007442474,9.776194572448732,0.008522289805114271,-0.005451255477964878,0.003439990105107427,-0.501786768436432,0.6386215090751649,-0.8762801885604858,0.9286683677860229,4.2587876612477515,0.10056949792200288,,,,,,
10,28,-0.7386725544929506,-0.057050421833992004,9.787418365478516,0.010533629916608335,-0.001586233265697956,-6.517091242130846e-05,-0.5005237460136415,0.64066880941391,-0.8823012113571167,0.913630206220633,4.258095425875856,0.0929521581448804,,,,,,
11,0,-0.7446457743644715,-0.03390292078256607,9.779523849487305,0.0064171948470175275,-0.0008419068180955948,0.0024351878091692924,-0.4993517994880676,0.6405075192451478,-0.8737241625785829,1.048963687271509,4.260417554452163,0.1251500992350362,,,,,,
11,1,-0.7446457743644715,-0.03390292078256607,9.779523849487305,0.0064171948470175275,-0.0008419068180955948,0.0024351878091692924,-0.4993517994880676,0.6405075192451478,-0.8737241625785829,1.048963687271509,4.260417554452163,0.1251500992350362,,,,,,
11,2,-0.7446457743644715,-0.03390292078256607,9.779523849487305,0.0064171948470175275,-0.0008419068180955948,0.0024351878091692924,-0.4993517994880676,0.6405075192451478,-0.8737241625785829,1.048963687271509,4.260417554452163,0.1251500992350362,,,,,,
11,3,-0.7446457743644715,-0.03390292078256607,9.779523849487305,0.0064171948470175275,-0.0008419068180955948,0.0024351878091692924,-0.4993517994880676,0.6405075192451478,-0.8737241625785829,1.048963687271509,4.260417554452163,0.1251500992350362,,,,,,
11,4,-0.7446457743644715,-0.03390292078256607,9.779523849487305,0.0064171948470175275,-0.0008419068180955948,0.0024351878091692924,-0.4993517994880676,0.6405075192451478,-0.8737241625785829,1.048963687271509,4.260417554452163,0.1251500992350362,,,,,,
11,5,-0.7530964016914369,-0.04874535650014877,9.785545349121094,0.00772848865017295,0.0005208536749705672,0.002329410752281547,-0.499972403049469,0.641577184200287,-0.8787481784820557,1.0433745833622137,4.261655675761577,0.12345826396937158,,,,,,
11,6,-0.757329285144806,-0.06858279556035997,9.779645919799805,0.006949163973331451,-0.0005353080923669041,0.0028457320295274258,-0.5014413595199585,0.6387166976928711,-0.8818353414535522,1.031742591302323,4.262180172236231,0.12178054314349547,,,,,,
11,7,-0.757329285144806,-0.06858279556035997,9.779645919799805,0.006949163973331451,-0.0005353080923669041,0.0028457320295274258,-0.5014413595199585,0.6387166976928711,-0.8818353414535522,1.031742591302323,4.262180172236231,0.12178054314349547,,,,,,
11,8,-0.7922788858413696,-0.06251309067010881,9.786722183227539,0.010919969528913498,-0.0019214812200516462,0.005786077585071326,-0.5022479295730591,0.6366834044456483,-0.8768261671066284,1.0280245599296798,4.262000102774826,0.12201755092983049,,,,,,
11,9,-0.7813375592231752,-0.048003725707530975,9.800016403198242,0.008359224535524847,-0.004100705496966839,0.002490732818841934,-0.5003429651260376,0.640054762363434,-0.8752448558807373,1.0177543710242456,4.262064489238363,0.11985137912899677,,,,,,
11,10,-0.7813375592231752,-0.048003725707530975,9.800016403198242,0.008359224535524847,-0.004100705496966839,0.002490732818841934,-0.5003429651260376,0.640054762363434,-0.8752448558807373,1.0177543710242456,4.262064489238363,0.11985137912899677,,,,,,
11,11,-0.7669385671615601,-0.042573917657136924,9.785367965698242,0.008923575282096863,-0.0019568318966776137,0.00297685619443655,-0.49803987145423895,0.6410734057426454,-0.8787682652473451,1.0126916499657719,4.261996910802068,0.11844603584659513,,,,,,
11,12,-0.7869029641151429,-0.06516851484775543,9.787337303161623,0.00852121226489544,-0.002108180662617088,0.0007920382777228951,-0.5000307559967041,0.6392104029655458,-0.8828409910202026,1.0027029844244044,4.262325063021067,0.11402745246747324,,,,,,
11,13,-0.7869029641151429,-0.06516851484775543,9.787337303161623,0.00852121226489544,-0.002108180662617088,0.0007920382777228951,-0.5000307559967041,0.6392104029655458,-0.8828409910202026,1.0027029844244044,4.262325063021067,0.11402745246747324,,,,,,
11,14,-0.7820929288864136,-0.06817101687192918,9.780496597290039,0.006187727209180594,-0.0019662119448184967,0.004901341162621975,-0.5017995834350586,0.6371852755546571,-0.8778272271156312,0.9961256836184789,4.2622929720273035,0.11371670488494308,,,,,,
11,15,-0.7617877125740052,-0.06942797452211381,9.771529197692873,0.010018793866038322,-0.0011563843581825495,0.003406388452276588,-0.4989157617092133,0.641018271446228,-0.875230073928833,0.9868903204954836,4.261621697495146,0.1108818485316184,,,,,,
11,16,-0.7617877125740052,-0.06942797452211381,9.771529197692873,0.010018793866038322,-0.0011563843581825495,0.003406388452276588,-0.4989157617092133,0.641018271446228,-0.875230073928833,0.9868903204954836,4.261621697495146,0.1108818485316184,,,,,,
11,17,-0.7456713318824769,-0.0765470787882805,9.779837608337404,0.00993978325277567,-0.0026628882624208927,0.005401710979640484,-0.4991212189197541,0.6416503787040712,-0.883296012878418,0.9770518843229143,4.262116877416509,0.11132905684881349,,,,,,
11,18,-0.7640969157218934,-0.0719476565718651,9.79695796966553,0.004929691553115845,0.0014949593460187318,0.0055439649149775505,-0.5003106594085693,0.638103723526001,-0.8752884268760682,0.9578887613485737,4.2642068145558625,0.10680864203399928,,,,,,
11,19,-0.7640969157218934,-0.0719476565718651,9.79695796966553,0.004929691553115845,0.0014949593460187318,0.0055439649149775505,-0.5003106594085693,0.638103723526001,-0.8752884268760682,0.9578887613485737,4.2642068145558625,0.10680864203399928,,,,,,
11,20,-0.7640969157218934,-0.0719476565718651,9.79695796966553,0.004929691553115845,0.0014949593460187318,0.0055439649149775505,-0.5003106594085693,0.638103723526001,-0.8752884268760682,0.9578887613485737,4.2642068145558625,0.10680864203399928,,,,,,
11,21,-0.7640969157218934,-0.0719476565718651,9.79695796966553,0.004929691553115845,0.0014949593460187318,0.0055439649149775505,-0.5003106594085693,0.638103723526001,-0.8752884268760682,0.9578887613485737,4.2642068145558625,0.10680864203399928,,,,,,
11,22,-0.7626082301139833,-0.07031195610761644,9.787137985229492,0.00879169534891844,-0.002288815565407276,0.003282333025708795,-0.5005147457122803,0.6430715918540956,-0.8802276253700257,0.9490695998412458,4.264891220274184,0.10534322253396056,,,,,,
11,23,-0.7626082301139833,-0.07031195610761644,9.787137985229492,0.00879169534891844,-0.002288815565407276,0.003282333025708795,-0.5005147457122803,0.6430715918540956,-0.8802276253700257,0.9490695998412458,4.264891220274184,0.10534322253396056,,,,,,
11,24,-0.7703502178192139,-0.08124648034572601,9.780994415283203,0.008750302717089653,-0.004300510510802269,0.0025354714598506693,-0.5010044574737549,0.6421180963516235,-0.8812566995620728,0.9437709501436717,4.263602906598607,0.10362438357553327,,,,,,
11,25,-0.7475715279579164,-0.061036687344312675,9.796281814575195,0.009162344969809057,-0.004660730250179768,0.004131335765123367,-0.5008620023727417,0.6371952891349794,-0.8788414597511293,0.9340554086002039,4.260739114064195,0.10177691672480134,,,,,,
11,26,-0.7475715279579164,-0.061036687344312675,9.796281814575195,0.009162344969809057,-0.004660730250179768,0.004131335765123367,-0.5008620023727417,0.6371952891349794,-0.8788414597511293,0.9340554086002039,4.260739114064195,0.10177691672480134,,,,,,
11,27,-0.761182725429535,-0.040105246007442474,9.776194572448732,0.008522289805114271,-0.005451255477964878,0.003439990105107427,-0.501786768436432,0.6386215090751649,-0.8762801885604858,0.9286683677860229,4.2587876612477515,0.10056949792200288,,,,,,
11,28,-0.7386725544929506,-0.057050421833992004,9.787418365478516,0.010533629916608335,-0.001586233265697956,-6.517091242130846e-05,-0.5005237460136415,0.64066880941391,-0.8823012113571167,0.913630206220633,4.258095425875856,0.0929521581448804,,,,,,
12,0,-0.7446457743644715,-0.03390292078256607,9.779523849487305,0.0064171948470175275,-0.0008419068180955948,0.0024351878091692924,-0.4993517994880676,0.6405075192451478,-0.8737241625785829,1.048963687271509,4.260417554452163,0.1251500992350362,,,,,,
12,1,-0.7446457743644715,-0.03390292078256607,9.779523849487305,0.0064171948470175275,-0.0008419068180955948,0.0024351878091692924,-0.4993517994880676,0.6405075192451478,-0.8737241625785829,1.048963687271509,4.260417554452163,0.1251500992350362,,,,,,
12,2,-0.7446457743644715,-0.03390292078256607,9.779523849487305,0.0064171948470175275,-0.0008419068180955948,0.0024351878091692924,-0.4993517994880676,0.6405075192451478,-0.8737241625785829,1.048963687271509,4.260417554452163,0.1251500992350362,,,,,,
12,3,-0.7446457743644715,-0.03390292078256607,9.779523849487305,0.0064171948470175275,-0.0008419068180955948,0.0024351878091692924,-0.4993517994880676,0.6405075192451478,-0.8737241625785829,1.048963687271509,4.260417554452163,0.1251500992350362,,,,,,
12,4,-0.7446457743644715,-0.03390292078256607,9.779523849487305,0.0064171948470175275,-0.0008419068180955948,0.0024351878091692924,-0.4993517994880676,0.6405075192451478,-0.8737241625785829,1.048963687271509,4.260417554452163,0.1251500992350362,,,,,,
12,5,-0.7530964016914369,-0.04874535650014877,9.785545349121094,0.00772848865017295,0.0005208536749705672,0.002329410752281547,-0.499972403049469,0.641577184200287,-0.8787481784820557,1.0433745833622137,4.261655675761577,0.12345826396937158,,,,,,
12,6,-0.757329285144806,-0.06858279556035997,9.779645919799805,0.006949163973331451,-0.0005353080923669041,0.0028457320295274258,-0.5014413595199585,0.6387166976928711,-0.8818353414535522,1.031742591302323,4.262180172236231,0.12178054314349547,,,,,,
12,7,-0.757329285144806,-0.06858279556035997,9.779645919799805,0.006949163973331451,-0.0005353080923669041,0.0028457320295274258,-0.5014413595199585,0.6387166976928711,-0.8818353414535522,1.031742591302323,4.262180172236231,0.12178054314349547,,,,,,
12,8,-0.7922788858413696,-0.06251309067010881,9.786722183227539,0.010919969528913498,-0.0019214812200516462,0.005786077585071326,-0.5022479295730591,0.6366834044456483,-0.8768261671066284,1.0280245599296798,4.262000102774826,0.12201755092983049,,,,,,
12,9,-0.7813375592231752,-0.048003725707530975,9.800016403198242,0.008359224535524847,-0.004100705496966839,0.002490732818841934,-0.5003429651260376,0.640054762363434,-0.8752448558807373,1.0177543710242456,4.262064489238363,0.11985137912899677,,,,,,
12,10,-0.7813375592231752,-0.048003725707530975,9.800016403198242,0.008359224535524847,-0.004100705496966839,0.002490732818841934,-0.5003429651260376,0.640054762363434,-0.8752448558807373,1.0177543710242456,4.262064489238363,0.11985137912899677,,,,,,
12,11,-0.7669385671615601,-0.042573917657136924,9.785367965698242,0.008923575282096863,-0.0019568318966776137,0.00297685619443655,-0.49803987145423895,0.6410734057426454,-0.8787682652473451,1.0126916499657719,4.261996910802068,0.11844603584659513,,,,,,
12,12,-0.7869029641151429,-0.06516851484775543,9.787337303161623,0.00852121226489544,-0.002108180662617088,0.0007920382777228951,-0.5000307559967041,0.6392104029655458,-0.8828409910202026,1.0027029844244044,4.262325063021067,0.11402745246747324,,,,,,
12,13,-0.7869029641151429,-0.06516851484775543,9.787337303161623,0.00852121226489544,-0.002108180662617088,0.0007920382777228951,-0.5000307559967041,0.6392104029655458,-0.8828409910202026,1.0027029844244044,4.262325063021067,0.11402745246747324,,,,,,
12,14,-0.7820929288864136,-0.06817101687192918,9.780496597290039,0.006187727209180594,-0.0019662119448184967,0.004901341162621975,-0.5017995834350586,0.6371852755546571,-0.8778272271156312,0.9961256836184789,4.2622929720273035,0.11371670488494308,,,,,,
12,15,-0.7617877125740052,-0.06942797452211381,9.771529197692873,0.010018793866038322,-0.0011563843581825495,0.003406388452276588,-0.4989157617092133,0.641018271446228,-0.875230073928833,0.9868903204954836,4.261621697495146,0.1108818485316184,,,,,,
12,16,-0.7617877125740052,-0.06942797452211381,9.771529197692873,0.010018793866038322,-0.0011563843581825495,0.003406388452276588,-0.4989157617092133,0.641018271446228,-0.875230073928833,0.9868903204954836,4.261621697495146,0.1108818485316184,,,,,,
12,17,-0.7456713318824769,-0.0765470787882805,9.779837608337404,0.00993978325277567,-0.0026628882624208927,0.005401710979640484,-0.4991212189197541,0.6416503787040712,-0.883296012878418,0.9770518843229143,4.262116877416509,0.11132905684881349,,,,,,
12,18,-0.7640969157218934,-0.0719476565718651,9.79695796966553,0.004929691553115845,0.0014949593460187318,0.0055439649149775505,-0.5003106594085693,0.638103723526001,-0.8752884268760682,0.9578887613485737,4.2642068145558625,0.10680864203399928,,,,,,
12,19,-0.7640969157218934,-0.0719476565718651,9.79695796966553,0.004929691553115845,0.0014949593460187318,0.0055439649149775505,-0.5003106594085693,0.638103723526001,-0.8752884268760682,0.9578887613485737,4.2642068145558625,0.10680864203399928,,,,,,
12,20,-0.7640969157218934,-0.0719476565718651,9.79695796966553,0.004929691553115845,0.0014949593460187318,0.0055439649149775505,-0.5003106594085693,0.638103723526001,-0.8752884268760682,0.9578887613485737,4.2642068145558625,0.10680864203399928,,,,,,
12,21,-0.7640969157218934,-0.0719476565718651,9.79695796966553,0.004929691553115845,0.0014949593460187318,0.0055439649149775505,-0.5003106594085693,0.638103723526001,-0.8752884268760682,0.9578887613485737,4.2642068145558625,0.10680864203399928,,,,,,
12,22,-0.7626082301139833,-0.07031195610761644,9.787137985229492,0.00879169534891844,-0.002288815565407276,0.003282333025708795,-0.5005147457122803,0.6430715918540956,-0.8802276253700257,0.9490695998412458,4.264891220274184,0.10534322253396056,,,,,,
12,23,-0.7626082301139833,-0.07031195610761644,9.787137985229492,0.00879169534891844,-0.002288815565407276,0.003282333025708795,-0.5005147457122803,0.6430715918540956,-0.8802276253700257,0.9490695998412458,4.264891220274184,0.10534322253396056,,,,,,
12,24,-0.7703502178192139,-0.08124648034572601,9.780994415283203,0.008750302717089653,-0.004300510510802269,0.0025354714598506693,-0.5010044574737549,0.6421180963516235,-0.8812566995620728,0.9437709501436717,4.263602906598607,0.10362438357553327,,,,,,
12,25,-0.7475715279579164,-0.061036687344312675,9.796281814575195,0.009162344969809057,-0.004660730250179768,0.004131335765123367,-0.5008620023727417,0.6371952891349794,-0.8788414597511293,0.9340554086002039,4.260739114064195,0.10177691672480134,,,,,,
12,26,-0.7475715279579164,-0.061036687344312675,9.796281814575195,0.009162344969809057,-0.004660730250179768,0.004131335765123367,-0.5008620023727417,0.6371952891349794,-0.8788414597511293,0.9340554086002039,4.260739114064195,0.10177691672480134,,,,,,
12,27,-0.761182725429535,-0.040105246007442474,9.776194572448732,0.008522289805114271,-0.005451255477964878,0.003439990105107427,-0.501786768436432,0.6386215090751649,-0.8762801885604858,0.9286683677860229,4.2587876612477515,0.10056949792200288,,,,,,
12,28,-0.7386725544929506,-0.057050421833992004,9.787418365478516,0.010533629916608335,-0.001586233265697956,-6.517091242130846e-05,-0.5005237460136415,0.64066880941391,-0.8823012113571167,0.913630206220633,4.258095425875856,0.0929521581448804,,,,,,
13,0,-0.7446457743644715,-0.03390292078256607,9.779523849487305,0.0064171948470175275,-0.0008419068180955948,0.0024351878091692924,-0.4993517994880676,0.6405075192451478,-0.8737241625785829,1.048963687271509,4.260417554452163,0.1251500992350362,,,,,,
13,1,-0.7446457743644715,-0.03390292078256607,9.779523849487305,0.0064171948470175275,-0.0008419068180955948,0.0024351878091692924,-0.4993517994880676,0.6405075192451478,-0.8737241625785829,1.048963687271509,4.260417554452163,0.1251500992350362,,,,,,
13,2,-0.7446457743644715,-0.03390292078256607,9.779523849487305,0.0064171948470175275,-0.0008419068180955948,0.0024351878091692924,-0.4993517994880676,0.6405075192451478,-0.8737241625785829,1.048963687271509,4.260417554452163,0.1251500992350362,,,,,,
13,3,-0.7446457743644715,-0.03390292078256607,9.779523849487305,0.0064171948470175275,-0.0008419068180955948,0.0024351878091692924,-0.4993517994880676,0.6405075192451478,-0.8737241625785829,1.048963687271509,4.260417554452163,0.1251500992350362,,,,,,
13,4,-0.7446457743644715,-0.03390292078256607,9.779523849487305,0.0064171948470175275,-0.0008419068180955948,0.0024351878091692924,-0.4993517994880676,0.6405075192451478,-0.8737241625785829,1.048963687271509,4.260417554452163,0.1251500992350362,,,,,,
13,5,-0.7530964016914369,-0.04874535650014877,9.785545349121094,0.00772848865017295,0.0005208536749705672,0.002329410752281547,-0.499972403049469,0.641577184200287,-0.8787481784820557,1.0433745833622137,4.261655675761577,0.12345826396937158,,,,,,
13,6,-0.757329285144806,-0.06858279556035997,9.779645919799805,0.006949163973331451,-0.0005353080923669041,0.0028457320295274258,-0.5014413595199585,0.6387166976928711,-0.8818353414535522,1.031742591302323,4.262180172236231,0.12178054314349547,,,,,,
13,7,-0.757329285144806,-0.06858279556035997,9.779645919799805,0.006949163973331451,-0.0005353080923669041,0.0028457320295274258,-0.5014413595199585,0.6387166976928711,-0.8818353414535522,1.031742591302323,4.262180172236231,0.12178054314349547,,,,,,
13,8,-0.7922788858413696,-0.06251309067010881,9.786722183227539,0.010919969528913498,-0.0019214812200516462,0.005786077585071326,-0.5022479295730591,0.6366834044456483,-0.8768261671066284,1.0280245599296798,4.262000102774826,0.12201755092983049,,,,,,
13,9,-0.7813375592231752,-0.048003725707530975,9.800016403198242,0.008359224535524847,-0.004100705496966839,0.002490732818841934,-0.5003429651260376,0.640054762363434,-0.8752448558807373,1.0177543710242456,4.262064489238363,0.11985137912899677,,,,,,
13,10,-0.7813375592231752,-0.048003725707530975,9.800016403198242,0.008359224535524847,-0.004100705496966839,0.002490732818841934,-0.5003429651260376,0.640054762363434,-0.8752448558807373,1.0177543710242456,4.262064489238363,0.11985137912899677,,,,,,
13,11,-0.7669385671615601,-0.042573917657136924,9.785367965698242,0.008923575282096863,-0.0019568318966776137,0.00297685619443655,-0.49803987145423895,0.6410734057426454,-0.8787682652473451,1.0126916499657719,4.261996910802068,0.11844603584659513,,,,,,
13,12,-0.7869029641151429,-0.06516851484775543,9.787337303161623,0.00852121226489544,-0.002108180662617088,0.0007920382777228951,-0.5000307559967041,0.6392104029655458,-0.8828409910202026,1.0027029844244044,4.262325063021067,0.11402745246747324,,,,,,
13,13,-0.7869029641151429,-0.06516851484775543,9.787337303161623,0.00852121226489544,-0.002108180662617088,0.0007920382777228951,-0.5000307559967041,0.6392104029655458,-0.8828409910202026,1.0027029844244044,4.262325063021067,0.11402745246747324,,,,,,
13,14,-0.7820929288864136,-0.06817101687192918,9.780496597290039,0.006187727209180594,-0.0019662119448184967,0.004901341162621975,-0.5017995834350586,0.6371852755546571,-0.8778272271156312,0.9961256836184789,4.2622929720273035,0.11371670488494308,,,,,,
13,15,-0.7617877125740052,-0.06942797452211381,9.771529197692873,0.010018793866038322,-0.0011563843581825495,0.003406388452276588,-0.4989157617092133,0.641018271446228,-0.875230073928833,0.9868903204954836,4.261621697495146,0.1108818485316184,,,,,,
13,16,-0.7617877125740052,-0.06942797452211381,9.771529197692873,0.010018793866038322,-0.0011563843581825495,0.003406388452276588,-0.4989157617092133,0.641018271446228,-0.875230073928833,0.9868903204954836,4.261621697495146,0.1108818485316184,,,,,,
13,17,-0.7456713318824769,-0.0765470787882805,9.779837608337404,0.00993978325277567,-0.0026628882624208927,0.005401710979640484,-0.4991212189197541,0.6416503787040712,-0.883296012878418,0.9770518843229143,4.262116877416509,0.11132905684881349,,,,,,
13,18,-0.7640969157218934,-0.0719476565718651,9.79695796966553,0.004929691553115845,0.0014949593460187318,0.0055439649149775505,-0.5003106594085693,0.638103723526001,-0.8752884268760682,0.9578887613485737,4.2642068145558625,0.10680864203399928,,,,,,
13,19,-0.7640969157218934,-0.0719476565718651,9.79695796966553,0.004929691553115845,0.0014949593460187318,0.0055439649149775505,-0.5003106594085693,0.638103723526001,-0.8752884268760682,0.9578887613485737,4.2642068145558625,0.10680864203399928,,,,,,
13,20,-0.7640969157218934,-0.0719476565718651,9.79695796966553,0.004929691553115845,0.0014949593460187318,0.0055439649149775505,-0.5003106594085693,0.638103723526001,-0.8752884268760682,0.9578887613485737,4.2642068145558625,0.10680864203399928,,,,,,
13,21,-0.7640969157218934,-0.0719476565718651,9.79695796966553,0.004929691553115845,0.0014949593460187318,0.0055439649149775505,-0.5003106594085693,0.638103723526001,-0.8752884268760682,0.9578887613485737,4.2642068145558625,0.10680864203399928,,,,,,
13,22,-0.7626082301139833,-0.07031195610761644,9.787137985229492,0.00879169534891844,-0.002288815565407276,0.003282333025708795,-0.5005147457122803,0.6430715918540956,-0.8802276253700257,0.9490695998412458,4.264891220274184,0.10534322253396056,,,,,,
13,23,-0.7626082301139833,-0.07031195610761644,9.787137985229492,0.00879169534891844,-0.002288815565407276,0.003282333025708795,-0.5005147457122803,0.6430715918540956,-0.8802276253700257,0.9490695998412458,4.264891220274184,0.10534322253396056,,,,,,
13,24,-0.7703502178192139,-0.08124648034572601,9.780994415283203,0.008750302717089653,-0.004300510510802269,0.0025354714598506693,-0.5010044574737549,0.6421180963516235,-0.8812566995620728,0.9437709501436717,4.263602906598607,0.10362438357553327,,,,,,
13,25,-0.7475715279579164,-0.061036687344312675,9.796281814575195,0.009162344969809057,-0.004660730250179768,0.004131335765123367,-0.5008620023727417,0.6371952891349794,-0.8788414597511293,0.9340554086002039,4.260739114064195,0.10177691672480134,,,,,,
13,26,-0.7475715279579164,-0.061036687344312675,9.796281814575195,0.009162344969809057,-0.004660730250179768,0.004131335765123367,-0.5008620023727417,0.6371952891349794,-0.8788414597511293,0.9340554086002039,4.260739114064195,0.10177691672480134,,,,,,
13,27,-0.761182725429535,-0.040105246007442474,9.776194572448732,0.008522289805114271,-0.005451255477964878,0.003439990105107427,-0.501786768436432,0.6386215090751649,-0.8762801885604858,0.9286683677860229,4.2587876612477515,0.10056949792200288,,,,,,
13,28,-0.7386725544929506,-0.057050421833992004,9.787418365478516,0.010533629916608335,-0.001586233265697956,-6.517091242130846e-05,-0.5005237460136415,0.64066880941391,-0.8823012113571167,0.913630206220633,4.258095425875856,0.0929521581448804,,,,,,
14,0,-0.7446457743644715,-0.03390292078256607,9.779523849487305,0.0064171948470175275,-0.0008419068180955948,0.0024351878091692924,-0.4993517994880676,0.6405075192451478,-0.8737241625785829,1.048963687271509,4.260417554452163,0.1251500992350362,,,,,,
14,1,-0.7446457743644715,-0.03390292078256607,9.779523849487305,0.0064171948470175275,-0.0008419068180955948,0.0024351878091692924,-0.4993517994880676,0.6405075192451478,-0.8737241625785829,1.048963687271509,4.260417554452163,0.1251500992350362,,,,,,
14,2,-0.7446457743644715,-0.03390292078256607,9.779523849487305,0.0064171948470175275,-0.0008419068180955948,0.0024351878091692924,-0.4993517994880676,0.6405075192451478,-0.8737241625785829,1.048963687271509,4.260417554452163,0.1251500992350362,,,,,,
14,3,-0.7446457743644715,-0.03390292078256607,9.779523849487305,0.0064171948470175275,-0.0008419068180955948,0.0024351878091692924,-0.4993517994880676,0.6405075192451478,-0.8737241625785829,1.048963687271509,4.260417554452163,0.1251500992350362,,,,,,
14,4,-0.7446457743644715,-0.03390292078256607,9.779523849487305,0.0064171948470175275,-0.0008419068180955948,0.0024351878091692924,-0.4993517994880676,0.6405075192451478,-0.8737241625785829,1.048963687271509,4.260417554452163,0.1251500992350362,,,,,,
14,5,-0.7530964016914369,-0.04874535650014877,9.785545349121094,0.00772848865017295,0.0005208536749705672,0.002329410752281547,-0.499972403049469,0.641577184200287,-0.8787481784820557,1.0433745833622137,4.261655675761577,0.12345826396937158,,,,,,
14,6,-0.757329285144806,-0.06858279556035997,9.779645919799805,0.006949163973331451,-0.0005353080923669041,0.0028457320295274258,-0.5014413595199585,0.6387166976928711,-0.8818353414535522,1.031742591302323,4.262180172236231,0.12178054314349547,,,,,,
14,7,-0.757329285144806,-0.06858279556035997,9.779645919799805,0.006949163973331451,-0.0005353080923669041,0.0028457320295274258,-0.5014413595199585,0.6387166976928711,-0.8818353414535522,1.031742591302323,4.262180172236231,0.12178054314349547,,,,,,
14,8,-0.7922788858413696,-0.06251309067010881,9.786722183227539,0.010919969528913498,-0.0019214812200516462,0.005786077585071326,-0.5022479295730591,0.6366834044456483,-0.8768261671066284,1.0280245599296798,4.262000102774826,0.12201755092983049,,,,,,
14,9,-0.7813375592231752,-0.048003725707530975,9.800016403198242,0.008359224535524847,-0.004100705496966839,0.002490732818841934,-0.5003429651260376,0.640054762363434,-0.8752448558807373,1.0177543710242456,4.262064489238363,0.11985137912899677,,,,,,
14,10,-0.7813375592231752,-0.048003725707530975,9.800016403198242,0.008359224535524847,-0.004100705496966839,0.002490732818841934,-0.5003429651260376,0.640054762363434,-0.8752448558807373,1.0177543710242456,4.262064489238363,0.11985137912899677,,,,,,
14,11,-0.7669385671615601,-0.042573917657136924,9.785367965698242,0.008923575282096863,-0.0019568318966776137,0.00297685619443655,-0.49803987145423895,0.6410734057426454,-0.8787682652473451,1.0126916499657719,4.261996910802068,0.11844603584659513,,,,,,
14,12,-0.7869029641151429,-0.06516851484775543,9.787337303161623,0.00852121226489544,-0.002108180662617088,0.0007920382777228951,-0.5000307559967041,0.6392104029655458,-0.8828409910202026,1.0027029844244044,4.262325063021067,0.11402745246747324,,,,,,
14,13,-0.7869029641151429,-0.06516851484775543,9.787337303161623,0.00852121226489544,-0.002108180662617088,0.0007920382777228951,-0.5000307559967041,0.6392104029655458,-0.8828409910202026,1.0027029844244044,4.262325063021067,0.11402745246747324,,,,,,
14,14,-0.7820929288864136,-0.06817101687192918,9.780496597290039,0.006187727209180594,-0.0019662119448184967,0.004901341162621975,-0.5017995834350586,0.6371852755546571,-0.8778272271156312,0.9961256836184789,4.2622929720273035,0.11371670488494308,,,,,,
14,15,-0.7617877125740052,-0.06942797452211381,9.771529197692873,0.010018793866038322,-0.0011563843581825495,0.003406388452276588,-0.4989157617092133,0.641018271446228,-0.875230073928833,0.9868903204954836,4.261621697495146,0.1108818485316184,,,,,,
14,16,-0.7617877125740052,-0.06942797452211381,9.771529197692873,0.010018793866038322,-0.0011563843581825495,0.003406388452276588,-0.4989157617092133,0.641018271446228,-0.875230073928833,0.9868903204954836,4.261621697495146,0.1108818485316184,,,,,,
14,17,-0.7456713318824769,-0.0765470787882805,9.779837608337404,0.00993978325277567,-0.0026628882624208927,0.005401710979640484,-0.4991212189197541,0.6416503787040712,-0.883296012878418,0.9770518843229143,4.262116877416509,0.11132905684881349,,,,,,
14,18,-0.7640969157218934,-0.0719476565718651,9.79695796966553,0.004929691553115845,0.0014949593460187318,0.0055439649149775505,-0.5003106594085693,0.638103723526001,-0.8752884268760682,0.9578887613485737,4.2642068145558625,0.10680864203399928,,,,,,
14,19,-0.7640969157218934,-0.0719476565718651,9.79695796966553,0.004929691553115845,0.0014949593460187318,0.0055439649149775505,-0.5003106594085693,0.638103723526001,-0.8752884268760682,0.9578887613485737,4.2642068145558625,0.10680864203399928,,,,,,
14,20,-0.7640969157218934,-0.0719476565718651,9.79695796966553,0.004929691553115845,0.0014949593460187318,0.0055439649149775505,-0.5003106594085693,0.638103723526001,-0.8752884268760682,0.9578887613485737,4.2642068145558625,0.10680864203399928,,,,,,
14,21,-0.7640969157218934,-0.0719476565718651,9.79695796966553,0.004929691553115845,0.0014949593460187318,0.0055439649149775505,-0.5003106594085693,0.638103723526001,-0.8752884268760682,0.9578887613485737,4.2642068145558625,0.10680864203399928,,,,,,
14,22,-0.7626082301139833,-0.07031195610761644,9.787137985229492,0.00879169534891844,-0.002288815565407276,0.003282333025708795,-0.5005147457122803,0.6430715918540956,-0.8802276253700257,0.9490695998412458,4.264891220274184,0.10534322253396056,,,,,,
14,23,-0.7626082301139833,-0.07031195610761644,9.787137985229492,0.00879169534891844,-0.002288815565407276,0.003282333025708795,-0.5005147457122803,0.6430715918540956,-0.8802276253700257,0.9490695998412458,4.264891220274184,0.10534322253396056,,,,,,
14,24,-0.7703502178192139,-0.08124648034572601,9.780994415283203,0.008750302717089653,-0.004300510510802269,0.0025354714598506693,-0.5010044574737549,0.6421180963516235,-0.8812566995620728,0.9437709501436717,4.263602906598607,0.10362438357553327,,,,,,
14,25,-0.7475715279579164,-0.061036687344312675,9.796281814575195,0.009162344969809057,-0.004660730250179768,0.004131335765123367,-0.5008620023727417,0.6371952891349794,-0.8788414597511293,0.9340554086002039,4.260739114064195,0.10177691672480134,,,,,,
14,26,-0.7475715279579164,-0.061036687344312675,9.796281814575195,0.009162344969809057,-0.004660730250179768,0.004131335765123367,-0.5008620023727417,0.6371952891349794,-0.8788414597511293,0.9340554086002039,4.260739114064195,0.10177691672480134,,,,,,
14,27,-0.761182725429535,-0.040105246007442474,9.776194572448732,0.008522289805114271,-0.005451255477964878,0.003439990105107427,-0.501786768436432,0.6386215090751649,-0.8762801885604858,0.9286683677860229,4.2587876612477515,0.10056949792200288,,,,,,
14,28,-0.7386725544929506,-0.057050421833992004,9.787418365478516,0.010533629916608335,-0.001586233265697956,-6.517091242130846e-05,-0.5005237460136415,0.64066880941391,-0.8823012113571167,0.913630206220633,4.258095425875856,0.0929521581448804,,,,,,
15,0,-0.7446457743644715,-0.03390292078256607,9.779523849487305,0.0064171948470175275,-0.0008419068180955948,0.0024351878091692924,-0.4993517994880676,0.6405075192451478,-0.8737241625785829,1.048963687271509,4.260417554452163,0.1251500992350362,,,,,,
15,1,-0.7446457743644715,-0.03390292078256607,9.779523849487305,0.0064171948470175275,-0.0008419068180955948,0.0024351878091692924,-0.4993517994880676,0.6405075192451478,-0.8737241625785829,1.048963687271509,4.260417554452163,0.1251500992350362,,,,,,
15,2,-0.7446457743644715,-0.03390292078256607,9.779523849487305,0.0064171948470175275,-0.0008419068180955948,0.0024351878091692924,-0.4993517994880676,0.6405075192451478,-0.8737241625785829,1.048963687271509,4.260417554452163,0.1251500992350362,,,,,,
15,3,-0.7446457743644715,-0.03390292078256607,9.779523849487305,0.0064171948470175275,-0.0008419068180955948,0.0024351878091692924,-0.4993517994880676,0.6405075192451478,-0.8737241625785829,1.048963687271509,4.260417554452163,0.1251500992350362,,,,,,
15,4,-0.7446457743644715,-0.03390292078256607,9.779523849487305,0.0064171948470175275,-0.0008419068180955948,0.0024351878091692924,-0.4993517994880676,0.6405075192451478,-0.8737241625785829,1.048963687271509,4.260417554452163,0.1251500992350362,,,,,,
15,5,-0.7530964016914369,-0.04874535650014877,9.785545349121094,0.00772848865017295,0.0005208536749705672,0.002329410752281547,-0.499972403049469,0.641577184200287,-0.8787481784820557,1.0433745833622137,4.261655675761577,0.12345826396937158,,,,,,
15,6,-0.757329285144806,-0.06858279556035997,9.779645919799805,0.006949163973331451,-0.0005353080923669041,0.0028457320295274258,-0.5014413595199585,0.6387166976928711,-0.8818353414535522,1.031742591302323,4.262180172236231,0.12178054314349547,,,,,,
15,7,-0.757329285144806,-0.06858279556035997,9.779645919799805,0.006949163973331451,-0.0005353080923669041,0.0028457320295274258,-0.5014413595199585,0.6387166976928711,-0.8818353414535522,1.031742591302323,4.262180172236231,0.12178054314349547,,,,,,
15,8,-0.7922788858413696,-0.06251309067010881,9.786722183227539,0.010919969528913498,-0.0019214812200516462,0.005786077585071326,-0.5022479295730591,0.6366834044456483,-0.8768261671066284,1.0280245599296798,4.262000102774826,0.12201755092983049,,,,,,
15,9,-0.7813375592231752,-0.048003725707530975,9.800016403198242,0.008359224535524847,-0.004100705496966839,0.002490732818841934,-0.5003429651260376,0.640054762363434,-0.8752448558807373,1.0177543710242456,4.262064489238363,0.11985137912899677,,,,,,
15,10,-0.7813375592231752,-0.048003725707530975,9.800016403198242,0.008359224535524847,-0.004100705496966839,0.002490732818841934,-0.5003429651260376,0.640054762363434,-0.8752448558807373,1.0177543710242456,4.262064489238363,0.11985137912899677,,,,,,
15,11,-0.7669385671615601,-0.042573917657136924,9.785367965698242,0.008923575282096863,-0.0019568318966776137,0.00297685619443655,-0.49803987145423895,0.6410734057426454,-0.8787682652473451,1.0126916499657719,4.261996910802068,0.11844603584659513,,,,,,
15,12,-0.7869029641151429,-0.06516851484775543,9.787337303161623,0.00852121226489544,-0.002108180662617088,0.0007920382777228951,-0.5000307559967041,0.6392104029655458,-0.8828409910202026,1.0027029844244044,4.262325063021067,0.11402745246747324,,,,,,
15,13,-0.7869029641151429,-0.06516851484775543,9.787337303161623,0.00852121226489544,-0.002108180662617088,0.0007920382777228951,-0.5000307559967041,0.6392104029655458,-0.8828409910202026,1.0027029844244044,4.262325063021067,0.11402745246747324,,,,,,
15,14,-0.7820929288864136,-0.06817101687192918,9.780496597290039,0.006187727209180594,-0.0019662119448184967,0.004901341162621975,-0.5017995834350586,0.6371852755546571,-0.8778272271156312,0.9961256836184789,4.2622929720273035,0.11371670488494308,,,,,,
15,15,-0.7617877125740052,-0.06942797452211381,9.771529197692873,0.010018793866038322,-0.0011563843581825495,0.003406388452276588,-0.4989157617092133,0.641018271446228,-0.875230073928833,0.9868903204954836,4.261621697495146,0.1108818485316184,,,,,,
15,16,-0.7617877125740052,-0.06942797452211381,9.771529197692873,0.010018793866038322,-0.0011563843581825495,0.003406388452276588,-0.4989157617092133,0.641018271446228,-0.875230073928833,0.9868903204954836,4.261621697495146,0.1108818485316184,,,,,,
15,17,-0.7456713318824769,-0.0765470787882805,9.779837608337404,0.00993978325277567,-0.0026628882624208927,0.005401710979640484,-0.4991212189197541,0.6416503787040712,-0.883296012878418,0.9770518843229143,4.262116877416509,0.11132905684881349,,,,,,
15,18,-0.7640969157218934,-0.0719476565718651,9.79695796966553,0.004929691553115845,0.0014949593460187318,0.0055439649149775505,-0.5003106594085693,0.638103723526001,-0.8752884268760682,0.9578887613485737,4.2642068145558625,0.10680864203399928,,,,,,
15,19,-0.7640969157218934,-0.0719476565718651,9.79695796966553,0.004929691553115845,0.0014949593460187318,0.0055439649149775505,-0.5003106594085693,0.638103723526001,-0.8752884268760682,0.9578887613485737,4.2642068145558625,0.10680864203399928,,,,,,
15,20,-0.7640969157218934,-0.0719476565718651,9.79695796966553,0.004929691553115845,0.0014949593460187318,0.0055439649149775505,-0.5003106594085693,0.638103723526001,-0.8752884268760682,0.9578887613485737,4.2642068145558625,0.10680864203399928,,,,,,
15,21,-0.7640969157218934,-0.0719476565718651,9.79695796966553,0.004929691553115845,0.0014949593460187318,0.0055439649149775505,-0.5003106594085693,0.638103723526001,-0.8752884268760682,0.9578887613485737,4.2642068145558625,0.10680864203399928,,,,,,
15,22,-0.7626082301139833,-0.07031195610761644,9.787137985229492,0.00879169534891844,-0.002288815565407276,0.003282333025708795,-0.5005147457122803,0.6430715918540956,-0.8802276253700257,0.9490695998412458,4.264891220274184,0.10534322253396056,,,,,,
15,23,-0.7626082301139833,-0.07031195610761644,9.787137985229492,0.00879169534891844,-0.002288815565407276,0.003282333025708795,-0.5005147457122803,0.6430715918540956,-0.8802276253700257,0.9490695998412458,4.264891220274184,0.10534322253396056,,,,,,
15,24,-0.7703502178192139,-0.08124648034572601,9.780994415283203,0.008750302717089653,-0.004300510510802269,0.0025354714598506693,-0.5010044574737549,0.6421180963516235,-0.8812566995620728,0.9437709501436717,4.263602906598607,0.10362438357553327,,,,,,
15,25,-0.7475715279579164,-0.061036687344312675,9.796281814575195,0.009162344969809057,-0.004660730250179768,0.004131335765123367,-0.5008620023727417,0.6371952891349794,-0.8788414597511293,0.9340554086002039,4.260739114064195,0.10177691672480134,,,,,,
15,26,-0.7475715279579164,-0.061036687344312675,9.796281814575195,0.009162344969809057,-0.004660730250179768,0.004131335765123367,-0.5008620023727417,0.6371952891349794,-0.8788414597511293,0.9340554086002039,4.260739114064195,0.10177691672480134,,,,,,
15,27,-0.761182725429535,-0.040105246007442474,9.776194572448732,0.008522289805114271,-0.005451255477964878,0.003439990105107427,-0.501786768436432,0.6386215090751649,-0.8762801885604858,0.9286683677860229,4.2587876612477515,0.10056949792200288,,,,,,
15,28,-0.7386725544929506,-0.057050421833992004,9.787418365478516,0.010533629916608335,-0.001586233265697956,-6.517091242130846e-05,-0.5005237460136415,0.64066880941391,-0.8823012113571167,0.913630206220633,4.258095425875856,0.0929521581448804,,,,,,
16,0,-0.7446457743644715,-0.03390292078256607,9.779523849487305,0.0064171948470175275,-0.0008419068180955948,0.0024351878091692924,-0.4993517994880676,0.6405075192451478,-0.8737241625785829,1.048963687271509,4.260417554452163,0.1251500992350362,,,,,,
16,1,-0.7446457743644715,-0.03390292078256607,9.779523849487305,0.0064171948470175275,-0.0008419068180955948,0.0024351878091692924,-0.4993517994880676,0.6405075192451478,-0.8737241625785829,1.048963687271509,4.260417554452163,0.1251500992350362,,,,,,
16,2,-0.7446457743644715,-0.03390292078256607,9.779523849487305,0.0064171948470175275,-0.0008419068180955948,0.0024351878091692924,-0.4993517994880676,0.6405075192451478,-0.8737241625785829,1.048963687271509,4.260417554452163,0.1251500992350362,,,,,,
16,3,-0.7446457743644715,-0.03390292078256607,9.779523849487305,0.0064171948470175275,-0.0008419068180955948,0.0024351878091692924,-0.4993517994880676,0.6405075192451478,-0.8737241625785829,1.048963687271509,4.260417554452163,0.1251500992350362,,,,,,
16,4,-0.7446457743644715,-0.03390292078256607,9.779523849487305,0.0064171948470175275,-0.0008419068180955948,0.0024351878091692924,-0.4993517994880676,0.6405075192451478,-0.8737241625785829,1.048963687271509,4.260417554452163,0.1251500992350362,,,,,,
16,5,-0.7530964016914369,-0.04874535650014877,9.785545349121094,0.00772848865017295,0.0005208536749705672,0.002329410752281547,-0.499972403049469,0.641577184200287,-0.8787481784820557,1.0433745833622137,4.261655675761577,0.12345826396937158,,,,,,
16,6,-0.757329285144806,-0.06858279556035997,9.779645919799805,0.006949163973331451,-0.0005353080923669041,0.0028457320295274258,-0.5014413595199585,0.6387166976928711,-0.8818353414535522,1.031742591302323,4.262180172236231,0.12178054314349547,,,,,,
16,7,-0.757329285144806,-0.06858279556035997,9.779645919799805,0.006949163973331451,-0.0005353080923669041,0.0028457320295274258,-0.5014413595199585,0.6387166976928711,-0.8818353414535522,1.031742591302323,4.262180172236231,0.12178054314349547,,,,,,
16,8,-0.7922788858413696,-0.06251309067010881,9.786722183227539,0.010919969528913498,-0.0019214812200516462,0.005786077585071326,-0.5022479295730591,0.6366834044456483,-0.8768261671066284,1.0280245599296798,4.262000102774826,0.12201755092983049,,,,,,
16,9,-0.7813375592231752,-0.048003725707530975,9.800016403198242,0.008359224535524847,-0.004100705496966839,0.002490732818841934,-0.5003429651260376,0.640054762363434,-0.8752448558807373,1.0177543710242456,4.262064489238363,0.11985137912899677,,,,,,
16,10,-0.7813375592231752,-0.048003725707530975,9.800016403198242,0.008359224535524847,-0.004100705496966839,0.002490732818841934,-0.5003429651260376,0.640054762363434,-0.8752448558807373,1.0177543710242456,4.262064489238363,0.11985137912899677,,,,,,
16,11,-0.7669385671615601,-0.042573917657136924,9.785367965698242,0.008923575282096863,-0.0019568318966776137,0.00297685619443655,-0.49803987145423895,0.6410734057426454,-0.8787682652473451,1.0126916499657719,4.261996910802068,0.11844603584659513,,,,,,
16,12,-0.7869029641151429,-0.06516851484775543,9.787337303161623,0.00852121226489544,-0.002108180662617088,0.0007920382777228951,-0.5000307559967041,0.6392104029655458,-0.8828409910202026,1.0027029844244044,4.262325063021067,0.11402745246747324,,,,,,
16,13,-0.7869029641151429,-0.06516851484775543,9.787337303161623,0.00852121226489544,-0.002108180662617088,0.0007920382777228951,-0.5000307559967041,0.6392104029655458,-0.8828409910202026,1.0027029844244044,4.262325063021067,0.11402745246747324,,,,,,
16,14,-0.7820929288864136,-0.06817101687192918,9.780496597290039,0.006187727209180594,-0.0019662119448184967,0.004901341162621975,-0.5017995834350586,0.6371852755546571,-0.8778272271156312,0.9961256836184789,4.2622929720273035,0.11371670488494308,,,,,,
16,15,-0.7617877125740052,-0.06942797452211381,9.771529197692873,0.010018793866038322,-0.0011563843581825495,0.003406388452276588,-0.4989157617092133,0.641018271446228,-0.875230073928833,0.9868903204954836,4.261621697495146,0.1108818485316184,,,,,,
16,16,-0.7617877125740052,-0.06942797452211381,9.771529197692873,0.010018793866038322,-0.0011563843581825495,0.003406388452276588,-0.4989157617092133,0.641018271446228,-0.875230073928833,0.9868903204954836,4.261621697495146,0.1108818485316184,,,,,,
16,17,-0.7456713318824769,-0.0765470787882805,9.779837608337404,0.00993978325277567,-0.0026628882624208927,0.005401710979640484,-0.4991212189197541,0.6416503787040712,-0.883296012878418,0.9770518843229143,4.262116877416509,0.11132905684881349,,,,,,
16,18,-0.7640969157218934,-0.0719476565718651,9.79695796966553,0.004929691553115845,0.0014949593460187318,0.0055439649149775505,-0.5003106594085693,0.638103723526001,-0.8752884268760682,0.9578887613485737,4.2642068145558625,0.10680864203399928,,,,,,
16,19,-0.7640969157218934,-0.0719476565718651,9.79695796966553,0.004929691553115845,0.0014949593460187318,0.0055439649149775505,-0.5003106594085693,0.638103723526001,-0.8752884268760682,0.9578887613485737,4.2642068145558625,0.10680864203399928,,,,,,
16,20,-0.7640969157218934,-0.0719476565718651,9.79695796966553,0.004929691553115845,0.0014949593460187318,0.0055439649149775505,-0.5003106594085693,0.638103723526001,-0.8752884268760682,0.9578887613485737,4.2642068145558625,0.10680864203399928,,,,,,
16,21,-0.7640969157218934,-0.0719476565718651,9.79695796966553,0.004929691553115845,0.0014949593460187318,0.0055439649149775505,-0.5003106594085693,0.638103723526001,-0.8752884268760682,0.9578887613485737,4.2642068145558625,0.10680864203399928,,,,,,
16,22,-0.7626082301139833,-0.07031195610761644,9.787137985229492,0.00879169534891844,-0.002288815565407276,0.003282333025708795,-0.5005147457122803,0.6430715918540956,-0.8802276253700257,0.9490695998412458,4.264891220274184,0.10534322253396056,,,,,,
16,23,-0.7626082301139833,-0.07031195610761644,9.787137985229492,0.00879169534891844,-0.002288815565407276,0.003282333025708795,-0.5005147457122803,0.6430715918540956,-0.8802276253700257,0.9490695998412458,4.264891220274184,0.10534322253396056,,,,,,
16,24,-0.7703502178192139,-0.08124648034572601,9.780994415283203,0.008750302717089653,-0.004300510510802269,0.0025354714598506693,-0.5010044574737549,0.6421180963516235,-0.8812566995620728,0.9437709501436717,4.263602906598607,0.10362438357553327,,,,,,
16,25,-0.7475715279579164,-0.061036687344312675,9.796281814575195,0.009162344969809057,-0.004660730250179768,0.004131335765123367,-0.5008620023727417,0.6371952891349794,-0.8788414597511293,0.9340554086002039,4.260739114064195,0.10177691672480134,,,,,,
16,26,-0.7475715279579164,-0.061036687344312675,9.796281814575195,0.009162344969809057,-0.004660730250179768,0.004131335765123367,-0.5008620023727417,0.6371952891349794,-0.8788414597511293,0.9340554086002039,4.260739114064195,0.10177691672480134,,,,,,
16,27,-0.761182725429535,-0.040105246007442474,9.776194572448732,0.008522289805114271,-0.005451255477964878,0.003439990105107427,-0.501786768436432,0.6386215090751649,-0.8762801885604858,0.9286683677860229,4.2587876612477515,0.10056949792200288,,,,,,
16,28,-0.7386725544929506,-0.057050421833992004,9.787418365478516,0.010533629916608335,-0.001586233265697956,-6.517091242130846e-05,-0.5005237460136415,0.64066880941391,-0.8823012113571167,0.913630206220633,4.258095425875856,0.0929521581448804,,,,,,
17,0,-0.7446457743644715,-0.03390292078256607,9.779523849487305,0.0064171948470175275,-0.0008419068180955948,0.0024351878091692924,-0.4993517994880676,0.6405075192451478,-0.8737241625785829,1.048963687271509,4.260417554452163,0.1251500992350362,,,,,,
17,1,-0.7446457743644715,-0.03390292078256607,9.779523849487305,0.0064171948470175275,-0.0008419068180955948,0.0024351878091692924,-0.4993517994880676,0.6405075192451478,-0.8737241625785829,1.048963687271509,4.260417554452163,0.1251500992350362,,,,,,
17,2,-0.7446457743644715,-0.03390292078256607,9.779523849487305,0.0064171948470175275,-0.0008419068180955948,0.0024351878091692924,-0.4993517994880676,0.6405075192451478,-0.8737241625785829,1.048963687271509,4.260417554452163,0.1251500992350362,,,,,,
17,3,-0.7446457743644715,-0.03390292078256607,9.779523849487305,0.0064171948470175275,-0.0008419068180955948,0.0024351878091692924,-0.4993517994880676,0.6405075192451478,-0.8737241625785829,1.048963687271509,4.260417554452163,0.1251500992350362,,,,,,
17,4,-0.7446457743644715,-0.03390292078256607,9.779523849487305,0.0064171948470175275,-0.0008419068180955948,0.0024351878091692924,-0.4993517994880676,0.6405075192451478,-0.8737241625785829,1.048963687271509,4.260417554452163,0.1251500992350362,,,,,,
17,5,-0.7530964016914369,-0.04874535650014877,9.785545349121094,0.00772848865017295,0.0005208536749705672,0.002329410752281547,-0.499972403049469,0.641577184200287,-0.8787481784820557,1.0433745833622137,4.261655675761577,0.12345826396937158,,,,,,
17,6,-0.757329285144806,-0.06858279556035997,9.779645919799805,0.006949163973331451,-0.0005353080923669041,0.0028457320295274258,-0.5014413595199585,0.6387166976928711,-0.8818353414535522,1.031742591302323,4.262180172236231,0.12178054314349547,,,,,,
17,7,-0.757329285144806,-0.06858279556035997,9.779645919799805,0.006949163973331451,-0.0005353080923669041,0.0028457320295274258,-0.5014413595199585,0.6387166976928711,-0.8818353414535522,1.031742591302323,4.262180172236231,0.12178054314349547,,,,,,
17,8,-0.7922788858413696,-0.06251309067010881,9.786722183227539,0.010919969528913498,-0.0019214812200516462,0.005786077585071326,-0.5022479295730591,0.6366834044456483,-0.8768261671066284,1.0280245599296798,4.262000102774826,0.12201755092983049,,,,,,
17,9,-0.7813375592231752,-0.048003725707530975,9.800016403198242,0.008359224535524847,-0.004100705496966839,0.002490732818841934,-0.5003429651260376,0.640054762363434,-0.8752448558807373,1.0177543710242456,4.262064489238363,0.11985137912899677,,,,,,
17,10,-0.7813375592231752,-0.048003725707530975,9.800016403198242,0.008359224535524847,-0.004100705496966839,0.002490732818841934,-0.5003429651260376,0.640054762363434,-0.8752448558807373,1.0177543710242456,4.262064489238363,0.11985137912899677,,,,,,
17,11,-0.7669385671615601,-0.042573917657136924,9.785367965698242,0.008923575282096863,-0.0019568318966776137,0.00297685619443655,-0.49803987145423895,0.6410734057426454,-0.8787682652473451,1.0126916499657719,4.261996910802068,0.11844603584659513,,,,,,
17,12,-0.7869029641151429,-0.06516851484775543,9.787337303161623,0.00852121226489544,-0.002108180662617088,0.0007920382777228951,-0.5000307559967041,0.6392104029655458,-0.8828409910202026,1.0027029844244044,4.262325063021067,0.11402745246747324,,,,,,
17,13,-0.7869029641151429,-0.06516851484775543,9.787337303161623,0.00852121226489544,-0.002108180662617088,0.0007920382777228951,-0.5000307559967041,0.6392104029655458,-0.8828409910202026,1.0027029844244044,4.262325063021067,0.11402745246747324,,,,,,
17,14,-0.7820929288864136,-0.06817101687192918,9.780496597290039,0.006187727209180594,-0.0019662119448184967,0.004901341162621975,-0.5017995834350586,0.6371852755546571,-0.8778272271156312,0.9961256836184789,4.2622929720273035,0.11371670488494308,,,,,,
