source,frame_id,imu_idx,quat_w,quat_x,quat_y,quat_z,accel_x,accel_y,accel_z,free_accel_x,free_accel_y,free_accel_z,delta_v_x,delta_v_y,delta_v_z,delta_q_w,delta_q_x,delta_q_y,delta_q_z,rate_x,rate_y,rate_z,quat_w,quat_x,quat_y,quat_z,mag_x,mag_y,mag_z,temperature,status_byte,packet_counter,time_fine
left,17,1,0.93463,0.0423493,0.0337753,-0.351472,-0.716569,-0.0960364,9.78541,-0.394658,-0.32205,1.09106,-0.00716381,-0.000966566,0.0978542,1,3.15775e-05,9.55709e-06,1.58144e-06,0.0063155,0.00191142,0.000316287,0.93463,0.0423493,0.0337753,-0.351472,0.511356,0.0544894,-1.03649,34,3,18037,8408914
right,11,1,0.93463,0.0423493,0.0337753,-0.351472,-0.506274,-0.0943716,7.26593,-0.394658,-0.32205,1.09106,-0.0050638,-0.000943686,0.0726592,1,-2.42157e-07,-7.30342e-06,5.83055e-07,-4.84315e-05,-0.00146068,0.000116611,0.93463,0.0423493,0.0337753,-0.351472,0.0247851,0.553257,-1.08932,33.875,1,21399,8746582
right,11,2,0.93463,0.0423493,0.0337753,-0.351472,-0.506274,-0.0943716,7.26593,-0.394658,-0.32205,1.09106,-0.0050638,-0.000943686,0.0726592,1,-2.42157e-07,-7.30342e-06,5.83055e-07,-4.84315e-05,-0.00146068,0.000116611,0.93463,0.0423493,0.0337753,-0.351472,0.0247851,0.553257,-1.08932,33.875,1,21399,8746582
right,11,3,0.93463,0.0423493,0.0337753,-0.351472,-0.506274,-0.0943716,7.26593,-0.394658,-0.32205,1.09106,-0.0050638,-0.000943686,0.0726592,1,-2.42157e-07,-7.30342e-06,5.83055e-07,-4.84315e-05,-0.00146068,0.000116611,0.93463,0.0423493,0.0337753,-0.351472,0.0247851,0.553257,-1.08932,33.875,1,21399,8746582
right,11,4,0.999376,-0.00641347,0.034748,-0.00021244,-0.581781,-0.0508326,9.77998,0.225723,-0.45046,1.08006,-0.00582451,-0.000520222,0.0977993,1,5.99418e-05,-3.43621e-05,1.47483e-05,0.0119884,-0.00687242,0.00294965,0.999376,-0.00641347,0.034748,-0.00021244,0.0258579,0.551723,-1.08582,33.875,1,21400,8746682
left,29,1,0.999376,-0.00641347,0.034748,-0.00021244,-0.581781,-0.0508326,9.77998,0.225723,-0.45046,1.08006,-0.00582451,-0.000520222,0.0977993,1,5.99418e-05,-3.43621e-05,1.47483e-05,0.0119884,-0.00687242,0.00294965,0.999376,-0.00641347,0.034748,-0.00021244,0.0258579,0.551723,-1.08582,33.875,1,21400,8746682
left,29,2,0.999376,-0.00641347,0.034748,-0.00021244,-0.581781,-0.0508326,9.77998,0.225723,-0.45046,1.08006,-0.00582451,-0.000520222,0.0977993,1,5.99418e-05,-3.43621e-05,1.47483e-05,0.0119884,-0.00687242,0.00294965,0.999376,-0.00641347,0.034748,-0.00021244,0.0258579,0.551723,-1.08582,33.875,1,21400,8746682
left,29,3,0.999377,-0.00637342,0.0347213,-0.000196145,-0.470678,0.0239857,9.86908,0.308777,-0.365029,1.16977,-0.00471335,0.000231716,0.0986905,1,4.10286e-05,-3.32667e-05,4.59703e-06,0.00820572,-0.00665334,0.000919406,0.999377,-0.00637342,0.0347213,-0.000196145,0.0272277,0.55321,-1.08782,33.875,1,21401,8746782
left,29,4,0.999377,-0.00637342,0.0347213,-0.000196145,-0.470678,0.0239857,9.86908,0.308777,-0.365029,1.16977,-0.00471335,0.000231716,0.0986905,1,4.10286e-05,-3.32667e-05,4.59703e-06,0.00820572,-0.00665334,0.000919406,0.999377,-0.00637342,0.0347213,-0.000196145,0.0272277,0.55321,-1.08782,33.875,1,21401,8746782
left,29,5,0.999377,-0.00637342,0.0347213,-0.000196145,-0.470678,0.0239857,9.86908,0.308777,-0.365029,1.16977,-0.00471335,0.000231716,0.0986905,1,4.10286e-05,-3.32667e-05,4.59703e-06,0.00820572,-0.00665334,0.000919406,0.999377,-0.00637342,0.0347213,-0.000196145,0.0272277,0.55321,-1.08782,33.875,1,21401,8746782
left,29,6,0.999377,-0.00632477,0.0347116,-0.000177334,-0.359295,-0.0084818,9.79171,0.439911,-0.422789,1.06895,-0.00359484,-9.43131e-05,0.0979171,1,4.77357e-05,-9.6992e-06,2.04258e-05,0.00954714,-0.00193984,0.00408516,0.999377,-0.00632477,0.0347116,-0.000177334,0.0276471,0.553251,-1.09034,33.875,1,21402,8746882
right,12,1,0.999377,-0.00632477,0.0347116,-0.000177334,-0.359295,-0.0084818,9.79171,0.439911,-0.422789,1.06895,-0.00359484,-9.43131e-05,0.0979171,1,4.77357e-05,-9.6992e-06,2.04258e-05,0.00954714,-0.00193984,0.00408516,0.999377,-0.00632477,0.0347116,-0.000177334,0.0276471,0.553251,-1.09034,33.875,1,21402,8746882
right,12,2,0.999377,-0.00632477,0.0347116,-0.000177334,-0.359295,-0.0084818,9.79171,0.439911,-0.422789,1.06895,-0.00359484,-9.43131e-05,0.0979171,1,4.77357e-05,-9.6992e-06,2.04258e-05,0.00954714,-0.00193984,0.00408516,0.999377,-0.00632477,0.0347116,-0.000177334,0.0276471,0.553251,-1.09034,33.875,1,21402,8746882
right,12,3,0.999377,-0.00628991,0.0347177,-0.000164328,-0.58883,-0.0214044,9.73412,0.235898,-0.404755,1.02418,-0.00588707,-0.000220666,0.0973413,1,3.31589e-05,6.30127e-06,1.41317e-05,0.00663178,0.00126025,0.00282635,0.999377,-0.00628991,0.0347177,-0.000164328,0.0261705,0.552324,-1.09238,33.875,1,21403,8746982
right,12,4,0.999377,-0.00628991,0.0347177,-0.000164328,-0.58883,-0.0214044,9.73412,0.235898,-0.404755,1.02418,-0.00588707,-0.000220666,0.0973413,1,3.31589e-05,6.30127e-06,1.41317e-05,0.00663178,0.00126025,0.00282635,0.999377,-0.00628991,0.0347177,-0.000164328,0.0261705,0.552324,-1.09238,33.875,1,21403,8746982
right,12,5,0.999377,-0.00628991,0.0347177,-0.000164328,-0.58883,-0.0214044,9.73412,0.235898,-0.404755,1.02418,-0.00588707,-0.000220666,0.0973413,1,3.31589e-05,6.30127e-06,1.41317e-05,0.00663178,0.00126025,0.00282635,0.999377,-0.00628991,0.0347177,-0.000164328,0.0261705,0.552324,-1.09238,33.875,1,21403,8746982
left,30,1,0.999378,-0.00623893,0.0347066,-0.000159758,-0.657295,-0.0736707,9.83524,0.133414,-0.499584,1.14402,-0.00657507,-0.000746587,0.0983522,1,4.98351e-05,-1.08312e-05,5.88584e-06,0.00996702,-0.00216624,0.00117717,0.999378,-0.00623893,0.0347066,-0.000159758,0.0248126,0.549382,-1.09092,33.875,1,21404,8747082
left,30,2,0.999378,-0.00623893,0.0347066,-0.000159758,-0.657295,-0.0736707,9.83524,0.133414,-0.499584,1.14402,-0.00657507,-0.000746587,0.0983522,1,4.98351e-05,-1.08312e-05,5.88584e-06,0.00996702,-0.00216624,0.00117717,0.999378,-0.00623893,0.0347066,-0.000159758,0.0248126,0.549382,-1.09092,33.875,1,21404,8747082
left,30,3,0.999379,-0.00619612,0.0346878,-0.000149849,-0.409647,-0.00993028,9.87176,0.414242,-0.405276,1.17548,-0.00410015,-0.000107748,0.0987175,1,4.2321e-05,-1.86677e-05,1.0906e-05,0.00846421,-0.00373353,0.0021812,0.999379,-0.00619612,0.0346878,-0.000149849,0.0238959,0.550321,-1.08837,33.875,1,21405,8747182
right,10,1,0.999379,-0.00619612,0.0346878,-0.000149849,-0.409647,-0.00993028,9.87176,0.414242,-0.405276,1.17548,-0.00410015,-0.000107748,0.0987175,1,4.2321e-05,-1.86677e-05,1.0906e-05,0.00846421,-0.00373353,0.0021812,0.999379,-0.00619612,0.0346878,-0.000149849,0.0238959,0.550321,-1.08837,33.875,1,21405,8747182
right,10,2,0.999379,-0.00619612,0.0346878,-0.000149849,-0.409647,-0.00993028,9.87176,0.414242,-0.405276,1.17548,-0.00410015,-0.000107748,0.0987175,1,4.2321e-05,-1.86677e-05,1.0906e-05,0.00846421,-0.00373353,0.0021812,0.999379,-0.00619612,0.0346878,-0.000149849,0.0238959,0.550321,-1.08837,33.875,1,21405,8747182
right,10,3,0.99938,-0.00613986,0.0346745,-0.00014866,-0.676645,0.0775059,9.7081,0.136325,-0.339594,1.01265,-0.00676892,0.00076418,0.0970809,1,5.5831e-05,-1.27065e-05,2.8865e-06,0.0111662,-0.0025413,0.000577299,0.99938,-0.00613986,0.0346745,-0.00014866,0.0253483,0.552711,-1.0863,33.875,1,21406,8747282
right,10,4,0.99938,-0.00613986,0.0346745,-0.00014866,-0.676645,0.0775059,9.7081,0.136325,-0.339594,1.01265,-0.00676892,0.00076418,0.0970809,1,5.5831e-05,-1.27065e-05,2.8865e-06,0.0111662,-0.0025413,0.000577299,0.99938,-0.00613986,0.0346745,-0.00014866,0.0253483,0.552711,-1.0863,33.875,1,21406,8747282
right,10,5,0.99938,-0.00613986,0.0346745,-0.00014866,-0.676645,0.0775059,9.7081,0.136325,-0.339594,1.01265,-0.00676892,0.00076418,0.0970809,1,5.5831e-05,-1.27065e-05,2.8865e-06,0.0111662,-0.0025413,0.000577299,0.99938,-0.00613986,0.0346745,-0.00014866,0.0253483,0.552711,-1.0863,33.875,1,21406,8747282
right,10,6,0.999382,-0.00612042,0.0346218,-0.000138021,-0.411227,0.0171602,9.82454,0.315798,-0.372268,1.11918,-0.00412253,0.000167964,0.098245,1,1.80654e-05,-5.22065e-05,1.07975e-05,0.00361307,-0.0104413,0.00215951,0.999382,-0.00612042,0.0346218,-0.000138021,0.0262536,0.554672,-1.08727,33.875,1,21407,8747382
left,31,1,0.999382,-0.00612042,0.0346218,-0.000138021,-0.411227,0.0171602,9.82454,0.315798,-0.372268,1.11918,-0.00412253,0.000167964,0.098245,1,1.80654e-05,-5.22065e-05,1.07975e-05,0.00361307,-0.0104413,0.00215951,0.999382,-0.00612042,0.0346218,-0.000138021,0.0262536,0.554672,-1.08727,33.875,1,21407,8747382
left,31,2,0.999382,-0.00612042,0.0346218,-0.000138021,-0.411227,0.0171602,9.82454,0.315798,-0.372268,1.11918,-0.00412253,0.000167964,0.098245,1,1.80654e-05,-5.22065e-05,1.07975e-05,0.00361307,-0.0104413,0.00215951,0.999382,-0.00612042,0.0346218,-0.000138021,0.0262536,0.554672,-1.08727,33.875,1,21407,8747382
left,31,3,0.999382,-0.00608986,0.0346309,-0.0001146,-0.31275,-0.19485,9.84679,0.549717,-0.558932,1.13148,-0.00312542,-0.0019544,0.0984678,1,2.9193e-05,1.01063e-05,2.45703e-05,0.00583861,0.00202125,0.00491406,0.999382,-0.00608986,0.0346309,-0.0001146,0.0256818,0.554261,-1.09132,33.875,1,21408,8747482
left,31,4,0.999382,-0.00608986,0.0346309,-0.0001146,-0.31275,-0.19485,9.84679,0.549717,-0.558932,1.13148,-0.00312542,-0.0019544,0.0984678,1,2.9193e-05,1.01063e-05,2.45703e-05,0.00583861,0.00202125,0.00491406,0.999382,-0.00608986,0.0346309,-0.0001146,0.0256818,0.554261,-1.09132,33.875,1,21408,8747482
left,31,5,0.999382,-0.00608986,0.0346309,-0.0001146,-0.31275,-0.19485,9.84679,0.549717,-0.558932,1.13148,-0.00312542,-0.0019544,0.0984678,1,2.9193e-05,1.01063e-05,2.45703e-05,0.00583861,0.00202125,0.00491406,0.999382,-0.00608986,0.0346309,-0.0001146,0.0256818,0.554261,-1.09132,33.875,1,21408,8747482
right,14,1,0.999382,-0.00602588,0.0346238,-9.53967e-05,-0.692911,-0.0422106,9.68072,0.111459,-0.407193,0.966236,-0.00693018,-0.00043458,0.0968071,1,6.29092e-05,-5.62937e-06,2.12131e-05,0.0125818,-0.00112587,0.00424262,0.999382,-0.00602588,0.0346238,-9.53967e-05,0.026199,0.551339,-1.09189,33.875,1,21409,8747582
right,14,2,0.999382,-0.00602588,0.0346238,-9.53967e-05,-0.692911,-0.0422106,9.68072,0.111459,-0.407193,0.966236,-0.00693018,-0.00043458,0.0968071,1,6.29092e-05,-5.62937e-06,2.12131e-05,0.0125818,-0.00112587,0.00424262,0.999382,-0.00602588,0.0346238,-9.53967e-05,0.026199,0.551339,-1.09189,33.875,1,21409,8747582
right,14,3,0.999382,-0.00602588,0.0346238,-9.53967e-05,-0.692911,-0.0422106,9.68072,0.111459,-0.407193,0.966236,-0.00693018,-0.00043458,0.0968071,1,6.29092e-05,-5.62937e-06,2.12131e-05,0.0125818,-0.00112587,0.00424262,0.999382,-0.00602588,0.0346238,-9.53967e-05,0.026199,0.551339,-1.09189,33.875,1,21409,8747582
right,14,4,0.999383,-0.00596069,0.0346128,-7.90892e-05,-0.450412,0.0240271,9.87097,0.375408,-0.352713,1.15344,-0.00450607,0.000227582,0.0987096,1,6.34361e-05,-9.80883e-06,1.84289e-05,0.0126872,-0.00196177,0.00368577,0.999383,-0.00596069,0.0346128,-7.90892e-05,0.0243927,0.547896,-1.08944,33.875,1,21410,8747682
left,32,1,0.999383,-0.00596069,0.0346128,-7.90892e-05,-0.450412,0.0240271,9.87097,0.375408,-0.352713,1.15344,-0.00450607,0.000227582,0.0987096,1,6.34361e-05,-9.80883e-06,1.84289e-05,0.0126872,-0.00196177,0.00368577,0.999383,-0.00596069,0.0346128,-7.90892e-05,0.0243927,0.547896,-1.08944,33.875,1,21410,8747682
left,32,2,0.999383,-0.00596069,0.0346128,-7.90892e-05,-0.450412,0.0240271,9.87097,0.375408,-0.352713,1.15344,-0.00450607,0.000227582,0.0987096,1,6.34361e-05,-9.80883e-06,1.84289e-05,0.0126872,-0.00196177,0.00368577,0.999383,-0.00596069,0.0346128,-7.90892e-05,0.0243927,0.547896,-1.08944,33.875,1,21410,8747682
left,32,3,0.999384,-0.00589391,0.0346023,-7.07454e-05,-0.507514,0.00406821,9.8549,0.29801,-0.402692,1.16867,-0.00507689,2.77123e-05,0.0985489,1,6.52708e-05,-8.84756e-06,1.03507e-05,0.0130542,-0.00176951,0.00207014,0.999384,-0.00589391,0.0346023,-7.07454e-05,0.0225257,0.547388,-1.08742,33.875,1,21411,8747782
left,32,4,0.999384,-0.00589391,0.0346023,-7.07454e-05,-0.507514,0.00406821,9.8549,0.29801,-0.402692,1.16867,-0.00507689,2.77123e-05,0.0985489,1,6.52708e-05,-8.84756e-06,1.03507e-05,0.0130542,-0.00176951,0.00207014,0.999384,-0.00589391,0.0346023,-7.07454e-05,0.0225257,0.547388,-1.08742,33.875,1,21411,8747782
left,32,5,0.999384,-0.00589391,0.0346023,-7.07454e-05,-0.507514,0.00406821,9.8549,0.29801,-0.402692,1.16867,-0.00507689,2.77123e-05,0.0985489,1,6.52708e-05,-8.84756e-06,1.03507e-05,0.0130542,-0.00176951,0.00207014,0.999384,-0.00589391,0.0346023,-7.07454e-05,0.0225257,0.547388,-1.08742,33.875,1,21411,8747782
left,32,6,0.999385,-0.00584485,0.0345863,-4.45564e-05,-0.494384,0.0420421,9.76966,0.311136,-0.397256,1.0667,-0.00494658,0.000411025,0.0976965,1,4.66948e-05,-1.39135e-05,2.74609e-05,0.00933896,-0.00278269,0.00549218,0.999385,-0.00584485,0.0345863,-4.45564e-05,0.0230281,0.549778,-1.08484,33.875,1,21412,8747882
right,15,1,0.999385,-0.00584485,0.0345863,-4.45564e-05,-0.494384,0.0420421,9.76966,0.311136,-0.397256,1.0667,-0.00494658,0.000411025,0.0976965,1,4.66948e-05,-1.39135e-05,2.74609e-05,0.00933896,-0.00278269,0.00549218,0.999385,-0.00584485,0.0345863,-4.45564e-05,0.0230281,0.549778,-1.08484,33.875,1,21412,8747882
right,15,2,0.999385,-0.00584485,0.0345863,-4.45564e-05,-0.494384,0.0420421,9.76966,0.311136,-0.397256,1.0667,-0.00494658,0.000411025,0.0976965,1,4.66948e-05,-1.39135e-05,2.74609e-05,0.00933896,-0.00278269,0.00549218,0.999385,-0.00584485,0.0345863,-4.45564e-05,0.0230281,0.549778,-1.08484,33.875,1,21412,8747882
right,15,3,0.999386,-0.00580022,0.0345566,-2.75297e-05,-0.51691,0.0169455,9.75807,0.249347,-0.435596,1.04073,-0.00517448,0.000160896,0.0975804,1,4.29285e-05,-2.75426e-05,1.75817e-05,0.00858569,-0.00550852,0.00351634,0.999386,-0.00580022,0.0345566,-2.75297e-05,0.0224246,0.552762,-1.0878,33.875,1,21413,8747982
right,15,4,0.999386,-0.00580022,0.0345566,-2.75297e-05,-0.51691,0.0169455,9.75807,0.249347,-0.435596,1.04073,-0.00517448,0.000160896,0.0975804,1,4.29285e-05,-2.75426e-05,1.75817e-05,0.00858569,-0.00550852,0.00351634,0.999386,-0.00580022,0.0345566,-2.75297e-05,0.0224246,0.552762,-1.0878,33.875,1,21413,8747982
right,15,5,0.999386,-0.00580022,0.0345566,-2.75297e-05,-0.51691,0.0169455,9.75807,0.249347,-0.435596,1.04073,-0.00517448,0.000160896,0.0975804,1,4.29285e-05,-2.75426e-05,1.75817e-05,0.00858569,-0.00550852,0.00351634,0.999386,-0.00580022,0.0345566,-2.75297e-05,0.0224246,0.552762,-1.0878,33.875,1,21413,8747982
left,33,1,0.999387,-0.00574684,0.0345354,-4.24241e-06,-0.281165,-0.0144206,9.85831,0.549257,-0.437114,1.1321,-0.00281533,-0.000154431,0.0985829,1,5.11537e-05,-1.86973e-05,2.46506e-05,0.0102307,-0.00373946,0.00493013,0.999387,-0.00574684,0.0345354,-4.24241e-06,0.0242627,0.552809,-1.09135,33.875,1,21414,8748082
left,33,2,0.999387,-0.00574684,0.0345354,-4.24241e-06,-0.281165,-0.0144206,9.85831,0.549257,-0.437114,1.1321,-0.00281533,-0.000154431,0.0985829,1,5.11537e-05,-1.86973e-05,2.46506e-05,0.0102307,-0.00373946,0.00493013,0.999387,-0.00574684,0.0345354,-4.24241e-06,0.0242627,0.552809,-1.09135,33.875,1,21414,8748082
left,33,3,0.999387,-0.00574684,0.0345354,-4.24241e-06,-0.281165,-0.0144206,9.85831,0.549257,-0.437114,1.1321,-0.00281533,-0.000154431,0.0985829,1,5.11537e-05,-1.86973e-05,2.46506e-05,0.0102307,-0.00373946,0.00493013,0.999387,-0.00574684,0.0345354,-4.24241e-06,0.0242627,0.552809,-1.09135,33.875,1,21414,8748082
left,33,4,0.999387,-0.00568957,0.0345301,8.69807e-06,-0.580721,-0.0176382,9.77006,0.245236,-0.43109,1.06519,-0.00580759,-0.000187165,0.0977006,1,5.43223e-05,-1.97978e-06,1.45618e-05,0.0108645,-0.000395955,0.00291236,0.999387,-0.00568957,0.0345301,8.69807e-06,0.0247438,0.552805,-1.09135,33.875,1,21415,8748182
right,16,1,0.999387,-0.00568957,0.0345301,8.69807e-06,-0.580721,-0.0176382,9.77006,0.245236,-0.43109,1.06519,-0.00580759,-0.000187165,0.0977006,1,5.43223e-05,-1.97978e-06,1.45618e-05,0.0108645,-0.000395955,0.00291236,0.999387,-0.00568957,0.0345301,8.69807e-06,0.0247438,0.552805,-1.09135,33.875,1,21415,8748182
right,16,2,0.999387,-0.00568957,0.0345301,8.69807e-06,-0.580721,-0.0176382,9.77006,0.245236,-0.43109,1.06519,-0.00580759,-0.000187165,0.0977006,1,5.43223e-05,-1.97978e-06,1.45618e-05,0.0108645,-0.000395955,0.00291236,0.999387,-0.00568957,0.0345301,8.69807e-06,0.0247438,0.552805,-1.09135,33.875,1,21415,8748182
right,16,3,0.999388,-0.00565516,0.0345147,1.63929e-05,-0.506035,-0.0543716,9.79401,0.301415,-0.457473,1.08516,-0.00506264,-0.000550159,0.0979399,1,3.24604e-05,-1.17366e-05,8.33522e-06,0.00649207,-0.00234732,0.00166704,0.999388,-0.00565516,0.0345147,1.63929e-05,0.0233863,0.551309,-1.08885,33.875,1,21416,8748282
right,16,4,0.999388,-0.00565516,0.0345147,1.63929e-05,-0.506035,-0.0543716,9.79401,0.301415,-0.457473,1.08516,-0.00506264,-0.000550159,0.0979399,1,3.24604e-05,-1.17366e-05,8.33522e-06,0.00649207,-0.00234732,0.00166704,0.999388,-0.00565516,0.0345147,1.63929e-05,0.0233863,0.551309,-1.08885,33.875,1,21416,8748282
right,16,5,0.999388,-0.00565516,0.0345147,1.63929e-05,-0.506035,-0.0543716,9.79401,0.301415,-0.457473,1.08516,-0.00506264,-0.000550159,0.0979399,1,3.24604e-05,-1.17366e-05,8.33522e-06,0.00649207,-0.00234732,0.00166704,0.999388,-0.00565516,0.0345147,1.63929e-05,0.0233863,0.551309,-1.08885,33.875,1,21416,8748282
right,16,6,0.999389,-0.00559206,0.0345031,1.5805e-05,-0.46428,-0.0619511,9.8381,0.334742,-0.480888,1.13423,-0.0046443,-0.00063132,0.0983808,1,5.99734e-05,-7.6481e-06,9.1275e-07,0.0119947,-0.00152962,0.00018255,0.999389,-0.00559206,0.0345031,1.5805e-05,0.0219757,0.550815,-1.08784,33.875,1,21417,8748382
left,34,1,0.999389,-0.00559206,0.0345031,1.5805e-05,-0.46428,-0.0619511,9.8381,0.334742,-0.480888,1.13423,-0.0046443,-0.00063132,0.0983808,1,5.99734e-05,-7.6481e-06,9.1275e-07,0.0119947,-0.00152962,0.00018255,0.999389,-0.00559206,0.0345031,1.5805e-05,0.0219757,0.550815,-1.08784,33.875,1,21417,8748382
left,34,2,0.999389,-0.00559206,0.0345031,1.5805e-05,-0.46428,-0.0619511,9.8381,0.334742,-0.480888,1.13423,-0.0046443,-0.00063132,0.0983808,1,5.99734e-05,-7.6481e-06,9.1275e-07,0.0119947,-0.00152962,0.00018255,0.999389,-0.00559206,0.0345031,1.5805e-05,0.0219757,0.550815,-1.08784,33.875,1,21417,8748382
left,34,3,0.99939,-0.00553898,0.0344842,2.50069e-05,-0.502162,0.0532232,9.7966,0.318893,-0.36624,1.09248,-0.00502445,0.000522331,0.0979659,1,5.00064e-05,-1.43778e-05,1.02744e-05,0.0100013,-0.00287556,0.00205487,0.99939,-0.00553898,0.0344842,2.50069e-05,0.0215112,0.551289,-1.08682,33.875,1,21418,8748482
left,34,4,0.99939,-0.00553898,0.0344842,2.50069e-05,-0.502162,0.0532232,9.7966,0.318893,-0.36624,1.09248,-0.00502445,0.000522331,0.0979659,1,5.00064e-05,-1.43778e-05,1.02744e-05,0.0100013,-0.00287556,0.00205487,0.99939,-0.00553898,0.0344842,2.50069e-05,0.0215112,0.551289,-1.08682,33.875,1,21418,8748482
left,34,5,0.99939,-0.00553898,0.0344842,2.50069e-05,-0.502162,0.0532232,9.7966,0.318893,-0.36624,1.09248,-0.00502445,0.000522331,0.0979659,1,5.00064e-05,-1.43778e-05,1.02744e-05,0.0100013,-0.00287556,0.00205487,0.99939,-0.00553898,0.0344842,2.50069e-05,0.0215112,0.551289,-1.08682,33.875,1,21418,8748482
right,17,1,0.999391,-0.00548292,0.0344533,3.02116e-05,-0.434867,-0.00565655,9.79734,0.334482,-0.424845,1.07397,-0.0043538,-6.69134e-05,0.0979732,1,5.25397e-05,-2.61626e-05,6.07955e-06,0.0105079,-0.00523253,0.00121591,0.999391,-0.00548292,0.0344533,3.02116e-05,0.0209897,0.553732,-1.08677,33.875,1,21419,8748582
right,17,2,0.999391,-0.00548292,0.0344533,3.02116e-05,-0.434867,-0.00565655,9.79734,0.334482,-0.424845,1.07397,-0.0043538,-6.69134e-05,0.0979732,1,5.25397e-05,-2.61626e-05,6.07955e-06,0.0105079,-0.00523253,0.00121591,0.999391,-0.00548292,0.0344533,3.02116e-05,0.0209897,0.553732,-1.08677,33.875,1,21419,8748582
right,17,3,0.999391,-0.00548292,0.0344533,3.02116e-05,-0.434867,-0.00565655,9.79734,0.334482,-0.424845,1.07397,-0.0043538,-6.69134e-05,0.0979732,1,5.25397e-05,-2.61626e-05,6.07955e-06,0.0105079,-0.00523253,0.00121591,0.999391,-0.00548292,0.0344533,3.02116e-05,0.0209897,0.553732,-1.08677,33.875,1,21419,8748582
right,17,4,0.999392,-0.00542754,0.0344442,3.28335e-05,-0.426027,-0.0179185,9.82431,0.40688,-0.435813,1.1074,-0.00426097,-0.000189317,0.0982431,1,5.14016e-05,-3.60254e-06,3.70873e-06,0.0102803,-0.000720508,0.000741747,0.999392,-0.00542754,0.0344442,3.28335e-05,0.024814,0.553718,-1.08779,33.875,1,21420,8748682
left,35,1,0.999392,-0.00542754,0.0344442,3.28335e-05,-0.426027,-0.0179185,9.82431,0.40688,-0.435813,1.1074,-0.00426097,-0.000189317,0.0982431,1,5.14016e-05,-3.60254e-06,3.70873e-06,0.0102803,-0.000720508,0.000741747,0.999392,-0.00542754,0.0344442,3.28335e-05,0.024814,0.553718,-1.08779,33.875,1,21420,8748682
left,35,2,0.999392,-0.00542754,0.0344442,3.28335e-05,-0.426027,-0.0179185,9.82431,0.40688,-0.435813,1.1074,-0.00426097,-0.000189317,0.0982431,1,5.14016e-05,-3.60254e-06,3.70873e-06,0.0102803,-0.000720508,0.000741747,0.999392,-0.00542754,0.0344442,3.28335e-05,0.024814,0.553718,-1.08779,33.875,1,21420,8748682
left,35,3,0.999393,-0.00535569,0.0344359,4.91461e-05,-0.460503,-0.028662,9.79832,0.339353,-0.458512,1.09494,-0.00460546,-0.000300117,0.0979832,1,6.80255e-05,-2.25977e-06,1.8083e-05,0.0136051,-0.000451954,0.00361661,0.999393,-0.00535569,0.0344359,4.91461e-05,0.024862,0.549346,-1.0889,33.875,1,21421,8748782
left,35,4,0.999393,-0.00535569,0.0344359,4.91461e-05,-0.460503,-0.028662,9.79832,0.339353,-0.458512,1.09494,-0.00460546,-0.000300117,0.0979832,1,6.80255e-05,-2.25977e-06,1.8083e-05,0.0136051,-0.000451954,0.00361661,0.999393,-0.00535569,0.0344359,4.91461e-05,0.024862,0.549346,-1.0889,33.875,1,21421,8748782
left,35,5,0.999393,-0.00535569,0.0344359,4.91461e-05,-0.460503,-0.028662,9.79832,0.339353,-0.458512,1.09494,-0.00460546,-0.000300117,0.0979832,1,6.80255e-05,-2.25977e-06,1.8083e-05,0.0136051,-0.000451954,0.00361661,0.999393,-0.00535569,0.0344359,4.91461e-05,0.024862,0.549346,-1.0889,33.875,1,21421,8748782
left,35,6,0.999393,-0.00528589,0.0344226,7.56611e-05,-0.557981,-0.0158642,9.75703,0.224569,-0.441041,1.04447,-0.00558113,-0.000171667,0.0975702,1,6.51406e-05,-6.81701e-06,2.81534e-05,0.0130281,-0.0013634,0.00563069,0.999393,-0.00528589,0.0344226,7.56611e-05,0.022056,0.544492,-1.089,33.875,1,21422,8748882
right,18,1,0.999393,-0.00528589,0.0344226,7.56611e-05,-0.557981,-0.0158642,9.75703,0.224569,-0.441041,1.04447,-0.00558113,-0.000171667,0.0975702,1,6.51406e-05,-6.81701e-06,2.81534e-05,0.0130281,-0.0013634,0.00563069,0.999393,-0.00528589,0.0344226,7.56611e-05,0.022056,0.544492,-1.089,33.875,1,21422,8748882
right,18,2,0.999393,-0.00528589,0.0344226,7.56611e-05,-0.557981,-0.0158642,9.75703,0.224569,-0.441041,1.04447,-0.00558113,-0.000171667,0.0975702,1,6.51406e-05,-6.81701e-06,2.81534e-05,0.0130281,-0.0013634,0.00563069,0.999393,-0.00528589,0.0344226,7.56611e-05,0.022056,0.544492,-1.089,33.875,1,21422,8748882
right,18,3,0.999394,-0.005236,0.0344125,9.28849e-05,-0.270809,-0.0830171,9.88309,0.544847,-0.506355,1.15522,-0.00270869,-0.000839197,0.0988308,1,4.51709e-05,-3.18491e-06,1.80106e-05,0.00903417,-0.000636983,0.00360212,0.999394,-0.005236,0.0344125,9.28849e-05,0.0220968,0.543499,-1.08801,33.875,1,21423,8748982
right,18,4,0.999394,-0.005236,0.0344125,9.28849e-05,-0.270809,-0.0830171,9.88309,0.544847,-0.506355,1.15522,-0.00270869,-0.000839197,0.0988308,1,4.51709e-05,-3.18491e-06,1.80106e-05,0.00903417,-0.000636983,0.00360212,0.999394,-0.005236,0.0344125,9.28849e-05,0.0220968,0.543499,-1.08801,33.875,1,21423,8748982
right,18,5,0.999394,-0.005236,0.0344125,9.28849e-05,-0.270809,-0.0830171,9.88309,0.544847,-0.506355,1.15522,-0.00270869,-0.000839197,0.0988308,1,4.51709e-05,-3.18491e-06,1.80106e-05,0.00903417,-0.000636983,0.00360212,0.999394,-0.005236,0.0344125,9.28849e-05,0.0220968,0.543499,-1.08801,33.875,1,21423,8748982
left,36,1,0.999395,-0.00517281,0.0343914,9.67673e-05,-0.46438,-0.00069347,9.83354,0.333817,-0.434384,1.12835,-0.00464639,-1.87061e-05,0.0983353,1,5.96159e-05,-1.3165e-05,5.02156e-06,0.0119232,-0.00263301,0.00100431,0.999395,-0.00517281,0.0343914,9.67673e-05,0.0226035,0.546367,-1.08492,33.875,1,21424,8749082
left,36,2,0.999395,-0.00517281,0.0343914,9.67673e-05,-0.46438,-0.00069347,9.83354,0.333817,-0.434384,1.12835,-0.00464639,-1.87061e-05,0.0983353,1,5.96159e-05,-1.3165e-05,5.02156e-06,0.0119232,-0.00263301,0.00100431,0.999395,-0.00517281,0.0343914,9.67673e-05,0.0226035,0.546367,-1.08492,33.875,1,21424,8749082
left,36,3,0.999395,-0.00517281,0.0343914,9.67673e-05,-0.46438,-0.00069347,9.83354,0.333817,-0.434384,1.12835,-0.00464639,-1.87061e-05,0.0983353,1,5.96159e-05,-1.3165e-05,5.02156e-06,0.0119232,-0.00263301,0.00100431,0.999395,-0.00517281,0.0343914,9.67673e-05,0.0226035,0.546367,-1.08492,33.875,1,21424,8749082
left,36,4,0.999395,-0.0050989,0.0343904,0.00011728,-0.434859,-0.017338,9.78468,0.379764,-0.436617,1.06823,-0.00434713,-0.000187014,0.0978469,1,6.87018e-05,7.43418e-06,2.18188e-05,0.0137404,0.00148684,0.00436377,0.999395,-0.0050989,0.0343904,0.00011728,0.0239619,0.550754,-1.08533,33.875,1,21425,8749182
right,19,1,0.999395,-0.0050989,0.0343904,0.00011728,-0.434859,-0.017338,9.78468,0.379764,-0.436617,1.06823,-0.00434713,-0.000187014,0.0978469,1,6.87018e-05,7.43418e-06,2.18188e-05,0.0137404,0.00148684,0.00436377,0.999395,-0.0050989,0.0343904,0.00011728,0.0239619,0.550754,-1.08533,33.875,1,21425,8749182
right,19,2,0.999395,-0.0050989,0.0343904,0.00011728,-0.434859,-0.017338,9.78468,0.379764,-0.436617,1.06823,-0.00434713,-0.000187014,0.0978469,1,6.87018e-05,7.43418e-06,2.18188e-05,0.0137404,0.00148684,0.00436377,0.999395,-0.0050989,0.0343904,0.00011728,0.0239619,0.550754,-1.08533,33.875,1,21425,8749182
right,19,3,0.999396,-0.00502639,0.0343832,0.000142339,-0.388116,-0.0134276,9.81391,0.423169,-0.449183,1.09562,-0.00388075,-0.000147744,0.0981391,1,6.75692e-05,2.04856e-06,2.65114e-05,0.0135138,0.000409712,0.00530227,0.999396,-0.00502639,0.0343832,0.000142339,0.024842,0.551288,-1.08835,33.875,1,21426,8749282
right,19,4,0.999396,-0.00502639,0.0343832,0.000142339,-0.388116,-0.0134276,9.81391,0.423169,-0.449183,1.09562,-0.00388075,-0.000147744,0.0981391,1,6.75692e-05,2.04856e-06,2.65114e-05,0.0135138,0.000409712,0.00530227,0.999396,-0.00502639,0.0343832,0.000142339,0.024842,0.551288,-1.08835,33.875,1,21426,8749282
right,19,5,0.999396,-0.00502639,0.0343832,0.000142339,-0.388116,-0.0134276,9.81391,0.423169,-0.449183,1.09562,-0.00388075,-0.000147744,0.0981391,1,6.75692e-05,2.04856e-06,2.65114e-05,0.0135138,0.000409712,0.00530227,0.999396,-0.00502639,0.0343832,0.000142339,0.024842,0.551288,-1.08835,33.875,1,21426,8749282
right,19,6,0.999397,-0.00496084,0.0343637,0.000154928,-0.544404,-0.036796,9.76966,0.226747,-0.46466,1.05771,-0.00544587,-0.000379783,0.0976964,1,5.97445e-05,-9.38026e-06,1.36861e-05,0.0119489,-0.00187605,0.00273722,0.999397,-0.00496084,0.0343637,0.000154928,0.0228677,0.549895,-1.0914,33.875,1,21427,8749382
left,37,1,0.999397,-0.00496084,0.0343637,0.000154928,-0.544404,-0.036796,9.76966,0.226747,-0.46466,1.05771,-0.00544587,-0.000379783,0.0976964,1,5.97445e-05,-9.38026e-06,1.36861e-05,0.0119489,-0.00187605,0.00273722,0.999397,-0.00496084,0.0343637,0.000154928,0.0228677,0.549895,-1.0914,33.875,1,21427,8749382
left,37,2,0.999397,-0.00496084,0.0343637,0.000154928,-0.544404,-0.036796,9.76966,0.226747,-0.46466,1.05771,-0.00544587,-0.000379783,0.0976964,1,5.97445e-05,-9.38026e-06,1.36861e-05,0.0119489,-0.00187605,0.00273722,0.999397,-0.00496084,0.0343637,0.000154928,0.0228677,0.549895,-1.0914,33.875,1,21427,8749382
left,37,3,0.999398,-0.00488649,0.0343417,0.000164225,-0.38079,-0.0232816,9.80089,0.428982,-0.454789,1.07854,-0.00381012,-0.000246592,0.0980088,1,6.98734e-05,-1.13657e-05,1.04586e-05,0.0139747,-0.00227315,0.00209172,0.999398,-0.00488649,0.0343417,0.000164225,0.0210657,0.54693,-1.08843,33.875,1,21428,8749482
left,37,4,0.999398,-0.00488649,0.0343417,0.000164225,-0.38079,-0.0232816,9.80089,0.428982,-0.454789,1.07854,-0.00381012,-0.000246592,0.0980088,1,6.98734e-05,-1.13657e-05,1.04586e-05,0.0139747,-0.00227315,0.00209172,0.999398,-0.00488649,0.0343417,0.000164225,0.0210657,0.54693,-1.08843,33.875,1,21428,8749482
left,37,5,0.999398,-0.00488649,0.0343417,0.000164225,-0.38079,-0.0232816,9.80089,0.428982,-0.454789,1.07854,-0.00381012,-0.000246592,0.0980088,1,6.98734e-05,-1.13657e-05,1.04586e-05,0.0139747,-0.00227315,0.00209172,0.999398,-0.00488649,0.0343417,0.000164225,0.0210657,0.54693,-1.08843,33.875,1,21428,8749482
right,20,1,0.999399,-0.00482462,0.034322,0.000176285,-0.274318,-0.0477647,9.89053,0.53549,-0.483443,1.17578,-0.00274477,-0.00048883,0.0989052,1,5.61716e-05,-8.11211e-06,1.31078e-05,0.0112343,-0.00162242,0.00262155,0.999399,-0.00482462,0.034322,0.000176285,0.0211682,0.545892,-1.08492,33.875,1,21429,8749582
right,20,2,0.999399,-0.00482462,0.034322,0.000176285,-0.274318,-0.0477647,9.89053,0.53549,-0.483443,1.17578,-0.00274477,-0.00048883,0.0989052,1,5.61716e-05,-8.11211e-06,1.31078e-05,0.0112343,-0.00162242,0.00262155,0.999399,-0.00482462,0.034322,0.000176285,0.0211682,0.545892,-1.08492,33.875,1,21429,8749582
right,20,3,0.999399,-0.00482462,0.034322,0.000176285,-0.274318,-0.0477647,9.89053,0.53549,-0.483443,1.17578,-0.00274477,-0.00048883,0.0989052,1,5.61716e-05,-8.11211e-06,1.31078e-05,0.0112343,-0.00162242,0.00262155,0.999399,-0.00482462,0.034322,0.000176285,0.0211682,0.545892,-1.08492,33.875,1,21429,8749582
right,20,4,0.9994,-0.00476399,0.0343038,0.000200602,-0.427018,0.0212844,9.81855,0.357285,-0.409229,1.10068,-0.00427124,0.000201865,0.0981855,1,5.48121e-05,-5.38107e-06,2.51848e-05,0.0109624,-0.00107621,0.00503697,0.9994,-0.00476399,0.0343038,0.000200602,0.0221556,0.547311,-1.08287,33.875,1,21430,8749682
right,20,5,0.9994,-0.00476399,0.0343038,0.000200602,-0.427018,0.0212844,9.81855,0.357285,-0.409229,1.10068,-0.00427124,0.000201865,0.0981855,1,5.48121e-05,-5.38107e-06,2.51848e-05,0.0109624,-0.00107621,0.00503697,0.9994,-0.00476399,0.0343038,0.000200602,0.0221556,0.547311,-1.08287,33.875,1,21430,8749682
left,38,1,0.9994,-0.00476399,0.0343038,0.000200602,-0.427018,0.0212844,9.81855,0.357285,-0.409229,1.10068,-0.00427124,0.000201865,0.0981855,1,5.48121e-05,-5.38107e-06,2.51848e-05,0.0109624,-0.00107621,0.00503697,0.9994,-0.00476399,0.0343038,0.000200602,0.0221556,0.547311,-1.08287,33.875,1,21430,8749682
left,38,2,0.999401,-0.00468877,0.0342964,0.000214819,-0.535528,0.00540836,9.75502,0.301212,-0.422051,1.04068,-0.0053541,4.03733e-05,0.0975503,1,6.94246e-05,6.03707e-06,1.54559e-05,0.0138849,0.00120741,0.00309118,0.999401,-0.00468877,0.0342964,0.000214819,0.0225394,0.551715,-1.08379,33.875,1,21431,8749782
left,38,3,0.999401,-0.00468877,0.0342964,0.000214819,-0.535528,0.00540836,9.75502,0.301212,-0.422051,1.04068,-0.0053541,4.03733e-05,0.0975503,1,6.94246e-05,6.03707e-06,1.54559e-05,0.0138849,0.00120741,0.00309118,0.999401,-0.00468877,0.0342964,0.000214819,0.0225394,0.551715,-1.08379,33.875,1,21431,8749782
left,38,4,0.999401,-0.00468877,0.0342964,0.000214819,-0.535528,0.00540836,9.75502,0.301212,-0.422051,1.04068,-0.0053541,4.03733e-05,0.0975503,1,6.94246e-05,6.03707e-06,1.54559e-05,0.0138849,0.00120741,0.00309118,0.999401,-0.00468877,0.0342964,0.000214819,0.0225394,0.551715,-1.08379,33.875,1,21431,8749782
left,38,5,0.999402,-0.00460357,0.03427,0.000233572,-0.417681,-0.00392353,9.80232,0.387694,-0.456781,1.08126,-0.00417921,-5.47234e-05,0.0980231,1,7.81212e-05,-1.22355e-05,2.06661e-05,0.0156242,-0.00244711,0.00413322,0.999402,-0.00460357,0.03427,0.000233572,0.0224616,0.552735,-1.08629,33.875,1,21432,8749882
right,21,1,0.999402,-0.00460357,0.03427,0.000233572,-0.417681,-0.00392353,9.80232,0.387694,-0.456781,1.08126,-0.00417921,-5.47234e-05,0.0980231,1,7.81212e-05,-1.22355e-05,2.06661e-05,0.0156242,-0.00244711,0.00413322,0.999402,-0.00460357,0.03427,0.000233572,0.0224616,0.552735,-1.08629,33.875,1,21432,8749882
right,21,2,0.999402,-0.00460357,0.03427,0.000233572,-0.417681,-0.00392353,9.80232,0.387694,-0.456781,1.08126,-0.00417921,-5.47234e-05,0.0980231,1,7.81212e-05,-1.22355e-05,2.06661e-05,0.0156242,-0.00244711,0.00413322,0.999402,-0.00460357,0.03427,0.000233572,0.0224616,0.552735,-1.08629,33.875,1,21432,8749882
right,21,3,0.999404,-0.0045227,0.0342351,0.000241805,-0.320703,0.0644866,9.88639,0.438836,-0.374335,1.15204,-0.00321098,0.000630261,0.0988639,1,7.35614e-05,-1.9923e-05,9.42893e-06,0.0147123,-0.0039846,0.00188579,0.999404,-0.0045227,0.0342351,0.000241805,0.0239045,0.551278,-1.08734,33.875,1,21433,8749982
right,21,4,0.999404,-0.0045227,0.0342351,0.000241805,-0.320703,0.0644866,9.88639,0.438836,-0.374335,1.15204,-0.00321098,0.000630261,0.0988639,1,7.35614e-05,-1.9923e-05,9.42893e-06,0.0147123,-0.0039846,0.00188579,0.999404,-0.0045227,0.0342351,0.000241805,0.0239045,0.551278,-1.08734,33.875,1,21433,8749982
right,21,5,0.999404,-0.0045227,0.0342351,0.000241805,-0.320703,0.0644866,9.88639,0.438836,-0.374335,1.15204,-0.00321098,0.000630261,0.0988639,1,7.35614e-05,-1.9923e-05,9.42893e-06,0.0147123,-0.0039846,0.00188579,0.999404,-0.0045227,0.0342351,0.000241805,0.0239045,0.551278,-1.08734,33.875,1,21433,8749982
right,21,6,0.999404,-0.00445721,0.0342225,0.000238475,-0.41178,0.0150288,9.80719,0.390418,-0.435199,1.08238,-0.00411709,0.000138866,0.098072,1,5.83622e-05,3.58736e-06,-2.98234e-06,0.0116725,0.000717471,-0.000596468,0.999404,-0.00445721,0.0342225,0.000238475,0.0239899,0.548324,-1.08589,33.875,1,21434,8750082
left,39,1,0.999404,-0.00445721,0.0342225,0.000238475,-0.41178,0.0150288,9.80719,0.390418,-0.435199,1.08238,-0.00411709,0.000138866,0.098072,1,5.83622e-05,3.58736e-06,-2.98234e-06,0.0116725,0.000717471,-0.000596468,0.999404,-0.00445721,0.0342225,0.000238475,0.0239899,0.548324,-1.08589,33.875,1,21434,8750082
left,39,2,0.999404,-0.00445721,0.0342225,0.000238475,-0.41178,0.0150288,9.80719,0.390418,-0.435199,1.08238,-0.00411709,0.000138866,0.098072,1,5.83622e-05,3.58736e-06,-2.98234e-06,0.0116725,0.000717471,-0.000596468,0.999404,-0.00445721,0.0342225,0.000238475,0.0239899,0.548324,-1.08589,33.875,1,21434,8750082
left,39,3,0.999404,-0.00438511,0.0342271,0.000252528,-0.478065,-0.0326118,9.72819,0.372832,-0.472347,1.02376,-0.00477639,-0.000338773,0.097282,1,6.42931e-05,2.18415e-05,1.52563e-05,0.0128586,0.00436831,0.00305125,0.999404,-0.00438511,0.0342271,0.000252528,0.0206757,0.548795,-1.08334,33.875,1,21435,8750182
right,22,1,0.999404,-0.00438511,0.0342271,0.000252528,-0.478065,-0.0326118,9.72819,0.372832,-0.472347,1.02376,-0.00477639,-0.000338773,0.097282,1,6.42931e-05,2.18415e-05,1.52563e-05,0.0128586,0.00436831,0.00305125,0.999404,-0.00438511,0.0342271,0.000252528,0.0206757,0.548795,-1.08334,33.875,1,21435,8750182
right,22,2,0.999404,-0.00438511,0.0342271,0.000252528,-0.478065,-0.0326118,9.72819,0.372832,-0.472347,1.02376,-0.00477639,-0.000338773,0.097282,1,6.42931e-05,2.18415e-05,1.52563e-05,0.0128586,0.00436831,0.00305125,0.999404,-0.00438511,0.0342271,0.000252528,0.0206757,0.548795,-1.08334,33.875,1,21435,8750182
right,22,3,0.999406,-0.00431948,0.0341823,0.000248178,-0.392265,-0.0986647,9.77285,0.404279,-0.569602,1.06456,-0.0039279,-0.000998155,0.0977282,1,5.90237e-05,-2.68089e-05,-3.66086e-06,0.0118047,-0.00536179,-0.000732171,0.999406,-0.00431948,0.0341823,0.000248178,0.0216635,0.55166,-1.08025,33.875,1,21436,8750282
right,22,4,0.999406,-0.00431948,0.0341823,0.000248178,-0.392265,-0.0986647,9.77285,0.404279,-0.569602,1.06456,-0.0039279,-0.000998155,0.0977282,1,5.90237e-05,-2.68089e-05,-3.66086e-06,0.0118047,-0.00536179,-0.000732171,0.999406,-0.00431948,0.0341823,0.000248178,0.0216635,0.55166,-1.08025,33.875,1,21436,8750282
right,22,5,0.999406,-0.00431948,0.0341823,0.000248178,-0.392265,-0.0986647,9.77285,0.404279,-0.569602,1.06456,-0.0039279,-0.000998155,0.0977282,1,5.90237e-05,-2.68089e-05,-3.66086e-06,0.0118047,-0.00536179,-0.000732171,0.999406,-0.00431948,0.0341823,0.000248178,0.0216635,0.55166,-1.08025,33.875,1,21436,8750282
right,22,6,0.999408,-0.00424587,0.0341455,0.000259858,-0.197662,-0.0192539,9.88145,0.555006,-0.459978,1.13544,-0.00198014,-0.000205739,0.0988144,1,6.65336e-05,-1.78349e-05,1.28079e-05,0.0133067,-0.00356698,0.00256159,0.999408,-0.00424587,0.0341455,0.000259858,0.0221285,0.552631,-1.08023,33.875,1,21437,8750382
left,40,1,0.999408,-0.00424587,0.0341455,0.000259858,-0.197662,-0.0192539,9.88145,0.555006,-0.459978,1.13544,-0.00198014,-0.000205739,0.0988144,1,6.65336e-05,-1.78349e-05,1.28079e-05,0.0133067,-0.00356698,0.00256159,0.999408,-0.00424587,0.0341455,0.000259858,0.0221285,0.552631,-1.08023,33.875,1,21437,8750382
left,40,2,0.999408,-0.00424587,0.0341455,0.000259858,-0.197662,-0.0192539,9.88145,0.555006,-0.459978,1.13544,-0.00198014,-0.000205739,0.0988144,1,6.65336e-05,-1.78349e-05,1.28079e-05,0.0133067,-0.00356698,0.00256159,0.999408,-0.00424587,0.0341455,0.000259858,0.0221285,0.552631,-1.08023,33.875,1,21437,8750382
left,40,3,0.999409,-0.00418151,0.0341234,0.000269253,-0.331623,0.0605155,9.83283,0.437728,-0.383736,1.08477,-0.0033165,0.000593951,0.0983284,1,5.66357e-05,-1.28336e-06,9.94779e-06,0.0113271,-0.000256672,0.00198956,0.999409,-0.00418151,0.0341234,0.000269253,0.0221072,0.550237,-1.08281,33.875,1,21438,8750482
left,40,4,0.999409,-0.00418151,0.0341234,0.000269253,-0.331623,0.0605155,9.83283,0.437728,-0.383736,1.08477,-0.0033165,0.000593951,0.0983284,1,5.66357e-05,-1.28336e-06,9.94779e-06,0.0113271,-0.000256672,0.00198956,0.999409,-0.00418151,0.0341234,0.000269253,0.0221072,0.550237,-1.08281,33.875,1,21438,8750482
left,40,5,0.999409,-0.00418151,0.0341234,0.000269253,-0.331623,0.0605155,9.83283,0.437728,-0.383736,1.08477,-0.0033165,0.000593951,0.0983284,1,5.66357e-05,-1.28336e-06,9.94779e-06,0.0113271,-0.000256672,0.00198956,0.999409,-0.00418151,0.0341234,0.000269253,0.0221072,0.550237,-1.08281,33.875,1,21438,8750482
right,23,1,0.99941,-0.00411279,0.0341088,0.000279256,-0.511841,0.0330907,9.71067,0.276074,-0.421534,0.989331,-0.00511694,0.000319096,0.0971068,1,6.02792e-05,7.61961e-06,1.01749e-05,0.0120558,0.00152392,0.00203497,0.99941,-0.00411279,0.0341088,0.000279256,0.0210989,0.54787,-1.08639,33.875,1,21439,8750582
right,23,2,0.99941,-0.00411279,0.0341088,0.000279256,-0.511841,0.0330907,9.71067,0.276074,-0.421534,0.989331,-0.00511694,0.000319096,0.0971068,1,6.02792e-05,7.61961e-06,1.01749e-05,0.0120558,0.00152392,0.00203497,0.99941,-0.00411279,0.0341088,0.000279256,0.0210989,0.54787,-1.08639,33.875,1,21439,8750582
right,23,3,0.99941,-0.00411279,0.0341088,0.000279256,-0.511841,0.0330907,9.71067,0.276074,-0.421534,0.989331,-0.00511694,0.000319096,0.0971068,1,6.02792e-05,7.61961e-06,1.01749e-05,0.0120558,0.00152392,0.00203497,0.99941,-0.00411279,0.0341088,0.000279256,0.0210989,0.54787,-1.08639,33.875,1,21439,8750582
right,23,4,0.999411,-0.00403696,0.0340701,0.000306056,-0.322353,0.00230661,9.77222,0.514465,-0.475442,1.05073,-0.00322669,9.9754e-06,0.0977221,1,6.60661e-05,-1.6173e-05,2.76679e-05,0.0132132,-0.0032346,0.00553357,0.999411,-0.00403696,0.0340701,0.000306056,0.0221262,0.545405,-1.08544,33.875,1,21440,8750682
left,41,1,0.999411,-0.00403696,0.0340701,0.000306056,-0.322353,0.00230661,9.77222,0.514465,-0.475442,1.05073,-0.00322669,9.9754e-06,0.0977221,1,6.60661e-05,-1.6173e-05,2.76679e-05,0.0132132,-0.0032346,0.00553357,0.999411,-0.00403696,0.0340701,0.000306056,0.0221262,0.545405,-1.08544,33.875,1,21440,8750682
left,41,2,0.999411,-0.00403696,0.0340701,0.000306056,-0.322353,0.00230661,9.77222,0.514465,-0.475442,1.05073,-0.00322669,9.9754e-06,0.0977221,1,6.60661e-05,-1.6173e-05,2.76679e-05,0.0132132,-0.0032346,0.00553357,0.999411,-0.00403696,0.0340701,0.000306056,0.0221262,0.545405,-1.08544,33.875,1,21440,8750682
left,41,3,0.999413,-0.00398002,0.034039,0.000321392,-0.182305,-0.0105691,9.87667,0.704664,-0.470342,1.16854,-0.00182443,-0.000115181,0.0987666,1,4.77524e-05,-6.97519e-06,1.55462e-05,0.00955048,-0.00139504,0.00310925,0.999413,-0.00398002,0.034039,0.000321392,0.0212546,0.545828,-1.08139,33.875,1,21441,8750782
left,41,4,0.999413,-0.00398002,0.034039,0.000321392,-0.182305,-0.0105691,9.87667,0.704664,-0.470342,1.16854,-0.00182443,-0.000115181,0.0987666,1,4.77524e-05,-6.97519e-06,1.55462e-05,0.00955048,-0.00139504,0.00310925,0.999413,-0.00398002,0.034039,0.000321392,0.0212546,0.545828,-1.08139,33.875,1,21441,8750782
left,41,5,0.999413,-0.00398002,0.034039,0.000321392,-0.182305,-0.0105691,9.87667,0.704664,-0.470342,1.16854,-0.00182443,-0.000115181,0.0987666,1,4.77524e-05,-6.97519e-06,1.55462e-05,0.00955048,-0.00139504,0.00310925,0.999413,-0.00398002,0.034039,0.000321392,0.0212546,0.545828,-1.08139,33.875,1,21441,8750782
left,41,6,0.999414,-0.00390896,0.0340126,0.000340665,-0.330781,-0.0183906,9.80873,0.528283,-0.470933,1.11264,-0.00330788,-0.00019602,0.0980873,1,6.10925e-05,-4.00095e-07,1.9624e-05,0.0122185,-8.0019e-05,0.0039248,0.999414,-0.00390896,0.0340126,0.000340665,0.0203179,0.548709,-1.07829,33.875,1,21442,8750882
right,24,1,0.999414,-0.00390896,0.0340126,0.000340665,-0.330781,-0.0183906,9.80873,0.528283,-0.470933,1.11264,-0.00330788,-0.00019602,0.0980873,1,6.10925e-05,-4.00095e-07,1.9624e-05,0.0122185,-8.0019e-05,0.0039248,0.999414,-0.00390896,0.0340126,0.000340665,0.0203179,0.548709,-1.07829,33.875,1,21442,8750882
right,24,2,0.999414,-0.00390896,0.0340126,0.000340665,-0.330781,-0.0183906,9.80873,0.528283,-0.470933,1.11264,-0.00330788,-0.00019602,0.0980873,1,6.10925e-05,-4.00095e-07,1.9624e-05,0.0122185,-8.0019e-05,0.0039248,0.999414,-0.00390896,0.0340126,0.000340665,0.0203179,0.548709,-1.07829,33.875,1,21442,8750882
right,24,3,0.999416,-0.00385072,0.0339608,0.000358604,-0.395309,-0.00593926,9.73772,0.329905,-0.427646,0.996397,-0.00395779,-6.89287e-05,0.097377,1,4.82685e-05,-2.41437e-05,1.71476e-05,0.00965369,-0.00482875,0.00342953,0.999416,-0.00385072,0.0339608,0.000358604,0.0211867,0.552142,-1.07973,33.875,1,21443,8750982
right,24,4,0.999416,-0.00385072,0.0339608,0.000358604,-0.395309,-0.00593926,9.73772,0.329905,-0.427646,0.996397,-0.00395779,-6.89287e-05,0.097377,1,4.82685e-05,-2.41437e-05,1.71476e-05,0.00965369,-0.00482875,0.00342953,0.999416,-0.00385072,0.0339608,0.000358604,0.0211867,0.552142,-1.07973,33.875,1,21443,8750982
right,24,5,0.999416,-0.00385072,0.0339608,0.000358604,-0.395309,-0.00593926,9.73772,0.329905,-0.427646,0.996397,-0.00395779,-6.89287e-05,0.097377,1,4.82685e-05,-2.41437e-05,1.71476e-05,0.00965369,-0.00482875,0.00342953,0.999416,-0.00385072,0.0339608,0.000358604,0.0211867,0.552142,-1.07973,33.875,1,21443,8750982
left,42,1,0.999418,-0.00378676,0.0338888,0.000359541,-0.275576,0.0157921,9.87145,0.38891,-0.416602,1.10179,-0.00276431,0.000147147,0.0987143,1,5.45581e-05,-4.33071e-05,4.86927e-07,0.0109116,-0.00866141,9.73855e-05,0.999418,-0.00378676,0.0338888,0.000359541,0.0225764,0.551688,-1.08227,33.875,1,21444,8751082
left,42,2,0.999418,-0.00378676,0.0338888,0.000359541,-0.275576,0.0157921,9.87145,0.38891,-0.416602,1.10179,-0.00276431,0.000147147,0.0987143,1,5.45581e-05,-4.33071e-05,4.86927e-07,0.0109116,-0.00866141,9.73855e-05,0.999418,-0.00378676,0.0338888,0.000359541,0.0225764,0.551688,-1.08227,33.875,1,21444,8751082
left,42,3,0.999418,-0.00378676,0.0338888,0.000359541,-0.275576,0.0157921,9.87145,0.38891,-0.416602,1.10179,-0.00276431,0.000147147,0.0987143,1,5.45581e-05,-4.33071e-05,4.86927e-07,0.0109116,-0.00866141,9.73855e-05,0.999418,-0.00378676,0.0338888,0.000359541,0.0225764,0.551688,-1.08227,33.875,1,21444,8751082
left,42,4,0.99942,-0.00370846,0.0338465,0.000372486,-0.298096,0.0396783,9.89724,0.347202,-0.397911,1.12656,-0.00298329,0.000383164,0.0989724,1,6.8387e-05,-1.17374e-05,1.36598e-05,0.0136774,-0.00234749,0.00273196,0.99942,-0.00370846,0.0338465,0.000372486,0.0221024,0.548313,-1.08437,33.875,1,21445,8751182
right,25,1,0.99942,-0.00370846,0.0338465,0.000372486,-0.298096,0.0396783,9.89724,0.347202,-0.397911,1.12656,-0.00298329,0.000383164,0.0989724,1,6.8387e-05,-1.17374e-05,1.36598e-05,0.0136774,-0.00234749,0.00273196,0.99942,-0.00370846,0.0338465,0.000372486,0.0221024,0.548313,-1.08437,33.875,1,21445,8751182
right,25,2,0.99942,-0.00370846,0.0338465,0.000372486,-0.298096,0.0396783,9.89724,0.347202,-0.397911,1.12656,-0.00298329,0.000383164,0.0989724,1,6.8387e-05,-1.17374e-05,1.36598e-05,0.0136774,-0.00234749,0.00273196,0.99942,-0.00370846,0.0338465,0.000372486,0.0221024,0.548313,-1.08437,33.875,1,21445,8751182
right,25,3,0.999422,-0.00363752,0.0337959,0.000373501,-0.513676,-0.00361026,9.77623,0.117919,-0.465238,1.03295,-0.0051404,-4.79079e-05,0.0977621,1,6.02994e-05,-1.86324e-05,1.48125e-06,0.0120599,-0.00372649,0.000296251,0.999422,-0.00363752,0.0337959,0.000373501,0.0202795,0.5444,-1.08293,33.875,1,21446,8751282
right,25,4,0.999422,-0.00363752,0.0337959,0.000373501,-0.513676,-0.00361026,9.77623,0.117919,-0.465238,1.03295,-0.0051404,-4.79079e-05,0.0977621,1,6.02994e-05,-1.86324e-05,1.48125e-06,0.0120599,-0.00372649,0.000296251,0.999422,-0.00363752,0.0337959,0.000373501,0.0202795,0.5444,-1.08293,33.875,1,21446,8751282
right,25,5,0.999422,-0.00363752,0.0337959,0.000373501,-0.513676,-0.00361026,9.77623,0.117919,-0.465238,1.03295,-0.0051404,-4.79079e-05,0.0977621,1,6.02994e-05,-1.86324e-05,1.48125e-06,0.0120599,-0.00372649,0.000296251,0.999422,-0.00363752,0.0337959,0.000373501,0.0202795,0.5444,-1.08293,33.875,1,21446,8751282
right,25,6,0.999425,-0.00355849,0.0337305,0.00038482,-0.400059,-0.046893,9.8063,0.241034,-0.544979,1.04461,-0.00400703,-0.000482376,0.0980627,1,6.80892e-05,-3.28832e-05,1.13841e-05,0.0136178,-0.00657663,0.00227682,0.999425,-0.00355849,0.0337305,0.00038482,0.0179356,0.544375,-1.08039,33.875,1,21447,8751382
left,43,1,0.999425,-0.00355849,0.0337305,0.00038482,-0.400059,-0.046893,9.8063,0.241034,-0.544979,1.04461,-0.00400703,-0.000482376,0.0980627,1,6.80892e-05,-3.28832e-05,1.13841e-05,0.0136178,-0.00657663,0.00227682,0.999425,-0.00355849,0.0337305,0.00038482,0.0179356,0.544375,-1.08039,33.875,1,21447,8751382
left,43,2,0.999425,-0.00355849,0.0337305,0.00038482,-0.400059,-0.046893,9.8063,0.241034,-0.544979,1.04461,-0.00400703,-0.000482376,0.0980627,1,6.80892e-05,-3.28832e-05,1.13841e-05,0.0136178,-0.00657663,0.00227682,0.999425,-0.00355849,0.0337305,0.00038482,0.0179356,0.544375,-1.08039,33.875,1,21447,8751382
left,43,3,0.999426,-0.00348013,0.0336864,0.000388623,-0.26272,-0.00611405,9.84099,0.450366,-0.530877,1.08657,-0.00262929,-7.45431e-05,0.0984098,1,6.79922e-05,-1.06425e-05,3.86185e-06,0.0135984,-0.0021285,0.000772371,0.999426,-0.00348013,0.0336864,0.000388623,0.0198529,0.547737,-1.07831,33.875,1,21448,8751482
left,43,4,0.999426,-0.00348013,0.0336864,0.000388623,-0.26272,-0.00611405,9.84099,0.450366,-0.530877,1.08657,-0.00262929,-7.45431e-05,0.0984098,1,6.79922e-05,-1.06425e-05,3.86185e-06,0.0135984,-0.0021285,0.000772371,0.999426,-0.00348013,0.0336864,0.000388623,0.0198529,0.547737,-1.07831,33.875,1,21448,8751482
left,43,5,0.999426,-0.00348013,0.0336864,0.000388623,-0.26272,-0.00611405,9.84099,0.450366,-0.530877,1.08657,-0.00262929,-7.45431e-05,0.0984098,1,6.79922e-05,-1.06425e-05,3.86185e-06,0.0135984,-0.0021285,0.000772371,0.999426,-0.00348013,0.0336864,0.000388623,0.0198529,0.547737,-1.07831,33.875,1,21448,8751482
right,26,1,0.999428,-0.0033947,0.0336463,0.00039213,-0.43633,0.0607475,9.74166,0.304928,-0.498016,1.00073,-0.00436422,0.000592919,0.0974166,1,7.45094e-05,-4.66418e-06,4.50271e-06,0.0149019,-0.000932835,0.000900542,0.999428,-0.0033947,0.0336463,0.00039213,0.0197718,0.55117,-1.07924,33.875,1,21449,8751582
right,26,2,0.999428,-0.0033947,0.0336463,0.00039213,-0.43633,0.0607475,9.74166,0.304928,-0.498016,1.00073,-0.00436422,0.000592919,0.0974166,1,7.45094e-05,-4.66418e-06,4.50271e-06,0.0149019,-0.000932835,0.000900542,0.999428,-0.0033947,0.0336463,0.00039213,0.0197718,0.55117,-1.07924,33.875,1,21449,8751582
right,26,3,0.999428,-0.0033947,0.0336463,0.00039213,-0.43633,0.0607475,9.74166,0.304928,-0.498016,1.00073,-0.00436422,0.000592919,0.0974166,1,7.45094e-05,-4.66418e-06,4.50271e-06,0.0149019,-0.000932835,0.000900542,0.999428,-0.0033947,0.0336463,0.00039213,0.0197718,0.55117,-1.07924,33.875,1,21449,8751582
right,26,4,0.999431,-0.00331657,0.0335783,0.000399426,-0.316407,0.0315774,9.76434,0.387955,-0.546987,1.00308,-0.00317023,0.000302912,0.0976433,1,6.56116e-05,-3.15284e-05,7.73943e-06,0.0131223,-0.00630569,0.00154789,0.999431,-0.00331657,0.0335783,0.000399426,0.0201831,0.551699,-1.08176,33.875,1,21450,8751682
right,26,5,0.999431,-0.00331657,0.0335783,0.000399426,-0.316407,0.0315774,9.76434,0.387955,-0.546987,1.00308,-0.00317023,0.000302912,0.0976433,1,6.56116e-05,-3.15284e-05,7.73943e-06,0.0131223,-0.00630569,0.00154789,0.999431,-0.00331657,0.0335783,0.000399426,0.0201831,0.551699,-1.08176,33.875,1,21450,8751682
left,44,1,0.999431,-0.00331657,0.0335783,0.000399426,-0.316407,0.0315774,9.76434,0.387955,-0.546987,1.00308,-0.00317023,0.000302912,0.0976433,1,6.56116e-05,-3.15284e-05,7.73943e-06,0.0131223,-0.00630569,0.00154789,0.999431,-0.00331657,0.0335783,0.000399426,0.0201831,0.551699,-1.08176,33.875,1,21450,8751682
left,44,2,0.999432,-0.00323812,0.0335303,0.00040066,-0.171256,0.0707789,9.87429,0.56871,-0.528287,1.1012,-0.0017145,0.000694635,0.0987429,1,6.65762e-05,-9.79178e-06,1.59143e-06,0.0133152,-0.00195836,0.000318287,0.999432,-0.00323812,0.0335303,0.00040066,0.0216787,0.547794,-1.08236,33.875,1,21451,8751782
left,44,3,0.999432,-0.00323812,0.0335303,0.00040066,-0.171256,0.0707789,9.87429,0.56871,-0.528287,1.1012,-0.0017145,0.000694635,0.0987429,1,6.65762e-05,-9.79178e-06,1.59143e-06,0.0133152,-0.00195836,0.000318287,0.999432,-0.00323812,0.0335303,0.00040066,0.0216787,0.547794,-1.08236,33.875,1,21451,8751782
left,44,4,0.999432,-0.00323812,0.0335303,0.00040066,-0.171256,0.0707789,9.87429,0.56871,-0.528287,1.1012,-0.0017145,0.000694635,0.0987429,1,6.65762e-05,-9.79178e-06,1.59143e-06,0.0133152,-0.00195836,0.000318287,0.999432,-0.00323812,0.0335303,0.00040066,0.0216787,0.547794,-1.08236,33.875,1,21451,8751782
left,44,5,0.999434,-0.003193,0.0334879,0.000401945,-0.432662,0.0372707,9.80488,0.251629,-0.562306,1.0536,-0.00432692,0.000366278,0.0980488,1,3.2823e-05,-1.52894e-06,-8.3356e-07,0.0065646,-0.000305788,-0.000166712,0.999434,-0.003193,0.0334879,0.000401945,0.0194155,0.542891,-1.07993,33.875,1,21452,8751882
right,27,1,0.999434,-0.003193,0.0334879,0.000401945,-0.432662,0.0372707,9.80488,0.251629,-0.562306,1.0536,-0.00432692,0.000366278,0.0980488,1,3.2823e-05,-1.52894e-06,-8.3356e-07,0.0065646,-0.000305788,-0.000166712,0.999434,-0.003193,0.0334879,0.000401945,0.0194155,0.542891,-1.07993,33.875,1,21452,8751882
right,27,2,0.999434,-0.003193,0.0334879,0.000401945,-0.432662,0.0372707,9.80488,0.251629,-0.562306,1.0536,-0.00432692,0.000366278,0.0980488,1,3.2823e-05,-1.52894e-06,-8.3356e-07,0.0065646,-0.000305788,-0.000166712,0.999434,-0.003193,0.0334879,0.000401945,0.0194155,0.542891,-1.07993,33.875,1,21452,8751882
right,27,3,0.999437,-0.00312461,0.0334172,0.000407433,-0.266403,-0.00792192,9.84038,0.278534,-0.613477,1.05301,-0.00266993,-9.02627e-05,0.0984036,1,5.60316e-05,-2.99737e-05,3.02323e-06,0.0112063,-0.00599475,0.000604646,0.999437,-0.00312461,0.0334172,0.000407433,0.0189638,0.544801,-1.07736,33.875,1,21453,8751982
right,27,4,0.999437,-0.00312461,0.0334172,0.000407433,-0.266403,-0.00792192,9.84038,0.278534,-0.613477,1.05301,-0.00266993,-9.02627e-05,0.0984036,1,5.60316e-05,-2.99737e-05,3.02323e-06,0.0112063,-0.00599475,0.000604646,0.999437,-0.00312461,0.0334172,0.000407433,0.0189638,0.544801,-1.07736,33.875,1,21453,8751982
right,27,5,0.999437,-0.00312461,0.0334172,0.000407433,-0.266403,-0.00792192,9.84038,0.278534,-0.613477,1.05301,-0.00266993,-9.02627e-05,0.0984036,1,5.60316e-05,-2.99737e-05,3.02323e-06,0.0112063,-0.00599475,0.000604646,0.999437,-0.00312461,0.0334172,0.000407433,0.0189638,0.544801,-1.07736,33.875,1,21453,8751982
left,45,1,0.999438,-0.00308344,0.0333672,0.000411417,-0.113978,-0.02385,9.90877,0.413955,-0.627551,1.13164,-0.00114121,-0.000244043,0.0990877,1,2.79373e-05,-7.2346e-06,2.88601e-06,0.00558745,-0.00144692,0.000577203,0.999438,-0.00308344,0.0333672,0.000411417,0.0217864,0.550124,-1.07624,33.875,1,21454,8752082
left,45,2,0.999438,-0.00308344,0.0333672,0.000411417,-0.113978,-0.02385,9.90877,0.413955,-0.627551,1.13164,-0.00114121,-0.000244043,0.0990877,1,2.79373e-05,-7.2346e-06,2.88601e-06,0.00558745,-0.00144692,0.000577203,0.999438,-0.00308344,0.0333672,0.000411417,0.0217864,0.550124,-1.07624,33.875,1,21454,8752082
left,45,3,0.999438,-0.00308344,0.0333672,0.000411417,-0.113978,-0.02385,9.90877,0.413955,-0.627551,1.13164,-0.00114121,-0.000244043,0.0990877,1,2.79373e-05,-7.2346e-06,2.88601e-06,0.00558745,-0.00144692,0.000577203,0.999438,-0.00308344,0.0333672,0.000411417,0.0217864,0.550124,-1.07624,33.875,1,21454,8752082
left,45,4,0.99944,-0.00303434,0.0333236,0.000413605,-0.353268,0.04457,9.82148,0.0975316,-0.510249,1.07369,-0.00353226,0.000438832,0.0982148,1,3.48718e-05,2.17265e-06,2.57645e-06,0.00697436,0.000434529,0.00051529,0.99944,-0.00303434,0.0333236,0.000413605,0.0221778,0.552595,-1.07821,33.875,1,21455,8752182
right,28,1,0.99944,-0.00303434,0.0333236,0.000413605,-0.353268,0.04457,9.82148,0.0975316,-0.510249,1.07369,-0.00353226,0.000438832,0.0982148,1,3.48718e-05,2.17265e-06,2.57645e-06,0.00697436,0.000434529,0.00051529,0.99944,-0.00303434,0.0333236,0.000413605,0.0221778,0.552595,-1.07821,33.875,1,21455,8752182
right,28,2,0.99944,-0.00303434,0.0333236,0.000413605,-0.353268,0.04457,9.82148,0.0975316,-0.510249,1.07369,-0.00353226,0.000438832,0.0982148,1,3.48718e-05,2.17265e-06,2.57645e-06,0.00697436,0.000434529,0.00051529,0.99944,-0.00303434,0.0333236,0.000413605,0.0221778,0.552595,-1.07821,33.875,1,21455,8752182
right,28,3,0.999442,-0.00300161,0.0332793,0.000432659,-0.168113,0.0187144,9.86042,0.340035,-0.416459,1.13621,-0.00168052,0.000183527,0.0986042,1,1.80385e-05,3.15551e-06,1.76166e-05,0.00360769,0.000631101,0.00352332,0.999442,-0.00300161,0.0332793,0.000432659,0.0207179,0.552137,-1.07922,33.875,1,21456,8752282
right,28,4,0.999442,-0.00300161,0.0332793,0.000432659,-0.168113,0.0187144,9.86042,0.340035,-0.416459,1.13621,-0.00168052,0.000183527,0.0986042,1,1.80385e-05,3.15551e-06,1.76166e-05,0.00360769,0.000631101,0.00352332,0.999442,-0.00300161,0.0332793,0.000432659,0.0207179,0.552137,-1.07922,33.875,1,21456,8752282
right,28,5,0.999442,-0.00300161,0.0332793,0.000432659,-0.168113,0.0187144,9.86042,0.340035,-0.416459,1.13621,-0.00168052,0.000183527,0.0986042,1,1.80385e-05,3.15551e-06,1.76166e-05,0.00360769,0.000631101,0.00352332,0.999442,-0.00300161,0.0332793,0.000432659,0.0207179,0.552137,-1.07922,33.875,1,21456,8752282
right,28,6,0.999442,-0.00296537,0.033267,0.00044779,-0.418665,-0.0840763,9.76998,0.338199,-0.300056,1.09387,-0.00417932,-0.000845115,0.0977001,1,2.16739e-05,3.73884e-05,1.39952e-05,0.00433477,0.00747769,0.00279904,0.999442,-0.00296537,0.033267,0.00044779,0.0193434,0.548726,-1.07879,33.875,1,21457,8752382
left,46,1,0.999442,-0.00296537,0.033267,0.00044779,-0.418665,-0.0840763,9.76998,0.338199,-0.300056,1.09387,-0.00417932,-0.000845115,0.0977001,1,2.16739e-05,3.73884e-05,1.39952e-05,0.00433477,0.00747769,0.00279904,0.999442,-0.00296537,0.033267,0.00044779,0.0193434,0.548726,-1.07879,33.875,1,21457,8752382
left,46,2,0.999442,-0.00296537,0.033267,0.00044779,-0.418665,-0.0840763,9.76998,0.338199,-0.300056,1.09387,-0.00417932,-0.000845115,0.0977001,1,2.16739e-05,3.73884e-05,1.39952e-05,0.00433477,0.00747769,0.00279904,0.999442,-0.00296537,0.033267,0.00044779,0.0193434,0.548726,-1.07879,33.875,1,21457,8752382
left,46,3,0.999444,-0.00289743,0.0332046,0.000460347,-0.580313,-0.117618,9.77329,0.33411,-0.122673,1.07709,-0.00580541,-0.00118684,0.0977326,1,5.39143e-05,-1.18216e-05,1.09867e-05,0.0107829,-0.00236431,0.00219733,0.999444,-0.00289743,0.0332046,0.000460347,0.0194938,0.543315,-1.07638,33.875,1,21458,8752482
left,46,4,0.999444,-0.00289743,0.0332046,0.000460347,-0.580313,-0.117618,9.77329,0.33411,-0.122673,1.07709,-0.00580541,-0.00118684,0.0977326,1,5.39143e-05,-1.18216e-05,1.09867e-05,0.0107829,-0.00236431,0.00219733,0.999444,-0.00289743,0.0332046,0.000460347,0.0194938,0.543315,-1.07638,33.875,1,21458,8752482
left,46,5,0.999444,-0.00289743,0.0332046,0.000460347,-0.580313,-0.117618,9.77329,0.33411,-0.122673,1.07709,-0.00580541,-0.00118684,0.0977326,1,5.39143e-05,-1.18216e-05,1.09867e-05,0.0107829,-0.00236431,0.00219733,0.999444,-0.00289743,0.0332046,0.000460347,0.0194938,0.543315,-1.07638,33.875,1,21458,8752482
right,29,1,0.999446,-0.00279364,0.0331464,0.000464986,-0.26992,-0.222405,9.96303,0.879707,-0.118842,1.23954,-0.00270078,-0.00224205,0.0996298,1,9.02709e-05,-8.00332e-06,3.44873e-06,0.0180542,-0.00160066,0.000689746,0.999446,-0.00279364,0.0331464,0.000464986,0.0195147,0.544264,-1.07485,33.875,1,21459,8752582
right,29,2,0.999446,-0.00279364,0.0331464,0.000464986,-0.26992,-0.222405,9.96303,0.879707,-0.118842,1.23954,-0.00270078,-0.00224205,0.0996298,1,9.02709e-05,-8.00332e-06,3.44873e-06,0.0180542,-0.00160066,0.000689746,0.999446,-0.00279364,0.0331464,0.000464986,0.0195147,0.544264,-1.07485,33.875,1,21459,8752582
right,29,3,0.999446,-0.00279364,0.0331464,0.000464986,-0.26992,-0.222405,9.96303,0.879707,-0.118842,1.23954,-0.00270078,-0.00224205,0.0996298,1,9.02709e-05,-8.00332e-06,3.44873e-06,0.0180542,-0.00160066,0.000689746,0.999446,-0.00279364,0.0331464,0.000464986,0.0195147,0.544264,-1.07485,33.875,1,21459,8752582
right,29,4,0.999449,-0.00264328,0.0330822,0.000446857,-0.656304,-0.0741544,9.75118,0.39062,-0.10111,0.997458,-0.00656539,-0.000768406,0.0975115,1,0.000138747,-1.19181e-05,-1.49952e-05,0.0277493,-0.00238363,-0.00299904,0.999449,-0.00264328,0.0330822,0.000446857,0.0176239,0.546665,-1.07176,33.875,1,21460,8752682
left,47,1,0.999449,-0.00264328,0.0330822,0.000446857,-0.656304,-0.0741544,9.75118,0.39062,-0.10111,0.997458,-0.00656539,-0.000768406,0.0975115,1,0.000138747,-1.19181e-05,-1.49952e-05,0.0277493,-0.00238363,-0.00299904,0.999449,-0.00264328,0.0330822,0.000446857,0.0176239,0.546665,-1.07176,33.875,1,21460,8752682
left,47,2,0.999449,-0.00264328,0.0330822,0.000446857,-0.656304,-0.0741544,9.75118,0.39062,-0.10111,0.997458,-0.00656539,-0.000768406,0.0975115,1,0.000138747,-1.19181e-05,-1.49952e-05,0.0277493,-0.00238363,-0.00299904,0.999449,-0.00264328,0.0330822,0.000446857,0.0176239,0.546665,-1.07176,33.875,1,21460,8752682
left,47,3,0.999453,-0.00249498,0.0329599,0.0004356,-0.256183,0.134145,9.80688,0.381915,-0.263943,0.987503,-0.00257557,0.00131457,0.0980688,1,0.000137305,-7.01943e-05,-8.82591e-06,0.0274609,-0.0140389,-0.00176518,0.999453,-0.00249498,0.0329599,0.0004356,0.0170858,0.548638,-1.07272,33.875,1,21461,8752782
left,47,4,0.999453,-0.00249498,0.0329599,0.0004356,-0.256183,0.134145,9.80688,0.381915,-0.263943,0.987503,-0.00257557,0.00131457,0.0980688,1,0.000137305,-7.01943e-05,-8.82591e-06,0.0274609,-0.0140389,-0.00176518,0.999453,-0.00249498,0.0329599,0.0004356,0.0170858,0.548638,-1.07272,33.875,1,21461,8752782
left,47,5,0.999453,-0.00249498,0.0329599,0.0004356,-0.256183,0.134145,9.80688,0.381915,-0.263943,0.987503,-0.00257557,0.00131457,0.0980688,1,0.000137305,-7.01943e-05,-8.82591e-06,0.0274609,-0.0140389,-0.00176518,0.999453,-0.00249498,0.0329599,0.0004356,0.0170858,0.548638,-1.07272,33.875,1,21461,8752782
left,47,6,0.999455,-0.00244553,0.0329164,0.000457171,0.211014,0.24189,9.97151,0.75034,-0.546062,1.20683,0.00211215,0.00241183,0.0997153,1,3.59103e-05,1.0586e-05,2.09432e-05,0.00718205,0.0021172,0.00418865,0.999455,-0.00244553,0.0329164,0.000457171,0.0189813,0.548161,-1.07425,33.875,1,21462,8752882
right,30,1,0.999455,-0.00244553,0.0329164,0.000457171,0.211014,0.24189,9.97151,0.75034,-0.546062,1.20683,0.00211215,0.00241183,0.0997153,1,3.59103e-05,1.0586e-05,2.09432e-05,0.00718205,0.0021172,0.00418865,0.999455,-0.00244553,0.0329164,0.000457171,0.0189813,0.548161,-1.07425,33.875,1,21462,8752882
right,30,2,0.999455,-0.00244553,0.0329164,0.000457171,0.211014,0.24189,9.97151,0.75034,-0.546062,1.20683,0.00211215,0.00241183,0.0997153,1,3.59103e-05,1.0586e-05,2.09432e-05,0.00718205,0.0021172,0.00418865,0.999455,-0.00244553,0.0329164,0.000457171,0.0189813,0.548161,-1.07425,33.875,1,21462,8752882
right,30,3,0.999454,-0.00246023,0.0329329,0.00048362,-0.555772,0.252874,9.77276,0.0468319,-0.617548,1.11463,-0.0055431,0.00253445,0.0977284,1,-3.05374e-05,7.54264e-05,2.35393e-05,-0.00610748,0.0150853,0.00470786,0.999454,-0.00246023,0.0329329,0.00048362,0.0170602,0.545765,-1.07581,33.875,1,21463,8752982
right,30,4,0.999454,-0.00246023,0.0329329,0.00048362,-0.555772,0.252874,9.77276,0.0468319,-0.617548,1.11463,-0.0055431,0.00253445,0.0977284,1,-3.05374e-05,7.54264e-05,2.35393e-05,-0.00610748,0.0150853,0.00470786,0.999454,-0.00246023,0.0329329,0.00048362,0.0170602,0.545765,-1.07581,33.875,1,21463,8752982
right,30,5,0.999454,-0.00246023,0.0329329,0.00048362,-0.555772,0.252874,9.77276,0.0468319,-0.617548,1.11463,-0.0055431,0.00253445,0.0977284,1,-3.05374e-05,7.54264e-05,2.35393e-05,-0.00610748,0.0150853,0.00470786,0.999454,-0.00246023,0.0329329,0.00048362,0.0170602,0.545765,-1.07581,33.875,1,21463,8752982
left,48,1,0.999455,-0.00248245,0.0329083,0.000503647,-0.359037,-0.0753481,9.92221,0.492693,-0.638023,1.20978,-0.00358353,-0.00074586,0.0992224,1,-3.90032e-05,3.4351e-05,1.66708e-05,-0.00780065,0.0068702,0.00333415,0.999455,-0.00248245,0.0329083,0.000503647,0.0161426,0.543813,-1.07535,33.875,1,21464,8753082
left,48,2,0.999455,-0.00248245,0.0329083,0.000503647,-0.359037,-0.0753481,9.92221,0.492693,-0.638023,1.20978,-0.00358353,-0.00074586,0.0992224,1,-3.90032e-05,3.4351e-05,1.66708e-05,-0.00780065,0.0068702,0.00333415,0.999455,-0.00248245,0.0329083,0.000503647,0.0161426,0.543813,-1.07535,33.875,1,21464,8753082
left,48,3,0.999455,-0.00248245,0.0329083,0.000503647,-0.359037,-0.0753481,9.92221,0.492693,-0.638023,1.20978,-0.00358353,-0.00074586,0.0992224,1,-3.90032e-05,3.4351e-05,1.66708e-05,-0.00780065,0.0068702,0.00333415,0.999455,-0.00248245,0.0329083,0.000503647,0.0161426,0.543813,-1.07535,33.875,1,21464,8753082
left,48,4,0.999457,-0.00242401,0.0328695,0.000533527,-0.551302,-0.271068,9.84034,0.394891,-0.558876,1.06893,-0.00550871,-0.00271891,0.0984034,1,4.0242e-05,2.11466e-05,2.81027e-05,0.0080484,0.00422933,0.00562054,0.999457,-0.00242401,0.0328695,0.000533527,0.0157806,0.543248,-1.07081,33.875,1,21465,8753182
right,31,1,0.999457,-0.00242401,0.0328695,0.000533527,-0.551302,-0.271068,9.84034,0.394891,-0.558876,1.06893,-0.00550871,-0.00271891,0.0984034,1,4.0242e-05,2.11466e-05,2.81027e-05,0.0080484,0.00422933,0.00562054,0.999457,-0.00242401,0.0328695,0.000533527,0.0157806,0.543248,-1.07081,33.875,1,21465,8753182
right,31,2,0.999457,-0.00242401,0.0328695,0.000533527,-0.551302,-0.271068,9.84034,0.394891,-0.558876,1.06893,-0.00550871,-0.00271891,0.0984034,1,4.0242e-05,2.11466e-05,2.81027e-05,0.0080484,0.00422933,0.00562054,0.999457,-0.00242401,0.0328695,0.000533527,0.0157806,0.543248,-1.07081,33.875,1,21465,8753182
right,31,3,0.99946,-0.00230953,0.0327849,0.000544076,-0.323023,-0.0686072,9.82222,0.321593,-0.426452,1.03176,-0.00323503,-0.000705746,0.0982219,1,9.97877e-05,-2.45186e-05,1.11023e-05,0.0199575,-0.00490372,0.00222046,0.99946,-0.00230953,0.0327849,0.000544076,0.0158223,0.545145,-1.06774,33.875,1,21466,8753282
right,31,4,0.99946,-0.00230953,0.0327849,0.000544076,-0.323023,-0.0686072,9.82222,0.321593,-0.426452,1.03176,-0.00323503,-0.000705746,0.0982219,1,9.97877e-05,-2.45186e-05,1.11023e-05,0.0199575,-0.00490372,0.00222046,0.99946,-0.00230953,0.0327849,0.000544076,0.0158223,0.545145,-1.06774,33.875,1,21466,8753282
right,31,5,0.99946,-0.00230953,0.0327849,0.000544076,-0.323023,-0.0686072,9.82222,0.321593,-0.426452,1.03176,-0.00323503,-0.000705746,0.0982219,1,9.97877e-05,-2.45186e-05,1.11023e-05,0.0199575,-0.00490372,0.00222046,0.99946,-0.00230953,0.0327849,0.000544076,0.0158223,0.545145,-1.06774,33.875,1,21466,8753282
right,31,6,0.99946,-0.00223936,0.0327887,0.000555134,-0.0968107,-0.0220405,9.87534,0.758021,-0.590449,1.19886,-0.000955132,-0.000231362,0.0987535,1,5.53589e-05,6.56689e-05,1.19978e-05,0.0110718,0.0131338,0.00239955,0.99946,-0.00223936,0.0327887,0.000555134,0.0172168,0.546615,-1.06872,33.875,1,21467,8753382
left,49,1,0.99946,-0.00223936,0.0327887,0.000555134,-0.0968107,-0.0220405,9.87534,0.758021,-0.590449,1.19886,-0.000955132,-0.000231362,0.0987535,1,5.53589e-05,6.56689e-05,1.19978e-05,0.0110718,0.0131338,0.00239955,0.99946,-0.00223936,0.0327887,0.000555134,0.0172168,0.546615,-1.06872,33.875,1,21467,8753382
left,49,2,0.99946,-0.00223936,0.0327887,0.000555134,-0.0968107,-0.0220405,9.87534,0.758021,-0.590449,1.19886,-0.000955132,-0.000231362,0.0987535,1,5.53589e-05,6.56689e-05,1.19978e-05,0.0110718,0.0131338,0.00239955,0.99946,-0.00223936,0.0327887,0.000555134,0.0172168,0.546615,-1.06872,33.875,1,21467,8753382
left,49,3,0.999461,-0.00217583,0.0327568,0.000606519,-0.90587,0.06721,9.48429,-0.125547,-0.523547,0.801239,-0.00905261,0.000662146,0.0948436,1,4.76087e-05,3.24471e-05,5.10192e-05,0.00952173,0.00648942,0.0102038,0.999461,-0.00217583,0.0327568,0.000606519,0.0190876,0.546156,-1.07127,33.875,1,21468,8753482
left,49,4,0.999461,-0.00217583,0.0327568,0.000606519,-0.90587,0.06721,9.48429,-0.125547,-0.523547,0.801239,-0.00905261,0.000662146,0.0948436,1,4.76087e-05,3.24471e-05,5.10192e-05,0.00952173,0.00648942,0.0102038,0.999461,-0.00217583,0.0327568,0.000606519,0.0190876,0.546156,-1.07127,33.875,1,21468,8753482
left,49,5,0.999461,-0.00217583,0.0327568,0.000606519,-0.90587,0.06721,9.48429,-0.125547,-0.523547,0.801239,-0.00905261,0.000662146,0.0948436,1,4.76087e-05,3.24471e-05,5.10192e-05,0.00952173,0.00648942,0.0102038,0.999461,-0.00217583,0.0327568,0.000606519,0.0190876,0.546156,-1.07127,33.875,1,21468,8753482
right,32,1,0.999464,-0.00208708,0.0326625,0.000644585,-0.1459,0.0600446,9.76984,0.493372,-0.480678,0.949016,-0.00146538,0.000586139,0.0976984,1,7.26506e-05,-3.23868e-05,3.80139e-05,0.0145301,-0.00647735,0.00760279,0.999464,-0.00208708,0.0326625,0.000644585,0.0171466,0.545702,-1.07228,33.875,1,21469,8753582
right,32,2,0.999464,-0.00208708,0.0326625,0.000644585,-0.1459,0.0600446,9.76984,0.493372,-0.480678,0.949016,-0.00146538,0.000586139,0.0976984,1,7.26506e-05,-3.23868e-05,3.80139e-05,0.0145301,-0.00647735,0.00760279,0.999464,-0.00208708,0.0326625,0.000644585,0.0171466,0.545702,-1.07228,33.875,1,21469,8753582
right,32,3,0.999464,-0.00208708,0.0326625,0.000644585,-0.1459,0.0600446,9.76984,0.493372,-0.480678,0.949016,-0.00146538,0.000586139,0.0976984,1,7.26506e-05,-3.23868e-05,3.80139e-05,0.0145301,-0.00647735,0.00760279,0.999464,-0.00208708,0.0326625,0.000644585,0.0171466,0.545702,-1.07228,33.875,1,21469,8753582
right,32,4,0.999465,-0.00204759,0.032648,0.000660204,-0.188339,0.180582,9.95432,0.671101,-0.340125,1.24222,-0.00187346,0.0018011,0.0995435,1,2.34841e-05,5.01014e-05,1.36668e-05,0.00469682,0.0100203,0.00273335,0.999465,-0.00204759,0.032648,0.000660204,0.0176851,0.545174,-1.07027,33.875,1,21470,8753682
left,50,1,0.999465,-0.00204759,0.032648,0.000660204,-0.188339,0.180582,9.95432,0.671101,-0.340125,1.24222,-0.00187346,0.0018011,0.0995435,1,2.34841e-05,5.01014e-05,1.36668e-05,0.00469682,0.0100203,0.00273335,0.999465,-0.00204759,0.032648,0.000660204,0.0176851,0.545174,-1.07027,33.875,1,21470,8753682
left,50,2,0.999465,-0.00204759,0.032648,0.000660204,-0.188339,0.180582,9.95432,0.671101,-0.340125,1.24222,-0.00187346,0.0018011,0.0995435,1,2.34841e-05,5.01014e-05,1.36668e-05,0.00469682,0.0100203,0.00273335,0.999465,-0.00204759,0.032648,0.000660204,0.0176851,0.545174,-1.07027,33.875,1,21470,8753682
left,50,3,0.999467,-0.00199153,0.0325944,0.000652805,-0.464773,0.0805766,9.82812,0.358403,-0.422985,1.09723,-0.00464506,0.000798022,0.0982814,1,3.98104e-05,1.35134e-05,-8.75383e-06,0.00796209,0.00270268,-0.00175077,0.999467,-0.00199153,0.0325944,0.000652805,0.0187294,0.544624,-1.06726,33.875,1,21471,8753782
left,50,4,0.999467,-0.00199153,0.0325944,0.000652805,-0.464773,0.0805766,9.82812,0.358403,-0.422985,1.09723,-0.00464506,0.000798022,0.0982814,1,3.98104e-05,1.35134e-05,-8.75383e-06,0.00796209,0.00270268,-0.00175077,0.999467,-0.00199153,0.0325944,0.000652805,0.0187294,0.544624,-1.06726,33.875,1,21471,8753782
left,50,5,0.999467,-0.00199153,0.0325944,0.000652805,-0.464773,0.0805766,9.82812,0.358403,-0.422985,1.09723,-0.00464506,0.000798022,0.0982814,1,3.98104e-05,1.35134e-05,-8.75383e-06,0.00796209,0.00270268,-0.00175077,0.999467,-0.00199153,0.0325944,0.000652805,0.0187294,0.544624,-1.06726,33.875,1,21471,8753782
left,50,6,0.999469,-0.00192642,0.0325275,0.000635182,-0.228618,0.0525348,9.79645,0.463186,-0.439092,1.0403,-0.002286,0.000516005,0.0979645,1,4.81271e-05,7.97187e-07,-1.89951e-05,0.00962542,0.000159437,-0.00379902,0.999469,-0.00192642,0.0325275,0.000635182,0.0173558,0.544104,-1.06474,33.875,1,21472,8753882
right,33,1,0.999469,-0.00192642,0.0325275,0.000635182,-0.228618,0.0525348,9.79645,0.463186,-0.439092,1.0403,-0.002286,0.000516005,0.0979645,1,4.81271e-05,7.97187e-07,-1.89951e-05,0.00962542,0.000159437,-0.00379902,0.999469,-0.00192642,0.0325275,0.000635182,0.0173558,0.544104,-1.06474,33.875,1,21472,8753882
right,33,2,0.999469,-0.00192642,0.0325275,0.000635182,-0.228618,0.0525348,9.79645,0.463186,-0.439092,1.0403,-0.002286,0.000516005,0.0979645,1,4.81271e-05,7.97187e-07,-1.89951e-05,0.00962542,0.000159437,-0.00379902,0.999469,-0.00192642,0.0325275,0.000635182,0.0173558,0.544104,-1.06474,33.875,1,21472,8753882
right,33,3,0.999471,-0.00188867,0.0324723,0.000631187,-0.474876,0.0747911,9.67516,0.339609,-0.466617,0.958414,-0.00474594,0.000744073,0.0967517,1,2.01427e-05,1.45286e-05,-6.28441e-06,0.00402854,0.00290573,-0.00125688,0.999471,-0.00188867,0.0324723,0.000631187,0.0158683,0.547521,-1.06415,33.875,1,21473,8753982
right,33,4,0.999471,-0.00188867,0.0324723,0.000631187,-0.474876,0.0747911,9.67516,0.339609,-0.466617,0.958414,-0.00474594,0.000744073,0.0967517,1,2.01427e-05,1.45286e-05,-6.28441e-06,0.00402854,0.00290573,-0.00125688,0.999471,-0.00188867,0.0324723,0.000631187,0.0158683,0.547521,-1.06415,33.875,1,21473,8753982
right,33,5,0.999471,-0.00188867,0.0324723,0.000631187,-0.474876,0.0747911,9.67516,0.339609,-0.466617,0.958414,-0.00474594,0.000744073,0.0967517,1,2.01427e-05,1.45286e-05,-6.28441e-06,0.00402854,0.00290573,-0.00125688,0.999471,-0.00188867,0.0324723,0.000631187,0.0158683,0.547521,-1.06415,33.875,1,21473,8753982
left,51,1,0.999474,-0.00185715,0.0323793,0.000641712,-0.279098,-0.0188747,9.74124,0.466975,-0.498249,0.971782,-0.00279555,-0.00019133,0.0974123,1,1.30796e-05,-2.34636e-05,6.26034e-06,0.00261592,-0.00469273,0.00125207,0.999474,-0.00185715,0.0323793,0.000641712,0.0177235,0.549483,-1.06563,33.875,1,21474,8754082
left,51,2,0.999474,-0.00185715,0.0323793,0.000641712,-0.279098,-0.0188747,9.74124,0.466975,-0.498249,0.971782,-0.00279555,-0.00019133,0.0974123,1,1.30796e-05,-2.34636e-05,6.26034e-06,0.00261592,-0.00469273,0.00125207,0.999474,-0.00185715,0.0323793,0.000641712,0.0177235,0.549483,-1.06563,33.875,1,21474,8754082
left,51,3,0.999474,-0.00185715,0.0323793,0.000641712,-0.279098,-0.0188747,9.74124,0.466975,-0.498249,0.971782,-0.00279555,-0.00019133,0.0974123,1,1.30796e-05,-2.34636e-05,6.26034e-06,0.00261592,-0.00469273,0.00125207,0.999474,-0.00185715,0.0323793,0.000641712,0.0177235,0.549483,-1.06563,33.875,1,21474,8754082
left,51,4,0.999476,-0.00180018,0.0322991,0.000650646,-0.328212,1.18116,9.9061,0.243196,0.23178,1.15651,-0.00328399,0.0118039,0.0990618,1,3.88672e-05,-8.58409e-06,7.00035e-06,0.00777344,-0.00171682,0.00140007,0.999476,-0.00180018,0.0322991,0.000650646,0.0157772,0.54566,-1.06924,33.875,1,21475,8754182
right,34,1,0.999476,-0.00180018,0.0322991,0.000650646,-0.328212,1.18116,9.9061,0.243196,0.23178,1.15651,-0.00328399,0.0118039,0.0990618,1,3.88672e-05,-8.58409e-06,7.00035e-06,0.00777344,-0.00171682,0.00140007,0.999476,-0.00180018,0.0322991,0.000650646,0.0157772,0.54566,-1.06924,33.875,1,21475,8754182
right,34,2,0.999476,-0.00180018,0.0322991,0.000650646,-0.328212,1.18116,9.9061,0.243196,0.23178,1.15651,-0.00328399,0.0118039,0.0990618,1,3.88672e-05,-8.58409e-06,7.00035e-06,0.00777344,-0.00171682,0.00140007,0.999476,-0.00180018,0.0322991,0.000650646,0.0157772,0.54566,-1.06924,33.875,1,21475,8754182
right,34,3,0.999479,-0.00188676,0.0322138,0.000672217,-0.340313,-1.25185,9.97548,0.594489,-1.96146,1.2069,-0.00340529,-0.0124959,0.0997576,1,-0.000114015,-1.24859e-05,1.31065e-05,-0.022803,-0.00249717,0.00262131,0.999479,-0.00188676,0.0322138,0.000672217,0.013078,0.540246,-1.06531,33.875,1,21476,8754282
right,34,4,0.999479,-0.00188676,0.0322138,0.000672217,-0.340313,-1.25185,9.97548,0.594489,-1.96146,1.2069,-0.00340529,-0.0124959,0.0997576,1,-0.000114015,-1.24859e-05,1.31065e-05,-0.022803,-0.00249717,0.00262131,0.999479,-0.00188676,0.0322138,0.000672217,0.013078,0.540246,-1.06531,33.875,1,21476,8754282
right,34,5,0.999479,-0.00188676,0.0322138,0.000672217,-0.340313,-1.25185,9.97548,0.594489,-1.96146,1.2069,-0.00340529,-0.0124959,0.0997576,1,-0.000114015,-1.24859e-05,1.31065e-05,-0.022803,-0.00249717,0.00262131,0.999479,-0.00188676,0.0322138,0.000672217,0.013078,0.540246,-1.06531,33.875,1,21476,8754282
right,34,6,0.999481,-0.00169375,0.0321503,0.000659298,-0.392036,-0.506803,9.08413,0.112767,-1.42412,0.438815,-0.00391852,-0.00509986,0.0908396,1,0.000175632,1.06983e-05,-9.93401e-06,0.0351263,0.00213965,-0.0019868,0.999481,-0.00169375,0.0321503,0.000659298,0.0126752,0.540675,-1.06176,33.875,1,21477,8754382
left,52,1,0.999481,-0.00169375,0.0321503,0.000659298,-0.392036,-0.506803,9.08413,0.112767,-1.42412,0.438815,-0.00391852,-0.00509986,0.0908396,1,0.000175632,1.06983e-05,-9.93401e-06,0.0351263,0.00213965,-0.0019868,0.999481,-0.00169375,0.0321503,0.000659298,0.0126752,0.540675,-1.06176,33.875,1,21477,8754382
left,52,2,0.999481,-0.00169375,0.0321503,0.000659298,-0.392036,-0.506803,9.08413,0.112767,-1.42412,0.438815,-0.00391852,-0.00509986,0.0908396,1,0.000175632,1.06983e-05,-9.93401e-06,0.0351263,0.00213965,-0.0019868,0.999481,-0.00169375,0.0321503,0.000659298,0.0126752,0.540675,-1.06176,33.875,1,21477,8754382
left,52,3,0.999485,-0.0016377,0.0320413,0.000690148,-0.427833,-0.37355,9.90964,0.467739,-0.938758,1.07221,-0.00428493,-0.00374395,0.0990958,1,4.13716e-05,-3.44434e-05,2.99907e-05,0.00827433,-0.00688869,0.00599815,0.999485,-0.0016377,0.0320413,0.000690148,0.0126395,0.545038,-1.06015,33.875,1,21478,8754482
left,52,4,0.999485,-0.0016377,0.0320413,0.000690148,-0.427833,-0.37355,9.90964,0.467739,-0.938758,1.07221,-0.00428493,-0.00374395,0.0990958,1,4.13716e-05,-3.44434e-05,2.99907e-05,0.00827433,-0.00688869,0.00599815,0.999485,-0.0016377,0.0320413,0.000690148,0.0126395,0.545038,-1.06015,33.875,1,21478,8754482
left,52,5,0.999485,-0.0016377,0.0320413,0.000690148,-0.427833,-0.37355,9.90964,0.467739,-0.938758,1.07221,-0.00428493,-0.00374395,0.0990958,1,4.13716e-05,-3.44434e-05,2.99907e-05,0.00827433,-0.00688869,0.00599815,0.999485,-0.0016377,0.0320413,0.000690148,0.0126395,0.545038,-1.06015,33.875,1,21478,8754482
right,35,1,0.999488,-0.00144744,0.0319458,0.000699216,0.470515,0.0893063,10.682,1.17186,-0.579446,1.84081,0.00470079,0.000855111,0.10682,1,0.000178223,-2.03009e-05,1.31528e-05,0.0356446,-0.00406018,0.00263056,0.999488,-0.00144744,0.0319458,0.000699216,0.0135329,0.548453,-1.06059,33.875,1,21479,8754582
right,35,2,0.999488,-0.00144744,0.0319458,0.000699216,0.470515,0.0893063,10.682,1.17186,-0.579446,1.84081,0.00470079,0.000855111,0.10682,1,0.000178223,-2.03009e-05,1.31528e-05,0.0356446,-0.00406018,0.00263056,0.999488,-0.00144744,0.0319458,0.000699216,0.0135329,0.548453,-1.06059,33.875,1,21479,8754582
right,35,3,0.999488,-0.00144744,0.0319458,0.000699216,0.470515,0.0893063,10.682,1.17186,-0.579446,1.84081,0.00470079,0.000855111,0.10682,1,0.000178223,-2.03009e-05,1.31528e-05,0.0356446,-0.00406018,0.00263056,0.999488,-0.00144744,0.0319458,0.000699216,0.0135329,0.548453,-1.06059,33.875,1,21479,8754582
right,35,4,0.999486,-0.0013682,0.0320078,0.000745043,-0.992792,0.271047,9.97605,0.0972151,-0.287978,1.37587,-0.0098994,0.00269655,0.0997637,1,6.52006e-05,0.000144148,4.61168e-05,0.0130401,0.0288296,0.00922337,0.999486,-0.0013682,0.0320078,0.000745043,0.0163907,0.547969,-1.06212,33.875,1,21480,8754682
right,35,5,0.999486,-0.0013682,0.0320078,0.000745043,-0.992792,0.271047,9.97605,0.0972151,-0.287978,1.37587,-0.0098994,0.00269655,0.0997637,1,6.52006e-05,0.000144148,4.61168e-05,0.0130401,0.0288296,0.00922337,0.999486,-0.0013682,0.0320078,0.000745043,0.0163907,0.547969,-1.06212,33.875,1,21480,8754682
right,35,6,0.999486,-0.0013682,0.0320078,0.000745043,-0.992792,0.271047,9.97605,0.0972151,-0.287978,1.37587,-0.0098994,0.00269655,0.0997637,1,6.52006e-05,0.000144148,4.61168e-05,0.0130401,0.0288296,0.00922337,0.999486,-0.0013682,0.0320078,0.000745043,0.0163907,0.547969,-1.06212,33.875,1,21480,8754682
left,53,1,0.999491,-0.0013183,0.0318529,0.000785163,-1.26984,0.0518529,9.53701,-0.73239,-0.397687,0.846577,-0.012713,0.000510943,0.0953682,1,3.45447e-05,-7.60907e-05,3.92283e-05,0.00690893,-0.0152181,0.00784566,0.999491,-0.0013183,0.0318529,0.000785163,0.015465,0.546504,-1.06165,33.875,1,21481,8754782
left,53,2,0.999491,-0.0013183,0.0318529,0.000785163,-1.26984,0.0518529,9.53701,-0.73239,-0.397687,0.846577,-0.012713,0.000510943,0.0953682,1,3.45447e-05,-7.60907e-05,3.92283e-05,0.00690893,-0.0152181,0.00784566,0.999491,-0.0013183,0.0318529,0.000785163,0.015465,0.546504,-1.06165,33.875,1,21481,8754782
left,53,3,0.999491,-0.0013183,0.0318529,0.000785163,-1.26984,0.0518529,9.53701,-0.73239,-0.397687,0.846577,-0.012713,0.000510943,0.0953682,1,3.45447e-05,-7.60907e-05,3.92283e-05,0.00690893,-0.0152181,0.00784566,0.999491,-0.0013183,0.0318529,0.000785163,0.015465,0.546504,-1.06165,33.875,1,21481,8754782
left,53,4,0.999495,-0.00121657,0.0317366,0.000823446,-0.161218,-0.0975376,9.90975,0.562695,-0.668692,1.10656,-0.00162064,-0.000992577,0.0990972,1,8.61655e-05,-4.3057e-05,3.83326e-05,0.0172331,-0.0086114,0.00766652,0.999495,-0.00121657,0.0317366,0.000823446,0.0131577,0.545007,-1.05864,33.875,1,21482,8754882
right,36,1,0.999495,-0.00121657,0.0317366,0.000823446,-0.161218,-0.0975376,9.90975,0.562695,-0.668692,1.10656,-0.00162064,-0.000992577,0.0990972,1,8.61655e-05,-4.3057e-05,3.83326e-05,0.0172331,-0.0086114,0.00766652,0.999495,-0.00121657,0.0317366,0.000823446,0.0131577,0.545007,-1.05864,33.875,1,21482,8754882
right,36,2,0.999495,-0.00121657,0.0317366,0.000823446,-0.161218,-0.0975376,9.90975,0.562695,-0.668692,1.10656,-0.00162064,-0.000992577,0.0990972,1,8.61655e-05,-4.3057e-05,3.83326e-05,0.0172331,-0.0086114,0.00766652,0.999495,-0.00121657,0.0317366,0.000823446,0.0131577,0.545007,-1.05864,33.875,1,21482,8754882
right,36,3,0.999498,-0.00107148,0.0316398,0.000835705,0.141156,0.0607204,9.85037,0.833592,-0.627974,1.11754,0.00140738,0.000581547,0.0985039,1,0.000130437,-2.11326e-05,1.43168e-05,0.0260874,-0.00422653,0.00286336,0.999498,-0.00107148,0.0316398,0.000835705,0.0118007,0.544956,-1.0551,33.875,1,21483,8754982
right,36,4,0.999498,-0.00107148,0.0316398,0.000835705,0.141156,0.0607204,9.85037,0.833592,-0.627974,1.11754,0.00140738,0.000581547,0.0985039,1,0.000130437,-2.11326e-05,1.43168e-05,0.0260874,-0.00422653,0.00286336,0.999498,-0.00107148,0.0316398,0.000835705,0.0118007,0.544956,-1.0551,33.875,1,21483,8754982
right,36,5,0.999498,-0.00107148,0.0316398,0.000835705,0.141156,0.0607204,9.85037,0.833592,-0.627974,1.11754,0.00140738,0.000581547,0.0985039,1,0.000130437,-2.11326e-05,1.43168e-05,0.0260874,-0.00422653,0.00286336,0.999498,-0.00107148,0.0316398,0.000835705,0.0118007,0.544956,-1.0551,33.875,1,21483,8754982
right,36,6,0.999499,-0.00102543,0.0316196,0.000866606,-0.522462,0.450404,9.40935,0.267742,-0.0472502,0.630559,-0.00521359,0.00449786,0.0940944,1,3.11905e-05,6.00641e-05,2.97443e-05,0.0062381,0.0120128,0.00594885,0.999499,-0.00102543,0.0316196,0.000866606,0.013746,0.545888,-1.05357,33.875,1,21484,8755082
left,54,1,0.999499,-0.00102543,0.0316196,0.000866606,-0.522462,0.450404,9.40935,0.267742,-0.0472502,0.630559,-0.00521359,0.00449786,0.0940944,1,3.11905e-05,6.00641e-05,2.97443e-05,0.0062381,0.0120128,0.00594885,0.999499,-0.00102543,0.0316196,0.000866606,0.013746,0.545888,-1.05357,33.875,1,21484,8755082
left,54,2,0.999499,-0.00102543,0.0316196,0.000866606,-0.522462,0.450404,9.40935,0.267742,-0.0472502,0.630559,-0.00521359,0.00449786,0.0940944,1,3.11905e-05,6.00641e-05,2.97443e-05,0.0062381,0.0120128,0.00594885,0.999499,-0.00102543,0.0316196,0.000866606,0.013746,0.545888,-1.05357,33.875,1,21484,8755082
left,54,3,0.999502,-0.00097196,0.0315263,0.000872324,-0.194183,-0.113343,9.8501,0.451131,-0.706964,1.05489,-0.00194449,-0.00114051,0.0985009,1,3.58354e-05,-1.35565e-05,3.95076e-06,0.00716707,-0.0027113,0.000790152,0.999502,-0.00097196,0.0315263,0.000872324,0.0146598,0.548807,-1.05351,33.875,1,21485,8755182
right,37,1,0.999502,-0.00097196,0.0315263,0.000872324,-0.194183,-0.113343,9.8501,0.451131,-0.706964,1.05489,-0.00194449,-0.00114051,0.0985009,1,3.58354e-05,-1.35565e-05,3.95076e-06,0.00716707,-0.0027113,0.000790152,0.999502,-0.00097196,0.0315263,0.000872324,0.0146598,0.548807,-1.05351,33.875,1,21485,8755182
right,37,2,0.999502,-0.00097196,0.0315263,0.000872324,-0.194183,-0.113343,9.8501,0.451131,-0.706964,1.05489,-0.00194449,-0.00114051,0.0985009,1,3.58354e-05,-1.35565e-05,3.95076e-06,0.00716707,-0.0027113,0.000790152,0.999502,-0.00097196,0.0315263,0.000872324,0.0146598,0.548807,-1.05351,33.875,1,21485,8755182
right,37,3,0.999503,-0.000901697,0.0314978,0.00088936,-0.68678,-0.168016,10.0463,0.187373,-0.671749,1.32997,-0.00685705,-0.001691,0.100464,1,5.28659e-05,5.32548e-05,1.60811e-05,0.0105732,0.010651,0.00321623,0.999503,-0.000901697,0.0314978,0.00088936,0.0141583,0.549308,-1.054,33.875,1,21486,8755282
right,37,4,0.999503,-0.000901697,0.0314978,0.00088936,-0.68678,-0.168016,10.0463,0.187373,-0.671749,1.32997,-0.00685705,-0.001691,0.100464,1,5.28659e-05,5.32548e-05,1.60811e-05,0.0105732,0.010651,0.00321623,0.999503,-0.000901697,0.0314978,0.00088936,0.0141583,0.549308,-1.054,33.875,1,21486,8755282
right,37,5,0.999503,-0.000901697,0.0314978,0.00088936,-0.68678,-0.168016,10.0463,0.187373,-0.671749,1.32997,-0.00685705,-0.001691,0.100464,1,5.28659e-05,5.32548e-05,1.60811e-05,0.0105732,0.010651,0.00321623,0.999503,-0.000901697,0.0314978,0.00088936,0.0141583,0.549308,-1.054,33.875,1,21486,8755282
right,37,6,0.999506,-0.000789903,0.0314038,0.000903446,-0.633106,-0.143114,9.66557,0.0143217,-0.743232,0.950498,-0.00633369,-0.00144989,0.0966552,1,9.60268e-05,-1.3795e-05,1.44371e-05,0.0192054,-0.002759,0.00288742,0.999506,-0.000789903,0.0314038,0.000903446,0.0132155,0.545928,-1.05559,33.875,1,21487,8755382
left,55,1,0.999506,-0.000789903,0.0314038,0.000903446,-0.633106,-0.143114,9.66557,0.0143217,-0.743232,0.950498,-0.00633369,-0.00144989,0.0966552,1,9.60268e-05,-1.3795e-05,1.44371e-05,0.0192054,-0.002759,0.00288742,0.999506,-0.000789903,0.0314038,0.000903446,0.0132155,0.545928,-1.05559,33.875,1,21487,8755382
left,55,2,0.999506,-0.000789903,0.0314038,0.000903446,-0.633106,-0.143114,9.66557,0.0143217,-0.743232,0.950498,-0.00633369,-0.00144989,0.0966552,1,9.60268e-05,-1.3795e-05,1.44371e-05,0.0192054,-0.002759,0.00288742,0.999506,-0.000789903,0.0314038,0.000903446,0.0132155,0.545928,-1.05559,33.875,1,21487,8755382
left,55,3,0.99951,-0.000700369,0.0312722,0.000910526,-0.382924,0.249384,9.69031,0.28138,-0.242344,0.929367,-0.00383946,0.00247931,0.0969031,1,7.4705e-05,-5.25552e-05,7.29183e-06,0.014941,-0.010511,0.00145837,0.99951,-0.000700369,0.0312722,0.000910526,0.0142751,0.541512,-1.05468,33.875,1,21488,8755482
left,55,4,0.99951,-0.000700369,0.0312722,0.000910526,-0.382924,0.249384,9.69031,0.28138,-0.242344,0.929367,-0.00383946,0.00247931,0.0969031,1,7.4705e-05,-5.25552e-05,7.29183e-06,0.014941,-0.010511,0.00145837,0.99951,-0.000700369,0.0312722,0.000910526,0.0142751,0.541512,-1.05468,33.875,1,21488,8755482
left,55,5,0.99951,-0.000700369,0.0312722,0.000910526,-0.382924,0.249384,9.69031,0.28138,-0.242344,0.929367,-0.00383946,0.00247931,0.0969031,1,7.4705e-05,-5.25552e-05,7.29183e-06,0.014941,-0.010511,0.00145837,0.99951,-0.000700369,0.0312722,0.000910526,0.0142751,0.541512,-1.05468,33.875,1,21488,8755482
right,38,1,0.999514,-0.000659046,0.0311656,0.00094028,-0.112242,-0.137138,9.8239,0.620762,-0.610706,1.0182,-0.00112768,-0.00137631,0.0982389,1,2.47712e-05,-2.71817e-05,2.75929e-05,0.00495425,-0.00543635,0.00551858,0.999514,-0.000659046,0.0311656,0.00094028,0.0124127,0.542929,-1.05111,33.875,1,21489,8755582
right,38,2,0.999514,-0.000659046,0.0311656,0.00094028,-0.112242,-0.137138,9.8239,0.620762,-0.610706,1.0182,-0.00112768,-0.00137631,0.0982389,1,2.47712e-05,-2.71817e-05,2.75929e-05,0.00495425,-0.00543635,0.00551858,0.999514,-0.000659046,0.0311656,0.00094028,0.0124127,0.542929,-1.05111,33.875,1,21489,8755582
right,38,3,0.999514,-0.000659046,0.0311656,0.00094028,-0.112242,-0.137138,9.8239,0.620762,-0.610706,1.0182,-0.00112768,-0.00137631,0.0982389,1,2.47712e-05,-2.71817e-05,2.75929e-05,0.00495425,-0.00543635,0.00551858,0.999514,-0.000659046,0.0311656,0.00094028,0.0124127,0.542929,-1.05111,33.875,1,21489,8755582
right,38,4,0.999516,-0.000595794,0.0310846,0.000959462,-0.20488,-0.0152285,9.82284,0.550206,-0.488497,1.08068,-0.00204856,-0.000161735,0.0982284,1,4.77169e-05,1.17628e-06,1.83234e-05,0.00954338,0.000235257,0.00366469,0.999516,-0.000595794,0.0310846,0.000959462,0.0119577,0.54725,-1.04697,33.875,1,21490,8755682
left,56,1,0.999516,-0.000595794,0.0310846,0.000959462,-0.20488,-0.0152285,9.82284,0.550206,-0.488497,1.08068,-0.00204856,-0.000161735,0.0982284,1,4.77169e-05,1.17628e-06,1.83234e-05,0.00954338,0.000235257,0.00366469,0.999516,-0.000595794,0.0310846,0.000959462,0.0119577,0.54725,-1.04697,33.875,1,21490,8755682
left,56,2,0.999516,-0.000595794,0.0310846,0.000959462,-0.20488,-0.0152285,9.82284,0.550206,-0.488497,1.08068,-0.00204856,-0.000161735,0.0982284,1,4.77169e-05,1.17628e-06,1.83234e-05,0.00954338,0.000235257,0.00366469,0.999516,-0.000595794,0.0310846,0.000959462,0.0119577,0.54725,-1.04697,33.875,1,21490,8755682
left,56,3,0.999519,-0.000498339,0.0309961,0.000983758,-0.31759,-0.0800893,9.89837,0.462089,-0.594315,1.13427,-0.00317677,-0.000817293,0.0989835,1,8.20438e-05,-4.5764e-06,2.48461e-05,0.0164088,-0.00091528,0.00496921,0.999519,-0.000498339,0.0309961,0.000983758,0.0118841,0.54875,-1.04895,33.875,1,21491,8755782
left,56,4,0.999519,-0.000498339,0.0309961,0.000983758,-0.31759,-0.0800893,9.89837,0.462089,-0.594315,1.13427,-0.00317677,-0.000817293,0.0989835,1,8.20438e-05,-4.5764e-06,2.48461e-05,0.0164088,-0.00091528,0.00496921,0.999519,-0.000498339,0.0309961,0.000983758,0.0118841,0.54875,-1.04895,33.875,1,21491,8755782
left,56,5,0.999519,-0.000498339,0.0309961,0.000983758,-0.31759,-0.0800893,9.89837,0.462089,-0.594315,1.13427,-0.00317677,-0.000817293,0.0989835,1,8.20438e-05,-4.5764e-06,2.48461e-05,0.0164088,-0.00091528,0.00496921,0.999519,-0.000498339,0.0309961,0.000983758,0.0118841,0.54875,-1.04895,33.875,1,21491,8755782
left,56,6,0.999521,-0.000429835,0.0309272,0.00100132,-0.687645,0.313562,9.76106,0.0899223,-0.184163,1.00603,-0.00687342,0.00312488,0.0976111,1,5.3825e-05,1.60707e-05,1.72422e-05,0.010765,0.00321415,0.00344845,0.999521,-0.000429835,0.0309272,0.00100132,0.0133355,0.54825,-1.04897,33.875,1,21492,8755882
right,39,1,0.999521,-0.000429835,0.0309272,0.00100132,-0.687645,0.313562,9.76106,0.0899223,-0.184163,1.00603,-0.00687342,0.00312488,0.0976111,1,5.3825e-05,1.60707e-05,1.72422e-05,0.010765,0.00321415,0.00344845,0.999521,-0.000429835,0.0309272,0.00100132,0.0133355,0.54825,-1.04897,33.875,1,21492,8755882
right,39,2,0.999521,-0.000429835,0.0309272,0.00100132,-0.687645,0.313562,9.76106,0.0899223,-0.184163,1.00603,-0.00687342,0.00312488,0.0976111,1,5.3825e-05,1.60707e-05,1.72422e-05,0.010765,0.00321415,0.00344845,0.999521,-0.000429835,0.0309272,0.00100132,0.0133355,0.54825,-1.04897,33.875,1,21492,8755882
right,39,3,0.999525,-0.000405252,0.0308041,0.00101261,-0.302538,0.297704,9.72138,0.419791,-0.224465,0.961838,-0.00303319,0.00297552,0.0972136,1,7.52479e-06,-3.99313e-05,9.0021e-06,0.00150496,-0.00798625,0.00180042,0.999525,-0.000405252,0.0308041,0.00101261,0.0147998,0.549186,-1.04744,33.875,1,21493,8755982
right,39,4,0.999525,-0.000405252,0.0308041,0.00101261,-0.302538,0.297704,9.72138,0.419791,-0.224465,0.961838,-0.00303319,0.00297552,0.0972136,1,7.52479e-06,-3.99313e-05,9.0021e-06,0.00150496,-0.00798625,0.00180042,0.999525,-0.000405252,0.0308041,0.00101261,0.0147998,0.549186,-1.04744,33.875,1,21493,8755982
right,39,5,0.999525,-0.000405252,0.0308041,0.00101261,-0.302538,0.297704,9.72138,0.419791,-0.224465,0.961838,-0.00303319,0.00297552,0.0972136,1,7.52479e-06,-3.99313e-05,9.0021e-06,0.00150496,-0.00798625,0.00180042,0.999525,-0.000405252,0.0308041,0.00101261,0.0147998,0.549186,-1.04744,33.875,1,21493,8755982
left,57,1,0.999528,-0.00036248,0.0306985,0.00100045,-0.170023,0.0283839,9.83928,0.526649,-0.548662,1.06424,-0.00170445,0.000278965,0.0983927,1,2.50191e-05,-2.14765e-05,-1.45303e-05,0.00500382,-0.00429529,-0.00290606,0.999528,-0.00036248,0.0306985,0.00100045,0.0153706,0.546708,-1.04548,33.875,1,21494,8756082
left,57,2,0.999528,-0.00036248,0.0306985,0.00100045,-0.170023,0.0283839,9.83928,0.526649,-0.548662,1.06424,-0.00170445,0.000278965,0.0983927,1,2.50191e-05,-2.14765e-05,-1.45303e-05,0.00500382,-0.00429529,-0.00290606,0.999528,-0.00036248,0.0306985,0.00100045,0.0153706,0.546708,-1.04548,33.875,1,21494,8756082
left,57,3,0.999528,-0.00036248,0.0306985,0.00100045,-0.170023,0.0283839,9.83928,0.526649,-0.548662,1.06424,-0.00170445,0.000278965,0.0983927,1,2.50191e-05,-2.14765e-05,-1.45303e-05,0.00500382,-0.00429529,-0.00290606,0.999528,-0.00036248,0.0306985,0.00100045,0.0153706,0.546708,-1.04548,33.875,1,21494,8756082
left,57,4,0.999531,-0.00034193,0.0306085,0.00101768,-0.263681,-0.0902123,9.83244,0.461379,-0.632947,1.0464,-0.00263754,-0.000902645,0.0983244,1,2.27077e-06,-3.87015e-06,1.42064e-05,0.000454154,-0.000774031,0.00284128,0.999531,-0.00034193,0.0306085,0.00101768,0.0145066,0.545198,-1.04248,33.875,1,21495,8756182
right,40,1,0.999531,-0.00034193,0.0306085,0.00101768,-0.263681,-0.0902123,9.83244,0.461379,-0.632947,1.0464,-0.00263754,-0.000902645,0.0983244,1,2.27077e-06,-3.87015e-06,1.42064e-05,0.000454154,-0.000774031,0.00284128,0.999531,-0.00034193,0.0306085,0.00101768,0.0145066,0.545198,-1.04248,33.875,1,21495,8756182
right,40,2,0.999531,-0.00034193,0.0306085,0.00101768,-0.263681,-0.0902123,9.83244,0.461379,-0.632947,1.0464,-0.00263754,-0.000902645,0.0983244,1,2.27077e-06,-3.87015e-06,1.42064e-05,0.000454154,-0.000774031,0.00284128,0.999531,-0.00034193,0.0306085,0.00101768,0.0145066,0.545198,-1.04248,33.875,1,21495,8756182
right,40,3,0.999533,-0.000296923,0.0305342,0.00102804,-0.169043,-0.119516,9.87735,0.588699,-0.718865,1.07711,-0.00168781,-0.00120061,0.0987734,1,2.74366e-05,1.31285e-05,8.32665e-06,0.00548733,0.0026257,0.00166533,0.999533,-0.000296923,0.0305342,0.00102804,0.0140264,0.548093,-1.04039,33.875,1,21496,8756282
right,40,4,0.999533,-0.000296923,0.0305342,0.00102804,-0.169043,-0.119516,9.87735,0.588699,-0.718865,1.07711,-0.00168781,-0.00120061,0.0987734,1,2.74366e-05,1.31285e-05,8.32665e-06,0.00548733,0.0026257,0.00166533,0.999533,-0.000296923,0.0305342,0.00102804,0.0140264,0.548093,-1.04039,33.875,1,21496,8756282
right,40,5,0.999533,-0.000296923,0.0305342,0.00102804,-0.169043,-0.119516,9.87735,0.588699,-0.718865,1.07711,-0.00168781,-0.00120061,0.0987734,1,2.74366e-05,1.31285e-05,8.32665e-06,0.00548733,0.0026257,0.00166533,0.999533,-0.000296923,0.0305342,0.00102804,0.0140264,0.548093,-1.04039,33.875,1,21496,8756282
right,40,6,0.999536,-0.000271556,0.0304579,0.00102966,-0.470617,-0.0528463,9.9488,0.25227,-0.607061,1.17741,-0.00470358,-0.000530346,0.0994881,1,9.48459e-06,1.30311e-05,-3.6515e-07,0.00189692,0.00260621,-7.303e-05,0.999536,-0.000271556,0.0304579,0.00102966,0.0139452,0.551525,-1.04133,33.875,1,21497,8756382
left,58,1,0.999536,-0.000271556,0.0304579,0.00102966,-0.470617,-0.0528463,9.9488,0.25227,-0.607061,1.17741,-0.00470358,-0.000530346,0.0994881,1,9.48459e-06,1.30311e-05,-3.6515e-07,0.00189692,0.00260621,-7.303e-05,0.999536,-0.000271556,0.0304579,0.00102966,0.0139452,0.551525,-1.04133,33.875,1,21497,8756382
left,58,2,0.999536,-0.000271556,0.0304579,0.00102966,-0.470617,-0.0528463,9.9488,0.25227,-0.607061,1.17741,-0.00470358,-0.000530346,0.0994881,1,9.48459e-06,1.30311e-05,-3.6515e-07,0.00189692,0.00260621,-7.303e-05,0.999536,-0.000271556,0.0304579,0.00102966,0.0139452,0.551525,-1.04133,33.875,1,21497,8756382
left,58,3,0.999538,-0.000217107,0.0303648,0.00103571,-0.301313,-0.121513,10.0366,0.473595,-0.692389,1.30202,-0.00301395,-0.00122288,0.100366,1,3.85027e-05,-4.13665e-06,5.0295e-06,0.00770054,-0.00082733,0.0010059,0.999538,-0.000217107,0.0303648,0.00103571,0.0158849,0.547643,-1.04344,33.875,1,21498,8756482
left,58,4,0.999538,-0.000217107,0.0303648,0.00103571,-0.301313,-0.121513,10.0366,0.473595,-0.692389,1.30202,-0.00301395,-0.00122288,0.100366,1,3.85027e-05,-4.13665e-06,5.0295e-06,0.00770054,-0.00082733,0.0010059,0.999538,-0.000217107,0.0303648,0.00103571,0.0158849,0.547643,-1.04344,33.875,1,21498,8756482
left,58,5,0.999538,-0.000217107,0.0303648,0.00103571,-0.301313,-0.121513,10.0366,0.473595,-0.692389,1.30202,-0.00301395,-0.00122288,0.100366,1,3.85027e-05,-4.13665e-06,5.0295e-06,0.00770054,-0.00082733,0.0010059,0.999538,-0.000217107,0.0303648,0.00103571,0.0158849,0.547643,-1.04344,33.875,1,21498,8756482
right,41,1,0.999541,-0.000172637,0.0302765,0.00104421,-0.274202,0.0742693,9.71247,0.42967,-0.436276,0.945097,-0.00274168,0.000736893,0.0971248,1,2.96366e-05,1.77532e-06,7.91068e-06,0.00592732,0.000355064,0.00158214,0.999541,-0.000172637,0.0302765,0.00104421,0.0173729,0.545671,-1.04299,33.875,1,21499,8756582
right,41,2,0.999541,-0.000172637,0.0302765,0.00104421,-0.274202,0.0742693,9.71247,0.42967,-0.436276,0.945097,-0.00274168,0.000736893,0.0971248,1,2.96366e-05,1.77532e-06,7.91068e-06,0.00592732,0.000355064,0.00158214,0.999541,-0.000172637,0.0302765,0.00104421,0.0173729,0.545671,-1.04299,33.875,1,21499,8756582
right,41,3,0.999541,-0.000172637,0.0302765,0.00104421,-0.274202,0.0742693,9.71247,0.42967,-0.436276,0.945097,-0.00274168,0.000736893,0.0971248,1,2.96366e-05,1.77532e-06,7.91068e-06,0.00592732,0.000355064,0.00158214,0.999541,-0.000172637,0.0302765,0.00104421,0.0173729,0.545671,-1.04299,33.875,1,21499,8756582
right,41,4,0.999544,-0.000139234,0.0301917,0.00106902,-0.250785,0.025662,9.69019,0.436587,-0.489294,0.875918,-0.00250669,0.000252944,0.0969019,1,1.83752e-05,6.06683e-06,2.3037e-05,0.00367504,0.00121337,0.0046074,0.999544,-0.000139234,0.0301917,0.00106902,0.0164885,0.544658,-1.04048,33.875,1,21500,8756682
left,59,1,0.999544,-0.000139234,0.0301917,0.00106902,-0.250785,0.025662,9.69019,0.436587,-0.489294,0.875918,-0.00250669,0.000252944,0.0969019,1,1.83752e-05,6.06683e-06,2.3037e-05,0.00367504,0.00121337,0.0046074,0.999544,-0.000139234,0.0301917,0.00106902,0.0164885,0.544658,-1.04048,33.875,1,21500,8756682
left,59,2,0.999544,-0.000139234,0.0301917,0.00106902,-0.250785,0.025662,9.69019,0.436587,-0.489294,0.875918,-0.00250669,0.000252944,0.0969019,1,1.83752e-05,6.06683e-06,2.3037e-05,0.00367504,0.00121337,0.0046074,0.999544,-0.000139234,0.0301917,0.00106902,0.0164885,0.544658,-1.04048,33.875,1,21500,8756682
left,59,3,0.999546,-0.000100173,0.0301054,0.00108499,0.0916155,-0.00564591,9.8674,0.763905,-0.589089,1.0375,0.000917269,-6.11098e-05,0.098674,1,2.37021e-05,5.63833e-06,1.46218e-05,0.00474042,0.00112767,0.00292436,0.999546,-0.000100173,0.0301054,0.00108499,0.0151315,0.544607,-1.03694,33.875,1,21501,8756782
left,59,4,0.999546,-0.000100173,0.0301054,0.00108499,0.0916155,-0.00564591,9.8674,0.763905,-0.589089,1.0375,0.000917269,-6.11098e-05,0.098674,1,2.37021e-05,5.63833e-06,1.46218e-05,0.00474042,0.00112767,0.00292436,0.999546,-0.000100173,0.0301054,0.00108499,0.0151315,0.544607,-1.03694,33.875,1,21501,8756782
left,59,5,0.999546,-0.000100173,0.0301054,0.00108499,0.0916155,-0.00564591,9.8674,0.763905,-0.589089,1.0375,0.000917269,-6.11098e-05,0.098674,1,2.37021e-05,5.63833e-06,1.46218e-05,0.00474042,0.00112767,0.00292436,0.999546,-0.000100173,0.0301054,0.00108499,0.0151315,0.544607,-1.03694,33.875,1,21501,8756782
left,59,6,0.999548,-6.12184e-05,0.0300523,0.00111225,-0.324368,-0.0969662,9.7205,0.326377,-0.693816,0.931937,-0.00323535,-0.0009744,0.0972052,1,2.35087e-05,4.25839e-05,2.58821e-05,0.00470173,0.00851678,0.00517643,0.999548,-6.12184e-05,0.0300523,0.00111225,0.0171019,0.546967,-1.03336,33.875,1,21502,8756882
right,42,1,0.999548,-6.12184e-05,0.0300523,0.00111225,-0.324368,-0.0969662,9.7205,0.326377,-0.693816,0.931937,-0.00323535,-0.0009744,0.0972052,1,2.35087e-05,4.25839e-05,2.58821e-05,0.00470173,0.00851678,0.00517643,0.999548,-6.12184e-05,0.0300523,0.00111225,0.0171019,0.546967,-1.03336,33.875,1,21502,8756882
right,42,2,0.999548,-6.12184e-05,0.0300523,0.00111225,-0.324368,-0.0969662,9.7205,0.326377,-0.693816,0.931937,-0.00323535,-0.0009744,0.0972052,1,2.35087e-05,4.25839e-05,2.58821e-05,0.00470173,0.00851678,0.00517643,0.999548,-6.12184e-05,0.0300523,0.00111225,0.0171019,0.546967,-1.03336,33.875,1,21502,8756882
right,42,3,0.999551,-8.6833e-06,0.0299581,0.00112897,-0.292814,-0.0652217,9.81828,0.444063,-0.624695,1.02662,-0.00292777,-0.000659864,0.0981827,1,3.84597e-05,1.78142e-06,1.61064e-05,0.00769194,0.000356284,0.00322127,0.999551,-8.6833e-06,0.0299581,0.00112897,0.0184603,0.551354,-1.03378,33.875,1,21503,8756982
right,42,4,0.999551,-8.6833e-06,0.0299581,0.00112897,-0.292814,-0.0652217,9.81828,0.444063,-0.624695,1.02662,-0.00292777,-0.000659864,0.0981827,1,3.84597e-05,1.78142e-06,1.61064e-05,0.00769194,0.000356284,0.00322127,0.999551,-8.6833e-06,0.0299581,0.00112897,0.0184603,0.551354,-1.03378,33.875,1,21503,8756982
right,42,5,0.999551,-8.6833e-06,0.0299581,0.00112897,-0.292814,-0.0652217,9.81828,0.444063,-0.624695,1.02662,-0.00292777,-0.000659864,0.0981827,1,3.84597e-05,1.78142e-06,1.61064e-05,0.00769194,0.000356284,0.00322127,0.999551,-8.6833e-06,0.0299581,0.00112897,0.0184603,0.551354,-1.03378,33.875,1,21503,8756982
left,60,1,0.999553,6.52409e-05,0.0298711,0.00114034,-0.0188402,-0.0100026,9.94885,0.701816,-0.551082,1.18191,-0.000186495,-0.000112017,0.0994885,1,6.02451e-05,9.56851e-06,1.11364e-05,0.012049,0.0019137,0.00222728,0.999553,6.52409e-05,0.0298711,0.00114034,0.0193817,0.552339,-1.03477,33.875,1,21504,8757082
left,60,2,0.999553,6.52409e-05,0.0298711,0.00114034,-0.0188402,-0.0100026,9.94885,0.701816,-0.551082,1.18191,-0.000186495,-0.000112017,0.0994885,1,6.02451e-05,9.56851e-06,1.11364e-05,0.012049,0.0019137,0.00222728,0.999553,6.52409e-05,0.0298711,0.00114034,0.0193817,0.552339,-1.03477,33.875,1,21504,8757082
left,60,3,0.999553,6.52409e-05,0.0298711,0.00114034,-0.0188402,-0.0100026,9.94885,0.701816,-0.551082,1.18191,-0.000186495,-0.000112017,0.0994885,1,6.02451e-05,9.56851e-06,1.11364e-05,0.012049,0.0019137,0.00222728,0.999553,6.52409e-05,0.0298711,0.00114034,0.0193817,0.552339,-1.03477,33.875,1,21504,8757082
left,60,4,0.999556,0.000110752,0.0297891,0.00113948,-0.295556,0.0508828,9.68188,0.442594,-0.431296,0.930326,-0.0029522,0.000502484,0.096819,1,3.28049e-05,1.73709e-05,-1.46726e-06,0.00656099,0.00347419,-0.000293452,0.999556,0.000110752,0.0297891,0.00113948,0.0189282,0.548468,-1.03637,33.875,1,21505,8757182
right,43,1,0.999556,0.000110752,0.0297891,0.00113948,-0.295556,0.0508828,9.68188,0.442594,-0.431296,0.930326,-0.0029522,0.000502484,0.096819,1,3.28049e-05,1.73709e-05,-1.46726e-06,0.00656099,0.00347419,-0.000293452,0.999556,0.000110752,0.0297891,0.00113948,0.0189282,0.548468,-1.03637,33.875,1,21505,8757182
right,43,2,0.999556,0.000110752,0.0297891,0.00113948,-0.295556,0.0508828,9.68188,0.442594,-0.431296,0.930326,-0.0029522,0.000502484,0.096819,1,3.28049e-05,1.73709e-05,-1.46726e-06,0.00656099,0.00347419,-0.000293452,0.999556,0.000110752,0.0297891,0.00113948,0.0189282,0.548468,-1.03637,33.875,1,21505,8757182
right,43,3,0.999559,0.000177337,0.0296725,0.00113945,0.102296,0.10249,9.70271,0.802741,-0.428954,0.882652,0.0010197,0.00101444,0.0970273,1,5.38658e-05,-1.68011e-05,-4.59632e-07,0.0107732,-0.00336021,-9.19264e-05,0.999559,0.000177337,0.0296725,0.00113945,0.0190297,0.544539,-1.03494,33.875,1,21506,8757282
right,43,4,0.999559,0.000177337,0.0296725,0.00113945,0.102296,0.10249,9.70271,0.802741,-0.428954,0.882652,0.0010197,0.00101444,0.0970273,1,5.38658e-05,-1.68011e-05,-4.59632e-07,0.0107732,-0.00336021,-9.19264e-05,0.999559,0.000177337,0.0296725,0.00113945,0.0190297,0.544539,-1.03494,33.875,1,21506,8757282
right,43,5,0.999562,0.000207337,0.0295884,0.00115123,0.022341,-0.057877,9.82977,0.721055,-0.571061,1.05387,0.000227153,-0.000582067,0.0982977,1,1.67917e-05,1.89862e-05,9.22509e-06,0.00335834,0.00379725,0.00184502,0.999562,0.000207337,0.0295884,0.00115123,0.0181577,0.543518,-1.03193,33.875,1,21507,8757382
left,61,1,0.999562,0.000207337,0.0295884,0.00115123,0.022341,-0.057877,9.82977,0.721055,-0.571061,1.05387,0.000227153,-0.000582067,0.0982977,1,1.67917e-05,1.89862e-05,9.22509e-06,0.00335834,0.00379725,0.00184502,0.999562,0.000207337,0.0295884,0.00115123,0.0181577,0.543518,-1.03193,33.875,1,21507,8757382
left,61,2,0.999562,0.000207337,0.0295884,0.00115123,0.022341,-0.057877,9.82977,0.721055,-0.571061,1.05387,0.000227153,-0.000582067,0.0982977,1,1.67917e-05,1.89862e-05,9.22509e-06,0.00335834,0.00379725,0.00184502,0.999562,0.000207337,0.0295884,0.00115123,0.0181577,0.543518,-1.03193,33.875,1,21507,8757382
left,61,3,0.999564,0.000280357,0.0294997,0.00116169,-0.169665,0.081898,9.80409,0.470194,-0.511422,0.986089,-0.00169324,0.000807129,0.0980411,1,6.02491e-05,1.7468e-05,1.07322e-05,0.0120498,0.0034936,0.00214643,0.999564,0.000280357,0.0294997,0.00116169,0.0177263,0.544931,-1.02886,33.875,1,21508,8757482
left,61,4,0.999564,0.000280357,0.0294997,0.00116169,-0.169665,0.081898,9.80409,0.470194,-0.511422,0.986089,-0.00169324,0.000807129,0.0980411,1,6.02491e-05,1.7468e-05,1.07322e-05,0.0120498,0.0034936,0.00214643,0.999564,0.000280357,0.0294997,0.00116169,0.0177263,0.544931,-1.02886,33.875,1,21508,8757482
left,61,5,0.999564,0.000280357,0.0294997,0.00116169,-0.169665,0.081898,9.80409,0.470194,-0.511422,0.986089,-0.00169324,0.000807129,0.0980411,1,6.02491e-05,1.7468e-05,1.07322e-05,0.0120498,0.0034936,0.00214643,0.999564,0.000280357,0.0294997,0.00116169,0.0177263,0.544931,-1.02886,33.875,1,21508,8757482
right,44,1,0.999567,0.000312942,0.0294095,0.0011942,-0.191957,0.00660565,9.73339,0.49982,-0.543188,0.916837,-0.00191621,6.23353e-05,0.0973339,1,1.84944e-05,1.72578e-05,3.15191e-05,0.00369888,0.00345156,0.00630383,0.999567,0.000312942,0.0294095,0.0011942,0.0180983,0.550789,-1.02924,33.875,1,21509,8757582
right,44,2,0.999567,0.000312942,0.0294095,0.0011942,-0.191957,0.00660565,9.73339,0.49982,-0.543188,0.916837,-0.00191621,6.23353e-05,0.0973339,1,1.84944e-05,1.72578e-05,3.15191e-05,0.00369888,0.00345156,0.00630383,0.999567,0.000312942,0.0294095,0.0011942,0.0180983,0.550789,-1.02924,33.875,1,21509,8757582
right,44,3,0.999567,0.000312942,0.0294095,0.0011942,-0.191957,0.00660565,9.73339,0.49982,-0.543188,0.916837,-0.00191621,6.23353e-05,0.0973339,1,1.84944e-05,1.72578e-05,3.15191e-05,0.00369888,0.00345156,0.00630383,0.999567,0.000312942,0.0294095,0.0011942,0.0180983,0.550789,-1.02924,33.875,1,21509,8757582
right,44,4,0.99957,0.000369989,0.0292883,0.00122098,-0.0560336,-0.157352,9.83624,0.61776,-0.74555,1.022,-0.000562777,-0.0015821,0.0983622,1,4.34536e-05,-1.28244e-05,2.60749e-05,0.00869073,-0.00256488,0.00521498,0.99957,0.000369989,0.0292883,0.00122098,0.0199857,0.5508,-1.03076,33.875,1,21510,8757682
left,62,1,0.99957,0.000369989,0.0292883,0.00122098,-0.0560336,-0.157352,9.83624,0.61776,-0.74555,1.022,-0.000562777,-0.0015821,0.0983622,1,4.34536e-05,-1.28244e-05,2.60749e-05,0.00869073,-0.00256488,0.00521498,0.99957,0.000369989,0.0292883,0.00122098,0.0199857,0.5508,-1.03076,33.875,1,21510,8757682
left,62,2,0.99957,0.000369989,0.0292883,0.00122098,-0.0560336,-0.157352,9.83624,0.61776,-0.74555,1.022,-0.000562777,-0.0015821,0.0983622,1,4.34536e-05,-1.28244e-05,2.60749e-05,0.00869073,-0.00256488,0.00521498,0.99957,0.000369989,0.0292883,0.00122098,0.0199857,0.5508,-1.03076,33.875,1,21510,8757682
left,62,3,0.999574,0.000430774,0.0291584,0.00125779,-0.0635256,-0.060103,9.84696,0.58553,-0.630078,0.964684,-0.000639032,-0.000610629,0.0984695,1,4.85033e-05,-1.94014e-05,3.71951e-05,0.00970066,-0.00388028,0.00743901,0.999574,0.000430774,0.0291584,0.00125779,0.0210007,0.548344,-1.03032,33.875,1,21511,8757782
left,62,4,0.999574,0.000430774,0.0291584,0.00125779,-0.0635256,-0.060103,9.84696,0.58553,-0.630078,0.964684,-0.000639032,-0.000610629,0.0984695,1,4.85033e-05,-1.94014e-05,3.71951e-05,0.00970066,-0.00388028,0.00743901,0.999574,0.000430774,0.0291584,0.00125779,0.0210007,0.548344,-1.03032,33.875,1,21511,8757782
left,62,5,0.999574,0.000430774,0.0291584,0.00125779,-0.0635256,-0.060103,9.84696,0.58553,-0.630078,0.964684,-0.000639032,-0.000610629,0.0984695,1,4.85033e-05,-1.94014e-05,3.71951e-05,0.00970066,-0.00388028,0.00743901,0.999574,0.000430774,0.0291584,0.00125779,0.0210007,0.548344,-1.03032,33.875,1,21511,8757782
left,62,6,0.999578,0.000479907,0.0290329,0.00128227,0.0622722,0.222892,10.0154,0.713439,-0.336208,1.06857,0.000619978,0.00222134,0.100155,1,3.80114e-05,-1.31544e-05,2.44296e-05,0.00760227,-0.00263088,0.00488593,0.999578,0.000479907,0.0290329,0.00128227,0.0201528,0.545859,-1.02734,33.875,1,21512,8757882
right,45,1,0.999578,0.000479907,0.0290329,0.00128227,0.0622722,0.222892,10.0154,0.713439,-0.336208,1.06857,0.000619978,0.00222134,0.100155,1,3.80114e-05,-1.31544e-05,2.44296e-05,0.00760227,-0.00263088,0.00488593,0.999578,0.000479907,0.0290329,0.00128227,0.0201528,0.545859,-1.02734,33.875,1,21512,8757882
right,45,2,0.999578,0.000479907,0.0290329,0.00128227,0.0622722,0.222892,10.0154,0.713439,-0.336208,1.06857,0.000619978,0.00222134,0.100155,1,3.80114e-05,-1.31544e-05,2.44296e-05,0.00760227,-0.00263088,0.00488593,0.999578,0.000479907,0.0290329,0.00128227,0.0201528,0.545859,-1.02734,33.875,1,21512,8757882
right,45,3,0.999579,0.000514214,0.0289667,0.00129214,0.169216,0.120759,10.2347,0.964402,-0.403189,1.48519,0.00170219,0.00120307,0.102347,1,2.22417e-05,4.91107e-05,9.01273e-06,0.00444834,0.00982213,0.00180254,0.999579,0.000514214,0.0289667,0.00129214,0.0192973,0.545307,-1.02331,33.875,1,21513,8757982
right,45,4,0.999579,0.000514214,0.0289667,0.00129214,0.169216,0.120759,10.2347,0.964402,-0.403189,1.48519,0.00170219,0.00120307,0.102347,1,2.22417e-05,4.91107e-05,9.01273e-06,0.00444834,0.00982213,0.00180254,0.999579,0.000514214,0.0289667,0.00129214,0.0192973,0.545307,-1.02331,33.875,1,21513,8757982
right,45,5,0.999579,0.000514214,0.0289667,0.00129214,0.169216,0.120759,10.2347,0.964402,-0.403189,1.48519,0.00170219,0.00120307,0.102347,1,2.22417e-05,4.91107e-05,9.01273e-06,0.00444834,0.00982213,0.00180254,0.999579,0.000514214,0.0289667,0.00129214,0.0192973,0.545307,-1.02331,33.875,1,21513,8757982
left,63,1,0.999581,0.000550599,0.0289064,0.00129275,-0.225512,0.0192717,10.0346,0.474449,-0.542832,1.36414,-0.00224334,0.000187897,0.100346,1,2.40219e-05,5.87294e-05,-1.94681e-07,0.00480439,0.0117459,-3.89361e-05,0.999581,0.000550599,0.0289064,0.00129275,0.0198282,0.546713,-1.02025,33.875,1,21514,8758082
left,63,2,0.999581,0.000550599,0.0289064,0.00129275,-0.225512,0.0192717,10.0346,0.474449,-0.542832,1.36414,-0.00224334,0.000187897,0.100346,1,2.40219e-05,5.87294e-05,-1.94681e-07,0.00480439,0.0117459,-3.89361e-05,0.999581,0.000550599,0.0289064,0.00129275,0.0198282,0.546713,-1.02025,33.875,1,21514,8758082
left,63,3,0.999581,0.000550599,0.0289064,0.00129275,-0.225512,0.0192717,10.0346,0.474449,-0.542832,1.36414,-0.00224334,0.000187897,0.100346,1,2.40219e-05,5.87294e-05,-1.94681e-07,0.00480439,0.0117459,-3.89361e-05,0.999581,0.000550599,0.0289064,0.00129275,0.0198282,0.546713,-1.02025,33.875,1,21514,8758082
left,63,4,0.999584,0.000612883,0.0288034,0.00130231,-0.559513,-0.239068,9.57604,0.0209062,-0.857037,0.886778,-0.00559192,-0.00240027,0.0957603,1,4.95093e-05,1.65312e-05,9.80345e-06,0.00990186,0.00330623,0.00196069,0.999584,0.000612883,0.0288034,0.00130231,0.020232,0.549174,-1.02171,33.875,1,21515,8758182
right,46,1,0.999584,0.000612883,0.0288034,0.00130231,-0.559513,-0.239068,9.57604,0.0209062,-0.857037,0.886778,-0.00559192,-0.00240027,0.0957603,1,4.95093e-05,1.65312e-05,9.80345e-06,0.00990186,0.00330623,0.00196069,0.999584,0.000612883,0.0288034,0.00130231,0.020232,0.549174,-1.02171,33.875,1,21515,8758182
right,46,2,0.999584,0.000612883,0.0288034,0.00130231,-0.559513,-0.239068,9.57604,0.0209062,-0.857037,0.886778,-0.00559192,-0.00240027,0.0957603,1,4.95093e-05,1.65312e-05,9.80345e-06,0.00990186,0.00330623,0.00196069,0.999584,0.000612883,0.0288034,0.00130231,0.020232,0.549174,-1.02171,33.875,1,21515,8758182
right,46,3,0.999588,0.000683895,0.02868,0.00132514,-0.0730339,-0.0433992,9.74472,0.602457,-0.657916,0.85602,-0.000731517,-0.000445707,0.0974471,1,5.99322e-05,-6.14981e-06,2.35235e-05,0.0119864,-0.00122996,0.0047047,0.999588,0.000683895,0.02868,0.00132514,0.0211364,0.548245,-1.02477,33.875,1,21516,8758282
right,46,4,0.999588,0.000683895,0.02868,0.00132514,-0.0730339,-0.0433992,9.74472,0.602457,-0.657916,0.85602,-0.000731517,-0.000445707,0.0974471,1,5.99322e-05,-6.14981e-06,2.35235e-05,0.0119864,-0.00122996,0.0047047,0.999588,0.000683895,0.02868,0.00132514,0.0211364,0.548245,-1.02477,33.875,1,21516,8758282
right,46,5,0.999588,0.000683895,0.02868,0.00132514,-0.0730339,-0.0433992,9.74472,0.602457,-0.657916,0.85602,-0.000731517,-0.000445707,0.0974471,1,5.99322e-05,-6.14981e-06,2.35235e-05,0.0119864,-0.00122996,0.0047047,0.999588,0.000683895,0.02868,0.00132514,0.0211364,0.548245,-1.02477,33.875,1,21516,8758282
right,46,6,0.99959,0.000729287,0.028589,0.00134743,0.163023,-0.228636,9.89793,0.92742,-0.769313,0.994655,0.00163587,-0.00229318,0.0989791,1,3.48331e-05,2.7962e-05,2.26483e-05,0.00696661,0.00559239,0.00452966,0.99959,0.000729287,0.028589,0.00134743,0.0192195,0.546328,-1.02581,33.875,1,21517,8758382
left,64,1,0.99959,0.000729287,0.028589,0.00134743,0.163023,-0.228636,9.89793,0.92742,-0.769313,0.994655,0.00163587,-0.00229318,0.0989791,1,3.48331e-05,2.7962e-05,2.26483e-05,0.00696661,0.00559239,0.00452966,0.99959,0.000729287,0.028589,0.00134743,0.0192195,0.546328,-1.02581,33.875,1,21517,8758382
left,64,2,0.99959,0.000729287,0.028589,0.00134743,0.163023,-0.228636,9.89793,0.92742,-0.769313,0.994655,0.00163587,-0.00229318,0.0989791,1,3.48331e-05,2.7962e-05,2.26483e-05,0.00696661,0.00559239,0.00452966,0.99959,0.000729287,0.028589,0.00134743,0.0192195,0.546328,-1.02581,33.875,1,21517,8758382
left,64,3,0.999593,0.000780546,0.0284908,0.001374,-0.166597,0.204091,9.58158,0.440204,-0.337818,0.786031,-0.00166149,0.00203263,0.095816,1,4.27363e-05,2.39061e-05,2.726e-05,0.00854726,0.00478121,0.005452,0.999593,0.000780546,0.0284908,0.001374,0.0178786,0.545301,-1.02229,33.875,1,21518,8758482
left,64,4,0.999593,0.000780546,0.0284908,0.001374,-0.166597,0.204091,9.58158,0.440204,-0.337818,0.786031,-0.00166149,0.00203263,0.095816,1,4.27363e-05,2.39061e-05,2.726e-05,0.00854726,0.00478121,0.005452,0.999593,0.000780546,0.0284908,0.001374,0.0178786,0.545301,-1.02229,33.875,1,21518,8758482
left,64,5,0.999593,0.000780546,0.0284908,0.001374,-0.166597,0.204091,9.58158,0.440204,-0.337818,0.786031,-0.00166149,0.00203263,0.095816,1,4.27363e-05,2.39061e-05,2.726e-05,0.00854726,0.00478121,0.005452,0.999593,0.000780546,0.0284908,0.001374,0.0178786,0.545301,-1.02229,33.875,1,21518,8758482
right,47,1,0.999596,0.00083934,0.0283627,0.00142584,-0.449312,-0.141884,9.52354,0.131179,-0.723741,0.766514,-0.00449399,-0.00142857,0.0952352,1,4.85844e-05,-5.35648e-06,5.2699e-05,0.00971687,-0.0010713,0.0105398,0.999596,0.00083934,0.0283627,0.00142584,0.0189524,0.546658,-1.01671,33.875,1,21519,8758582
right,47,2,0.999596,0.00083934,0.0283627,0.00142584,-0.449312,-0.141884,9.52354,0.131179,-0.723741,0.766514,-0.00449399,-0.00142857,0.0952352,1,4.85844e-05,-5.35648e-06,5.2699e-05,0.00971687,-0.0010713,0.0105398,0.999596,0.00083934,0.0283627,0.00142584,0.0189524,0.546658,-1.01671,33.875,1,21519,8758582
right,47,3,0.999596,0.00083934,0.0283627,0.00142584,-0.449312,-0.141884,9.52354,0.131179,-0.723741,0.766514,-0.00449399,-0.00142857,0.0952352,1,4.85844e-05,-5.35648e-06,5.2699e-05,0.00971687,-0.0010713,0.0105398,0.999596,0.00083934,0.0283627,0.00142584,0.0189524,0.546658,-1.01671,33.875,1,21519,8758582
right,47,4,0.999599,0.000917696,0.0282483,0.0014492,0.069682,-0.0165454,10.1697,0.746554,-0.517182,1.32645,0.000698209,-0.000179645,0.101697,1,6.99424e-05,6.78448e-06,2.50921e-05,0.0139885,0.0013569,0.00501843,0.999599,0.000917696,0.0282483,0.0014492,0.0208901,0.549523,-1.01413,33.875,1,21520,8758682
right,47,5,0.999599,0.000917696,0.0282483,0.0014492,0.069682,-0.0165454,10.1697,0.746554,-0.517182,1.32645,0.000698209,-0.000179645,0.101697,1,6.99424e-05,6.78448e-06,2.50921e-05,0.0139885,0.0013569,0.00501843,0.999599,0.000917696,0.0282483,0.0014492,0.0208901,0.549523,-1.01413,33.875,1,21520,8758682
right,47,6,0.999599,0.000917696,0.0282483,0.0014492,0.069682,-0.0165454,10.1697,0.746554,-0.517182,1.32645,0.000698209,-0.000179645,0.101697,1,6.99424e-05,6.78448e-06,2.50921e-05,0.0139885,0.0013569,0.00501843,0.999599,0.000917696,0.0282483,0.0014492,0.0208901,0.549523,-1.01413,33.875,1,21520,8758682
left,65,1,0.999602,0.00104021,0.028163,0.00146669,-0.106845,-0.0877402,9.83819,0.664086,-0.670096,1.04891,-0.00106084,-0.000900053,0.0983818,1,0.000114891,3.84621e-05,2.09089e-05,0.0229783,0.00769242,0.00418179,0.999602,0.00104021,0.028163,0.00146669,0.0227367,0.550528,-1.01664,33.875,1,21521,8758782
left,65,2,0.999602,0.00104021,0.028163,0.00146669,-0.106845,-0.0877402,9.83819,0.664086,-0.670096,1.04891,-0.00106084,-0.000900053,0.0983818,1,0.000114891,3.84621e-05,2.09089e-05,0.0229783,0.00769242,0.00418179,0.999602,0.00104021,0.028163,0.00146669,0.0227367,0.550528,-1.01664,33.875,1,21521,8758782
left,65,3,0.999602,0.00104021,0.028163,0.00146669,-0.106845,-0.0877402,9.83819,0.664086,-0.670096,1.04891,-0.00106084,-0.000900053,0.0983818,1,0.000114891,3.84621e-05,2.09089e-05,0.0229783,0.00769242,0.00418179,0.999602,0.00104021,0.028163,0.00146669,0.0227367,0.550528,-1.01664,33.875,1,21521,8758782
left,65,4,0.999605,0.00111203,0.0280548,0.00149952,-0.0106748,-0.0599967,9.93479,0.656561,-0.592947,1.13736,-0.000103423,-0.000612764,0.0993478,1,6.43689e-05,1.65216e-05,3.47485e-05,0.0128738,0.00330433,0.00694971,0.999605,0.00111203,0.0280548,0.00149952,0.0227405,0.549561,-1.01717,33.875,1,21522,8758882
right,48,1,0.999605,0.00111203,0.0280548,0.00149952,-0.0106748,-0.0599967,9.93479,0.656561,-0.592947,1.13736,-0.000103423,-0.000612764,0.0993478,1,6.43689e-05,1.65216e-05,3.47485e-05,0.0128738,0.00330433,0.00694971,0.999605,0.00111203,0.0280548,0.00149952,0.0227405,0.549561,-1.01717,33.875,1,21522,8758882
right,48,2,0.999605,0.00111203,0.0280548,0.00149952,-0.0106748,-0.0599967,9.93479,0.656561,-0.592947,1.13736,-0.000103423,-0.000612764,0.0993478,1,6.43689e-05,1.65216e-05,3.47485e-05,0.0128738,0.00330433,0.00694971,0.999605,0.00111203,0.0280548,0.00149952,0.0227405,0.549561,-1.01717,33.875,1,21522,8758882
right,48,3,0.999608,0.00124705,0.0279482,0.00153327,-0.432961,-0.355538,9.51383,0.205307,-1.00253,0.743907,-0.00432558,-0.00358016,0.0951376,1,0.000128551,1.97476e-05,3.79003e-05,0.0257102,0.00394952,0.00758006,0.999608,0.00124705,0.0279482,0.00153327,0.0208365,0.54908,-1.01666,33.875,1,21523,8758982
right,48,4,0.999608,0.00124705,0.0279482,0.00153327,-0.432961,-0.355538,9.51383,0.205307,-1.00253,0.743907,-0.00432558,-0.00358016,0.0951376,1,0.000128551,1.97476e-05,3.79003e-05,0.0257102,0.00394952,0.00758006,0.999608,0.00124705,0.0279482,0.00153327,0.0208365,0.54908,-1.01666,33.875,1,21523,8758982
right,48,5,0.999608,0.00124705,0.0279482,0.00153327,-0.432961,-0.355538,9.51383,0.205307,-1.00253,0.743907,-0.00432558,-0.00358016,0.0951376,1,0.000128551,1.97476e-05,3.79003e-05,0.0257102,0.00394952,0.00758006,0.999608,0.00124705,0.0279482,0.00153327,0.0208365,0.54908,-1.01666,33.875,1,21523,8758982
right,48,6,0.999612,0.00134071,0.0277886,0.00157045,-0.121313,-0.0827454,9.70976,0.479298,-0.647008,0.92197,-0.0012198,-0.000844996,0.0970974,1,8.98279e-05,-3.47169e-05,4.05246e-05,0.0179656,-0.00694337,0.00810491,0.999612,0.00134071,0.0277886,0.00157045,0.0185448,0.545162,-1.01472,33.875,1,21524,8759082
left,66,1,0.999612,0.00134071,0.0277886,0.00157045,-0.121313,-0.0827454,9.70976,0.479298,-0.647008,0.92197,-0.0012198,-0.000844996,0.0970974,1,8.98279e-05,-3.47169e-05,4.05246e-05,0.0179656,-0.00694337,0.00810491,0.999612,0.00134071,0.0277886,0.00157045,0.0185448,0.545162,-1.01472,33.875,1,21524,8759082
left,66,2,0.999612,0.00134071,0.0277886,0.00157045,-0.121313,-0.0827454,9.70976,0.479298,-0.647008,0.92197,-0.0012198,-0.000844996,0.0970974,1,8.98279e-05,-3.47169e-05,4.05246e-05,0.0179656,-0.00694337,0.00810491,0.999612,0.00134071,0.0277886,0.00157045,0.0185448,0.545162,-1.01472,33.875,1,21524,8759082
left,66,3,0.999615,0.00148763,0.0276496,0.00161015,0.0357022,0.464802,9.86976,0.603988,-0.262244,1.01767,0.000353949,0.00461968,0.0986989,1,0.000143722,-1.34789e-05,4.45038e-05,0.0287443,-0.00269577,0.00890077,0.999615,0.00148763,0.0276496,0.00161015,0.0176689,0.545107,-1.01118,33.875,1,21525,8759182
right,49,1,0.999615,0.00148763,0.0276496,0.00161015,0.0357022,0.464802,9.86976,0.603988,-0.262244,1.01767,0.000353949,0.00461968,0.0986989,1,0.000143722,-1.34789e-05,4.45038e-05,0.0287443,-0.00269577,0.00890077,0.999615,0.00148763,0.0276496,0.00161015,0.0176689,0.545107,-1.01118,33.875,1,21525,8759182
right,49,2,0.999615,0.00148763,0.0276496,0.00161015,0.0357022,0.464802,9.86976,0.603988,-0.262244,1.01767,0.000353949,0.00461968,0.0986989,1,0.000143722,-1.34789e-05,4.45038e-05,0.0287443,-0.00269577,0.00890077,0.999615,0.00148763,0.0276496,0.00161015,0.0176689,0.545107,-1.01118,33.875,1,21525,8759182
right,49,3,0.999618,0.00147527,0.027546,0.00163237,-0.231005,0.623307,9.72303,0.412892,0.0914435,0.911876,-0.00230565,0.00623645,0.0972302,1,-1.79333e-05,2.40037e-05,2.20727e-05,-0.00358665,0.00480074,0.00441454,0.999618,0.00147527,0.027546,0.00163237,0.0200878,0.547969,-1.0086,33.875,1,21526,8759282
right,49,4,0.999618,0.00147527,0.027546,0.00163237,-0.231005,0.623307,9.72303,0.412892,0.0914435,0.911876,-0.00230565,0.00623645,0.0972302,1,-1.79333e-05,2.40037e-05,2.20727e-05,-0.00358665,0.00480074,0.00441454,0.999618,0.00147527,0.027546,0.00163237,0.0200878,0.547969,-1.0086,33.875,1,21526,8759282
right,49,5,0.999618,0.00147527,0.027546,0.00163237,-0.231005,0.623307,9.72303,0.412892,0.0914435,0.911876,-0.00230565,0.00623645,0.0972302,1,-1.79333e-05,2.40037e-05,2.20727e-05,-0.00358665,0.00480074,0.00441454,0.999618,0.00147527,0.027546,0.00163237,0.0200878,0.547969,-1.0086,33.875,1,21526,8759282
right,49,6,0.999622,0.00147891,0.0274201,0.0016609,-0.271898,0.123135,9.86486,0.425664,-0.460469,1.04589,-0.00271875,0.00123242,0.0986486,1,-6.20647e-06,1.51616e-06,2.78577e-05,-0.00124129,0.000303231,0.00557154,0.999622,0.00147891,0.0274201,0.0016609,0.0214504,0.552834,-1.0085,33.875,1,21527,8759382
left,67,1,0.999622,0.00147891,0.0274201,0.0016609,-0.271898,0.123135,9.86486,0.425664,-0.460469,1.04589,-0.00271875,0.00123242,0.0986486,1,-6.20647e-06,1.51616e-06,2.78577e-05,-0.00124129,0.000303231,0.00557154,0.999622,0.00147891,0.0274201,0.0016609,0.0214504,0.552834,-1.0085,33.875,1,21527,8759382
left,67,2,0.999622,0.00147891,0.0274201,0.0016609,-0.271898,0.123135,9.86486,0.425664,-0.460469,1.04589,-0.00271875,0.00123242,0.0986486,1,-6.20647e-06,1.51616e-06,2.78577e-05,-0.00124129,0.000303231,0.00557154,0.999622,0.00147891,0.0274201,0.0016609,0.0214504,0.552834,-1.0085,33.875,1,21527,8759382
left,67,3,0.999625,0.0015261,0.0272941,0.00167747,-0.200163,-0.489829,10.1631,0.560121,-1.03155,1.42032,-0.00200129,-0.00490588,0.10163,1,3.69934e-05,8.52933e-07,1.66684e-05,0.00739867,0.000170587,0.00333368,0.999625,0.0015261,0.0272941,0.00167747,0.0209451,0.554302,-1.00847,33.875,1,21528,8759482
left,67,4,0.999625,0.0015261,0.0272941,0.00167747,-0.200163,-0.489829,10.1631,0.560121,-1.03155,1.42032,-0.00200129,-0.00490588,0.10163,1,3.69934e-05,8.52933e-07,1.66684e-05,0.00739867,0.000170587,0.00333368,0.999625,0.0015261,0.0272941,0.00167747,0.0209451,0.554302,-1.00847,33.875,1,21528,8759482
left,67,5,0.999625,0.0015261,0.0272941,0.00167747,-0.200163,-0.489829,10.1631,0.560121,-1.03155,1.42032,-0.00200129,-0.00490588,0.10163,1,3.69934e-05,8.52933e-07,1.66684e-05,0.00739867,0.000170587,0.00333368,0.999625,0.0015261,0.0272941,0.00167747,0.0209451,0.554302,-1.00847,33.875,1,21528,8759482
right,50,1,0.999628,0.00162058,0.0271596,0.00169493,-0.373409,-0.0640553,9.82323,0.301803,-0.671905,1.06522,-0.00373553,-0.000658057,0.0982321,1,8.83114e-05,-7.49124e-06,2.0589e-05,0.0176623,-0.00149825,0.00411781,0.999628,0.00162058,0.0271596,0.00169493,0.0200185,0.549947,-1.01008,33.875,1,21529,8759582
