source,frame_id,imu_idx,quat_w,quat_x,quat_y,quat_z,accel_x,accel_y,accel_z,free_accel_x,free_accel_y,free_accel_z,delta_v_x,delta_v_y,delta_v_z,delta_q_w,delta_q_x,delta_q_y,delta_q_z,rate_x,rate_y,rate_z,quat_w,quat_x,quat_y,quat_z,mag_x,mag_y,mag_z,temperature,status_byte,packet_counter,time_fine
left,4,1,0.998906,0.0339721,0.0313293,0.0071404,-0.723255,-0.0711512,9.78384,0.257855,-0.947862,0.825418,-0.00723413,-0.000721051,0.0978382,1,4.81606e-05,-8.13404e-06,7.97208e-06,0.00963212,-0.00162681,0.00159442,0.998906,0.0339721,0.0313293,0.0071404,-0.245022,0.0966705,-0.910339,36.125,3,40977,43485974
left,18,1,0.998906,0.0339721,0.0313293,0.0071404,-0.559037,-0.0583416,7.35211,0.257855,-0.947862,0.825418,-0.00559276,-0.000590224,0.0735209,1,4.49734e-05,-1.64268e-05,1.74476e-05,0.00899469,-0.00328537,0.00348951,0.998906,0.0339721,0.0313293,0.0071404,-0.245471,0.0961687,-0.909338,36.125,1,44109,43800652
left,18,2,0.998906,0.0339721,0.0313293,0.0071404,-0.559037,-0.0583416,7.35211,0.257855,-0.947862,0.825418,-0.00559276,-0.000590224,0.0735209,1,4.49734e-05,-1.64268e-05,1.74476e-05,0.00899469,-0.00328537,0.00348951,0.998906,0.0339721,0.0313293,0.0071404,-0.245471,0.0961687,-0.909338,36.125,1,44109,43800652
left,18,3,0.998906,0.0339721,0.0313293,0.0071404,-0.559037,-0.0583416,7.35211,0.257855,-0.947862,0.825418,-0.00559276,-0.000590224,0.0735209,1,4.49734e-05,-1.64268e-05,1.74476e-05,0.00899469,-0.00328537,0.00348951,0.998906,0.0339721,0.0313293,0.0071404,-0.245471,0.0961687,-0.909338,36.125,1,44109,43800652
left,18,4,0.999272,-0.00395158,0.0379382,-0.00014796,-0.737414,-0.0702367,9.78328,0.386667,-0.0750974,0.861759,-0.00737697,-0.000711781,0.0978325,1,4.76837e-05,-1.45326e-05,5.6957e-06,0.00953673,-0.00290652,0.00113914,0.999272,-0.00395158,0.0379382,-0.00014796,-0.246975,0.097671,-0.910813,36.125,1,44110,43800752
left,18,5,0.999272,-0.00395158,0.0379382,-0.00014796,-0.737414,-0.0702367,9.78328,0.386667,-0.0750974,0.861759,-0.00737697,-0.000711781,0.0978325,1,4.76837e-05,-1.45326e-05,5.6957e-06,0.00953673,-0.00290652,0.00113914,0.999272,-0.00395158,0.0379382,-0.00014796,-0.246975,0.097671,-0.910813,36.125,1,44110,43800752
left,18,6,0.999272,-0.00395158,0.0379382,-0.00014796,-0.737414,-0.0702367,9.78328,0.386667,-0.0750974,0.861759,-0.00737697,-0.000711781,0.0978325,1,4.76837e-05,-1.45326e-05,5.6957e-06,0.00953673,-0.00290652,0.00113914,0.999272,-0.00395158,0.0379382,-0.00014796,-0.246975,0.097671,-0.910813,36.125,1,44110,43800752
left,18,7,0.999273,-0.00390797,0.0379226,-0.000142459,-0.716702,-0.0742546,9.78683,0.404457,-0.0778447,0.863678,-0.00716917,-0.000752308,0.097868,1,4.97121e-05,-1.10327e-05,2.1866e-06,0.00994242,-0.00220654,0.00043732,0.999273,-0.00390797,0.0379226,-0.000142459,-0.245976,0.0961907,-0.910346,36.125,1,44111,43800852
left,18,8,0.999273,-0.00390797,0.0379226,-0.000142459,-0.716702,-0.0742546,9.78683,0.404457,-0.0778447,0.863678,-0.00716917,-0.000752308,0.097868,1,4.97121e-05,-1.10327e-05,2.1866e-06,0.00994242,-0.00220654,0.00043732,0.999273,-0.00390797,0.0379226,-0.000142459,-0.245976,0.0961907,-0.910346,36.125,1,44111,43800852
left,18,9,0.999273,-0.00390797,0.0379226,-0.000142459,-0.716702,-0.0742546,9.78683,0.404457,-0.0778447,0.863678,-0.00716917,-0.000752308,0.097868,1,4.97121e-05,-1.10327e-05,2.1866e-06,0.00994242,-0.00220654,0.00043732,0.999273,-0.00390797,0.0379226,-0.000142459,-0.245976,0.0961907,-0.910346,36.125,1,44111,43800852
left,18,10,0.999274,-0.00386834,0.0379129,-0.000141107,-0.724574,-0.0727045,9.78451,0.403441,-0.0824671,0.863411,-0.00724768,-0.000734825,0.0978449,1,3.95662e-05,-9.95783e-06,2.57034e-06,0.00791325,-0.00199157,0.000514068,0.999274,-0.00386834,0.0379129,-0.000141107,-0.246421,0.0947224,-0.909871,36.125,1,44112,43800952
left,18,11,0.999274,-0.00386834,0.0379129,-0.000141107,-0.724574,-0.0727045,9.78451,0.403441,-0.0824671,0.863411,-0.00724768,-0.000734825,0.0978449,1,3.95662e-05,-9.95783e-06,2.57034e-06,0.00791325,-0.00199157,0.000514068,0.999274,-0.00386834,0.0379129,-0.000141107,-0.246421,0.0947224,-0.909871,36.125,1,44112,43800952
left,18,12,0.999274,-0.00386834,0.0379129,-0.000141107,-0.724574,-0.0727045,9.78451,0.403441,-0.0824671,0.863411,-0.00724768,-0.000734825,0.0978449,1,3.95662e-05,-9.95783e-06,2.57034e-06,0.00791325,-0.00199157,0.000514068,0.999274,-0.00386834,0.0379129,-0.000141107,-0.246421,0.0947224,-0.909871,36.125,1,44112,43800952
left,18,13,0.999274,-0.00382309,0.0379168,-0.000138675,-0.736996,-0.0664942,9.7843,0.386625,-0.0742935,0.862214,-0.00736917,-0.000673719,0.097843,1,4.44837e-05,4.01041e-06,4.93592e-06,0.00889674,0.000802082,0.000987184,0.999274,-0.00382309,0.0379168,-0.000138675,-0.24691,0.0952142,-0.909858,36.125,1,44113,43801052
left,18,14,0.999274,-0.00382309,0.0379168,-0.000138675,-0.736996,-0.0664942,9.7843,0.386625,-0.0742935,0.862214,-0.00736917,-0.000673719,0.097843,1,4.44837e-05,4.01041e-06,4.93592e-06,0.00889674,0.000802082,0.000987184,0.999274,-0.00382309,0.0379168,-0.000138675,-0.24691,0.0952142,-0.909858,36.125,1,44113,43801052
left,18,15,0.999274,-0.00382309,0.0379168,-0.000138675,-0.736996,-0.0664942,9.7843,0.386625,-0.0742935,0.862214,-0.00736917,-0.000673719,0.097843,1,4.44837e-05,4.01041e-06,4.93592e-06,0.00889674,0.000802082,0.000987184,0.999274,-0.00382309,0.0379168,-0.000138675,-0.24691,0.0952142,-0.909858,36.125,1,44113,43801052
right,6,1,0.999274,-0.00376037,0.0379071,-0.000127681,-0.731099,-0.0789391,9.77908,0.392777,-0.0857568,0.858621,-0.00731275,-0.000801669,0.0977905,1,6.17354e-05,-9.12502e-06,1.39758e-05,0.0123471,-0.001825,0.00279516,0.999274,-0.00376037,0.0379071,-0.000127681,-0.247868,0.0957009,-0.909338,36.125,1,44114,43801152
left,19,1,0.999274,-0.00376037,0.0379071,-0.000127681,-0.731099,-0.0789391,9.77908,0.392777,-0.0857568,0.858621,-0.00731275,-0.000801669,0.0977905,1,6.17354e-05,-9.12502e-06,1.39758e-05,0.0123471,-0.001825,0.00279516,0.999274,-0.00376037,0.0379071,-0.000127681,-0.247868,0.0957009,-0.909338,36.125,1,44114,43801152
left,19,2,0.999274,-0.00376037,0.0379071,-0.000127681,-0.731099,-0.0789391,9.77908,0.392777,-0.0857568,0.858621,-0.00731275,-0.000801669,0.0977905,1,6.17354e-05,-9.12502e-06,1.39758e-05,0.0123471,-0.001825,0.00279516,0.999274,-0.00376037,0.0379071,-0.000127681,-0.247868,0.0957009,-0.909338,36.125,1,44114,43801152
left,19,3,0.999275,-0.00371311,0.0379026,-0.000125016,-0.733818,-0.0754046,9.78014,0.391813,-0.0892867,0.860466,-0.00733906,-0.000763246,0.0978013,1,4.66649e-05,-4.56541e-06,4.86705e-06,0.00933297,-0.000913081,0.000973411,0.999275,-0.00371311,0.0379026,-0.000125016,-0.247383,0.0947304,-0.909867,36.125,1,44115,43801252
left,19,4,0.999275,-0.00371311,0.0379026,-0.000125016,-0.733818,-0.0754046,9.78014,0.391813,-0.0892867,0.860466,-0.00733906,-0.000763246,0.0978013,1,4.66649e-05,-4.56541e-06,4.86705e-06,0.00933297,-0.000913081,0.000973411,0.999275,-0.00371311,0.0379026,-0.000125016,-0.247383,0.0947304,-0.909867,36.125,1,44115,43801252
left,19,5,0.999275,-0.00371311,0.0379026,-0.000125016,-0.733818,-0.0754046,9.78014,0.391813,-0.0892867,0.860466,-0.00733906,-0.000763246,0.0978013,1,4.66649e-05,-4.56541e-06,4.86705e-06,0.00933297,-0.000913081,0.000973411,0.999275,-0.00371311,0.0379026,-0.000125016,-0.247383,0.0947304,-0.909867,36.125,1,44115,43801252
left,19,6,0.999275,-0.0036737,0.0379042,-0.000121684,-0.728365,-0.0782384,9.79399,0.399863,-0.0888876,0.872854,-0.00728318,-0.000790099,0.0979398,1,3.90187e-05,2.3433e-06,4.94168e-06,0.00780373,0.00046866,0.000988337,0.999275,-0.0036737,0.0379042,-0.000121684,-0.246429,0.0952102,-0.90986,36.125,1,44116,43801352
left,19,7,0.999275,-0.0036737,0.0379042,-0.000121684,-0.728365,-0.0782384,9.79399,0.399863,-0.0888876,0.872854,-0.00728318,-0.000790099,0.0979398,1,3.90187e-05,2.3433e-06,4.94168e-06,0.00780373,0.00046866,0.000988337,0.999275,-0.0036737,0.0379042,-0.000121684,-0.246429,0.0952102,-0.90986,36.125,1,44116,43801352
left,19,8,0.999275,-0.0036737,0.0379042,-0.000121684,-0.728365,-0.0782384,9.79399,0.399863,-0.0888876,0.872854,-0.00728318,-0.000790099,0.0979398,1,3.90187e-05,2.3433e-06,4.94168e-06,0.00780373,0.00046866,0.000988337,0.999275,-0.0036737,0.0379042,-0.000121684,-0.246429,0.0952102,-0.90986,36.125,1,44116,43801352
left,19,9,0.999275,-0.003626,0.03789,-0.000111543,-0.732058,-0.0709802,9.77848,0.396325,-0.0819019,0.855689,-0.00732337,-0.000719241,0.0977845,1,4.73745e-05,-1.43109e-05,1.19281e-05,0.00947491,-0.00286217,0.00238563,0.999275,-0.003626,0.03789,-0.000111543,-0.245899,0.0951701,-0.907843,36.125,1,44117,43801452
left,19,10,0.999275,-0.003626,0.03789,-0.000111543,-0.732058,-0.0709802,9.77848,0.396325,-0.0819019,0.855689,-0.00732337,-0.000719241,0.0977845,1,4.73745e-05,-1.43109e-05,1.19281e-05,0.00947491,-0.00286217,0.00238563,0.999275,-0.003626,0.03789,-0.000111543,-0.245899,0.0951701,-0.907843,36.125,1,44117,43801452
left,19,11,0.999275,-0.003626,0.03789,-0.000111543,-0.732058,-0.0709802,9.77848,0.396325,-0.0819019,0.855689,-0.00732337,-0.000719241,0.0977845,1,4.73745e-05,-1.43109e-05,1.19281e-05,0.00947491,-0.00286217,0.00238563,0.999275,-0.003626,0.03789,-0.000111543,-0.245899,0.0951701,-0.907843,36.125,1,44117,43801452
left,19,12,0.999276,-0.00357583,0.0378721,-0.000109485,-0.739835,-0.0688615,9.78669,0.382762,-0.0833909,0.86722,-0.00740185,-0.000698463,0.0978666,1,5.0027e-05,-1.79015e-05,3.78697e-06,0.0100054,-0.00358029,0.000757393,0.999276,-0.00357583,0.0378721,-0.000109485,-0.246857,0.0956569,-0.907323,36.125,1,44118,43801552
left,19,13,0.999276,-0.00357583,0.0378721,-0.000109485,-0.739835,-0.0688615,9.78669,0.382762,-0.0833909,0.86722,-0.00740185,-0.000698463,0.0978666,1,5.0027e-05,-1.79015e-05,3.78697e-06,0.0100054,-0.00358029,0.000757393,0.999276,-0.00357583,0.0378721,-0.000109485,-0.246857,0.0956569,-0.907323,36.125,1,44118,43801552
left,19,14,0.999276,-0.00357583,0.0378721,-0.000109485,-0.739835,-0.0688615,9.78669,0.382762,-0.0833909,0.86722,-0.00740185,-0.000698463,0.0978666,1,5.0027e-05,-1.79015e-05,3.78697e-06,0.0100054,-0.00358029,0.000757393,0.999276,-0.00357583,0.0378721,-0.000109485,-0.246857,0.0956569,-0.907323,36.125,1,44118,43801552
right,7,1,0.999277,-0.00353196,0.0378621,-9.42475e-05,-0.734808,-0.0683114,9.78835,0.388013,-0.0828202,0.864216,-0.00735004,-0.000691984,0.0978833,1,4.41055e-05,-1.01499e-05,1.59815e-05,0.0088211,-0.00202997,0.0031963,0.999277,-0.00353196,0.0378621,-9.42475e-05,-0.247782,0.0941925,-0.906846,36.125,1,44119,43801652
left,20,1,0.999277,-0.00353196,0.0378621,-9.42475e-05,-0.734808,-0.0683114,9.78835,0.388013,-0.0828202,0.864216,-0.00735004,-0.000691984,0.0978833,1,4.41055e-05,-1.01499e-05,1.59815e-05,0.0088211,-0.00202997,0.0031963,0.999277,-0.00353196,0.0378621,-9.42475e-05,-0.247782,0.0941925,-0.906846,36.125,1,44119,43801652
left,20,2,0.999277,-0.00348619,0.0378585,-8.58129e-05,-0.737187,-0.0825947,9.78485,0.385423,-0.0983324,0.86263,-0.0073725,-0.000835008,0.0978484,1,4.5536e-05,-3.31211e-06,1.01385e-05,0.00910721,-0.000662422,0.00202771,0.999277,-0.00348619,0.0378585,-8.58129e-05,-0.247375,0.0942426,-0.909877,36.125,1,44120,43801752
left,20,3,0.999277,-0.00348619,0.0378585,-8.58129e-05,-0.737187,-0.0825947,9.78485,0.385423,-0.0983324,0.86263,-0.0073725,-0.000835008,0.0978484,1,4.5536e-05,-3.31211e-06,1.01385e-05,0.00910721,-0.000662422,0.00202771,0.999277,-0.00348619,0.0378585,-8.58129e-05,-0.247375,0.0942426,-0.909877,36.125,1,44120,43801752
left,20,4,0.999277,-0.00348619,0.0378585,-8.58129e-05,-0.737187,-0.0825947,9.78485,0.385423,-0.0983324,0.86263,-0.0073725,-0.000835008,0.0978484,1,4.5536e-05,-3.31211e-06,1.01385e-05,0.00910721,-0.000662422,0.00202771,0.999277,-0.00348619,0.0378585,-8.58129e-05,-0.247375,0.0942426,-0.909877,36.125,1,44120,43801752
left,20,5,0.999277,-0.00343872,0.0378619,-7.65951e-05,-0.728413,-0.0774305,9.78991,0.395746,-0.0911706,0.862376,-0.00728351,-0.000783682,0.0978991,1,4.70839e-05,3.10142e-06,1.08296e-05,0.00941679,0.000620284,0.00216591,0.999277,-0.00343872,0.0378619,-7.65951e-05,-0.247396,0.0932941,-0.911414,36.125,1,44121,43801852
left,20,6,0.999277,-0.00343872,0.0378619,-7.65951e-05,-0.728413,-0.0774305,9.78991,0.395746,-0.0911706,0.862376,-0.00728351,-0.000783682,0.0978991,1,4.70839e-05,3.10142e-06,1.08296e-05,0.00941679,0.000620284,0.00216591,0.999277,-0.00343872,0.0378619,-7.65951e-05,-0.247396,0.0932941,-0.911414,36.125,1,44121,43801852
left,20,7,0.999277,-0.00343872,0.0378619,-7.65951e-05,-0.728413,-0.0774305,9.78991,0.395746,-0.0911706,0.862376,-0.00728351,-0.000783682,0.0978991,1,4.70839e-05,3.10142e-06,1.08296e-05,0.00941679,0.000620284,0.00216591,0.999277,-0.00343872,0.0378619,-7.65951e-05,-0.247396,0.0932941,-0.911414,36.125,1,44121,43801852
left,20,8,0.999277,-0.00339414,0.0378675,-7.20316e-05,-0.739714,-0.0768401,9.77711,0.380199,-0.0968116,0.855939,-0.00739603,-0.000777148,0.0977711,1,4.42509e-05,5.60622e-06,6.34978e-06,0.00885018,0.00112124,0.00126996,0.999277,-0.00339414,0.0378675,-7.20316e-05,-0.247383,0.0947304,-0.909867,36.125,1,44122,43801952
left,20,9,0.999277,-0.00339414,0.0378675,-7.20316e-05,-0.739714,-0.0768401,9.77711,0.380199,-0.0968116,0.855939,-0.00739603,-0.000777148,0.0977711,1,4.42509e-05,5.60622e-06,6.34978e-06,0.00885018,0.00112124,0.00126996,0.999277,-0.00339414,0.0378675,-7.20316e-05,-0.247383,0.0947304,-0.909867,36.125,1,44122,43801952
left,20,10,0.999277,-0.00339414,0.0378675,-7.20316e-05,-0.739714,-0.0768401,9.77711,0.380199,-0.0968116,0.855939,-0.00739603,-0.000777148,0.0977711,1,4.42509e-05,5.60622e-06,6.34978e-06,0.00885018,0.00112124,0.00126996,0.999277,-0.00339414,0.0378675,-7.20316e-05,-0.247383,0.0947304,-0.909867,36.125,1,44122,43801952
left,20,11,0.999278,-0.00335182,0.0378566,-6.98063e-05,-0.72462,-0.0715746,9.78148,0.397067,-0.089433,0.860142,-0.00724827,-0.000724055,0.0978145,1,4.21722e-05,-1.05965e-05,4.01967e-06,0.00843443,-0.0021193,0.000803934,0.999278,-0.00335182,0.0378566,-6.98063e-05,-0.246429,0.0966555,-0.908818,36.125,1,44123,43802052
left,20,12,0.999278,-0.00335182,0.0378566,-6.98063e-05,-0.72462,-0.0715746,9.78148,0.397067,-0.089433,0.860142,-0.00724827,-0.000724055,0.0978145,1,4.21722e-05,-1.05965e-05,4.01967e-06,0.00843443,-0.0021193,0.000803934,0.999278,-0.00335182,0.0378566,-6.98063e-05,-0.246429,0.0966555,-0.908818,36.125,1,44123,43802052
left,20,13,0.999278,-0.00335182,0.0378566,-6.98063e-05,-0.72462,-0.0715746,9.78148,0.397067,-0.089433,0.860142,-0.00724827,-0.000724055,0.0978145,1,4.21722e-05,-1.05965e-05,4.01967e-06,0.00843443,-0.0021193,0.000803934,0.999278,-0.00335182,0.0378566,-6.98063e-05,-0.246429,0.0966555,-0.908818,36.125,1,44123,43802052
right,8,1,0.999278,-0.00331647,0.0378426,-7.13429e-05,-0.728923,-0.0740474,9.7842,0.392653,-0.0985752,0.859423,-0.00729196,-0.000747412,0.0978417,1,3.54815e-05,-1.39458e-05,-3.12988e-07,0.0070963,-0.00278915,-6.25976e-05,0.999278,-0.00331647,0.0378426,-7.13429e-05,-0.247395,0.0961847,-0.909329,36.125,1,44124,43802152
left,21,1,0.999278,-0.00331647,0.0378426,-7.13429e-05,-0.728923,-0.0740474,9.7842,0.392653,-0.0985752,0.859423,-0.00729196,-0.000747412,0.0978417,1,3.54815e-05,-1.39458e-05,-3.12988e-07,0.0070963,-0.00278915,-6.25976e-05,0.999278,-0.00331647,0.0378426,-7.13429e-05,-0.247395,0.0961847,-0.909329,36.125,1,44124,43802152
left,21,2,0.999278,-0.00331647,0.0378426,-7.13429e-05,-0.728923,-0.0740474,9.7842,0.392653,-0.0985752,0.859423,-0.00729196,-0.000747412,0.0978417,1,3.54815e-05,-1.39458e-05,-3.12988e-07,0.0070963,-0.00278915,-6.25976e-05,0.999278,-0.00331647,0.0378426,-7.13429e-05,-0.247395,0.0961847,-0.909329,36.125,1,44124,43802152
left,21,3,0.999278,-0.00326684,0.0378384,-5.95685e-05,-0.727961,-0.0859485,9.78408,0.394608,-0.107153,0.8593,-0.00728032,-0.000869326,0.0978407,1,4.92613e-05,-3.79063e-06,1.38116e-05,0.00985227,-0.000758126,0.00276232,0.999278,-0.00326684,0.0378384,-5.95685e-05,-0.24691,0.0966595,-0.908816,36.125,1,44125,43802252
left,21,4,0.999278,-0.00326684,0.0378384,-5.95685e-05,-0.727961,-0.0859485,9.78408,0.394608,-0.107153,0.8593,-0.00728032,-0.000869326,0.0978407,1,4.92613e-05,-3.79063e-06,1.38116e-05,0.00985227,-0.000758126,0.00276232,0.999278,-0.00326684,0.0378384,-5.95685e-05,-0.24691,0.0966595,-0.908816,36.125,1,44125,43802252
left,21,5,0.999278,-0.00326684,0.0378384,-5.95685e-05,-0.727961,-0.0859485,9.78408,0.394608,-0.107153,0.8593,-0.00728032,-0.000869326,0.0978407,1,4.92613e-05,-3.79063e-06,1.38116e-05,0.00985227,-0.000758126,0.00276232,0.999278,-0.00326684,0.0378384,-5.95685e-05,-0.24691,0.0966595,-0.908816,36.125,1,44125,43802252
left,21,6,0.999279,-0.00322046,0.0378308,-4.25048e-05,-0.732005,-0.0765798,9.7808,0.38977,-0.0989845,0.860426,-0.00732152,-0.000775041,0.0978078,1,4.58417e-05,-7.64024e-06,1.88534e-05,0.00916834,-0.00152805,0.00377069,0.999279,-0.00322046,0.0378308,-4.25048e-05,-0.246971,0.0981498,-0.910298,36.125,1,44126,43802352
left,21,7,0.999279,-0.00322046,0.0378308,-4.25048e-05,-0.732005,-0.0765798,9.7808,0.38977,-0.0989845,0.860426,-0.00732152,-0.000775041,0.0978078,1,4.58417e-05,-7.64024e-06,1.88534e-05,0.00916834,-0.00152805,0.00377069,0.999279,-0.00322046,0.0378308,-4.25048e-05,-0.246971,0.0981498,-0.910298,36.125,1,44126,43802352
left,21,8,0.999279,-0.00322046,0.0378308,-4.25048e-05,-0.732005,-0.0765798,9.7808,0.38977,-0.0989845,0.860426,-0.00732152,-0.000775041,0.0978078,1,4.58417e-05,-7.64024e-06,1.88534e-05,0.00916834,-0.00152805,0.00377069,0.999279,-0.00322046,0.0378308,-4.25048e-05,-0.246971,0.0981498,-0.910298,36.125,1,44126,43802352
left,21,9,0.999279,-0.00316945,0.0378295,-2.72687e-05,-0.728284,-0.0795058,9.78787,0.395815,-0.101809,0.865449,-0.007283,-0.00080516,0.0978786,1,5.03064e-05,-9.53812e-07,1.74229e-05,0.0100613,-0.000190762,0.00348459,0.999279,-0.00316945,0.0378295,-2.72687e-05,-0.246017,0.0971843,-0.911334,36.125,1,44127,43802452
left,21,10,0.999279,-0.00316945,0.0378295,-2.72687e-05,-0.728284,-0.0795058,9.78787,0.395815,-0.101809,0.865449,-0.007283,-0.00080516,0.0978786,1,5.03064e-05,-9.53812e-07,1.74229e-05,0.0100613,-0.000190762,0.00348459,0.999279,-0.00316945,0.0378295,-2.72687e-05,-0.246017,0.0971843,-0.911334,36.125,1,44127,43802452
left,21,11,0.999279,-0.00316945,0.0378295,-2.72687e-05,-0.728284,-0.0795058,9.78787,0.395815,-0.101809,0.865449,-0.007283,-0.00080516,0.0978786,1,5.03064e-05,-9.53812e-07,1.74229e-05,0.0100613,-0.000190762,0.00348459,0.999279,-0.00316945,0.0378295,-2.72687e-05,-0.246017,0.0971843,-0.911334,36.125,1,44127,43802452
left,21,12,0.99928,-0.00314308,0.0378127,-1.31752e-05,-0.726192,-0.0775592,9.77974,0.400817,-0.102061,0.859611,-0.00726515,-0.00078088,0.0977972,1,2.59299e-05,-1.66688e-05,1.49104e-05,0.00518599,-0.00333376,0.00298208,0.99928,-0.00314308,0.0378127,-1.31752e-05,-0.24554,0.0967015,-0.911852,36.125,1,44128,43802552
left,21,13,0.99928,-0.00314308,0.0378127,-1.31752e-05,-0.726192,-0.0775592,9.77974,0.400817,-0.102061,0.859611,-0.00726515,-0.00078088,0.0977972,1,2.59299e-05,-1.66688e-05,1.49104e-05,0.00518599,-0.00333376,0.00298208,0.99928,-0.00314308,0.0378127,-1.31752e-05,-0.24554,0.0967015,-0.911852,36.125,1,44128,43802552
left,21,14,0.99928,-0.00314308,0.0378127,-1.31752e-05,-0.726192,-0.0775592,9.77974,0.400817,-0.102061,0.859611,-0.00726515,-0.00078088,0.0977972,1,2.59299e-05,-1.66688e-05,1.49104e-05,0.00518599,-0.00333376,0.00298208,0.99928,-0.00314308,0.0378127,-1.31752e-05,-0.24554,0.0967015,-0.911852,36.125,1,44128,43802552
right,9,1,0.999281,-0.00307995,0.0377989,-7.09151e-06,-0.741192,-0.0800883,9.78693,0.381763,-0.10436,0.870338,-0.00741458,-0.000813363,0.097869,1,6.31081e-05,-1.36292e-05,8.61884e-06,0.0126216,-0.00272584,0.00172377,0.999281,-0.00307995,0.0377989,-7.09151e-06,-0.245997,0.0966875,-0.91084,36.125,1,44129,43802652
left,22,1,0.999281,-0.00307995,0.0377989,-7.09151e-06,-0.741192,-0.0800883,9.78693,0.381763,-0.10436,0.870338,-0.00741458,-0.000813363,0.097869,1,6.31081e-05,-1.36292e-05,8.61884e-06,0.0126216,-0.00272584,0.00172377,0.999281,-0.00307995,0.0377989,-7.09151e-06,-0.245997,0.0966875,-0.91084,36.125,1,44129,43802652
left,22,2,0.999281,-0.00307995,0.0377989,-7.09151e-06,-0.741192,-0.0800883,9.78693,0.381763,-0.10436,0.870338,-0.00741458,-0.000813363,0.097869,1,6.31081e-05,-1.36292e-05,8.61884e-06,0.0126216,-0.00272584,0.00172377,0.999281,-0.00307995,0.0377989,-7.09151e-06,-0.245997,0.0966875,-0.91084,36.125,1,44129,43802652
left,22,3,0.999281,-0.00302723,0.0377974,5.11919e-06,-0.736523,-0.0801205,9.78181,0.38177,-0.104184,0.862744,-0.00736539,-0.000811764,0.097818,1,5.29364e-05,-9.27334e-07,1.3804e-05,0.0105873,-0.000185467,0.00276081,0.999281,-0.00302723,0.0377974,5.11919e-06,-0.24598,0.0971573,-0.909819,36.125,1,44130,43802752
left,22,4,0.999281,-0.00302723,0.0377974,5.11919e-06,-0.736523,-0.0801205,9.78181,0.38177,-0.104184,0.862744,-0.00736539,-0.000811764,0.097818,1,5.29364e-05,-9.27334e-07,1.3804e-05,0.0105873,-0.000185467,0.00276081,0.999281,-0.00302723,0.0377974,5.11919e-06,-0.24598,0.0971573,-0.909819,36.125,1,44130,43802752
left,22,5,0.999281,-0.00302723,0.0377974,5.11919e-06,-0.736523,-0.0801205,9.78181,0.38177,-0.104184,0.862744,-0.00736539,-0.000811764,0.097818,1,5.29364e-05,-9.27334e-07,1.3804e-05,0.0105873,-0.000185467,0.00276081,0.999281,-0.00302723,0.0377974,5.11919e-06,-0.24598,0.0971573,-0.909819,36.125,1,44130,43802752
left,22,6,0.999281,-0.00297509,0.0377854,3.06379e-06,-0.735423,-0.0722877,9.78968,0.389694,-0.103118,0.869127,-0.00735648,-0.000733163,0.0978965,1,5.25247e-05,-1.14719e-05,1.47238e-07,0.0105049,-0.00229438,2.94475e-05,0.999281,-0.00297509,0.0377854,3.06379e-06,-0.245022,0.0966705,-0.910339,36.125,1,44131,43802852
left,22,7,0.999281,-0.00297509,0.0377854,3.06379e-06,-0.735423,-0.0722877,9.78968,0.389694,-0.103118,0.869127,-0.00735648,-0.000733163,0.0978965,1,5.25247e-05,-1.14719e-05,1.47238e-07,0.0105049,-0.00229438,2.94475e-05,0.999281,-0.00297509,0.0377854,3.06379e-06,-0.245022,0.0966705,-0.910339,36.125,1,44131,43802852
left,22,8,0.999281,-0.00297509,0.0377854,3.06379e-06,-0.735423,-0.0722877,9.78968,0.389694,-0.103118,0.869127,-0.00735648,-0.000733163,0.0978965,1,5.25247e-05,-1.14719e-05,1.47238e-07,0.0105049,-0.00229438,2.94475e-05,0.999281,-0.00297509,0.0377854,3.06379e-06,-0.245022,0.0966705,-0.910339,36.125,1,44131,43802852
left,22,9,0.999281,-0.00292961,0.0377945,9.16593e-06,-0.727905,-0.0674703,9.78593,0.396116,-0.0959867,0.864681,-0.00727718,-0.000683734,0.0978593,1,4.5577e-05,9.50144e-06,7.5904e-06,0.0091154,0.00190029,0.00151808,0.999281,-0.00292961,0.0377945,9.16593e-06,-0.246022,0.0967055,-0.911849,36.125,1,44132,43802952
left,22,10,0.999281,-0.00292961,0.0377945,9.16593e-06,-0.727905,-0.0674703,9.78593,0.396116,-0.0959867,0.864681,-0.00727718,-0.000683734,0.0978593,1,4.5577e-05,9.50144e-06,7.5904e-06,0.0091154,0.00190029,0.00151808,0.999281,-0.00292961,0.0377945,9.16593e-06,-0.246022,0.0967055,-0.911849,36.125,1,44132,43802952
left,22,11,0.999281,-0.00292961,0.0377945,9.16593e-06,-0.727905,-0.0674703,9.78593,0.396116,-0.0959867,0.864681,-0.00727718,-0.000683734,0.0978593,1,4.5577e-05,9.50144e-06,7.5904e-06,0.0091154,0.00190029,0.00151808,0.999281,-0.00292961,0.0377945,9.16593e-06,-0.246022,0.0967055,-0.911849,36.125,1,44132,43802952
left,22,12,0.999282,-0.0028761,0.0377874,2.41949e-05,-0.729729,-0.0742061,9.78351,0.388354,-0.102348,0.865127,-0.00729864,-0.000752739,0.097835,1,5.33089e-05,-7.01611e-06,1.68795e-05,0.0106618,-0.00140322,0.00337589,0.999282,-0.0028761,0.0377874,2.41949e-05,-0.245993,0.095721,-0.911366,36.125,1,44133,43803052
left,22,13,0.999282,-0.0028761,0.0377874,2.41949e-05,-0.729729,-0.0742061,9.78351,0.388354,-0.102348,0.865127,-0.00729864,-0.000752739,0.097835,1,5.33089e-05,-7.01611e-06,1.68795e-05,0.0106618,-0.00140322,0.00337589,0.999282,-0.0028761,0.0377874,2.41949e-05,-0.245993,0.095721,-0.911366,36.125,1,44133,43803052
left,22,14,0.999282,-0.0028761,0.0377874,2.41949e-05,-0.729729,-0.0742061,9.78351,0.388354,-0.102348,0.865127,-0.00729864,-0.000752739,0.097835,1,5.33089e-05,-7.01611e-06,1.68795e-05,0.0106618,-0.00140322,0.00337589,0.999282,-0.0028761,0.0377874,2.41949e-05,-0.245993,0.095721,-0.911366,36.125,1,44133,43803052
right,10,1,0.999282,-0.00283145,0.0377772,3.68897e-05,-0.732734,-0.0753567,9.78082,0.38767,-0.106224,0.861697,-0.00732917,-0.000762499,0.097808,1,4.45471e-05,-9.4936e-06,1.48433e-05,0.00890942,-0.00189872,0.00296866,0.999282,-0.00283145,0.0377772,3.68897e-05,-0.245965,0.0947364,-0.910883,36.125,1,44134,43803152
right,10,2,0.999282,-0.00283145,0.0377772,3.68897e-05,-0.732734,-0.0753567,9.78082,0.38767,-0.106224,0.861697,-0.00732917,-0.000762499,0.097808,1,4.45471e-05,-9.4936e-06,1.48433e-05,0.00890942,-0.00189872,0.00296866,0.999282,-0.00283145,0.0377772,3.68897e-05,-0.245965,0.0947364,-0.910883,36.125,1,44134,43803152
left,23,1,0.999282,-0.00283145,0.0377772,3.68897e-05,-0.732734,-0.0753567,9.78082,0.38767,-0.106224,0.861697,-0.00732917,-0.000762499,0.097808,1,4.45471e-05,-9.4936e-06,1.48433e-05,0.00890942,-0.00189872,0.00296866,0.999282,-0.00283145,0.0377772,3.68897e-05,-0.245965,0.0947364,-0.910883,36.125,1,44134,43803152
left,23,2,0.999283,-0.00279402,0.0377692,3.68508e-05,-0.734452,-0.0803365,9.7818,0.385734,-0.112618,0.858851,-0.00734586,-0.000810791,0.0978178,1,3.7808e-05,-6.88611e-06,1.9483e-06,0.0075616,-0.00137722,0.00038966,0.999283,-0.00279402,0.0377692,3.68508e-05,-0.245923,0.0951881,-0.908853,36.125,1,44135,43803252
left,23,3,0.999283,-0.00279402,0.0377692,3.68508e-05,-0.734452,-0.0803365,9.7818,0.385734,-0.112618,0.858851,-0.00734586,-0.000810791,0.0978178,1,3.7808e-05,-6.88611e-06,1.9483e-06,0.0075616,-0.00137722,0.00038966,0.999283,-0.00279402,0.0377692,3.68508e-05,-0.245923,0.0951881,-0.908853,36.125,1,44135,43803252
left,23,4,0.999283,-0.00279402,0.0377692,3.68508e-05,-0.734452,-0.0803365,9.7818,0.385734,-0.112618,0.858851,-0.00734586,-0.000810791,0.0978178,1,3.7808e-05,-6.88611e-06,1.9483e-06,0.0075616,-0.00137722,0.00038966,0.999283,-0.00279402,0.0377692,3.68508e-05,-0.245923,0.0951881,-0.908853,36.125,1,44135,43803252
left,23,5,0.999283,-0.00273722,0.0377616,4.14657e-05,-0.740186,-0.0726313,9.78361,0.380098,-0.101753,0.864679,-0.00740326,-0.000737589,0.0978359,1,5.71013e-05,-7.17455e-06,6.95469e-06,0.0114203,-0.00143491,0.00139094,0.999283,-0.00273722,0.0377616,4.14657e-05,-0.245446,0.0961507,-0.908329,36.125,1,44136,43803352
left,23,6,0.999283,-0.00273722,0.0377616,4.14657e-05,-0.740186,-0.0726313,9.78361,0.380098,-0.101753,0.864679,-0.00740326,-0.000737589,0.0978359,1,5.71013e-05,-7.17455e-06,6.95469e-06,0.0114203,-0.00143491,0.00139094,0.999283,-0.00273722,0.0377616,4.14657e-05,-0.245446,0.0961507,-0.908329,36.125,1,44136,43803352
left,23,7,0.999283,-0.00273722,0.0377616,4.14657e-05,-0.740186,-0.0726313,9.78361,0.380098,-0.101753,0.864679,-0.00740326,-0.000737589,0.0978359,1,5.71013e-05,-7.17455e-06,6.95469e-06,0.0114203,-0.00143491,0.00139094,0.999283,-0.00273722,0.0377616,4.14657e-05,-0.245446,0.0961507,-0.908329,36.125,1,44136,43803352
left,23,8,0.999284,-0.00270421,0.0377534,5.66919e-05,-0.719792,-0.0791775,9.78781,0.401123,-0.11215,0.865083,-0.00719931,-0.000798665,0.097878,1,3.40603e-05,-7.22521e-06,1.54619e-05,0.00681206,-0.00144504,0.00309237,0.999284,-0.00270421,0.0377534,5.66919e-05,-0.246877,0.0947084,-0.908859,36.125,1,44137,43803452
left,23,9,0.999284,-0.00270421,0.0377534,5.66919e-05,-0.719792,-0.0791775,9.78781,0.401123,-0.11215,0.865083,-0.00719931,-0.000798665,0.097878,1,3.40603e-05,-7.22521e-06,1.54619e-05,0.00681206,-0.00144504,0.00309237,0.999284,-0.00270421,0.0377534,5.66919e-05,-0.246877,0.0947084,-0.908859,36.125,1,44137,43803452
left,23,10,0.999284,-0.00270421,0.0377534,5.66919e-05,-0.719792,-0.0791775,9.78781,0.401123,-0.11215,0.865083,-0.00719931,-0.000798665,0.097878,1,3.40603e-05,-7.22521e-06,1.54619e-05,0.00681206,-0.00144504,0.00309237,0.999284,-0.00270421,0.0377534,5.66919e-05,-0.246877,0.0947084,-0.908859,36.125,1,44137,43803452
left,23,11,0.999284,-0.00264771,0.0377412,5.9825e-05,-0.731063,-0.0657451,9.78767,0.38735,-0.104041,0.864518,-0.00731294,-0.000668692,0.0978765,1,5.70342e-05,-1.17997e-05,5.20231e-06,0.0114068,-0.00235995,0.00104046,0.999284,-0.00264771,0.0377412,5.9825e-05,-0.248329,0.0952081,-0.908841,36.125,1,44138,43803552
left,23,12,0.999284,-0.00264771,0.0377412,5.9825e-05,-0.731063,-0.0657451,9.78767,0.38735,-0.104041,0.864518,-0.00731294,-0.000668692,0.0978765,1,5.70342e-05,-1.17997e-05,5.20231e-06,0.0114068,-0.00235995,0.00104046,0.999284,-0.00264771,0.0377412,5.9825e-05,-0.248329,0.0952081,-0.908841,36.125,1,44138,43803552
left,23,13,0.999284,-0.00264771,0.0377412,5.9825e-05,-0.731063,-0.0657451,9.78767,0.38735,-0.104041,0.864518,-0.00731294,-0.000668692,0.0978765,1,5.70342e-05,-1.17997e-05,5.20231e-06,0.0114068,-0.00235995,0.00104046,0.999284,-0.00264771,0.0377412,5.9825e-05,-0.248329,0.0952081,-0.908841,36.125,1,44138,43803552
right,11,1,0.999284,-0.00260725,0.0377412,6.96384e-05,-0.736336,-0.0750983,9.77846,0.38221,-0.108808,0.859169,-0.00736322,-0.000759154,0.0977845,1,4.09111e-05,6.29596e-07,1.14928e-05,0.00818222,0.000125919,0.00229856,0.999284,-0.00260725,0.0377412,6.96384e-05,-0.247432,0.0962117,-0.910844,36.125,1,44139,43803652
right,11,2,0.999284,-0.00260725,0.0377412,6.96384e-05,-0.736336,-0.0750983,9.77846,0.38221,-0.108808,0.859169,-0.00736322,-0.000759154,0.0977845,1,4.09111e-05,6.29596e-07,1.14928e-05,0.00818222,0.000125919,0.00229856,0.999284,-0.00260725,0.0377412,6.96384e-05,-0.247432,0.0962117,-0.910844,36.125,1,44139,43803652
right,11,3,0.999284,-0.00260725,0.0377412,6.96384e-05,-0.736336,-0.0750983,9.77846,0.38221,-0.108808,0.859169,-0.00736322,-0.000759154,0.0977845,1,4.09111e-05,6.29596e-07,1.14928e-05,0.00818222,0.000125919,0.00229856,0.999284,-0.00260725,0.0377412,6.96384e-05,-0.247432,0.0962117,-0.910844,36.125,1,44139,43803652
left,24,1,0.999285,-0.00254889,0.0377356,6.66901e-05,-0.732083,-0.0791566,9.79094,0.391159,-0.113495,0.871156,-0.00732184,-0.000803132,0.0979093,1,5.90999e-05,-5.11688e-06,-4.01909e-07,0.01182,-0.00102338,-8.03819e-05,0.999285,-0.00254889,0.0377356,6.66901e-05,-0.247461,0.095751,-0.912369,36.125,1,44140,43803752
left,24,2,0.999285,-0.00254889,0.0377356,6.66901e-05,-0.732083,-0.0791566,9.79094,0.391159,-0.113495,0.871156,-0.00732184,-0.000803132,0.0979093,1,5.90999e-05,-5.11688e-06,-4.01909e-07,0.01182,-0.00102338,-8.03819e-05,0.999285,-0.00254889,0.0377356,6.66901e-05,-0.247461,0.095751,-0.912369,36.125,1,44140,43803752
left,24,3,0.999285,-0.00254889,0.0377356,6.66901e-05,-0.732083,-0.0791566,9.79094,0.391159,-0.113495,0.871156,-0.00732184,-0.000803132,0.0979093,1,5.90999e-05,-5.11688e-06,-4.01909e-07,0.01182,-0.00102338,-8.03819e-05,0.999285,-0.00254889,0.0377356,6.66901e-05,-0.247461,0.095751,-0.912369,36.125,1,44140,43803752
left,24,4,0.999285,-0.00249956,0.0377249,6.11361e-05,-0.737408,-0.0795824,9.78794,0.385149,-0.117074,0.867687,-0.00737604,-0.000805648,0.0978791,1,5.04404e-05,-1.00214e-05,-3.35847e-06,0.0100881,-0.00200429,-0.000671695,0.999285,-0.00249956,0.0377249,6.11361e-05,-0.246445,0.097631,-0.908796,36.125,1,44141,43803852
left,24,5,0.999285,-0.00249956,0.0377249,6.11361e-05,-0.737408,-0.0795824,9.78794,0.385149,-0.117074,0.867687,-0.00737604,-0.000805648,0.0978791,1,5.04404e-05,-1.00214e-05,-3.35847e-06,0.0100881,-0.00200429,-0.000671695,0.999285,-0.00249956,0.0377249,6.11361e-05,-0.246445,0.097631,-0.908796,36.125,1,44141,43803852
left,24,6,0.999285,-0.00249956,0.0377249,6.11361e-05,-0.737408,-0.0795824,9.78794,0.385149,-0.117074,0.867687,-0.00737604,-0.000805648,0.0978791,1,5.04404e-05,-1.00214e-05,-3.35847e-06,0.0100881,-0.00200429,-0.000671695,0.999285,-0.00249956,0.0377249,6.11361e-05,-0.246445,0.097631,-0.908796,36.125,1,44141,43803852
left,24,7,0.999285,-0.00244578,0.0377225,5.79122e-05,-0.730024,-0.0807754,9.78211,0.39267,-0.122416,0.860404,-0.00730057,-0.000818474,0.097821,1,5.48549e-05,-1.66671e-06,-7.7505e-07,0.010971,-0.000333342,-0.00015501,0.999285,-0.00244578,0.0377225,5.79122e-05,-0.246461,0.0986065,-0.908774,36.125,1,44142,43803952
left,24,8,0.999285,-0.00244578,0.0377225,5.79122e-05,-0.730024,-0.0807754,9.78211,0.39267,-0.122416,0.860404,-0.00730057,-0.000818474,0.097821,1,5.48549e-05,-1.66671e-06,-7.7505e-07,0.010971,-0.000333342,-0.00015501,0.999285,-0.00244578,0.0377225,5.79122e-05,-0.246461,0.0986065,-0.908774,36.125,1,44142,43803952
left,24,9,0.999285,-0.00244578,0.0377225,5.79122e-05,-0.730024,-0.0807754,9.78211,0.39267,-0.122416,0.860404,-0.00730057,-0.000818474,0.097821,1,5.48549e-05,-1.66671e-06,-7.7505e-07,0.010971,-0.000333342,-0.00015501,0.999285,-0.00244578,0.0377225,5.79122e-05,-0.246461,0.0986065,-0.908774,36.125,1,44142,43803952
left,24,10,0.999286,-0.0024055,0.0377133,5.71453e-05,-0.729368,-0.0747417,9.77775,0.387174,-0.11849,0.856122,-0.00729537,-0.000755518,0.0977773,1,4.13358e-05,-8.64451e-06,1.17518e-06,0.00826717,-0.0017289,0.000235035,0.999286,-0.0024055,0.0377133,5.71453e-05,-0.246947,0.0966865,-0.91033,36.125,1,44143,43804052
left,24,11,0.999286,-0.0024055,0.0377133,5.71453e-05,-0.729368,-0.0747417,9.77775,0.387174,-0.11849,0.856122,-0.00729537,-0.000755518,0.0977773,1,4.13358e-05,-8.64451e-06,1.17518e-06,0.00826717,-0.0017289,0.000235035,0.999286,-0.0024055,0.0377133,5.71453e-05,-0.246947,0.0966865,-0.91033,36.125,1,44143,43804052
left,24,12,0.999286,-0.0024055,0.0377133,5.71453e-05,-0.729368,-0.0747417,9.77775,0.387174,-0.11849,0.856122,-0.00729537,-0.000755518,0.0977773,1,4.13358e-05,-8.64451e-06,1.17518e-06,0.00826717,-0.0017289,0.000235035,0.999286,-0.0024055,0.0377133,5.71453e-05,-0.246947,0.0966865,-0.91033,36.125,1,44143,43804052
right,12,1,0.999286,-0.00235288,0.0377088,7.64611e-05,-0.732427,-0.0773133,9.78046,0.384321,-0.121206,0.859078,-0.00732505,-0.000783851,0.0978044,1,5.3186e-05,-4.12388e-06,2.14836e-05,0.0106372,-0.000824775,0.00429672,0.999286,-0.00235288,0.0377088,7.64611e-05,-0.246976,0.0962258,-0.911855,36.125,1,44144,43804152
left,25,1,0.999286,-0.00235288,0.0377088,7.64611e-05,-0.732427,-0.0773133,9.78046,0.384321,-0.121206,0.859078,-0.00732505,-0.000783851,0.0978044,1,5.3186e-05,-4.12388e-06,2.14836e-05,0.0106372,-0.000824775,0.00429672,0.999286,-0.00235288,0.0377088,7.64611e-05,-0.246976,0.0962258,-0.911855,36.125,1,44144,43804152
left,25,2,0.999286,-0.00235288,0.0377088,7.64611e-05,-0.732427,-0.0773133,9.78046,0.384321,-0.121206,0.859078,-0.00732505,-0.000783851,0.0978044,1,5.3186e-05,-4.12388e-06,2.14836e-05,0.0106372,-0.000824775,0.00429672,0.999286,-0.00235288,0.0377088,7.64611e-05,-0.246976,0.0962258,-0.911855,36.125,1,44144,43804152
left,25,3,0.999286,-0.00231157,0.0377094,7.88851e-05,-0.728311,-0.0863262,9.7878,0.391199,-0.12963,0.866254,-0.00728281,-0.000871641,0.097878,1,4.24739e-05,1.47887e-06,4.43498e-06,0.00849478,0.000295774,0.000886996,0.999286,-0.00231157,0.0377094,7.88851e-05,-0.246951,0.0947625,-0.911888,36.125,1,44145,43804252
left,25,4,0.999286,-0.00231157,0.0377094,7.88851e-05,-0.728311,-0.0863262,9.7878,0.391199,-0.12963,0.866254,-0.00728281,-0.000871641,0.097878,1,4.24739e-05,1.47887e-06,4.43498e-06,0.00849478,0.000295774,0.000886996,0.999286,-0.00231157,0.0377094,7.88851e-05,-0.246951,0.0947625,-0.911888,36.125,1,44145,43804252
left,25,5,0.999286,-0.00231157,0.0377094,7.88851e-05,-0.728311,-0.0863262,9.7878,0.391199,-0.12963,0.866254,-0.00728281,-0.000871641,0.097878,1,4.24739e-05,1.47887e-06,4.43498e-06,0.00849478,0.000295774,0.000886996,0.999286,-0.00231157,0.0377094,7.88851e-05,-0.246951,0.0947625,-0.911888,36.125,1,44145,43804252
left,25,6,0.999287,-0.00224734,0.0376957,7.68691e-05,-0.727926,-0.0765234,9.78416,0.395547,-0.122777,0.866786,-0.00728185,-0.000778114,0.0978413,1,6.57495e-05,-1.32621e-05,9.0897e-07,0.0131499,-0.00265243,0.000181794,0.999287,-0.00224734,0.0376957,7.68691e-05,-0.247453,0.0967085,-0.911337,36.125,1,44146,43804352
left,25,7,0.999287,-0.00224734,0.0376957,7.68691e-05,-0.727926,-0.0765234,9.78416,0.395547,-0.122777,0.866786,-0.00728185,-0.000778114,0.0978413,1,6.57495e-05,-1.32621e-05,9.0897e-07,0.0131499,-0.00265243,0.000181794,0.999287,-0.00224734,0.0376957,7.68691e-05,-0.247453,0.0967085,-0.911337,36.125,1,44146,43804352
left,25,8,0.999287,-0.00224734,0.0376957,7.68691e-05,-0.727926,-0.0765234,9.78416,0.395547,-0.122777,0.866786,-0.00728185,-0.000778114,0.0978413,1,6.57495e-05,-1.32621e-05,9.0897e-07,0.0131499,-0.00265243,0.000181794,0.999287,-0.00224734,0.0376957,7.68691e-05,-0.247453,0.0967085,-0.911337,36.125,1,44146,43804352
left,25,9,0.999287,-0.002201,0.0376989,7.95158e-05,-0.730879,-0.0719623,9.7876,0.389911,-0.113265,0.869355,-0.00730803,-0.000729033,0.097876,1,4.76967e-05,3.8538e-06,5.01819e-06,0.00953935,0.00077076,0.00100364,0.999287,-0.002201,0.0376989,7.95158e-05,-0.245511,0.0971623,-0.910326,36.125,1,44147,43804452
left,25,10,0.999287,-0.002201,0.0376989,7.95158e-05,-0.730879,-0.0719623,9.7876,0.389911,-0.113265,0.869355,-0.00730803,-0.000729033,0.097876,1,4.76967e-05,3.8538e-06,5.01819e-06,0.00953935,0.00077076,0.00100364,0.999287,-0.002201,0.0376989,7.95158e-05,-0.245511,0.0971623,-0.910326,36.125,1,44147,43804452
left,25,11,0.999287,-0.002201,0.0376989,7.95158e-05,-0.730879,-0.0719623,9.7876,0.389911,-0.113265,0.869355,-0.00730803,-0.000729033,0.097876,1,4.76967e-05,3.8538e-06,5.01819e-06,0.00953935,0.00077076,0.00100364,0.999287,-0.002201,0.0376989,7.95158e-05,-0.245511,0.0971623,-0.910326,36.125,1,44147,43804452
left,25,12,0.999288,-0.00214813,0.037673,8.23109e-05,-0.735257,-0.0739796,9.79239,0.388877,-0.11923,0.869613,-0.00735754,-0.000750529,0.0979234,1,5.44154e-05,-2.54156e-05,5.11506e-06,0.0108831,-0.00508312,0.00102301,0.999288,-0.00214813,0.037673,8.23109e-05,-0.24406,0.0966625,-0.910344,36.125,1,44148,43804552
left,25,13,0.999288,-0.00214813,0.037673,8.23109e-05,-0.735257,-0.0739796,9.79239,0.388877,-0.11923,0.869613,-0.00735754,-0.000750529,0.0979234,1,5.44154e-05,-2.54156e-05,5.11506e-06,0.0108831,-0.00508312,0.00102301,0.999288,-0.00214813,0.037673,8.23109e-05,-0.24406,0.0966625,-0.910344,36.125,1,44148,43804552
left,25,14,0.999288,-0.00214813,0.037673,8.23109e-05,-0.735257,-0.0739796,9.79239,0.388877,-0.11923,0.869613,-0.00735754,-0.000750529,0.0979234,1,5.44154e-05,-2.54156e-05,5.11506e-06,0.0108831,-0.00508312,0.00102301,0.999288,-0.00214813,0.037673,8.23109e-05,-0.24406,0.0966625,-0.910344,36.125,1,44148,43804552
right,10,1,0.999288,-0.00209374,0.0376673,0.000101377,-0.727457,-0.070439,9.78014,0.390895,-0.116147,0.862328,-0.0072755,-0.000715502,0.0978012,1,5.51603e-05,-4.9114e-06,2.22049e-05,0.0110321,-0.00098228,0.00444099,0.999288,-0.00209374,0.0376673,0.000101377,-0.244529,0.0966575,-0.909837,36.125,1,44149,43804652
right,10,2,0.999288,-0.00209374,0.0376673,0.000101377,-0.727457,-0.070439,9.78014,0.390895,-0.116147,0.862328,-0.0072755,-0.000715502,0.0978012,1,5.51603e-05,-4.9114e-06,2.22049e-05,0.0110321,-0.00098228,0.00444099,0.999288,-0.00209374,0.0376673,0.000101377,-0.244529,0.0966575,-0.909837,36.125,1,44149,43804652
right,10,3,0.999288,-0.00209374,0.0376673,0.000101377,-0.727457,-0.070439,9.78014,0.390895,-0.116147,0.862328,-0.0072755,-0.000715502,0.0978012,1,5.51603e-05,-4.9114e-06,2.22049e-05,0.0110321,-0.00098228,0.00444099,0.999288,-0.00209374,0.0376673,0.000101377,-0.244529,0.0966575,-0.909837,36.125,1,44149,43804652
left,26,1,0.999288,-0.0020469,0.0376653,0.000102237,-0.715853,-0.0803499,9.78133,0.399214,-0.127448,0.857457,-0.00715878,-0.000812997,0.0978132,1,4.82611e-05,-1.32775e-06,3.99194e-06,0.00965222,-0.00026555,0.000798388,0.999288,-0.0020469,0.0376653,0.000102237,-0.246441,0.0966645,-0.909323,36.125,1,44150,43804752
left,26,2,0.999288,-0.0020469,0.0376653,0.000102237,-0.715853,-0.0803499,9.78133,0.399214,-0.127448,0.857457,-0.00715878,-0.000812997,0.0978132,1,4.82611e-05,-1.32775e-06,3.99194e-06,0.00965222,-0.00026555,0.000798388,0.999288,-0.0020469,0.0376653,0.000102237,-0.246441,0.0966645,-0.909323,36.125,1,44150,43804752
left,26,3,0.999288,-0.0020469,0.0376653,0.000102237,-0.715853,-0.0803499,9.78133,0.399214,-0.127448,0.857457,-0.00715878,-0.000812997,0.0978132,1,4.82611e-05,-1.32775e-06,3.99194e-06,0.00965222,-0.00026555,0.000798388,0.999288,-0.0020469,0.0376653,0.000102237,-0.246441,0.0966645,-0.909323,36.125,1,44150,43804752
left,26,4,0.999288,-0.00200719,0.0376795,0.000106061,-0.731706,-0.0726147,9.77369,0.386856,-0.124478,0.853255,-0.00731406,-0.000734314,0.0977371,1,4.12854e-05,1.5315e-05,6.59375e-06,0.00825709,0.00306299,0.00131875,0.999288,-0.00200719,0.0376795,0.000106061,-0.245483,0.0961777,-0.909843,36.125,1,44151,43804852
left,26,5,0.999288,-0.00200719,0.0376795,0.000106061,-0.731706,-0.0726147,9.77369,0.386856,-0.124478,0.853255,-0.00731406,-0.000734314,0.0977371,1,4.12854e-05,1.5315e-05,6.59375e-06,0.00825709,0.00306299,0.00131875,0.999288,-0.00200719,0.0376795,0.000106061,-0.245483,0.0961777,-0.909843,36.125,1,44151,43804852
left,26,6,0.999288,-0.00200719,0.0376795,0.000106061,-0.731706,-0.0726147,9.77369,0.386856,-0.124478,0.853255,-0.00731406,-0.000734314,0.0977371,1,4.12854e-05,1.5315e-05,6.59375e-06,0.00825709,0.00306299,0.00131875,0.999288,-0.00200719,0.0376795,0.000106061,-0.245483,0.0961777,-0.909843,36.125,1,44151,43804852
left,26,7,0.999289,-0.00197588,0.0376567,0.000112942,-0.738156,-0.0734174,9.77579,0.379277,-0.119898,0.856076,-0.00738582,-0.000740831,0.0977575,1,3.3386e-05,-2.18525e-05,8.80857e-06,0.00667721,-0.0043705,0.00176171,0.999289,-0.00197588,0.0376567,0.000112942,-0.24455,0.095709,-0.911373,36.125,1,44152,43804952
left,26,8,0.999289,-0.00197588,0.0376567,0.000112942,-0.738156,-0.0734174,9.77579,0.379277,-0.119898,0.856076,-0.00738582,-0.000740831,0.0977575,1,3.3386e-05,-2.18525e-05,8.80857e-06,0.00667721,-0.0043705,0.00176171,0.999289,-0.00197588,0.0376567,0.000112942,-0.24455,0.095709,-0.911373,36.125,1,44152,43804952
left,26,9,0.999289,-0.00197588,0.0376567,0.000112942,-0.738156,-0.0734174,9.77579,0.379277,-0.119898,0.856076,-0.00738582,-0.000740831,0.0977575,1,3.3386e-05,-2.18525e-05,8.80857e-06,0.00667721,-0.0043705,0.00176171,0.999289,-0.00197588,0.0376567,0.000112942,-0.24455,0.095709,-0.911373,36.125,1,44152,43804952
left,26,10,0.999289,-0.00192988,0.0376495,0.000128521,-0.723503,-0.0773153,9.78888,0.392057,-0.129835,0.865909,-0.00723623,-0.000782669,0.0978886,1,4.73001e-05,-6.31978e-06,1.77118e-05,0.00946001,-0.00126396,0.00354236,0.999289,-0.00192988,0.0376495,0.000128521,-0.244061,0.0952172,-0.911386,36.125,1,44153,43805052
left,26,11,0.999289,-0.00192988,0.0376495,0.000128521,-0.723503,-0.0773153,9.78888,0.392057,-0.129835,0.865909,-0.00723623,-0.000782669,0.0978886,1,4.73001e-05,-6.31978e-06,1.77118e-05,0.00946001,-0.00126396,0.00354236,0.999289,-0.00192988,0.0376495,0.000128521,-0.244061,0.0952172,-0.911386,36.125,1,44153,43805052
left,26,12,0.999289,-0.00192988,0.0376495,0.000128521,-0.723503,-0.0773153,9.78888,0.392057,-0.129835,0.865909,-0.00723623,-0.000782669,0.0978886,1,4.73001e-05,-6.31978e-06,1.77118e-05,0.00946001,-0.00126396,0.00354236,0.999289,-0.00192988,0.0376495,0.000128521,-0.244061,0.0952172,-0.911386,36.125,1,44153,43805052
right,14,1,0.999289,-0.00188936,0.0376523,0.000133947,-0.731419,-0.0792753,9.78857,0.385326,-0.13133,0.866881,-0.00731345,-0.000801263,0.0978857,1,4.28911e-05,3.73258e-06,7.73366e-06,0.00857823,0.000746516,0.00154673,0.999289,-0.00188936,0.0376523,0.000133947,-0.245479,0.0966565,-0.909328,36.125,1,44154,43805152
left,27,1,0.999289,-0.00188936,0.0376523,0.000133947,-0.731419,-0.0792753,9.78857,0.385326,-0.13133,0.866881,-0.00731345,-0.000801263,0.0978857,1,4.28911e-05,3.73258e-06,7.73366e-06,0.00857823,0.000746516,0.00154673,0.999289,-0.00188936,0.0376523,0.000133947,-0.245479,0.0966565,-0.909328,36.125,1,44154,43805152
left,27,2,0.999289,-0.00188936,0.0376523,0.000133947,-0.731419,-0.0792753,9.78857,0.385326,-0.13133,0.866881,-0.00731345,-0.000801263,0.0978857,1,4.28911e-05,3.73258e-06,7.73366e-06,0.00857823,0.000746516,0.00154673,0.999289,-0.00188936,0.0376523,0.000133947,-0.245479,0.0966565,-0.909328,36.125,1,44154,43805152
left,27,3,0.99929,-0.00184334,0.0376445,0.000139664,-0.716789,-0.074883,9.77936,0.396903,-0.127732,0.858062,-0.00716922,-0.000758524,0.0977934,1,4.89075e-05,-6.8657e-06,8.94238e-06,0.0097815,-0.00137314,0.00178848,0.99929,-0.00184334,0.0376445,0.000139664,-0.246453,0.0981188,-0.908785,36.125,1,44155,43805252
left,27,4,0.99929,-0.00184334,0.0376445,0.000139664,-0.716789,-0.074883,9.77936,0.396903,-0.127732,0.858062,-0.00716922,-0.000758524,0.0977934,1,4.89075e-05,-6.8657e-06,8.94238e-06,0.0097815,-0.00137314,0.00178848,0.99929,-0.00184334,0.0376445,0.000139664,-0.246453,0.0981188,-0.908785,36.125,1,44155,43805252
left,27,5,0.99929,-0.00184334,0.0376445,0.000139664,-0.716789,-0.074883,9.77936,0.396903,-0.127732,0.858062,-0.00716922,-0.000758524,0.0977934,1,4.89075e-05,-6.8657e-06,8.94238e-06,0.0097815,-0.00137314,0.00178848,0.99929,-0.00184334,0.0376445,0.000139664,-0.246453,0.0981188,-0.908785,36.125,1,44155,43805252
left,27,6,0.99929,-0.00179273,0.0376355,0.000153503,-0.735957,-0.0877596,9.78481,0.389787,-0.146592,0.861964,-0.00736108,-0.000888235,0.0978479,1,5.30948e-05,-7.91091e-06,1.69459e-05,0.010619,-0.00158218,0.00338918,0.99929,-0.00179273,0.0376355,0.000153503,-0.246498,0.0971883,-0.911331,36.125,1,44156,43805352
left,27,7,0.99929,-0.00179273,0.0376355,0.000153503,-0.735957,-0.0877596,9.78481,0.389787,-0.146592,0.861964,-0.00736108,-0.000888235,0.0978479,1,5.30948e-05,-7.91091e-06,1.69459e-05,0.010619,-0.00158218,0.00338918,0.99929,-0.00179273,0.0376355,0.000153503,-0.246498,0.0971883,-0.911331,36.125,1,44156,43805352
left,27,8,0.99929,-0.00179273,0.0376355,0.000153503,-0.735957,-0.0877596,9.78481,0.389787,-0.146592,0.861964,-0.00736108,-0.000888235,0.0978479,1,5.30948e-05,-7.91091e-06,1.69459e-05,0.010619,-0.00158218,0.00338918,0.99929,-0.00179273,0.0376355,0.000153503,-0.246498,0.0971883,-0.911331,36.125,1,44156,43805352
left,27,9,0.99929,-0.00175313,0.0376245,0.000152347,-0.740407,-0.0634563,9.77791,0.375293,-0.119002,0.855389,-0.00740601,-0.000642979,0.0977789,1,4.2919e-05,-9.91689e-06,1.56488e-06,0.0085838,-0.00198338,0.000312975,0.99929,-0.00175313,0.0376245,0.000152347,-0.245985,0.0952332,-0.911377,36.125,1,44157,43805452
left,27,10,0.99929,-0.00175313,0.0376245,0.000152347,-0.740407,-0.0634563,9.77791,0.375293,-0.119002,0.855389,-0.00740601,-0.000642979,0.0977789,1,4.2919e-05,-9.91689e-06,1.56488e-06,0.0085838,-0.00198338,0.000312975,0.99929,-0.00175313,0.0376245,0.000152347,-0.245985,0.0952332,-0.911377,36.125,1,44157,43805452
left,27,11,0.99929,-0.00175313,0.0376245,0.000152347,-0.740407,-0.0634563,9.77791,0.375293,-0.119002,0.855389,-0.00740601,-0.000642979,0.0977789,1,4.2919e-05,-9.91689e-06,1.56488e-06,0.0085838,-0.00198338,0.000312975,0.99929,-0.00175313,0.0376245,0.000152347,-0.245985,0.0952332,-0.911377,36.125,1,44157,43805452
left,27,12,0.999291,-0.00172043,0.0376133,0.000151183,-0.731919,-0.0892431,9.7868,0.38437,-0.142834,0.868651,-0.00732119,-0.000899498,0.0978678,1,3.60124e-05,-1.02296e-05,1.26844e-06,0.00720248,-0.00204593,0.000253687,0.999291,-0.00172043,0.0376133,0.000151183,-0.246013,0.0962178,-0.91186,36.125,1,44158,43805552
left,27,13,0.999291,-0.00172043,0.0376133,0.000151183,-0.731919,-0.0892431,9.7868,0.38437,-0.142834,0.868651,-0.00732119,-0.000899498,0.0978678,1,3.60124e-05,-1.02296e-05,1.26844e-06,0.00720248,-0.00204593,0.000253687,0.999291,-0.00172043,0.0376133,0.000151183,-0.246013,0.0962178,-0.91186,36.125,1,44158,43805552
left,27,14,0.999291,-0.00172043,0.0376133,0.000151183,-0.731919,-0.0892431,9.7868,0.38437,-0.142834,0.868651,-0.00732119,-0.000899498,0.0978678,1,3.60124e-05,-1.02296e-05,1.26844e-06,0.00720248,-0.00204593,0.000253687,0.999291,-0.00172043,0.0376133,0.000151183,-0.246013,0.0962178,-0.91186,36.125,1,44158,43805552
right,15,1,0.99929,-0.00167399,0.0376262,0.00015996,-0.742875,-0.0741015,9.78834,0.370149,-0.129114,0.868193,-0.00742595,-0.000750939,0.0978835,1,4.98052e-05,1.42118e-05,1.17145e-05,0.00996105,0.00284237,0.0023429,0.99929,-0.00167399,0.0376262,0.00015996,-0.244505,0.0951942,-0.90987,36.125,1,44159,43805652
left,28,1,0.99929,-0.00167399,0.0376262,0.00015996,-0.742875,-0.0741015,9.78834,0.370149,-0.129114,0.868193,-0.00742595,-0.000750939,0.0978835,1,4.98052e-05,1.42118e-05,1.17145e-05,0.00996105,0.00284237,0.0023429,0.99929,-0.00167399,0.0376262,0.00015996,-0.244505,0.0951942,-0.90987,36.125,1,44159,43805652
left,28,2,0.99929,-0.00167399,0.0376262,0.00015996,-0.742875,-0.0741015,9.78834,0.370149,-0.129114,0.868193,-0.00742595,-0.000750939,0.0978835,1,4.98052e-05,1.42118e-05,1.17145e-05,0.00996105,0.00284237,0.0023429,0.99929,-0.00167399,0.0376262,0.00015996,-0.244505,0.0951942,-0.90987,36.125,1,44159,43805652
left,28,3,0.999291,-0.00163483,0.0376137,0.000170051,-0.729702,-0.0753852,9.78283,0.389107,-0.134377,0.86054,-0.00729924,-0.000762304,0.0978281,1,4.22671e-05,-1.14402e-05,1.25302e-05,0.00845342,-0.00228805,0.00250604,0.999291,-0.00163483,0.0376137,0.000170051,-0.245409,0.0946783,-0.907857,36.125,1,44160,43805752
left,28,4,0.999291,-0.00163483,0.0376137,0.000170051,-0.729702,-0.0753852,9.78283,0.389107,-0.134377,0.86054,-0.00729924,-0.000762304,0.0978281,1,4.22671e-05,-1.14402e-05,1.25302e-05,0.00845342,-0.00228805,0.00250604,0.999291,-0.00163483,0.0376137,0.000170051,-0.245409,0.0946783,-0.907857,36.125,1,44160,43805752
left,28,5,0.999291,-0.00163483,0.0376137,0.000170051,-0.729702,-0.0753852,9.78283,0.389107,-0.134377,0.86054,-0.00729924,-0.000762304,0.0978281,1,4.22671e-05,-1.14402e-05,1.25302e-05,0.00845342,-0.00228805,0.00250604,0.999291,-0.00163483,0.0376137,0.000170051,-0.245409,0.0946783,-0.907857,36.125,1,44160,43805752
left,28,6,0.999291,-0.00159809,0.0376136,0.000173158,-0.737503,-0.0793072,9.7859,0.382731,-0.136573,0.867305,-0.00737483,-0.000801001,0.0978589,1,4.00711e-05,9.76248e-07,5.83732e-06,0.00801422,0.00019525,0.00116746,0.999291,-0.00159809,0.0376136,0.000173158,-0.246897,0.0966504,-0.908311,36.125,1,44161,43805852
left,28,7,0.999291,-0.00159809,0.0376136,0.000173158,-0.737503,-0.0793072,9.7859,0.382731,-0.136573,0.867305,-0.00737483,-0.000801001,0.0978589,1,4.00711e-05,9.76248e-07,5.83732e-06,0.00801422,0.00019525,0.00116746,0.999291,-0.00159809,0.0376136,0.000173158,-0.246897,0.0966504,-0.908311,36.125,1,44161,43805852
left,28,8,0.999291,-0.00159809,0.0376136,0.000173158,-0.737503,-0.0793072,9.7859,0.382731,-0.136573,0.867305,-0.00737483,-0.000801001,0.0978589,1,4.00711e-05,9.76248e-07,5.83732e-06,0.00801422,0.00019525,0.00116746,0.999291,-0.00159809,0.0376136,0.000173158,-0.246897,0.0966504,-0.908311,36.125,1,44161,43805852
left,28,9,0.999291,-0.00154895,0.0376155,0.000170861,-0.73905,-0.067416,9.77312,0.377069,-0.120773,0.852012,-0.00738987,-0.000684558,0.0977312,1,5.31897e-05,3.26885e-06,8.34641e-08,0.0106379,0.000653769,1.66928e-05,0.999291,-0.00154895,0.0376155,0.000170861,-0.246429,0.0966555,-0.908818,36.125,1,44162,43805952
left,28,10,0.999291,-0.00154895,0.0376155,0.000170861,-0.73905,-0.067416,9.77312,0.377069,-0.120773,0.852012,-0.00738987,-0.000684558,0.0977312,1,5.31897e-05,3.26885e-06,8.34641e-08,0.0106379,0.000653769,1.66928e-05,0.999291,-0.00154895,0.0376155,0.000170861,-0.246429,0.0966555,-0.908818,36.125,1,44162,43805952
left,28,11,0.999291,-0.00154895,0.0376155,0.000170861,-0.73905,-0.067416,9.77312,0.377069,-0.120773,0.852012,-0.00738987,-0.000684558,0.0977312,1,5.31897e-05,3.26885e-06,8.34641e-08,0.0106379,0.000653769,1.66928e-05,0.999291,-0.00154895,0.0376155,0.000170861,-0.246429,0.0966555,-0.908818,36.125,1,44162,43805952
left,28,12,0.999292,-0.0015108,0.0375957,0.000178258,-0.731471,-0.0842827,9.78888,0.387041,-0.143676,0.865569,-0.0073183,-0.000851233,0.0978884,1,4.21498e-05,-1.84031e-05,1.05239e-05,0.00842995,-0.00368061,0.00210477,0.999292,-0.0015108,0.0375957,0.000178258,-0.245984,0.0981238,-0.909293,36.125,1,44163,43806052
left,28,13,0.999292,-0.0015108,0.0375957,0.000178258,-0.731471,-0.0842827,9.78888,0.387041,-0.143676,0.865569,-0.0073183,-0.000851233,0.0978884,1,4.21498e-05,-1.84031e-05,1.05239e-05,0.00842995,-0.00368061,0.00210477,0.999292,-0.0015108,0.0375957,0.000178258,-0.245984,0.0981238,-0.909293,36.125,1,44163,43806052
left,28,14,0.999292,-0.0015108,0.0375957,0.000178258,-0.731471,-0.0842827,9.78888,0.387041,-0.143676,0.865569,-0.0073183,-0.000851233,0.0978884,1,4.21498e-05,-1.84031e-05,1.05239e-05,0.00842995,-0.00368061,0.00210477,0.999292,-0.0015108,0.0375957,0.000178258,-0.245984,0.0981238,-0.909293,36.125,1,44163,43806052
right,16,1,0.999292,-0.00146425,0.0375934,0.000187052,-0.73284,-0.0705434,9.78289,0.378298,-0.133529,0.859308,-0.00732855,-0.000715578,0.0978288,1,5.08856e-05,-8.52953e-07,1.28243e-05,0.0101771,-0.000170591,0.00256485,0.999292,-0.00146425,0.0375934,0.000187052,-0.247032,0.0996402,-0.911779,36.125,1,44164,43806152
left,29,1,0.999292,-0.00146425,0.0375934,0.000187052,-0.73284,-0.0705434,9.78289,0.378298,-0.133529,0.859308,-0.00732855,-0.000715578,0.0978288,1,5.08856e-05,-8.52953e-07,1.28243e-05,0.0101771,-0.000170591,0.00256485,0.999292,-0.00146425,0.0375934,0.000187052,-0.247032,0.0996402,-0.911779,36.125,1,44164,43806152
left,29,2,0.999292,-0.00146425,0.0375934,0.000187052,-0.73284,-0.0705434,9.78289,0.378298,-0.133529,0.859308,-0.00732855,-0.000715578,0.0978288,1,5.08856e-05,-8.52953e-07,1.28243e-05,0.0101771,-0.000170591,0.00256485,0.999292,-0.00146425,0.0375934,0.000187052,-0.247032,0.0996402,-0.911779,36.125,1,44164,43806152
left,29,3,0.999293,-0.00141959,0.0375813,0.000181869,-0.723191,-0.0772967,9.78074,0.392232,-0.142859,0.855752,-0.00723388,-0.000782764,0.0978071,1,5.02057e-05,-1.00286e-05,-1.64301e-06,0.0100411,-0.00200572,-0.000328601,0.999293,-0.00141959,0.0375813,0.000181869,-0.246457,0.09764,-0.909301,36.125,1,44165,43806252
left,29,4,0.999293,-0.00141959,0.0375813,0.000181869,-0.723191,-0.0772967,9.78074,0.392232,-0.142859,0.855752,-0.00723388,-0.000782764,0.0978071,1,5.02057e-05,-1.00286e-05,-1.64301e-06,0.0100411,-0.00200572,-0.000328601,0.999293,-0.00141959,0.0375813,0.000181869,-0.246457,0.09764,-0.909301,36.125,1,44165,43806252
left,29,5,0.999293,-0.00141959,0.0375813,0.000181869,-0.723191,-0.0772967,9.78074,0.392232,-0.142859,0.855752,-0.00723388,-0.000782764,0.0978071,1,5.02057e-05,-1.00286e-05,-1.64301e-06,0.0100411,-0.00200572,-0.000328601,0.999293,-0.00141959,0.0375813,0.000181869,-0.246457,0.09764,-0.909301,36.125,1,44165,43806252
left,29,6,0.999293,-0.00137241,0.0375822,0.000181457,-0.721648,-0.0686757,9.78046,0.399352,-0.134002,0.860665,-0.00721602,-0.00069697,0.0978045,1,5.19865e-05,2.34904e-06,3.02457e-06,0.0103973,0.000469808,0.000604914,0.999293,-0.00137241,0.0375822,0.000181457,-0.2464,0.0956709,-0.908335,36.125,1,44166,43806352
left,29,7,0.999293,-0.00137241,0.0375822,0.000181457,-0.721648,-0.0686757,9.78046,0.399352,-0.134002,0.860665,-0.00721602,-0.00069697,0.0978045,1,5.19865e-05,2.34904e-06,3.02457e-06,0.0103973,0.000469808,0.000604914,0.999293,-0.00137241,0.0375822,0.000181457,-0.2464,0.0956709,-0.908335,36.125,1,44166,43806352
left,29,8,0.999293,-0.00137241,0.0375822,0.000181457,-0.721648,-0.0686757,9.78046,0.399352,-0.134002,0.860665,-0.00721602,-0.00069697,0.0978045,1,5.19865e-05,2.34904e-06,3.02457e-06,0.0103973,0.000469808,0.000604914,0.999293,-0.00137241,0.0375822,0.000181457,-0.2464,0.0956709,-0.908335,36.125,1,44166,43806352
left,29,9,0.999293,-0.00132853,0.037567,0.000189776,-0.733963,-0.0784108,9.78488,0.380937,-0.147066,0.859674,-0.00734238,-0.000793645,0.0978485,1,4.78347e-05,-1.41597e-05,1.20157e-05,0.00956694,-0.00283194,0.00240314,0.999293,-0.00132853,0.037567,0.000189776,-0.246902,0.0947264,-0.909869,36.125,1,44167,43806452
left,29,10,0.999293,-0.00132853,0.037567,0.000189776,-0.733963,-0.0784108,9.78488,0.380937,-0.147066,0.859674,-0.00734238,-0.000793645,0.0978485,1,4.78347e-05,-1.41597e-05,1.20157e-05,0.00956694,-0.00283194,0.00240314,0.999293,-0.00132853,0.037567,0.000189776,-0.246902,0.0947264,-0.909869,36.125,1,44167,43806452
left,29,11,0.999293,-0.00132853,0.037567,0.000189776,-0.733963,-0.0784108,9.78488,0.380937,-0.147066,0.859674,-0.00734238,-0.000793645,0.0978485,1,4.78347e-05,-1.41597e-05,1.20157e-05,0.00956694,-0.00283194,0.00240314,0.999293,-0.00132853,0.037567,0.000189776,-0.246902,0.0947264,-0.909869,36.125,1,44167,43806452
left,29,12,0.999294,-0.0012942,0.0375569,0.000192621,-0.738455,-0.0786262,9.7832,0.378405,-0.145742,0.862009,-0.0073863,-0.000794105,0.0978318,1,3.99277e-05,-8.98162e-06,2.08225e-06,0.00798553,-0.00179632,0.000416449,0.999294,-0.0012942,0.0375569,0.000192621,-0.245968,0.095703,-0.910357,36.125,1,44168,43806552
left,29,13,0.999294,-0.0012942,0.0375569,0.000192621,-0.738455,-0.0786262,9.7832,0.378405,-0.145742,0.862009,-0.0073863,-0.000794105,0.0978318,1,3.99277e-05,-8.98162e-06,2.08225e-06,0.00798553,-0.00179632,0.000416449,0.999294,-0.0012942,0.0375569,0.000192621,-0.245968,0.095703,-0.910357,36.125,1,44168,43806552
left,29,14,0.999294,-0.0012942,0.0375569,0.000192621,-0.738455,-0.0786262,9.7832,0.378405,-0.145742,0.862009,-0.0073863,-0.000794105,0.0978318,1,3.99277e-05,-8.98162e-06,2.08225e-06,0.00798553,-0.00179632,0.000416449,0.999294,-0.0012942,0.0375569,0.000192621,-0.245968,0.095703,-0.910357,36.125,1,44168,43806552
right,17,1,0.999294,-0.00125712,0.0375451,0.000207016,-0.735553,-0.0733249,9.77712,0.383359,-0.135647,0.859851,-0.00735759,-0.000741934,0.097771,1,4.30308e-05,-1.06485e-05,1.83622e-05,0.00860616,-0.00212971,0.00367244,0.999294,-0.00125712,0.0375451,0.000207016,-0.244052,0.0961747,-0.910355,36.125,1,44169,43806652
left,30,1,0.999294,-0.00125712,0.0375451,0.000207016,-0.735553,-0.0733249,9.77712,0.383359,-0.135647,0.859851,-0.00735759,-0.000741934,0.097771,1,4.30308e-05,-1.06485e-05,1.83622e-05,0.00860616,-0.00212971,0.00367244,0.999294,-0.00125712,0.0375451,0.000207016,-0.244052,0.0961747,-0.910355,36.125,1,44169,43806652
left,30,2,0.999294,-0.00125712,0.0375451,0.000207016,-0.735553,-0.0733249,9.77712,0.383359,-0.135647,0.859851,-0.00735759,-0.000741934,0.097771,1,4.30308e-05,-1.06485e-05,1.83622e-05,0.00860616,-0.00212971,0.00367244,0.999294,-0.00125712,0.0375451,0.000207016,-0.244052,0.0961747,-0.910355,36.125,1,44169,43806652
left,30,3,0.999295,-0.00121078,0.0375267,0.000208552,-0.732338,-0.0722227,9.78796,0.380761,-0.140694,0.865572,-0.00732678,-0.000732758,0.0978793,1,5.30594e-05,-1.74433e-05,9.84058e-06,0.0106119,-0.00348866,0.00196812,0.999295,-0.00121078,0.0375267,0.000208552,-0.245014,0.0961827,-0.91035,36.125,1,44170,43806752
left,30,4,0.999295,-0.00121078,0.0375267,0.000208552,-0.732338,-0.0722227,9.78796,0.380761,-0.140694,0.865572,-0.00732678,-0.000732758,0.0978793,1,5.30594e-05,-1.74433e-05,9.84058e-06,0.0106119,-0.00348866,0.00196812,0.999295,-0.00121078,0.0375267,0.000208552,-0.245014,0.0961827,-0.91035,36.125,1,44170,43806752
left,30,5,0.999295,-0.00121078,0.0375267,0.000208552,-0.732338,-0.0722227,9.78796,0.380761,-0.140694,0.865572,-0.00732678,-0.000732758,0.0978793,1,5.30594e-05,-1.74433e-05,9.84058e-06,0.0106119,-0.00348866,0.00196812,0.999295,-0.00121078,0.0375267,0.000208552,-0.245014,0.0961827,-0.91035,36.125,1,44170,43806752
left,30,6,0.999295,-0.00117864,0.0375173,0.000208273,-0.729642,-0.0764697,9.78588,0.385239,-0.144537,0.866465,-0.00729798,-0.000772455,0.0978586,1,3.9259e-05,-8.02615e-06,5.03462e-06,0.0078518,-0.00160523,0.00100692,0.999295,-0.00117864,0.0375173,0.000208273,-0.245964,0.0961817,-0.909841,36.125,1,44171,43806852
left,30,7,0.999295,-0.00117864,0.0375173,0.000208273,-0.729642,-0.0764697,9.78588,0.385239,-0.144537,0.866465,-0.00729798,-0.000772455,0.0978586,1,3.9259e-05,-8.02615e-06,5.03462e-06,0.0078518,-0.00160523,0.00100692,0.999295,-0.00117864,0.0375173,0.000208273,-0.245964,0.0961817,-0.909841,36.125,1,44171,43806852
left,30,8,0.999295,-0.00117864,0.0375173,0.000208273,-0.729642,-0.0764697,9.78588,0.385239,-0.144537,0.866465,-0.00729798,-0.000772455,0.0978586,1,3.9259e-05,-8.02615e-06,5.03462e-06,0.0078518,-0.00160523,0.00100692,0.999295,-0.00117864,0.0375173,0.000208273,-0.245964,0.0961817,-0.909841,36.125,1,44171,43806852
left,30,9,0.999296,-0.00114142,0.0375086,0.000227647,-0.732498,-0.0746575,9.77505,0.383865,-0.145515,0.853685,-0.0073264,-0.00075533,0.0977503,1,4.30736e-05,-7.42649e-06,2.27914e-05,0.00861472,-0.0014853,0.00455828,0.999296,-0.00114142,0.0375086,0.000227647,-0.246461,0.0971612,-0.909817,36.125,1,44172,43806952
left,30,10,0.999296,-0.00114142,0.0375086,0.000227647,-0.732498,-0.0746575,9.77505,0.383865,-0.145515,0.853685,-0.0073264,-0.00075533,0.0977503,1,4.30736e-05,-7.42649e-06,2.27914e-05,0.00861472,-0.0014853,0.00455828,0.999296,-0.00114142,0.0375086,0.000227647,-0.246461,0.0971612,-0.909817,36.125,1,44172,43806952
left,30,11,0.999296,-0.00114142,0.0375086,0.000227647,-0.732498,-0.0746575,9.77505,0.383865,-0.145515,0.853685,-0.0073264,-0.00075533,0.0977503,1,4.30736e-05,-7.42649e-06,2.27914e-05,0.00861472,-0.0014853,0.00455828,0.999296,-0.00114142,0.0375086,0.000227647,-0.246461,0.0971612,-0.909817,36.125,1,44172,43806952
left,30,12,0.999296,-0.0010956,0.037502,0.000237135,-0.720938,-0.0819293,9.76847,0.397647,-0.148522,0.846152,-0.00721022,-0.000829665,0.0976845,1,5.21447e-05,-4.40536e-06,1.28113e-05,0.0104289,-0.000881072,0.00256225,0.999296,-0.0010956,0.037502,0.000237135,-0.246478,0.0981368,-0.909795,36.125,1,44173,43807052
left,30,13,0.999296,-0.0010956,0.037502,0.000237135,-0.720938,-0.0819293,9.76847,0.397647,-0.148522,0.846152,-0.00721022,-0.000829665,0.0976845,1,5.21447e-05,-4.40536e-06,1.28113e-05,0.0104289,-0.000881072,0.00256225,0.999296,-0.0010956,0.037502,0.000237135,-0.246478,0.0981368,-0.909795,36.125,1,44173,43807052
left,30,14,0.999296,-0.0010956,0.037502,0.000237135,-0.720938,-0.0819293,9.76847,0.397647,-0.148522,0.846152,-0.00721022,-0.000829665,0.0976845,1,5.21447e-05,-4.40536e-06,1.28113e-05,0.0104289,-0.000881072,0.00256225,0.999296,-0.0010956,0.037502,0.000237135,-0.246478,0.0981368,-0.909795,36.125,1,44173,43807052
right,18,1,0.999296,-0.00106214,0.037502,0.000251678,-0.738247,-0.0785588,9.78319,0.380212,-0.153168,0.860062,-0.00738197,-0.000793831,0.0978319,1,4.06206e-05,2.36172e-06,1.99377e-05,0.00812412,0.000472343,0.00398754,0.999296,-0.00106214,0.037502,0.000251678,-0.246013,0.097663,-0.910818,36.125,1,44174,43807152
right,18,2,0.999296,-0.00106214,0.037502,0.000251678,-0.738247,-0.0785588,9.78319,0.380212,-0.153168,0.860062,-0.00738197,-0.000793831,0.0978319,1,4.06206e-05,2.36172e-06,1.99377e-05,0.00812412,0.000472343,0.00398754,0.999296,-0.00106214,0.037502,0.000251678,-0.246013,0.097663,-0.910818,36.125,1,44174,43807152
right,18,3,0.999296,-0.00106214,0.037502,0.000251678,-0.738247,-0.0785588,9.78319,0.380212,-0.153168,0.860062,-0.00738197,-0.000793831,0.0978319,1,4.06206e-05,2.36172e-06,1.99377e-05,0.00812412,0.000472343,0.00398754,0.999296,-0.00106214,0.037502,0.000251678,-0.246013,0.097663,-0.910818,36.125,1,44174,43807152
left,31,1,0.999297,-0.00102699,0.0374817,0.000248615,-0.734172,-0.0884576,9.78683,0.378815,-0.162422,0.863437,-0.00734515,-0.000893284,0.097868,1,4.42919e-05,-1.75459e-05,2.59619e-06,0.00885839,-0.00350918,0.000519238,0.999297,-0.00102699,0.0374817,0.000248615,-0.246503,0.0967095,-0.911847,36.125,1,44175,43807252
left,31,2,0.999297,-0.00102699,0.0374817,0.000248615,-0.734172,-0.0884576,9.78683,0.378815,-0.162422,0.863437,-0.00734515,-0.000893284,0.097868,1,4.42919e-05,-1.75459e-05,2.59619e-06,0.00885839,-0.00350918,0.000519238,0.999297,-0.00102699,0.0374817,0.000248615,-0.246503,0.0967095,-0.911847,36.125,1,44175,43807252
left,31,3,0.999297,-0.000995719,0.0374688,0.000243658,-0.730127,-0.063113,9.7887,0.387345,-0.133881,0.866829,-0.00730323,-0.000639501,0.0978868,1,4.307e-05,-9.98556e-06,-4.1647e-06,0.008614,-0.00199711,-0.000832939,0.999297,-0.000995719,0.0374688,0.000243658,-0.247913,0.0962157,-0.910841,36.125,1,44176,43807352
left,31,4,0.999297,-0.000995719,0.0374688,0.000243658,-0.730127,-0.063113,9.7887,0.387345,-0.133881,0.866829,-0.00730323,-0.000639501,0.0978868,1,4.307e-05,-9.98556e-06,-4.1647e-06,0.008614,-0.00199711,-0.000832939,0.999297,-0.000995719,0.0374688,0.000243658,-0.247913,0.0962157,-0.910841,36.125,1,44176,43807352
left,31,5,0.999297,-0.000995719,0.0374688,0.000243658,-0.730127,-0.063113,9.7887,0.387345,-0.133881,0.866829,-0.00730323,-0.000639501,0.0978868,1,4.307e-05,-9.98556e-06,-4.1647e-06,0.008614,-0.00199711,-0.000832939,0.999297,-0.000995719,0.0374688,0.000243658,-0.247913,0.0962157,-0.910841,36.125,1,44176,43807352
left,31,6,0.999298,-0.000969431,0.0374512,0.000246443,-0.740472,-0.0772535,9.78594,0.374373,-0.151007,0.866526,-0.00740749,-0.000779427,0.0978592,1,3.53735e-05,-1.41076e-05,-2.11225e-06,0.0070747,-0.00282152,-0.000422449,0.999298,-0.000969431,0.0374512,0.000246443,-0.247387,0.0956969,-0.90934,36.125,1,44177,43807452
left,31,7,0.999298,-0.000969431,0.0374512,0.000246443,-0.740472,-0.0772535,9.78594,0.374373,-0.151007,0.866526,-0.00740749,-0.000779427,0.0978592,1,3.53735e-05,-1.41076e-05,-2.11225e-06,0.0070747,-0.00282152,-0.000422449,0.999298,-0.000969431,0.0374512,0.000246443,-0.247387,0.0956969,-0.90934,36.125,1,44177,43807452
left,31,8,0.999298,-0.000969431,0.0374512,0.000246443,-0.740472,-0.0772535,9.78594,0.374373,-0.151007,0.866526,-0.00740749,-0.000779427,0.0978592,1,3.53735e-05,-1.41076e-05,-2.11225e-06,0.0070747,-0.00282152,-0.000422449,0.999298,-0.000969431,0.0374512,0.000246443,-0.247387,0.0956969,-0.90934,36.125,1,44177,43807452
left,31,9,0.999298,-0.000933101,0.0374504,0.000259488,-0.735174,-0.0758556,9.78828,0.380563,-0.151412,0.867306,-0.00735166,-0.000766873,0.0978828,1,4.16934e-05,3.03609e-07,1.05724e-05,0.00833869,6.07219e-05,0.00211448,0.999298,-0.000933101,0.0374504,0.000259488,-0.24737,0.0961667,-0.90832,36.125,1,44178,43807552
left,31,10,0.999298,-0.000933101,0.0374504,0.000259488,-0.735174,-0.0758556,9.78828,0.380563,-0.151412,0.867306,-0.00735166,-0.000766873,0.0978828,1,4.16934e-05,3.03609e-07,1.05724e-05,0.00833869,6.07219e-05,0.00211448,0.999298,-0.000933101,0.0374504,0.000259488,-0.24737,0.0961667,-0.90832,36.125,1,44178,43807552
left,31,11,0.999298,-0.000933101,0.0374504,0.000259488,-0.735174,-0.0758556,9.78828,0.380563,-0.151412,0.867306,-0.00735166,-0.000766873,0.0978828,1,4.16934e-05,3.03609e-07,1.05724e-05,0.00833869,6.07219e-05,0.00211448,0.999298,-0.000933101,0.0374504,0.000259488,-0.24737,0.0961667,-0.90832,36.125,1,44178,43807552
right,19,1,0.999298,-0.000881,0.0374487,0.000274372,-0.732757,-0.077731,9.78995,0.383018,-0.149431,0.865082,-0.00732781,-0.000788423,0.0978994,1,5.54733e-05,-1.33497e-06,1.71495e-05,0.0110947,-0.000266995,0.0034299,0.999298,-0.000881,0.0374487,0.000274372,-0.246861,0.0951781,-0.907839,36.125,1,44179,43807652
right,19,2,0.999298,-0.000881,0.0374487,0.000274372,-0.732757,-0.077731,9.78995,0.383018,-0.149431,0.865082,-0.00732781,-0.000788423,0.0978994,1,5.54733e-05,-1.33497e-06,1.71495e-05,0.0110947,-0.000266995,0.0034299,0.999298,-0.000881,0.0374487,0.000274372,-0.246861,0.0951781,-0.907839,36.125,1,44179,43807652
left,32,1,0.999298,-0.000881,0.0374487,0.000274372,-0.732757,-0.077731,9.78995,0.383018,-0.149431,0.865082,-0.00732781,-0.000788423,0.0978994,1,5.54733e-05,-1.33497e-06,1.71495e-05,0.0110947,-0.000266995,0.0034299,0.999298,-0.000881,0.0374487,0.000274372,-0.246861,0.0951781,-0.907839,36.125,1,44179,43807652
left,32,2,0.999299,-0.000834297,0.0374397,0.000275885,-0.738079,-0.0843262,9.78179,0.376517,-0.163791,0.860282,-0.00738269,-0.000853055,0.0978177,1,4.96675e-05,-9.73417e-06,5.16112e-06,0.00993349,-0.00194683,0.00103222,0.999299,-0.000834297,0.0374397,0.000275885,-0.247913,0.0962157,-0.910841,36.125,1,44180,43807752
left,32,3,0.999299,-0.000834297,0.0374397,0.000275885,-0.738079,-0.0843262,9.78179,0.376517,-0.163791,0.860282,-0.00738269,-0.000853055,0.0978177,1,4.96675e-05,-9.73417e-06,5.16112e-06,0.00993349,-0.00194683,0.00103222,0.999299,-0.000834297,0.0374397,0.000275885,-0.247913,0.0962157,-0.910841,36.125,1,44180,43807752
left,32,4,0.999299,-0.000834297,0.0374397,0.000275885,-0.738079,-0.0843262,9.78179,0.376517,-0.163791,0.860282,-0.00738269,-0.000853055,0.0978177,1,4.96675e-05,-9.73417e-06,5.16112e-06,0.00993349,-0.00194683,0.00103222,0.999299,-0.000834297,0.0374397,0.000275885,-0.247913,0.0962157,-0.910841,36.125,1,44180,43807752
left,32,5,0.999298,-0.000792108,0.0374431,0.000287358,-0.722989,-0.0792915,9.78139,0.389684,-0.156832,0.857381,-0.00722875,-0.000803459,0.0978139,1,5.3281e-05,5.74043e-06,8.37058e-06,0.0106562,0.00114809,0.00167412,0.999298,-0.000792108,0.0374431,0.000287358,-0.247926,0.0962248,-0.911346,36.125,1,44181,43807852
left,32,6,0.999298,-0.000792108,0.0374431,0.000287358,-0.722989,-0.0792915,9.78139,0.389684,-0.156832,0.857381,-0.00722875,-0.000803459,0.0978139,1,5.3281e-05,5.74043e-06,8.37058e-06,0.0106562,0.00114809,0.00167412,0.999298,-0.000792108,0.0374431,0.000287358,-0.247926,0.0962248,-0.911346,36.125,1,44181,43807852
left,32,7,0.999298,-0.000792108,0.0374431,0.000287358,-0.722989,-0.0792915,9.78139,0.389684,-0.156832,0.857381,-0.00722875,-0.000803459,0.0978139,1,5.3281e-05,5.74043e-06,8.37058e-06,0.0106562,0.00114809,0.00167412,0.999298,-0.000792108,0.0374431,0.000287358,-0.247926,0.0962248,-0.911346,36.125,1,44181,43807852
left,32,8,0.999299,-0.000751336,0.037431,0.000305517,-0.728235,-0.0763955,9.78824,0.382296,-0.155163,0.86451,-0.00728426,-0.00077466,0.0978822,1,5.36946e-05,-9.83266e-06,1.33196e-05,0.0107389,-0.00196653,0.00266391,0.999299,-0.000751336,0.037431,0.000305517,-0.246984,0.0967136,-0.911845,36.125,1,44182,43807952
left,32,9,0.999299,-0.000751336,0.037431,0.000305517,-0.728235,-0.0763955,9.78824,0.382296,-0.155163,0.86451,-0.00728426,-0.00077466,0.0978822,1,5.36946e-05,-9.83266e-06,1.33196e-05,0.0107389,-0.00196653,0.00266391,0.999299,-0.000751336,0.037431,0.000305517,-0.246984,0.0967136,-0.911845,36.125,1,44182,43807952
left,32,10,0.9993,-0.000718281,0.0374095,0.000311114,-0.747895,-0.0765964,9.78905,0.369411,-0.160474,0.86779,-0.00748255,-0.000775679,0.0978902,1,4.92036e-05,-1.84068e-05,5.42949e-06,0.00984073,-0.00368135,0.0010859,0.9993,-0.000718281,0.0374095,0.000311114,-0.245976,0.0961907,-0.910346,36.125,1,44183,43808052
left,32,11,0.9993,-0.000718281,0.0374095,0.000311114,-0.747895,-0.0765964,9.78905,0.369411,-0.160474,0.86779,-0.00748255,-0.000775679,0.0978902,1,4.92036e-05,-1.84068e-05,5.42949e-06,0.00984073,-0.00368135,0.0010859,0.9993,-0.000718281,0.0374095,0.000311114,-0.245976,0.0961907,-0.910346,36.125,1,44183,43808052
left,32,12,0.9993,-0.000718281,0.0374095,0.000311114,-0.747895,-0.0765964,9.78905,0.369411,-0.160474,0.86779,-0.00748255,-0.000775679,0.0978902,1,4.92036e-05,-1.84068e-05,5.42949e-06,0.00984073,-0.00368135,0.0010859,0.9993,-0.000718281,0.0374095,0.000311114,-0.245976,0.0961907,-0.910346,36.125,1,44183,43808052
right,20,1,0.9993,-0.000674943,0.0373993,0.000307333,-0.741454,-0.0802571,9.79237,0.367842,-0.158881,0.873611,-0.00741624,-0.000813336,0.0979234,1,5.43334e-05,-8.74505e-06,8.34084e-06,0.0108667,-0.00174901,0.00166817,0.9993,-0.000674943,0.0373993,0.000307333,-0.245931,0.0956759,-0.908842,36.125,1,44184,43808152
right,20,2,0.9993,-0.000674943,0.0373993,0.000307333,-0.741454,-0.0802571,9.79237,0.367842,-0.158881,0.873611,-0.00741624,-0.000813336,0.0979234,1,5.43334e-05,-8.74505e-06,8.34084e-06,0.0108667,-0.00174901,0.00166817,0.9993,-0.000674943,0.0373993,0.000307333,-0.245931,0.0956759,-0.908842,36.125,1,44184,43808152
right,20,3,0.9993,-0.000674943,0.0373993,0.000307333,-0.741454,-0.0802571,9.79237,0.367842,-0.158881,0.873611,-0.00741624,-0.000813336,0.0979234,1,5.43334e-05,-8.74505e-06,8.34084e-06,0.0108667,-0.00174901,0.00166817,0.9993,-0.000674943,0.0373993,0.000307333,-0.245931,0.0956759,-0.908842,36.125,1,44184,43808152
left,33,1,0.9993,-0.000639656,0.0374045,0.000295156,-0.729735,-0.0823217,9.78921,0.382533,-0.162323,0.866855,-0.00729623,-0.000831354,0.0978921,1,4.13898e-05,5.70143e-06,2.25384e-06,0.00827797,0.00114029,0.000450767,0.9993,-0.000639656,0.0374045,0.000295156,-0.246885,0.0966414,-0.907806,36.125,1,44185,43808252
left,33,2,0.9993,-0.000639656,0.0374045,0.000295156,-0.729735,-0.0823217,9.78921,0.382533,-0.162323,0.866855,-0.00729623,-0.000831354,0.0978921,1,4.13898e-05,5.70143e-06,2.25384e-06,0.00827797,0.00114029,0.000450767,0.9993,-0.000639656,0.0374045,0.000295156,-0.246885,0.0966414,-0.907806,36.125,1,44185,43808252
left,33,3,0.9993,-0.000639656,0.0374045,0.000295156,-0.729735,-0.0823217,9.78921,0.382533,-0.162323,0.866855,-0.00729623,-0.000831354,0.0978921,1,4.13898e-05,5.70143e-06,2.25384e-06,0.00827797,0.00114029,0.000450767,0.9993,-0.000639656,0.0374045,0.000295156,-0.246885,0.0966414,-0.907806,36.125,1,44185,43808252
left,33,4,0.999301,-0.000607504,0.0373867,0.000282744,-0.74064,-0.0747945,9.77918,0.374246,-0.15655,0.855742,-0.00740964,-0.000754739,0.0977915,1,3.48613e-05,-1.65327e-05,-1.62745e-06,0.00697227,-0.00330654,-0.000325491,0.999301,-0.000607504,0.0373867,0.000282744,-0.248386,0.095732,-0.91085,36.125,1,44186,43808352
left,33,5,0.999301,-0.000607504,0.0373867,0.000282744,-0.74064,-0.0747945,9.77918,0.374246,-0.15655,0.855742,-0.00740964,-0.000754739,0.0977915,1,3.48613e-05,-1.65327e-05,-1.62745e-06,0.00697227,-0.00330654,-0.000325491,0.999301,-0.000607504,0.0373867,0.000282744,-0.248386,0.095732,-0.91085,36.125,1,44186,43808352
left,33,6,0.999301,-0.000607504,0.0373867,0.000282744,-0.74064,-0.0747945,9.77918,0.374246,-0.15655,0.855742,-0.00740964,-0.000754739,0.0977915,1,3.48613e-05,-1.65327e-05,-1.62745e-06,0.00697227,-0.00330654,-0.000325491,0.999301,-0.000607504,0.0373867,0.000282744,-0.248386,0.095732,-0.91085,36.125,1,44186,43808352
left,33,7,0.999301,-0.000580863,0.0373772,0.000291983,-0.736914,-0.0676045,9.78023,0.380146,-0.148023,0.854823,-0.00737045,-0.000683896,0.0978022,1,4.01959e-05,-6.68874e-06,-7.71187e-07,0.00803918,-0.00133775,-0.000154237,0.999301,-0.000580863,0.0373772,0.000291983,-0.247441,0.093809,-0.912917,36.125,1,44187,43808452
left,33,8,0.999301,-0.000580863,0.0373772,0.000291983,-0.736914,-0.0676045,9.78023,0.380146,-0.148023,0.854823,-0.00737045,-0.000683896,0.0978022,1,4.01959e-05,-6.68874e-06,-7.71187e-07,0.00803918,-0.00133775,-0.000154237,0.999301,-0.000580863,0.0373772,0.000291983,-0.247441,0.093809,-0.912917,36.125,1,44187,43808452
left,33,9,0.999301,-0.000580863,0.0373772,0.000291983,-0.736914,-0.0676045,9.78023,0.380146,-0.148023,0.854823,-0.00737045,-0.000683896,0.0978022,1,4.01959e-05,-6.68874e-06,-7.71187e-07,0.00803918,-0.00133775,-0.000154237,0.999301,-0.000580863,0.0373772,0.000291983,-0.247441,0.093809,-0.912917,36.125,1,44187,43808452
left,33,10,0.999301,-0.000558782,0.0373734,0.000314908,-0.736078,-0.0850079,9.78516,0.375025,-0.166036,0.862902,-0.00736105,-0.000859007,0.0978515,1,4.50295e-05,-1.4307e-06,7.85826e-06,0.0090059,-0.000286139,0.00157165,0.999301,-0.000558782,0.0373734,0.000314908,-0.245981,0.095712,-0.910861,36.125,1,44188,43808552
left,33,11,0.999301,-0.000558782,0.0373734,0.000314908,-0.736078,-0.0850079,9.78516,0.375025,-0.166036,0.862902,-0.00736105,-0.000859007,0.0978515,1,4.50295e-05,-1.4307e-06,7.85826e-06,0.0090059,-0.000286139,0.00157165,0.999301,-0.000558782,0.0373734,0.000314908,-0.245981,0.095712,-0.910861,36.125,1,44188,43808552
left,33,12,0.999301,-0.000558782,0.0373734,0.000314908,-0.736078,-0.0850079,9.78516,0.375025,-0.166036,0.862902,-0.00736105,-0.000859007,0.0978515,1,4.50295e-05,-1.4307e-06,7.85826e-06,0.0090059,-0.000286139,0.00157165,0.999301,-0.000558782,0.0373734,0.000314908,-0.245981,0.095712,-0.910861,36.125,1,44188,43808552
right,21,1,0.999301,-0.000531033,0.0373709,0.000318806,-0.728735,-0.0751262,9.78722,0.384208,-0.15988,0.863136,-0.00728758,-0.00075996,0.0978722,1,4.31947e-05,-1.32265e-06,1.66969e-05,0.00863894,-0.00026453,0.00333938,0.999301,-0.000531033,0.0373709,0.000318806,-0.245923,0.0951881,-0.908853,36.125,1,44189,43808652
right,21,2,0.999301,-0.000531033,0.0373709,0.000318806,-0.728735,-0.0751262,9.78722,0.384208,-0.15988,0.863136,-0.00728758,-0.00075996,0.0978722,1,4.31947e-05,-1.32265e-06,1.66969e-05,0.00863894,-0.00026453,0.00333938,0.999301,-0.000531033,0.0373709,0.000318806,-0.245923,0.0951881,-0.908853,36.125,1,44189,43808652
right,21,3,0.999301,-0.000531033,0.0373709,0.000318806,-0.728735,-0.0751262,9.78722,0.384208,-0.15988,0.863136,-0.00728758,-0.00075996,0.0978722,1,4.31947e-05,-1.32265e-06,1.66969e-05,0.00863894,-0.00026453,0.00333938,0.999301,-0.000531033,0.0373709,0.000318806,-0.245923,0.0951881,-0.908853,36.125,1,44189,43808652
left,34,1,0.999301,-0.000486811,0.037371,0.000312582,-0.74231,-0.0792015,9.7822,0.372117,-0.160319,0.861162,-0.00742305,-0.000801961,0.0978219,1,4.98463e-05,1.18841e-07,1.30068e-05,0.00996926,2.37683e-05,0.00260135,0.999301,-0.000486811,0.037371,0.000312582,-0.246413,0.0942346,-0.909882,36.125,1,44190,43808752
left,34,2,0.999301,-0.000486811,0.037371,0.000312582,-0.74231,-0.0792015,9.7822,0.372117,-0.160319,0.861162,-0.00742305,-0.000801961,0.0978219,1,4.98463e-05,1.18841e-07,1.30068e-05,0.00996926,2.37683e-05,0.00260135,0.999301,-0.000486811,0.037371,0.000312582,-0.246413,0.0942346,-0.909882,36.125,1,44190,43808752
left,34,3,0.999301,-0.000486811,0.037371,0.000312582,-0.74231,-0.0792015,9.7822,0.372117,-0.160319,0.861162,-0.00742305,-0.000801961,0.0978219,1,4.98463e-05,1.18841e-07,1.30068e-05,0.00996926,2.37683e-05,0.00260135,0.999301,-0.000486811,0.037371,0.000312582,-0.246413,0.0942346,-0.909882,36.125,1,44190,43808752
left,34,4,0.999301,-0.000457514,0.0373736,0.000311902,-0.73181,-0.0634976,9.78634,0.379555,-0.147441,0.861638,-0.00731771,-0.000642819,0.0978634,1,3.9721e-05,1.93519e-06,4.69168e-06,0.00794419,0.000387038,0.000938336,0.999301,-0.000457514,0.0373736,0.000311902,-0.246918,0.0957019,-0.909847,36.125,1,44191,43808852
left,34,5,0.999301,-0.000457514,0.0373736,0.000311902,-0.73181,-0.0634976,9.78634,0.379555,-0.147441,0.861638,-0.00731771,-0.000642819,0.0978634,1,3.9721e-05,1.93519e-06,4.69168e-06,0.00794419,0.000387038,0.000938336,0.999301,-0.000457514,0.0373736,0.000311902,-0.246918,0.0957019,-0.909847,36.125,1,44191,43808852
left,34,6,0.999301,-0.000457514,0.0373736,0.000311902,-0.73181,-0.0634976,9.78634,0.379555,-0.147441,0.861638,-0.00731771,-0.000642819,0.0978634,1,3.9721e-05,1.93519e-06,4.69168e-06,0.00794419,0.000387038,0.000938336,0.999301,-0.000457514,0.0373736,0.000311902,-0.246918,0.0957019,-0.909847,36.125,1,44191,43808852
left,34,7,0.999301,-0.00041938,0.0373666,0.000324208,-0.728909,-0.0839204,9.79123,0.384968,-0.173841,0.869391,-0.00729007,-0.000849067,0.0979122,1,4.90807e-05,-5.17804e-06,1.72351e-05,0.00981614,-0.00103561,0.00344701,0.999301,-0.00041938,0.0373666,0.000324208,-0.247419,0.097648,-0.909297,36.125,1,44192,43808952
left,34,8,0.999301,-0.00041938,0.0373666,0.000324208,-0.728909,-0.0839204,9.79123,0.384968,-0.173841,0.869391,-0.00729007,-0.000849067,0.0979122,1,4.90807e-05,-5.17804e-06,1.72351e-05,0.00981614,-0.00103561,0.00344701,0.999301,-0.00041938,0.0373666,0.000324208,-0.247419,0.097648,-0.909297,36.125,1,44192,43808952
left,34,9,0.999301,-0.00041938,0.0373666,0.000324208,-0.728909,-0.0839204,9.79123,0.384968,-0.173841,0.869391,-0.00729007,-0.000849067,0.0979122,1,4.90807e-05,-5.17804e-06,1.72351e-05,0.00981614,-0.00103561,0.00344701,0.999301,-0.00041938,0.0373666,0.000324208,-0.247419,0.097648,-0.909297,36.125,1,44192,43808952
left,34,10,0.999302,-0.000384943,0.0373507,0.000327272,-0.726582,-0.0790944,9.776,0.38177,-0.163521,0.856009,-0.0072681,-0.000799961,0.0977598,1,4.45677e-05,-1.17886e-05,2.088e-05,0.00891353,-0.00235771,0.004176,0.999302,-0.000384943,0.0373507,0.000327272,-0.245474,0.0971352,-0.908812,36.125,1,44193,43809052
left,34,11,0.999302,-0.000384943,0.0373507,0.000327272,-0.726582,-0.0790944,9.776,0.38177,-0.163521,0.856009,-0.0072681,-0.000799961,0.0977598,1,4.45677e-05,-1.17886e-05,2.088e-05,0.00891353,-0.00235771,0.004176,0.999302,-0.000384943,0.0373507,0.000327272,-0.245474,0.0971352,-0.908812,36.125,1,44193,43809052
left,34,12,0.999302,-0.000384943,0.0373507,0.000327272,-0.726582,-0.0790944,9.776,0.38177,-0.163521,0.856009,-0.0072681,-0.000799961,0.0977598,1,4.45677e-05,-1.17886e-05,2.088e-05,0.00891353,-0.00235771,0.004176,0.999302,-0.000384943,0.0373507,0.000327272,-0.245474,0.0971352,-0.908812,36.125,1,44193,43809052
right,22,1,0.999303,-0.000351593,0.0373349,0.000292168,-0.733016,-0.0771357,9.78352,0.384714,-0.160633,0.858969,-0.00733282,-0.000779939,0.0978349,1,4.29993e-05,-1.36975e-05,1.14497e-05,0.00859986,-0.00273951,0.00228993,0.999303,-0.000351593,0.0373349,0.000292168,-0.24596,0.0966605,-0.909325,36.125,1,44194,43809152
left,35,1,0.999303,-0.000351593,0.0373349,0.000292168,-0.733016,-0.0771357,9.78352,0.384714,-0.160633,0.858969,-0.00733282,-0.000779939,0.0978349,1,4.29993e-05,-1.36975e-05,1.14497e-05,0.00859986,-0.00273951,0.00228993,0.999303,-0.000351593,0.0373349,0.000292168,-0.24596,0.0966605,-0.909325,36.125,1,44194,43809152
left,35,2,0.999303,-0.000351593,0.0373349,0.000292168,-0.733016,-0.0771357,9.78352,0.384714,-0.160633,0.858969,-0.00733282,-0.000779939,0.0978349,1,4.29993e-05,-1.36975e-05,1.14497e-05,0.00859986,-0.00273951,0.00228993,0.999303,-0.000351593,0.0373349,0.000292168,-0.24596,0.0966605,-0.909325,36.125,1,44194,43809152
left,35,3,0.999303,-0.000321248,0.0373143,0.000279844,-0.728356,-0.0732904,9.77674,0.383497,-0.160429,0.852887,-0.0072867,-0.000741438,0.0977671,1,4.25632e-05,-1.61549e-05,1.45548e-05,0.00851264,-0.00323097,0.00291096,0.999303,-0.000321248,0.0373143,0.000279844,-0.245985,0.0966785,-0.910335,36.125,1,44195,43809252
left,35,4,0.999303,-0.000321248,0.0373143,0.000279844,-0.728356,-0.0732904,9.77674,0.383497,-0.160429,0.852887,-0.0072867,-0.000741438,0.0977671,1,4.25632e-05,-1.61549e-05,1.45548e-05,0.00851264,-0.00323097,0.00291096,0.999303,-0.000321248,0.0373143,0.000279844,-0.245985,0.0966785,-0.910335,36.125,1,44195,43809252
left,35,5,0.999303,-0.000321248,0.0373143,0.000279844,-0.728356,-0.0732904,9.77674,0.383497,-0.160429,0.852887,-0.0072867,-0.000741438,0.0977671,1,4.25632e-05,-1.61549e-05,1.45548e-05,0.00851264,-0.00323097,0.00291096,0.999303,-0.000321248,0.0373143,0.000279844,-0.245985,0.0966785,-0.910335,36.125,1,44195,43809252
left,35,6,0.999304,-0.000297063,0.0372979,0.000271832,-0.741307,-0.0767919,9.77916,0.370201,-0.16649,0.855847,-0.00741527,-0.000776694,0.0977914,1,4.39845e-05,-1.13452e-05,1.1627e-05,0.0087969,-0.00226905,0.00232541,0.999304,-0.000297063,0.0372979,0.000271832,-0.245038,0.097646,-0.910318,36.125,1,44196,43809352
left,35,7,0.999304,-0.000297063,0.0372979,0.000271832,-0.741307,-0.0767919,9.77916,0.370201,-0.16649,0.855847,-0.00741527,-0.000776694,0.0977914,1,4.39845e-05,-1.13452e-05,1.1627e-05,0.0087969,-0.00226905,0.00232541,0.999304,-0.000297063,0.0372979,0.000271832,-0.245038,0.097646,-0.910318,36.125,1,44196,43809352
left,35,8,0.999304,-0.000297063,0.0372979,0.000271832,-0.741307,-0.0767919,9.77916,0.370201,-0.16649,0.855847,-0.00741527,-0.000776694,0.0977914,1,4.39845e-05,-1.13452e-05,1.1627e-05,0.0087969,-0.00226905,0.00232541,0.999304,-0.000297063,0.0372979,0.000271832,-0.245038,0.097646,-0.910318,36.125,1,44196,43809352
left,35,9,0.999304,-0.000277921,0.0372967,0.000255339,-0.720653,-0.078043,9.78138,0.388132,-0.166912,0.860443,-0.00720483,-0.000788782,0.0978138,1,4.10005e-05,8.51789e-06,2.29888e-05,0.00820011,0.00170358,0.00459776,0.999304,-0.000277921,0.0372967,0.000255339,-0.244981,0.0956769,-0.909352,36.125,1,44197,43809452
left,35,10,0.999304,-0.000277921,0.0372967,0.000255339,-0.720653,-0.078043,9.78138,0.388132,-0.166912,0.860443,-0.00720483,-0.000788782,0.0978138,1,4.10005e-05,8.51789e-06,2.29888e-05,0.00820011,0.00170358,0.00459776,0.999304,-0.000277921,0.0372967,0.000255339,-0.244981,0.0956769,-0.909352,36.125,1,44197,43809452
left,35,11,0.999304,-0.000277921,0.0372967,0.000255339,-0.720653,-0.078043,9.78138,0.388132,-0.166912,0.860443,-0.00720483,-0.000788782,0.0978138,1,4.10005e-05,8.51789e-06,2.29888e-05,0.00820011,0.00170358,0.00459776,0.999304,-0.000277921,0.0372967,0.000255339,-0.244981,0.0956769,-0.909352,36.125,1,44197,43809452
left,35,12,0.999304,-0.000247323,0.0372939,0.00023999,-0.719517,-0.0705614,9.78518,0.393349,-0.155781,0.862411,-0.00719572,-0.000714924,0.0978517,1,4.66593e-05,-2.91315e-06,1.24143e-05,0.00933186,-0.00058263,0.00248286,0.999304,-0.000247323,0.0372939,0.00023999,-0.24696,0.0952502,-0.911877,36.125,1,44198,43809552
left,35,13,0.999304,-0.000247323,0.0372939,0.00023999,-0.719517,-0.0705614,9.78518,0.393349,-0.155781,0.862411,-0.00719572,-0.000714924,0.0978517,1,4.66593e-05,-2.91315e-06,1.24143e-05,0.00933186,-0.00058263,0.00248286,0.999304,-0.000247323,0.0372939,0.00023999,-0.24696,0.0952502,-0.911877,36.125,1,44198,43809552
left,35,14,0.999304,-0.000247323,0.0372939,0.00023999,-0.719517,-0.0705614,9.78518,0.393349,-0.155781,0.862411,-0.00719572,-0.000714924,0.0978517,1,4.66593e-05,-2.91315e-06,1.24143e-05,0.00933186,-0.00058263,0.00248286,0.999304,-0.000247323,0.0372939,0.00023999,-0.24696,0.0952502,-0.911877,36.125,1,44198,43809552
right,23,1,0.999304,-0.000227311,0.0372914,0.000250137,-0.73461,-0.075081,9.78048,0.376762,-0.163718,0.860462,-0.00734528,-0.000759839,0.0978048,1,4.57298e-05,4.17421e-06,5.67936e-06,0.00914596,0.000834841,0.00113587,0.999304,-0.000227311,0.0372914,0.000250137,-0.24795,0.0962428,-0.912356,36.125,1,44199,43809652
left,36,1,0.999304,-0.000227311,0.0372914,0.000250137,-0.73461,-0.075081,9.78048,0.376762,-0.163718,0.860462,-0.00734528,-0.000759839,0.0978048,1,4.57298e-05,4.17421e-06,5.67936e-06,0.00914596,0.000834841,0.00113587,0.999304,-0.000227311,0.0372914,0.000250137,-0.24795,0.0962428,-0.912356,36.125,1,44199,43809652
left,36,2,0.999304,-0.000227311,0.0372914,0.000250137,-0.73461,-0.075081,9.78048,0.376762,-0.163718,0.860462,-0.00734528,-0.000759839,0.0978048,1,4.57298e-05,4.17421e-06,5.67936e-06,0.00914596,0.000834841,0.00113587,0.999304,-0.000227311,0.0372914,0.000250137,-0.24795,0.0962428,-0.912356,36.125,1,44199,43809652
left,36,3,0.999305,-0.000214877,0.0372633,0.00026257,-0.725093,-0.0798461,9.78446,0.387298,-0.169803,0.860631,-0.00725431,-0.000806216,0.0978443,1,3.95812e-05,-1.72444e-05,6.31298e-07,0.00791624,-0.00344888,0.00012626,0.999305,-0.000214877,0.0372633,0.00026257,-0.248411,0.0971953,-0.910817,36.125,1,44200,43809752
left,36,4,0.999305,-0.000214877,0.0372633,0.00026257,-0.725093,-0.0798461,9.78446,0.387298,-0.169803,0.860631,-0.00725431,-0.000806216,0.0978443,1,3.95812e-05,-1.72444e-05,6.31298e-07,0.00791624,-0.00344888,0.00012626,0.999305,-0.000214877,0.0372633,0.00026257,-0.248411,0.0971953,-0.910817,36.125,1,44200,43809752
left,36,5,0.999305,-0.000214877,0.0372633,0.00026257,-0.725093,-0.0798461,9.78446,0.387298,-0.169803,0.860631,-0.00725431,-0.000806216,0.0978443,1,3.95812e-05,-1.72444e-05,6.31298e-07,0.00791624,-0.00344888,0.00012626,0.999305,-0.000214877,0.0372633,0.00026257,-0.248411,0.0971953,-0.910817,36.125,1,44200,43809752
left,36,6,0.999306,-0.000195635,0.0372517,0.000277842,-0.731096,-0.0786025,9.79094,0.378773,-0.170564,0.870137,-0.00731081,-0.000793298,0.0979094,1,3.65618e-05,6.9291e-07,7.81577e-06,0.00731237,0.000138582,0.00156315,0.999306,-0.000195635,0.0372517,0.000277842,-0.247872,0.0966675,-0.908811,36.125,1,44201,43809852
left,36,7,0.999306,-0.000195635,0.0372517,0.000277842,-0.731096,-0.0786025,9.79094,0.378773,-0.170564,0.870137,-0.00731081,-0.000793298,0.0979094,1,3.65618e-05,6.9291e-07,7.81577e-06,0.00731237,0.000138582,0.00156315,0.999306,-0.000195635,0.0372517,0.000277842,-0.247872,0.0966675,-0.908811,36.125,1,44201,43809852
left,36,8,0.999306,-0.000195635,0.0372517,0.000277842,-0.731096,-0.0786025,9.79094,0.378773,-0.170564,0.870137,-0.00731081,-0.000793298,0.0979094,1,3.65618e-05,6.9291e-07,7.81577e-06,0.00731237,0.000138582,0.00156315,0.999306,-0.000195635,0.0372517,0.000277842,-0.247872,0.0966675,-0.908811,36.125,1,44201,43809852
left,36,9,0.999306,-0.000158699,0.0372495,0.0002684,-0.724839,-0.0722071,9.77975,0.383365,-0.159856,0.860228,-0.0072478,-0.000730004,0.0977975,1,4.03244e-05,3.00986e-06,3.1445e-06,0.00806489,0.000601973,0.000628899,0.999306,-0.000158699,0.0372495,0.0002684,-0.24596,0.0966605,-0.909325,36.125,1,44202,43809952
left,36,10,0.999306,-0.000158699,0.0372495,0.0002684,-0.724839,-0.0722071,9.77975,0.383365,-0.159856,0.860228,-0.0072478,-0.000730004,0.0977975,1,4.03244e-05,3.00986e-06,3.1445e-06,0.00806489,0.000601973,0.000628899,0.999306,-0.000158699,0.0372495,0.0002684,-0.24596,0.0966605,-0.909325,36.125,1,44202,43809952
left,36,11,0.999306,-0.000158699,0.0372495,0.0002684,-0.724839,-0.0722071,9.77975,0.383365,-0.159856,0.860228,-0.0072478,-0.000730004,0.0977975,1,4.03244e-05,3.00986e-06,3.1445e-06,0.00806489,0.000601973,0.000628899,0.999306,-0.000158699,0.0372495,0.0002684,-0.24596,0.0966605,-0.909325,36.125,1,44202,43809952
left,36,12,0.999306,-0.000122355,0.0372342,0.000226451,-0.728368,-0.0763263,9.77976,0.382777,-0.169478,0.858097,-0.00728582,-0.000773151,0.0977973,1,5.04125e-05,-1.09375e-05,1.87948e-06,0.0100825,-0.00218751,0.000375896,0.999306,-0.000122355,0.0372342,0.000226451,-0.245047,0.0966885,-0.911349,36.125,1,44203,43810052
left,36,13,0.999306,-0.000122355,0.0372342,0.000226451,-0.728368,-0.0763263,9.77976,0.382777,-0.169478,0.858097,-0.00728582,-0.000773151,0.0977973,1,5.04125e-05,-1.09375e-05,1.87948e-06,0.0100825,-0.00218751,0.000375896,0.999306,-0.000122355,0.0372342,0.000226451,-0.245047,0.0966885,-0.911349,36.125,1,44203,43810052
left,36,14,0.999306,-0.000122355,0.0372342,0.000226451,-0.728368,-0.0763263,9.77976,0.382777,-0.169478,0.858097,-0.00728582,-0.000773151,0.0977973,1,5.04125e-05,-1.09375e-05,1.87948e-06,0.0100825,-0.00218751,0.000375896,0.999306,-0.000122355,0.0372342,0.000226451,-0.245047,0.0966885,-0.911349,36.125,1,44203,43810052
right,24,1,0.999307,-0.000107743,0.0372121,0.000199753,-0.727189,-0.0764273,9.78281,0.380757,-0.171685,0.857976,-0.00727403,-0.000774123,0.0978279,1,4.86598e-05,-1.11241e-05,2.2666e-05,0.00973197,-0.00222483,0.00453321,0.999307,-0.000107743,0.0372121,0.000199753,-0.246021,0.0981508,-0.910807,36.125,1,44204,43810152
right,24,2,0.999307,-0.000107743,0.0372121,0.000199753,-0.727189,-0.0764273,9.78281,0.380757,-0.171685,0.857976,-0.00727403,-0.000774123,0.0978279,1,4.86598e-05,-1.11241e-05,2.2666e-05,0.00973197,-0.00222483,0.00453321,0.999307,-0.000107743,0.0372121,0.000199753,-0.246021,0.0981508,-0.910807,36.125,1,44204,43810152
right,24,3,0.999307,-0.000107743,0.0372121,0.000199753,-0.727189,-0.0764273,9.78281,0.380757,-0.171685,0.857976,-0.00727403,-0.000774123,0.0978279,1,4.86598e-05,-1.11241e-05,2.2666e-05,0.00973197,-0.00222483,0.00453321,0.999307,-0.000107743,0.0372121,0.000199753,-0.246021,0.0981508,-0.910807,36.125,1,44204,43810152
left,37,1,0.999309,-0.000100836,0.0371749,0.000154999,-0.726847,-0.0771635,9.78653,0.385858,-0.173904,0.862928,-0.00727194,-0.000778949,0.097865,1,3.6452e-05,-1.78031e-05,1.23438e-05,0.0072904,-0.00356061,0.00246876,0.999309,-0.000100836,0.0371749,0.000154999,-0.245993,0.095721,-0.911366,36.125,1,44205,43810252
left,37,2,0.999309,-0.000100836,0.0371749,0.000154999,-0.726847,-0.0771635,9.78653,0.385858,-0.173904,0.862928,-0.00727194,-0.000778949,0.097865,1,3.6452e-05,-1.78031e-05,1.23438e-05,0.0072904,-0.00356061,0.00246876,0.999309,-0.000100836,0.0371749,0.000154999,-0.245993,0.095721,-0.911366,36.125,1,44205,43810252
left,37,3,0.999309,-0.000100836,0.0371749,0.000154999,-0.726847,-0.0771635,9.78653,0.385858,-0.173904,0.862928,-0.00727194,-0.000778949,0.097865,1,3.6452e-05,-1.78031e-05,1.23438e-05,0.0072904,-0.00356061,0.00246876,0.999309,-0.000100836,0.0371749,0.000154999,-0.245993,0.095721,-0.911366,36.125,1,44205,43810252
left,37,4,0.99931,-9.62363e-05,0.0371531,0.000146715,-0.729552,-0.0809363,9.78923,0.380685,-0.172026,0.871204,-0.00729802,-0.000816616,0.097892,1,3.62434e-05,-1.2852e-05,1.07401e-05,0.00724869,-0.0025704,0.00214801,0.99931,-9.62363e-05,0.0371531,0.000146715,-0.246927,0.0932992,-0.911921,36.125,1,44206,43810352
left,37,5,0.99931,-9.62363e-05,0.0371531,0.000146715,-0.729552,-0.0809363,9.78923,0.380685,-0.172026,0.871204,-0.00729802,-0.000816616,0.097892,1,3.62434e-05,-1.2852e-05,1.07401e-05,0.00724869,-0.0025704,0.00214801,0.99931,-9.62363e-05,0.0371531,0.000146715,-0.246927,0.0932992,-0.911921,36.125,1,44206,43810352
left,37,6,0.99931,-9.62363e-05,0.0371531,0.000146715,-0.729552,-0.0809363,9.78923,0.380685,-0.172026,0.871204,-0.00729802,-0.000816616,0.097892,1,3.62434e-05,-1.2852e-05,1.07401e-05,0.00724869,-0.0025704,0.00214801,0.99931,-9.62363e-05,0.0371531,0.000146715,-0.246927,0.0932992,-0.911921,36.125,1,44206,43810352
left,37,7,0.99931,-7.60683e-05,0.0371526,0.000172453,-0.731646,-0.0867491,9.7919,0.372338,-0.177652,0.870182,-0.00731702,-0.000876636,0.0979189,1,4.73336e-05,-2.80105e-06,-8.54017e-06,0.00946672,-0.000560209,-0.00170803,0.99931,-7.60683e-05,0.0371526,0.000172453,-0.245919,0.0956669,-0.908337,36.125,1,44207,43810452
left,37,8,0.99931,-7.60683e-05,0.0371526,0.000172453,-0.731646,-0.0867491,9.7919,0.372338,-0.177652,0.870182,-0.00731702,-0.000876636,0.0979189,1,4.73336e-05,-2.80105e-06,-8.54017e-06,0.00946672,-0.000560209,-0.00170803,0.99931,-7.60683e-05,0.0371526,0.000172453,-0.245919,0.0956669,-0.908337,36.125,1,44207,43810452
left,37,9,0.99931,-7.60683e-05,0.0371526,0.000172453,-0.731646,-0.0867491,9.7919,0.372338,-0.177652,0.870182,-0.00731702,-0.000876636,0.0979189,1,4.73336e-05,-2.80105e-06,-8.54017e-06,0.00946672,-0.000560209,-0.00170803,0.99931,-7.60683e-05,0.0371526,0.000172453,-0.245919,0.0956669,-0.908337,36.125,1,44207,43810452
left,37,10,0.99931,-3.72878e-05,0.0371457,0.000132381,-0.730349,-0.079181,9.77941,0.37608,-0.172252,0.85455,-0.00730502,-0.000799904,0.0977939,1,4.08478e-05,-7.87532e-06,7.15434e-06,0.00816956,-0.00157506,0.00143087,0.99931,-3.72878e-05,0.0371457,0.000132381,-0.246914,0.097626,-0.908289,36.125,1,44208,43810552
left,37,11,0.99931,-3.72878e-05,0.0371457,0.000132381,-0.730349,-0.079181,9.77941,0.37608,-0.172252,0.85455,-0.00730502,-0.000799904,0.0977939,1,4.08478e-05,-7.87532e-06,7.15434e-06,0.00816956,-0.00157506,0.00143087,0.99931,-3.72878e-05,0.0371457,0.000132381,-0.246914,0.097626,-0.908289,36.125,1,44208,43810552
left,37,12,0.99931,-3.72878e-05,0.0371457,0.000132381,-0.730349,-0.079181,9.77941,0.37608,-0.172252,0.85455,-0.00730502,-0.000799904,0.0977939,1,4.08478e-05,-7.87532e-06,7.15434e-06,0.00816956,-0.00157506,0.00143087,0.99931,-3.72878e-05,0.0371457,0.000132381,-0.246914,0.097626,-0.908289,36.125,1,44208,43810552
right,25,1,0.999311,-1.68856e-07,0.0371225,8.38632e-05,-0.729345,-0.0678334,9.78086,0.381649,-0.162992,0.857152,-0.00729564,-0.000686146,0.0978084,1,3.89889e-05,-1.13138e-05,1.27198e-05,0.00779778,-0.00226276,0.00254396,0.999311,-1.68856e-07,0.0371225,8.38632e-05,-0.247852,0.0961707,-0.908317,36.125,1,44209,43810652
left,38,1,0.999311,-1.68856e-07,0.0371225,8.38632e-05,-0.729345,-0.0678334,9.78086,0.381649,-0.162992,0.857152,-0.00729564,-0.000686146,0.0978084,1,3.89889e-05,-1.13138e-05,1.27198e-05,0.00779778,-0.00226276,0.00254396,0.999311,-1.68856e-07,0.0371225,8.38632e-05,-0.247852,0.0961707,-0.908317,36.125,1,44209,43810652
left,38,2,0.999311,-1.68856e-07,0.0371225,8.38632e-05,-0.729345,-0.0678334,9.78086,0.381649,-0.162992,0.857152,-0.00729564,-0.000686146,0.0978084,1,3.89889e-05,-1.13138e-05,1.27198e-05,0.00779778,-0.00226276,0.00254396,0.999311,-1.68856e-07,0.0371225,8.38632e-05,-0.247852,0.0961707,-0.908317,36.125,1,44209,43810652
left,38,3,0.999311,4.64581e-05,0.0371102,7.09973e-05,-0.729034,-0.0766825,9.77569,0.379489,-0.174904,0.854824,-0.00729171,-0.000775919,0.0977567,1,4.53219e-05,-7.15442e-06,1.59962e-05,0.00906439,-0.00143088,0.00319924,0.999311,4.64581e-05,0.0371102,7.09973e-05,-0.247395,0.0961847,-0.909329,36.125,1,44210,43810752
left,38,4,0.999311,4.64581e-05,0.0371102,7.09973e-05,-0.729034,-0.0766825,9.77569,0.379489,-0.174904,0.854824,-0.00729171,-0.000775919,0.0977567,1,4.53219e-05,-7.15442e-06,1.59962e-05,0.00906439,-0.00143088,0.00319924,0.999311,4.64581e-05,0.0371102,7.09973e-05,-0.247395,0.0961847,-0.909329,36.125,1,44210,43810752
left,38,5,0.999311,4.64581e-05,0.0371102,7.09973e-05,-0.729034,-0.0766825,9.77569,0.379489,-0.174904,0.854824,-0.00729171,-0.000775919,0.0977567,1,4.53219e-05,-7.15442e-06,1.59962e-05,0.00906439,-0.00143088,0.00319924,0.999311,4.64581e-05,0.0371102,7.09973e-05,-0.247395,0.0961847,-0.909329,36.125,1,44210,43810752
left,38,6,0.999312,8.44887e-05,0.0371018,4.34934e-05,-0.72401,-0.0721918,9.78145,0.384798,-0.16699,0.860935,-0.00724002,-0.000731688,0.0978145,1,4.98649e-05,3.9663e-07,1.04856e-06,0.00997298,7.9326e-05,0.000209711,0.999312,8.44887e-05,0.0371018,4.34934e-05,-0.24744,0.0966995,-0.910833,36.125,1,44211,43810852
left,38,7,0.999312,8.44887e-05,0.0371018,4.34934e-05,-0.72401,-0.0721918,9.78145,0.384798,-0.16699,0.860935,-0.00724002,-0.000731688,0.0978145,1,4.98649e-05,3.9663e-07,1.04856e-06,0.00997298,7.9326e-05,0.000209711,0.999312,8.44887e-05,0.0371018,4.34934e-05,-0.24744,0.0966995,-0.910833,36.125,1,44211,43810852
left,38,8,0.999312,8.44887e-05,0.0371018,4.34934e-05,-0.72401,-0.0721918,9.78145,0.384798,-0.16699,0.860935,-0.00724002,-0.000731688,0.0978145,1,4.98649e-05,3.9663e-07,1.04856e-06,0.00997298,7.9326e-05,0.000209711,0.999312,8.44887e-05,0.0371018,4.34934e-05,-0.24744,0.0966995,-0.910833,36.125,1,44211,43810852
left,38,9,0.999313,0.000107695,0.0370725,1.29678e-05,-0.733099,-0.0709595,9.78866,0.368885,-0.166514,0.868071,-0.00733305,-0.000718909,0.0978863,1,4.73783e-05,-1.05479e-05,2.62464e-06,0.00947566,-0.00210957,0.000524928,0.999313,0.000107695,0.0370725,1.29678e-05,-0.24698,0.0971923,-0.911329,36.125,1,44212,43810952
left,38,10,0.999313,0.000107695,0.0370725,1.29678e-05,-0.733099,-0.0709595,9.78866,0.368885,-0.166514,0.868071,-0.00733305,-0.000718909,0.0978863,1,4.73783e-05,-1.05479e-05,2.62464e-06,0.00947566,-0.00210957,0.000524928,0.999313,0.000107695,0.0370725,1.29678e-05,-0.24698,0.0971923,-0.911329,36.125,1,44212,43810952
left,38,11,0.999313,0.000107695,0.0370725,1.29678e-05,-0.733099,-0.0709595,9.78866,0.368885,-0.166514,0.868071,-0.00733305,-0.000718909,0.0978863,1,4.73783e-05,-1.05479e-05,2.62464e-06,0.00947566,-0.00210957,0.000524928,0.999313,0.000107695,0.0370725,1.29678e-05,-0.24698,0.0971923,-0.911329,36.125,1,44212,43810952
left,38,12,0.999313,0.000126814,0.0370498,-2.62774e-05,-0.734588,-0.0729859,9.7849,0.374411,-0.169921,0.861574,-0.00734554,-0.000739755,0.097849,1,5.01424e-05,1.68239e-06,5.73152e-06,0.0100285,0.000336477,0.0011463,0.999313,0.000126814,0.0370498,-2.62774e-05,-0.245483,0.0961777,-0.909843,36.125,1,44213,43811052
left,38,13,0.999313,0.000126814,0.0370498,-2.62774e-05,-0.734588,-0.0729859,9.7849,0.374411,-0.169921,0.861574,-0.00734554,-0.000739755,0.097849,1,5.01424e-05,1.68239e-06,5.73152e-06,0.0100285,0.000336477,0.0011463,0.999313,0.000126814,0.0370498,-2.62774e-05,-0.245483,0.0961777,-0.909843,36.125,1,44213,43811052
left,38,14,0.999313,0.000126814,0.0370498,-2.62774e-05,-0.734588,-0.0729859,9.7849,0.374411,-0.169921,0.861574,-0.00734554,-0.000739755,0.097849,1,5.01424e-05,1.68239e-06,5.73152e-06,0.0100285,0.000336477,0.0011463,0.999313,0.000126814,0.0370498,-2.62774e-05,-0.245483,0.0961777,-0.909843,36.125,1,44213,43811052
right,26,1,0.999314,0.000129187,0.0370429,-6.29141e-05,-0.729387,-0.0782519,9.78619,0.372432,-0.176462,0.864105,-0.00729379,-0.000788584,0.0978619,1,3.00687e-05,2.99706e-07,1.23233e-05,0.00601373,5.99413e-05,0.00246465,0.999314,0.000129187,0.0370429,-6.29141e-05,-0.244985,0.0966434,-0.908825,36.125,1,44214,43811152
left,39,1,0.999314,0.000129187,0.0370429,-6.29141e-05,-0.729387,-0.0782519,9.78619,0.372432,-0.176462,0.864105,-0.00729379,-0.000788584,0.0978619,1,3.00687e-05,2.99706e-07,1.23233e-05,0.00601373,5.99413e-05,0.00246465,0.999314,0.000129187,0.0370429,-6.29141e-05,-0.244985,0.0966434,-0.908825,36.125,1,44214,43811152
left,39,2,0.999314,0.000129187,0.0370429,-6.29141e-05,-0.729387,-0.0782519,9.78619,0.372432,-0.176462,0.864105,-0.00729379,-0.000788584,0.0978619,1,3.00687e-05,2.99706e-07,1.23233e-05,0.00601373,5.99413e-05,0.00246465,0.999314,0.000129187,0.0370429,-6.29141e-05,-0.244985,0.0966434,-0.908825,36.125,1,44214,43811152
left,39,3,0.999314,0.000151291,0.0370304,-0.000131761,-0.733137,-0.0774236,9.77876,0.373719,-0.177393,0.858683,-0.00733275,-0.000783298,0.0977874,1,4.61713e-05,-7.07045e-06,2.16076e-06,0.00923425,-0.00141409,0.000432152,0.999314,0.000151291,0.0370304,-0.000131761,-0.2445,0.0956729,-0.909354,36.125,1,44215,43811252
left,39,4,0.999314,0.000151291,0.0370304,-0.000131761,-0.733137,-0.0774236,9.77876,0.373719,-0.177393,0.858683,-0.00733275,-0.000783298,0.0977874,1,4.61713e-05,-7.07045e-06,2.16076e-06,0.00923425,-0.00141409,0.000432152,0.999314,0.000151291,0.0370304,-0.000131761,-0.2445,0.0956729,-0.909354,36.125,1,44215,43811252
left,39,5,0.999314,0.000151291,0.0370304,-0.000131761,-0.733137,-0.0774236,9.77876,0.373719,-0.177393,0.858683,-0.00733275,-0.000783298,0.0977874,1,4.61713e-05,-7.07045e-06,2.16076e-06,0.00923425,-0.00141409,0.000432152,0.999314,0.000151291,0.0370304,-0.000131761,-0.2445,0.0956729,-0.909354,36.125,1,44215,43811252
left,39,6,0.999315,0.000175655,0.0370162,-0.000164776,-0.73087,-0.0784448,9.79435,0.373704,-0.183574,0.877119,-0.00731093,-0.000795424,0.0979432,1,5.49649e-05,-1.15334e-05,1.42937e-05,0.010993,-0.00230668,0.00285874,0.999315,0.000175655,0.0370162,-0.000164776,-0.245015,0.0947374,-0.911393,36.125,1,44216,43811352
left,39,7,0.999315,0.000175655,0.0370162,-0.000164776,-0.73087,-0.0784448,9.79435,0.373704,-0.183574,0.877119,-0.00731093,-0.000795424,0.0979432,1,5.49649e-05,-1.15334e-05,1.42937e-05,0.010993,-0.00230668,0.00285874,0.999315,0.000175655,0.0370162,-0.000164776,-0.245015,0.0947374,-0.911393,36.125,1,44216,43811352
left,39,8,0.999315,0.000175655,0.0370162,-0.000164776,-0.73087,-0.0784448,9.79435,0.373704,-0.183574,0.877119,-0.00731093,-0.000795424,0.0979432,1,5.49649e-05,-1.15334e-05,1.42937e-05,0.010993,-0.00230668,0.00285874,0.999315,0.000175655,0.0370162,-0.000164776,-0.245015,0.0947374,-0.911393,36.125,1,44216,43811352
left,39,9,0.999315,0.000165913,0.0370086,-0.000156666,-0.728311,-0.0811762,9.77192,0.376447,-0.181253,0.846802,-0.00728399,-0.000818533,0.0977191,1,3.35687e-05,-4.62318e-06,1.44073e-05,0.00671374,-0.000924636,0.00288146,0.999315,0.000165913,0.0370086,-0.000156666,-0.245541,0.0952563,-0.912894,36.125,1,44217,43811452
left,39,10,0.999315,0.000165913,0.0370086,-0.000156666,-0.728311,-0.0811762,9.77192,0.376447,-0.181253,0.846802,-0.00728399,-0.000818533,0.0977191,1,3.35687e-05,-4.62318e-06,1.44073e-05,0.00671374,-0.000924636,0.00288146,0.999315,0.000165913,0.0370086,-0.000156666,-0.245541,0.0952563,-0.912894,36.125,1,44217,43811452
left,39,11,0.999315,0.000165913,0.0370086,-0.000156666,-0.728311,-0.0811762,9.77192,0.376447,-0.181253,0.846802,-0.00728399,-0.000818533,0.0977191,1,3.35687e-05,-4.62318e-06,1.44073e-05,0.00671374,-0.000924636,0.00288146,0.999315,0.000165913,0.0370086,-0.000156666,-0.245541,0.0952563,-0.912894,36.125,1,44217,43811452
left,39,12,0.999315,0.000160368,0.0370038,-0.000145269,-0.72779,-0.0728936,9.78419,0.376912,-0.173803,0.863944,-0.00727545,-0.000738803,0.097842,1,4.92485e-05,1.23996e-05,1.57893e-05,0.00984969,0.00247993,0.00315786,0.999315,0.000160368,0.0370038,-0.000145269,-0.246532,0.0962488,-0.913372,36.125,1,44218,43811552
left,39,13,0.999315,0.000160368,0.0370038,-0.000145269,-0.72779,-0.0728936,9.78419,0.376912,-0.173803,0.863944,-0.00727545,-0.000738803,0.097842,1,4.92485e-05,1.23996e-05,1.57893e-05,0.00984969,0.00247993,0.00315786,0.999315,0.000160368,0.0370038,-0.000145269,-0.246532,0.0962488,-0.913372,36.125,1,44218,43811552
left,39,14,0.999315,0.000160368,0.0370038,-0.000145269,-0.72779,-0.0728936,9.78419,0.376912,-0.173803,0.863944,-0.00727545,-0.000738803,0.097842,1,4.92485e-05,1.23996e-05,1.57893e-05,0.00984969,0.00247993,0.00315786,0.999315,0.000160368,0.0370038,-0.000145269,-0.246532,0.0962488,-0.913372,36.125,1,44218,43811552
right,27,1,0.999317,0.000150212,0.0369673,-0.000154099,-0.719943,-0.0940884,9.78431,0.38341,-0.192514,0.862798,-0.00720067,-0.000949947,0.0978429,1,4.62979e-05,-6.3403e-06,2.7708e-07,0.00925958,-0.00126806,5.54161e-05,0.999317,0.000150212,0.0369673,-0.000154099,-0.245532,0.0962138,-0.911862,36.125,1,44219,43811652
left,40,1,0.999317,0.000150212,0.0369673,-0.000154099,-0.719943,-0.0940884,9.78431,0.38341,-0.192514,0.862798,-0.00720067,-0.000949947,0.0978429,1,4.62979e-05,-6.3403e-06,2.7708e-07,0.00925958,-0.00126806,5.54161e-05,0.999317,0.000150212,0.0369673,-0.000154099,-0.245532,0.0962138,-0.911862,36.125,1,44219,43811652
left,40,2,0.999317,0.000150212,0.0369673,-0.000154099,-0.719943,-0.0940884,9.78431,0.38341,-0.192514,0.862798,-0.00720067,-0.000949947,0.0978429,1,4.62979e-05,-6.3403e-06,2.7708e-07,0.00925958,-0.00126806,5.54161e-05,0.999317,0.000150212,0.0369673,-0.000154099,-0.245532,0.0962138,-0.911862,36.125,1,44219,43811652
left,40,3,0.999317,0.000147854,0.0369464,-0.000203638,-0.732763,-0.0778007,9.78384,0.369515,-0.177395,0.863322,-0.00732771,-0.000786815,0.0978383,1,4.50779e-05,-4.3773e-07,-8.23492e-07,0.00901557,-8.7546e-05,-0.000164698,0.999317,0.000147854,0.0369464,-0.000203638,-0.245035,0.0966795,-0.910844,36.125,1,44220,43811752
left,40,4,0.999317,0.000147854,0.0369464,-0.000203638,-0.732763,-0.0778007,9.78384,0.369515,-0.177395,0.863322,-0.00732771,-0.000786815,0.0978383,1,4.50779e-05,-4.3773e-07,-8.23492e-07,0.00901557,-8.7546e-05,-0.000164698,0.999317,0.000147854,0.0369464,-0.000203638,-0.245035,0.0966795,-0.910844,36.125,1,44220,43811752
left,40,5,0.999317,0.000147854,0.0369464,-0.000203638,-0.732763,-0.0778007,9.78384,0.369515,-0.177395,0.863322,-0.00732771,-0.000786815,0.0978383,1,4.50779e-05,-4.3773e-07,-8.23492e-07,0.00901557,-8.7546e-05,-0.000164698,0.999317,0.000147854,0.0369464,-0.000203638,-0.245035,0.0966795,-0.910844,36.125,1,44220,43811752
left,40,6,0.999318,0.000162329,0.0369183,-0.000289289,-0.727552,-0.0736134,9.78894,0.375616,-0.170765,0.869322,-0.00727769,-0.000746859,0.0978892,1,5.49723e-05,-1.10453e-05,-2.56889e-06,0.0109945,-0.00220907,-0.000513778,0.999318,0.000162329,0.0369183,-0.000289289,-0.246474,0.0971703,-0.910322,36.125,1,44221,43811852
left,40,7,0.999318,0.000162329,0.0369183,-0.000289289,-0.727552,-0.0736134,9.78894,0.375616,-0.170765,0.869322,-0.00727769,-0.000746859,0.0978892,1,5.49723e-05,-1.10453e-05,-2.56889e-06,0.0109945,-0.00220907,-0.000513778,0.999318,0.000162329,0.0369183,-0.000289289,-0.246474,0.0971703,-0.910322,36.125,1,44221,43811852
left,40,8,0.999318,0.000162329,0.0369183,-0.000289289,-0.727552,-0.0736134,9.78894,0.375616,-0.170765,0.869322,-0.00727769,-0.000746859,0.0978892,1,5.49723e-05,-1.10453e-05,-2.56889e-06,0.0109945,-0.00220907,-0.000513778,0.999318,0.000162329,0.0369183,-0.000289289,-0.246474,0.0971703,-0.910322,36.125,1,44221,43811852
left,40,9,0.999319,0.000188084,0.036889,-0.000375572,-0.740218,-0.0805788,9.78929,0.361995,-0.176986,0.867384,-0.00740321,-0.00081543,0.0978928,1,5.00624e-05,-5.13349e-06,-1.0777e-05,0.0100125,-0.0010267,-0.0021554,0.999319,0.000188084,0.036889,-0.000375572,-0.2489,0.0962418,-0.911846,36.125,1,44222,43811952
left,40,10,0.999319,0.000188084,0.036889,-0.000375572,-0.740218,-0.0805788,9.78929,0.361995,-0.176986,0.867384,-0.00740321,-0.00081543,0.0978928,1,5.00624e-05,-5.13349e-06,-1.0777e-05,0.0100125,-0.0010267,-0.0021554,0.999319,0.000188084,0.036889,-0.000375572,-0.2489,0.0962418,-0.911846,36.125,1,44222,43811952
left,40,11,0.999319,0.000188084,0.036889,-0.000375572,-0.740218,-0.0805788,9.78929,0.361995,-0.176986,0.867384,-0.00740321,-0.00081543,0.0978928,1,5.00624e-05,-5.13349e-06,-1.0777e-05,0.0100125,-0.0010267,-0.0021554,0.999319,0.000188084,0.036889,-0.000375572,-0.2489,0.0962418,-0.911846,36.125,1,44222,43811952
left,40,12,0.99932,0.000211626,0.0368586,-0.00036852,-0.732147,-0.07747,9.78215,0.371751,-0.174239,0.855654,-0.0073213,-0.000783068,0.0978214,1,4.17363e-05,7.85732e-07,1.38488e-05,0.00834726,0.000157146,0.00276975,0.99932,0.000211626,0.0368586,-0.00036852,-0.247897,0.0952402,-0.910863,36.125,1,44223,43812052
left,40,13,0.99932,0.000211626,0.0368586,-0.00036852,-0.732147,-0.07747,9.78215,0.371751,-0.174239,0.855654,-0.0073213,-0.000783068,0.0978214,1,4.17363e-05,7.85732e-07,1.38488e-05,0.00834726,0.000157146,0.00276975,0.99932,0.000211626,0.0368586,-0.00036852,-0.247897,0.0952402,-0.910863,36.125,1,44223,43812052
left,40,14,0.99932,0.000211626,0.0368586,-0.00036852,-0.732147,-0.07747,9.78215,0.371751,-0.174239,0.855654,-0.0073213,-0.000783068,0.0978214,1,4.17363e-05,7.85732e-07,1.38488e-05,0.00834726,0.000157146,0.00276975,0.99932,0.000211626,0.0368586,-0.00036852,-0.247897,0.0952402,-0.910863,36.125,1,44223,43812052
right,28,1,0.999321,0.000245011,0.0368423,-0.000382344,-0.723592,-0.0790833,9.78207,0.377068,-0.177753,0.860323,-0.00723722,-0.000800031,0.0978206,1,4.76819e-05,-6.52632e-06,-8.98163e-06,0.00953638,-0.00130526,-0.00179633,0.999321,0.000245011,0.0368423,-0.000382344,-0.246918,0.0971472,-0.908805,36.125,1,44224,43812152
right,28,2,0.999321,0.000245011,0.0368423,-0.000382344,-0.723592,-0.0790833,9.78207,0.377068,-0.177753,0.860323,-0.00723722,-0.000800031,0.0978206,1,4.76819e-05,-6.52632e-06,-8.98163e-06,0.00953638,-0.00130526,-0.00179633,0.999321,0.000245011,0.0368423,-0.000382344,-0.246918,0.0971472,-0.908805,36.125,1,44224,43812152
right,28,3,0.999321,0.000245011,0.0368423,-0.000382344,-0.723592,-0.0790833,9.78207,0.377068,-0.177753,0.860323,-0.00723722,-0.000800031,0.0978206,1,4.76819e-05,-6.52632e-06,-8.98163e-06,0.00953638,-0.00130526,-0.00179633,0.999321,0.000245011,0.0368423,-0.000382344,-0.246918,0.0971472,-0.908805,36.125,1,44224,43812152
left,41,1,0.999321,0.000289106,0.0368309,-0.0004639,-0.733765,-0.0761737,9.79675,0.364299,-0.173226,0.872509,-0.00733779,-0.000771423,0.0979674,1,4.79854e-05,-8.99997e-07,1.93939e-05,0.00959708,-0.000179999,0.00387879,0.999321,0.000289106,0.0368309,-0.0004639,-0.244969,0.0971132,-0.907804,36.125,1,44225,43812252
left,41,2,0.999321,0.000289106,0.0368309,-0.0004639,-0.733765,-0.0761737,9.79675,0.364299,-0.173226,0.872509,-0.00733779,-0.000771423,0.0979674,1,4.79854e-05,-8.99997e-07,1.93939e-05,0.00959708,-0.000179999,0.00387879,0.999321,0.000289106,0.0368309,-0.0004639,-0.244969,0.0971132,-0.907804,36.125,1,44225,43812252
left,41,3,0.999321,0.000289106,0.0368309,-0.0004639,-0.733765,-0.0761737,9.79675,0.364299,-0.173226,0.872509,-0.00733779,-0.000771423,0.0979674,1,4.79854e-05,-8.99997e-07,1.93939e-05,0.00959708,-0.000179999,0.00387879,0.999321,0.000289106,0.0368309,-0.0004639,-0.244969,0.0971132,-0.907804,36.125,1,44225,43812252
left,41,4,0.999322,0.000310075,0.0368131,-0.000572229,-0.728094,-0.0874203,9.78307,0.374034,-0.190028,0.86225,-0.00728443,-0.000881207,0.0978303,1,3.46249e-05,-1.79818e-05,1.57094e-05,0.00692497,-0.00359636,0.00314188,0.999322,0.000310075,0.0368131,-0.000572229,-0.244467,0.0966124,-0.907313,36.125,1,44226,43812352
left,41,5,0.999322,0.000310075,0.0368131,-0.000572229,-0.728094,-0.0874203,9.78307,0.374034,-0.190028,0.86225,-0.00728443,-0.000881207,0.0978303,1,3.46249e-05,-1.79818e-05,1.57094e-05,0.00692497,-0.00359636,0.00314188,0.999322,0.000310075,0.0368131,-0.000572229,-0.244467,0.0966124,-0.907313,36.125,1,44226,43812352
left,41,6,0.999322,0.000310075,0.0368131,-0.000572229,-0.728094,-0.0874203,9.78307,0.374034,-0.190028,0.86225,-0.00728443,-0.000881207,0.0978303,1,3.46249e-05,-1.79818e-05,1.57094e-05,0.00692497,-0.00359636,0.00314188,0.999322,0.000310075,0.0368131,-0.000572229,-0.244467,0.0966124,-0.907313,36.125,1,44226,43812352
left,41,7,0.999322,0.000340749,0.0368024,-0.000661674,-0.73669,-0.0768098,9.791,0.362765,-0.180434,0.867058,-0.00737009,-0.000777661,0.0979097,1,4.833e-05,-1.63244e-05,6.75029e-06,0.009666,-0.00326488,0.00135006,0.999322,0.000340749,0.0368024,-0.000661674,-0.245454,0.0966384,-0.908318,36.125,1,44227,43812452
left,41,8,0.999322,0.000340749,0.0368024,-0.000661674,-0.73669,-0.0768098,9.791,0.362765,-0.180434,0.867058,-0.00737009,-0.000777661,0.0979097,1,4.833e-05,-1.63244e-05,6.75029e-06,0.009666,-0.00326488,0.00135006,0.999322,0.000340749,0.0368024,-0.000661674,-0.245454,0.0966384,-0.908318,36.125,1,44227,43812452
left,41,9,0.999322,0.000340749,0.0368024,-0.000661674,-0.73669,-0.0768098,9.791,0.362765,-0.180434,0.867058,-0.00737009,-0.000777661,0.0979097,1,4.833e-05,-1.63244e-05,6.75029e-06,0.009666,-0.00326488,0.00135006,0.999322,0.000340749,0.0368024,-0.000661674,-0.245454,0.0966384,-0.908318,36.125,1,44227,43812452
left,41,10,0.999323,0.000365206,0.0367947,-0.000731356,-0.734868,-0.0731476,9.79169,0.36658,-0.178659,0.873229,-0.00734887,-0.000740401,0.0979168,1,4.4968e-05,-1.03206e-06,8.09338e-06,0.00899359,-0.000206413,0.00161868,0.999323,0.000365206,0.0367947,-0.000731356,-0.245512,0.095717,-0.911368,36.125,1,44228,43812552
left,41,11,0.999323,0.000365206,0.0367947,-0.000731356,-0.734868,-0.0731476,9.79169,0.36658,-0.178659,0.873229,-0.00734887,-0.000740401,0.0979168,1,4.4968e-05,-1.03206e-06,8.09338e-06,0.00899359,-0.000206413,0.00161868,0.999323,0.000365206,0.0367947,-0.000731356,-0.245512,0.095717,-0.911368,36.125,1,44228,43812552
left,41,12,0.999323,0.000365206,0.0367947,-0.000731356,-0.734868,-0.0731476,9.79169,0.36658,-0.178659,0.873229,-0.00734887,-0.000740401,0.0979168,1,4.4968e-05,-1.03206e-06,8.09338e-06,0.00899359,-0.000206413,0.00161868,0.999323,0.000365206,0.0367947,-0.000731356,-0.245512,0.095717,-0.911368,36.125,1,44228,43812552
right,29,1,0.999323,0.000370786,0.0367803,-0.000742521,-0.732911,-0.0701612,9.78187,0.364832,-0.173106,0.857614,-0.00732907,-0.000711319,0.0978186,1,4.90136e-05,1.41657e-07,8.02066e-06,0.00980273,2.83314e-05,0.00160413,0.999323,0.000370786,0.0367803,-0.000742521,-0.245989,0.0947545,-0.911893,36.125,1,44229,43812652
left,42,1,0.999323,0.000370786,0.0367803,-0.000742521,-0.732911,-0.0701612,9.78187,0.364832,-0.173106,0.857614,-0.00732907,-0.000711319,0.0978186,1,4.90136e-05,1.41657e-07,8.02066e-06,0.00980273,2.83314e-05,0.00160413,0.999323,0.000370786,0.0367803,-0.000742521,-0.245989,0.0947545,-0.911893,36.125,1,44229,43812652
left,42,2,0.999323,0.000370786,0.0367803,-0.000742521,-0.732911,-0.0701612,9.78187,0.364832,-0.173106,0.857614,-0.00732907,-0.000711319,0.0978186,1,4.90136e-05,1.41657e-07,8.02066e-06,0.00980273,2.83314e-05,0.00160413,0.999323,0.000370786,0.0367803,-0.000742521,-0.245989,0.0947545,-0.911893,36.125,1,44229,43812652
left,42,3,0.999324,0.000376496,0.0367572,-0.000731511,-0.733339,-0.0685134,9.78259,0.361486,-0.173828,0.862574,-0.00733663,-0.000694001,0.0978256,1,4.52809e-05,-1.65461e-05,5.25061e-07,0.00905617,-0.00330921,0.000105012,0.999324,0.000376496,0.0367572,-0.000731511,-0.246482,0.0962128,-0.911353,36.125,1,44230,43812752
left,42,4,0.999324,0.000376496,0.0367572,-0.000731511,-0.733339,-0.0685134,9.78259,0.361486,-0.173828,0.862574,-0.00733663,-0.000694001,0.0978256,1,4.52809e-05,-1.65461e-05,5.25061e-07,0.00905617,-0.00330921,0.000105012,0.999324,0.000376496,0.0367572,-0.000731511,-0.246482,0.0962128,-0.911353,36.125,1,44230,43812752
left,42,5,0.999324,0.000376496,0.0367572,-0.000731511,-0.733339,-0.0685134,9.78259,0.361486,-0.173828,0.862574,-0.00733663,-0.000694001,0.0978256,1,4.52809e-05,-1.65461e-05,5.25061e-07,0.00905617,-0.00330921,0.000105012,0.999324,0.000376496,0.0367572,-0.000731511,-0.246482,0.0962128,-0.911353,36.125,1,44230,43812752
left,42,6,0.999325,0.000381717,0.0367393,-0.000745607,-0.733451,-0.0851697,9.79192,0.363496,-0.191796,0.870168,-0.00733406,-0.000859405,0.0979192,1,3.76122e-05,2.08985e-06,2.32983e-05,0.00752244,0.00041797,0.00465965,0.999325,0.000381717,0.0367393,-0.000745607,-0.245973,0.0952242,-0.910872,36.125,1,44231,43812852
left,42,7,0.999325,0.000381717,0.0367393,-0.000745607,-0.733451,-0.0851697,9.79192,0.363496,-0.191796,0.870168,-0.00733406,-0.000859405,0.0979192,1,3.76122e-05,2.08985e-06,2.32983e-05,0.00752244,0.00041797,0.00465965,0.999325,0.000381717,0.0367393,-0.000745607,-0.245973,0.0952242,-0.910872,36.125,1,44231,43812852
left,42,8,0.999325,0.000381717,0.0367393,-0.000745607,-0.733451,-0.0851697,9.79192,0.363496,-0.191796,0.870168,-0.00733406,-0.000859405,0.0979192,1,3.76122e-05,2.08985e-06,2.32983e-05,0.00752244,0.00041797,0.00465965,0.999325,0.000381717,0.0367393,-0.000745607,-0.245973,0.0952242,-0.910872,36.125,1,44231,43812852
left,42,9,0.999325,0.00038471,0.0367211,-0.000744443,-0.731993,-0.072766,9.7866,0.363231,-0.171547,0.866362,-0.00732257,-0.000734349,0.0978658,1,3.28235e-05,-1.36365e-05,1.80378e-05,0.00656471,-0.00272729,0.00360756,0.999325,0.00038471,0.0367211,-0.000744443,-0.244492,0.0951852,-0.909365,36.125,1,44232,43812952
left,42,10,0.999325,0.00038471,0.0367211,-0.000744443,-0.731993,-0.072766,9.7866,0.363231,-0.171547,0.866362,-0.00732257,-0.000734349,0.0978658,1,3.28235e-05,-1.36365e-05,1.80378e-05,0.00656471,-0.00272729,0.00360756,0.999325,0.00038471,0.0367211,-0.000744443,-0.244492,0.0951852,-0.909365,36.125,1,44232,43812952
left,42,11,0.999325,0.00038471,0.0367211,-0.000744443,-0.731993,-0.072766,9.7866,0.363231,-0.171547,0.866362,-0.00732257,-0.000734349,0.0978658,1,3.28235e-05,-1.36365e-05,1.80378e-05,0.00656471,-0.00272729,0.00360756,0.999325,0.00038471,0.0367211,-0.000744443,-0.244492,0.0951852,-0.909365,36.125,1,44232,43812952
left,42,12,0.999325,0.000408326,0.0367261,-0.000773782,-0.733694,-0.0835401,9.78516,0.366184,-0.190029,0.862217,-0.00733755,-0.000845753,0.0978515,1,5.21746e-05,-3.18141e-06,9.62222e-06,0.0104349,-0.000636282,0.00192444,0.999325,0.000408326,0.0367261,-0.000773782,-0.245458,0.0961597,-0.908834,36.125,1,44233,43813052
left,42,13,0.999325,0.000408326,0.0367261,-0.000773782,-0.733694,-0.0835401,9.78516,0.366184,-0.190029,0.862217,-0.00733755,-0.000845753,0.0978515,1,5.21746e-05,-3.18141e-06,9.62222e-06,0.0104349,-0.000636282,0.00192444,0.999325,0.000408326,0.0367261,-0.000773782,-0.245458,0.0961597,-0.908834,36.125,1,44233,43813052
left,42,14,0.999325,0.000408326,0.0367261,-0.000773782,-0.733694,-0.0835401,9.78516,0.366184,-0.190029,0.862217,-0.00733755,-0.000845753,0.0978515,1,5.21746e-05,-3.18141e-06,9.62222e-06,0.0104349,-0.000636282,0.00192444,0.999325,0.000408326,0.0367261,-0.000773782,-0.245458,0.0961597,-0.908834,36.125,1,44233,43813052
right,30,1,0.999325,0.00043802,0.0367307,-0.000831061,-0.720725,-0.0718249,9.77635,0.37699,-0.177301,0.853744,-0.00720578,-0.000727596,0.0977635,1,4.72907e-05,7.49344e-06,6.99422e-06,0.00945814,0.00149869,0.00139884,0.999325,0.00043802,0.0367307,-0.000831061,-0.247424,0.095724,-0.910854,36.125,1,44234,43813152
left,43,1,0.999325,0.00043802,0.0367307,-0.000831061,-0.720725,-0.0718249,9.77635,0.37699,-0.177301,0.853744,-0.00720578,-0.000727596,0.0977635,1,4.72907e-05,7.49344e-06,6.99422e-06,0.00945814,0.00149869,0.00139884,0.999325,0.00043802,0.0367307,-0.000831061,-0.247424,0.095724,-0.910854,36.125,1,44234,43813152
left,43,2,0.999325,0.00043802,0.0367307,-0.000831061,-0.720725,-0.0718249,9.77635,0.37699,-0.177301,0.853744,-0.00720578,-0.000727596,0.0977635,1,4.72907e-05,7.49344e-06,6.99422e-06,0.00945814,0.00149869,0.00139884,0.999325,0.00043802,0.0367307,-0.000831061,-0.247424,0.095724,-0.910854,36.125,1,44234,43813152
left,43,3,0.999326,0.000461385,0.036694,-0.000849257,-0.73568,-0.0750516,9.78017,0.363408,-0.181778,0.858702,-0.00736156,-0.000758786,0.0978013,1,4.20921e-05,-2.43503e-05,2.53708e-06,0.00841842,-0.00487006,0.000507415,0.999326,0.000461385,0.036694,-0.000849257,-0.246931,0.095711,-0.910352,36.125,1,44235,43813252
left,43,4,0.999326,0.000461385,0.036694,-0.000849257,-0.73568,-0.0750516,9.78017,0.363408,-0.181778,0.858702,-0.00736156,-0.000758786,0.0978013,1,4.20921e-05,-2.43503e-05,2.53708e-06,0.00841842,-0.00487006,0.000507415,0.999326,0.000461385,0.036694,-0.000849257,-0.246931,0.095711,-0.910352,36.125,1,44235,43813252
left,43,5,0.999326,0.000461385,0.036694,-0.000849257,-0.73568,-0.0750516,9.78017,0.363408,-0.181778,0.858702,-0.00736156,-0.000758786,0.0978013,1,4.20921e-05,-2.43503e-05,2.53708e-06,0.00841842,-0.00487006,0.000507415,0.999326,0.000461385,0.036694,-0.000849257,-0.246931,0.095711,-0.910352,36.125,1,44235,43813252
left,43,6,0.999326,0.000491309,0.03669,-0.000871431,-0.736988,-0.0770464,9.77708,0.358277,-0.180662,0.855989,-0.00736915,-0.000780226,0.0977708,1,4.93676e-05,3.6916e-06,7.37803e-06,0.00987352,0.000738319,0.00147561,0.999326,0.000491309,0.03669,-0.000871431,-0.247893,0.095719,-0.910347,36.125,1,44236,43813352
left,43,7,0.999326,0.000491309,0.03669,-0.000871431,-0.736988,-0.0770464,9.77708,0.358277,-0.180662,0.855989,-0.00736915,-0.000780226,0.0977708,1,4.93676e-05,3.6916e-06,7.37803e-06,0.00987352,0.000738319,0.00147561,0.999326,0.000491309,0.03669,-0.000871431,-0.247893,0.095719,-0.910347,36.125,1,44236,43813352
