frame_id,imu_idx,quat_w,quat_x,quat_y,quat_z,accel_x,accel_y,accel_z,free_accel_x,free_accel_y,free_accel_z,delta_v_x,delta_v_y,delta_v_z,delta_q_w,delta_q_x,delta_q_y,delta_q_z,rate_x,rate_y,rate_z,quat_w,quat_x,quat_y,quat_z,mag_x,mag_y,mag_z,temperature,status_byte,packet_counter,time_fine
1,1,-0.165227,0.0457551,-0.0276634,-0.984805,-0.704109,-0.0420421,9.78454,0.0631931,0.160698,0.952955,-0.00704221,-0.000429198,0.0978453,1,4.2755e-05,-5.85428e-06,2.91227e-05,0.00855099,-0.00117086,0.00582454,-0.165227,0.0457551,-0.0276634,-0.984805,-0.353809,0.122134,-0.974424,32.75,3,12212,1265456
1,2,-0.165227,0.0457551,-0.0276634,-0.984805,-0.556782,-0.0339446,7.32746,0.0631931,0.160698,0.952955,-0.00557028,-0.000343654,0.0732744,1,2.87554e-05,-1.68069e-05,-6.05161e-07,0.00575107,-0.00336138,-0.000121032,-0.165227,0.0457551,-0.0276634,-0.984805,0.174086,-0.255349,-0.957473,34.3125,1,43980,4443781
1,3,-0.165227,0.0457551,-0.0276634,-0.984805,-0.556782,-0.0339446,7.32746,0.0631931,0.160698,0.952955,-0.00557028,-0.000343654,0.0732744,1,2.87554e-05,-1.68069e-05,-6.05161e-07,0.00575107,-0.00336138,-0.000121032,-0.165227,0.0457551,-0.0276634,-0.984805,0.174086,-0.255349,-0.957473,34.3125,1,43980,4443781
1,4,-0.165227,0.0457551,-0.0276634,-0.984805,-0.556782,-0.0339446,7.32746,0.0631931,0.160698,0.952955,-0.00557028,-0.000343654,0.0732744,1,2.87554e-05,-1.68069e-05,-6.05161e-07,0.00575107,-0.00336138,-0.000121032,-0.165227,0.0457551,-0.0276634,-0.984805,0.174086,-0.255349,-0.957473,34.3125,1,43980,4443781
1,5,0.999278,-0.00228852,0.0379152,-7.7913e-05,-0.749745,-0.0593173,9.7839,-0.0337263,0.249707,0.970446,-0.00749985,-0.000602669,0.0978387,1,4.75627e-05,-1.2353e-05,1.2554e-05,0.00951253,-0.0024706,0.0025108,0.999278,-0.00228852,0.0379152,-7.7913e-05,0.17555,-0.255858,-0.956986,34.3125,1,43981,4443881
1,6,0.999278,-0.00228852,0.0379152,-7.7913e-05,-0.749745,-0.0593173,9.7839,-0.0337263,0.249707,0.970446,-0.00749985,-0.000602669,0.0978387,1,4.75627e-05,-1.2353e-05,1.2554e-05,0.00951253,-0.0024706,0.0025108,0.999278,-0.00228852,0.0379152,-7.7913e-05,0.17555,-0.255858,-0.956986,34.3125,1,43981,4443881
1,7,0.999278,-0.00228852,0.0379152,-7.7913e-05,-0.749745,-0.0593173,9.7839,-0.0337263,0.249707,0.970446,-0.00749985,-0.000602669,0.0978387,1,4.75627e-05,-1.2353e-05,1.2554e-05,0.00951253,-0.0024706,0.0025108,0.999278,-0.00228852,0.0379152,-7.7913e-05,0.17555,-0.255858,-0.956986,34.3125,1,43981,4443881
1,8,0.999279,-0.00223352,0.0379135,-6.12908e-05,-0.740098,-0.0422651,9.77686,-0.0285446,0.268839,0.963472,-0.00740273,-0.000433153,0.0977684,1,5.18318e-05,-9.06562e-06,2.48308e-05,0.0103664,-0.00181312,0.00496617,0.999279,-0.00223352,0.0379135,-6.12908e-05,0.175143,-0.254463,-0.952913,34.3125,1,43982,4443981
2,1,0.999279,-0.00223352,0.0379135,-6.12908e-05,-0.740098,-0.0422651,9.77686,-0.0285446,0.268839,0.963472,-0.00740273,-0.000433153,0.0977684,1,5.18318e-05,-9.06562e-06,2.48308e-05,0.0103664,-0.00181312,0.00496617,0.999279,-0.00223352,0.0379135,-6.12908e-05,0.175143,-0.254463,-0.952913,34.3125,1,43982,4443981
2,2,0.999279,-0.00223352,0.0379135,-6.12908e-05,-0.740098,-0.0422651,9.77686,-0.0285446,0.268839,0.963472,-0.00740273,-0.000433153,0.0977684,1,5.18318e-05,-9.06562e-06,2.48308e-05,0.0103664,-0.00181312,0.00496617,0.999279,-0.00223352,0.0379135,-6.12908e-05,0.175143,-0.254463,-0.952913,34.3125,1,43982,4443981
2,3,0.999279,-0.00218485,0.0378993,-3.62366e-05,-0.741273,-0.0546912,9.78491,-0.0281156,0.251926,0.966853,-0.0074155,-0.000556578,0.0978488,1,4.73744e-05,-1.42847e-05,2.66042e-05,0.00947489,-0.00285694,0.00532085,0.999279,-0.00218485,0.0378993,-3.62366e-05,0.175242,-0.254535,-0.948874,34.3125,1,43983,4444081
2,4,0.999279,-0.00218485,0.0378993,-3.62366e-05,-0.741273,-0.0546912,9.78491,-0.0281156,0.251926,0.966853,-0.0074155,-0.000556578,0.0978488,1,4.73744e-05,-1.42847e-05,2.66042e-05,0.00947489,-0.00285694,0.00532085,0.999279,-0.00218485,0.0378993,-3.62366e-05,0.175242,-0.254535,-0.948874,34.3125,1,43983,4444081
2,5,0.999279,-0.00218485,0.0378993,-3.62366e-05,-0.741273,-0.0546912,9.78491,-0.0281156,0.251926,0.966853,-0.0074155,-0.000556578,0.0978488,1,4.73744e-05,-1.42847e-05,2.66042e-05,0.00947489,-0.00285694,0.00532085,0.999279,-0.00218485,0.0378993,-3.62366e-05,0.175242,-0.254535,-0.948874,34.3125,1,43983,4444081
2,6,0.99928,-0.00213151,0.0378908,-1.02616e-05,-0.746107,-0.0556553,9.77983,-0.0304326,0.249348,0.960029,-0.0074627,-0.000567176,0.0977982,1,5.21802e-05,-8.51039e-06,2.7949e-05,0.010436,-0.00170208,0.00558979,0.99928,-0.00213151,0.0378908,-1.02616e-05,0.173802,-0.256935,-0.950436,34.3125,1,43984,4444181
3,1,0.99928,-0.00213151,0.0378908,-1.02616e-05,-0.746107,-0.0556553,9.77983,-0.0304326,0.249348,0.960029,-0.0074627,-0.000567176,0.0977982,1,5.21802e-05,-8.51039e-06,2.7949e-05,0.010436,-0.00170208,0.00558979,0.99928,-0.00213151,0.0378908,-1.02616e-05,0.173802,-0.256935,-0.950436,34.3125,1,43984,4444181
3,2,0.99928,-0.00213151,0.0378908,-1.02616e-05,-0.746107,-0.0556553,9.77983,-0.0304326,0.249348,0.960029,-0.0074627,-0.000567176,0.0977982,1,5.21802e-05,-8.51039e-06,2.7949e-05,0.010436,-0.00170208,0.00558979,0.99928,-0.00213151,0.0378908,-1.02616e-05,0.173802,-0.256935,-0.950436,34.3125,1,43984,4444181
3,3,0.99928,-0.00207739,0.0378908,9.80272e-06,-0.743259,-0.0688135,9.78988,-0.0261709,0.236034,0.968405,-0.00743272,-0.000698955,0.0978987,1,5.35437e-05,-7.87651e-07,2.26849e-05,0.0107087,-0.00015753,0.00453698,0.99928,-0.00207739,0.0378908,9.80272e-06,0.173311,-0.260779,-0.95355,34.3125,1,43985,4444281
3,4,0.99928,-0.00207739,0.0378908,9.80272e-06,-0.743259,-0.0688135,9.78988,-0.0261709,0.236034,0.968405,-0.00743272,-0.000698955,0.0978987,1,5.35437e-05,-7.87651e-07,2.26849e-05,0.0107087,-0.00015753,0.00453698,0.99928,-0.00207739,0.0378908,9.80272e-06,0.173311,-0.260779,-0.95355,34.3125,1,43985,4444281
3,5,0.99928,-0.00207739,0.0378908,9.80272e-06,-0.743259,-0.0688135,9.78988,-0.0261709,0.236034,0.968405,-0.00743272,-0.000698955,0.0978987,1,5.35437e-05,-7.87651e-07,2.26849e-05,0.0107087,-0.00015753,0.00453698,0.99928,-0.00207739,0.0378908,9.80272e-06,0.173311,-0.260779,-0.95355,34.3125,1,43985,4444281
3,6,0.99928,-0.00202534,0.0378814,2.90976e-05,-0.737176,-0.0601123,9.78788,-0.0262436,0.243948,0.96946,-0.00737365,-0.000611492,0.0978786,1,5.13289e-05,-9.79216e-06,2.17147e-05,0.0102658,-0.00195843,0.00434295,0.99928,-0.00202534,0.0378814,2.90976e-05,0.176074,-0.260713,-0.958612,34.3125,1,43986,4444381
3,7,0.99928,-0.00202534,0.0378814,2.90976e-05,-0.737176,-0.0601123,9.78788,-0.0262436,0.243948,0.96946,-0.00737365,-0.000611492,0.0978786,1,5.13289e-05,-9.79216e-06,2.17147e-05,0.0102658,-0.00195843,0.00434295,0.99928,-0.00202534,0.0378814,2.90976e-05,0.176074,-0.260713,-0.958612,34.3125,1,43986,4444381
3,8,0.99928,-0.00202534,0.0378814,2.90976e-05,-0.737176,-0.0601123,9.78788,-0.0262436,0.243948,0.96946,-0.00737365,-0.000611492,0.0978786,1,5.13289e-05,-9.79216e-06,2.17147e-05,0.0102658,-0.00195843,0.00434295,0.99928,-0.00202534,0.0378814,2.90976e-05,0.176074,-0.260713,-0.958612,34.3125,1,43986,4444381
7,1,0.999281,-0.00197544,0.0378683,4.4492e-05,-0.734584,-0.0473994,9.78288,-0.0232257,0.260157,0.966872,-0.00734838,-0.000483937,0.0978286,1,4.95146e-05,-1.30944e-05,1.73638e-05,0.00990293,-0.00261888,0.00347276,0.999281,-0.00197544,0.0378683,4.4492e-05,0.177477,-0.258286,-0.958564,34.3125,1,43987,4444481
7,2,0.999281,-0.00197544,0.0378683,4.4492e-05,-0.734584,-0.0473994,9.78288,-0.0232257,0.260157,0.966872,-0.00734838,-0.000483937,0.0978286,1,4.95146e-05,-1.30944e-05,1.73638e-05,0.00990293,-0.00261888,0.00347276,0.999281,-0.00197544,0.0378683,4.4492e-05,0.177477,-0.258286,-0.958564,34.3125,1,43987,4444481
7,3,0.999281,-0.00197544,0.0378683,4.4492e-05,-0.734584,-0.0473994,9.78288,-0.0232257,0.260157,0.966872,-0.00734838,-0.000483937,0.0978286,1,4.95146e-05,-1.30944e-05,1.73638e-05,0.00990293,-0.00261888,0.00347276,0.999281,-0.00197544,0.0378683,4.4492e-05,0.177477,-0.258286,-0.958564,34.3125,1,43987,4444481
7,4,0.999281,-0.00193164,0.037857,5.96529e-05,-0.737197,-0.0492718,9.78561,-0.0225843,0.257637,0.973537,-0.00737416,-0.00050133,0.0978559,1,4.27645e-05,-1.12728e-05,1.64133e-05,0.00855291,-0.00225456,0.00328267,0.999281,-0.00193164,0.037857,5.96529e-05,0.17661,-0.255938,-0.952952,34.3125,1,43988,4444581
7,5,0.999281,-0.00193164,0.037857,5.96529e-05,-0.737197,-0.0492718,9.78561,-0.0225843,0.257637,0.973537,-0.00737416,-0.00050133,0.0978559,1,4.27645e-05,-1.12728e-05,1.64133e-05,0.00855291,-0.00225456,0.00328267,0.999281,-0.00193164,0.037857,5.96529e-05,0.17661,-0.255938,-0.952952,34.3125,1,43988,4444581
7,6,0.999281,-0.00193164,0.037857,5.96529e-05,-0.737197,-0.0492718,9.78561,-0.0225843,0.257637,0.973537,-0.00737416,-0.00050133,0.0978559,1,4.27645e-05,-1.12728e-05,1.64133e-05,0.00855291,-0.00225456,0.00328267,0.999281,-0.00193164,0.037857,5.96529e-05,0.17661,-0.255938,-0.952952,34.3125,1,43988,4444581
7,7,0.999282,-0.00189379,0.0378458,8.37114e-05,-0.74134,-0.0541399,9.78897,-0.0315756,0.244791,0.976119,-0.00741556,-0.000549075,0.0978895,1,3.72677e-05,-1.1185e-05,2.55987e-05,0.00745353,-0.002237,0.00511973,0.999282,-0.00189379,0.0378458,8.37114e-05,0.176721,-0.256019,-0.948409,34.3125,1,43989,4444681
7,8,0.999282,-0.00189379,0.0378458,8.37114e-05,-0.74134,-0.0541399,9.78897,-0.0315756,0.244791,0.976119,-0.00741556,-0.000549075,0.0978895,1,3.72677e-05,-1.1185e-05,2.55987e-05,0.00745353,-0.002237,0.00511973,0.999282,-0.00189379,0.0378458,8.37114e-05,0.176721,-0.256019,-0.948409,34.3125,1,43989,4444681
8,1,0.999282,-0.00189379,0.0378458,8.37114e-05,-0.74134,-0.0541399,9.78897,-0.0315756,0.244791,0.976119,-0.00741556,-0.000549075,0.0978895,1,3.72677e-05,-1.1185e-05,2.55987e-05,0.00745353,-0.002237,0.00511973,0.999282,-0.00189379,0.0378458,8.37114e-05,0.176721,-0.256019,-0.948409,34.3125,1,43989,4444681
8,2,0.999282,-0.00186121,0.0378361,0.000109327,-0.743689,-0.0483659,9.78837,-0.0319377,0.250899,0.969639,-0.00743878,-0.000490189,0.0978835,1,3.13353e-05,-9.78444e-06,2.66097e-05,0.00626707,-0.00195689,0.00532194,0.999282,-0.00186121,0.0378361,0.000109327,0.174829,-0.257954,-0.948443,34.3125,1,43990,4444781
8,3,0.999282,-0.00186121,0.0378361,0.000109327,-0.743689,-0.0483659,9.78837,-0.0319377,0.250899,0.969639,-0.00743878,-0.000490189,0.0978835,1,3.13353e-05,-9.78444e-06,2.66097e-05,0.00626707,-0.00195689,0.00532194,0.999282,-0.00186121,0.0378361,0.000109327,0.174829,-0.257954,-0.948443,34.3125,1,43990,4444781
8,4,0.999282,-0.00186121,0.0378361,0.000109327,-0.743689,-0.0483659,9.78837,-0.0319377,0.250899,0.969639,-0.00743878,-0.000490189,0.0978835,1,3.13353e-05,-9.78444e-06,2.66097e-05,0.00626707,-0.00195689,0.00532194,0.999282,-0.00186121,0.0378361,0.000109327,0.174829,-0.257954,-0.948443,34.3125,1,43990,4444781
8,5,0.999283,-0.00180952,0.037824,0.00012116,-0.740933,-0.0550556,9.79032,-0.0265887,0.24477,0.970347,-0.00741167,-0.000560793,0.097903,1,5.12488e-05,-1.2014e-05,1.36775e-05,0.0102498,-0.0024028,0.0027355,0.999283,-0.00180952,0.037824,0.00012116,0.173845,-0.261785,-0.952059,34.3125,1,43991,4444881
8,6,0.999283,-0.00180952,0.037824,0.00012116,-0.740933,-0.0550556,9.79032,-0.0265887,0.24477,0.970347,-0.00741167,-0.000560793,0.097903,1,5.12488e-05,-1.2014e-05,1.36775e-05,0.0102498,-0.0024028,0.0027355,0.999283,-0.00180952,0.037824,0.00012116,0.173845,-0.261785,-0.952059,34.3125,1,43991,4444881
8,7,0.999283,-0.00180952,0.037824,0.00012116,-0.740933,-0.0550556,9.79032,-0.0265887,0.24477,0.970347,-0.00741167,-0.000560793,0.097903,1,5.12488e-05,-1.2014e-05,1.36775e-05,0.0102498,-0.0024028,0.0027355,0.999283,-0.00180952,0.037824,0.00012116,0.173845,-0.261785,-0.952059,34.3125,1,43991,4444881
8,8,0.999283,-0.00176455,0.0378099,0.000136863,-0.752144,-0.0588916,9.78629,-0.0396733,0.242063,0.96541,-0.00752416,-0.000597907,0.0978627,1,4.46029e-05,-1.40089e-05,1.7293e-05,0.00892058,-0.00280178,0.00345861,0.999283,-0.00176455,0.0378099,0.000136863,0.174211,-0.262187,-0.957121,34.3125,1,43992,4444981
9,1,0.999283,-0.00176455,0.0378099,0.000136863,-0.752144,-0.0588916,9.78629,-0.0396733,0.242063,0.96541,-0.00752416,-0.000597907,0.0978627,1,4.46029e-05,-1.40089e-05,1.7293e-05,0.00892058,-0.00280178,0.00345861,0.999283,-0.00176455,0.0378099,0.000136863,0.174211,-0.262187,-0.957121,34.3125,1,43992,4444981
9,2,0.999283,-0.00176455,0.0378099,0.000136863,-0.752144,-0.0588916,9.78629,-0.0396733,0.242063,0.96541,-0.00752416,-0.000597907,0.0978627,1,4.46029e-05,-1.40089e-05,1.7293e-05,0.00892058,-0.00280178,0.00345861,0.999283,-0.00176455,0.0378099,0.000136863,0.174211,-0.262187,-0.957121,34.3125,1,43992,4444981
9,3,0.999284,-0.00171827,0.0377957,0.000152426,-0.734422,-0.0533095,9.77742,-0.0224144,0.248391,0.9586,-0.00734698,-0.00054238,0.0977739,1,4.61659e-05,-1.42509e-05,1.75195e-05,0.00923319,-0.00285017,0.00350389,0.999284,-0.00171827,0.0377957,0.000152426,0.176083,-0.25831,-0.956538,34.3125,1,43993,4445081
9,4,0.999284,-0.00171827,0.0377957,0.000152426,-0.734422,-0.0533095,9.77742,-0.0224144,0.248391,0.9586,-0.00734698,-0.00054238,0.0977739,1,4.61659e-05,-1.42509e-05,1.75195e-05,0.00923319,-0.00285017,0.00350389,0.999284,-0.00171827,0.0377957,0.000152426,0.176083,-0.25831,-0.956538,34.3125,1,43993,4445081
9,5,0.999284,-0.00171827,0.0377957,0.000152426,-0.734422,-0.0533095,9.77742,-0.0224144,0.248391,0.9586,-0.00734698,-0.00054238,0.0977739,1,4.61659e-05,-1.42509e-05,1.75195e-05,0.00923319,-0.00285017,0.00350389,0.999284,-0.00171827,0.0377957,0.000152426,0.176083,-0.25831,-0.956538,34.3125,1,43993,4445081
9,6,0.999284,-0.00167933,0.0377908,0.000179717,-0.746247,-0.0500937,9.77954,-0.0337452,0.247141,0.966827,-0.0074634,-0.000508883,0.0977953,1,3.84188e-05,-4.88608e-06,2.89139e-05,0.00768376,-0.000977217,0.00578278,0.999284,-0.00167933,0.0377908,0.000179717,0.176134,-0.255455,-0.952434,34.3125,1,43994,4445181
10,1,0.999284,-0.00167933,0.0377908,0.000179717,-0.746247,-0.0500937,9.77954,-0.0337452,0.247141,0.966827,-0.0074634,-0.000508883,0.0977953,1,3.84188e-05,-4.88608e-06,2.89139e-05,0.00768376,-0.000977217,0.00578278,0.999284,-0.00167933,0.0377908,0.000179717,0.176134,-0.255455,-0.952434,34.3125,1,43994,4445181
10,2,0.999285,-0.00163411,0.0377815,0.000206951,-0.739372,-0.043058,9.78126,-0.0315828,0.256995,0.964826,-0.00739553,-0.000439711,0.0978124,1,4.44801e-05,-9.37812e-06,2.9018e-05,0.00889602,-0.00187562,0.00580361,0.999285,-0.00163411,0.0377815,0.000206951,0.175784,-0.256029,-0.947395,34.3125,1,43995,4445281
10,3,0.999285,-0.00163411,0.0377815,0.000206951,-0.739372,-0.043058,9.78126,-0.0315828,0.256995,0.964826,-0.00739553,-0.000439711,0.0978124,1,4.44801e-05,-9.37812e-06,2.9018e-05,0.00889602,-0.00187562,0.00580361,0.999285,-0.00163411,0.0377815,0.000206951,0.175784,-0.256029,-0.947395,34.3125,1,43995,4445281
10,4,0.999285,-0.0015717,0.0377746,0.000228665,-0.739368,-0.0436429,9.78464,-0.0297199,0.250257,0.963607,-0.007395,-0.000448929,0.0978463,1,6.20504e-05,-6.88993e-06,2.41528e-05,0.0124101,-0.00137799,0.00483056,0.999285,-0.0015717,0.0377746,0.000228665,0.173398,-0.257951,-0.947932,34.3125,1,43996,4445381
10,5,0.999285,-0.0015717,0.0377746,0.000228665,-0.739368,-0.0436429,9.78464,-0.0297199,0.250257,0.963607,-0.007395,-0.000448929,0.0978463,1,6.20504e-05,-6.88993e-06,2.41528e-05,0.0124101,-0.00137799,0.00483056,0.999285,-0.0015717,0.0377746,0.000228665,0.173398,-0.257951,-0.947932,34.3125,1,43996,4445381
10,6,0.999285,-0.0015717,0.0377746,0.000228665,-0.739368,-0.0436429,9.78464,-0.0297199,0.250257,0.963607,-0.007395,-0.000448929,0.0978463,1,6.20504e-05,-6.88993e-06,2.41528e-05,0.0124101,-0.00137799,0.00483056,0.999285,-0.0015717,0.0377746,0.000228665,0.173398,-0.257951,-0.947932,34.3125,1,43996,4445381
11,1,0.999286,-0.00153721,0.0377532,0.000262274,-0.739846,-0.0578486,9.78148,-0.0272144,0.231093,0.959485,-0.00740261,-0.000585458,0.0978145,1,3.30116e-05,-2.14519e-05,3.4703e-05,0.00660233,-0.00429039,0.00694061,0.999286,-0.00153721,0.0377532,0.000262274,0.17285,-0.261272,-0.953053,34.3125,1,43997,4445481
11,2,0.999286,-0.00153721,0.0377532,0.000262274,-0.739846,-0.0578486,9.78148,-0.0272144,0.231093,0.959485,-0.00740261,-0.000585458,0.0978145,1,3.30116e-05,-2.14519e-05,3.4703e-05,0.00660233,-0.00429039,0.00694061,0.999286,-0.00153721,0.0377532,0.000262274,0.17285,-0.261272,-0.953053,34.3125,1,43997,4445481
11,3,0.999286,-0.00153721,0.0377532,0.000262274,-0.739846,-0.0578486,9.78148,-0.0272144,0.231093,0.959485,-0.00740261,-0.000585458,0.0978145,1,3.30116e-05,-2.14519e-05,3.4703e-05,0.00660233,-0.00429039,0.00694061,0.999286,-0.00153721,0.0377532,0.000262274,0.17285,-0.261272,-0.953053,34.3125,1,43997,4445481
11,4,0.999286,-0.00148364,0.0377381,0.000284147,-0.737186,-0.0549228,9.77741,-0.026936,0.234496,0.9505,-0.00737482,-0.000559967,0.0977739,1,5.3119e-05,-1.52849e-05,2.38807e-05,0.0106238,-0.00305697,0.00477614,0.999286,-0.00148364,0.0377381,0.000284147,0.174228,-0.261717,-0.9561,34.3125,1,43998,4445581
11,5,0.999286,-0.00148364,0.0377381,0.000284147,-0.737186,-0.0549228,9.77741,-0.026936,0.234496,0.9505,-0.00737482,-0.000559967,0.0977739,1,5.3119e-05,-1.52849e-05,2.38807e-05,0.0106238,-0.00305697,0.00477614,0.999286,-0.00148364,0.0377381,0.000284147,0.174228,-0.261717,-0.9561,34.3125,1,43998,4445581
11,6,0.999286,-0.00148364,0.0377381,0.000284147,-0.737186,-0.0549228,9.77741,-0.026936,0.234496,0.9505,-0.00737482,-0.000559967,0.0977739,1,5.3119e-05,-1.52849e-05,2.38807e-05,0.0106238,-0.00305697,0.00477614,0.999286,-0.00148364,0.0377381,0.000284147,0.174228,-0.261717,-0.9561,34.3125,1,43998,4445581
12,1,0.999286,-0.00143895,0.0377447,0.000305505,-0.735521,-0.0386042,9.78702,-0.0253623,0.261008,0.967043,-0.00735388,-0.000395083,0.0978702,1,4.44351e-05,6.66855e-06,2.33261e-05,0.00888703,0.00133371,0.00466521,0.999286,-0.00143895,0.0377447,0.000305505,0.176613,-0.259795,-0.955563,34.3125,1,43999,4445681
12,2,0.999286,-0.00143895,0.0377447,0.000305505,-0.735521,-0.0386042,9.78702,-0.0253623,0.261008,0.967043,-0.00735388,-0.000395083,0.0978702,1,4.44351e-05,6.66855e-06,2.33261e-05,0.00888703,0.00133371,0.00466521,0.999286,-0.00143895,0.0377447,0.000305505,0.176613,-0.259795,-0.955563,34.3125,1,43999,4445681
12,3,0.999286,-0.00143895,0.0377447,0.000305505,-0.735521,-0.0386042,9.78702,-0.0253623,0.261008,0.967043,-0.00735388,-0.000395083,0.0978702,1,4.44351e-05,6.66855e-06,2.33261e-05,0.00888703,0.00133371,0.00466521,0.999286,-0.00143895,0.0377447,0.000305505,0.176613,-0.259795,-0.955563,34.3125,1,43999,4445681
12,4,0.999287,-0.0013893,0.0377345,0.000317299,-0.742997,-0.0588764,9.7842,-0.0347214,0.234968,0.968952,-0.00743194,-0.000598622,0.0978418,1,4.93582e-05,-1.01681e-05,1.33831e-05,0.00987165,-0.00203363,0.00267662,0.999287,-0.0013893,0.0377345,0.000317299,0.176117,-0.255925,-0.953455,34.3125,1,44000,4445781
12,5,0.999287,-0.0013893,0.0377345,0.000317299,-0.742997,-0.0588764,9.7842,-0.0347214,0.234968,0.968952,-0.00743194,-0.000598622,0.0978418,1,4.93582e-05,-1.01681e-05,1.33831e-05,0.00987165,-0.00203363,0.00267662,0.999287,-0.0013893,0.0377345,0.000317299,0.176117,-0.255925,-0.953455,34.3125,1,44000,4445781
12,6,0.999287,-0.0013893,0.0377345,0.000317299,-0.742997,-0.0588764,9.7842,-0.0347214,0.234968,0.968952,-0.00743194,-0.000598622,0.0978418,1,4.93582e-05,-1.01681e-05,1.33831e-05,0.00987165,-0.00203363,0.00267662,0.999287,-0.0013893,0.0377345,0.000317299,0.176117,-0.255925,-0.953455,34.3125,1,44000,4445781
12,7,0.999288,-0.00134221,0.0377135,0.000343241,-0.742245,-0.0503393,9.788,-0.0363788,0.236306,0.973343,-0.0074265,-0.000512907,0.0978797,1,4.65011e-05,-2.0839e-05,2.76286e-05,0.00930023,-0.00416779,0.00552571,0.999288,-0.00134221,0.0377135,0.000343241,0.175743,-0.255036,-0.948383,34.3125,1,44001,4445881
12,8,0.999288,-0.00134221,0.0377135,0.000343241,-0.742245,-0.0503393,9.788,-0.0363788,0.236306,0.973343,-0.0074265,-0.000512907,0.0978797,1,4.65011e-05,-2.0839e-05,2.76286e-05,0.00930023,-0.00416779,0.00552571,0.999288,-0.00134221,0.0377135,0.000343241,0.175743,-0.255036,-0.948383,34.3125,1,44001,4445881
10,1,0.999288,-0.00134221,0.0377135,0.000343241,-0.742245,-0.0503393,9.788,-0.0363788,0.236306,0.973343,-0.0074265,-0.000512907,0.0978797,1,4.65011e-05,-2.0839e-05,2.76286e-05,0.00930023,-0.00416779,0.00552571,0.999288,-0.00134221,0.0377135,0.000343241,0.175743,-0.255036,-0.948383,34.3125,1,44001,4445881
10,2,0.999288,-0.00129689,0.0377017,0.000354763,-0.740529,-0.0629109,9.78313,-0.0381917,0.221146,0.96565,-0.00740757,-0.000638173,0.0978311,1,4.53163e-05,-1.17216e-05,1.32936e-05,0.00906327,-0.00234433,0.00265872,0.999288,-0.00129689,0.0377017,0.000354763,0.174837,-0.258442,-0.948454,34.3125,1,44002,4445981
10,3,0.999288,-0.00129689,0.0377017,0.000354763,-0.740529,-0.0629109,9.78313,-0.0381917,0.221146,0.96565,-0.00740757,-0.000638173,0.0978311,1,4.53163e-05,-1.17216e-05,1.32936e-05,0.00906327,-0.00234433,0.00265872,0.999288,-0.00129689,0.0377017,0.000354763,0.174837,-0.258442,-0.948454,34.3125,1,44002,4445981
10,4,0.999288,-0.00129689,0.0377017,0.000354763,-0.740529,-0.0629109,9.78313,-0.0381917,0.221146,0.96565,-0.00740757,-0.000638173,0.0978311,1,4.53163e-05,-1.17216e-05,1.32936e-05,0.00906327,-0.00234433,0.00265872,0.999288,-0.00129689,0.0377017,0.000354763,0.174837,-0.258442,-0.948454,34.3125,1,44002,4445981
10,5,0.999288,-0.00126125,0.0376955,0.000370984,-0.741767,-0.0455521,9.77989,-0.0348085,0.243267,0.957813,-0.00741887,-0.000462791,0.0977988,1,3.58057e-05,-6.22877e-06,1.7939e-05,0.00716114,-0.00124575,0.00358779,0.999288,-0.00126125,0.0376955,0.000370984,0.174302,-0.261771,-0.953071,34.3125,1,44003,4446081
10,6,0.999288,-0.00126125,0.0376955,0.000370984,-0.741767,-0.0455521,9.77989,-0.0348085,0.243267,0.957813,-0.00741887,-0.000462791,0.0977988,1,3.58057e-05,-6.22877e-06,1.7939e-05,0.00716114,-0.00124575,0.00358779,0.999288,-0.00126125,0.0376955,0.000370984,0.174302,-0.261771,-0.953071,34.3125,1,44003,4446081
14,1,0.999288,-0.00126125,0.0376955,0.000370984,-0.741767,-0.0455521,9.77989,-0.0348085,0.243267,0.957813,-0.00741887,-0.000462791,0.0977988,1,3.58057e-05,-6.22877e-06,1.7939e-05,0.00716114,-0.00124575,0.00358779,0.999288,-0.00126125,0.0376955,0.000370984,0.174302,-0.261771,-0.953071,34.3125,1,44003,4446081
14,2,0.999289,-0.00121588,0.0376916,0.000393654,-0.74533,-0.0624344,9.79706,-0.0385074,0.221673,0.979805,-0.00745404,-0.00063359,0.0979705,1,4.53181e-05,-3.93225e-06,2.45591e-05,0.00906361,-0.00078645,0.00491182,0.999289,-0.00121588,0.0376916,0.000393654,0.174688,-0.261225,-0.956596,34.3125,1,44004,4446181
14,3,0.999289,-0.00121588,0.0376916,0.000393654,-0.74533,-0.0624344,9.79706,-0.0385074,0.221673,0.979805,-0.00745404,-0.00063359,0.0979705,1,4.53181e-05,-3.93225e-06,2.45591e-05,0.00906361,-0.00078645,0.00491182,0.999289,-0.00121588,0.0376916,0.000393654,0.174688,-0.261225,-0.956596,34.3125,1,44004,4446181
14,4,0.999289,-0.00121588,0.0376916,0.000393654,-0.74533,-0.0624344,9.79706,-0.0385074,0.221673,0.979805,-0.00745404,-0.00063359,0.0979705,1,4.53181e-05,-3.93225e-06,2.45591e-05,0.00906361,-0.00078645,0.00491182,0.999289,-0.00121588,0.0376916,0.000393654,0.174688,-0.261225,-0.956596,34.3125,1,44004,4446181
14,5,0.999289,-0.00116496,0.0376783,0.000411091,-0.740277,-0.0596612,9.7801,-0.0335161,0.222836,0.963125,-0.00740535,-0.000606914,0.0978008,1,5.11744e-05,-1.33322e-05,1.97369e-05,0.0102349,-0.00266645,0.00394738,0.999289,-0.00116496,0.0376783,0.000411091,0.176071,-0.258301,-0.957043,34.3125,1,44005,4446281
14,6,0.999289,-0.00116496,0.0376783,0.000411091,-0.740277,-0.0596612,9.7801,-0.0335161,0.222836,0.963125,-0.00740535,-0.000606914,0.0978008,1,5.11744e-05,-1.33322e-05,1.97369e-05,0.0102349,-0.00266645,0.00394738,0.999289,-0.00116496,0.0376783,0.000411091,0.176071,-0.258301,-0.957043,34.3125,1,44005,4446281
15,1,0.999289,-0.00116496,0.0376783,0.000411091,-0.740277,-0.0596612,9.7801,-0.0335161,0.222836,0.963125,-0.00740535,-0.000606914,0.0978008,1,5.11744e-05,-1.33322e-05,1.97369e-05,0.0102349,-0.00266645,0.00394738,0.999289,-0.00116496,0.0376783,0.000411091,0.176071,-0.258301,-0.957043,34.3125,1,44005,4446281
15,2,0.99929,-0.0011129,0.0376675,0.000429985,-0.738246,-0.0509595,9.78424,-0.0325269,0.234713,0.969726,-0.00738454,-0.000520183,0.0978422,1,5.25081e-05,-1.07401e-05,2.1137e-05,0.0105016,-0.00214801,0.00422741,0.99929,-0.0011129,0.0376675,0.000429985,0.175673,-0.255948,-0.951938,34.3125,1,44006,4446381
15,3,0.99929,-0.0011129,0.0376675,0.000429985,-0.738246,-0.0509595,9.78424,-0.0325269,0.234713,0.969726,-0.00738454,-0.000520183,0.0978422,1,5.25081e-05,-1.07401e-05,2.1137e-05,0.0105016,-0.00214801,0.00422741,0.99929,-0.0011129,0.0376675,0.000429985,0.175673,-0.255948,-0.951938,34.3125,1,44006,4446381
15,4,0.99929,-0.0011129,0.0376675,0.000429985,-0.738246,-0.0509595,9.78424,-0.0325269,0.234713,0.969726,-0.00738454,-0.000520183,0.0978422,1,5.25081e-05,-1.07401e-05,2.1137e-05,0.0105016,-0.00214801,0.00422741,0.99929,-0.0011129,0.0376675,0.000429985,0.175673,-0.255948,-0.951938,34.3125,1,44006,4446381
15,5,0.99929,-0.00106667,0.0376527,0.000457458,-0.747871,-0.049548,9.77379,-0.0406234,0.232644,0.959758,-0.00748158,-0.000504958,0.0977377,1,4.62346e-05,-1.48692e-05,2.94727e-05,0.00924693,-0.00297384,0.00589455,0.99929,-0.00106667,0.0376527,0.000457458,0.175286,-0.256495,-0.948413,34.3125,1,44007,4446481
15,6,0.99929,-0.00106667,0.0376527,0.000457458,-0.747871,-0.049548,9.77379,-0.0406234,0.232644,0.959758,-0.00748158,-0.000504958,0.0977377,1,4.62346e-05,-1.48692e-05,2.94727e-05,0.00924693,-0.00297384,0.00589455,0.99929,-0.00106667,0.0376527,0.000457458,0.175286,-0.256495,-0.948413,34.3125,1,44007,4446481
16,1,0.99929,-0.00106667,0.0376527,0.000457458,-0.747871,-0.049548,9.77379,-0.0406234,0.232644,0.959758,-0.00748158,-0.000504958,0.0977377,1,4.62346e-05,-1.48692e-05,2.94727e-05,0.00924693,-0.00297384,0.00589455,0.99929,-0.00106667,0.0376527,0.000457458,0.175286,-0.256495,-0.948413,34.3125,1,44007,4446481
16,2,0.99929,-0.00102356,0.0376587,0.000486046,-0.737441,-0.0529998,9.77945,-0.0328528,0.220828,0.961287,-0.00737321,-0.000538851,0.0977945,1,4.29674e-05,5.98119e-06,3.04431e-05,0.00859349,0.00119624,0.00608862,0.99929,-0.00102356,0.0376587,0.000486046,0.174829,-0.2594,-0.949486,34.3125,1,44008,4446581
16,3,0.99929,-0.00102356,0.0376587,0.000486046,-0.737441,-0.0529998,9.77945,-0.0328528,0.220828,0.961287,-0.00737321,-0.000538851,0.0977945,1,4.29674e-05,5.98119e-06,3.04431e-05,0.00859349,0.00119624,0.00608862,0.99929,-0.00102356,0.0376587,0.000486046,0.174829,-0.2594,-0.949486,34.3125,1,44008,4446581
16,4,0.99929,-0.00102356,0.0376587,0.000486046,-0.737441,-0.0529998,9.77945,-0.0328528,0.220828,0.961287,-0.00737321,-0.000538851,0.0977945,1,4.29674e-05,5.98119e-06,3.04431e-05,0.00859349,0.00119624,0.00608862,0.99929,-0.00102356,0.0376587,0.000486046,0.174829,-0.2594,-0.949486,34.3125,1,44008,4446581
16,5,0.999291,-0.000975812,0.0376373,0.000503227,-0.740959,-0.0450917,9.78227,-0.0388495,0.232719,0.961491,-0.00741378,-0.000460729,0.0978224,1,4.86728e-05,-2.15173e-05,1.95056e-05,0.00973455,-0.00430345,0.00390113,0.999291,-0.000975812,0.0376373,0.000503227,0.174783,-0.261775,-0.953074,34.3125,1,44009,4446681
16,6,0.999291,-0.000975812,0.0376373,0.000503227,-0.740959,-0.0450917,9.78227,-0.0388495,0.232719,0.961491,-0.00741378,-0.000460729,0.0978224,1,4.86728e-05,-2.15173e-05,1.95056e-05,0.00973455,-0.00430345,0.00390113,0.999291,-0.000975812,0.0376373,0.000503227,0.174783,-0.261775,-0.953074,34.3125,1,44009,4446681
16,7,0.999291,-0.000975812,0.0376373,0.000503227,-0.740959,-0.0450917,9.78227,-0.0388495,0.232719,0.961491,-0.00741378,-0.000460729,0.0978224,1,4.86728e-05,-2.15173e-05,1.95056e-05,0.00973455,-0.00430345,0.00390113,0.999291,-0.000975812,0.0376373,0.000503227,0.174783,-0.261775,-0.953074,34.3125,1,44009,4446681
16,8,0.999292,-0.000929195,0.0376234,0.000530524,-0.741619,-0.0529216,9.78424,-0.0375268,0.226344,0.968637,-0.00741889,-0.000538819,0.0978422,1,4.68511e-05,-1.39753e-05,2.93162e-05,0.00937023,-0.00279506,0.00586325,0.999292,-0.000929195,0.0376234,0.000530524,0.175618,-0.259281,-0.956557,34.3125,1,44010,4446781
17,1,0.999292,-0.000929195,0.0376234,0.000530524,-0.741619,-0.0529216,9.78424,-0.0375268,0.226344,0.968637,-0.00741889,-0.000538819,0.0978422,1,4.68511e-05,-1.39753e-05,2.93162e-05,0.00937023,-0.00279506,0.00586325,0.999292,-0.000929195,0.0376234,0.000530524,0.175618,-0.259281,-0.956557,34.3125,1,44010,4446781
17,2,0.999292,-0.000929195,0.0376234,0.000530524,-0.741619,-0.0529216,9.78424,-0.0375268,0.226344,0.968637,-0.00741889,-0.000538819,0.0978422,1,4.68511e-05,-1.39753e-05,2.93162e-05,0.00937023,-0.00279506,0.00586325,0.999292,-0.000929195,0.0376234,0.000530524,0.175618,-0.259281,-0.956557,34.3125,1,44010,4446781
17,3,0.999292,-0.000884115,0.0376086,0.000544148,-0.743322,-0.0531098,9.78595,-0.0386535,0.229285,0.968672,-0.00743611,-0.000540383,0.0978592,1,4.62383e-05,-1.48788e-05,1.5799e-05,0.00924766,-0.00297576,0.00315979,0.999292,-0.000884115,0.0376086,0.000544148,0.176083,-0.25831,-0.956538,34.3125,1,44011,4446881
17,4,0.999292,-0.000884115,0.0376086,0.000544148,-0.743322,-0.0531098,9.78595,-0.0386535,0.229285,0.968672,-0.00743611,-0.000540383,0.0978592,1,4.62383e-05,-1.48788e-05,1.5799e-05,0.00924766,-0.00297576,0.00315979,0.999292,-0.000884115,0.0376086,0.000544148,0.176083,-0.25831,-0.956538,34.3125,1,44011,4446881
17,5,0.999292,-0.000884115,0.0376086,0.000544148,-0.743322,-0.0531098,9.78595,-0.0386535,0.229285,0.968672,-0.00743611,-0.000540383,0.0978592,1,4.62383e-05,-1.48788e-05,1.5799e-05,0.00924766,-0.00297576,0.00315979,0.999292,-0.000884115,0.0376086,0.000544148,0.176083,-0.25831,-0.956538,34.3125,1,44011,4446881
17,6,0.999292,-0.000848353,0.0375976,0.000551676,-0.738988,-0.049227,9.77815,-0.0314934,0.227166,0.965076,-0.00739203,-0.000499692,0.0977813,1,3.72287e-05,-1.10306e-05,9.54793e-06,0.00744573,-0.00220613,0.00190958,0.999292,-0.000848353,0.0375976,0.000551676,0.174714,-0.256907,-0.95246,34.3125,1,44012,4446981
18,1,0.999292,-0.000848353,0.0375976,0.000551676,-0.738988,-0.049227,9.77815,-0.0314934,0.227166,0.965076,-0.00739203,-0.000499692,0.0977813,1,3.72287e-05,-1.10306e-05,9.54793e-06,0.00744573,-0.00220613,0.00190958,0.999292,-0.000848353,0.0375976,0.000551676,0.174714,-0.256907,-0.95246,34.3125,1,44012,4446981
18,2,0.999292,-0.000848353,0.0375976,0.000551676,-0.738988,-0.049227,9.77815,-0.0314934,0.227166,0.965076,-0.00739203,-0.000499692,0.0977813,1,3.72287e-05,-1.10306e-05,9.54793e-06,0.00744573,-0.00220613,0.00190958,0.999292,-0.000848353,0.0375976,0.000551676,0.174714,-0.256907,-0.95246,34.3125,1,44012,4446981
18,3,0.999293,-0.000815029,0.0375734,0.0005857,-0.732269,-0.0565435,9.78857,-0.0334452,0.223568,0.974303,-0.0073274,-0.00057263,0.0978853,1,3.40605e-05,-2.42852e-05,3.59731e-05,0.0068121,-0.00485705,0.00719461,0.999293,-0.000815029,0.0375734,0.0005857,0.174328,-0.257454,-0.948935,34.3125,1,44013,4447081
18,4,0.999293,-0.000815029,0.0375734,0.0005857,-0.732269,-0.0565435,9.78857,-0.0334452,0.223568,0.974303,-0.0073274,-0.00057263,0.0978853,1,3.40605e-05,-2.42852e-05,3.59731e-05,0.0068121,-0.00485705,0.00719461,0.999293,-0.000815029,0.0375734,0.0005857,0.174328,-0.257454,-0.948935,34.3125,1,44013,4447081
18,5,0.999293,-0.000815029,0.0375734,0.0005857,-0.732269,-0.0565435,9.78857,-0.0334452,0.223568,0.974303,-0.0073274,-0.00057263,0.0978853,1,3.40605e-05,-2.42852e-05,3.59731e-05,0.0068121,-0.00485705,0.00719461,0.999293,-0.000815029,0.0375734,0.0005857,0.174328,-0.257454,-0.948935,34.3125,1,44013,4447081
18,6,0.999294,-0.000774212,0.0375605,0.00060869,-0.738653,-0.048573,9.78222,-0.0332484,0.227876,0.961895,-0.00738906,-0.000494343,0.097822,1,4.21124e-05,-1.30183e-05,2.53209e-05,0.00842248,-0.00260366,0.00506418,0.999294,-0.000774212,0.0375605,0.00060869,0.172399,-0.259362,-0.950484,34.3125,1,44014,4447181
19,1,0.999294,-0.000774212,0.0375605,0.00060869,-0.738653,-0.048573,9.78222,-0.0332484,0.227876,0.961895,-0.00738906,-0.000494343,0.097822,1,4.21124e-05,-1.30183e-05,2.53209e-05,0.00842248,-0.00260366,0.00506418,0.999294,-0.000774212,0.0375605,0.00060869,0.172399,-0.259362,-0.950484,34.3125,1,44014,4447181
19,2,0.999294,-0.000774212,0.0375605,0.00060869,-0.738653,-0.048573,9.78222,-0.0332484,0.227876,0.961895,-0.00738906,-0.000494343,0.097822,1,4.21124e-05,-1.30183e-05,2.53209e-05,0.00842248,-0.00260366,0.00506418,0.999294,-0.000774212,0.0375605,0.00060869,0.172399,-0.259362,-0.950484,34.3125,1,44014,4447181
19,3,0.999294,-0.000732462,0.0375551,0.000614738,-0.738894,-0.0561018,9.78081,-0.0344958,0.218668,0.96,-0.00739001,-0.000569649,0.097808,1,4.34928e-05,-5.49477e-06,8.36091e-06,0.00869857,-0.00109895,0.00167218,0.999294,-0.000732462,0.0375551,0.000614738,0.173307,-0.261258,-0.954065,34.3125,1,44015,4447281
19,4,0.999294,-0.000732462,0.0375551,0.000614738,-0.738894,-0.0561018,9.78081,-0.0344958,0.218668,0.96,-0.00739001,-0.000569649,0.097808,1,4.34928e-05,-5.49477e-06,8.36091e-06,0.00869857,-0.00109895,0.00167218,0.999294,-0.000732462,0.0375551,0.000614738,0.173307,-0.261258,-0.954065,34.3125,1,44015,4447281
19,5,0.999294,-0.000732462,0.0375551,0.000614738,-0.738894,-0.0561018,9.78081,-0.0344958,0.218668,0.96,-0.00739001,-0.000569649,0.097808,1,4.34928e-05,-5.49477e-06,8.36091e-06,0.00869857,-0.00109895,0.00167218,0.999294,-0.000732462,0.0375551,0.000614738,0.173307,-0.261258,-0.954065,34.3125,1,44015,4447281
19,6,0.999294,-0.000695841,0.0375471,0.000636918,-0.744506,-0.0524007,9.78222,-0.0351339,0.22648,0.963089,-0.00744662,-0.000531739,0.097822,1,3.76942e-05,-8.10067e-06,2.39855e-05,0.00753884,-0.00162013,0.00479711,0.999294,-0.000695841,0.0375471,0.000636918,0.17417,-0.261194,-0.958108,34.3125,1,44016,4447381
20,1,0.999294,-0.000695841,0.0375471,0.000636918,-0.744506,-0.0524007,9.78222,-0.0351339,0.22648,0.963089,-0.00744662,-0.000531739,0.097822,1,3.76942e-05,-8.10067e-06,2.39855e-05,0.00753884,-0.00162013,0.00479711,0.999294,-0.000695841,0.0375471,0.000636918,0.17417,-0.261194,-0.958108,34.3125,1,44016,4447381
20,2,0.999294,-0.000695841,0.0375471,0.000636918,-0.744506,-0.0524007,9.78222,-0.0351339,0.22648,0.963089,-0.00744662,-0.000531739,0.097822,1,3.76942e-05,-8.10067e-06,2.39855e-05,0.00753884,-0.00162013,0.00479711,0.999294,-0.000695841,0.0375471,0.000636918,0.17417,-0.261194,-0.958108,34.3125,1,44016,4447381
20,3,0.999294,-0.000656724,0.0375519,0.000651851,-0.729229,-0.0488545,9.78588,-0.020955,0.225836,0.973802,-0.00729135,-0.000496778,0.0978588,1,4.07939e-05,4.71969e-06,1.70934e-05,0.00815878,0.000943938,0.00341867,0.999294,-0.000656724,0.0375519,0.000651851,0.175578,-0.258288,-0.957545,34.3125,1,44017,4447481
20,4,0.999294,-0.000656724,0.0375519,0.000651851,-0.729229,-0.0488545,9.78588,-0.020955,0.225836,0.973802,-0.00729135,-0.000496778,0.0978588,1,4.07939e-05,4.71969e-06,1.70934e-05,0.00815878,0.000943938,0.00341867,0.999294,-0.000656724,0.0375519,0.000651851,0.175578,-0.258288,-0.957545,34.3125,1,44017,4447481
20,5,0.999294,-0.000656724,0.0375519,0.000651851,-0.729229,-0.0488545,9.78588,-0.020955,0.225836,0.973802,-0.00729135,-0.000496778,0.0978588,1,4.07939e-05,4.71969e-06,1.70934e-05,0.00815878,0.000943938,0.00341867,0.999294,-0.000656724,0.0375519,0.000651851,0.175578,-0.258288,-0.957545,34.3125,1,44017,4447481
20,6,0.999295,-0.00061479,0.0375323,0.000671133,-0.739923,-0.0470589,9.77309,-0.0348254,0.224592,0.959715,-0.00740305,-0.000479429,0.0977306,1,4.35955e-05,-1.96264e-05,2.15096e-05,0.0087191,-0.00392528,0.00430193,0.999295,-0.00061479,0.0375323,0.000671133,0.175624,-0.254467,-0.952915,34.3125,1,44018,4447581
21,1,0.999295,-0.00061479,0.0375323,0.000671133,-0.739923,-0.0470589,9.77309,-0.0348254,0.224592,0.959715,-0.00740305,-0.000479429,0.0977306,1,4.35955e-05,-1.96264e-05,2.15096e-05,0.0087191,-0.00392528,0.00430193,0.999295,-0.00061479,0.0375323,0.000671133,0.175624,-0.254467,-0.952915,34.3125,1,44018,4447581
21,2,0.999295,-0.00061479,0.0375323,0.000671133,-0.739923,-0.0470589,9.77309,-0.0348254,0.224592,0.959715,-0.00740305,-0.000479429,0.0977306,1,4.35955e-05,-1.96264e-05,2.15096e-05,0.0087191,-0.00392528,0.00430193,0.999295,-0.00061479,0.0375323,0.000671133,0.175624,-0.254467,-0.952915,34.3125,1,44018,4447581
21,3,0.999296,-0.000565,0.0375029,0.000687723,-0.734256,-0.0560189,9.78791,-0.0328062,0.210674,0.976707,-0.00734833,-0.000570505,0.0978786,1,5.12898e-05,-2.95901e-05,1.8792e-05,0.010258,-0.00591802,0.00375839,0.999296,-0.000565,0.0375029,0.000687723,0.174814,-0.255534,-0.947379,34.3125,1,44019,4447681
21,4,0.999296,-0.000565,0.0375029,0.000687723,-0.734256,-0.0560189,9.78791,-0.0328062,0.210674,0.976707,-0.00734833,-0.000570505,0.0978786,1,5.12898e-05,-2.95901e-05,1.8792e-05,0.010258,-0.00591802,0.00375839,0.999296,-0.000565,0.0375029,0.000687723,0.174814,-0.255534,-0.947379,34.3125,1,44019,4447681
22,1,0.999296,-0.000565,0.0375029,0.000687723,-0.734256,-0.0560189,9.78791,-0.0328062,0.210674,0.976707,-0.00734833,-0.000570505,0.0978786,1,5.12898e-05,-2.95901e-05,1.8792e-05,0.010258,-0.00591802,0.00375839,0.999296,-0.000565,0.0375029,0.000687723,0.174814,-0.255534,-0.947379,34.3125,1,44019,4447681
22,2,0.999296,-0.00051801,0.0375086,0.000701628,-0.743127,-0.0522602,9.78696,-0.0359348,0.211076,0.971229,-0.00743016,-0.00053243,0.0978697,1,4.89709e-05,5.592e-06,1.63537e-05,0.00979417,0.0011184,0.00327074,0.999296,-0.00051801,0.0375086,0.000701628,0.174389,-0.258944,-0.947453,34.3125,1,44020,4447781
22,3,0.999296,-0.00051801,0.0375086,0.000701628,-0.743127,-0.0522602,9.78696,-0.0359348,0.211076,0.971229,-0.00743016,-0.00053243,0.0978697,1,4.89709e-05,5.592e-06,1.63537e-05,0.00979417,0.0011184,0.00327074,0.999296,-0.00051801,0.0375086,0.000701628,0.174389,-0.258944,-0.947453,34.3125,1,44020,4447781
22,4,0.999296,-0.00051801,0.0375086,0.000701628,-0.743127,-0.0522602,9.78696,-0.0359348,0.211076,0.971229,-0.00743016,-0.00053243,0.0978697,1,4.89709e-05,5.592e-06,1.63537e-05,0.00979417,0.0011184,0.00327074,0.999296,-0.00051801,0.0375086,0.000701628,0.174389,-0.258944,-0.947453,34.3125,1,44020,4447781
22,5,0.999296,-0.000486964,0.0375026,0.000705574,-0.747848,-0.0477059,9.78229,-0.0434633,0.218778,0.962127,-0.00747967,-0.000483724,0.0978228,1,3.36152e-05,-6.10738e-06,5.85042e-06,0.00672304,-0.00122148,0.00117008,0.999296,-0.000486964,0.0375026,0.000705574,0.175272,-0.260822,-0.952044,34.3125,1,44021,4447881
22,6,0.999296,-0.000486964,0.0375026,0.000705574,-0.747848,-0.0477059,9.78229,-0.0434633,0.218778,0.962127,-0.00747967,-0.000483724,0.0978228,1,3.36152e-05,-6.10738e-06,5.85042e-06,0.00672304,-0.00122148,0.00117008,0.999296,-0.000486964,0.0375026,0.000705574,0.175272,-0.260822,-0.952044,34.3125,1,44021,4447881
23,1,0.999296,-0.000486964,0.0375026,0.000705574,-0.747848,-0.0477059,9.78229,-0.0434633,0.218778,0.962127,-0.00747967,-0.000483724,0.0978228,1,3.36152e-05,-6.10738e-06,5.85042e-06,0.00672304,-0.00122148,0.00117008,0.999296,-0.000486964,0.0375026,0.000705574,0.175272,-0.260822,-0.952044,34.3125,1,44021,4447881
23,2,0.999297,-0.000441537,0.0374854,0.000699977,-0.742748,-0.0467648,9.77481,-0.0444,0.222429,0.950981,-0.00743089,-0.000477169,0.0977478,1,4.89112e-05,-1.74474e-05,-2.79578e-06,0.00978224,-0.00348948,-0.000559157,0.999297,-0.000441537,0.0374854,0.000699977,0.175618,-0.260727,-0.9576,34.3125,1,44022,4447981
23,3,0.999297,-0.000441537,0.0374854,0.000699977,-0.742748,-0.0467648,9.77481,-0.0444,0.222429,0.950981,-0.00743089,-0.000477169,0.0977478,1,4.89112e-05,-1.74474e-05,-2.79578e-06,0.00978224,-0.00348948,-0.000559157,0.999297,-0.000441537,0.0374854,0.000699977,0.175618,-0.260727,-0.9576,34.3125,1,44022,4447981
23,4,0.999297,-0.000441537,0.0374854,0.000699977,-0.742748,-0.0467648,9.77481,-0.0444,0.222429,0.950981,-0.00743089,-0.000477169,0.0977478,1,4.89112e-05,-1.74474e-05,-2.79578e-06,0.00978224,-0.00348948,-0.000559157,0.999297,-0.000441537,0.0374854,0.000699977,0.175618,-0.260727,-0.9576,34.3125,1,44022,4447981
23,5,0.999297,-0.000387655,0.0374812,0.000714812,-0.728097,-0.0459351,9.78591,-0.0219043,0.218142,0.969074,-0.00728182,-0.000470664,0.097859,1,5.64755e-05,-4.40083e-06,1.78941e-05,0.0112951,-0.000880167,0.00357881,0.999297,-0.000387655,0.0374812,0.000714812,0.176491,-0.256815,-0.958527,34.3125,1,44023,4448081
23,6,0.999297,-0.000387655,0.0374812,0.000714812,-0.728097,-0.0459351,9.78591,-0.0219043,0.218142,0.969074,-0.00728182,-0.000470664,0.097859,1,5.64755e-05,-4.40083e-06,1.78941e-05,0.0112951,-0.000880167,0.00357881,0.999297,-0.000387655,0.0374812,0.000714812,0.176491,-0.256815,-0.958527,34.3125,1,44023,4448081
24,1,0.999297,-0.000387655,0.0374812,0.000714812,-0.728097,-0.0459351,9.78591,-0.0219043,0.218142,0.969074,-0.00728182,-0.000470664,0.097859,1,5.64755e-05,-4.40083e-06,1.78941e-05,0.0112951,-0.000880167,0.00357881,0.999297,-0.000387655,0.0374812,0.000714812,0.176491,-0.256815,-0.958527,34.3125,1,44023,4448081
24,2,0.999298,-0.000340807,0.037464,0.000721048,-0.739854,-0.0604709,9.78315,-0.0320123,0.208509,0.972589,-0.00740193,-0.000614574,0.0978312,1,4.97419e-05,-1.7425e-05,8.90166e-06,0.00994838,-0.003485,0.00178033,0.999298,-0.000340807,0.037464,0.000721048,0.177023,-0.252519,-0.953383,34.3125,1,44024,4448181
24,3,0.999298,-0.000340807,0.037464,0.000721048,-0.739854,-0.0604709,9.78315,-0.0320123,0.208509,0.972589,-0.00740193,-0.000614574,0.0978312,1,4.97419e-05,-1.7425e-05,8.90166e-06,0.00994838,-0.003485,0.00178033,0.999298,-0.000340807,0.037464,0.000721048,0.177023,-0.252519,-0.953383,34.3125,1,44024,4448181
24,4,0.999298,-0.000340807,0.037464,0.000721048,-0.739854,-0.0604709,9.78315,-0.0320123,0.208509,0.972589,-0.00740193,-0.000614574,0.0978312,1,4.97419e-05,-1.7425e-05,8.90166e-06,0.00994838,-0.003485,0.00178033,0.999298,-0.000340807,0.037464,0.000721048,0.177023,-0.252519,-0.953383,34.3125,1,44024,4448181
24,5,0.999298,-0.000311316,0.0374644,0.000736209,-0.744935,-0.0504274,9.78359,-0.0421615,0.210261,0.972034,-0.00744932,-0.00051085,0.0978359,1,3.23167e-05,6.13596e-08,1.69336e-05,0.00646335,1.22719e-05,0.00338671,0.999298,-0.000311316,0.0374644,0.000736209,0.175805,-0.255081,-0.945859,34.3125,1,44025,4448281
24,6,0.999298,-0.000311316,0.0374644,0.000736209,-0.744935,-0.0504274,9.78359,-0.0421615,0.210261,0.972034,-0.00744932,-0.00051085,0.0978359,1,3.23167e-05,6.13596e-08,1.69336e-05,0.00646335,1.22719e-05,0.00338671,0.999298,-0.000311316,0.0374644,0.000736209,0.175805,-0.255081,-0.945859,34.3125,1,44025,4448281
25,1,0.999298,-0.000311316,0.0374644,0.000736209,-0.744935,-0.0504274,9.78359,-0.0421615,0.210261,0.972034,-0.00744932,-0.00051085,0.0978359,1,3.23167e-05,6.13596e-08,1.69336e-05,0.00646335,1.22719e-05,0.00338671,0.999298,-0.000311316,0.0374644,0.000736209,0.175805,-0.255081,-0.945859,34.3125,1,44025,4448281
25,2,0.999298,-0.000269127,0.0374503,0.000746711,-0.749481,-0.0595408,9.77949,-0.050829,0.197159,0.963579,-0.00749759,-0.000604579,0.0977946,1,4.58787e-05,-1.43033e-05,1.31952e-05,0.00917575,-0.00286066,0.00263904,0.999298,-0.000269127,0.0374503,0.000746711,0.173904,-0.257973,-0.946924,34.3125,1,44026,4448381
25,3,0.999298,-0.000269127,0.0374503,0.000746711,-0.749481,-0.0595408,9.77949,-0.050829,0.197159,0.963579,-0.00749759,-0.000604579,0.0977946,1,4.58787e-05,-1.43033e-05,1.31952e-05,0.00917575,-0.00286066,0.00263904,0.999298,-0.000269127,0.0374503,0.000746711,0.173904,-0.257973,-0.946924,34.3125,1,44026,4448381
25,4,0.999298,-0.000269127,0.0374503,0.000746711,-0.749481,-0.0595408,9.77949,-0.050829,0.197159,0.963579,-0.00749759,-0.000604579,0.0977946,1,4.58787e-05,-1.43033e-05,1.31952e-05,0.00917575,-0.00286066,0.00263904,0.999298,-0.000269127,0.0374503,0.000746711,0.173904,-0.257973,-0.946924,34.3125,1,44026,4448381
25,5,0.999299,-0.00022889,0.037441,0.000766707,-0.727687,-0.0542399,9.78685,-0.0255823,0.206523,0.962085,-0.00727872,-0.000551266,0.0978683,1,4.36176e-05,-9.60176e-06,2.26348e-05,0.00872352,-0.00192035,0.00452697,0.999299,-0.00022889,0.037441,0.000766707,0.174318,-0.261302,-0.952051,34.3125,1,44027,4448481
25,6,0.999299,-0.00022889,0.037441,0.000766707,-0.727687,-0.0542399,9.78685,-0.0255823,0.206523,0.962085,-0.00727872,-0.000551266,0.0978683,1,4.36176e-05,-9.60176e-06,2.26348e-05,0.00872352,-0.00192035,0.00452697,0.999299,-0.00022889,0.037441,0.000766707,0.174318,-0.261302,-0.952051,34.3125,1,44027,4448481
26,1,0.999299,-0.00022889,0.037441,0.000766707,-0.727687,-0.0542399,9.78685,-0.0255823,0.206523,0.962085,-0.00727872,-0.000551266,0.0978683,1,4.36176e-05,-9.60176e-06,2.26348e-05,0.00872352,-0.00192035,0.00452697,0.999299,-0.00022889,0.037441,0.000766707,0.174318,-0.261302,-0.952051,34.3125,1,44027,4448481
26,2,0.999299,-0.000186151,0.037432,0.000778787,-0.735291,-0.0426429,9.77852,-0.0312704,0.219188,0.955622,-0.00735471,-0.000435708,0.097785,1,4.63277e-05,-9.30419e-06,1.48543e-05,0.00926554,-0.00186084,0.00297086,0.999299,-0.000186151,0.037432,0.000778787,0.175683,-0.261738,-0.955602,34.3125,1,44028,4448581
26,3,0.999299,-0.000186151,0.037432,0.000778787,-0.735291,-0.0426429,9.77852,-0.0312704,0.219188,0.955622,-0.00735471,-0.000435708,0.097785,1,4.63277e-05,-9.30419e-06,1.48543e-05,0.00926554,-0.00186084,0.00297086,0.999299,-0.000186151,0.037432,0.000778787,0.175683,-0.261738,-0.955602,34.3125,1,44028,4448581
26,4,0.999299,-0.000186151,0.037432,0.000778787,-0.735291,-0.0426429,9.77852,-0.0312704,0.219188,0.955622,-0.00735471,-0.000435708,0.097785,1,4.63277e-05,-9.30419e-06,1.48543e-05,0.00926554,-0.00186084,0.00297086,0.999299,-0.000186151,0.037432,0.000778787,0.175683,-0.261738,-0.955602,34.3125,1,44028,4448581
26,5,0.999299,-0.000148571,0.0374291,0.000788563,-0.746151,-0.052117,9.78529,-0.0420798,0.213497,0.969973,-0.0074621,-0.000529543,0.0978528,1,4.18574e-05,-3.08828e-06,1.21499e-05,0.00837148,-0.000617656,0.00242998,0.999299,-0.000148571,0.0374291,0.000788563,0.178004,-0.257359,-0.956021,34.3125,1,44029,4448681
26,6,0.999299,-0.000148571,0.0374291,0.000788563,-0.746151,-0.052117,9.78529,-0.0420798,0.213497,0.969973,-0.0074621,-0.000529543,0.0978528,1,4.18574e-05,-3.08828e-06,1.21499e-05,0.00837148,-0.000617656,0.00242998,0.999299,-0.000148571,0.0374291,0.000788563,0.178004,-0.257359,-0.956021,34.3125,1,44029,4448681
27,1,0.999299,-0.000148571,0.0374291,0.000788563,-0.746151,-0.052117,9.78529,-0.0420798,0.213497,0.969973,-0.0074621,-0.000529543,0.0978528,1,4.18574e-05,-3.08828e-06,1.21499e-05,0.00837148,-0.000617656,0.00242998,0.999299,-0.000148571,0.0374291,0.000788563,0.178004,-0.257359,-0.956021,34.3125,1,44029,4448681
27,2,0.9993,-0.00011434,0.0374136,0.000797242,-0.739619,-0.0516442,9.77813,-0.0368429,0.213415,0.963479,-0.00739924,-0.000524138,0.0977811,1,3.84525e-05,-1.56498e-05,1.19023e-05,0.00769051,-0.00312996,0.00238045,0.9993,-0.00011434,0.0374136,0.000797242,0.177084,-0.254009,-0.951901,34.3125,1,44030,4448781
27,3,0.9993,-0.00011434,0.0374136,0.000797242,-0.739619,-0.0516442,9.77813,-0.0368429,0.213415,0.963479,-0.00739924,-0.000524138,0.0977811,1,3.84525e-05,-1.56498e-05,1.19023e-05,0.00769051,-0.00312996,0.00238045,0.9993,-0.00011434,0.0374136,0.000797242,0.177084,-0.254009,-0.951901,34.3125,1,44030,4448781
27,4,0.9993,-0.00011434,0.0374136,0.000797242,-0.739619,-0.0516442,9.77813,-0.0368429,0.213415,0.963479,-0.00739924,-0.000524138,0.0977811,1,3.84525e-05,-1.56498e-05,1.19023e-05,0.00769051,-0.00312996,0.00238045,0.9993,-0.00011434,0.0374136,0.000797242,0.177084,-0.254009,-0.951901,34.3125,1,44030,4448781
28,1,0.9993,-7.91372e-05,0.0373914,0.000807062,-0.737795,-0.0605273,9.77873,-0.0407514,0.197349,0.966954,-0.00738234,-0.000613198,0.0977869,1,3.95943e-05,-2.25211e-05,1.22581e-05,0.00791886,-0.00450423,0.00245163,0.9993,-7.91372e-05,0.0373914,0.000807062,0.175768,-0.255054,-0.947373,34.3125,1,44031,4448881
28,2,0.9993,-7.91372e-05,0.0373914,0.000807062,-0.737795,-0.0605273,9.77873,-0.0407514,0.197349,0.966954,-0.00738234,-0.000613198,0.0977869,1,3.95943e-05,-2.25211e-05,1.22581e-05,0.00791886,-0.00450423,0.00245163,0.9993,-7.91372e-05,0.0373914,0.000807062,0.175768,-0.255054,-0.947373,34.3125,1,44031,4448881
28,3,0.9993,-7.91372e-05,0.0373914,0.000807062,-0.737795,-0.0605273,9.77873,-0.0407514,0.197349,0.966954,-0.00738234,-0.000613198,0.0977869,1,3.95943e-05,-2.25211e-05,1.22581e-05,0.00791886,-0.00450423,0.00245163,0.9993,-7.91372e-05,0.0373914,0.000807062,0.175768,-0.255054,-0.947373,34.3125,1,44031,4448881
28,4,0.999301,-3.97893e-05,0.0373798,0.000820014,-0.745434,-0.053034,9.78325,-0.0518398,0.200688,0.96641,-0.00745669,-0.00053911,0.0978322,1,4.36232e-05,-1.20734e-05,1.56762e-05,0.00872463,-0.00241468,0.00313523,0.999301,-3.97893e-05,0.0373798,0.000820014,0.174842,-0.257963,-0.947939,34.3125,1,44032,4448981
28,5,0.999301,-3.97893e-05,0.0373798,0.000820014,-0.745434,-0.053034,9.78325,-0.0518398,0.200688,0.96641,-0.00745669,-0.00053911,0.0978322,1,4.36232e-05,-1.20734e-05,1.56762e-05,0.00872463,-0.00241468,0.00313523,0.999301,-3.97893e-05,0.0373798,0.000820014,0.174842,-0.257963,-0.947939,34.3125,1,44032,4448981
28,6,0.999301,-3.97893e-05,0.0373798,0.000820014,-0.745434,-0.053034,9.78325,-0.0518398,0.200688,0.96641,-0.00745669,-0.00053911,0.0978322,1,4.36232e-05,-1.20734e-05,1.56762e-05,0.00872463,-0.00241468,0.00313523,0.999301,-3.97893e-05,0.0373798,0.000820014,0.174842,-0.257963,-0.947939,34.3125,1,44032,4448981
29,1,0.999301,1.40628e-05,0.0373632,0.000832087,-0.737186,-0.051085,9.77881,-0.042847,0.200499,0.956546,-0.00737519,-0.000522563,0.0977878,1,5.87236e-05,-1.70675e-05,1.55007e-05,0.0117447,-0.00341351,0.00310014,0.999301,1.40628e-05,0.0373632,0.000832087,0.174783,-0.261775,-0.953074,34.3125,1,44033,4449081
29,2,0.999301,1.40628e-05,0.0373632,0.000832087,-0.737186,-0.051085,9.77881,-0.042847,0.200499,0.956546,-0.00737519,-0.000522563,0.0977878,1,5.87236e-05,-1.70675e-05,1.55007e-05,0.0117447,-0.00341351,0.00310014,0.999301,1.40628e-05,0.0373632,0.000832087,0.174783,-0.261775,-0.953074,34.3125,1,44033,4449081
29,3,0.999301,1.40628e-05,0.0373632,0.000832087,-0.737186,-0.051085,9.77881,-0.042847,0.200499,0.956546,-0.00737519,-0.000522563,0.0977878,1,5.87236e-05,-1.70675e-05,1.55007e-05,0.0117447,-0.00341351,0.00310014,0.999301,1.40628e-05,0.0373632,0.000832087,0.174783,-0.261775,-0.953074,34.3125,1,44033,4449081
29,4,0.999302,4.50562e-05,0.0373589,0.000834322,-0.739051,-0.0393871,9.78807,-0.0414016,0.21634,0.965816,-0.00739148,-0.000401251,0.0978806,1,3.72734e-05,-4.95844e-06,5.66605e-06,0.00745468,-0.000991688,0.00113321,0.999302,4.50562e-05,0.0373589,0.000834322,0.174672,-0.261694,-0.957617,34.3125,1,44034,4449181
29,5,0.999302,4.50562e-05,0.0373589,0.000834322,-0.739051,-0.0393871,9.78807,-0.0414016,0.21634,0.965816,-0.00739148,-0.000401251,0.0978806,1,3.72734e-05,-4.95844e-06,5.66605e-06,0.00745468,-0.000991688,0.00113321,0.999302,4.50562e-05,0.0373589,0.000834322,0.174672,-0.261694,-0.957617,34.3125,1,44034,4449181
29,6,0.999302,4.50562e-05,0.0373589,0.000834322,-0.739051,-0.0393871,9.78807,-0.0414016,0.21634,0.965816,-0.00739148,-0.000401251,0.0978806,1,3.72734e-05,-4.95844e-06,5.66605e-06,0.00745468,-0.000991688,0.00113321,0.999302,4.50562e-05,0.0373589,0.000834322,0.174672,-0.261694,-0.957617,34.3125,1,44034,4449181
29,7,0.999301,8.3275e-05,0.0373609,0.000847775,-0.741485,-0.0486622,9.78766,-0.0404694,0.206104,0.970834,-0.00741457,-0.000495649,0.0978766,1,4.48115e-05,1.35436e-06,1.72296e-05,0.0089623,0.000270873,0.00344592,0.999301,8.3275e-05,0.0373609,0.000847775,0.17513,-0.257344,-0.955502,34.3125,1,44035,4449281
29,8,0.999301,8.3275e-05,0.0373609,0.000847775,-0.741485,-0.0486622,9.78766,-0.0404694,0.206104,0.970834,-0.00741457,-0.000495649,0.0978766,1,4.48115e-05,1.35436e-06,1.72296e-05,0.0089623,0.000270873,0.00344592,0.999301,8.3275e-05,0.0373609,0.000847775,0.17513,-0.257344,-0.955502,34.3125,1,44035,4449281
30,1,0.999301,8.3275e-05,0.0373609,0.000847775,-0.741485,-0.0486622,9.78766,-0.0404694,0.206104,0.970834,-0.00741457,-0.000495649,0.0978766,1,4.48115e-05,1.35436e-06,1.72296e-05,0.0089623,0.000270873,0.00344592,0.999301,8.3275e-05,0.0373609,0.000847775,0.17513,-0.257344,-0.955502,34.3125,1,44035,4449281
30,2,0.999301,0.000131036,0.0373652,0.000883315,-0.738731,-0.0498586,9.78594,-0.0380198,0.204378,0.970816,-0.00738654,-0.000509391,0.0978594,1,5.23125e-05,3.73261e-06,3.83275e-05,0.0104625,0.000746522,0.0076655,0.999301,0.000131036,0.0373652,0.000883315,0.175164,-0.253514,-0.951376,34.3125,1,44036,4449381
30,3,0.999301,0.000131036,0.0373652,0.000883315,-0.738731,-0.0498586,9.78594,-0.0380198,0.204378,0.970816,-0.00738654,-0.000509391,0.0978594,1,5.23125e-05,3.73261e-06,3.83275e-05,0.0104625,0.000746522,0.0076655,0.999301,0.000131036,0.0373652,0.000883315,0.175164,-0.253514,-0.951376,34.3125,1,44036,4449381
30,4,0.999301,0.000131036,0.0373652,0.000883315,-0.738731,-0.0498586,9.78594,-0.0380198,0.204378,0.970816,-0.00738654,-0.000509391,0.0978594,1,5.23125e-05,3.73261e-06,3.83275e-05,0.0104625,0.000746522,0.0076655,0.999301,0.000131036,0.0373652,0.000883315,0.175164,-0.253514,-0.951376,34.3125,1,44036,4449381
30,5,0.999302,0.000172344,0.037354,0.000907806,-0.74713,-0.0533966,9.78529,-0.0466169,0.20181,0.972328,-0.00747351,-0.000543045,0.0978527,1,4.44389e-05,-1.1468e-05,2.55781e-05,0.00888778,-0.00229361,0.00511561,0.999302,0.000172344,0.037354,0.000907806,0.175739,-0.255515,-0.948898,34.3125,1,44037,4449481
30,6,0.999302,0.000172344,0.037354,0.000907806,-0.74713,-0.0533966,9.78529,-0.0466169,0.20181,0.972328,-0.00747351,-0.000543045,0.0978527,1,4.44389e-05,-1.1468e-05,2.55781e-05,0.00888778,-0.00229361,0.00511561,0.999302,0.000172344,0.037354,0.000907806,0.175739,-0.255515,-0.948898,34.3125,1,44037,4449481
30,7,0.999302,0.000172344,0.037354,0.000907806,-0.74713,-0.0533966,9.78529,-0.0466169,0.20181,0.972328,-0.00747351,-0.000543045,0.0978527,1,4.44389e-05,-1.1468e-05,2.55781e-05,0.00888778,-0.00229361,0.00511561,0.999302,0.000172344,0.037354,0.000907806,0.175739,-0.255515,-0.948898,34.3125,1,44037,4449481
30,8,0.999302,0.000216883,0.0373457,0.000921319,-0.729797,-0.050462,9.77909,-0.0298228,0.196329,0.965234,-0.00729967,-0.000514401,0.0977907,1,4.87678e-05,-8.80271e-06,1.665e-05,0.00975357,-0.00176054,0.00333001,0.999302,0.000216883,0.0373457,0.000921319,0.174813,-0.258424,-0.949464,34.3125,1,44038,4449581
31,1,0.999302,0.000216883,0.0373457,0.000921319,-0.729797,-0.050462,9.77909,-0.0298228,0.196329,0.965234,-0.00729967,-0.000514401,0.0977907,1,4.87678e-05,-8.80271e-06,1.665e-05,0.00975357,-0.00176054,0.00333001,0.999302,0.000216883,0.0373457,0.000921319,0.174813,-0.258424,-0.949464,34.3125,1,44038,4449581
31,2,0.999302,0.000216883,0.0373457,0.000921319,-0.729797,-0.050462,9.77909,-0.0298228,0.196329,0.965234,-0.00729967,-0.000514401,0.0977907,1,4.87678e-05,-8.80271e-06,1.665e-05,0.00975357,-0.00176054,0.00333001,0.999302,0.000216883,0.0373457,0.000921319,0.174813,-0.258424,-0.949464,34.3125,1,44038,4449581
31,3,0.999302,0.000257634,0.037335,0.000940608,-0.748831,-0.0543952,9.78766,-0.0480718,0.192293,0.971088,-0.00749051,-0.000553341,0.0978764,1,4.62847e-05,-1.13472e-05,2.19666e-05,0.00925694,-0.00226944,0.00439332,0.999302,0.000257634,0.037335,0.000940608,0.175256,-0.261292,-0.953065,34.3125,1,44039,4449681
31,4,0.999302,0.000257634,0.037335,0.000940608,-0.748831,-0.0543952,9.78766,-0.0480718,0.192293,0.971088,-0.00749051,-0.000553341,0.0978764,1,4.62847e-05,-1.13472e-05,2.19666e-05,0.00925694,-0.00226944,0.00439332,0.999302,0.000257634,0.037335,0.000940608,0.175256,-0.261292,-0.953065,34.3125,1,44039,4449681
31,5,0.999302,0.000257634,0.037335,0.000940608,-0.748831,-0.0543952,9.78766,-0.0480718,0.192293,0.971088,-0.00749051,-0.000553341,0.0978764,1,4.62847e-05,-1.13472e-05,2.19666e-05,0.00925694,-0.00226944,0.00439332,0.999302,0.000257634,0.037335,0.000940608,0.175256,-0.261292,-0.953065,34.3125,1,44039,4449681
31,6,0.999302,0.000303708,0.0373327,0.000960675,-0.741835,-0.0477427,9.78021,-0.0431428,0.200148,0.964036,-0.00741897,-0.000488331,0.097802,1,5.3823e-05,-3.30632e-06,2.53619e-05,0.0107646,-0.000661263,0.00507237,0.999302,0.000303708,0.0373327,0.000960675,0.176115,-0.261706,-0.957624,34.3125,1,44040,4449781
31,7,0.999302,0.000303708,0.0373327,0.000960675,-0.741835,-0.0477427,9.78021,-0.0431428,0.200148,0.964036,-0.00741897,-0.000488331,0.097802,1,5.3823e-05,-3.30632e-06,2.53619e-05,0.0107646,-0.000661263,0.00507237,0.999302,0.000303708,0.0373327,0.000960675,0.176115,-0.261706,-0.957624,34.3125,1,44040,4449781
31,8,0.999302,0.000303708,0.0373327,0.000960675,-0.741835,-0.0477427,9.78021,-0.0431428,0.200148,0.964036,-0.00741897,-0.000488331,0.097802,1,5.3823e-05,-3.30632e-06,2.53619e-05,0.0107646,-0.000661263,0.00507237,0.999302,0.000303708,0.0373327,0.000960675,0.176115,-0.261706,-0.957624,34.3125,1,44040,4449781
32,1,0.999302,0.000344838,0.0373337,0.000986471,-0.739395,-0.0473749,9.77918,-0.03964,0.203112,0.961309,-0.00739397,-0.000484482,0.0977918,1,5.23573e-05,-2.81056e-07,3.33038e-05,0.0104715,-5.62112e-05,0.00666075,0.999302,0.000344838,0.0373337,0.000986471,0.175557,-0.257791,-0.958039,34.3125,1,44041,4449881
32,2,0.999302,0.000344838,0.0373337,0.000986471,-0.739395,-0.0473749,9.77918,-0.03964,0.203112,0.961309,-0.00739397,-0.000484482,0.0977918,1,5.23573e-05,-2.81056e-07,3.33038e-05,0.0104715,-5.62112e-05,0.00666075,0.999302,0.000344838,0.0373337,0.000986471,0.175557,-0.257791,-0.958039,34.3125,1,44041,4449881
32,3,0.999302,0.000344838,0.0373337,0.000986471,-0.739395,-0.0473749,9.77918,-0.03964,0.203112,0.961309,-0.00739397,-0.000484482,0.0977918,1,5.23573e-05,-2.81056e-07,3.33038e-05,0.0104715,-5.62112e-05,0.00666075,0.999302,0.000344838,0.0373337,0.000986471,0.175557,-0.257791,-0.958039,34.3125,1,44041,4449881
32,4,0.999302,0.000388586,0.0373325,0.000995149,-0.743141,-0.0592955,9.77808,-0.0445858,0.18705,0.964051,-0.00743182,-0.00060397,0.0977807,1,5.51845e-05,-2.19246e-06,1.50523e-05,0.0110369,-0.000438492,0.00301045,0.999302,0.000388586,0.0373325,0.000995149,0.175142,-0.255908,-0.953955,34.3125,1,44042,4449981
32,5,0.999302,0.000388586,0.0373325,0.000995149,-0.743141,-0.0592955,9.77808,-0.0445858,0.18705,0.964051,-0.00743182,-0.00060397,0.0977807,1,5.51845e-05,-2.19246e-06,1.50523e-05,0.0110369,-0.000438492,0.00301045,0.999302,0.000388586,0.0373325,0.000995149,0.175142,-0.255908,-0.953955,34.3125,1,44042,4449981
32,6,0.999302,0.000388586,0.0373325,0.000995149,-0.743141,-0.0592955,9.77808,-0.0445858,0.18705,0.964051,-0.00743182,-0.00060397,0.0977807,1,5.51845e-05,-2.19246e-06,1.50523e-05,0.0110369,-0.000438492,0.00301045,0.999302,0.000388586,0.0373325,0.000995149,0.175142,-0.255908,-0.953955,34.3125,1,44042,4449981
32,7,0.999303,0.000437291,0.0373251,0.00101234,-0.744074,-0.05531,9.78288,-0.0422151,0.195827,0.969013,-0.00744229,-0.00056411,0.0978286,1,5.48754e-05,-8.04284e-06,1.83621e-05,0.0109751,-0.00160857,0.00367242,0.999303,0.000437291,0.0373251,0.00101234,0.176216,-0.255997,-0.949416,34.3125,1,44043,4450081
32,8,0.999303,0.000437291,0.0373251,0.00101234,-0.744074,-0.05531,9.78288,-0.0422151,0.195827,0.969013,-0.00744229,-0.00056411,0.0978286,1,5.48754e-05,-8.04284e-06,1.83621e-05,0.0109751,-0.00160857,0.00367242,0.999303,0.000437291,0.0373251,0.00101234,0.176216,-0.255997,-0.949416,34.3125,1,44043,4450081
33,1,0.999303,0.000437291,0.0373251,0.00101234,-0.744074,-0.05531,9.78288,-0.0422151,0.195827,0.969013,-0.00744229,-0.00056411,0.0978286,1,5.48754e-05,-8.04284e-06,1.83621e-05,0.0109751,-0.00160857,0.00367242,0.999303,0.000437291,0.0373251,0.00101234,0.176216,-0.255997,-0.949416,34.3125,1,44043,4450081
33,2,0.999303,0.000470005,0.0373173,0.00102825,-0.745172,-0.0517241,9.78325,-0.0460646,0.191731,0.969494,-0.00745317,-0.0005241,0.0978324,1,3.36318e-05,-7.54161e-06,1.86714e-05,0.00672637,-0.00150832,0.00373427,0.999303,0.000470005,0.0373173,0.00102825,0.174784,-0.25744,-0.949947,34.3125,1,44044,4450181
33,3,0.999303,0.000470005,0.0373173,0.00102825,-0.745172,-0.0517241,9.78325,-0.0460646,0.191731,0.969494,-0.00745317,-0.0005241,0.0978324,1,3.36318e-05,-7.54161e-06,1.86714e-05,0.00672637,-0.00150832,0.00373427,0.999303,0.000470005,0.0373173,0.00102825,0.174784,-0.25744,-0.949947,34.3125,1,44044,4450181
33,4,0.999303,0.000470005,0.0373173,0.00102825,-0.745172,-0.0517241,9.78325,-0.0460646,0.191731,0.969494,-0.00745317,-0.0005241,0.0978324,1,3.36318e-05,-7.54161e-06,1.86714e-05,0.00672637,-0.00150832,0.00373427,0.999303,0.000470005,0.0373173,0.00102825,0.174784,-0.25744,-0.949947,34.3125,1,44044,4450181
33,5,0.999303,0.000520093,0.0373034,0.00103669,-0.729493,-0.0449336,9.78355,-0.0345024,0.200214,0.964928,-0.00729781,-0.000460055,0.0978352,1,5.40985e-05,-1.47246e-05,9.15328e-06,0.0108197,-0.00294491,0.00183066,0.999303,0.000520093,0.0373034,0.00103669,0.174289,-0.261762,-0.953576,34.3125,1,44045,4450281
33,6,0.999303,0.000520093,0.0373034,0.00103669,-0.729493,-0.0449336,9.78355,-0.0345024,0.200214,0.964928,-0.00729781,-0.000460055,0.0978352,1,5.40985e-05,-1.47246e-05,9.15328e-06,0.0108197,-0.00294491,0.00183066,0.999303,0.000520093,0.0373034,0.00103669,0.174289,-0.261762,-0.953576,34.3125,1,44045,4450281
34,1,0.999303,0.000520093,0.0373034,0.00103669,-0.729493,-0.0449336,9.78355,-0.0345024,0.200214,0.964928,-0.00729781,-0.000460055,0.0978352,1,5.40985e-05,-1.47246e-05,9.15328e-06,0.0108197,-0.00294491,0.00183066,0.999303,0.000520093,0.0373034,0.00103669,0.174289,-0.261762,-0.953576,34.3125,1,44045,4450281
34,2,0.999304,0.000568339,0.0372923,0.0010402,-0.742225,-0.0502512,9.79343,-0.0449502,0.191022,0.980055,-0.00742462,-0.000513976,0.0979341,1,5.81091e-05,-1.20918e-05,5.56147e-06,0.0116218,-0.00241837,0.00111229,0.999304,0.000568339,0.0372923,0.0010402,0.175161,-0.262186,-0.95763,34.3125,1,44046,4450381
34,3,0.999304,0.000568339,0.0372923,0.0010402,-0.742225,-0.0502512,9.79343,-0.0449502,0.191022,0.980055,-0.00742462,-0.000513976,0.0979341,1,5.81091e-05,-1.20918e-05,5.56147e-06,0.0116218,-0.00241837,0.00111229,0.999304,0.000568339,0.0372923,0.0010402,0.175161,-0.262186,-0.95763,34.3125,1,44046,4450381
34,4,0.999304,0.000568339,0.0372923,0.0010402,-0.742225,-0.0502512,9.79343,-0.0449502,0.191022,0.980055,-0.00742462,-0.000513976,0.0979341,1,5.81091e-05,-1.20918e-05,5.56147e-06,0.0116218,-0.00241837,0.00111229,0.999304,0.000568339,0.0372923,0.0010402,0.175161,-0.262186,-0.95763,34.3125,1,44046,4450381
34,5,0.999304,0.000598478,0.0372762,0.0010542,-0.745714,-0.0520237,9.77987,-0.0505535,0.190688,0.963389,-0.00746062,-0.000529896,0.0977984,1,4.77359e-05,-1.78888e-05,2.1586e-05,0.00954719,-0.00357776,0.00431721,0.999304,0.000598478,0.0372762,0.0010542,0.176096,-0.258319,-0.956033,34.3125,1,44047,4450481
34,6,0.999304,0.000598478,0.0372762,0.0010542,-0.745714,-0.0520237,9.77987,-0.0505535,0.190688,0.963389,-0.00746062,-0.000529896,0.0977984,1,4.77359e-05,-1.78888e-05,2.1586e-05,0.00954719,-0.00357776,0.00431721,0.999304,0.000598478,0.0372762,0.0010542,0.176096,-0.258319,-0.956033,34.3125,1,44047,4450481
34,7,0.999304,0.000598478,0.0372762,0.0010542,-0.745714,-0.0520237,9.77987,-0.0505535,0.190688,0.963389,-0.00746062,-0.000529896,0.0977984,1,4.77359e-05,-1.78888e-05,2.1586e-05,0.00954719,-0.00357776,0.00431721,0.999304,0.000598478,0.0372762,0.0010542,0.176096,-0.258319,-0.956033,34.3125,1,44047,4450481
34,8,0.999305,0.000635085,0.0372596,0.00106411,-0.744782,-0.046404,9.77686,-0.0472154,0.198716,0.960954,-0.00745134,-0.000474094,0.0977683,1,4.99636e-05,-1.81046e-05,1.91258e-05,0.00999272,-0.00362093,0.00382517,0.999305,0.000635085,0.0372596,0.00106411,0.175653,-0.254006,-0.95139,34.3125,1,44048,4450581
34,9,0.999305,0.000635085,0.0372596,0.00106411,-0.744782,-0.046404,9.77686,-0.0472154,0.198716,0.960954,-0.00745134,-0.000474094,0.0977683,1,4.99636e-05,-1.81046e-05,1.91258e-05,0.00999272,-0.00362093,0.00382517,0.999305,0.000635085,0.0372596,0.00106411,0.175653,-0.254006,-0.95139,34.3125,1,44048,4450581
34,10,0.999305,0.000635085,0.0372596,0.00106411,-0.744782,-0.046404,9.77686,-0.0472154,0.198716,0.960954,-0.00745134,-0.000474094,0.0977683,1,4.99636e-05,-1.81046e-05,1.91258e-05,0.00999272,-0.00362093,0.00382517,0.999305,0.000635085,0.0372596,0.00106411,0.175653,-0.254006,-0.95139,34.3125,1,44048,4450581
35,1,0.999305,0.000677973,0.0372443,0.00108543,-0.74266,-0.0591656,9.77877,-0.0464645,0.181425,0.966852,-0.00742956,-0.0006005,0.0977874,1,4.39043e-05,-1.52328e-05,1.7291e-05,0.00878087,-0.00304657,0.00345821,0.999305,0.000677973,0.0372443,0.00108543,0.176742,-0.255071,-0.946873,34.3125,1,44049,4450681
35,2,0.999305,0.000677973,0.0372443,0.00108543,-0.74266,-0.0591656,9.77877,-0.0464645,0.181425,0.966852,-0.00742956,-0.0006005,0.0977874,1,4.39043e-05,-1.52328e-05,1.7291e-05,0.00878087,-0.00304657,0.00345821,0.999305,0.000677973,0.0372443,0.00108543,0.176742,-0.255071,-0.946873,34.3125,1,44049,4450681
35,3,0.999305,0.000677973,0.0372443,0.00108543,-0.74266,-0.0591656,9.77877,-0.0464645,0.181425,0.966852,-0.00742956,-0.0006005,0.0977874,1,4.39043e-05,-1.52328e-05,1.7291e-05,0.00878087,-0.00304657,0.00345821,0.999305,0.000677973,0.0372443,0.00108543,0.176742,-0.255071,-0.946873,34.3125,1,44049,4450681
35,4,0.999306,0.000737395,0.0372397,0.00110561,-0.731545,-0.0549392,9.78652,-0.0347667,0.18926,0.971956,-0.00731626,-0.000560298,0.0978651,1,5.39682e-05,-4.27263e-06,2.3464e-05,0.0107936,-0.000854527,0.0046928,0.999306,0.000737395,0.0372397,0.00110561,0.17626,-0.257957,-0.948955,34.3125,1,44050,4450781
35,5,0.999306,0.000737395,0.0372397,0.00110561,-0.731545,-0.0549392,9.78652,-0.0347667,0.18926,0.971956,-0.00731626,-0.000560298,0.0978651,1,5.39682e-05,-4.27263e-06,2.3464e-05,0.0107936,-0.000854527,0.0046928,0.999306,0.000737395,0.0372397,0.00110561,0.17626,-0.257957,-0.948955,34.3125,1,44050,4450781
35,6,0.999306,0.000737395,0.0372397,0.00110561,-0.731545,-0.0549392,9.78652,-0.0347667,0.18926,0.971956,-0.00731626,-0.000560298,0.0978651,1,5.39682e-05,-4.27263e-06,2.3464e-05,0.0107936,-0.000854527,0.0046928,0.999306,0.000737395,0.0372397,0.00110561,0.17626,-0.257957,-0.948955,34.3125,1,44050,4450781
35,7,0.999306,0.000775077,0.0372239,0.00111819,-0.747001,-0.0514096,9.78734,-0.0480666,0.188688,0.971043,-0.00747318,-0.000522629,0.0978732,1,4.22746e-05,-1.62983e-05,1.72777e-05,0.00845491,-0.00325966,0.00345555,0.999306,0.000775077,0.0372239,0.00111819,0.176218,-0.2613,-0.95307,34.3125,1,44051,4450881
35,8,0.999306,0.000775077,0.0372239,0.00111819,-0.747001,-0.0514096,9.78734,-0.0480666,0.188688,0.971043,-0.00747318,-0.000522629,0.0978732,1,4.22746e-05,-1.62983e-05,1.72777e-05,0.00845491,-0.00325966,0.00345555,0.999306,0.000775077,0.0372239,0.00111819,0.176218,-0.2613,-0.95307,34.3125,1,44051,4450881
36,1,0.999306,0.000775077,0.0372239,0.00111819,-0.747001,-0.0514096,9.78734,-0.0480666,0.188688,0.971043,-0.00747318,-0.000522629,0.0978732,1,4.22746e-05,-1.62983e-05,1.72777e-05,0.00845491,-0.00325966,0.00345555,0.999306,0.000775077,0.0372239,0.00111819,0.176218,-0.2613,-0.95307,34.3125,1,44051,4450881
36,2,0.999307,0.000807046,0.0372068,0.00112898,-0.739193,-0.0556555,9.78048,-0.0399537,0.184682,0.961123,-0.00739557,-0.000565617,0.0978044,1,4.4821e-05,-1.87156e-05,1.98763e-05,0.0089642,-0.00374311,0.00397525,0.999307,0.000807046,0.0372068,0.00112898,0.175651,-0.261233,-0.956601,34.3125,1,44052,4450981
36,3,0.999307,0.000807046,0.0372068,0.00112898,-0.739193,-0.0556555,9.78048,-0.0399537,0.184682,0.961123,-0.00739557,-0.000565617,0.0978044,1,4.4821e-05,-1.87156e-05,1.98763e-05,0.0089642,-0.00374311,0.00397525,0.999307,0.000807046,0.0372068,0.00112898,0.175651,-0.261233,-0.956601,34.3125,1,44052,4450981
36,4,0.999307,0.000807046,0.0372068,0.00112898,-0.739193,-0.0556555,9.78048,-0.0399537,0.184682,0.961123,-0.00739557,-0.000565617,0.0978044,1,4.4821e-05,-1.87156e-05,1.98763e-05,0.0089642,-0.00374311,0.00397525,0.999307,0.000807046,0.0372068,0.00112898,0.175651,-0.261233,-0.956601,34.3125,1,44052,4450981
36,5,0.999307,0.000834697,0.0371965,0.00113198,-0.741222,-0.058443,9.78928,-0.0451038,0.181493,0.97524,-0.00741484,-0.000594105,0.0978925,1,4.83133e-05,-1.34874e-05,1.45828e-05,0.00966266,-0.00269747,0.00291655,0.999307,0.000834697,0.0371965,0.00113198,0.175113,-0.257814,-0.956522,34.3125,1,44053,4451081
36,6,0.999307,0.000834697,0.0371965,0.00113198,-0.741222,-0.058443,9.78928,-0.0451038,0.181493,0.97524,-0.00741484,-0.000594105,0.0978925,1,4.83133e-05,-1.34874e-05,1.45828e-05,0.00966266,-0.00269747,0.00291655,0.999307,0.000834697,0.0371965,0.00113198,0.175113,-0.257814,-0.956522,34.3125,1,44053,4451081
37,1,0.999307,0.000834697,0.0371965,0.00113198,-0.741222,-0.058443,9.78928,-0.0451038,0.181493,0.97524,-0.00741484,-0.000594105,0.0978925,1,4.83133e-05,-1.34874e-05,1.45828e-05,0.00966266,-0.00269747,0.00291655,0.999307,0.000834697,0.0371965,0.00113198,0.175113,-0.257814,-0.956522,34.3125,1,44053,4451081
37,2,0.999307,0.000862277,0.037194,0.00113851,-0.742196,-0.0491788,9.77714,-0.0487529,0.187908,0.963953,-0.00742294,-0.00050105,0.0977713,1,4.66927e-05,-5.05733e-06,8.8292e-06,0.00933855,-0.00101147,0.00176584,0.999307,0.000862277,0.037194,0.00113851,0.176134,-0.25401,-0.951392,34.3125,1,44054,4451181
37,3,0.999307,0.000862277,0.037194,0.00113851,-0.742196,-0.0491788,9.77714,-0.0487529,0.187908,0.963953,-0.00742294,-0.00050105,0.0977713,1,4.66927e-05,-5.05733e-06,8.8292e-06,0.00933855,-0.00101147,0.00176584,0.999307,0.000862277,0.037194,0.00113851,0.176134,-0.25401,-0.951392,34.3125,1,44054,4451181
37,4,0.999307,0.000862277,0.037194,0.00113851,-0.742196,-0.0491788,9.77714,-0.0487529,0.187908,0.963953,-0.00742294,-0.00050105,0.0977713,1,4.66927e-05,-5.05733e-06,8.8292e-06,0.00933855,-0.00101147,0.00176584,0.999307,0.000862277,0.037194,0.00113851,0.176134,-0.25401,-0.951392,34.3125,1,44054,4451181
38,1,0.999308,0.000883062,0.0371644,0.00117536,-0.741129,-0.0576549,9.77912,-0.0470719,0.177357,0.964842,-0.00741692,-0.000581496,0.0977908,1,2.28118e-05,-2.8955e-05,3.27061e-05,0.00456236,-0.00579101,0.00654121,0.999308,0.000883062,0.0371644,0.00117536,0.176746,-0.256037,-0.947399,34.3125,1,44055,4451281
38,2,0.999308,0.000883062,0.0371644,0.00117536,-0.741129,-0.0576549,9.77912,-0.0470719,0.177357,0.964842,-0.00741692,-0.000581496,0.0977908,1,2.28118e-05,-2.8955e-05,3.27061e-05,0.00456236,-0.00579101,0.00654121,0.999308,0.000883062,0.0371644,0.00117536,0.176746,-0.256037,-0.947399,34.3125,1,44055,4451281
38,3,0.999308,0.000883062,0.0371644,0.00117536,-0.741129,-0.0576549,9.77912,-0.0470719,0.177357,0.964842,-0.00741692,-0.000581496,0.0977908,1,2.28118e-05,-2.8955e-05,3.27061e-05,0.00456236,-0.00579101,0.00654121,0.999308,0.000883062,0.0371644,0.00117536,0.176746,-0.256037,-0.947399,34.3125,1,44055,4451281
38,4,0.999309,0.00092897,0.0371495,0.00119739,-0.741301,-0.0510377,9.78358,-0.049138,0.18016,0.967462,-0.00741577,-0.000519049,0.0978356,1,4.23585e-05,-1.42251e-05,2.58869e-05,0.00847169,-0.00284501,0.00517738,0.999309,0.00092897,0.0371495,0.00119739,0.174841,-0.259409,-0.948981,34.3125,1,44056,4451381
38,5,0.999309,0.00092897,0.0371495,0.00119739,-0.741301,-0.0510377,9.78358,-0.049138,0.18016,0.967462,-0.00741577,-0.000519049,0.0978356,1,4.23585e-05,-1.42251e-05,2.58869e-05,0.00847169,-0.00284501,0.00517738,0.999309,0.00092897,0.0371495,0.00119739,0.174841,-0.259409,-0.948981,34.3125,1,44056,4451381
38,6,0.999309,0.00092897,0.0371495,0.00119739,-0.741301,-0.0510377,9.78358,-0.049138,0.18016,0.967462,-0.00741577,-0.000519049,0.0978356,1,4.23585e-05,-1.42251e-05,2.58869e-05,0.00847169,-0.00284501,0.00517738,0.999309,0.00092897,0.0371495,0.00119739,0.174841,-0.259409,-0.948981,34.3125,1,44056,4451381
38,7,0.999309,0.000968607,0.0371328,0.00122231,-0.743918,-0.0492726,9.79074,-0.0494586,0.185907,0.970605,-0.00744269,-0.000502111,0.0979071,1,4.59851e-05,-1.80806e-05,2.56019e-05,0.00919702,-0.00361611,0.00512038,0.999309,0.000968607,0.0371328,0.00122231,0.174783,-0.261775,-0.953074,34.3125,1,44057,4451481
38,8,0.999309,0.000968607,0.0371328,0.00122231,-0.743918,-0.0492726,9.79074,-0.0494586,0.185907,0.970605,-0.00744269,-0.000502111,0.0979071,1,4.59851e-05,-1.80806e-05,2.56019e-05,0.00919702,-0.00361611,0.00512038,0.999309,0.000968607,0.0371328,0.00122231,0.174783,-0.261775,-0.953074,34.3125,1,44057,4451481
39,1,0.999309,0.000968607,0.0371328,0.00122231,-0.743918,-0.0492726,9.79074,-0.0494586,0.185907,0.970605,-0.00744269,-0.000502111,0.0979071,1,4.59851e-05,-1.80806e-05,2.56019e-05,0.00919702,-0.00361611,0.00512038,0.999309,0.000968607,0.0371328,0.00122231,0.174783,-0.261775,-0.953074,34.3125,1,44057,4451481
39,2,0.999309,0.00100509,0.0371369,0.00122956,-0.735727,-0.0531829,9.78113,-0.0374426,0.180991,0.961771,-0.00735693,-0.000542467,0.0978113,1,5.32641e-05,1.65613e-06,1.48325e-05,0.0106528,0.000331226,0.00296649,0.999309,0.00100509,0.0371369,0.00122956,0.174248,-0.262214,-0.955606,34.3125,1,44058,4451581
39,3,0.999309,0.00100509,0.0371369,0.00122956,-0.735727,-0.0531829,9.78113,-0.0374426,0.180991,0.961771,-0.00735693,-0.000542467,0.0978113,1,5.32641e-05,1.65613e-06,1.48325e-05,0.0106528,0.000331226,0.00296649,0.999309,0.00100509,0.0371369,0.00122956,0.174248,-0.262214,-0.955606,34.3125,1,44058,4451581
39,4,0.999309,0.00100509,0.0371369,0.00122956,-0.735727,-0.0531829,9.78113,-0.0374426,0.180991,0.961771,-0.00735693,-0.000542467,0.0978113,1,5.32641e-05,1.65613e-06,1.48325e-05,0.0106528,0.000331226,0.00296649,0.999309,0.00100509,0.0371369,0.00122956,0.174248,-0.262214,-0.955606,34.3125,1,44058,4451581
39,5,0.999309,0.00102488,0.0371315,0.00123603,-0.731462,-0.0532859,9.78756,-0.037098,0.182548,0.973555,-0.00731642,-0.000541524,0.0978754,1,4.33978e-05,-9.29996e-06,1.16043e-05,0.00867956,-0.00185999,0.00232086,0.999309,0.00102488,0.0371315,0.00123603,0.176622,-0.258838,-0.954532,34.3125,1,44059,4451681
39,6,0.999309,0.00102488,0.0371315,0.00123603,-0.731462,-0.0532859,9.78756,-0.037098,0.182548,0.973555,-0.00731642,-0.000541524,0.0978754,1,4.33978e-05,-9.29996e-06,1.16043e-05,0.00867956,-0.00185999,0.00232086,0.999309,0.00102488,0.0371315,0.00123603,0.176622,-0.258838,-0.954532,34.3125,1,44059,4451681
40,1,0.999309,0.00102488,0.0371315,0.00123603,-0.731462,-0.0532859,9.78756,-0.037098,0.182548,0.973555,-0.00731642,-0.000541524,0.0978754,1,4.33978e-05,-9.29996e-06,1.16043e-05,0.00867956,-0.00185999,0.00232086,0.999309,0.00102488,0.0371315,0.00123603,0.176622,-0.258838,-0.954532,34.3125,1,44059,4451681
40,2,0.999309,0.00104892,0.0371189,0.00123487,-0.741339,-0.0443416,9.7789,-0.0452389,0.187853,0.963684,-0.00741631,-0.00045212,0.0977887,1,4.34033e-05,-1.49815e-05,1.45099e-05,0.00868066,-0.00299629,0.00290198,0.999309,0.00104892,0.0371189,0.00123487,0.1771,-0.254985,-0.951923,34.3125,1,44060,4451781
40,3,0.999309,0.00104892,0.0371189,0.00123487,-0.741339,-0.0443416,9.7789,-0.0452389,0.187853,0.963684,-0.00741631,-0.00045212,0.0977887,1,4.34033e-05,-1.49815e-05,1.45099e-05,0.00868066,-0.00299629,0.00290198,0.999309,0.00104892,0.0371189,0.00123487,0.1771,-0.254985,-0.951923,34.3125,1,44060,4451781
40,4,0.999309,0.00104892,0.0371189,0.00123487,-0.741339,-0.0443416,9.7789,-0.0452389,0.187853,0.963684,-0.00741631,-0.00045212,0.0977887,1,4.34033e-05,-1.49815e-05,1.45099e-05,0.00868066,-0.00299629,0.00290198,0.999309,0.00104892,0.0371189,0.00123487,0.1771,-0.254985,-0.951923,34.3125,1,44060,4451781
40,5,0.99931,0.00108662,0.0370951,0.00125843,-0.743932,-0.0588811,9.78625,-0.048862,0.174612,0.969283,-0.00744378,-0.000597986,0.097862,1,4.46567e-05,-2.29647e-05,2.91767e-05,0.00893134,-0.00459295,0.00583534,0.99931,0.00108662,0.0370951,0.00125843,0.175253,-0.255989,-0.949412,34.3125,1,44061,4451881
40,6,0.99931,0.00108662,0.0370951,0.00125843,-0.743932,-0.0588811,9.78625,-0.048862,0.174612,0.969283,-0.00744378,-0.000597986,0.097862,1,4.46567e-05,-2.29647e-05,2.91767e-05,0.00893134,-0.00459295,0.00583534,0.99931,0.00108662,0.0370951,0.00125843,0.175253,-0.255989,-0.949412,34.3125,1,44061,4451881
41,1,0.99931,0.00108662,0.0370951,0.00125843,-0.743932,-0.0588811,9.78625,-0.048862,0.174612,0.969283,-0.00744378,-0.000597986,0.097862,1,4.46567e-05,-2.29647e-05,2.91767e-05,0.00893134,-0.00459295,0.00583534,0.99931,0.00108662,0.0370951,0.00125843,0.175253,-0.255989,-0.949412,34.3125,1,44061,4451881
41,2,0.999311,0.00112966,0.037077,0.00127473,-0.737801,-0.0608585,9.78517,-0.0449879,0.167317,0.970175,-0.00738154,-0.00061748,0.0978514,1,4.46998e-05,-1.81104e-05,9.97641e-06,0.00893996,-0.00362208,0.00199528,0.999311,0.00112966,0.037077,0.00127473,0.173846,-0.258895,-0.949975,34.3125,1,44062,4451981
41,3,0.999311,0.00112966,0.037077,0.00127473,-0.737801,-0.0608585,9.78517,-0.0449879,0.167317,0.970175,-0.00738154,-0.00061748,0.0978514,1,4.46998e-05,-1.81104e-05,9.97641e-06,0.00893996,-0.00362208,0.00199528,0.999311,0.00112966,0.037077,0.00127473,0.173846,-0.258895,-0.949975,34.3125,1,44062,4451981
41,4,0.999311,0.00112966,0.037077,0.00127473,-0.737801,-0.0608585,9.78517,-0.0449879,0.167317,0.970175,-0.00738154,-0.00061748,0.0978514,1,4.46998e-05,-1.81104e-05,9.97641e-06,0.00893996,-0.00362208,0.00199528,0.999311,0.00112966,0.037077,0.00127473,0.173846,-0.258895,-0.949975,34.3125,1,44062,4451981
41,5,0.999311,0.00116332,0.0370668,0.00130524,-0.736707,-0.0708237,9.78236,-0.0442649,0.161949,0.964244,-0.00736938,-0.000716644,0.0978234,1,4.12224e-05,-1.19673e-05,2.32028e-05,0.00824447,-0.00239347,0.00464055,0.999311,0.00116332,0.0370668,0.00130524,0.174775,-0.261288,-0.953063,34.3125,1,44063,4452081
41,6,0.999311,0.00116332,0.0370668,0.00130524,-0.736707,-0.0708237,9.78236,-0.0442649,0.161949,0.964244,-0.00736938,-0.000716644,0.0978234,1,4.12224e-05,-1.19673e-05,2.32028e-05,0.00824447,-0.00239347,0.00464055,0.999311,0.00116332,0.0370668,0.00130524,0.174775,-0.261288,-0.953063,34.3125,1,44063,4452081
42,1,0.999311,0.00116332,0.0370668,0.00130524,-0.736707,-0.0708237,9.78236,-0.0442649,0.161949,0.964244,-0.00736938,-0.000716644,0.0978234,1,4.12224e-05,-1.19673e-05,2.32028e-05,0.00824447,-0.00239347,0.00464055,0.999311,0.00116332,0.0370668,0.00130524,0.174775,-0.261288,-0.953063,34.3125,1,44063,4452081
42,2,0.999312,0.00117625,0.0370485,0.00131246,-0.743589,-0.0510799,9.78157,-0.053292,0.176011,0.967049,-0.00743991,-0.000517372,0.0978153,1,3.25143e-05,-2.06233e-05,1.42398e-05,0.00650287,-0.00412466,0.00284796,0.999312,0.00117625,0.0370485,0.00131246,0.17561,-0.260239,-0.957589,34.3125,1,44064,4452181
42,3,0.999312,0.00117625,0.0370485,0.00131246,-0.743589,-0.0510799,9.78157,-0.053292,0.176011,0.967049,-0.00743991,-0.000517372,0.0978153,1,3.25143e-05,-2.06233e-05,1.42398e-05,0.00650287,-0.00412466,0.00284796,0.999312,0.00117625,0.0370485,0.00131246,0.17561,-0.260239,-0.957589,34.3125,1,44064,4452181
42,4,0.999312,0.00117625,0.0370485,0.00131246,-0.743589,-0.0510799,9.78157,-0.053292,0.176011,0.967049,-0.00743991,-0.000517372,0.0978153,1,3.25143e-05,-2.06233e-05,1.42398e-05,0.00650287,-0.00412466,0.00284796,0.999312,0.00117625,0.0370485,0.00131246,0.17561,-0.260239,-0.957589,34.3125,1,44064,4452181
42,5,0.999312,0.00118393,0.0370406,0.00131244,-0.735917,-0.055367,9.78146,-0.0412057,0.174277,0.969369,-0.00736152,-0.000561836,0.0978144,1,4.04435e-05,-1.21017e-05,1.72352e-05,0.0080887,-0.00242034,0.00344705,0.999312,0.00118393,0.0370406,0.00131244,0.17652,-0.256354,-0.957002,34.3125,1,44065,4452281
42,6,0.999312,0.00118393,0.0370406,0.00131244,-0.735917,-0.055367,9.78146,-0.0412057,0.174277,0.969369,-0.00736152,-0.000561836,0.0978144,1,4.04435e-05,-1.21017e-05,1.72352e-05,0.0080887,-0.00242034,0.00344705,0.999312,0.00118393,0.0370406,0.00131244,0.17652,-0.256354,-0.957002,34.3125,1,44065,4452281
43,1,0.999312,0.00118393,0.0370406,0.00131244,-0.735917,-0.055367,9.78146,-0.0412057,0.174277,0.969369,-0.00736152,-0.000561836,0.0978144,1,4.04435e-05,-1.21017e-05,1.72352e-05,0.0080887,-0.00242034,0.00344705,0.999312,0.00118393,0.0370406,0.00131244,0.17652,-0.256354,-0.957002,34.3125,1,44065,4452281
43,2,0.999312,0.00119347,0.0370507,0.00131077,-0.735716,-0.0553222,9.77976,-0.0402792,0.172264,0.964051,-0.00735579,-0.000561116,0.0977976,1,3.91212e-05,6.89166e-06,1.64769e-05,0.00782424,0.00137833,0.00329538,0.999312,0.00119347,0.0370507,0.00131077,0.175637,-0.253031,-0.951368,34.3125,1,44066,4452381
43,3,0.999312,0.00119347,0.0370507,0.00131077,-0.735716,-0.0553222,9.77976,-0.0402792,0.172264,0.964051,-0.00735579,-0.000561116,0.0977976,1,3.91212e-05,6.89166e-06,1.64769e-05,0.00782424,0.00137833,0.00329538,0.999312,0.00119347,0.0370507,0.00131077,0.175637,-0.253031,-0.951368,34.3125,1,44066,4452381
43,4,0.999312,0.00119347,0.0370507,0.00131077,-0.735716,-0.0553222,9.77976,-0.0402792,0.172264,0.964051,-0.00735579,-0.000561116,0.0977976,1,3.91212e-05,6.89166e-06,1.64769e-05,0.00782424,0.00137833,0.00329538,0.999312,0.00119347,0.0370507,0.00131077,0.175637,-0.253031,-0.951368,34.3125,1,44066,4452381
43,5,0.999312,0.00124713,0.037043,0.00133252,-0.734235,-0.0555801,9.78416,-0.0437277,0.170343,0.966096,-0.00734364,-0.000566445,0.0978415,1,5.36534e-05,-6.6443e-06,9.87033e-06,0.0107307,-0.00132886,0.00197407,0.999312,0.00124713,0.037043,0.00133252,0.174785,-0.254549,-0.947862,34.3125,1,44067,4452481
43,6,0.999312,0.00124713,0.037043,0.00133252,-0.734235,-0.0555801,9.78416,-0.0437277,0.170343,0.966096,-0.00734364,-0.000566445,0.0978415,1,5.36534e-05,-6.6443e-06,9.87033e-06,0.0107307,-0.00132886,0.00197407,0.999312,0.00124713,0.037043,0.00133252,0.174785,-0.254549,-0.947862,34.3125,1,44067,4452481
44,1,0.999312,0.00124713,0.037043,0.00133252,-0.734235,-0.0555801,9.78416,-0.0437277,0.170343,0.966096,-0.00734364,-0.000566445,0.0978415,1,5.36534e-05,-6.6443e-06,9.87033e-06,0.0107307,-0.00132886,0.00197407,0.999312,0.00124713,0.037043,0.00133252,0.174785,-0.254549,-0.947862,34.3125,1,44067,4452481
44,2,0.999312,0.00130085,0.0370416,0.00136523,-0.739726,-0.0489345,9.79409,-0.0456513,0.177169,0.978994,-0.00739751,-0.000498893,0.0979408,1,4.7272e-05,-1.38949e-06,1.94909e-05,0.00945439,-0.000277899,0.00389818,0.999312,0.00130085,0.0370416,0.00136523,0.174771,-0.258876,-0.951494,34.3125,1,44068,4452581
44,3,0.999312,0.00130085,0.0370416,0.00136523,-0.739726,-0.0489345,9.79409,-0.0456513,0.177169,0.978994,-0.00739751,-0.000498893,0.0979408,1,4.7272e-05,-1.38949e-06,1.94909e-05,0.00945439,-0.000277899,0.00389818,0.999312,0.00130085,0.0370416,0.00136523,0.174771,-0.258876,-0.951494,34.3125,1,44068,4452581
44,4,0.999312,0.00130085,0.0370416,0.00136523,-0.739726,-0.0489345,9.79409,-0.0456513,0.177169,0.978994,-0.00739751,-0.000498893,0.0979408,1,4.7272e-05,-1.38949e-06,1.94909e-05,0.00945439,-0.000277899,0.00389818,0.999312,0.00130085,0.0370416,0.00136523,0.174771,-0.258876,-0.951494,34.3125,1,44068,4452581
44,5,0.999313,0.00133011,0.0370267,0.00137374,-0.740966,-0.0468884,9.78361,-0.0503348,0.180654,0.966591,-0.00741298,-0.000477835,0.0978358,1,4.48043e-05,-1.70595e-05,1.24406e-05,0.00896086,-0.0034119,0.00248812,0.999313,0.00133011,0.0370267,0.00137374,0.175268,-0.262746,-0.953602,34.3125,1,44069,4452681
44,6,0.999313,0.00133011,0.0370267,0.00137374,-0.740966,-0.0468884,9.78361,-0.0503348,0.180654,0.966591,-0.00741298,-0.000477835,0.0978358,1,4.48043e-05,-1.70595e-05,1.24406e-05,0.00896086,-0.0034119,0.00248812,0.999313,0.00133011,0.0370267,0.00137374,0.175268,-0.262746,-0.953602,34.3125,1,44069,4452681
45,1,0.999313,0.00133011,0.0370267,0.00137374,-0.740966,-0.0468884,9.78361,-0.0503348,0.180654,0.966591,-0.00741298,-0.000477835,0.0978358,1,4.48043e-05,-1.70595e-05,1.24406e-05,0.00896086,-0.0034119,0.00248812,0.999313,0.00133011,0.0370267,0.00137374,0.175268,-0.262746,-0.953602,34.3125,1,44069,4452681
45,2,0.999313,0.00134894,0.0370106,0.00137555,-0.73852,-0.0532625,9.77982,-0.0471421,0.170817,0.962213,-0.00738869,-0.000541307,0.0977978,1,4.32711e-05,-1.79671e-05,1.48098e-05,0.00865422,-0.00359342,0.00296196,0.999313,0.00134894,0.0370106,0.00137555,0.175186,-0.260759,-0.955578,34.3125,1,44070,4452781
45,3,0.999313,0.00134894,0.0370106,0.00137555,-0.73852,-0.0532625,9.77982,-0.0471421,0.170817,0.962213,-0.00738869,-0.000541307,0.0977978,1,4.32711e-05,-1.79671e-05,1.48098e-05,0.00865422,-0.00359342,0.00296196,0.999313,0.00134894,0.0370106,0.00137555,0.175186,-0.260759,-0.955578,34.3125,1,44070,4452781
45,4,0.999313,0.00134894,0.0370106,0.00137555,-0.73852,-0.0532625,9.77982,-0.0471421,0.170817,0.962213,-0.00738869,-0.000541307,0.0977978,1,4.32711e-05,-1.79671e-05,1.48098e-05,0.00865422,-0.00359342,0.00296196,0.999313,0.00134894,0.0370106,0.00137555,0.175186,-0.260759,-0.955578,34.3125,1,44070,4452781
45,5,0.999313,0.00137262,0.0370018,0.00137832,-0.74364,-0.0523694,9.78392,-0.0515654,0.171566,0.968373,-0.00743883,-0.000534376,0.097839,1,5.33314e-05,-1.24888e-05,1.65324e-05,0.0106663,-0.00249777,0.00330649,0.999313,0.00137262,0.0370018,0.00137832,0.177042,-0.257351,-0.956016,34.3125,1,44071,4452881
45,6,0.999313,0.00137262,0.0370018,0.00137832,-0.74364,-0.0523694,9.78392,-0.0515654,0.171566,0.968373,-0.00743883,-0.000534376,0.097839,1,5.33314e-05,-1.24888e-05,1.65324e-05,0.0106663,-0.00249777,0.00330649,0.999313,0.00137262,0.0370018,0.00137832,0.177042,-0.257351,-0.956016,34.3125,1,44071,4452881
46,1,0.999313,0.00137262,0.0370018,0.00137832,-0.74364,-0.0523694,9.78392,-0.0515654,0.171566,0.968373,-0.00743883,-0.000534376,0.097839,1,5.33314e-05,-1.24888e-05,1.65324e-05,0.0106663,-0.00249777,0.00330649,0.999313,0.00137262,0.0370018,0.00137832,0.177042,-0.257351,-0.956016,34.3125,1,44071,4452881
46,2,0.999314,0.00137962,0.0369953,0.00137362,-0.730832,-0.0465568,9.78761,-0.0409755,0.174616,0.970005,-0.00731016,-0.000472795,0.0978759,1,3.53977e-05,-9.47902e-06,2.03718e-05,0.00707954,-0.00189581,0.00407436,0.999314,0.00137962,0.0369953,0.00137362,0.176566,-0.253978,-0.953414,34.3125,1,44072,4452981
46,3,0.999314,0.00137962,0.0369953,0.00137362,-0.730832,-0.0465568,9.78761,-0.0409755,0.174616,0.970005,-0.00731016,-0.000472795,0.0978759,1,3.53977e-05,-9.47902e-06,2.03718e-05,0.00707954,-0.00189581,0.00407436,0.999314,0.00137962,0.0369953,0.00137362,0.176566,-0.253978,-0.953414,34.3125,1,44072,4452981
46,4,0.999314,0.00137962,0.0369953,0.00137362,-0.730832,-0.0465568,9.78761,-0.0409755,0.174616,0.970005,-0.00731016,-0.000472795,0.0978759,1,3.53977e-05,-9.47902e-06,2.03718e-05,0.00707954,-0.00189581,0.00407436,0.999314,0.00137962,0.0369953,0.00137362,0.176566,-0.253978,-0.953414,34.3125,1,44072,4452981
46,5,0.999314,0.00142115,0.0369791,0.00137719,-0.732462,-0.0487804,9.78828,-0.0368866,0.177182,0.969579,-0.00732777,-0.000498961,0.0978825,1,5.64362e-05,-1.61604e-05,7.41904e-06,0.0112872,-0.00323209,0.00148381,0.999314,0.00142115,0.0369791,0.00137719,0.174781,-0.255028,-0.948378,34.3125,1,44073,4453081
46,6,0.999314,0.00142115,0.0369791,0.00137719,-0.732462,-0.0487804,9.78828,-0.0368866,0.177182,0.969579,-0.00732777,-0.000498961,0.0978825,1,5.64362e-05,-1.61604e-05,7.41904e-06,0.0112872,-0.00323209,0.00148381,0.999314,0.00142115,0.0369791,0.00137719,0.174781,-0.255028,-0.948378,34.3125,1,44073,4453081
47,1,0.999314,0.00142115,0.0369791,0.00137719,-0.732462,-0.0487804,9.78828,-0.0368866,0.177182,0.969579,-0.00732777,-0.000498961,0.0978825,1,5.64362e-05,-1.61604e-05,7.41904e-06,0.0112872,-0.00323209,0.00148381,0.999314,0.00142115,0.0369791,0.00137719,0.174781,-0.255028,-0.948378,34.3125,1,44073,4453081
47,2,0.999314,0.00147983,0.0369656,0.00140885,-0.742623,-0.0526115,9.7873,-0.0506351,0.168241,0.973911,-0.00742883,-0.000536808,0.0978728,1,5.34672e-05,-1.33777e-05,1.52997e-05,0.0106934,-0.00267553,0.00305994,0.999314,0.00147983,0.0369656,0.00140885,0.173838,-0.258407,-0.949964,34.3125,1,44074,4453181
47,3,0.999314,0.00147983,0.0369656,0.00140885,-0.742623,-0.0526115,9.7873,-0.0506351,0.168241,0.973911,-0.00742883,-0.000536808,0.0978728,1,5.34672e-05,-1.33777e-05,1.52997e-05,0.0106934,-0.00267553,0.00305994,0.999314,0.00147983,0.0369656,0.00140885,0.173838,-0.258407,-0.949964,34.3125,1,44074,4453181
47,4,0.999314,0.00147983,0.0369656,0.00140885,-0.742623,-0.0526115,9.7873,-0.0506351,0.168241,0.973911,-0.00742883,-0.000536808,0.0978728,1,5.34672e-05,-1.33777e-05,1.52997e-05,0.0106934,-0.00267553,0.00305994,0.999314,0.00147983,0.0369656,0.00140885,0.173838,-0.258407,-0.949964,34.3125,1,44074,4453181
47,5,0.999315,0.00151036,0.0369462,0.00142913,-0.735882,-0.0491528,9.77982,-0.0482651,0.171631,0.962934,-0.00736314,-0.000499901,0.0977979,1,4.18721e-05,-2.21711e-05,1.24074e-05,0.00837442,-0.00443423,0.00248148,0.999315,0.00151036,0.0369462,0.00142913,0.173776,-0.261253,-0.954572,34.3125,1,44075,4453281
47,6,0.999315,0.00151036,0.0369462,0.00142913,-0.735882,-0.0491528,9.77982,-0.0482651,0.171631,0.962934,-0.00736314,-0.000499901,0.0977979,1,4.18721e-05,-2.21711e-05,1.24074e-05,0.00837442,-0.00443423,0.00248148,0.999315,0.00151036,0.0369462,0.00142913,0.173776,-0.261253,-0.954572,34.3125,1,44075,4453281
48,1,0.999315,0.00151036,0.0369462,0.00142913,-0.735882,-0.0491528,9.77982,-0.0482651,0.171631,0.962934,-0.00736314,-0.000499901,0.0977979,1,4.18721e-05,-2.21711e-05,1.24074e-05,0.00837442,-0.00443423,0.00248148,0.999315,0.00151036,0.0369462,0.00142913,0.173776,-0.261253,-0.954572,34.3125,1,44075,4453281
48,2,0.999315,0.00152559,0.0369427,0.00143719,-0.734979,-0.0437763,9.78495,-0.045196,0.178594,0.971317,-0.00735111,-0.000446384,0.0978493,1,4.315e-05,-6.80232e-06,1.20271e-05,0.00863001,-0.00136046,0.00240542,0.999315,0.00152559,0.0369427,0.00143719,0.174166,-0.260227,-0.957582,34.3125,1,44076,4453381
48,3,0.999315,0.00152559,0.0369427,0.00143719,-0.734979,-0.0437763,9.78495,-0.045196,0.178594,0.971317,-0.00735111,-0.000446384,0.0978493,1,4.315e-05,-6.80232e-06,1.20271e-05,0.00863001,-0.00136046,0.00240542,0.999315,0.00152559,0.0369427,0.00143719,0.174166,-0.260227,-0.957582,34.3125,1,44076,4453381
48,4,0.999315,0.00152559,0.0369427,0.00143719,-0.734979,-0.0437763,9.78495,-0.045196,0.178594,0.971317,-0.00735111,-0.000446384,0.0978493,1,4.315e-05,-6.80232e-06,1.20271e-05,0.00863001,-0.00136046,0.00240542,0.999315,0.00152559,0.0369427,0.00143719,0.174166,-0.260227,-0.957582,34.3125,1,44076,4453381
48,5,0.999315,0.00153721,0.0369391,0.00143744,-0.741335,-0.0587283,9.78113,-0.0496498,0.160386,0.965964,-0.00741496,-0.000596903,0.0978111,1,4.84436e-05,-8.30559e-06,9.63374e-06,0.00968873,-0.00166112,0.00192675,0.999315,0.00153721,0.0369391,0.00143744,0.176043,-0.257316,-0.957526,34.3125,1,44077,4453481
48,6,0.999315,0.00153721,0.0369391,0.00143744,-0.741335,-0.0587283,9.78113,-0.0496498,0.160386,0.965964,-0.00741496,-0.000596903,0.0978111,1,4.84436e-05,-8.30559e-06,9.63374e-06,0.00968873,-0.00166112,0.00192675,0.999315,0.00153721,0.0369391,0.00143744,0.176043,-0.257316,-0.957526,34.3125,1,44077,4453481
49,1,0.999315,0.00153721,0.0369391,0.00143744,-0.741335,-0.0587283,9.78113,-0.0496498,0.160386,0.965964,-0.00741496,-0.000596903,0.0978111,1,4.84436e-05,-8.30559e-06,9.63374e-06,0.00968873,-0.00166112,0.00192675,0.999315,0.00153721,0.0369391,0.00143744,0.176043,-0.257316,-0.957526,34.3125,1,44077,4453481
49,2,0.999316,0.00155,0.0369301,0.00143219,-0.747013,-0.0544649,9.79037,-0.0567422,0.165236,0.977503,-0.00747273,-0.00055417,0.0979035,1,4.71938e-05,-1.33535e-05,1.87586e-05,0.00943877,-0.00267069,0.00375172,0.999316,0.00155,0.0369301,0.00143219,0.176619,-0.254981,-0.951921,34.3125,1,44078,4453581
49,3,0.999316,0.00155,0.0369301,0.00143219,-0.747013,-0.0544649,9.79037,-0.0567422,0.165236,0.977503,-0.00747273,-0.00055417,0.0979035,1,4.71938e-05,-1.33535e-05,1.87586e-05,0.00943877,-0.00267069,0.00375172,0.999316,0.00155,0.0369301,0.00143219,0.176619,-0.254981,-0.951921,34.3125,1,44078,4453581
49,4,0.999316,0.00155,0.0369301,0.00143219,-0.747013,-0.0544649,9.79037,-0.0567422,0.165236,0.977503,-0.00747273,-0.00055417,0.0979035,1,4.71938e-05,-1.33535e-05,1.87586e-05,0.00943877,-0.00267069,0.00375172,0.999316,0.00155,0.0369301,0.00143219,0.176619,-0.254981,-0.951921,34.3125,1,44078,4453581
49,5,0.999316,0.00158849,0.0369309,0.00144659,-0.735087,-0.0491494,9.7754,-0.0489959,0.169091,0.962393,-0.00735069,-0.000500991,0.0977539,1,4.65549e-05,7.55946e-07,2.6878e-05,0.00931099,0.000151189,0.00537561,0.999316,0.00158849,0.0369309,0.00144659,0.175295,-0.255538,-0.947382,34.3125,1,44079,4453681
49,6,0.999316,0.00158849,0.0369309,0.00144659,-0.735087,-0.0491494,9.7754,-0.0489959,0.169091,0.962393,-0.00735069,-0.000500991,0.0977539,1,4.65549e-05,7.55946e-07,2.6878e-05,0.00931099,0.000151189,0.00537561,0.999316,0.00158849,0.0369309,0.00144659,0.175295,-0.255538,-0.947382,34.3125,1,44079,4453681
50,1,0.999316,0.00158849,0.0369309,0.00144659,-0.735087,-0.0491494,9.7754,-0.0489959,0.169091,0.962393,-0.00735069,-0.000500991,0.0977539,1,4.65549e-05,7.55946e-07,2.6878e-05,0.00931099,0.000151189,0.00537561,0.999316,0.00158849,0.0369309,0.00144659,0.175295,-0.255538,-0.947382,34.3125,1,44079,4453681
50,2,0.999316,0.00163504,0.0369209,0.00147414,-0.748144,-0.052437,9.78564,-0.0577835,0.165108,0.971245,-0.00748319,-0.000532581,0.0978562,1,4.04603e-05,-9.03416e-06,1.9541e-05,0.00809206,-0.00180683,0.00390821,0.999316,0.00163504,0.0369209,0.00147414,0.172921,-0.258914,-0.948456,34.3125,1,44080,4453781
50,3,0.999316,0.00163504,0.0369209,0.00147414,-0.748144,-0.052437,9.78564,-0.0577835,0.165108,0.971245,-0.00748319,-0.000532581,0.0978562,1,4.04603e-05,-9.03416e-06,1.9541e-05,0.00809206,-0.00180683,0.00390821,0.999316,0.00163504,0.0369209,0.00147414,0.172921,-0.258914,-0.948456,34.3125,1,44080,4453781
50,4,0.999316,0.00163504,0.0369209,0.00147414,-0.748144,-0.052437,9.78564,-0.0577835,0.165108,0.971245,-0.00748319,-0.000532581,0.0978562,1,4.04603e-05,-9.03416e-06,1.9541e-05,0.00809206,-0.00180683,0.00390821,0.999316,0.00163504,0.0369209,0.00147414,0.172921,-0.258914,-0.948456,34.3125,1,44080,4453781
50,5,0.999316,0.00167928,0.0369013,0.00150294,-0.743007,-0.0494227,9.78055,-0.0552994,0.167151,0.967696,-0.00743449,-0.000504856,0.0978051,1,5.31562e-05,-2.26811e-05,1.55647e-05,0.0106313,-0.00453621,0.00311295,0.999316,0.00167928,0.0369013,0.00150294,0.174306,-0.261293,-0.952556,34.3125,1,44081,4453881
50,6,0.999316,0.00167928,0.0369013,0.00150294,-0.743007,-0.0494227,9.78055,-0.0552994,0.167151,0.967696,-0.00743449,-0.000504856,0.0978051,1,5.31562e-05,-2.26811e-05,1.55647e-05,0.0106313,-0.00453621,0.00311295,0.999316,0.00167928,0.0369013,0.00150294,0.174306,-0.261293,-0.952556,34.3125,1,44081,4453881
51,1,0.999316,0.00167928,0.0369013,0.00150294,-0.743007,-0.0494227,9.78055,-0.0552994,0.167151,0.967696,-0.00743449,-0.000504856,0.0978051,1,5.31562e-05,-2.26811e-05,1.55647e-05,0.0106313,-0.00453621,0.00311295,0.999316,0.00167928,0.0369013,0.00150294,0.174306,-0.261293,-0.952556,34.3125,1,44081,4453881
51,2,0.999317,0.00169398,0.036889,0.00151056,-0.739521,-0.059238,9.78553,-0.0509847,0.156522,0.96589,-0.00739819,-0.000600257,0.0978551,1,3.89741e-05,-1.53331e-05,1.68067e-05,0.00779481,-0.00306662,0.00336133,0.999317,0.00169398,0.036889,0.00151056,0.175634,-0.260257,-0.956579,34.3125,1,44082,4453981
51,3,0.999317,0.00169398,0.036889,0.00151056,-0.739521,-0.059238,9.78553,-0.0509847,0.156522,0.96589,-0.00739819,-0.000600257,0.0978551,1,3.89741e-05,-1.53331e-05,1.68067e-05,0.00779481,-0.00306662,0.00336133,0.999317,0.00169398,0.036889,0.00151056,0.175634,-0.260257,-0.956579,34.3125,1,44082,4453981
51,4,0.999317,0.00169398,0.036889,0.00151056,-0.739521,-0.059238,9.78553,-0.0509847,0.156522,0.96589,-0.00739819,-0.000600257,0.0978551,1,3.89741e-05,-1.53331e-05,1.68067e-05,0.00779481,-0.00306662,0.00336133,0.999317,0.00169398,0.036889,0.00151056,0.175634,-0.260257,-0.956579,34.3125,1,44082,4453981
52,1,0.999317,0.00170179,0.0368771,0.00151697,-0.745987,-0.0561506,9.78662,-0.0561002,0.161845,0.972751,-0.00746305,-0.00057035,0.0978659,1,4.29694e-05,-1.64191e-05,2.90573e-05,0.00859387,-0.00328381,0.00581146,0.999317,0.00170179,0.0368771,0.00151697,0.176605,-0.259308,-0.955552,34.3125,1,44083,4454081
52,2,0.999317,0.00170179,0.0368771,0.00151697,-0.745987,-0.0561506,9.78662,-0.0561002,0.161845,0.972751,-0.00746305,-0.00057035,0.0978659,1,4.29694e-05,-1.64191e-05,2.90573e-05,0.00859387,-0.00328381,0.00581146,0.999317,0.00170179,0.0368771,0.00151697,0.176605,-0.259308,-0.955552,34.3125,1,44083,4454081
52,3,0.999317,0.00170179,0.0368771,0.00151697,-0.745987,-0.0561506,9.78662,-0.0561002,0.161845,0.972751,-0.00746305,-0.00057035,0.0978659,1,4.29694e-05,-1.64191e-05,2.90573e-05,0.00859387,-0.00328381,0.00581146,0.999317,0.00170179,0.0368771,0.00151697,0.176605,-0.259308,-0.955552,34.3125,1,44083,4454081
52,4,0.999318,0.00171822,0.0368613,0.00150745,-0.743294,-0.0489043,9.78633,-0.0538419,0.172835,0.974392,-0.00743676,-0.000498854,0.0978629,1,4.85163e-05,-1.96621e-05,2.11671e-05,0.00970327,-0.00393241,0.00423341,0.999318,0.00171822,0.0368613,0.00150745,0.175171,-0.255447,-0.95243,34.3125,1,44084,4454181
52,5,0.999318,0.00171822,0.0368613,0.00150745,-0.743294,-0.0489043,9.78633,-0.0538419,0.172835,0.974392,-0.00743676,-0.000498854,0.0978629,1,4.85163e-05,-1.96621e-05,2.11671e-05,0.00970327,-0.00393241,0.00423341,0.999318,0.00171822,0.0368613,0.00150745,0.175171,-0.255447,-0.95243,34.3125,1,44084,4454181
52,6,0.999318,0.00171822,0.0368613,0.00150745,-0.743294,-0.0489043,9.78633,-0.0538419,0.172835,0.974392,-0.00743676,-0.000498854,0.0978629,1,4.85163e-05,-1.96621e-05,2.11671e-05,0.00970327,-0.00393241,0.00423341,0.999318,0.00171822,0.0368613,0.00150745,0.175171,-0.255447,-0.95243,34.3125,1,44084,4454181
53,1,0.999318,0.00173905,0.0368532,0.00152549,-0.740814,-0.0434324,9.77685,-0.0528772,0.170699,0.961695,-0.00741,-0.000441672,0.0977683,1,3.63644e-05,-9.61298e-06,1.60319e-05,0.00727288,-0.0019226,0.00320638,0.999318,0.00173905,0.0368532,0.00152549,0.174308,-0.255512,-0.948387,34.3125,1,44085,4454281
53,2,0.999318,0.00173905,0.0368532,0.00152549,-0.740814,-0.0434324,9.77685,-0.0528772,0.170699,0.961695,-0.00741,-0.000441672,0.0977683,1,3.63644e-05,-9.61298e-06,1.60319e-05,0.00727288,-0.0019226,0.00320638,0.999318,0.00173905,0.0368532,0.00152549,0.174308,-0.255512,-0.948387,34.3125,1,44085,4454281
53,3,0.999318,0.00173905,0.0368532,0.00152549,-0.740814,-0.0434324,9.77685,-0.0528772,0.170699,0.961695,-0.00741,-0.000441672,0.0977683,1,3.63644e-05,-9.61298e-06,1.60319e-05,0.00727288,-0.0019226,0.00320638,0.999318,0.00173905,0.0368532,0.00152549,0.174308,-0.255512,-0.948387,34.3125,1,44085,4454281
53,4,0.999319,0.00178299,0.0368295,0.00155889,-0.744299,-0.0574457,9.7727,-0.0559444,0.157206,0.960139,-0.00744773,-0.000583525,0.0977265,1,4.50591e-05,-2.43637e-05,1.75478e-05,0.00901183,-0.00487275,0.00350957,0.999319,0.00178299,0.0368295,0.00155889,0.173846,-0.258895,-0.949975,34.3125,1,44086,4454381
53,5,0.999319,0.00178299,0.0368295,0.00155889,-0.744299,-0.0574457,9.7727,-0.0559444,0.157206,0.960139,-0.00744773,-0.000583525,0.0977265,1,4.50591e-05,-2.43637e-05,1.75478e-05,0.00901183,-0.00487275,0.00350957,0.999319,0.00178299,0.0368295,0.00155889,0.173846,-0.258895,-0.949975,34.3125,1,44086,4454381
53,6,0.999319,0.00181261,0.0368168,0.00157418,-0.73719,-0.0564034,9.77943,-0.0503767,0.156557,0.963749,-0.00737502,-0.000573025,0.0977941,1,4.50238e-05,-1.60078e-05,1.25355e-05,0.00900475,-0.00320157,0.00250709,0.999319,0.00181261,0.0368168,0.00157418,0.172842,-0.260784,-0.953043,34.3125,1,44087,4454481
54,1,0.999319,0.00181261,0.0368168,0.00157418,-0.73719,-0.0564034,9.77943,-0.0503767,0.156557,0.963749,-0.00737502,-0.000573025,0.0977941,1,4.50238e-05,-1.60078e-05,1.25355e-05,0.00900475,-0.00320157,0.00250709,0.999319,0.00181261,0.0368168,0.00157418,0.172842,-0.260784,-0.953043,34.3125,1,44087,4454481
54,2,0.999319,0.00181261,0.0368168,0.00157418,-0.73719,-0.0564034,9.77943,-0.0503767,0.156557,0.963749,-0.00737502,-0.000573025,0.0977941,1,4.50238e-05,-1.60078e-05,1.25355e-05,0.00900475,-0.00320157,0.00250709,0.999319,0.00181261,0.0368168,0.00157418,0.172842,-0.260784,-0.953043,34.3125,1,44087,4454481
54,3,0.999319,0.00183047,0.0368143,0.00159004,-0.744812,-0.0536797,9.77712,-0.062565,0.161549,0.962931,-0.00744955,-0.000545865,0.0977711,1,4.52939e-05,-7.36119e-06,1.41375e-05,0.00905878,-0.00147224,0.00282751,0.999319,0.00183047,0.0368143,0.00159004,0.172748,-0.260233,-0.956565,34.3125,1,44088,4454581
54,4,0.999319,0.00183047,0.0368143,0.00159004,-0.744812,-0.0536797,9.77712,-0.062565,0.161549,0.962931,-0.00744955,-0.000545865,0.0977711,1,4.52939e-05,-7.36119e-06,1.41375e-05,0.00905878,-0.00147224,0.00282751,0.999319,0.00183047,0.0368143,0.00159004,0.172748,-0.260233,-0.956565,34.3125,1,44088,4454581
54,5,0.999319,0.00183047,0.0368143,0.00159004,-0.744812,-0.0536797,9.77712,-0.062565,0.161549,0.962931,-0.00744955,-0.000545865,0.0977711,1,4.52939e-05,-7.36119e-06,1.41375e-05,0.00905878,-0.00147224,0.00282751,0.999319,0.00183047,0.0368143,0.00159004,0.172748,-0.260233,-0.956565,34.3125,1,44088,4454581
54,6,0.999319,0.00184018,0.0368068,0.00161014,-0.732471,-0.0467399,9.7839,-0.0425276,0.165491,0.968485,-0.00732747,-0.000477078,0.0978387,1,4.77863e-05,-1.42585e-05,2.24373e-05,0.00955725,-0.0028517,0.00448745,0.999319,0.00184018,0.0368068,0.00161014,0.175594,-0.257818,-0.956525,34.3125,1,44089,4454681
55,1,0.999319,0.00184018,0.0368068,0.00161014,-0.732471,-0.0467399,9.7839,-0.0425276,0.165491,0.968485,-0.00732747,-0.000477078,0.0978387,1,4.77863e-05,-1.42585e-05,2.24373e-05,0.00955725,-0.0028517,0.00448745,0.999319,0.00184018,0.0368068,0.00161014,0.175594,-0.257818,-0.956525,34.3125,1,44089,4454681
55,2,0.999319,0.00184018,0.0368068,0.00161014,-0.732471,-0.0467399,9.7839,-0.0425276,0.165491,0.968485,-0.00732747,-0.000477078,0.0978387,1,4.77863e-05,-1.42585e-05,2.24373e-05,0.00955725,-0.0028517,0.00448745,0.999319,0.00184018,0.0368068,0.00161014,0.175594,-0.257818,-0.956525,34.3125,1,44089,4454681
55,3,0.99932,0.00185876,0.0367989,0.00159237,-0.727505,-0.0386642,9.77206,-0.0337727,0.174383,0.95635,-0.00727769,-0.000397592,0.0977203,1,5.52145e-05,-1.35878e-05,1.08646e-05,0.0110429,-0.00271757,0.00217293,0.99932,0.00185876,0.0367989,0.00159237,0.176191,-0.255979,-0.950426,34.3125,1,44090,4454781
55,4,0.99932,0.00185876,0.0367989,0.00159237,-0.727505,-0.0386642,9.77206,-0.0337727,0.174383,0.95635,-0.00727769,-0.000397592,0.0977203,1,5.52145e-05,-1.35878e-05,1.08646e-05,0.0110429,-0.00271757,0.00217293,0.99932,0.00185876,0.0367989,0.00159237,0.176191,-0.255979,-0.950426,34.3125,1,44090,4454781
55,5,0.99932,0.00185876,0.0367989,0.00159237,-0.727505,-0.0386642,9.77206,-0.0337727,0.174383,0.95635,-0.00727769,-0.000397592,0.0977203,1,5.52145e-05,-1.35878e-05,1.08646e-05,0.0110429,-0.00271757,0.00217293,0.99932,0.00185876,0.0367989,0.00159237,0.176191,-0.255979,-0.950426,34.3125,1,44090,4454781
55,6,0.99932,0.00189613,0.0367933,0.00158335,-0.734004,-0.0423652,9.77479,-0.0467502,0.168864,0.957661,-0.00734119,-0.000432747,0.0977477,1,4.59012e-05,-5.95865e-06,8.33318e-06,0.00918025,-0.00119173,0.00166664,0.99932,0.00189613,0.0367933,0.00158335,0.175372,-0.258004,-0.945922,34.3125,1,44091,4454881
56,1,0.99932,0.00189613,0.0367933,0.00158335,-0.734004,-0.0423652,9.77479,-0.0467502,0.168864,0.957661,-0.00734119,-0.000432747,0.0977477,1,4.59012e-05,-5.95865e-06,8.33318e-06,0.00918025,-0.00119173,0.00166664,0.99932,0.00189613,0.0367933,0.00158335,0.175372,-0.258004,-0.945922,34.3125,1,44091,4454881
56,2,0.99932,0.00189613,0.0367933,0.00158335,-0.734004,-0.0423652,9.77479,-0.0467502,0.168864,0.957661,-0.00734119,-0.000432747,0.0977477,1,4.59012e-05,-5.95865e-06,8.33318e-06,0.00918025,-0.00119173,0.00166664,0.99932,0.00189613,0.0367933,0.00158335,0.175372,-0.258004,-0.945922,34.3125,1,44091,4454881
56,3,0.99932,0.00195474,0.0367737,0.00158506,-0.737103,-0.0566656,9.78215,-0.0530465,0.157269,0.968185,-0.0073746,-0.000577614,0.0978212,1,5.55757e-05,-1.8256e-05,5.77018e-06,0.0111151,-0.0036512,0.00115404,0.99932,0.00195474,0.0367737,0.00158506,0.174392,-0.261356,-0.949022,34.3125,1,44092,4454981
56,4,0.99932,0.00195474,0.0367737,0.00158506,-0.737103,-0.0566656,9.78215,-0.0530465,0.157269,0.968185,-0.0073746,-0.000577614,0.0978212,1,5.55757e-05,-1.8256e-05,5.77018e-06,0.0111151,-0.0036512,0.00115404,0.99932,0.00195474,0.0367737,0.00158506,0.174392,-0.261356,-0.949022,34.3125,1,44092,4454981
57,1,0.99932,0.00195474,0.0367737,0.00158506,-0.737103,-0.0566656,9.78215,-0.0530465,0.157269,0.968185,-0.0073746,-0.000577614,0.0978212,1,5.55757e-05,-1.8256e-05,5.77018e-06,0.0111151,-0.0036512,0.00115404,0.99932,0.00195474,0.0367737,0.00158506,0.174392,-0.261356,-0.949022,34.3125,1,44092,4454981
57,2,0.999321,0.00197284,0.0367641,0.00158935,-0.745973,-0.0626986,9.78148,-0.0569321,0.149342,0.961136,-0.00746226,-0.000634228,0.0978145,1,3.60347e-05,-1.30032e-05,1.2908e-05,0.00720695,-0.00260064,0.0025816,0.999321,0.00197284,0.0367641,0.00158935,0.174779,-0.262254,-0.953589,34.3125,1,44093,4455081
57,3,0.999321,0.00197284,0.0367641,0.00158935,-0.745973,-0.0626986,9.78148,-0.0569321,0.149342,0.961136,-0.00746226,-0.000634228,0.0978145,1,3.60347e-05,-1.30032e-05,1.2908e-05,0.00720695,-0.00260064,0.0025816,0.999321,0.00197284,0.0367641,0.00158935,0.174779,-0.262254,-0.953589,34.3125,1,44093,4455081
57,4,0.999321,0.00197284,0.0367641,0.00158935,-0.745973,-0.0626986,9.78148,-0.0569321,0.149342,0.961136,-0.00746226,-0.000634228,0.0978145,1,3.60347e-05,-1.30032e-05,1.2908e-05,0.00720695,-0.00260064,0.0025816,0.999321,0.00197284,0.0367641,0.00158935,0.174779,-0.262254,-0.953589,34.3125,1,44093,4455081
57,5,0.999321,0.00198953,0.0367574,0.00157965,-0.745397,-0.0488637,9.78566,-0.0609606,0.162123,0.972609,-0.00745644,-0.00049871,0.0978563,1,5.06099e-05,-1.26475e-05,1.12261e-05,0.010122,-0.0025295,0.00224521,0.999321,0.00198953,0.0367574,0.00157965,0.175638,-0.261224,-0.957106,34.3125,1,44094,4455181
57,6,0.999321,0.00198953,0.0367574,0.00157965,-0.745397,-0.0488637,9.78566,-0.0609606,0.162123,0.972609,-0.00745644,-0.00049871,0.0978563,1,5.06099e-05,-1.26475e-05,1.12261e-05,0.010122,-0.0025295,0.00224521,0.999321,0.00198953,0.0367574,0.00157965,0.175638,-0.261224,-0.957106,34.3125,1,44094,4455181
58,1,0.999321,0.00198953,0.0367574,0.00157965,-0.745397,-0.0488637,9.78566,-0.0609606,0.162123,0.972609,-0.00745644,-0.00049871,0.0978563,1,5.06099e-05,-1.26475e-05,1.12261e-05,0.010122,-0.0025295,0.00224521,0.999321,0.00198953,0.0367574,0.00157965,0.175638,-0.261224,-0.957106,34.3125,1,44094,4455181
58,2,0.999321,0.00197712,0.0367522,0.00154585,-0.733371,-0.0647569,9.78476,-0.0449711,0.147926,0.964661,-0.00733629,-0.000654189,0.0978474,1,3.39003e-05,-1.31891e-05,-9.96647e-07,0.00678005,-0.00263783,-0.00019933,0.999321,0.00197712,0.0367522,0.00154585,0.17663,-0.259326,-0.954543,34.3125,1,44095,4455281
58,3,0.999321,0.00197712,0.0367522,0.00154585,-0.733371,-0.0647569,9.78476,-0.0449711,0.147926,0.964661,-0.00733629,-0.000654189,0.0978474,1,3.39003e-05,-1.31891e-05,-9.96647e-07,0.00678005,-0.00263783,-0.00019933,0.999321,0.00197712,0.0367522,0.00154585,0.17663,-0.259326,-0.954543,34.3125,1,44095,4455281
58,4,0.999321,0.00197712,0.0367522,0.00154585,-0.733371,-0.0647569,9.78476,-0.0449711,0.147926,0.964661,-0.00733629,-0.000654189,0.0978474,1,3.39003e-05,-1.31891e-05,-9.96647e-07,0.00678005,-0.00263783,-0.00019933,0.999321,0.00197712,0.0367522,0.00154585,0.17663,-0.259326,-0.954543,34.3125,1,44095,4455281
58,5,0.999322,0.00197605,0.0367445,0.00151318,-0.729011,-0.0476339,9.79133,-0.0426378,0.164554,0.975511,-0.0072924,-0.000483045,0.0979131,1,3.4092e-05,-1.16787e-05,2.02822e-06,0.0068184,-0.00233575,0.000405644,0.999322,0.00197605,0.0367445,0.00151318,0.174756,-0.25501,-0.949388,34.3125,1,44096,4455381
58,6,0.999322,0.00197605,0.0367445,0.00151318,-0.729011,-0.0476339,9.79133,-0.0426378,0.164554,0.975511,-0.0072924,-0.000483045,0.0979131,1,3.4092e-05,-1.16787e-05,2.02822e-06,0.0068184,-0.00233575,0.000405644,0.999322,0.00197605,0.0367445,0.00151318,0.174756,-0.25501,-0.949388,34.3125,1,44096,4455381
59,1,0.999322,0.00197605,0.0367445,0.00151318,-0.729011,-0.0476339,9.79133,-0.0426378,0.164554,0.975511,-0.0072924,-0.000483045,0.0979131,1,3.4092e-05,-1.16787e-05,2.02822e-06,0.0068184,-0.00233575,0.000405644,0.999322,0.00197605,0.0367445,0.00151318,0.174756,-0.25501,-0.949388,34.3125,1,44096,4455381
59,2,0.999322,0.00201603,0.0367377,0.0015606,-0.740682,-0.0492208,9.77986,-0.0578564,0.159865,0.963706,-0.00740746,-0.000500775,0.0977985,1,4.24871e-05,-3.35645e-06,1.72849e-05,0.00849743,-0.00067129,0.00345699,0.999322,0.00201603,0.0367377,0.0015606,0.172893,-0.255039,-0.946854,34.3125,1,44097,4455481
59,3,0.999322,0.00201603,0.0367377,0.0015606,-0.740682,-0.0492208,9.77986,-0.0578564,0.159865,0.963706,-0.00740746,-0.000500775,0.0977985,1,4.24871e-05,-3.35645e-06,1.72849e-05,0.00849743,-0.00067129,0.00345699,0.999322,0.00201603,0.0367377,0.0015606,0.172893,-0.255039,-0.946854,34.3125,1,44097,4455481
59,4,0.999322,0.00205008,0.0367266,0.00161114,-0.73698,-0.0393877,9.77992,-0.0521914,0.166295,0.964048,-0.00737216,-0.000400623,0.097799,1,3.36618e-05,-1.2124e-05,1.10192e-05,0.00673235,-0.00242481,0.00220385,0.999322,0.00205008,0.0367266,0.00161114,0.172901,-0.258417,-0.94895,34.3125,1,44098,4455581
60,1,0.999322,0.00205008,0.0367266,0.00161114,-0.73698,-0.0393877,9.77992,-0.0521914,0.166295,0.964048,-0.00737216,-0.000400623,0.097799,1,3.36618e-05,-1.2124e-05,1.10192e-05,0.00673235,-0.00242481,0.00220385,0.999322,0.00205008,0.0367266,0.00161114,0.172901,-0.258417,-0.94895,34.3125,1,44098,4455581
60,2,0.999322,0.00205008,0.0367266,0.00161114,-0.73698,-0.0393877,9.77992,-0.0521914,0.166295,0.964048,-0.00737216,-0.000400623,0.097799,1,3.36618e-05,-1.2124e-05,1.10192e-05,0.00673235,-0.00242481,0.00220385,0.999322,0.00205008,0.0367266,0.00161114,0.172901,-0.258417,-0.94895,34.3125,1,44098,4455581
60,3,0.999322,0.00208361,0.0367179,0.00163513,-0.736599,-0.0515552,9.78184,-0.0503472,0.156752,0.964406,-0.00736851,-0.000525903,0.0978182,1,5.17424e-05,-1.29957e-05,1.54675e-05,0.0103485,-0.00259914,0.0030935,0.999322,0.00208361,0.0367179,0.00163513,0.17429,-0.260317,-0.952534,34.3125,1,44099,4455681
60,4,0.999322,0.00208361,0.0367179,0.00163513,-0.736599,-0.0515552,9.78184,-0.0503472,0.156752,0.964406,-0.00736851,-0.000525903,0.0978182,1,5.17424e-05,-1.29957e-05,1.54675e-05,0.0103485,-0.00259914,0.0030935,0.999322,0.00208361,0.0367179,0.00163513,0.17429,-0.260317,-0.952534,34.3125,1,44099,4455681
60,5,0.999322,0.00208361,0.0367179,0.00163513,-0.736599,-0.0515552,9.78184,-0.0503472,0.156752,0.964406,-0.00736851,-0.000525903,0.0978182,1,5.17424e-05,-1.29957e-05,1.54675e-05,0.0103485,-0.00259914,0.0030935,0.999322,0.00208361,0.0367179,0.00163513,0.17429,-0.260317,-0.952534,34.3125,1,44099,4455681
60,6,0.999322,0.00210209,0.0367139,0.00163675,-0.741357,-0.0573573,9.78182,-0.0516146,0.147995,0.965155,-0.00741521,-0.000583496,0.097818,1,4.96656e-05,-8.46172e-06,1.38769e-05,0.00993312,-0.00169234,0.00277539,0.999322,0.00210209,0.0367139,0.00163675,0.176071,-0.258301,-0.957043,34.3125,1,44100,4455781
61,1,0.999322,0.00210209,0.0367139,0.00163675,-0.741357,-0.0573573,9.78182,-0.0516146,0.147995,0.965155,-0.00741521,-0.000583496,0.097818,1,4.96656e-05,-8.46172e-06,1.38769e-05,0.00993312,-0.00169234,0.00277539,0.999322,0.00210209,0.0367139,0.00163675,0.176071,-0.258301,-0.957043,34.3125,1,44100,4455781
61,2,0.999322,0.00210209,0.0367139,0.00163675,-0.741357,-0.0573573,9.78182,-0.0516146,0.147995,0.965155,-0.00741521,-0.000583496,0.097818,1,4.96656e-05,-8.46172e-06,1.38769e-05,0.00993312,-0.00169234,0.00277539,0.999322,0.00210209,0.0367139,0.00163675,0.176071,-0.258301,-0.957043,34.3125,1,44100,4455781
61,3,0.999322,0.00209812,0.0367097,0.00162313,-0.741319,-0.0544253,9.78456,-0.0568666,0.152182,0.969947,-0.00741521,-0.000552012,0.0978454,1,3.83276e-05,-1.04123e-05,1.74195e-05,0.00766552,-0.00208247,0.0034839,0.999322,0.00209812,0.0367097,0.00162313,0.178049,-0.257874,-0.954517,34.3125,1,44101,4455881
61,4,0.999322,0.00209812,0.0367097,0.00162313,-0.741319,-0.0544253,9.78456,-0.0568666,0.152182,0.969947,-0.00741521,-0.000552012,0.0978454,1,3.83276e-05,-1.04123e-05,1.74195e-05,0.00766552,-0.00208247,0.0034839,0.999322,0.00209812,0.0367097,0.00162313,0.178049,-0.257874,-0.954517,34.3125,1,44101,4455881
62,1,0.999322,0.00209812,0.0367097,0.00162313,-0.741319,-0.0544253,9.78456,-0.0568666,0.152182,0.969947,-0.00741521,-0.000552012,0.0978454,1,3.83276e-05,-1.04123e-05,1.74195e-05,0.00766552,-0.00208247,0.0034839,0.999322,0.00209812,0.0367097,0.00162313,0.178049,-0.257874,-0.954517,34.3125,1,44101,4455881
62,2,0.999323,0.00210523,0.0367048,0.00157918,-0.740662,-0.0533879,9.78626,-0.0556563,0.151002,0.971279,-0.00740834,-0.000542075,0.0978625,1,4.15854e-05,-8.79529e-06,3.8371e-06,0.00831709,-0.00175906,0.000767421,0.999323,0.00210523,0.0367048,0.00157918,0.176697,-0.256001,-0.949419,34.3125,1,44102,4455981
62,3,0.999323,0.00210523,0.0367048,0.00157918,-0.740662,-0.0533879,9.78626,-0.0556563,0.151002,0.971279,-0.00740834,-0.000542075,0.0978625,1,4.15854e-05,-8.79529e-06,3.8371e-06,0.00831709,-0.00175906,0.000767421,0.999323,0.00210523,0.0367048,0.00157918,0.176697,-0.256001,-0.949419,34.3125,1,44102,4455981
62,4,0.999323,0.00210523,0.0367048,0.00157918,-0.740662,-0.0533879,9.78626,-0.0556563,0.151002,0.971279,-0.00740834,-0.000542075,0.0978625,1,4.15854e-05,-8.79529e-06,3.8371e-06,0.00831709,-0.00175906,0.000767421,0.999323,0.00210523,0.0367048,0.00157918,0.176697,-0.256001,-0.949419,34.3125,1,44102,4455981
62,5,0.999323,0.00213862,0.0366956,0.00158359,-0.744357,-0.0543164,9.78357,-0.0599011,0.14848,0.971455,-0.00744536,-0.000552469,0.0978355,1,4.64731e-05,-9.22366e-06,1.42156e-05,0.00929462,-0.00184473,0.00284311,0.999323,0.00213862,0.0366956,0.00158359,0.174349,-0.256505,-0.947399,34.3125,1,44103,4456081
62,6,0.999323,0.00213862,0.0366956,0.00158359,-0.744357,-0.0543164,9.78357,-0.0599011,0.14848,0.971455,-0.00744536,-0.000552469,0.0978355,1,4.64731e-05,-9.22366e-06,1.42156e-05,0.00929462,-0.00184473,0.00284311,0.999323,0.00213862,0.0366956,0.00158359,0.174349,-0.256505,-0.947399,34.3125,1,44103,4456081
63,1,0.999323,0.00213862,0.0366956,0.00158359,-0.744357,-0.0543164,9.78357,-0.0599011,0.14848,0.971455,-0.00744536,-0.000552469,0.0978355,1,4.64731e-05,-9.22366e-06,1.42156e-05,0.00929462,-0.00184473,0.00284311,0.999323,0.00213862,0.0366956,0.00158359,0.174349,-0.256505,-0.947399,34.3125,1,44103,4456081
63,2,0.999323,0.00217179,0.036679,0.00161803,-0.728302,-0.0549177,9.78482,-0.0488021,0.148564,0.966345,-0.00728664,-0.000557963,0.0978479,1,4.34817e-05,-1.86392e-05,1.89749e-05,0.00869634,-0.00372783,0.00379498,0.999323,0.00217179,0.036679,0.00161803,0.173422,-0.26086,-0.949006,34.3125,1,44104,4456181
63,3,0.999323,0.00217179,0.036679,0.00161803,-0.728302,-0.0549177,9.78482,-0.0488021,0.148564,0.966345,-0.00728664,-0.000557963,0.0978479,1,4.34817e-05,-1.86392e-05,1.89749e-05,0.00869634,-0.00372783,0.00379498,0.999323,0.00217179,0.036679,0.00161803,0.173422,-0.26086,-0.949006,34.3125,1,44104,4456181
63,4,0.999323,0.00217179,0.036679,0.00161803,-0.728302,-0.0549177,9.78482,-0.0488021,0.148564,0.966345,-0.00728664,-0.000557963,0.0978479,1,4.34817e-05,-1.86392e-05,1.89749e-05,0.00869634,-0.00372783,0.00379498,0.999323,0.00217179,0.036679,0.00161803,0.173422,-0.26086,-0.949006,34.3125,1,44104,4456181
63,5,0.999324,0.0022077,0.0366749,0.00163242,-0.740958,-0.0563364,9.78726,-0.0590695,0.14685,0.970166,-0.00741138,-0.000575091,0.0978723,1,5.88801e-05,-9.28916e-06,1.36029e-05,0.011776,-0.00185783,0.00272058,0.999324,0.0022077,0.0366749,0.00163242,0.175292,-0.264209,-0.953635,34.3125,1,44105,4456281
63,6,0.999324,0.0022077,0.0366749,0.00163242,-0.740958,-0.0563364,9.78726,-0.0590695,0.14685,0.970166,-0.00741138,-0.000575091,0.0978723,1,5.88801e-05,-9.28916e-06,1.36029e-05,0.011776,-0.00185783,0.00272058,0.999324,0.0022077,0.0366749,0.00163242,0.175292,-0.264209,-0.953635,34.3125,1,44105,4456281
64,1,0.999324,0.0022077,0.0366749,0.00163242,-0.740958,-0.0563364,9.78726,-0.0590695,0.14685,0.970166,-0.00741138,-0.000575091,0.0978723,1,5.88801e-05,-9.28916e-06,1.36029e-05,0.011776,-0.00185783,0.00272058,0.999324,0.0022077,0.0366749,0.00163242,0.175292,-0.264209,-0.953635,34.3125,1,44105,4456281
64,2,0.999324,0.0022216,0.0366733,0.00161142,-0.751245,-0.0516174,9.78363,-0.0633107,0.156708,0.965115,-0.00751399,-0.000526478,0.0978362,1,5.22807e-05,-7.91663e-06,4.87288e-06,0.0104561,-0.00158333,0.000974577,0.999324,0.0022216,0.0366733,0.00161142,0.174709,-0.261721,-0.956102,34.3125,1,44106,4456381
64,3,0.999324,0.0022216,0.0366733,0.00161142,-0.751245,-0.0516174,9.78363,-0.0633107,0.156708,0.965115,-0.00751399,-0.000526478,0.0978362,1,5.22807e-05,-7.91663e-06,4.87288e-06,0.0104561,-0.00158333,0.000974577,0.999324,0.0022216,0.0366733,0.00161142,0.174709,-0.261721,-0.956102,34.3125,1,44106,4456381
64,4,0.999324,0.0022216,0.0366733,0.00161142,-0.751245,-0.0516174,9.78363,-0.0633107,0.156708,0.965115,-0.00751399,-0.000526478,0.0978362,1,5.22807e-05,-7.91663e-06,4.87288e-06,0.0104561,-0.00158333,0.000974577,0.999324,0.0022216,0.0366733,0.00161142,0.174709,-0.261721,-0.956102,34.3125,1,44106,4456381
64,5,0.999324,0.00222749,0.0366729,0.00162169,-0.743407,-0.0530027,9.78086,-0.0599993,0.152725,0.964593,-0.00743566,-0.000539611,0.0978084,1,4.68697e-05,-8.30377e-06,2.79638e-05,0.00937395,-0.00166075,0.00559277,0.999324,0.00222749,0.0366729,0.00162169,0.174172,-0.256858,-0.954982,34.3125,1,44107,4456481
64,6,0.999324,0.00222749,0.0366729,0.00162169,-0.743407,-0.0530027,9.78086,-0.0599993,0.152725,0.964593,-0.00743566,-0.000539611,0.0978084,1,4.68697e-05,-8.30377e-06,2.79638e-05,0.00937395,-0.00166075,0.00559277,0.999324,0.00222749,0.0366729,0.00162169,0.174172,-0.256858,-0.954982,34.3125,1,44107,4456481
65,1,0.999324,0.00222749,0.0366729,0.00162169,-0.743407,-0.0530027,9.78086,-0.0599993,0.152725,0.964593,-0.00743566,-0.000539611,0.0978084,1,4.68697e-05,-8.30377e-06,2.79638e-05,0.00937395,-0.00166075,0.00559277,0.999324,0.00222749,0.0366729,0.00162169,0.174172,-0.256858,-0.954982,34.3125,1,44107,4456481
65,2,0.999324,0.00224243,0.0366635,0.00164567,-0.746482,-0.0486009,9.78024,-0.0631626,0.158218,0.962215,-0.00746785,-0.000495521,0.0978021,1,4.74042e-05,-1.56017e-05,1.60449e-05,0.00948085,-0.00312035,0.00320899,0.999324,0.00224243,0.0366635,0.00164567,0.174218,-0.254482,-0.951394,34.3125,1,44108,4456581
65,3,0.999324,0.00224243,0.0366635,0.00164567,-0.746482,-0.0486009,9.78024,-0.0631626,0.158218,0.962215,-0.00746785,-0.000495521,0.0978021,1,4.74042e-05,-1.56017e-05,1.60449e-05,0.00948085,-0.00312035,0.00320899,0.999324,0.00224243,0.0366635,0.00164567,0.174218,-0.254482,-0.951394,34.3125,1,44108,4456581
65,4,0.999324,0.00224243,0.0366635,0.00164567,-0.746482,-0.0486009,9.78024,-0.0631626,0.158218,0.962215,-0.00746785,-0.000495521,0.0978021,1,4.74042e-05,-1.56017e-05,1.60449e-05,0.00948085,-0.00312035,0.00320899,0.999324,0.00224243,0.0366635,0.00164567,0.174218,-0.254482,-0.951394,34.3125,1,44108,4456581
65,5,0.999324,0.00224848,0.0366534,0.00167905,-0.733852,-0.0480479,9.78254,-0.0476952,0.155422,0.966285,-0.00734134,-0.000485403,0.0978252,1,2.39127e-05,-1.44747e-05,1.66874e-05,0.00478253,-0.00289494,0.00333747,0.999324,0.00224848,0.0366534,0.00167905,0.17529,-0.256016,-0.947897,34.3125,1,44109,4456681
65,6,0.999324,0.00224848,0.0366534,0.00167905,-0.733852,-0.0480479,9.78254,-0.0476952,0.155422,0.966285,-0.00734134,-0.000485403,0.0978252,1,2.39127e-05,-1.44747e-05,1.66874e-05,0.00478253,-0.00289494,0.00333747,0.999324,0.00224848,0.0366534,0.00167905,0.17529,-0.256016,-0.947897,34.3125,1,44109,4456681
66,1,0.999324,0.00224848,0.0366534,0.00167905,-0.733852,-0.0480479,9.78254,-0.0476952,0.155422,0.966285,-0.00734134,-0.000485403,0.0978252,1,2.39127e-05,-1.44747e-05,1.66874e-05,0.00478253,-0.00289494,0.00333747,0.999324,0.00224848,0.0366534,0.00167905,0.17529,-0.256016,-0.947897,34.3125,1,44109,4456681
66,2,0.999324,0.00228111,0.0366419,0.00168098,-0.732957,-0.0551789,9.76414,-0.0458527,0.151044,0.947442,-0.00733244,-0.000560594,0.0976412,1,4.46755e-05,-1.47672e-05,5.50241e-06,0.00893509,-0.00295344,0.00110048,0.999324,0.00228111,0.0366419,0.00168098,0.174813,-0.258424,-0.949464,34.3125,1,44110,4456781
66,3,0.999324,0.00228111,0.0366419,0.00168098,-0.732957,-0.0551789,9.76414,-0.0458527,0.151044,0.947442,-0.00733244,-0.000560594,0.0976412,1,4.46755e-05,-1.47672e-05,5.50241e-06,0.00893509,-0.00295344,0.00110048,0.999324,0.00228111,0.0366419,0.00168098,0.174813,-0.258424,-0.949464,34.3125,1,44110,4456781
66,4,0.999324,0.00228111,0.0366419,0.00168098,-0.732957,-0.0551789,9.76414,-0.0458527,0.151044,0.947442,-0.00733244,-0.000560594,0.0976412,1,4.46755e-05,-1.47672e-05,5.50241e-06,0.00893509,-0.00295344,0.00110048,0.999324,0.00228111,0.0366419,0.00168098,0.174813,-0.258424,-0.949464,34.3125,1,44110,4456781
66,5,0.999325,0.00229436,0.03663,0.00169138,-0.738588,-0.0540962,9.78557,-0.0568743,0.148675,0.969835,-0.007389,-0.00054816,0.0978554,1,3.54813e-05,-1.60244e-05,1.7213e-05,0.00709627,-0.00320489,0.00344259,0.999325,0.00229436,0.03663,0.00169138,0.173816,-0.262246,-0.953585,34.3125,1,44111,4456881
