frame_id,imu_idx,quat_w,quat_x,quat_y,quat_z,accel_x,accel_y,accel_z,free_accel_x,free_accel_y,free_accel_z,delta_v_x,delta_v_y,delta_v_z,delta_q_w,delta_q_x,delta_q_y,delta_q_z,rate_x,rate_y,rate_z,quat_w,quat_x,quat_y,quat_z,mag_x,mag_y,mag_z,temperature,status_byte,packet_counter,time_fine
91,1,-0.296409,0.0378539,-0.0343126,-0.953694,-0.687514,-0.0259916,9.7797,0.0362511,0.106264,0.971999,-0.00687685,-0.000266002,0.0977968,1,3.00166e-05,-8.80082e-06,1.56555e-05,0.00600332,-0.00176016,0.0031311,-0.296409,0.0378539,-0.0343126,-0.953694,-0.356243,0.110958,-1.00345,34.3125,3,48178,4863581
91,2,-0.296409,0.0378539,-0.0343126,-0.953694,-0.554381,-0.0610125,7.34384,0.0362511,0.106264,0.971999,-0.00554619,-0.000618158,0.0734381,1,5.40558e-05,-1.62534e-05,8.4228e-06,0.0108112,-0.00325069,0.00168456,-0.296409,0.0378539,-0.0343126,-0.953694,0.0448745,-0.269791,-0.879418,34.3125,1,51249,5172165
91,3,-0.296409,0.0378539,-0.0343126,-0.953694,-0.554381,-0.0610125,7.34384,0.0362511,0.106264,0.971999,-0.00554619,-0.000618158,0.0734381,1,5.40558e-05,-1.62534e-05,8.4228e-06,0.0108112,-0.00325069,0.00168456,-0.296409,0.0378539,-0.0343126,-0.953694,0.0448745,-0.269791,-0.879418,34.3125,1,51249,5172165
91,4,-0.296409,0.0378539,-0.0343126,-0.953694,-0.554381,-0.0610125,7.34384,0.0362511,0.106264,0.971999,-0.00554619,-0.000618158,0.0734381,1,5.40558e-05,-1.62534e-05,8.4228e-06,0.0108112,-0.00325069,0.00168456,-0.296409,0.0378539,-0.0343126,-0.953694,0.0448745,-0.269791,-0.879418,34.3125,1,51249,5172165
91,5,0.999282,-0.00414707,0.0376508,-0.000130267,-0.724879,-0.088469,9.78892,0.101118,0.27718,0.874993,-0.00725451,-0.000894028,0.0978887,1,4.551e-05,-2.94557e-05,2.94766e-05,0.009102,-0.00589113,0.00589531,0.999282,-0.00414707,0.0376508,-0.000130267,0.0449192,-0.271751,-0.878957,34.3125,1,51250,5172265
91,6,0.999282,-0.00414707,0.0376508,-0.000130267,-0.724879,-0.088469,9.78892,0.101118,0.27718,0.874993,-0.00725451,-0.000894028,0.0978887,1,4.551e-05,-2.94557e-05,2.94766e-05,0.009102,-0.00589113,0.00589531,0.999282,-0.00414707,0.0376508,-0.000130267,0.0449192,-0.271751,-0.878957,34.3125,1,51250,5172265
91,7,0.999282,-0.00414707,0.0376508,-0.000130267,-0.724879,-0.088469,9.78892,0.101118,0.27718,0.874993,-0.00725451,-0.000894028,0.0978887,1,4.551e-05,-2.94557e-05,2.94766e-05,0.009102,-0.00589113,0.00589531,0.999282,-0.00414707,0.0376508,-0.000130267,0.0449192,-0.271751,-0.878957,34.3125,1,51250,5172265
91,8,0.999283,-0.00408812,0.0376379,-0.000110325,-0.716632,-0.0752461,9.78015,0.109699,0.292123,0.868912,-0.00716895,-0.000762479,0.0978013,1,4.96693e-05,-1.36144e-05,2.11409e-05,0.00993385,-0.00272288,0.00422818,0.999283,-0.00408812,0.0376379,-0.000110325,0.0434668,-0.274142,-0.881024,34.3125,1,51251,5172365
91,9,0.999283,-0.00408812,0.0376379,-0.000110325,-0.716632,-0.0752461,9.78015,0.109699,0.292123,0.868912,-0.00716895,-0.000762479,0.0978013,1,4.96693e-05,-1.36144e-05,2.11409e-05,0.00993385,-0.00272288,0.00422818,0.999283,-0.00408812,0.0376379,-0.000110325,0.0434668,-0.274142,-0.881024,34.3125,1,51251,5172365
91,10,0.999283,-0.00408812,0.0376379,-0.000110325,-0.716632,-0.0752461,9.78015,0.109699,0.292123,0.868912,-0.00716895,-0.000762479,0.0978013,1,4.96693e-05,-1.36144e-05,2.11409e-05,0.00993385,-0.00272288,0.00422818,0.999283,-0.00408812,0.0376379,-0.000110325,0.0434668,-0.274142,-0.881024,34.3125,1,51251,5172365
1,1,0.999283,-0.00404367,0.0376372,-9.78902e-05,-0.722207,-0.0741144,9.78223,0.102269,0.294143,0.867483,-0.00722221,-0.000749899,0.0978222,1,4.37144e-05,-7.76954e-07,1.40332e-05,0.00874288,-0.000155391,0.00280664,0.999283,-0.00404367,0.0376372,-9.78902e-05,0.0429193,-0.276017,-0.885103,34.3125,1,51252,5172465
1,2,0.999283,-0.00404367,0.0376372,-9.78902e-05,-0.722207,-0.0741144,9.78223,0.102269,0.294143,0.867483,-0.00722221,-0.000749899,0.0978222,1,4.37144e-05,-7.76954e-07,1.40332e-05,0.00874288,-0.000155391,0.00280664,0.999283,-0.00404367,0.0376372,-9.78902e-05,0.0429193,-0.276017,-0.885103,34.3125,1,51252,5172465
1,3,0.999283,-0.00404367,0.0376372,-9.78902e-05,-0.722207,-0.0741144,9.78223,0.102269,0.294143,0.867483,-0.00722221,-0.000749899,0.0978222,1,4.37144e-05,-7.76954e-07,1.40332e-05,0.00874288,-0.000155391,0.00280664,0.999283,-0.00404367,0.0376372,-9.78902e-05,0.0429193,-0.276017,-0.885103,34.3125,1,51252,5172465
1,4,0.999284,-0.00400495,0.0376114,-7.16753e-05,-0.720264,-0.0813233,9.7825,0.103151,0.287208,0.870627,-0.00720758,-0.000820973,0.0978246,1,3.75695e-05,-2.54624e-05,2.6986e-05,0.0075139,-0.00509249,0.0053972,0.999284,-0.00400495,0.0376114,-7.16753e-05,0.0433681,-0.27407,-0.885062,34.3125,1,51253,5172565
1,5,0.999284,-0.00400495,0.0376114,-7.16753e-05,-0.720264,-0.0813233,9.7825,0.103151,0.287208,0.870627,-0.00720758,-0.000820973,0.0978246,1,3.75695e-05,-2.54624e-05,2.6986e-05,0.0075139,-0.00509249,0.0053972,0.999284,-0.00400495,0.0376114,-7.16753e-05,0.0433681,-0.27407,-0.885062,34.3125,1,51253,5172565
1,6,0.999284,-0.00400495,0.0376114,-7.16753e-05,-0.720264,-0.0813233,9.7825,0.103151,0.287208,0.870627,-0.00720758,-0.000820973,0.0978246,1,3.75695e-05,-2.54624e-05,2.6986e-05,0.0075139,-0.00509249,0.0053972,0.999284,-0.00400495,0.0376114,-7.16753e-05,0.0433681,-0.27407,-0.885062,34.3125,1,51253,5172565
1,7,0.999285,-0.00396611,0.0375945,-5.61241e-05,-0.714138,-0.0809217,9.79433,0.116959,0.285571,0.885711,-0.00714462,-0.000816915,0.097943,1,3.80761e-05,-1.668e-05,1.67361e-05,0.00761522,-0.00333599,0.00334722,0.999285,-0.00396611,0.0375945,-5.61241e-05,0.045322,-0.27218,-0.882504,34.3125,1,51254,5172665
1,8,0.999285,-0.00396611,0.0375945,-5.61241e-05,-0.714138,-0.0809217,9.79433,0.116959,0.285571,0.885711,-0.00714462,-0.000816915,0.097943,1,3.80761e-05,-1.668e-05,1.67361e-05,0.00761522,-0.00333599,0.00334722,0.999285,-0.00396611,0.0375945,-5.61241e-05,0.045322,-0.27218,-0.882504,34.3125,1,51254,5172665
1,9,0.999285,-0.00396611,0.0375945,-5.61241e-05,-0.714138,-0.0809217,9.79433,0.116959,0.285571,0.885711,-0.00714462,-0.000816915,0.097943,1,3.80761e-05,-1.668e-05,1.67361e-05,0.00761522,-0.00333599,0.00334722,0.999285,-0.00396611,0.0375945,-5.61241e-05,0.045322,-0.27218,-0.882504,34.3125,1,51254,5172665
1,10,0.999286,-0.00392526,0.0375926,-3.99709e-05,-0.719615,-0.0901051,9.79056,0.108684,0.271803,0.882543,-0.00719648,-0.000909291,0.0979054,1,4.07808e-05,-1.86247e-06,1.77416e-05,0.00815616,-0.000372495,0.00354833,0.999286,-0.00392526,0.0375926,-3.99709e-05,0.0453471,-0.270753,-0.880452,34.3125,1,51255,5172765
2,1,0.999286,-0.00392526,0.0375926,-3.99709e-05,-0.719615,-0.0901051,9.79056,0.108684,0.271803,0.882543,-0.00719648,-0.000909291,0.0979054,1,4.07808e-05,-1.86247e-06,1.77416e-05,0.00815616,-0.000372495,0.00354833,0.999286,-0.00392526,0.0375926,-3.99709e-05,0.0453471,-0.270753,-0.880452,34.3125,1,51255,5172765
2,2,0.999286,-0.00392526,0.0375926,-3.99709e-05,-0.719615,-0.0901051,9.79056,0.108684,0.271803,0.882543,-0.00719648,-0.000909291,0.0979054,1,4.07808e-05,-1.86247e-06,1.77416e-05,0.00815616,-0.000372495,0.00354833,0.999286,-0.00392526,0.0375926,-3.99709e-05,0.0453471,-0.270753,-0.880452,34.3125,1,51255,5172765
2,3,0.999286,-0.00389171,0.0375898,-3.87945e-05,-0.7175,-0.0659267,9.78226,0.104757,0.297312,0.872367,-0.00717555,-0.000665858,0.0978225,1,3.35109e-05,-2.81628e-06,2.43072e-06,0.00670217,-0.000563256,0.000486143,0.999286,-0.00389171,0.0375898,-3.87945e-05,0.0444214,-0.272217,-0.879975,34.3125,1,51256,5172865
2,4,0.999286,-0.00389171,0.0375898,-3.87945e-05,-0.7175,-0.0659267,9.78226,0.104757,0.297312,0.872367,-0.00717555,-0.000665858,0.0978225,1,3.35109e-05,-2.81628e-06,2.43072e-06,0.00670217,-0.000563256,0.000486143,0.999286,-0.00389171,0.0375898,-3.87945e-05,0.0444214,-0.272217,-0.879975,34.3125,1,51256,5172865
2,5,0.999286,-0.00389171,0.0375898,-3.87945e-05,-0.7175,-0.0659267,9.78226,0.104757,0.297312,0.872367,-0.00717555,-0.000665858,0.0978225,1,3.35109e-05,-2.81628e-06,2.43072e-06,0.00670217,-0.000563256,0.000486143,0.999286,-0.00389171,0.0375898,-3.87945e-05,0.0444214,-0.272217,-0.879975,34.3125,1,51256,5172865
2,6,0.999287,-0.00382845,0.0375682,-2.96127e-05,-0.726616,-0.0852216,9.79099,0.0985032,0.273314,0.873081,-0.00727047,-0.000864742,0.0979095,1,6.30357e-05,-2.2156e-05,1.25394e-05,0.0126071,-0.00443121,0.00250788,0.999287,-0.00382845,0.0375682,-2.96127e-05,0.0444082,-0.275098,-0.882564,34.3125,1,51257,5172965
2,7,0.999287,-0.00382845,0.0375682,-2.96127e-05,-0.726616,-0.0852216,9.79099,0.0985032,0.273314,0.873081,-0.00727047,-0.000864742,0.0979095,1,6.30357e-05,-2.2156e-05,1.25394e-05,0.0126071,-0.00443121,0.00250788,0.999287,-0.00382845,0.0375682,-2.96127e-05,0.0444082,-0.275098,-0.882564,34.3125,1,51257,5172965
2,8,0.999287,-0.00382845,0.0375682,-2.96127e-05,-0.726616,-0.0852216,9.79099,0.0985032,0.273314,0.873081,-0.00727047,-0.000864742,0.0979095,1,6.30357e-05,-2.2156e-05,1.25394e-05,0.0126071,-0.00443121,0.00250788,0.999287,-0.00382845,0.0375682,-2.96127e-05,0.0444082,-0.275098,-0.882564,34.3125,1,51257,5172965
2,9,0.999287,-0.00378767,0.0375531,-1.7975e-05,-0.727071,-0.0878624,9.7852,0.0938769,0.269284,0.875656,-0.00727364,-0.000886604,0.0978517,1,3.98085e-05,-1.51097e-05,1.29864e-05,0.00796169,-0.00302195,0.00259728,0.999287,-0.00378767,0.0375531,-1.7975e-05,0.0458307,-0.276059,-0.884107,34.3125,1,51258,5173065
2,10,0.999287,-0.00378767,0.0375531,-1.7975e-05,-0.727071,-0.0878624,9.7852,0.0938769,0.269284,0.875656,-0.00727364,-0.000886604,0.0978517,1,3.98085e-05,-1.51097e-05,1.29864e-05,0.00796169,-0.00302195,0.00259728,0.999287,-0.00378767,0.0375531,-1.7975e-05,0.0458307,-0.276059,-0.884107,34.3125,1,51258,5173065
3,1,0.999287,-0.00378767,0.0375531,-1.7975e-05,-0.727071,-0.0878624,9.7852,0.0938769,0.269284,0.875656,-0.00727364,-0.000886604,0.0978517,1,3.98085e-05,-1.51097e-05,1.29864e-05,0.00796169,-0.00302195,0.00259728,0.999287,-0.00378767,0.0375531,-1.7975e-05,0.0458307,-0.276059,-0.884107,34.3125,1,51258,5173065
3,2,0.999288,-0.00373829,0.0375401,9.8945e-06,-0.714954,-0.0797969,9.78213,0.111873,0.286667,0.870342,-0.00715202,-0.000807867,0.097821,1,4.84287e-05,-1.29436e-05,2.96553e-05,0.00968574,-0.00258871,0.00593106,0.999288,-0.00373829,0.0375401,9.8945e-06,0.0452883,-0.274565,-0.885587,34.3125,1,51259,5173165
3,3,0.999288,-0.00373829,0.0375401,9.8945e-06,-0.714954,-0.0797969,9.78213,0.111873,0.286667,0.870342,-0.00715202,-0.000807867,0.097821,1,4.84287e-05,-1.29436e-05,2.96553e-05,0.00968574,-0.00258871,0.00593106,0.999288,-0.00373829,0.0375401,9.8945e-06,0.0452883,-0.274565,-0.885587,34.3125,1,51259,5173165
3,4,0.999288,-0.00373829,0.0375401,9.8945e-06,-0.714954,-0.0797969,9.78213,0.111873,0.286667,0.870342,-0.00715202,-0.000807867,0.097821,1,4.84287e-05,-1.29436e-05,2.96553e-05,0.00968574,-0.00258871,0.00593106,0.999288,-0.00373829,0.0375401,9.8945e-06,0.0452883,-0.274565,-0.885587,34.3125,1,51259,5173165
3,5,0.999289,-0.00369854,0.0375261,2.31791e-05,-0.721836,-0.0680322,9.78398,0.0973503,0.293032,0.874607,-0.00722109,-0.000688187,0.0978395,1,3.91136e-05,-1.40743e-05,1.46293e-05,0.00782272,-0.00281486,0.00292586,0.999289,-0.00369854,0.0375261,2.31791e-05,0.0463042,-0.27413,-0.883057,34.3125,1,51260,5173265
3,6,0.999289,-0.00369854,0.0375261,2.31791e-05,-0.721836,-0.0680322,9.78398,0.0973503,0.293032,0.874607,-0.00722109,-0.000688187,0.0978395,1,3.91136e-05,-1.40743e-05,1.46293e-05,0.00782272,-0.00281486,0.00292586,0.999289,-0.00369854,0.0375261,2.31791e-05,0.0463042,-0.27413,-0.883057,34.3125,1,51260,5173265
3,7,0.999289,-0.00369854,0.0375261,2.31791e-05,-0.721836,-0.0680322,9.78398,0.0973503,0.293032,0.874607,-0.00722109,-0.000688187,0.0978395,1,3.91136e-05,-1.40743e-05,1.46293e-05,0.00782272,-0.00281486,0.00292586,0.999289,-0.00369854,0.0375261,2.31791e-05,0.0463042,-0.27413,-0.883057,34.3125,1,51260,5173265
3,8,0.999289,-0.00365897,0.0375185,3.26414e-05,-0.716307,-0.0788728,9.78893,0.106752,0.277409,0.88379,-0.0071645,-0.000796538,0.0978891,1,3.91044e-05,-7.42436e-06,1.07494e-05,0.00782088,-0.00148487,0.00214987,0.999289,-0.00365897,0.0375185,3.26414e-05,0.0453875,-0.273191,-0.880506,34.3125,1,51261,5173365
3,9,0.999289,-0.00365897,0.0375185,3.26414e-05,-0.716307,-0.0788728,9.78893,0.106752,0.277409,0.88379,-0.0071645,-0.000796538,0.0978891,1,3.91044e-05,-7.42436e-06,1.07494e-05,0.00782088,-0.00148487,0.00214987,0.999289,-0.00365897,0.0375185,3.26414e-05,0.0453875,-0.273191,-0.880506,34.3125,1,51261,5173365
3,10,0.999289,-0.00365897,0.0375185,3.26414e-05,-0.716307,-0.0788728,9.78893,0.106752,0.277409,0.88379,-0.0071645,-0.000796538,0.0978891,1,3.91044e-05,-7.42436e-06,1.07494e-05,0.00782088,-0.00148487,0.00214987,0.999289,-0.00365897,0.0375185,3.26414e-05,0.0453875,-0.273191,-0.880506,34.3125,1,51261,5173365
7,1,0.99929,-0.00360968,0.0375138,4.26841e-05,-0.708929,-0.0714271,9.77504,0.109686,0.285753,0.865027,-0.00709018,-0.000723945,0.0977503,1,4.86207e-05,-4.61765e-06,1.18778e-05,0.00972414,-0.000923531,0.00237555,0.99929,-0.00360968,0.0375138,4.26841e-05,0.0439361,-0.272692,-0.880489,34.3125,1,51262,5173465
7,2,0.99929,-0.00360968,0.0375138,4.26841e-05,-0.708929,-0.0714271,9.77504,0.109686,0.285753,0.865027,-0.00709018,-0.000723945,0.0977503,1,4.86207e-05,-4.61765e-06,1.18778e-05,0.00972414,-0.000923531,0.00237555,0.99929,-0.00360968,0.0375138,4.26841e-05,0.0439361,-0.272692,-0.880489,34.3125,1,51262,5173465
7,3,0.99929,-0.00360968,0.0375138,4.26841e-05,-0.708929,-0.0714271,9.77504,0.109686,0.285753,0.865027,-0.00709018,-0.000723945,0.0977503,1,4.86207e-05,-4.61765e-06,1.18778e-05,0.00972414,-0.000923531,0.00237555,0.99929,-0.00360968,0.0375138,4.26841e-05,0.0439361,-0.272692,-0.880489,34.3125,1,51262,5173465
7,4,0.99929,-0.00356621,0.0375016,5.48824e-05,-0.730476,-0.0827027,9.78392,0.0888004,0.270648,0.871766,-0.00730708,-0.000835599,0.0978389,1,4.27757e-05,-1.20083e-05,1.38113e-05,0.00855515,-0.00240167,0.00276226,0.99929,-0.00356621,0.0375016,5.48824e-05,0.0438654,-0.275049,-0.885086,34.3125,1,51263,5173565
7,5,0.99929,-0.00356621,0.0375016,5.48824e-05,-0.730476,-0.0827027,9.78392,0.0888004,0.270648,0.871766,-0.00730708,-0.000835599,0.0978389,1,4.27757e-05,-1.20083e-05,1.38113e-05,0.00855515,-0.00240167,0.00276226,0.99929,-0.00356621,0.0375016,5.48824e-05,0.0438654,-0.275049,-0.885086,34.3125,1,51263,5173565
7,6,0.99929,-0.00356621,0.0375016,5.48824e-05,-0.730476,-0.0827027,9.78392,0.0888004,0.270648,0.871766,-0.00730708,-0.000835599,0.0978389,1,4.27757e-05,-1.20083e-05,1.38113e-05,0.00855515,-0.00240167,0.00276226,0.99929,-0.00356621,0.0375016,5.48824e-05,0.0438654,-0.275049,-0.885086,34.3125,1,51263,5173565
7,7,0.999291,-0.00351089,0.0374791,7.04001e-05,-0.728068,-0.0733077,9.78364,0.095365,0.28331,0.870538,-0.00728503,-0.000744078,0.097836,1,5.49108e-05,-2.23835e-05,1.75533e-05,0.0109822,-0.00447669,0.00351066,0.999291,-0.00351089,0.0374791,7.04001e-05,0.0452632,-0.275992,-0.887639,34.3125,1,51264,5173665
7,8,0.999291,-0.00351089,0.0374791,7.04001e-05,-0.728068,-0.0733077,9.78364,0.095365,0.28331,0.870538,-0.00728503,-0.000744078,0.097836,1,5.49108e-05,-2.23835e-05,1.75533e-05,0.0109822,-0.00447669,0.00351066,0.999291,-0.00351089,0.0374791,7.04001e-05,0.0452632,-0.275992,-0.887639,34.3125,1,51264,5173665
7,9,0.999291,-0.00351089,0.0374791,7.04001e-05,-0.728068,-0.0733077,9.78364,0.095365,0.28331,0.870538,-0.00728503,-0.000744078,0.097836,1,5.49108e-05,-2.23835e-05,1.75533e-05,0.0109822,-0.00447669,0.00351066,0.999291,-0.00351089,0.0374791,7.04001e-05,0.0452632,-0.275992,-0.887639,34.3125,1,51264,5173665
7,10,0.999292,-0.00347367,0.0374665,8.63598e-05,-0.718768,-0.0710406,9.78325,0.104236,0.283331,0.876557,-0.00719006,-0.000717889,0.0978322,1,3.69661e-05,-1.23157e-05,1.73507e-05,0.00739321,-0.00246314,0.00347014,0.999292,-0.00347367,0.0374665,8.63598e-05,0.0457372,-0.272617,-0.885546,34.3125,1,51265,5173765
8,1,0.999292,-0.00347367,0.0374665,8.63598e-05,-0.718768,-0.0710406,9.78325,0.104236,0.283331,0.876557,-0.00719006,-0.000717889,0.0978322,1,3.69661e-05,-1.23157e-05,1.73507e-05,0.00739321,-0.00246314,0.00347014,0.999292,-0.00347367,0.0374665,8.63598e-05,0.0457372,-0.272617,-0.885546,34.3125,1,51265,5173765
8,2,0.999292,-0.00347367,0.0374665,8.63598e-05,-0.718768,-0.0710406,9.78325,0.104236,0.283331,0.876557,-0.00719006,-0.000717889,0.0978322,1,3.69661e-05,-1.23157e-05,1.73507e-05,0.00739321,-0.00246314,0.00347014,0.999292,-0.00347367,0.0374665,8.63598e-05,0.0457372,-0.272617,-0.885546,34.3125,1,51265,5173765
8,3,0.999292,-0.00342288,0.0374598,9.9004e-05,-0.712622,-0.07771,9.78315,0.110982,0.276994,0.875468,-0.0071274,-0.000787192,0.0978313,1,5.05336e-05,-6.14293e-06,1.43163e-05,0.0101067,-0.00122859,0.00286326,0.999292,-0.00342288,0.0374598,9.9004e-05,0.0462596,-0.27217,-0.883518,34.3125,1,51266,5173865
8,4,0.999292,-0.00342288,0.0374598,9.9004e-05,-0.712622,-0.07771,9.78315,0.110982,0.276994,0.875468,-0.0071274,-0.000787192,0.0978313,1,5.05336e-05,-6.14293e-06,1.43163e-05,0.0101067,-0.00122859,0.00286326,0.999292,-0.00342288,0.0374598,9.9004e-05,0.0462596,-0.27217,-0.883518,34.3125,1,51266,5173865
8,5,0.999292,-0.00342288,0.0374598,9.9004e-05,-0.712622,-0.07771,9.78315,0.110982,0.276994,0.875468,-0.0071274,-0.000787192,0.0978313,1,5.05336e-05,-6.14293e-06,1.43163e-05,0.0101067,-0.00122859,0.00286326,0.999292,-0.00342288,0.0374598,9.9004e-05,0.0462596,-0.27217,-0.883518,34.3125,1,51266,5173865
8,6,0.999293,-0.00338145,0.0374498,0.000122035,-0.718454,-0.0661796,9.78295,0.10066,0.282015,0.874608,-0.00718642,-0.000670127,0.0978293,1,4.07752e-05,-9.73605e-06,2.45459e-05,0.00815503,-0.00194721,0.00490919,0.999293,-0.00338145,0.0374498,0.000122035,0.046317,-0.272694,-0.88151,34.3125,1,51267,5173965
8,7,0.999293,-0.00338145,0.0374498,0.000122035,-0.718454,-0.0661796,9.78295,0.10066,0.282015,0.874608,-0.00718642,-0.000670127,0.0978293,1,4.07752e-05,-9.73605e-06,2.45459e-05,0.00815503,-0.00194721,0.00490919,0.999293,-0.00338145,0.0374498,0.000122035,0.046317,-0.272694,-0.88151,34.3125,1,51267,5173965
8,8,0.999293,-0.00338145,0.0374498,0.000122035,-0.718454,-0.0661796,9.78295,0.10066,0.282015,0.874608,-0.00718642,-0.000670127,0.0978293,1,4.07752e-05,-9.73605e-06,2.45459e-05,0.00815503,-0.00194721,0.00490919,0.999293,-0.00338145,0.0374498,0.000122035,0.046317,-0.272694,-0.88151,34.3125,1,51267,5173965
8,9,0.999293,-0.00333386,0.0374432,0.000134283,-0.727925,-0.074107,9.78634,0.0925972,0.273186,0.875862,-0.00728046,-0.000750507,0.0978632,1,4.71696e-05,-6.24735e-06,1.40108e-05,0.00943393,-0.00124947,0.00280216,0.999293,-0.00333386,0.0374432,0.000134283,0.0458316,-0.273168,-0.882023,34.3125,1,51268,5174065
8,10,0.999293,-0.00333386,0.0374432,0.000134283,-0.727925,-0.074107,9.78634,0.0925972,0.273186,0.875862,-0.00728046,-0.000750507,0.0978632,1,4.71696e-05,-6.24735e-06,1.40108e-05,0.00943393,-0.00124947,0.00280216,0.999293,-0.00333386,0.0374432,0.000134283,0.0458316,-0.273168,-0.882023,34.3125,1,51268,5174065
9,1,0.999293,-0.00333386,0.0374432,0.000134283,-0.727925,-0.074107,9.78634,0.0925972,0.273186,0.875862,-0.00728046,-0.000750507,0.0978632,1,4.71696e-05,-6.24735e-06,1.40108e-05,0.00943393,-0.00124947,0.00280216,0.999293,-0.00333386,0.0374432,0.000134283,0.0458316,-0.273168,-0.882023,34.3125,1,51268,5174065
9,2,0.999294,-0.00328923,0.0374398,0.000132429,-0.715206,-0.0802223,9.79536,0.105278,0.268517,0.88393,-0.00715268,-0.000810962,0.0979535,1,4.46178e-05,-3.13851e-06,-1.30626e-07,0.00892356,-0.000627702,-2.61252e-05,0.999294,-0.00328923,0.0374398,0.000132429,0.0438739,-0.274092,-0.884055,34.3125,1,51269,5174165
9,3,0.999294,-0.00328923,0.0374398,0.000132429,-0.715206,-0.0802223,9.79536,0.105278,0.268517,0.88393,-0.00715268,-0.000810962,0.0979535,1,4.46178e-05,-3.13851e-06,-1.30626e-07,0.00892356,-0.000627702,-2.61252e-05,0.999294,-0.00328923,0.0374398,0.000132429,0.0438739,-0.274092,-0.884055,34.3125,1,51269,5174165
9,4,0.999294,-0.00328923,0.0374398,0.000132429,-0.715206,-0.0802223,9.79536,0.105278,0.268517,0.88393,-0.00715268,-0.000810962,0.0979535,1,4.46178e-05,-3.13851e-06,-1.30626e-07,0.00892356,-0.000627702,-2.61252e-05,0.999294,-0.00328923,0.0374398,0.000132429,0.0438739,-0.274092,-0.884055,34.3125,1,51269,5174165
9,5,0.999294,-0.00326365,0.0374312,0.000144404,-0.708487,-0.0812927,9.77869,0.114767,0.266156,0.866214,-0.00708643,-0.000818015,0.0977867,1,2.50917e-05,-8.08383e-06,1.2746e-05,0.00501835,-0.00161677,0.0025492,0.999294,-0.00326365,0.0374312,0.000144404,0.0443299,-0.275523,-0.886109,34.3125,1,51270,5174265
9,6,0.999294,-0.00326365,0.0374312,0.000144404,-0.708487,-0.0812927,9.77869,0.114767,0.266156,0.866214,-0.00708643,-0.000818015,0.0977867,1,2.50917e-05,-8.08383e-06,1.2746e-05,0.00501835,-0.00161677,0.0025492,0.999294,-0.00326365,0.0374312,0.000144404,0.0443299,-0.275523,-0.886109,34.3125,1,51270,5174265
9,7,0.999294,-0.00326365,0.0374312,0.000144404,-0.708487,-0.0812927,9.77869,0.114767,0.266156,0.866214,-0.00708643,-0.000818015,0.0977867,1,2.50917e-05,-8.08383e-06,1.2746e-05,0.00501835,-0.00161677,0.0025492,0.999294,-0.00326365,0.0374312,0.000144404,0.0443299,-0.275523,-0.886109,34.3125,1,51270,5174265
9,8,0.999295,-0.00323047,0.0374075,0.000164351,-0.70493,-0.0822719,9.78612,0.116184,0.270943,0.878773,-0.00705382,-0.000829499,0.0978608,1,3.31066e-05,-2.32887e-05,2.12789e-05,0.00662133,-0.00465774,0.00425577,0.999295,-0.00323047,0.0374075,0.000164351,0.0462055,-0.274058,-0.887095,34.3125,1,51271,5174365
9,9,0.999295,-0.00323047,0.0374075,0.000164351,-0.70493,-0.0822719,9.78612,0.116184,0.270943,0.878773,-0.00705382,-0.000829499,0.0978608,1,3.31066e-05,-2.32887e-05,2.12789e-05,0.00662133,-0.00465774,0.00425577,0.999295,-0.00323047,0.0374075,0.000164351,0.0462055,-0.274058,-0.887095,34.3125,1,51271,5174365
9,10,0.999295,-0.00323047,0.0374075,0.000164351,-0.70493,-0.0822719,9.78612,0.116184,0.270943,0.878773,-0.00705382,-0.000829499,0.0978608,1,3.31066e-05,-2.32887e-05,2.12789e-05,0.00662133,-0.00465774,0.00425577,0.999295,-0.00323047,0.0374075,0.000164351,0.0462055,-0.274058,-0.887095,34.3125,1,51271,5174365
10,1,0.999295,-0.00318783,0.0374002,0.000191429,-0.729441,-0.0869037,9.79371,0.0931092,0.259854,0.885737,-0.00729571,-0.000877634,0.0979369,1,4.17401e-05,-6.92149e-06,2.88281e-05,0.00834802,-0.0013843,0.00576561,0.999295,-0.00318783,0.0374002,0.000191429,0.0467241,-0.272644,-0.884541,34.3125,1,51272,5174465
10,2,0.999295,-0.00318783,0.0374002,0.000191429,-0.729441,-0.0869037,9.79371,0.0931092,0.259854,0.885737,-0.00729571,-0.000877634,0.0979369,1,4.17401e-05,-6.92149e-06,2.88281e-05,0.00834802,-0.0013843,0.00576561,0.999295,-0.00318783,0.0374002,0.000191429,0.0467241,-0.272644,-0.884541,34.3125,1,51272,5174465
10,3,0.999295,-0.00318783,0.0374002,0.000191429,-0.729441,-0.0869037,9.79371,0.0931092,0.259854,0.885737,-0.00729571,-0.000877634,0.0979369,1,4.17401e-05,-6.92149e-06,2.88281e-05,0.00834802,-0.0013843,0.00576561,0.999295,-0.00318783,0.0374002,0.000191429,0.0467241,-0.272644,-0.884541,34.3125,1,51272,5174465
10,4,0.999296,-0.00314937,0.0373813,0.000222963,-0.718125,-0.0837285,9.79434,0.0993787,0.2642,0.885638,-0.00718479,-0.000845076,0.0979431,1,3.73572e-05,-1.83696e-05,3.29222e-05,0.00747144,-0.00367392,0.00658443,0.999296,-0.00314937,0.0373813,0.000222963,0.0448779,-0.272203,-0.880987,34.3125,1,51273,5174565
10,5,0.999296,-0.00314937,0.0373813,0.000222963,-0.718125,-0.0837285,9.79434,0.0993787,0.2642,0.885638,-0.00718479,-0.000845076,0.0979431,1,3.73572e-05,-1.83696e-05,3.29222e-05,0.00747144,-0.00367392,0.00658443,0.999296,-0.00314937,0.0373813,0.000222963,0.0448779,-0.272203,-0.880987,34.3125,1,51273,5174565
10,6,0.999296,-0.00314937,0.0373813,0.000222963,-0.718125,-0.0837285,9.79434,0.0993787,0.2642,0.885638,-0.00718479,-0.000845076,0.0979431,1,3.73572e-05,-1.83696e-05,3.29222e-05,0.00747144,-0.00367392,0.00658443,0.999296,-0.00314937,0.0373813,0.000222963,0.0448779,-0.272203,-0.880987,34.3125,1,51273,5174565
10,7,0.999296,-0.0031024,0.0373799,0.000230517,-0.722795,-0.0830138,9.78859,0.0932684,0.261279,0.882274,-0.00722809,-0.000839506,0.0978858,1,4.71529e-05,-8.04614e-07,9.4697e-06,0.00943057,-0.000160923,0.00189394,0.999296,-0.0031024,0.0373799,0.000230517,0.0453794,-0.272704,-0.880495,34.3125,1,51274,5174665
10,8,0.999296,-0.0031024,0.0373799,0.000230517,-0.722795,-0.0830138,9.78859,0.0932684,0.261279,0.882274,-0.00722809,-0.000839506,0.0978858,1,4.71529e-05,-8.04614e-07,9.4697e-06,0.00943057,-0.000160923,0.00189394,0.999296,-0.0031024,0.0373799,0.000230517,0.0453794,-0.272704,-0.880495,34.3125,1,51274,5174665
10,9,0.999296,-0.0031024,0.0373799,0.000230517,-0.722795,-0.0830138,9.78859,0.0932684,0.261279,0.882274,-0.00722809,-0.000839506,0.0978858,1,4.71529e-05,-8.04614e-07,9.4697e-06,0.00943057,-0.000160923,0.00189394,0.999296,-0.0031024,0.0373799,0.000230517,0.0453794,-0.272704,-0.880495,34.3125,1,51274,5174665
10,10,0.999297,-0.00305799,0.0373648,0.000245847,-0.725115,-0.0747688,9.78191,0.0982392,0.268681,0.866452,-0.00725396,-0.000756494,0.0978188,1,4.37573e-05,-1.45325e-05,1.69034e-05,0.00875146,-0.00290649,0.00338067,0.999297,-0.00305799,0.0373648,0.000245847,0.0438863,-0.274101,-0.88355,34.3125,1,51275,5174765
11,1,0.999297,-0.00305799,0.0373648,0.000245847,-0.725115,-0.0747688,9.78191,0.0982392,0.268681,0.866452,-0.00725396,-0.000756494,0.0978188,1,4.37573e-05,-1.45325e-05,1.69034e-05,0.00875146,-0.00290649,0.00338067,0.999297,-0.00305799,0.0373648,0.000245847,0.0438863,-0.274101,-0.88355,34.3125,1,51275,5174765
11,2,0.999297,-0.00305799,0.0373648,0.000245847,-0.725115,-0.0747688,9.78191,0.0982392,0.268681,0.866452,-0.00725396,-0.000756494,0.0978188,1,4.37573e-05,-1.45325e-05,1.69034e-05,0.00875146,-0.00290649,0.00338067,0.999297,-0.00305799,0.0373648,0.000245847,0.0438863,-0.274101,-0.88355,34.3125,1,51275,5174765
11,3,0.999298,-0.00300916,0.0373517,0.000252761,-0.725202,-0.0791982,9.7856,0.0936419,0.261994,0.873616,-0.00725444,-0.000801724,0.0978557,1,4.91142e-05,-1.24367e-05,8.89083e-06,0.00982283,-0.00248735,0.00177817,0.999298,-0.00300916,0.0373517,0.000252761,0.0438611,-0.275528,-0.885602,34.3125,1,51276,5174865
11,4,0.999298,-0.00300916,0.0373517,0.000252761,-0.725202,-0.0791982,9.7856,0.0936419,0.261994,0.873616,-0.00725444,-0.000801724,0.0978557,1,4.91142e-05,-1.24367e-05,8.89083e-06,0.00982283,-0.00248735,0.00177817,0.999298,-0.00300916,0.0373517,0.000252761,0.0438611,-0.275528,-0.885602,34.3125,1,51276,5174865
11,5,0.999298,-0.00300916,0.0373517,0.000252761,-0.725202,-0.0791982,9.7856,0.0936419,0.261994,0.873616,-0.00725444,-0.000801724,0.0978557,1,4.91142e-05,-1.24367e-05,8.89083e-06,0.00982283,-0.00248735,0.00177817,0.999298,-0.00300916,0.0373517,0.000252761,0.0438611,-0.275528,-0.885602,34.3125,1,51276,5174865
11,6,0.999298,-0.00296878,0.0373518,0.000264016,-0.714975,-0.0842844,9.77938,0.103794,0.260217,0.869256,-0.0071496,-0.000850946,0.0977937,1,4.04716e-05,6.63154e-07,1.29992e-05,0.00809432,0.000132631,0.00259983,0.999298,-0.00296878,0.0373518,0.000264016,0.0462382,-0.274564,-0.886096,34.3125,1,51277,5174965
11,7,0.999298,-0.00296878,0.0373518,0.000264016,-0.714975,-0.0842844,9.77938,0.103794,0.260217,0.869256,-0.0071496,-0.000850946,0.0977937,1,4.04716e-05,6.63154e-07,1.29992e-05,0.00809432,0.000132631,0.00259983,0.999298,-0.00296878,0.0373518,0.000264016,0.0462382,-0.274564,-0.886096,34.3125,1,51277,5174965
11,8,0.999298,-0.00296878,0.0373518,0.000264016,-0.714975,-0.0842844,9.77938,0.103794,0.260217,0.869256,-0.0071496,-0.000850946,0.0977937,1,4.04716e-05,6.63154e-07,1.29992e-05,0.00809432,0.000132631,0.00259983,0.999298,-0.00296878,0.0373518,0.000264016,0.0462382,-0.274564,-0.886096,34.3125,1,51277,5174965
11,9,0.999298,-0.00292406,0.0373598,0.000270812,-0.722705,-0.0727235,9.78325,0.0944887,0.273461,0.873059,-0.00722533,-0.000736155,0.0978325,1,4.49568e-05,8.73398e-06,8.55713e-06,0.00899135,0.0017468,0.00171143,0.999298,-0.00292406,0.0373598,0.000270812,0.0458112,-0.272672,-0.882517,34.3125,1,51278,5175065
11,10,0.999298,-0.00292406,0.0373598,0.000270812,-0.722705,-0.0727235,9.78325,0.0944887,0.273461,0.873059,-0.00722533,-0.000736155,0.0978325,1,4.49568e-05,8.73398e-06,8.55713e-06,0.00899135,0.0017468,0.00171143,0.999298,-0.00292406,0.0373598,0.000270812,0.0458112,-0.272672,-0.882517,34.3125,1,51278,5175065
12,1,0.999298,-0.00292406,0.0373598,0.000270812,-0.722705,-0.0727235,9.78325,0.0944887,0.273461,0.873059,-0.00722533,-0.000736155,0.0978325,1,4.49568e-05,8.73398e-06,8.55713e-06,0.00899135,0.0017468,0.00171143,0.999298,-0.00292406,0.0373598,0.000270812,0.0458112,-0.272672,-0.882517,34.3125,1,51278,5175065
12,2,0.999298,-0.00287555,0.0373443,0.000273034,-0.709487,-0.0707994,9.78489,0.109522,0.273185,0.877692,-0.00709773,-0.000717671,0.0978487,1,4.91385e-05,-1.46887e-05,4.26539e-06,0.0098277,-0.00293775,0.000853078,0.999298,-0.00287555,0.0373443,0.000273034,0.0444214,-0.272217,-0.879975,34.3125,1,51279,5175165
12,3,0.999298,-0.00287555,0.0373443,0.000273034,-0.709487,-0.0707994,9.78489,0.109522,0.273185,0.877692,-0.00709773,-0.000717671,0.0978487,1,4.91385e-05,-1.46887e-05,4.26539e-06,0.0098277,-0.00293775,0.000853078,0.999298,-0.00287555,0.0373443,0.000273034,0.0444214,-0.272217,-0.879975,34.3125,1,51279,5175165
12,4,0.999298,-0.00287555,0.0373443,0.000273034,-0.709487,-0.0707994,9.78489,0.109522,0.273185,0.877692,-0.00709773,-0.000717671,0.0978487,1,4.91385e-05,-1.46887e-05,4.26539e-06,0.0098277,-0.00293775,0.000853078,0.999298,-0.00287555,0.0373443,0.000273034,0.0444214,-0.272217,-0.879975,34.3125,1,51279,5175165
12,5,0.999299,-0.00284196,0.0373316,0.000287526,-0.715636,-0.0758968,9.78794,0.10135,0.262507,0.878507,-0.00715867,-0.000765786,0.0978791,1,3.36617e-05,-1.19339e-05,1.59649e-05,0.00673234,-0.00238678,0.00319297,0.999299,-0.00284196,0.0373316,0.000287526,0.0444291,-0.27415,-0.881028,34.3125,1,51280,5175265
12,6,0.999299,-0.00284196,0.0373316,0.000287526,-0.715636,-0.0758968,9.78794,0.10135,0.262507,0.878507,-0.00715867,-0.000765786,0.0978791,1,3.36617e-05,-1.19339e-05,1.59649e-05,0.00673234,-0.00238678,0.00319297,0.999299,-0.00284196,0.0373316,0.000287526,0.0444291,-0.27415,-0.881028,34.3125,1,51280,5175265
12,7,0.999299,-0.00284196,0.0373316,0.000287526,-0.715636,-0.0758968,9.78794,0.10135,0.262507,0.878507,-0.00715867,-0.000765786,0.0978791,1,3.36617e-05,-1.19339e-05,1.59649e-05,0.00673234,-0.00238678,0.00319297,0.999299,-0.00284196,0.0373316,0.000287526,0.0444291,-0.27415,-0.881028,34.3125,1,51280,5175265
12,8,0.999299,-0.00280314,0.0373282,0.000307918,-0.723516,-0.0738277,9.78665,0.0973512,0.260867,0.87203,-0.00723564,-0.000746197,0.0978664,1,3.8825e-05,-2.61326e-06,2.21468e-05,0.007765,-0.000522652,0.00442936,0.999299,-0.00280314,0.0373282,0.000307918,0.0443427,-0.274087,-0.884562,34.3125,1,51281,5175365
12,9,0.999299,-0.00280314,0.0373282,0.000307918,-0.723516,-0.0738277,9.78665,0.0973512,0.260867,0.87203,-0.00723564,-0.000746197,0.0978664,1,3.8825e-05,-2.61326e-06,2.21468e-05,0.007765,-0.000522652,0.00442936,0.999299,-0.00280314,0.0373282,0.000307918,0.0443427,-0.274087,-0.884562,34.3125,1,51281,5175365
12,10,0.999299,-0.00280314,0.0373282,0.000307918,-0.723516,-0.0738277,9.78665,0.0973512,0.260867,0.87203,-0.00723564,-0.000746197,0.0978664,1,3.8825e-05,-2.61326e-06,2.21468e-05,0.007765,-0.000522652,0.00442936,0.999299,-0.00280314,0.0373282,0.000307918,0.0443427,-0.274087,-0.884562,34.3125,1,51281,5175365
12,11,0.999299,-0.00275908,0.0373286,0.000320717,-0.721525,-0.0740669,9.78324,0.0987738,0.261634,0.873449,-0.00721495,-0.000749522,0.0978324,1,4.41559e-05,1.41404e-06,1.47911e-05,0.00883118,0.000282808,0.00295822,0.999299,-0.00275908,0.0373286,0.000320717,0.0462259,-0.274555,-0.886601,34.3125,1,51282,5175465
12,12,0.999299,-0.00275908,0.0373286,0.000320717,-0.721525,-0.0740669,9.78324,0.0987738,0.261634,0.873449,-0.00721495,-0.000749522,0.0978324,1,4.41559e-05,1.41404e-06,1.47911e-05,0.00883118,0.000282808,0.00295822,0.999299,-0.00275908,0.0373286,0.000320717,0.0462259,-0.274555,-0.886601,34.3125,1,51282,5175465
10,1,0.999299,-0.00275908,0.0373286,0.000320717,-0.721525,-0.0740669,9.78324,0.0987738,0.261634,0.873449,-0.00721495,-0.000749522,0.0978324,1,4.41559e-05,1.41404e-06,1.47911e-05,0.00883118,0.000282808,0.00295822,0.999299,-0.00275908,0.0373286,0.000320717,0.0462259,-0.274555,-0.886601,34.3125,1,51282,5175465
10,2,0.9993,-0.00271147,0.037317,0.000321063,-0.727176,-0.0750974,9.78734,0.0927494,0.262441,0.87751,-0.00727385,-0.000760527,0.0978732,1,4.86281e-05,-1.07157e-05,2.35436e-06,0.00972562,-0.00214313,0.000470872,0.9993,-0.00271147,0.037317,0.000321063,0.0462183,-0.272621,-0.885548,34.3125,1,51283,5175565
10,3,0.9993,-0.00271147,0.037317,0.000321063,-0.727176,-0.0750974,9.78734,0.0927494,0.262441,0.87751,-0.00727385,-0.000760527,0.0978732,1,4.86281e-05,-1.07157e-05,2.35436e-06,0.00972562,-0.00214313,0.000470872,0.9993,-0.00271147,0.037317,0.000321063,0.0462183,-0.272621,-0.885548,34.3125,1,51283,5175565
10,4,0.9993,-0.00271147,0.037317,0.000321063,-0.727176,-0.0750974,9.78734,0.0927494,0.262441,0.87751,-0.00727385,-0.000760527,0.0978732,1,4.86281e-05,-1.07157e-05,2.35436e-06,0.00972562,-0.00214313,0.000470872,0.9993,-0.00271147,0.037317,0.000321063,0.0462183,-0.272621,-0.885548,34.3125,1,51283,5175565
10,5,0.999301,-0.00266423,0.0373017,0.00033453,-0.719975,-0.0737599,9.79105,0.0963571,0.257753,0.885994,-0.00720248,-0.000747151,0.0979102,1,4.76465e-05,-1.40852e-05,1.54133e-05,0.00952931,-0.00281705,0.00308265,0.999301,-0.00266423,0.0373017,0.00033453,0.0462477,-0.270715,-0.882981,34.3125,1,51284,5175665
10,6,0.999301,-0.00266423,0.0373017,0.00033453,-0.719975,-0.0737599,9.79105,0.0963571,0.257753,0.885994,-0.00720248,-0.000747151,0.0979102,1,4.76465e-05,-1.40852e-05,1.54133e-05,0.00952931,-0.00281705,0.00308265,0.999301,-0.00266423,0.0373017,0.00033453,0.0462477,-0.270715,-0.882981,34.3125,1,51284,5175665
10,7,0.999301,-0.00266423,0.0373017,0.00033453,-0.719975,-0.0737599,9.79105,0.0963571,0.257753,0.885994,-0.00720248,-0.000747151,0.0979102,1,4.76465e-05,-1.40852e-05,1.54133e-05,0.00952931,-0.00281705,0.00308265,0.999301,-0.00266423,0.0373017,0.00033453,0.0462477,-0.270715,-0.882981,34.3125,1,51284,5175665
10,8,0.999301,-0.00263326,0.0372938,0.000347342,-0.719945,-0.0817466,9.78691,0.0961834,0.25339,0.878171,-0.00720079,-0.000823975,0.0978689,1,3.21997e-05,-6.91784e-06,1.43644e-05,0.00643994,-0.00138357,0.00287289,0.999301,-0.00263326,0.0372938,0.000347342,0.0453144,-0.270247,-0.881451,34.3125,1,51285,5175765
10,9,0.999301,-0.00263326,0.0372938,0.000347342,-0.719945,-0.0817466,9.78691,0.0961834,0.25339,0.878171,-0.00720079,-0.000823975,0.0978689,1,3.21997e-05,-6.91784e-06,1.43644e-05,0.00643994,-0.00138357,0.00287289,0.999301,-0.00263326,0.0372938,0.000347342,0.0453144,-0.270247,-0.881451,34.3125,1,51285,5175765
10,10,0.999301,-0.00263326,0.0372938,0.000347342,-0.719945,-0.0817466,9.78691,0.0961834,0.25339,0.878171,-0.00720079,-0.000823975,0.0978689,1,3.21997e-05,-6.91784e-06,1.43644e-05,0.00643994,-0.00138357,0.00287289,0.999301,-0.00263326,0.0372938,0.000347342,0.0453144,-0.270247,-0.881451,34.3125,1,51285,5175765
14,1,0.999301,-0.00259745,0.0372881,0.000367431,-0.724034,-0.0830811,9.78726,0.0919808,0.24039,0.876962,-0.00724122,-0.000838241,0.0978725,1,3.63385e-05,-4.66573e-06,2.18951e-05,0.00726771,-0.000933145,0.00437902,0.999301,-0.00259745,0.0372881,0.000367431,0.0448736,-0.272682,-0.881503,34.3125,1,51286,5175865
14,2,0.999301,-0.00259745,0.0372881,0.000367431,-0.724034,-0.0830811,9.78726,0.0919808,0.24039,0.876962,-0.00724122,-0.000838241,0.0978725,1,3.63385e-05,-4.66573e-06,2.18951e-05,0.00726771,-0.000933145,0.00437902,0.999301,-0.00259745,0.0372881,0.000367431,0.0448736,-0.272682,-0.881503,34.3125,1,51286,5175865
14,3,0.999301,-0.00259745,0.0372881,0.000367431,-0.724034,-0.0830811,9.78726,0.0919808,0.24039,0.876962,-0.00724122,-0.000838241,0.0978725,1,3.63385e-05,-4.66573e-06,2.18951e-05,0.00726771,-0.000933145,0.00437902,0.999301,-0.00259745,0.0372881,0.000367431,0.0448736,-0.272682,-0.881503,34.3125,1,51286,5175865
14,4,0.999302,-0.00255086,0.0372797,0.000376662,-0.729594,-0.0737536,9.77889,0.087177,0.258933,0.868339,-0.00729741,-0.000746989,0.0977887,1,4.74659e-05,-7.60511e-06,1.16114e-05,0.00949317,-0.00152102,0.00232228,0.999302,-0.00255086,0.0372797,0.000376662,0.0443465,-0.275053,-0.885088,34.3125,1,51287,5175965
14,5,0.999302,-0.00255086,0.0372797,0.000376662,-0.729594,-0.0737536,9.77889,0.087177,0.258933,0.868339,-0.00729741,-0.000746989,0.0977887,1,4.74659e-05,-7.60511e-06,1.16114e-05,0.00949317,-0.00152102,0.00232228,0.999302,-0.00255086,0.0372797,0.000376662,0.0443465,-0.275053,-0.885088,34.3125,1,51287,5175965
14,6,0.999302,-0.00255086,0.0372797,0.000376662,-0.729594,-0.0737536,9.77889,0.087177,0.258933,0.868339,-0.00729741,-0.000746989,0.0977887,1,4.74659e-05,-7.60511e-06,1.16114e-05,0.00949317,-0.00152102,0.00232228,0.999302,-0.00255086,0.0372797,0.000376662,0.0443465,-0.275053,-0.885088,34.3125,1,51287,5175965
14,7,0.999302,-0.00250171,0.0372659,0.000384511,-0.728486,-0.0843299,9.77914,0.0895746,0.247012,0.870452,-0.00728732,-0.000853342,0.0977911,1,5.05951e-05,-1.26808e-05,1.01103e-05,0.010119,-0.00253617,0.00202206,0.999302,-0.00250171,0.0372659,0.000384511,0.0447863,-0.275509,-0.887121,34.3125,1,51288,5176065
14,8,0.999302,-0.00250171,0.0372659,0.000384511,-0.728486,-0.0843299,9.77914,0.0895746,0.247012,0.870452,-0.00728732,-0.000853342,0.0977911,1,5.05951e-05,-1.26808e-05,1.01103e-05,0.010119,-0.00253617,0.00202206,0.999302,-0.00250171,0.0372659,0.000384511,0.0447863,-0.275509,-0.887121,34.3125,1,51288,5176065
14,9,0.999302,-0.00250171,0.0372659,0.000384511,-0.728486,-0.0843299,9.77914,0.0895746,0.247012,0.870452,-0.00728732,-0.000853342,0.0977911,1,5.05951e-05,-1.26808e-05,1.01103e-05,0.010119,-0.00253617,0.00202206,0.999302,-0.00250171,0.0372659,0.000384511,0.0447863,-0.275509,-0.887121,34.3125,1,51288,5176065
14,10,0.999303,-0.002463,0.0372413,0.000404576,-0.717465,-0.0908808,9.78511,0.100626,0.241996,0.881038,-0.00717922,-0.000916824,0.0978507,1,3.93557e-05,-2.35626e-05,2.19253e-05,0.00787114,-0.00471252,0.00438506,0.999303,-0.002463,0.0372413,0.000404576,0.0462263,-0.273109,-0.885559,34.3125,1,51289,5176165
15,1,0.999303,-0.002463,0.0372413,0.000404576,-0.717465,-0.0908808,9.78511,0.100626,0.241996,0.881038,-0.00717922,-0.000916824,0.0978507,1,3.93557e-05,-2.35626e-05,2.19253e-05,0.00787114,-0.00471252,0.00438506,0.999303,-0.002463,0.0372413,0.000404576,0.0462263,-0.273109,-0.885559,34.3125,1,51289,5176165
15,2,0.999303,-0.002463,0.0372413,0.000404576,-0.717465,-0.0908808,9.78511,0.100626,0.241996,0.881038,-0.00717922,-0.000916824,0.0978507,1,3.93557e-05,-2.35626e-05,2.19253e-05,0.00787114,-0.00471252,0.00438506,0.999303,-0.002463,0.0372413,0.000404576,0.0462263,-0.273109,-0.885559,34.3125,1,51289,5176165
15,3,0.999303,-0.00241504,0.0372355,0.00042851,-0.725526,-0.0792314,9.78967,0.0898407,0.248945,0.88461,-0.00725615,-0.000802311,0.0978965,1,4.91197e-05,-4.74951e-06,2.61927e-05,0.00982395,-0.000949902,0.00523854,0.999303,-0.00241504,0.0372355,0.00042851,0.0462676,-0.272658,-0.883529,34.3125,1,51290,5176265
15,4,0.999303,-0.00241504,0.0372355,0.00042851,-0.725526,-0.0792314,9.78967,0.0898407,0.248945,0.88461,-0.00725615,-0.000802311,0.0978965,1,4.91197e-05,-4.74951e-06,2.61927e-05,0.00982395,-0.000949902,0.00523854,0.999303,-0.00241504,0.0372355,0.00042851,0.0462676,-0.272658,-0.883529,34.3125,1,51290,5176265
15,5,0.999303,-0.00241504,0.0372355,0.00042851,-0.725526,-0.0792314,9.78967,0.0898407,0.248945,0.88461,-0.00725615,-0.000802311,0.0978965,1,4.91197e-05,-4.74951e-06,2.61927e-05,0.00982395,-0.000949902,0.00523854,0.999303,-0.00241504,0.0372355,0.00042851,0.0462676,-0.272658,-0.883529,34.3125,1,51290,5176265
15,6,0.999304,-0.00236816,0.0372188,0.000448338,-0.721337,-0.0798206,9.78388,0.090631,0.249275,0.875436,-0.00721638,-0.000807927,0.0978385,1,4.80451e-05,-1.55865e-05,2.22046e-05,0.00960903,-0.0031173,0.00444091,0.999304,-0.00236816,0.0372188,0.000448338,0.045824,-0.271235,-0.88097,34.3125,1,51291,5176365
15,7,0.999304,-0.00236816,0.0372188,0.000448338,-0.721337,-0.0798206,9.78388,0.090631,0.249275,0.875436,-0.00721638,-0.000807927,0.0978385,1,4.80451e-05,-1.55865e-05,2.22046e-05,0.00960903,-0.0031173,0.00444091,0.999304,-0.00236816,0.0372188,0.000448338,0.045824,-0.271235,-0.88097,34.3125,1,51291,5176365
15,8,0.999304,-0.00236816,0.0372188,0.000448338,-0.721337,-0.0798206,9.78388,0.090631,0.249275,0.875436,-0.00721638,-0.000807927,0.0978385,1,4.80451e-05,-1.55865e-05,2.22046e-05,0.00960903,-0.0031173,0.00444091,0.999304,-0.00236816,0.0372188,0.000448338,0.045824,-0.271235,-0.88097,34.3125,1,51291,5176365
15,9,0.999305,-0.00233219,0.0372062,0.000460396,-0.716548,-0.0796699,9.79165,0.0941972,0.246293,0.883799,-0.00716771,-0.000804204,0.0979162,1,3.73032e-05,-1.1502e-05,1.3979e-05,0.00746063,-0.0023004,0.00279581,0.999305,-0.00233219,0.0372062,0.000460396,0.0453552,-0.27124,-0.880463,34.3125,1,51292,5176465
15,10,0.999305,-0.00233219,0.0372062,0.000460396,-0.716548,-0.0796699,9.79165,0.0941972,0.246293,0.883799,-0.00716771,-0.000804204,0.0979162,1,3.73032e-05,-1.1502e-05,1.3979e-05,0.00746063,-0.0023004,0.00279581,0.999305,-0.00233219,0.0372062,0.000460396,0.0453552,-0.27124,-0.880463,34.3125,1,51292,5176465
16,1,0.999305,-0.00233219,0.0372062,0.000460396,-0.716548,-0.0796699,9.79165,0.0941972,0.246293,0.883799,-0.00716771,-0.000804204,0.0979162,1,3.73032e-05,-1.1502e-05,1.3979e-05,0.00746063,-0.0023004,0.00279581,0.999305,-0.00233219,0.0372062,0.000460396,0.0453552,-0.27124,-0.880463,34.3125,1,51292,5176465
16,2,0.999305,-0.00228285,0.0371904,0.000470057,-0.709839,-0.0762931,9.78857,0.102645,0.248179,0.876908,-0.00710124,-0.000773084,0.0978854,1,5.09731e-05,-1.4633e-05,1.22901e-05,0.0101946,-0.0029266,0.00245802,0.999305,-0.00228285,0.0371904,0.000470057,0.0438696,-0.274571,-0.88457,34.3125,1,51293,5176565
16,3,0.999305,-0.00228285,0.0371904,0.000470057,-0.709839,-0.0762931,9.78857,0.102645,0.248179,0.876908,-0.00710124,-0.000773084,0.0978854,1,5.09731e-05,-1.4633e-05,1.22901e-05,0.0101946,-0.0029266,0.00245802,0.999305,-0.00228285,0.0371904,0.000470057,0.0438696,-0.274571,-0.88457,34.3125,1,51293,5176565
16,4,0.999305,-0.00228285,0.0371904,0.000470057,-0.709839,-0.0762931,9.78857,0.102645,0.248179,0.876908,-0.00710124,-0.000773084,0.0978854,1,5.09731e-05,-1.4633e-05,1.22901e-05,0.0101946,-0.0029266,0.00245802,0.999305,-0.00228285,0.0371904,0.000470057,0.0438696,-0.274571,-0.88457,34.3125,1,51293,5176565
16,5,0.999306,-0.00224415,0.03718,0.000490061,-0.727934,-0.0686654,9.78537,0.0914624,0.255396,0.876592,-0.00728107,-0.000694777,0.0978535,1,3.98663e-05,-9.00362e-06,2.20295e-05,0.00797326,-0.00180072,0.0044059,0.999306,-0.00224415,0.03718,0.000490061,0.0438407,-0.275031,-0.886096,34.3125,1,51294,5176665
16,6,0.999306,-0.00224415,0.03718,0.000490061,-0.727934,-0.0686654,9.78537,0.0914624,0.255396,0.876592,-0.00728107,-0.000694777,0.0978535,1,3.98663e-05,-9.00362e-06,2.20295e-05,0.00797326,-0.00180072,0.0044059,0.999306,-0.00224415,0.03718,0.000490061,0.0438407,-0.275031,-0.886096,34.3125,1,51294,5176665
16,7,0.999306,-0.00224415,0.03718,0.000490061,-0.727934,-0.0686654,9.78537,0.0914624,0.255396,0.876592,-0.00728107,-0.000694777,0.0978535,1,3.98663e-05,-9.00362e-06,2.20295e-05,0.00797326,-0.00180072,0.0044059,0.999306,-0.00224415,0.03718,0.000490061,0.0438407,-0.275031,-0.886096,34.3125,1,51294,5176665
16,8,0.999306,-0.00221245,0.0371682,0.000491613,-0.713623,-0.0768421,9.78723,0.103072,0.248077,0.878458,-0.00713827,-0.000775132,0.0978721,1,3.40342e-05,-1.04235e-05,3.45724e-06,0.00680684,-0.0020847,0.000691449,0.999306,-0.00221245,0.0371682,0.000491613,0.0447711,-0.271643,-0.885015,34.3125,1,51295,5176765
16,9,0.999306,-0.00221245,0.0371682,0.000491613,-0.713623,-0.0768421,9.78723,0.103072,0.248077,0.878458,-0.00713827,-0.000775132,0.0978721,1,3.40342e-05,-1.04235e-05,3.45724e-06,0.00680684,-0.0020847,0.000691449,0.999306,-0.00221245,0.0371682,0.000491613,0.0447711,-0.271643,-0.885015,34.3125,1,51295,5176765
16,10,0.999306,-0.00221245,0.0371682,0.000491613,-0.713623,-0.0768421,9.78723,0.103072,0.248077,0.878458,-0.00713827,-0.000775132,0.0978721,1,3.40342e-05,-1.04235e-05,3.45724e-06,0.00680684,-0.0020847,0.000691449,0.999306,-0.00221245,0.0371682,0.000491613,0.0447711,-0.271643,-0.885015,34.3125,1,51295,5176765
17,1,0.999308,-0.0021691,0.0371419,0.000506315,-0.725897,-0.0819842,9.78831,0.0869537,0.237344,0.879553,-0.00726386,-0.000828981,0.0978826,1,4.54021e-05,-2.51214e-05,1.73111e-05,0.00908042,-0.00502428,0.00346223,0.999308,-0.0021691,0.0371419,0.000506315,0.04575,-0.271181,-0.883999,34.3125,1,51296,5176865
17,2,0.999308,-0.0021691,0.0371419,0.000506315,-0.725897,-0.0819842,9.78831,0.0869537,0.237344,0.879553,-0.00726386,-0.000828981,0.0978826,1,4.54021e-05,-2.51214e-05,1.73111e-05,0.00908042,-0.00502428,0.00346223,0.999308,-0.0021691,0.0371419,0.000506315,0.04575,-0.271181,-0.883999,34.3125,1,51296,5176865
17,3,0.999308,-0.0021691,0.0371419,0.000506315,-0.725897,-0.0819842,9.78831,0.0869537,0.237344,0.879553,-0.00726386,-0.000828981,0.0978826,1,4.54021e-05,-2.51214e-05,1.73111e-05,0.00908042,-0.00502428,0.00346223,0.999308,-0.0021691,0.0371419,0.000506315,0.04575,-0.271181,-0.883999,34.3125,1,51296,5176865
17,4,0.999309,-0.00213281,0.0371185,0.000538545,-0.722197,-0.082395,9.79472,0.0933862,0.238271,0.892313,-0.00722635,-0.000831812,0.0979468,1,3.75658e-05,-2.26608e-05,3.48558e-05,0.00751316,-0.00453217,0.00697115,0.999309,-0.00213281,0.0371185,0.000538545,0.0439152,-0.27364,-0.882025,34.3125,1,51297,5176965
17,5,0.999309,-0.00213281,0.0371185,0.000538545,-0.722197,-0.082395,9.79472,0.0933862,0.238271,0.892313,-0.00722635,-0.000831812,0.0979468,1,3.75658e-05,-2.26608e-05,3.48558e-05,0.00751316,-0.00453217,0.00697115,0.999309,-0.00213281,0.0371185,0.000538545,0.0439152,-0.27364,-0.882025,34.3125,1,51297,5176965
17,6,0.999309,-0.00213281,0.0371185,0.000538545,-0.722197,-0.082395,9.79472,0.0933862,0.238271,0.892313,-0.00722635,-0.000831812,0.0979468,1,3.75658e-05,-2.26608e-05,3.48558e-05,0.00751316,-0.00453217,0.00697115,0.999309,-0.00213281,0.0371185,0.000538545,0.0439152,-0.27364,-0.882025,34.3125,1,51297,5176965
17,7,0.999309,-0.00208879,0.0371156,0.000556103,-0.727483,-0.0894673,9.78993,0.0896841,0.2302,0.885489,-0.00727508,-0.000903964,0.0978992,1,4.59645e-05,-1.43245e-06,2.00178e-05,0.0091929,-0.00028649,0.00400357,0.999309,-0.00208879,0.0371156,0.000556103,0.042961,-0.27412,-0.882031,34.3125,1,51298,5177065
17,8,0.999309,-0.00208879,0.0371156,0.000556103,-0.727483,-0.0894673,9.78993,0.0896841,0.2302,0.885489,-0.00727508,-0.000903964,0.0978992,1,4.59645e-05,-1.43245e-06,2.00178e-05,0.0091929,-0.00028649,0.00400357,0.999309,-0.00208879,0.0371156,0.000556103,0.042961,-0.27412,-0.882031,34.3125,1,51298,5177065
17,9,0.999309,-0.00208879,0.0371156,0.000556103,-0.727483,-0.0894673,9.78993,0.0896841,0.2302,0.885489,-0.00727508,-0.000903964,0.0978992,1,4.59645e-05,-1.43245e-06,2.00178e-05,0.0091929,-0.00028649,0.00400357,0.999309,-0.00208879,0.0371156,0.000556103,0.042961,-0.27412,-0.882031,34.3125,1,51298,5177065
17,10,0.999309,-0.00204585,0.0371102,0.000563784,-0.723825,-0.079677,9.78864,0.0898822,0.242451,0.880641,-0.00723903,-0.000805765,0.0978862,1,4.52269e-05,-4.06614e-06,9.77338e-06,0.00904537,-0.000813229,0.00195468,0.999309,-0.00204585,0.0371102,0.000563784,0.0438208,-0.273089,-0.885547,34.3125,1,51299,5177165
18,1,0.999309,-0.00204585,0.0371102,0.000563784,-0.723825,-0.079677,9.78864,0.0898822,0.242451,0.880641,-0.00723903,-0.000805765,0.0978862,1,4.52269e-05,-4.06614e-06,9.77338e-06,0.00904537,-0.000813229,0.00195468,0.999309,-0.00204585,0.0371102,0.000563784,0.0438208,-0.273089,-0.885547,34.3125,1,51299,5177165
18,2,0.999309,-0.00204585,0.0371102,0.000563784,-0.723825,-0.079677,9.78864,0.0898822,0.242451,0.880641,-0.00723903,-0.000805765,0.0978862,1,4.52269e-05,-4.06614e-06,9.77338e-06,0.00904537,-0.000813229,0.00195468,0.999309,-0.00204585,0.0371102,0.000563784,0.0438208,-0.273089,-0.885547,34.3125,1,51299,5177165
18,3,0.99931,-0.0020123,0.0370974,0.000575559,-0.715659,-0.0693436,9.788,0.0994787,0.249501,0.877485,-0.00715884,-0.000700781,0.0978797,1,3.65098e-05,-1.15817e-05,1.3819e-05,0.00730196,-0.00231634,0.0027638,0.99931,-0.0020123,0.0370974,0.000575559,0.0447987,-0.275518,-0.886616,34.3125,1,51300,5177265
18,4,0.99931,-0.0020123,0.0370974,0.000575559,-0.715659,-0.0693436,9.788,0.0994787,0.249501,0.877485,-0.00715884,-0.000700781,0.0978797,1,3.65098e-05,-1.15817e-05,1.3819e-05,0.00730196,-0.00231634,0.0027638,0.99931,-0.0020123,0.0370974,0.000575559,0.0447987,-0.275518,-0.886616,34.3125,1,51300,5177265
18,5,0.99931,-0.0020123,0.0370974,0.000575559,-0.715659,-0.0693436,9.788,0.0994787,0.249501,0.877485,-0.00715884,-0.000700781,0.0978797,1,3.65098e-05,-1.15817e-05,1.3819e-05,0.00730196,-0.00231634,0.0027638,0.99931,-0.0020123,0.0370974,0.000575559,0.0447987,-0.275518,-0.886616,34.3125,1,51300,5177265
18,6,0.99931,-0.00196022,0.0370822,0.000599792,-0.713511,-0.0790213,9.78552,0.101688,0.240018,0.876576,-0.00713773,-0.000801316,0.0978549,1,5.47972e-05,-1.36178e-05,2.65296e-05,0.0109594,-0.00272357,0.00530591,0.99931,-0.00196022,0.0370822,0.000599792,0.0452551,-0.275504,-0.887628,34.3125,1,51301,5177365
18,7,0.99931,-0.00196022,0.0370822,0.000599792,-0.713511,-0.0790213,9.78552,0.101688,0.240018,0.876576,-0.00713773,-0.000801316,0.0978549,1,5.47972e-05,-1.36178e-05,2.65296e-05,0.0109594,-0.00272357,0.00530591,0.99931,-0.00196022,0.0370822,0.000599792,0.0452551,-0.275504,-0.887628,34.3125,1,51301,5177365
18,8,0.99931,-0.00196022,0.0370822,0.000599792,-0.713511,-0.0790213,9.78552,0.101688,0.240018,0.876576,-0.00713773,-0.000801316,0.0978549,1,5.47972e-05,-1.36178e-05,2.65296e-05,0.0109594,-0.00272357,0.00530591,0.99931,-0.00196022,0.0370822,0.000599792,0.0452551,-0.275504,-0.887628,34.3125,1,51301,5177365
18,9,0.999311,-0.00191829,0.0370657,0.000621876,-0.722373,-0.0794768,9.78117,0.0939686,0.241828,0.875698,-0.00722659,-0.000803858,0.0978115,1,4.46439e-05,-1.48026e-05,2.46614e-05,0.00892877,-0.00296052,0.00493227,0.999311,-0.00191829,0.0370657,0.000621876,0.0472133,-0.273135,-0.884554,34.3125,1,51302,5177465
18,10,0.999311,-0.00191829,0.0370657,0.000621876,-0.722373,-0.0794768,9.78117,0.0939686,0.241828,0.875698,-0.00722659,-0.000803858,0.0978115,1,4.46439e-05,-1.48026e-05,2.46614e-05,0.00892877,-0.00296052,0.00493227,0.999311,-0.00191829,0.0370657,0.000621876,0.0472133,-0.273135,-0.884554,34.3125,1,51302,5177465
19,1,0.999311,-0.00191829,0.0370657,0.000621876,-0.722373,-0.0794768,9.78117,0.0939686,0.241828,0.875698,-0.00722659,-0.000803858,0.0978115,1,4.46439e-05,-1.48026e-05,2.46614e-05,0.00892877,-0.00296052,0.00493227,0.999311,-0.00191829,0.0370657,0.000621876,0.0472133,-0.273135,-0.884554,34.3125,1,51302,5177465
19,2,0.999311,-0.00187653,0.0370619,0.000633457,-0.720282,-0.0935684,9.78883,0.0943192,0.224038,0.881823,-0.00720329,-0.000944679,0.0978882,1,4.48115e-05,-2.54807e-06,1.54338e-05,0.00896231,-0.000509613,0.00308675,0.999311,-0.00187653,0.0370619,0.000633457,0.0458486,-0.271253,-0.87996,34.3125,1,51303,5177565
19,3,0.999311,-0.00187653,0.0370619,0.000633457,-0.720282,-0.0935684,9.78883,0.0943192,0.224038,0.881823,-0.00720329,-0.000944679,0.0978882,1,4.48115e-05,-2.54807e-06,1.54338e-05,0.00896231,-0.000509613,0.00308675,0.999311,-0.00187653,0.0370619,0.000633457,0.0458486,-0.271253,-0.87996,34.3125,1,51303,5177565
19,4,0.999311,-0.00187653,0.0370619,0.000633457,-0.720282,-0.0935684,9.78883,0.0943192,0.224038,0.881823,-0.00720329,-0.000944679,0.0978882,1,4.48115e-05,-2.54807e-06,1.54338e-05,0.00896231,-0.000509613,0.00308675,0.999311,-0.00187653,0.0370619,0.000633457,0.0458486,-0.271253,-0.87996,34.3125,1,51303,5177565
19,5,0.999312,-0.00184526,0.0370449,0.00063814,-0.716601,-0.0728273,9.78831,0.0951833,0.237906,0.88257,-0.00716904,-0.00073502,0.0978829,1,3.39783e-05,-1.55253e-05,6.6794e-06,0.00679567,-0.00310505,0.00133588,0.999312,-0.00184526,0.0370449,0.00063814,0.0444091,-0.272208,-0.88048,34.3125,1,51304,5177665
19,6,0.999312,-0.00184526,0.0370449,0.00063814,-0.716601,-0.0728273,9.78831,0.0951833,0.237906,0.88257,-0.00716904,-0.00073502,0.0978829,1,3.39783e-05,-1.55253e-05,6.6794e-06,0.00679567,-0.00310505,0.00133588,0.999312,-0.00184526,0.0370449,0.00063814,0.0444091,-0.272208,-0.88048,34.3125,1,51304,5177665
19,7,0.999312,-0.00184526,0.0370449,0.00063814,-0.716601,-0.0728273,9.78831,0.0951833,0.237906,0.88257,-0.00716904,-0.00073502,0.0978829,1,3.39783e-05,-1.55253e-05,6.6794e-06,0.00679567,-0.00310505,0.00133588,0.999312,-0.00184526,0.0370449,0.00063814,0.0444091,-0.272208,-0.88048,34.3125,1,51304,5177665
19,8,0.999313,-0.00180213,0.0370247,0.000659278,-0.727344,-0.0827268,9.79373,0.0802353,0.233677,0.887791,-0.00727713,-0.000836575,0.097937,1,4.5821e-05,-1.89917e-05,2.28323e-05,0.00916419,-0.00379835,0.00456647,0.999313,-0.00180213,0.0370247,0.000659278,0.0443754,-0.274593,-0.883563,34.3125,1,51305,5177765
19,9,0.999313,-0.00180213,0.0370247,0.000659278,-0.727344,-0.0827268,9.79373,0.0802353,0.233677,0.887791,-0.00727713,-0.000836575,0.097937,1,4.5821e-05,-1.89917e-05,2.28323e-05,0.00916419,-0.00379835,0.00456647,0.999313,-0.00180213,0.0370247,0.000659278,0.0443754,-0.274593,-0.883563,34.3125,1,51305,5177765
19,10,0.999313,-0.00180213,0.0370247,0.000659278,-0.727344,-0.0827268,9.79373,0.0802353,0.233677,0.887791,-0.00727713,-0.000836575,0.097937,1,4.5821e-05,-1.89917e-05,2.28323e-05,0.00916419,-0.00379835,0.00456647,0.999313,-0.00180213,0.0370247,0.000659278,0.0443754,-0.274593,-0.883563,34.3125,1,51305,5177765
20,1,0.999313,-0.00176051,0.0370148,0.00067833,-0.73507,-0.0689959,9.78236,0.0737316,0.245705,0.875654,-0.00735231,-0.000699222,0.0978234,1,4.58659e-05,-8.38538e-06,1.97123e-05,0.00917318,-0.00167708,0.00394246,0.999313,-0.00176051,0.0370148,0.00067833,0.0453168,-0.275549,-0.885104,34.3125,1,51306,5177865
20,2,0.999313,-0.00176051,0.0370148,0.00067833,-0.73507,-0.0689959,9.78236,0.0737316,0.245705,0.875654,-0.00735231,-0.000699222,0.0978234,1,4.58659e-05,-8.38538e-06,1.97123e-05,0.00917318,-0.00167708,0.00394246,0.999313,-0.00176051,0.0370148,0.00067833,0.0453168,-0.275549,-0.885104,34.3125,1,51306,5177865
20,3,0.999313,-0.00176051,0.0370148,0.00067833,-0.73507,-0.0689959,9.78236,0.0737316,0.245705,0.875654,-0.00735231,-0.000699222,0.0978234,1,4.58659e-05,-8.38538e-06,1.97123e-05,0.00917318,-0.00167708,0.00394246,0.999313,-0.00176051,0.0370148,0.00067833,0.0453168,-0.275549,-0.885104,34.3125,1,51306,5177865
20,4,0.999314,-0.00171341,0.037,0.000690707,-0.71474,-0.0693752,9.77951,0.0968875,0.240222,0.873166,-0.00715005,-0.000704217,0.0977948,1,5.24631e-05,-1.36514e-05,1.42533e-05,0.0104926,-0.00273027,0.00285067,0.999314,-0.00171341,0.037,0.000690707,0.0447583,-0.273079,-0.886562,34.3125,1,51307,5177965
20,5,0.999314,-0.00171341,0.037,0.000690707,-0.71474,-0.0693752,9.77951,0.0968875,0.240222,0.873166,-0.00715005,-0.000704217,0.0977948,1,5.24631e-05,-1.36514e-05,1.42533e-05,0.0104926,-0.00273027,0.00285067,0.999314,-0.00171341,0.037,0.000690707,0.0447583,-0.273079,-0.886562,34.3125,1,51307,5177965
20,6,0.999314,-0.00171341,0.037,0.000690707,-0.71474,-0.0693752,9.77951,0.0968875,0.240222,0.873166,-0.00715005,-0.000704217,0.0977948,1,5.24631e-05,-1.36514e-05,1.42533e-05,0.0104926,-0.00273027,0.00285067,0.999314,-0.00171341,0.037,0.000690707,0.0447583,-0.273079,-0.886562,34.3125,1,51307,5177965
20,7,0.999314,-0.00167871,0.0369892,0.000694621,-0.708064,-0.0849568,9.78577,0.10488,0.227696,0.875772,-0.00708237,-0.000857703,0.0978575,1,4.12222e-05,-8.91469e-06,4.75151e-06,0.00824444,-0.00178294,0.000950302,0.999314,-0.00167871,0.0369892,0.000694621,0.0452522,-0.271647,-0.885017,34.3125,1,51308,5178065
20,8,0.999314,-0.00167871,0.0369892,0.000694621,-0.708064,-0.0849568,9.78577,0.10488,0.227696,0.875772,-0.00708237,-0.000857703,0.0978575,1,4.12222e-05,-8.91469e-06,4.75151e-06,0.00824444,-0.00178294,0.000950302,0.999314,-0.00167871,0.0369892,0.000694621,0.0452522,-0.271647,-0.885017,34.3125,1,51308,5178065
20,9,0.999314,-0.00167871,0.0369892,0.000694621,-0.708064,-0.0849568,9.78577,0.10488,0.227696,0.875772,-0.00708237,-0.000857703,0.0978575,1,4.12222e-05,-8.91469e-06,4.75151e-06,0.00824444,-0.00178294,0.000950302,0.999314,-0.00167871,0.0369892,0.000694621,0.0452522,-0.271647,-0.885017,34.3125,1,51308,5178065
20,10,0.999314,-0.00164572,0.0369783,0.000717141,-0.713694,-0.0685629,9.77984,0.098511,0.243102,0.87308,-0.00713873,-0.000693216,0.0977983,1,3.68841e-05,-9.36165e-06,2.61105e-05,0.00737683,-0.00187233,0.00522211,0.999314,-0.00164572,0.0369783,0.000717141,0.0438952,-0.271698,-0.881476,34.3125,1,51309,5178165
21,1,0.999314,-0.00164572,0.0369783,0.000717141,-0.713694,-0.0685629,9.77984,0.098511,0.243102,0.87308,-0.00713873,-0.000693216,0.0977983,1,3.68841e-05,-9.36165e-06,2.61105e-05,0.00737683,-0.00187233,0.00522211,0.999314,-0.00164572,0.0369783,0.000717141,0.0438952,-0.271698,-0.881476,34.3125,1,51309,5178165
21,2,0.999314,-0.00164572,0.0369783,0.000717141,-0.713694,-0.0685629,9.77984,0.098511,0.243102,0.87308,-0.00713873,-0.000693216,0.0977983,1,3.68841e-05,-9.36165e-06,2.61105e-05,0.00737683,-0.00187233,0.00522211,0.999314,-0.00164572,0.0369783,0.000717141,0.0438952,-0.271698,-0.881476,34.3125,1,51309,5178165
21,3,0.999315,-0.00158797,0.0369765,0.000738223,-0.71847,-0.0702324,9.78563,0.0862693,0.240131,0.880348,-0.0071848,-0.000714391,0.0978562,1,5.99009e-05,-7.07982e-07,2.39049e-05,0.0119802,-0.000141596,0.00478099,0.999315,-0.00158797,0.0369765,0.000738223,0.0424927,-0.27268,-0.880482,34.3125,1,51310,5178265
21,4,0.999315,-0.00158797,0.0369765,0.000738223,-0.71847,-0.0702324,9.78563,0.0862693,0.240131,0.880348,-0.0071848,-0.000714391,0.0978562,1,5.99009e-05,-7.07982e-07,2.39049e-05,0.0119802,-0.000141596,0.00478099,0.999315,-0.00158797,0.0369765,0.000738223,0.0424927,-0.27268,-0.880482,34.3125,1,51310,5178265
21,5,0.999315,-0.00158797,0.0369765,0.000738223,-0.71847,-0.0702324,9.78563,0.0862693,0.240131,0.880348,-0.0071848,-0.000714391,0.0978562,1,5.99009e-05,-7.07982e-07,2.39049e-05,0.0119802,-0.000141596,0.00478099,0.999315,-0.00158797,0.0369765,0.000738223,0.0424927,-0.27268,-0.880482,34.3125,1,51310,5178265
21,6,0.999315,-0.00155898,0.0369728,0.000746716,-0.724464,-0.0834834,9.78521,0.0866289,0.223738,0.875222,-0.00724528,-0.000841114,0.097852,1,3.15253e-05,-3.33604e-06,7.60511e-06,0.00630505,-0.000667208,0.00152102,0.999315,-0.00155898,0.0369728,0.000746716,0.0438454,-0.273107,-0.884538,34.3125,1,51311,5178365
21,7,0.999315,-0.00155898,0.0369728,0.000746716,-0.724464,-0.0834834,9.78521,0.0866289,0.223738,0.875222,-0.00724528,-0.000841114,0.097852,1,3.15253e-05,-3.33604e-06,7.60511e-06,0.00630505,-0.000667208,0.00152102,0.999315,-0.00155898,0.0369728,0.000746716,0.0438454,-0.273107,-0.884538,34.3125,1,51311,5178365
21,8,0.999315,-0.00155898,0.0369728,0.000746716,-0.724464,-0.0834834,9.78521,0.0866289,0.223738,0.875222,-0.00724528,-0.000841114,0.097852,1,3.15253e-05,-3.33604e-06,7.60511e-06,0.00630505,-0.000667208,0.00152102,0.999315,-0.00155898,0.0369728,0.000746716,0.0438454,-0.273107,-0.884538,34.3125,1,51311,5178365
21,9,0.999315,-0.0015206,0.0369628,0.000757794,-0.716001,-0.0793668,9.77875,0.0885661,0.232133,0.87282,-0.00716155,-0.000802561,0.0977874,1,4.43813e-05,-7.97022e-06,1.48229e-05,0.00887625,-0.00159404,0.00296459,0.999315,-0.0015206,0.0369628,0.000757794,0.0447745,-0.274055,-0.886583,34.3125,1,51312,5178465
21,10,0.999315,-0.0015206,0.0369628,0.000757794,-0.716001,-0.0793668,9.77875,0.0885661,0.232133,0.87282,-0.00716155,-0.000802561,0.0977874,1,4.43813e-05,-7.97022e-06,1.48229e-05,0.00887625,-0.00159404,0.00296459,0.999315,-0.0015206,0.0369628,0.000757794,0.0447745,-0.274055,-0.886583,34.3125,1,51312,5178465
22,1,0.999315,-0.0015206,0.0369628,0.000757794,-0.716001,-0.0793668,9.77875,0.0885661,0.232133,0.87282,-0.00716155,-0.000802561,0.0977874,1,4.43813e-05,-7.97022e-06,1.48229e-05,0.00887625,-0.00159404,0.00296459,0.999315,-0.0015206,0.0369628,0.000757794,0.0447745,-0.274055,-0.886583,34.3125,1,51312,5178465
22,2,0.999316,-0.00149446,0.0369457,0.000771437,-0.719307,-0.0806795,9.78385,0.0931141,0.228033,0.875316,-0.00719591,-0.000813815,0.0978383,1,3.4634e-05,-1.46703e-05,1.69221e-05,0.0069268,-0.00293406,0.00338442,0.999316,-0.00149446,0.0369457,0.000771437,0.0428671,-0.272124,-0.884511,34.3125,1,51313,5178565
22,3,0.999316,-0.00149446,0.0369457,0.000771437,-0.719307,-0.0806795,9.78385,0.0931141,0.228033,0.875316,-0.00719591,-0.000813815,0.0978383,1,3.4634e-05,-1.46703e-05,1.69221e-05,0.0069268,-0.00293406,0.00338442,0.999316,-0.00149446,0.0369457,0.000771437,0.0428671,-0.272124,-0.884511,34.3125,1,51313,5178565
22,4,0.999316,-0.00149446,0.0369457,0.000771437,-0.719307,-0.0806795,9.78385,0.0931141,0.228033,0.875316,-0.00719591,-0.000813815,0.0978383,1,3.4634e-05,-1.46703e-05,1.69221e-05,0.0069268,-0.00293406,0.00338442,0.999316,-0.00149446,0.0369457,0.000771437,0.0428671,-0.272124,-0.884511,34.3125,1,51313,5178565
22,5,0.999316,-0.00146523,0.0369316,0.000783494,-0.722028,-0.0847941,9.78655,0.0937079,0.221702,0.882372,-0.00722273,-0.000855022,0.0978652,1,3.53884e-05,-1.26138e-05,1.06358e-05,0.00707767,-0.00252276,0.00212716,0.999316,-0.00146523,0.0369316,0.000783494,0.0429415,-0.270733,-0.88044,34.3125,1,51314,5178665
22,6,0.999316,-0.00146523,0.0369316,0.000783494,-0.722028,-0.0847941,9.78655,0.0937079,0.221702,0.882372,-0.00722273,-0.000855022,0.0978652,1,3.53884e-05,-1.26138e-05,1.06358e-05,0.00707767,-0.00252276,0.00212716,0.999316,-0.00146523,0.0369316,0.000783494,0.0429415,-0.270733,-0.88044,34.3125,1,51314,5178665
22,7,0.999316,-0.00146523,0.0369316,0.000783494,-0.722028,-0.0847941,9.78655,0.0937079,0.221702,0.882372,-0.00722273,-0.000855022,0.0978652,1,3.53884e-05,-1.26138e-05,1.06358e-05,0.00707767,-0.00252276,0.00212716,0.999316,-0.00146523,0.0369316,0.000783494,0.0429415,-0.270733,-0.88044,34.3125,1,51314,5178665
22,8,0.999316,-0.00144093,0.0369309,0.000802336,-0.713456,-0.0720495,9.77981,0.0945491,0.231191,0.869743,-0.00713457,-0.000725827,0.0977981,1,2.56113e-05,-2.02979e-07,2.26182e-05,0.00512225,-4.05958e-05,0.00452364,0.999316,-0.00144093,0.0369309,0.000802336,0.0429496,-0.27122,-0.880451,34.3125,1,51315,5178765
22,9,0.999316,-0.00144093,0.0369309,0.000802336,-0.713456,-0.0720495,9.77981,0.0945491,0.231191,0.869743,-0.00713457,-0.000725827,0.0977981,1,2.56113e-05,-2.02979e-07,2.26182e-05,0.00512225,-4.05958e-05,0.00452364,0.999316,-0.00144093,0.0369309,0.000802336,0.0429496,-0.27122,-0.880451,34.3125,1,51315,5178765
22,10,0.999316,-0.00144093,0.0369309,0.000802336,-0.713456,-0.0720495,9.77981,0.0945491,0.231191,0.869743,-0.00713457,-0.000725827,0.0977981,1,2.56113e-05,-2.02979e-07,2.26182e-05,0.00512225,-4.05958e-05,0.00452364,0.999316,-0.00144093,0.0369309,0.000802336,0.0429496,-0.27122,-0.880451,34.3125,1,51315,5178765
23,1,0.999317,-0.00141686,0.03692,0.000819416,-0.714644,-0.0806809,9.78144,0.0950111,0.223714,0.871761,-0.00714846,-0.0008121,0.0978142,1,2.58367e-05,-1.04605e-05,1.65702e-05,0.00516734,-0.0020921,0.00331404,0.999317,-0.00141686,0.03692,0.000819416,0.0439029,-0.273631,-0.882529,34.3125,1,51316,5178865
23,2,0.999317,-0.00141686,0.03692,0.000819416,-0.714644,-0.0806809,9.78144,0.0950111,0.223714,0.871761,-0.00714846,-0.0008121,0.0978142,1,2.58367e-05,-1.04605e-05,1.65702e-05,0.00516734,-0.0020921,0.00331404,0.999317,-0.00141686,0.03692,0.000819416,0.0439029,-0.273631,-0.882529,34.3125,1,51316,5178865
23,3,0.999317,-0.00141686,0.03692,0.000819416,-0.714644,-0.0806809,9.78144,0.0950111,0.223714,0.871761,-0.00714846,-0.0008121,0.0978142,1,2.58367e-05,-1.04605e-05,1.65702e-05,0.00516734,-0.0020921,0.00331404,0.999317,-0.00141686,0.03692,0.000819416,0.0439029,-0.273631,-0.882529,34.3125,1,51316,5178865
23,4,0.999318,-0.00139809,0.0369007,0.00083441,-0.724739,-0.0743242,9.78496,0.0872697,0.227655,0.878446,-0.00725074,-0.000748414,0.0978494,1,2.50061e-05,-1.72573e-05,1.92168e-05,0.00500122,-0.00345146,0.00384335,0.999318,-0.00139809,0.0369007,0.00083441,0.0453662,-0.275585,-0.883085,34.3125,1,51317,5178965
23,5,0.999318,-0.00139809,0.0369007,0.00083441,-0.724739,-0.0743242,9.78496,0.0872697,0.227655,0.878446,-0.00725074,-0.000748414,0.0978494,1,2.50061e-05,-1.72573e-05,1.92168e-05,0.00500122,-0.00345146,0.00384335,0.999318,-0.00139809,0.0369007,0.00083441,0.0453662,-0.275585,-0.883085,34.3125,1,51317,5178965
23,6,0.999318,-0.00139809,0.0369007,0.00083441,-0.724739,-0.0743242,9.78496,0.0872697,0.227655,0.878446,-0.00725074,-0.000748414,0.0978494,1,2.50061e-05,-1.72573e-05,1.92168e-05,0.00500122,-0.00345146,0.00384335,0.999318,-0.00139809,0.0369007,0.00083441,0.0453662,-0.275585,-0.883085,34.3125,1,51317,5178965
23,7,0.999318,-0.00137011,0.0368847,0.000865298,-0.725425,-0.0830872,9.78658,0.0848516,0.217109,0.880654,-0.00725694,-0.000838218,0.0978656,1,3.50586e-05,-1.40219e-05,3.32949e-05,0.00701172,-0.00280439,0.00665898,0.999318,-0.00137011,0.0368847,0.000865298,0.0453125,-0.276028,-0.88562,34.3125,1,51318,5179065
23,8,0.999318,-0.00137011,0.0368847,0.000865298,-0.725425,-0.0830872,9.78658,0.0848516,0.217109,0.880654,-0.00725694,-0.000838218,0.0978656,1,3.50586e-05,-1.40219e-05,3.32949e-05,0.00701172,-0.00280439,0.00665898,0.999318,-0.00137011,0.0368847,0.000865298,0.0453125,-0.276028,-0.88562,34.3125,1,51318,5179065
23,9,0.999318,-0.00137011,0.0368847,0.000865298,-0.725425,-0.0830872,9.78658,0.0848516,0.217109,0.880654,-0.00725694,-0.000838218,0.0978656,1,3.50586e-05,-1.40219e-05,3.32949e-05,0.00701172,-0.00280439,0.00665898,0.999318,-0.00137011,0.0368847,0.000865298,0.0453125,-0.276028,-0.88562,34.3125,1,51318,5179065
23,10,0.999319,-0.00133667,0.0368684,0.000879313,-0.717007,-0.0795462,9.78723,0.0914813,0.222889,0.880379,-0.0071725,-0.000804796,0.097872,1,4.61339e-05,-1.25933e-05,2.11618e-05,0.00922678,-0.00251866,0.00423236,0.999319,-0.00133667,0.0368684,0.000879313,0.0442934,-0.274051,-0.886581,34.3125,1,51319,5179165
23,11,0.999319,-0.00133667,0.0368684,0.000879313,-0.717007,-0.0795462,9.78723,0.0914813,0.222889,0.880379,-0.0071725,-0.000804796,0.097872,1,4.61339e-05,-1.25933e-05,2.11618e-05,0.00922678,-0.00251866,0.00423236,0.999319,-0.00133667,0.0368684,0.000879313,0.0442934,-0.274051,-0.886581,34.3125,1,51319,5179165
23,12,0.999319,-0.00133667,0.0368684,0.000879313,-0.717007,-0.0795462,9.78723,0.0914813,0.222889,0.880379,-0.0071725,-0.000804796,0.097872,1,4.61339e-05,-1.25933e-05,2.11618e-05,0.00922678,-0.00251866,0.00423236,0.999319,-0.00133667,0.0368684,0.000879313,0.0442934,-0.274051,-0.886581,34.3125,1,51319,5179165
24,1,0.99932,-0.00131624,0.0368502,0.000895982,-0.722295,-0.0856111,9.79333,0.0890538,0.214167,0.888399,-0.00722575,-0.000863081,0.097933,1,3.39839e-05,-1.44599e-05,2.16681e-05,0.00679678,-0.00289198,0.00433362,0.99932,-0.00131624,0.0368502,0.000895982,0.0453097,-0.272171,-0.883009,34.3125,1,51320,5179265
24,2,0.99932,-0.00131624,0.0368502,0.000895982,-0.722295,-0.0856111,9.79333,0.0890538,0.214167,0.888399,-0.00722575,-0.000863081,0.097933,1,3.39839e-05,-1.44599e-05,2.16681e-05,0.00679678,-0.00289198,0.00433362,0.99932,-0.00131624,0.0368502,0.000895982,0.0453097,-0.272171,-0.883009,34.3125,1,51320,5179265
24,3,0.99932,-0.00131624,0.0368502,0.000895982,-0.722295,-0.0856111,9.79333,0.0890538,0.214167,0.888399,-0.00722575,-0.000863081,0.097933,1,3.39839e-05,-1.44599e-05,2.16681e-05,0.00679678,-0.00289198,0.00433362,0.99932,-0.00131624,0.0368502,0.000895982,0.0453097,-0.272171,-0.883009,34.3125,1,51320,5179265
24,4,0.99932,-0.00128154,0.0368454,0.000898697,-0.713716,-0.081501,9.77634,0.0942963,0.218226,0.869312,-0.00713758,-0.000823208,0.0977633,1,4.08329e-05,-2.25755e-06,1.50298e-05,0.00816658,-0.00045151,0.00300595,0.99932,-0.00128154,0.0368454,0.000898697,0.0443598,-0.272172,-0.882499,34.3125,1,51321,5179365
24,5,0.99932,-0.00128154,0.0368454,0.000898697,-0.713716,-0.081501,9.77634,0.0942963,0.218226,0.869312,-0.00713758,-0.000823208,0.0977633,1,4.08329e-05,-2.25755e-06,1.50298e-05,0.00816658,-0.00045151,0.00300595,0.99932,-0.00128154,0.0368454,0.000898697,0.0443598,-0.272172,-0.882499,34.3125,1,51321,5179365
24,6,0.99932,-0.00128154,0.0368454,0.000898697,-0.713716,-0.081501,9.77634,0.0942963,0.218226,0.869312,-0.00713758,-0.000823208,0.0977633,1,4.08329e-05,-2.25755e-06,1.50298e-05,0.00816658,-0.00045151,0.00300595,0.99932,-0.00128154,0.0368454,0.000898697,0.0443598,-0.272172,-0.882499,34.3125,1,51321,5179365
24,7,0.99932,-0.0012475,0.0368466,0.000913537,-0.720449,-0.0840689,9.78924,0.0878329,0.218021,0.883255,-0.00720381,-0.000848671,0.0978924,1,3.92254e-05,3.29518e-06,2.09697e-05,0.00784509,0.000659036,0.00419394,0.99932,-0.0012475,0.0368466,0.000913537,0.0434545,-0.274133,-0.881528,34.3125,1,51322,5179465
24,8,0.99932,-0.0012475,0.0368466,0.000913537,-0.720449,-0.0840689,9.78924,0.0878329,0.218021,0.883255,-0.00720381,-0.000848671,0.0978924,1,3.92254e-05,3.29518e-06,2.09697e-05,0.00784509,0.000659036,0.00419394,0.99932,-0.0012475,0.0368466,0.000913537,0.0434545,-0.274133,-0.881528,34.3125,1,51322,5179465
24,9,0.99932,-0.0012475,0.0368466,0.000913537,-0.720449,-0.0840689,9.78924,0.0878329,0.218021,0.883255,-0.00720381,-0.000848671,0.0978924,1,3.92254e-05,3.29518e-06,2.09697e-05,0.00784509,0.000659036,0.00419394,0.99932,-0.0012475,0.0368466,0.000913537,0.0434545,-0.274133,-0.881528,34.3125,1,51322,5179465
24,10,0.999321,-0.0012201,0.0368291,0.000923884,-0.713619,-0.0717292,9.78118,0.093528,0.229119,0.871198,-0.00713958,-0.000723576,0.0978115,1,3.14321e-05,-1.74231e-05,9.46419e-06,0.00628643,-0.00348462,0.00189284,0.999321,-0.0012201,0.0368291,0.000923884,0.0438824,-0.273134,-0.883023,34.3125,1,51323,5179565
25,1,0.999321,-0.0012201,0.0368291,0.000923884,-0.713619,-0.0717292,9.78118,0.093528,0.229119,0.871198,-0.00713958,-0.000723576,0.0978115,1,3.14321e-05,-1.74231e-05,9.46419e-06,0.00628643,-0.00348462,0.00189284,0.999321,-0.0012201,0.0368291,0.000923884,0.0438824,-0.273134,-0.883023,34.3125,1,51323,5179565
25,2,0.999321,-0.0012201,0.0368291,0.000923884,-0.713619,-0.0717292,9.78118,0.093528,0.229119,0.871198,-0.00713958,-0.000723576,0.0978115,1,3.14321e-05,-1.74231e-05,9.46419e-06,0.00628643,-0.00348462,0.00189284,0.999321,-0.0012201,0.0368291,0.000923884,0.0438824,-0.273134,-0.883023,34.3125,1,51323,5179565
25,3,0.999321,-0.00118974,0.0368151,0.000927624,-0.720733,-0.0730336,9.78834,0.0894074,0.230944,0.874934,-0.00720955,-0.000737924,0.0978831,1,3.81694e-05,-1.13693e-05,8.0244e-06,0.00763388,-0.00227385,0.00160488,0.999321,-0.00118974,0.0368151,0.000927624,0.0447911,-0.273585,-0.885563,34.3125,1,51324,5179665
25,4,0.999321,-0.00118974,0.0368151,0.000927624,-0.720733,-0.0730336,9.78834,0.0894074,0.230944,0.874934,-0.00720955,-0.000737924,0.0978831,1,3.81694e-05,-1.13693e-05,8.0244e-06,0.00763388,-0.00227385,0.00160488,0.999321,-0.00118974,0.0368151,0.000927624,0.0447911,-0.273585,-0.885563,34.3125,1,51324,5179665
25,5,0.999321,-0.00118974,0.0368151,0.000927624,-0.720733,-0.0730336,9.78834,0.0894074,0.230944,0.874934,-0.00720955,-0.000737924,0.0978831,1,3.81694e-05,-1.13693e-05,8.0244e-06,0.00763388,-0.00227385,0.00160488,0.999321,-0.00118974,0.0368151,0.000927624,0.0447911,-0.273585,-0.885563,34.3125,1,51324,5179665
25,6,0.999322,-0.00115938,0.0368026,0.00093628,-0.730596,-0.0775521,9.78463,0.0780907,0.222652,0.877613,-0.00730773,-0.000784619,0.0978461,1,4.53386e-05,-9.17927e-06,1.54544e-05,0.00906772,-0.00183585,0.00309088,0.999322,-0.00115938,0.0368026,0.00093628,0.0447707,-0.273088,-0.886057,34.3125,1,51325,5179765
25,7,0.999322,-0.00115938,0.0368026,0.00093628,-0.730596,-0.0775521,9.78463,0.0780907,0.222652,0.877613,-0.00730773,-0.000784619,0.0978461,1,4.53386e-05,-9.17927e-06,1.54544e-05,0.00906772,-0.00183585,0.00309088,0.999322,-0.00115938,0.0368026,0.00093628,0.0447707,-0.273088,-0.886057,34.3125,1,51325,5179765
25,8,0.999322,-0.00115938,0.0368026,0.00093628,-0.730596,-0.0775521,9.78463,0.0780907,0.222652,0.877613,-0.00730773,-0.000784619,0.0978461,1,4.53386e-05,-9.17927e-06,1.54544e-05,0.00906772,-0.00183585,0.00309088,0.999322,-0.00115938,0.0368026,0.00093628,0.0447707,-0.273088,-0.886057,34.3125,1,51325,5179765
25,9,0.999322,-0.00112585,0.0367844,0.00096018,-0.718322,-0.0774705,9.78591,0.0911161,0.221249,0.879425,-0.00718581,-0.000784907,0.0978588,1,4.97903e-05,-1.35081e-05,3.18624e-05,0.00995807,-0.00270161,0.00637247,0.999322,-0.00112585,0.0367844,0.00096018,0.046716,-0.272156,-0.88453,34.3125,1,51326,5179865
25,10,0.999322,-0.00112585,0.0367844,0.00096018,-0.718322,-0.0774705,9.78591,0.0911161,0.221249,0.879425,-0.00718581,-0.000784907,0.0978588,1,4.97903e-05,-1.35081e-05,3.18624e-05,0.00995807,-0.00270161,0.00637247,0.999322,-0.00112585,0.0367844,0.00096018,0.046716,-0.272156,-0.88453,34.3125,1,51326,5179865
26,1,0.999322,-0.00112585,0.0367844,0.00096018,-0.718322,-0.0774705,9.78591,0.0911161,0.221249,0.879425,-0.00718581,-0.000784907,0.0978588,1,4.97903e-05,-1.35081e-05,3.18624e-05,0.00995807,-0.00270161,0.00637247,0.999322,-0.00112585,0.0367844,0.00096018,0.046716,-0.272156,-0.88453,34.3125,1,51326,5179865
26,2,0.999322,-0.00108956,0.0367748,0.000939144,-0.715395,-0.0746251,9.78184,0.0924785,0.221996,0.877091,-0.00715441,-0.000756002,0.0978183,1,4.93173e-05,-2.38944e-06,7.1469e-06,0.00986345,-0.000477888,0.00142938,0.999322,-0.00108956,0.0367748,0.000939144,0.0457784,-0.272166,-0.883516,34.3125,1,51327,5179965
26,3,0.999322,-0.00108956,0.0367748,0.000939144,-0.715395,-0.0746251,9.78184,0.0924785,0.221996,0.877091,-0.00715441,-0.000756002,0.0978183,1,4.93173e-05,-2.38944e-06,7.1469e-06,0.00986345,-0.000477888,0.00142938,0.999322,-0.00108956,0.0367748,0.000939144,0.0457784,-0.272166,-0.883516,34.3125,1,51327,5179965
26,4,0.999322,-0.00108956,0.0367748,0.000939144,-0.715395,-0.0746251,9.78184,0.0924785,0.221996,0.877091,-0.00715441,-0.000756002,0.0978183,1,4.93173e-05,-2.38944e-06,7.1469e-06,0.00986345,-0.000477888,0.00142938,0.999322,-0.00108956,0.0367748,0.000939144,0.0457784,-0.272166,-0.883516,34.3125,1,51327,5179965
26,5,0.999323,-0.00105121,0.0367666,0.000946063,-0.716346,-0.0785132,9.78927,0.0887982,0.222795,0.882049,-0.00716416,-0.000794912,0.0978926,1,4.82145e-05,-3.77936e-06,2.37525e-05,0.00964291,-0.000755872,0.0047505,0.999323,-0.00105121,0.0367666,0.000946063,0.044392,-0.274123,-0.882543,34.3125,1,51328,5180065
26,6,0.999323,-0.00105121,0.0367666,0.000946063,-0.716346,-0.0785132,9.78927,0.0887982,0.222795,0.882049,-0.00716416,-0.000794912,0.0978926,1,4.82145e-05,-3.77936e-06,2.37525e-05,0.00964291,-0.000755872,0.0047505,0.999323,-0.00105121,0.0367666,0.000946063,0.044392,-0.274123,-0.882543,34.3125,1,51328,5180065
26,7,0.999323,-0.00105121,0.0367666,0.000946063,-0.716346,-0.0785132,9.78927,0.0887982,0.222795,0.882049,-0.00716416,-0.000794912,0.0978926,1,4.82145e-05,-3.77936e-06,2.37525e-05,0.00964291,-0.000755872,0.0047505,0.999323,-0.00105121,0.0367666,0.000946063,0.044392,-0.274123,-0.882543,34.3125,1,51328,5180065
26,8,0.999324,-0.00103193,0.0367449,0.000956283,-0.707021,-0.0740721,9.78485,0.0933922,0.221617,0.8744,-0.00707438,-0.000746105,0.0978482,1,2.6185e-05,-2.14651e-05,1.83639e-05,0.005237,-0.00429302,0.00367279,0.999324,-0.00103193,0.0367449,0.000956283,0.0448238,-0.274091,-0.884564,34.3125,1,51329,5180165
26,9,0.999324,-0.00103193,0.0367449,0.000956283,-0.707021,-0.0740721,9.78485,0.0933922,0.221617,0.8744,-0.00707438,-0.000746105,0.0978482,1,2.6185e-05,-2.14651e-05,1.83639e-05,0.005237,-0.00429302,0.00367279,0.999324,-0.00103193,0.0367449,0.000956283,0.0448238,-0.274091,-0.884564,34.3125,1,51329,5180165
26,10,0.999324,-0.00103193,0.0367449,0.000956283,-0.707021,-0.0740721,9.78485,0.0933922,0.221617,0.8744,-0.00707438,-0.000746105,0.0978482,1,2.6185e-05,-2.14651e-05,1.83639e-05,0.005237,-0.00429302,0.00367279,0.999324,-0.00103193,0.0367449,0.000956283,0.0448238,-0.274091,-0.884564,34.3125,1,51329,5180165
27,1,0.999324,-0.00100502,0.0367315,0.00096186,-0.714444,-0.081618,9.79535,0.0926767,0.214132,0.890975,-0.0071465,-0.000824748,0.0979532,1,4.26881e-05,-1.06507e-05,1.43925e-05,0.00853763,-0.00213015,0.00287849,0.999324,-0.00100502,0.0367315,0.00096186,0.0457405,-0.275029,-0.887115,34.3125,1,51330,5180265
27,2,0.999324,-0.00100502,0.0367315,0.00096186,-0.714444,-0.081618,9.79535,0.0926767,0.214132,0.890975,-0.0071465,-0.000824748,0.0979532,1,4.26881e-05,-1.06507e-05,1.43925e-05,0.00853763,-0.00213015,0.00287849,0.999324,-0.00100502,0.0367315,0.00096186,0.0457405,-0.275029,-0.887115,34.3125,1,51330,5180265
27,3,0.999324,-0.00100502,0.0367315,0.00096186,-0.714444,-0.081618,9.79535,0.0926767,0.214132,0.890975,-0.0071465,-0.000824748,0.0979532,1,4.26881e-05,-1.06507e-05,1.43925e-05,0.00853763,-0.00213015,0.00287849,0.999324,-0.00100502,0.0367315,0.00096186,0.0457405,-0.275029,-0.887115,34.3125,1,51330,5180265
27,4,0.999325,-0.000982404,0.0367089,0.00095656,-0.721241,-0.0777685,9.78865,0.0847556,0.216151,0.883892,-0.00721612,-0.000787991,0.0978861,1,5.17723e-05,-1.90716e-05,1.18406e-05,0.0103545,-0.00381431,0.00236813,0.999325,-0.000982404,0.0367089,0.00095656,0.0457533,-0.273593,-0.885568,34.3125,1,51331,5180365
27,5,0.999325,-0.000982404,0.0367089,0.00095656,-0.721241,-0.0777685,9.78865,0.0847556,0.216151,0.883892,-0.00721612,-0.000787991,0.0978861,1,5.17723e-05,-1.90716e-05,1.18406e-05,0.0103545,-0.00381431,0.00236813,0.999325,-0.000982404,0.0367089,0.00095656,0.0457533,-0.273593,-0.885568,34.3125,1,51331,5180365
27,6,0.999325,-0.000982404,0.0367089,0.00095656,-0.721241,-0.0777685,9.78865,0.0847556,0.216151,0.883892,-0.00721612,-0.000787991,0.0978861,1,5.17723e-05,-1.90716e-05,1.18406e-05,0.0103545,-0.00381431,0.00236813,0.999325,-0.000982404,0.0367089,0.00095656,0.0457533,-0.273593,-0.885568,34.3125,1,51331,5180365
27,7,0.999325,-0.000973512,0.0366997,0.000948201,-0.720023,-0.0878752,9.78277,0.0841205,0.209518,0.875141,-0.00720095,-0.000884992,0.0978276,1,3.11695e-05,-3.76463e-06,9.81054e-06,0.0062339,-0.000752927,0.00196211,0.999325,-0.000973512,0.0366997,0.000948201,0.0453301,-0.272668,-0.882515,34.3125,1,51332,5180465
27,8,0.999325,-0.000973512,0.0366997,0.000948201,-0.720023,-0.0878752,9.78277,0.0841205,0.209518,0.875141,-0.00720095,-0.000884992,0.0978276,1,3.11695e-05,-3.76463e-06,9.81054e-06,0.0062339,-0.000752927,0.00196211,0.999325,-0.000973512,0.0366997,0.000948201,0.0453301,-0.272668,-0.882515,34.3125,1,51332,5180465
27,9,0.999325,-0.000973512,0.0366997,0.000948201,-0.720023,-0.0878752,9.78277,0.0841205,0.209518,0.875141,-0.00720095,-0.000884992,0.0978276,1,3.11695e-05,-3.76463e-06,9.81054e-06,0.0062339,-0.000752927,0.00196211,0.999325,-0.000973512,0.0366997,0.000948201,0.0453301,-0.272668,-0.882515,34.3125,1,51332,5180465
27,10,0.999326,-0.00092537,0.0366735,0.000968137,-0.717873,-0.0821225,9.78485,0.0900681,0.211338,0.879313,-0.00718301,-0.00083181,0.0978481,1,5.16046e-05,-2.21521e-05,3.38388e-05,0.0103209,-0.00443043,0.00676777,0.999326,-0.00092537,0.0366735,0.000968137,0.0439071,-0.273152,-0.882014,34.3125,1,51333,5180565
28,1,0.999326,-0.00092537,0.0366735,0.000968137,-0.717873,-0.0821225,9.78485,0.0900681,0.211338,0.879313,-0.00718301,-0.00083181,0.0978481,1,5.16046e-05,-2.21521e-05,3.38388e-05,0.0103209,-0.00443043,0.00676777,0.999326,-0.00092537,0.0366735,0.000968137,0.0439071,-0.273152,-0.882014,34.3125,1,51333,5180565
28,2,0.999326,-0.00092537,0.0366735,0.000968137,-0.717873,-0.0821225,9.78485,0.0900681,0.211338,0.879313,-0.00718301,-0.00083181,0.0978481,1,5.16046e-05,-2.21521e-05,3.38388e-05,0.0103209,-0.00443043,0.00676777,0.999326,-0.00092537,0.0366735,0.000968137,0.0439071,-0.273152,-0.882014,34.3125,1,51333,5180565
28,3,0.999327,-0.000885442,0.0366677,0.00099247,-0.719734,-0.0837357,9.78484,0.0806941,0.207108,0.876905,-0.00719804,-0.000845372,0.0978483,1,3.92236e-05,-3.74961e-06,2.35438e-05,0.00784472,-0.000749922,0.00470876,0.999327,-0.000885442,0.0366677,0.00099247,0.0443925,-0.272678,-0.8815,34.3125,1,51334,5180665
28,4,0.999327,-0.000885442,0.0366677,0.00099247,-0.719734,-0.0837357,9.78484,0.0806941,0.207108,0.876905,-0.00719804,-0.000845372,0.0978483,1,3.92236e-05,-3.74961e-06,2.35438e-05,0.00784472,-0.000749922,0.00470876,0.999327,-0.000885442,0.0366677,0.00099247,0.0443925,-0.272678,-0.8815,34.3125,1,51334,5180665
28,5,0.999327,-0.000885442,0.0366677,0.00099247,-0.719734,-0.0837357,9.78484,0.0806941,0.207108,0.876905,-0.00719804,-0.000845372,0.0978483,1,3.92236e-05,-3.74961e-06,2.35438e-05,0.00784472,-0.000749922,0.00470876,0.999327,-0.000885442,0.0366677,0.00099247,0.0443925,-0.272678,-0.8815,34.3125,1,51334,5180665
28,6,0.999327,-0.000843694,0.0366538,0.00101093,-0.720386,-0.0741413,9.78459,0.0808447,0.219147,0.876789,-0.00720606,-0.000749889,0.0978457,1,4.15518e-05,-1.14221e-05,2.39684e-05,0.00831037,-0.00228441,0.00479368,0.999327,-0.000843694,0.0366538,0.00101093,0.0428917,-0.272142,-0.883502,34.3125,1,51335,5180765
28,7,0.999327,-0.000843694,0.0366538,0.00101093,-0.720386,-0.0741413,9.78459,0.0808447,0.219147,0.876789,-0.00720606,-0.000749889,0.0978457,1,4.15518e-05,-1.14221e-05,2.39684e-05,0.00831037,-0.00228441,0.00479368,0.999327,-0.000843694,0.0366538,0.00101093,0.0428917,-0.272142,-0.883502,34.3125,1,51335,5180765
28,8,0.999327,-0.000843694,0.0366538,0.00101093,-0.720386,-0.0741413,9.78459,0.0808447,0.219147,0.876789,-0.00720606,-0.000749889,0.0978457,1,4.15518e-05,-1.14221e-05,2.39684e-05,0.00831037,-0.00228441,0.00479368,0.999327,-0.000843694,0.0366538,0.00101093,0.0428917,-0.272142,-0.883502,34.3125,1,51335,5180765
28,9,0.999328,-0.000804732,0.0366371,0.00103577,-0.726833,-0.0796335,9.78934,0.0732538,0.210877,0.883201,-0.00727067,-0.000805525,0.0978931,1,4.589e-05,-1.20698e-05,1.41395e-05,0.00917799,-0.00241396,0.00282791,0.999328,-0.000804732,0.0366371,0.00103577,0.0433273,-0.273076,-0.88605,34.3125,1,51336,5180865
28,10,0.999328,-0.000804732,0.0366371,0.00103577,-0.726833,-0.0796335,9.78934,0.0732538,0.210877,0.883201,-0.00727067,-0.000805525,0.0978931,1,4.589e-05,-1.20698e-05,1.41395e-05,0.00917799,-0.00241396,0.00282791,0.999328,-0.000804732,0.0366371,0.00103577,0.0433273,-0.273076,-0.88605,34.3125,1,51336,5180865
29,1,0.999328,-0.000804732,0.0366371,0.00103577,-0.726833,-0.0796335,9.78934,0.0732538,0.210877,0.883201,-0.00727067,-0.000805525,0.0978931,1,4.589e-05,-1.20698e-05,1.41395e-05,0.00917799,-0.00241396,0.00282791,0.999328,-0.000804732,0.0366371,0.00103577,0.0433273,-0.273076,-0.88605,34.3125,1,51336,5180865
29,2,0.999329,-0.000774279,0.0366193,0.00106452,-0.729204,-0.0702861,9.78537,0.0730135,0.221142,0.882656,-0.00729451,-0.000713362,0.0978534,1,5.20052e-05,-1.27945e-05,2.21206e-05,0.010401,-0.0025589,0.00442411,0.999329,-0.000774279,0.0366193,0.00106452,0.0452679,-0.274068,-0.886081,34.3125,1,51337,5180965
29,3,0.999329,-0.000774279,0.0366193,0.00106452,-0.729204,-0.0702861,9.78537,0.0730135,0.221142,0.882656,-0.00729451,-0.000713362,0.0978534,1,5.20052e-05,-1.27945e-05,2.21206e-05,0.010401,-0.0025589,0.00442411,0.999329,-0.000774279,0.0366193,0.00106452,0.0452679,-0.274068,-0.886081,34.3125,1,51337,5180965
29,4,0.999329,-0.000747636,0.0366,0.00107379,-0.722378,-0.0766923,9.78764,0.0777257,0.211779,0.882253,-0.00722628,-0.000777752,0.0978761,1,5.33909e-05,-1.29639e-05,2.61255e-05,0.0106782,-0.00259277,0.0052251,0.999329,-0.000747636,0.0366,0.00107379,0.0458354,-0.274135,-0.88255,34.3125,1,51338,5181065
29,5,0.999329,-0.000747636,0.0366,0.00107379,-0.722378,-0.0766923,9.78764,0.0777257,0.211779,0.882253,-0.00722628,-0.000777752,0.0978761,1,5.33909e-05,-1.29639e-05,2.61255e-05,0.0106782,-0.00259277,0.0052251,0.999329,-0.000747636,0.0366,0.00107379,0.0458354,-0.274135,-0.88255,34.3125,1,51338,5181065
29,6,0.999329,-0.000747636,0.0366,0.00107379,-0.722378,-0.0766923,9.78764,0.0777257,0.211779,0.882253,-0.00722628,-0.000777752,0.0978761,1,5.33909e-05,-1.29639e-05,2.61255e-05,0.0106782,-0.00259277,0.0052251,0.999329,-0.000747636,0.0366,0.00107379,0.0458354,-0.274135,-0.88255,34.3125,1,51338,5181065
29,7,0.99933,-0.000709041,0.0365873,0.00105026,-0.714608,-0.078426,9.78825,0.0862142,0.212266,0.880127,-0.00714798,-0.000793855,0.0978822,1,4.85777e-05,-9.76404e-06,5.94764e-06,0.00971555,-0.00195281,0.00118953,0.99933,-0.000709041,0.0365873,0.00105026,0.0448655,-0.272194,-0.881492,34.3125,1,51339,5181165
29,8,0.99933,-0.000709041,0.0365873,0.00105026,-0.714608,-0.078426,9.78825,0.0862142,0.212266,0.880127,-0.00714798,-0.000793855,0.0978822,1,4.85777e-05,-9.76404e-06,5.94764e-06,0.00971555,-0.00195281,0.00118953,0.99933,-0.000709041,0.0365873,0.00105026,0.0448655,-0.272194,-0.881492,34.3125,1,51339,5181165
29,9,0.99933,-0.000709041,0.0365873,0.00105026,-0.714608,-0.078426,9.78825,0.0862142,0.212266,0.880127,-0.00714798,-0.000793855,0.0978822,1,4.85777e-05,-9.76404e-06,5.94764e-06,0.00971555,-0.00195281,0.00118953,0.99933,-0.000709041,0.0365873,0.00105026,0.0448655,-0.272194,-0.881492,34.3125,1,51339,5181165
29,10,0.99933,-0.000673022,0.0365862,0.00106737,-0.721229,-0.0741599,9.78526,0.0813533,0.212622,0.879694,-0.0072119,-0.000748848,0.0978526,1,3.47569e-05,1.76215e-06,3.09479e-05,0.00695138,0.000352431,0.00618958,0.99933,-0.000673022,0.0365862,0.00106737,0.0453913,-0.274158,-0.881033,34.3125,1,51340,5181265
30,1,0.99933,-0.000673022,0.0365862,0.00106737,-0.721229,-0.0741599,9.78526,0.0813533,0.212622,0.879694,-0.0072119,-0.000748848,0.0978526,1,3.47569e-05,1.76215e-06,3.09479e-05,0.00695138,0.000352431,0.00618958,0.99933,-0.000673022,0.0365862,0.00106737,0.0453913,-0.274158,-0.881033,34.3125,1,51340,5181265
30,2,0.99933,-0.000673022,0.0365862,0.00106737,-0.721229,-0.0741599,9.78526,0.0813533,0.212622,0.879694,-0.0072119,-0.000748848,0.0978526,1,3.47569e-05,1.76215e-06,3.09479e-05,0.00695138,0.000352431,0.00618958,0.99933,-0.000673022,0.0365862,0.00106737,0.0453913,-0.274158,-0.881033,34.3125,1,51340,5181265
30,3,0.99933,-0.000641865,0.0365776,0.00106043,-0.728747,-0.0787775,9.79378,0.0746717,0.209121,0.889716,-0.0072891,-0.000794771,0.0979376,1,3.43659e-05,-8.44897e-06,1.81921e-05,0.00687319,-0.00168979,0.00363843,0.99933,-0.000641865,0.0365776,0.00106043,0.0453377,-0.274601,-0.883568,34.3125,1,51341,5181365
30,4,0.99933,-0.000641865,0.0365776,0.00106043,-0.728747,-0.0787775,9.79378,0.0746717,0.209121,0.889716,-0.0072891,-0.000794771,0.0979376,1,3.43659e-05,-8.44897e-06,1.81921e-05,0.00687319,-0.00168979,0.00363843,0.99933,-0.000641865,0.0365776,0.00106043,0.0453377,-0.274601,-0.883568,34.3125,1,51341,5181365
30,5,0.99933,-0.000641865,0.0365776,0.00106043,-0.728747,-0.0787775,9.79378,0.0746717,0.209121,0.889716,-0.0072891,-0.000794771,0.0979376,1,3.43659e-05,-8.44897e-06,1.81921e-05,0.00687319,-0.00168979,0.00363843,0.99933,-0.000641865,0.0365776,0.00106043,0.0453377,-0.274601,-0.883568,34.3125,1,51341,5181365
30,6,0.999331,-0.000618015,0.0365635,0.00106912,-0.716404,-0.0736373,9.78084,0.0803809,0.218433,0.874409,-0.00716637,-0.000744928,0.0978082,1,4.18311e-05,-1.20775e-05,2.59972e-05,0.00836622,-0.00241549,0.00519944,0.999331,-0.000618015,0.0365635,0.00106912,0.0447745,-0.274055,-0.886583,34.3125,1,51342,5181465
30,7,0.999331,-0.000618015,0.0365635,0.00106912,-0.716404,-0.0736373,9.78084,0.0803809,0.218433,0.874409,-0.00716637,-0.000744928,0.0978082,1,4.18311e-05,-1.20775e-05,2.59972e-05,0.00836622,-0.00241549,0.00519944,0.999331,-0.000618015,0.0365635,0.00106912,0.0447745,-0.274055,-0.886583,34.3125,1,51342,5181465
30,8,0.999331,-0.000618015,0.0365635,0.00106912,-0.716404,-0.0736373,9.78084,0.0803809,0.218433,0.874409,-0.00716637,-0.000744928,0.0978082,1,4.18311e-05,-1.20775e-05,2.59972e-05,0.00836622,-0.00241549,0.00519944,0.999331,-0.000618015,0.0365635,0.00106912,0.0447745,-0.274055,-0.886583,34.3125,1,51342,5181465
30,9,0.999332,-0.000596634,0.0365371,0.00107409,-0.715128,-0.0764153,9.78997,0.0835644,0.212218,0.881214,-0.00715539,-0.000774838,0.0978993,1,5.36052e-05,-2.10737e-05,1.32209e-05,0.010721,-0.00421473,0.00264417,0.999332,-0.000596634,0.0365371,0.00107409,0.0457163,-0.273566,-0.887082,34.3125,1,51343,5181565
30,10,0.999332,-0.000596634,0.0365371,0.00107409,-0.715128,-0.0764153,9.78997,0.0835644,0.212218,0.881214,-0.00715539,-0.000774838,0.0978993,1,5.36052e-05,-2.10737e-05,1.32209e-05,0.010721,-0.00421473,0.00264417,0.999332,-0.000596634,0.0365371,0.00107409,0.0457163,-0.273566,-0.887082,34.3125,1,51343,5181565
31,1,0.999332,-0.000596634,0.0365371,0.00107409,-0.715128,-0.0764153,9.78997,0.0835644,0.212218,0.881214,-0.00715539,-0.000774838,0.0978993,1,5.36052e-05,-2.10737e-05,1.32209e-05,0.010721,-0.00421473,0.00264417,0.999332,-0.000596634,0.0365371,0.00107409,0.0457163,-0.273566,-0.887082,34.3125,1,51343,5181565
31,2,0.999332,-0.00058541,0.0365163,0.00107157,-0.727495,-0.0774355,9.77749,0.0698455,0.212317,0.872861,-0.0072776,-0.000784327,0.0977746,1,4.96899e-05,-1.36884e-05,1.75477e-05,0.00993798,-0.00273767,0.00350954,0.999332,-0.00058541,0.0365163,0.00107157,0.0462557,-0.271203,-0.882991,34.3125,1,51344,5181665
31,3,0.999332,-0.00058541,0.0365163,0.00107157,-0.727495,-0.0774355,9.77749,0.0698455,0.212317,0.872861,-0.0072776,-0.000784327,0.0977746,1,4.96899e-05,-1.36884e-05,1.75477e-05,0.00993798,-0.00273767,0.00350954,0.999332,-0.00058541,0.0365163,0.00107157,0.0462557,-0.271203,-0.882991,34.3125,1,51344,5181665
31,4,0.999332,-0.00058541,0.0365163,0.00107157,-0.727495,-0.0774355,9.77749,0.0698455,0.212317,0.872861,-0.0072776,-0.000784327,0.0977746,1,4.96899e-05,-1.36884e-05,1.75477e-05,0.00993798,-0.00273767,0.00350954,0.999332,-0.00058541,0.0365163,0.00107157,0.0462557,-0.271203,-0.882991,34.3125,1,51344,5181665
31,5,0.999333,-0.000555383,0.036496,0.00105732,-0.713564,-0.0812619,9.78483,0.0854394,0.206102,0.876961,-0.00713757,-0.000820621,0.097848,1,4.00003e-05,-9.93556e-06,1.21892e-05,0.00800005,-0.00198711,0.00243784,0.999333,-0.000555383,0.036496,0.00105732,0.0448494,-0.271218,-0.88147,34.3125,1,51345,5181765
31,6,0.999333,-0.000555383,0.036496,0.00105732,-0.713564,-0.0812619,9.78483,0.0854394,0.206102,0.876961,-0.00713757,-0.000820621,0.097848,1,4.00003e-05,-9.93556e-06,1.21892e-05,0.00800005,-0.00198711,0.00243784,0.999333,-0.000555383,0.036496,0.00105732,0.0448494,-0.271218,-0.88147,34.3125,1,51345,5181765
31,7,0.999333,-0.000555383,0.036496,0.00105732,-0.713564,-0.0812619,9.78483,0.0854394,0.206102,0.876961,-0.00713757,-0.000820621,0.097848,1,4.00003e-05,-9.93556e-06,1.21892e-05,0.00800005,-0.00198711,0.00243784,0.999333,-0.000555383,0.036496,0.00105732,0.0448494,-0.271218,-0.88147,34.3125,1,51345,5181765
31,8,0.999334,-0.000502414,0.0364818,0.00106307,-0.726866,-0.0818602,9.78016,0.0716201,0.205508,0.875108,-0.00727006,-0.000828391,0.0978014,1,4.89801e-05,-7.27956e-06,1.43237e-05,0.00979602,-0.00145591,0.00286474,0.999334,-0.000502414,0.0364818,0.00106307,0.0439067,-0.274598,-0.883056,34.3125,1,51346,5181865
31,9,0.999334,-0.000502414,0.0364818,0.00106307,-0.726866,-0.0818602,9.78016,0.0716201,0.205508,0.875108,-0.00727006,-0.000828391,0.0978014,1,4.89801e-05,-7.27956e-06,1.43237e-05,0.00979602,-0.00145591,0.00286474,0.999334,-0.000502414,0.0364818,0.00106307,0.0439067,-0.274598,-0.883056,34.3125,1,51346,5181865
31,10,0.999334,-0.000502414,0.0364818,0.00106307,-0.726866,-0.0818602,9.78016,0.0716201,0.205508,0.875108,-0.00727006,-0.000828391,0.0978014,1,4.89801e-05,-7.27956e-06,1.43237e-05,0.00979602,-0.00145591,0.00286474,0.999334,-0.000502414,0.0364818,0.00106307,0.0439067,-0.274598,-0.883056,34.3125,1,51346,5181865
32,1,0.999334,-0.000478046,0.0364756,0.00108089,-0.718056,-0.0755589,9.78694,0.0835786,0.210224,0.878165,-0.00718198,-0.000762955,0.0978692,1,3.65078e-05,-7.37427e-06,1.53389e-05,0.00730156,-0.00147485,0.00306779,0.999334,-0.000478046,0.0364756,0.00108089,0.0438739,-0.274092,-0.884055,34.3125,1,51347,5181965
32,2,0.999334,-0.000478046,0.0364756,0.00108089,-0.718056,-0.0755589,9.78694,0.0835786,0.210224,0.878165,-0.00718198,-0.000762955,0.0978692,1,3.65078e-05,-7.37427e-06,1.53389e-05,0.00730156,-0.00147485,0.00306779,0.999334,-0.000478046,0.0364756,0.00108089,0.0438739,-0.274092,-0.884055,34.3125,1,51347,5181965
32,3,0.999334,-0.000478046,0.0364756,0.00108089,-0.718056,-0.0755589,9.78694,0.0835786,0.210224,0.878165,-0.00718198,-0.000762955,0.0978692,1,3.65078e-05,-7.37427e-06,1.53389e-05,0.00730156,-0.00147485,0.00306779,0.999334,-0.000478046,0.0364756,0.00108089,0.0438739,-0.274092,-0.884055,34.3125,1,51347,5181965
32,4,0.999334,-0.000469234,0.0364659,0.00110448,-0.728179,-0.0836001,9.78795,0.071995,0.197242,0.88467,-0.00728331,-0.000841387,0.0978793,1,2.60286e-05,-7.94606e-06,1.99527e-05,0.00520572,-0.00158921,0.00399054,0.999334,-0.000469234,0.0364659,0.00110448,0.0457571,-0.27456,-0.886094,34.3125,1,51348,5182065
32,5,0.999334,-0.000469234,0.0364659,0.00110448,-0.728179,-0.0836001,9.78795,0.071995,0.197242,0.88467,-0.00728331,-0.000841387,0.0978793,1,2.60286e-05,-7.94606e-06,1.99527e-05,0.00520572,-0.00158921,0.00399054,0.999334,-0.000469234,0.0364659,0.00110448,0.0457571,-0.27456,-0.886094,34.3125,1,51348,5182065
32,6,0.999334,-0.000469234,0.0364659,0.00110448,-0.728179,-0.0836001,9.78795,0.071995,0.197242,0.88467,-0.00728331,-0.000841387,0.0978793,1,2.60286e-05,-7.94606e-06,1.99527e-05,0.00520572,-0.00158921,0.00399054,0.999334,-0.000469234,0.0364659,0.00110448,0.0457571,-0.27456,-0.886094,34.3125,1,51348,5182065
32,7,0.999335,-0.000450825,0.0364547,0.00107938,-0.719414,-0.0757343,9.78661,0.0828653,0.205857,0.876811,-0.00719537,-0.000768228,0.0978659,1,5.54454e-05,-6.30311e-06,2.27059e-06,0.0110891,-0.00126062,0.000454117,0.999335,-0.000450825,0.0364547,0.00107938,0.0456878,-0.272581,-0.887565,34.3125,1,51349,5182165
32,8,0.999335,-0.000450825,0.0364547,0.00107938,-0.719414,-0.0757343,9.78661,0.0828653,0.205857,0.876811,-0.00719537,-0.000768228,0.0978659,1,5.54454e-05,-6.30311e-06,2.27059e-06,0.0110891,-0.00126062,0.000454117,0.999335,-0.000450825,0.0364547,0.00107938,0.0456878,-0.272581,-0.887565,34.3125,1,51349,5182165
32,9,0.999335,-0.000450825,0.0364547,0.00107938,-0.719414,-0.0757343,9.78661,0.0828653,0.205857,0.876811,-0.00719537,-0.000768228,0.0978659,1,5.54454e-05,-6.30311e-06,2.27059e-06,0.0110891,-0.00126062,0.000454117,0.999335,-0.000450825,0.0364547,0.00107938,0.0456878,-0.272581,-0.887565,34.3125,1,51349,5182165
32,10,0.999336,-0.00044423,0.0364224,0.0010675,-0.716821,-0.0807751,9.78317,0.0820546,0.20144,0.878542,-0.00717243,-0.000817487,0.0978313,1,4.91029e-05,-2.16646e-05,8.97044e-06,0.00982059,-0.00433293,0.00179409,0.999336,-0.00044423,0.0364224,0.0010675,0.0462429,-0.27264,-0.884538,34.3125,1,51350,5182265
33,1,0.999336,-0.00044423,0.0364224,0.0010675,-0.716821,-0.0807751,9.78317,0.0820546,0.20144,0.878542,-0.00717243,-0.000817487,0.0978313,1,4.91029e-05,-2.16646e-05,8.97044e-06,0.00982059,-0.00433293,0.00179409,0.999336,-0.00044423,0.0364224,0.0010675,0.0462429,-0.27264,-0.884538,34.3125,1,51350,5182265
33,2,0.999336,-0.00044423,0.0364224,0.0010675,-0.716821,-0.0807751,9.78317,0.0820546,0.20144,0.878542,-0.00717243,-0.000817487,0.0978313,1,4.91029e-05,-2.16646e-05,8.97044e-06,0.00982059,-0.00433293,0.00179409,0.999336,-0.00044423,0.0364224,0.0010675,0.0462429,-0.27264,-0.884538,34.3125,1,51350,5182265
33,3,0.999337,-0.000412918,0.0363996,0.00105475,-0.721712,-0.0735743,9.78461,0.0754066,0.209304,0.875599,-0.00722014,-0.000746526,0.0978458,1,5.33051e-05,-1.56351e-05,2.43932e-05,0.010661,-0.00312702,0.00487864,0.999337,-0.000412918,0.0363996,0.00105475,0.0453709,-0.273661,-0.881527,34.3125,1,51351,5182365
33,4,0.999337,-0.000412918,0.0363996,0.00105475,-0.721712,-0.0735743,9.78461,0.0754066,0.209304,0.875599,-0.00722014,-0.000746526,0.0978458,1,5.33051e-05,-1.56351e-05,2.43932e-05,0.010661,-0.00312702,0.00487864,0.999337,-0.000412918,0.0363996,0.00105475,0.0453709,-0.273661,-0.881527,34.3125,1,51351,5182365
33,5,0.999337,-0.000412918,0.0363996,0.00105475,-0.721712,-0.0735743,9.78461,0.0754066,0.209304,0.875599,-0.00722014,-0.000746526,0.0978458,1,5.33051e-05,-1.56351e-05,2.43932e-05,0.010661,-0.00312702,0.00487864,0.999337,-0.000412918,0.0363996,0.00105475,0.0453709,-0.273661,-0.881527,34.3125,1,51351,5182365
33,6,0.999337,-0.000372212,0.0363808,0.00105524,-0.723661,-0.0834027,9.78996,0.0713483,0.199261,0.881598,-0.00724017,-0.000842164,0.0978993,1,3.9814e-05,-1.83898e-05,2.35925e-05,0.0079628,-0.00367796,0.0047185,0.999337,-0.000372212,0.0363808,0.00105524,0.0458477,-0.274144,-0.882045,34.3125,1,51352,5182465
33,7,0.999337,-0.000372212,0.0363808,0.00105524,-0.723661,-0.0834027,9.78996,0.0713483,0.199261,0.881598,-0.00724017,-0.000842164,0.0978993,1,3.9814e-05,-1.83898e-05,2.35925e-05,0.0079628,-0.00367796,0.0047185,0.999337,-0.000372212,0.0363808,0.00105524,0.0458477,-0.274144,-0.882045,34.3125,1,51352,5182465
33,8,0.999337,-0.000372212,0.0363808,0.00105524,-0.723661,-0.0834027,9.78996,0.0713483,0.199261,0.881598,-0.00724017,-0.000842164,0.0978993,1,3.9814e-05,-1.83898e-05,2.35925e-05,0.0079628,-0.00367796,0.0047185,0.999337,-0.000372212,0.0363808,0.00105524,0.0458477,-0.274144,-0.882045,34.3125,1,51352,5182465
33,9,0.999338,-0.000334613,0.0363736,0.00103634,-0.722711,-0.0822966,9.79031,0.0699617,0.198159,0.884349,-0.0072282,-0.000832398,0.0979029,1,4.71585e-05,-5.68471e-06,1.3763e-05,0.00943169,-0.00113694,0.0027526,0.999338,-0.000334613,0.0363736,0.00103634,0.0457775,-0.275056,-0.8856,34.3125,1,51353,5182565
33,10,0.999338,-0.000334613,0.0363736,0.00103634,-0.722711,-0.0822966,9.79031,0.0699617,0.198159,0.884349,-0.0072282,-0.000832398,0.0979029,1,4.71585e-05,-5.68471e-06,1.3763e-05,0.00943169,-0.00113694,0.0027526,0.999338,-0.000334613,0.0363736,0.00103634,0.0457775,-0.275056,-0.8856,34.3125,1,51353,5182565
34,1,0.999338,-0.000334613,0.0363736,0.00103634,-0.722711,-0.0822966,9.79031,0.0699617,0.198159,0.884349,-0.0072282,-0.000832398,0.0979029,1,4.71585e-05,-5.68471e-06,1.3763e-05,0.00943169,-0.00113694,0.0027526,0.999338,-0.000334613,0.0363736,0.00103634,0.0457775,-0.275056,-0.8856,34.3125,1,51353,5182565
34,2,0.999338,-0.000334808,0.0363656,0.00103467,-0.720116,-0.0805829,9.78012,0.0746276,0.199372,0.874554,-0.0072024,-0.000812931,0.097801,1,3.45651e-05,-6.54336e-06,2.36948e-05,0.00691302,-0.00130867,0.00473896,0.999338,-0.000334808,0.0363656,0.00103467,0.0443138,-0.274548,-0.886087,34.3125,1,51354,5182665
34,3,0.999338,-0.000334808,0.0363656,0.00103467,-0.720116,-0.0805829,9.78012,0.0746276,0.199372,0.874554,-0.0072024,-0.000812931,0.097801,1,3.45651e-05,-6.54336e-06,2.36948e-05,0.00691302,-0.00130867,0.00473896,0.999338,-0.000334808,0.0363656,0.00103467,0.0443138,-0.274548,-0.886087,34.3125,1,51354,5182665
34,4,0.999338,-0.000334808,0.0363656,0.00103467,-0.720116,-0.0805829,9.78012,0.0746276,0.199372,0.874554,-0.0072024,-0.000812931,0.097801,1,3.45651e-05,-6.54336e-06,2.36948e-05,0.00691302,-0.00130867,0.00473896,0.999338,-0.000334808,0.0363656,0.00103467,0.0443138,-0.274548,-0.886087,34.3125,1,51354,5182665
34,5,0.999339,-0.000326307,0.0363446,0.00106938,-0.709396,-0.0798427,9.78854,0.0881954,0.200939,0.880876,-0.00709784,-0.00080661,0.0978851,1,3.99313e-05,-2.0014e-05,2.57047e-05,0.00798627,-0.00400279,0.00514094,0.999339,-0.000326307,0.0363446,0.00106938,0.0433235,-0.27211,-0.885523,34.3125,1,51355,5182765
34,6,0.999339,-0.000326307,0.0363446,0.00106938,-0.709396,-0.0798427,9.78854,0.0881954,0.200939,0.880876,-0.00709784,-0.00080661,0.0978851,1,3.99313e-05,-2.0014e-05,2.57047e-05,0.00798627,-0.00400279,0.00514094,0.999339,-0.000326307,0.0363446,0.00106938,0.0433235,-0.27211,-0.885523,34.3125,1,51355,5182765
34,7,0.999339,-0.000326307,0.0363446,0.00106938,-0.709396,-0.0798427,9.78854,0.0881954,0.200939,0.880876,-0.00709784,-0.00080661,0.0978851,1,3.99313e-05,-2.0014e-05,2.57047e-05,0.00798627,-0.00400279,0.00514094,0.999339,-0.000326307,0.0363446,0.00106938,0.0433235,-0.27211,-0.885523,34.3125,1,51355,5182765
34,8,0.999339,-0.00030261,0.0363304,0.0011288,-0.726076,-0.0891528,9.78416,0.0667158,0.191646,0.878179,-0.00726233,-0.000900113,0.0978414,1,4.20846e-05,-8.26819e-06,2.40635e-05,0.00841693,-0.00165364,0.0048127,0.999339,-0.00030261,0.0363304,0.0011288,0.0448081,-0.27167,-0.8835,34.3125,1,51356,5182865
34,9,0.999339,-0.00030261,0.0363304,0.0011288,-0.726076,-0.0891528,9.78416,0.0667158,0.191646,0.878179,-0.00726233,-0.000900113,0.0978414,1,4.20846e-05,-8.26819e-06,2.40635e-05,0.00841693,-0.00165364,0.0048127,0.999339,-0.00030261,0.0363304,0.0011288,0.0448081,-0.27167,-0.8835,34.3125,1,51356,5182865
34,10,0.999339,-0.00030261,0.0363304,0.0011288,-0.726076,-0.0891528,9.78416,0.0667158,0.191646,0.878179,-0.00726233,-0.000900113,0.0978414,1,4.20846e-05,-8.26819e-06,2.40635e-05,0.00841693,-0.00165364,0.0048127,0.999339,-0.00030261,0.0363304,0.0011288,0.0448081,-0.27167,-0.8835,34.3125,1,51356,5182865
35,1,0.99934,-0.000260325,0.0363175,0.00113051,-0.731257,-0.0825717,9.78595,0.0668978,0.198923,0.87976,-0.0073141,-0.000835744,0.0978593,1,5.07552e-05,-7.8845e-06,6.36479e-06,0.010151,-0.0015769,0.00127296,0.99934,-0.000260325,0.0363175,0.00113051,0.0453381,-0.273155,-0.882526,34.3125,1,51357,5182965
35,2,0.99934,-0.000260325,0.0363175,0.00113051,-0.731257,-0.0825717,9.78595,0.0668978,0.198923,0.87976,-0.0073141,-0.000835744,0.0978593,1,5.07552e-05,-7.8845e-06,6.36479e-06,0.010151,-0.0015769,0.00127296,0.99934,-0.000260325,0.0363175,0.00113051,0.0453381,-0.273155,-0.882526,34.3125,1,51357,5182965
35,3,0.99934,-0.000260325,0.0363175,0.00113051,-0.731257,-0.0825717,9.78595,0.0668978,0.198923,0.87976,-0.0073141,-0.000835744,0.0978593,1,5.07552e-05,-7.8845e-06,6.36479e-06,0.010151,-0.0015769,0.00127296,0.99934,-0.000260325,0.0363175,0.00113051,0.0453381,-0.273155,-0.882526,34.3125,1,51357,5182965
35,4,0.99934,-0.000216762,0.0363066,0.00113383,-0.703746,-0.0727969,9.78687,0.0879526,0.208533,0.878363,-0.00703922,-0.000738372,0.0978685,1,5.1327e-05,-9.18481e-06,2.53282e-05,0.0102654,-0.00183696,0.00506565,0.99934,-0.000216762,0.0363066,0.00113383,0.0453785,-0.275594,-0.88258,34.3125,1,51358,5183065
35,5,0.99934,-0.000216762,0.0363066,0.00113383,-0.703746,-0.0727969,9.78687,0.0879526,0.208533,0.878363,-0.00703922,-0.000738372,0.0978685,1,5.1327e-05,-9.18481e-06,2.53282e-05,0.0102654,-0.00183696,0.00506565,0.99934,-0.000216762,0.0363066,0.00113383,0.0453785,-0.275594,-0.88258,34.3125,1,51358,5183065
35,6,0.99934,-0.000216762,0.0363066,0.00113383,-0.703746,-0.0727969,9.78687,0.0879526,0.208533,0.878363,-0.00703922,-0.000738372,0.0978685,1,5.1327e-05,-9.18481e-06,2.53282e-05,0.0102654,-0.00183696,0.00506565,0.99934,-0.000216762,0.0363066,0.00113383,0.0453785,-0.275594,-0.88258,34.3125,1,51358,5183065
35,7,0.99934,-0.000197557,0.0362976,0.00111836,-0.717708,-0.0710731,9.78053,0.0767609,0.207224,0.87546,-0.00717942,-0.000717506,0.0978051,1,3.41684e-05,-1.20363e-05,6.29936e-06,0.00683369,-0.00240726,0.00125987,0.99934,-0.000197557,0.0362976,0.00111836,0.04484,-0.275066,-0.884586,34.3125,1,51359,5183165
35,8,0.99934,-0.000197557,0.0362976,0.00111836,-0.717708,-0.0710731,9.78053,0.0767609,0.207224,0.87546,-0.00717942,-0.000717506,0.0978051,1,3.41684e-05,-1.20363e-05,6.29936e-06,0.00683369,-0.00240726,0.00125987,0.99934,-0.000197557,0.0362976,0.00111836,0.04484,-0.275066,-0.884586,34.3125,1,51359,5183165
35,9,0.99934,-0.000197557,0.0362976,0.00111836,-0.717708,-0.0710731,9.78053,0.0767609,0.207224,0.87546,-0.00717942,-0.000717506,0.0978051,1,3.41684e-05,-1.20363e-05,6.29936e-06,0.00683369,-0.00240726,0.00125987,0.99934,-0.000197557,0.0362976,0.00111836,0.04484,-0.275066,-0.884586,34.3125,1,51359,5183165
35,10,0.999341,-0.000183341,0.0362797,0.00110752,-0.725456,-0.0755032,9.78462,0.0705862,0.199973,0.878871,-0.00725827,-0.000762911,0.0978458,1,4.03636e-05,-1.89224e-05,-1.35772e-06,0.00807273,-0.00378448,-0.000271543,0.999341,-0.000183341,0.0362797,0.00110752,0.0443304,-0.274078,-0.885067,34.3125,1,51360,5183265
35,11,0.999341,-0.000183341,0.0362797,0.00110752,-0.725456,-0.0755032,9.78462,0.0705862,0.199973,0.878871,-0.00725827,-0.000762911,0.0978458,1,4.03636e-05,-1.89224e-05,-1.35772e-06,0.00807273,-0.00378448,-0.000271543,0.999341,-0.000183341,0.0362797,0.00110752,0.0443304,-0.274078,-0.885067,34.3125,1,51360,5183265
35,12,0.999341,-0.000183341,0.0362797,0.00110752,-0.725456,-0.0755032,9.78462,0.0705862,0.199973,0.878871,-0.00725827,-0.000762911,0.0978458,1,4.03636e-05,-1.89224e-05,-1.35772e-06,0.00807273,-0.00378448,-0.000271543,0.999341,-0.000183341,0.0362797,0.00110752,0.0443304,-0.274078,-0.885067,34.3125,1,51360,5183265
36,1,0.999342,-0.000153723,0.0362625,0.00113236,-0.70836,-0.0811176,9.7892,0.0842046,0.199398,0.884495,-0.00708678,-0.000822123,0.0978917,1,5.43073e-05,-1.64322e-05,2.21617e-05,0.0108615,-0.00328645,0.00443235,0.999342,-0.000153723,0.0362625,0.00113236,0.0448034,-0.273594,-0.885058,34.3125,1,51361,5183365
36,2,0.999342,-0.000153723,0.0362625,0.00113236,-0.70836,-0.0811176,9.7892,0.0842046,0.199398,0.884495,-0.00708678,-0.000822123,0.0978917,1,5.43073e-05,-1.64322e-05,2.21617e-05,0.0108615,-0.00328645,0.00443235,0.999342,-0.000153723,0.0362625,0.00113236,0.0448034,-0.273594,-0.885058,34.3125,1,51361,5183365
36,3,0.999342,-0.000153723,0.0362625,0.00113236,-0.70836,-0.0811176,9.7892,0.0842046,0.199398,0.884495,-0.00708678,-0.000822123,0.0978917,1,5.43073e-05,-1.64322e-05,2.21617e-05,0.0108615,-0.00328645,0.00443235,0.999342,-0.000153723,0.0362625,0.00113236,0.0448034,-0.273594,-0.885058,34.3125,1,51361,5183365
36,4,0.999342,-0.000137198,0.0362547,0.0011397,-0.719744,-0.0720834,9.79105,0.0798237,0.204039,0.884727,-0.0071986,-0.000729187,0.0979104,1,4.1632e-05,-6.03317e-06,1.3927e-05,0.00832639,-0.00120663,0.0027854,0.999342,-0.000137198,0.0362547,0.0011397,0.045778,-0.273611,-0.884558,34.3125,1,51362,5183465
36,5,0.999342,-0.000137198,0.0362547,0.0011397,-0.719744,-0.0720834,9.79105,0.0798237,0.204039,0.884727,-0.0071986,-0.000729187,0.0979104,1,4.1632e-05,-6.03317e-06,1.3927e-05,0.00832639,-0.00120663,0.0027854,0.999342,-0.000137198,0.0362547,0.0011397,0.045778,-0.273611,-0.884558,34.3125,1,51362,5183465
36,6,0.999342,-0.000137198,0.0362547,0.0011397,-0.719744,-0.0720834,9.79105,0.0798237,0.204039,0.884727,-0.0071986,-0.000729187,0.0979104,1,4.1632e-05,-6.03317e-06,1.3927e-05,0.00832639,-0.00120663,0.0027854,0.999342,-0.000137198,0.0362547,0.0011397,0.045778,-0.273611,-0.884558,34.3125,1,51362,5183465
36,7,0.999342,-0.000130222,0.0362451,0.00112483,-0.717447,-0.0747244,9.78253,0.0776766,0.199235,0.879051,-0.00717583,-0.000753466,0.0978251,1,3.09161e-05,-7.08193e-06,1.20776e-05,0.00618321,-0.00141639,0.00241552,0.999342,-0.000130222,0.0362451,0.00112483,0.0443764,-0.271702,-0.881479,34.3125,1,51363,5183565
36,8,0.999342,-0.000130222,0.0362451,0.00112483,-0.717447,-0.0747244,9.78253,0.0776766,0.199235,0.879051,-0.00717583,-0.000753466,0.0978251,1,3.09161e-05,-7.08193e-06,1.20776e-05,0.00618321,-0.00141639,0.00241552,0.999342,-0.000130222,0.0362451,0.00112483,0.0443764,-0.271702,-0.881479,34.3125,1,51363,5183565
36,9,0.999342,-0.000130222,0.0362451,0.00112483,-0.717447,-0.0747244,9.78253,0.0776766,0.199235,0.879051,-0.00717583,-0.000753466,0.0978251,1,3.09161e-05,-7.08193e-06,1.20776e-05,0.00618321,-0.00141639,0.00241552,0.999342,-0.000130222,0.0362451,0.00112483,0.0443764,-0.271702,-0.881479,34.3125,1,51363,5183565
36,10,0.999343,-7.52951e-05,0.0362212,0.00116491,-0.727005,-0.0799062,9.78765,0.070431,0.198263,0.883951,-0.00727397,-0.000809343,0.0978761,1,5.00307e-05,-2.03031e-05,3.35218e-05,0.0100061,-0.00406062,0.00670437,0.999343,-7.52951e-05,0.0362212,0.00116491,0.0453875,-0.273191,-0.880506,34.3125,1,51364,5183665
36,11,0.999343,-7.52951e-05,0.0362212,0.00116491,-0.727005,-0.0799062,9.78765,0.070431,0.198263,0.883951,-0.00727397,-0.000809343,0.0978761,1,5.00307e-05,-2.03031e-05,3.35218e-05,0.0100061,-0.00406062,0.00670437,0.999343,-7.52951e-05,0.0362212,0.00116491,0.0453875,-0.273191,-0.880506,34.3125,1,51364,5183665
36,12,0.999343,-7.52951e-05,0.0362212,0.00116491,-0.727005,-0.0799062,9.78765,0.070431,0.198263,0.883951,-0.00727397,-0.000809343,0.0978761,1,5.00307e-05,-2.03031e-05,3.35218e-05,0.0100061,-0.00406062,0.00670437,0.999343,-7.52951e-05,0.0362212,0.00116491,0.0453875,-0.273191,-0.880506,34.3125,1,51364,5183665
37,1,0.999343,-3.60844e-05,0.0362187,0.00115995,-0.714481,-0.068609,9.78663,0.081831,0.207277,0.880616,-0.00714504,-0.000693957,0.0978662,1,3.8972e-05,-1.2945e-06,1.67659e-05,0.0077944,-0.000258901,0.00335318,0.999343,-3.60844e-05,0.0362187,0.00115995,0.0443508,-0.274575,-0.884573,34.3125,1,51365,5183765
37,2,0.999343,-3.60844e-05,0.0362187,0.00115995,-0.714481,-0.068609,9.78663,0.081831,0.207277,0.880616,-0.00714504,-0.000693957,0.0978662,1,3.8972e-05,-1.2945e-06,1.67659e-05,0.0077944,-0.000258901,0.00335318,0.999343,-3.60844e-05,0.0362187,0.00115995,0.0443508,-0.274575,-0.884573,34.3125,1,51365,5183765
37,3,0.999343,-3.60844e-05,0.0362187,0.00115995,-0.714481,-0.068609,9.78663,0.081831,0.207277,0.880616,-0.00714504,-0.000693957,0.0978662,1,3.8972e-05,-1.2945e-06,1.67659e-05,0.0077944,-0.000258901,0.00335318,0.999343,-3.60844e-05,0.0362187,0.00115995,0.0443508,-0.274575,-0.884573,34.3125,1,51365,5183765
37,4,0.999344,-1.57628e-05,0.0362071,0.00116636,-0.714415,-0.083359,9.78991,0.0769807,0.193627,0.884314,-0.00714669,-0.000842672,0.0978988,1,4.58845e-05,-1.30216e-05,6.83352e-06,0.0091769,-0.00260432,0.0013667,0.999344,-1.57628e-05,0.0362071,0.00116636,0.044783,-0.273097,-0.885552,34.3125,1,51366,5183865
37,5,0.999344,-1.57628e-05,0.0362071,0.00116636,-0.714415,-0.083359,9.78991,0.0769807,0.193627,0.884314,-0.00714669,-0.000842672,0.0978988,1,4.58845e-05,-1.30216e-05,6.83352e-06,0.0091769,-0.00260432,0.0013667,0.999344,-1.57628e-05,0.0362071,0.00116636,0.044783,-0.273097,-0.885552,34.3125,1,51366,5183865
37,6,0.999344,-1.57628e-05,0.0362071,0.00116636,-0.714415,-0.083359,9.78991,0.0769807,0.193627,0.884314,-0.00714669,-0.000842672,0.0978988,1,4.58845e-05,-1.30216e-05,6.83352e-06,0.0091769,-0.00260432,0.0013667,0.999344,-1.57628e-05,0.0362071,0.00116636,0.044783,-0.273097,-0.885552,34.3125,1,51366,5183865
37,7,0.999344,4.17456e-06,0.0361961,0.00117967,-0.707425,-0.0824589,9.78681,0.0818678,0.19118,0.879815,-0.00707602,-0.000834396,0.0978678,1,4.88181e-05,-9.16767e-06,1.77325e-05,0.00976362,-0.00183353,0.00354649,0.999344,4.17456e-06,0.0361961,0.00117967,0.0452522,-0.271647,-0.885017,34.3125,1,51367,5183965
37,8,0.999344,4.17456e-06,0.0361961,0.00117967,-0.707425,-0.0824589,9.78681,0.0818678,0.19118,0.879815,-0.00707602,-0.000834396,0.0978678,1,4.88181e-05,-9.16767e-06,1.77325e-05,0.00976362,-0.00183353,0.00354649,0.999344,4.17456e-06,0.0361961,0.00117967,0.0452522,-0.271647,-0.885017,34.3125,1,51367,5183965
37,9,0.999344,4.17456e-06,0.0361961,0.00117967,-0.707425,-0.0824589,9.78681,0.0818678,0.19118,0.879815,-0.00707602,-0.000834396,0.0978678,1,4.88181e-05,-9.16767e-06,1.77325e-05,0.00976362,-0.00183353,0.00354649,0.999344,4.17456e-06,0.0361961,0.00117967,0.0452522,-0.271647,-0.885017,34.3125,1,51367,5183965
37,10,0.999345,1.66768e-05,0.0361752,0.00119597,-0.710738,-0.0815476,9.78074,0.0792222,0.191089,0.874193,-0.00711067,-0.000823058,0.0978071,1,3.69344e-05,-1.70396e-05,2.50747e-05,0.00738689,-0.00340793,0.00501494,0.999345,1.66768e-05,0.0361752,0.00119597,0.0453097,-0.272171,-0.883009,34.3125,1,51368,5184065
37,11,0.999345,1.66768e-05,0.0361752,0.00119597,-0.710738,-0.0815476,9.78074,0.0792222,0.191089,0.874193,-0.00711067,-0.000823058,0.0978071,1,3.69344e-05,-1.70396e-05,2.50747e-05,0.00738689,-0.00340793,0.00501494,0.999345,1.66768e-05,0.0361752,0.00119597,0.0453097,-0.272171,-0.883009,34.3125,1,51368,5184065
37,12,0.999345,1.66768e-05,0.0361752,0.00119597,-0.710738,-0.0815476,9.78074,0.0792222,0.191089,0.874193,-0.00711067,-0.000823058,0.0978071,1,3.69344e-05,-1.70396e-05,2.50747e-05,0.00738689,-0.00340793,0.00501494,0.999345,1.66768e-05,0.0361752,0.00119597,0.0453097,-0.272171,-0.883009,34.3125,1,51368,5184065
38,1,0.999345,5.36214e-05,0.0361625,0.00120042,-0.714375,-0.0724942,9.77676,0.0785698,0.20086,0.871315,-0.0071457,-0.000734932,0.0977674,1,4.95575e-05,-1.01458e-05,2.09978e-05,0.0099115,-0.00202916,0.00419955,0.999345,5.36214e-05,0.0361625,0.00120042,0.0434383,-0.273157,-0.881507,34.3125,1,51369,5184165
38,2,0.999345,5.36214e-05,0.0361625,0.00120042,-0.714375,-0.0724942,9.77676,0.0785698,0.20086,0.871315,-0.0071457,-0.000734932,0.0977674,1,4.95575e-05,-1.01458e-05,2.09978e-05,0.0099115,-0.00202916,0.00419955,0.999345,5.36214e-05,0.0361625,0.00120042,0.0434383,-0.273157,-0.881507,34.3125,1,51369,5184165
38,3,0.999345,5.36214e-05,0.0361625,0.00120042,-0.714375,-0.0724942,9.77676,0.0785698,0.20086,0.871315,-0.0071457,-0.000734932,0.0977674,1,4.95575e-05,-1.01458e-05,2.09978e-05,0.0099115,-0.00202916,0.00419955,0.999345,5.36214e-05,0.0361625,0.00120042,0.0434383,-0.273157,-0.881507,34.3125,1,51369,5184165
38,4,0.999345,0.000104966,0.0361574,0.00125075,-0.726206,-0.0754325,9.78631,0.0702974,0.196712,0.883775,-0.00726318,-0.000765491,0.097863,1,5.44582e-05,-5.97163e-06,3.49319e-05,0.0108916,-0.00119433,0.00698639,0.999345,0.000104966,0.0361574,0.00125075,0.04299,-0.273659,-0.880506,34.3125,1,51370,5184265
38,5,0.999345,0.000104966,0.0361574,0.00125075,-0.726206,-0.0754325,9.78631,0.0702974,0.196712,0.883775,-0.00726318,-0.000765491,0.097863,1,5.44582e-05,-5.97163e-06,3.49319e-05,0.0108916,-0.00119433,0.00698639,0.999345,0.000104966,0.0361574,0.00125075,0.04299,-0.273659,-0.880506,34.3125,1,51370,5184265
38,6,0.999345,0.000104966,0.0361574,0.00125075,-0.726206,-0.0754325,9.78631,0.0702974,0.196712,0.883775,-0.00726318,-0.000765491,0.097863,1,5.44582e-05,-5.97163e-06,3.49319e-05,0.0108916,-0.00119433,0.00698639,0.999345,0.000104966,0.0361574,0.00125075,0.04299,-0.273659,-0.880506,34.3125,1,51370,5184265
38,7,0.999345,0.000145479,0.0361532,0.00127838,-0.72141,-0.0829585,9.78215,0.0659482,0.187112,0.877722,-0.00721534,-0.000838042,0.0978213,1,4.24404e-05,-6.42797e-06,1.06636e-05,0.00848808,-0.00128559,0.00213272,0.999345,0.000145479,0.0361532,0.00127838,0.0438867,-0.272656,-0.882508,34.3125,1,51371,5184365
38,8,0.999345,0.000145479,0.0361532,0.00127838,-0.72141,-0.0829585,9.78215,0.0659482,0.187112,0.877722,-0.00721534,-0.000838042,0.0978213,1,4.24404e-05,-6.42797e-06,1.06636e-05,0.00848808,-0.00128559,0.00213272,0.999345,0.000145479,0.0361532,0.00127838,0.0438867,-0.272656,-0.882508,34.3125,1,51371,5184365
38,9,0.999345,0.000145479,0.0361532,0.00127838,-0.72141,-0.0829585,9.78215,0.0659482,0.187112,0.877722,-0.00721534,-0.000838042,0.0978213,1,4.24404e-05,-6.42797e-06,1.06636e-05,0.00848808,-0.00128559,0.00213272,0.999345,0.000145479,0.0361532,0.00127838,0.0438867,-0.272656,-0.882508,34.3125,1,51371,5184365
38,10,0.999346,0.000168538,0.0361396,0.00130219,-0.713464,-0.0741502,9.79337,0.0786533,0.194393,0.886545,-0.00713732,-0.000749239,0.0979335,1,3.79534e-05,-1.38693e-05,2.12507e-05,0.00759068,-0.00277385,0.00425015,0.999346,0.000168538,0.0361396,0.00130219,0.0448404,-0.273621,-0.883544,34.3125,1,51372,5184465
38,11,0.999346,0.000168538,0.0361396,0.00130219,-0.713464,-0.0741502,9.79337,0.0786533,0.194393,0.886545,-0.00713732,-0.000749239,0.0979335,1,3.79534e-05,-1.38693e-05,2.12507e-05,0.00759068,-0.00277385,0.00425015,0.999346,0.000168538,0.0361396,0.00130219,0.0448404,-0.273621,-0.883544,34.3125,1,51372,5184465
38,12,0.999346,0.000168538,0.0361396,0.00130219,-0.713464,-0.0741502,9.79337,0.0786533,0.194393,0.886545,-0.00713732,-0.000749239,0.0979335,1,3.79534e-05,-1.38693e-05,2.12507e-05,0.00759068,-0.00277385,0.00425015,0.999346,0.000168538,0.0361396,0.00130219,0.0448404,-0.273621,-0.883544,34.3125,1,51372,5184465
39,1,0.999347,0.000192261,0.0361228,0.00130497,-0.726768,-0.0775723,9.79105,0.0658528,0.188293,0.884123,-0.00727093,-0.000785155,0.0979102,1,4.67692e-05,-1.67078e-05,1.88333e-05,0.00935383,-0.00334157,0.00376666,0.999347,0.000192261,0.0361228,0.00130497,0.045313,-0.274583,-0.884577,34.3125,1,51373,5184565
39,2,0.999347,0.000192261,0.0361228,0.00130497,-0.726768,-0.0775723,9.79105,0.0658528,0.188293,0.884123,-0.00727093,-0.000785155,0.0979102,1,4.67692e-05,-1.67078e-05,1.88333e-05,0.00935383,-0.00334157,0.00376666,0.999347,0.000192261,0.0361228,0.00130497,0.045313,-0.274583,-0.884577,34.3125,1,51373,5184565
39,3,0.999347,0.000209925,0.0361075,0.0012928,-0.716087,-0.0830329,9.79162,0.0732806,0.186369,0.886803,-0.00716386,-0.000839999,0.0979159,1,4.84699e-05,-1.53687e-05,1.23843e-05,0.00969397,-0.00307374,0.00247686,0.999347,0.000209925,0.0361075,0.0012928,0.0448238,-0.274091,-0.884564,34.3125,1,51374,5184665
39,4,0.999347,0.000209925,0.0361075,0.0012928,-0.716087,-0.0830329,9.79162,0.0732806,0.186369,0.886803,-0.00716386,-0.000839999,0.0979159,1,4.84699e-05,-1.53687e-05,1.23843e-05,0.00969397,-0.00307374,0.00247686,0.999347,0.000209925,0.0361075,0.0012928,0.0448238,-0.274091,-0.884564,34.3125,1,51374,5184665
39,5,0.999347,0.000209925,0.0361075,0.0012928,-0.716087,-0.0830329,9.79162,0.0732806,0.186369,0.886803,-0.00716386,-0.000839999,0.0979159,1,4.84699e-05,-1.53687e-05,1.23843e-05,0.00969397,-0.00307374,0.00247686,0.999347,0.000209925,0.0361075,0.0012928,0.0448238,-0.274091,-0.884564,34.3125,1,51374,5184665
39,6,0.999348,0.000233053,0.0360865,0.00129344,-0.714672,-0.0664527,9.78259,0.0748035,0.202216,0.877096,-0.00715083,-0.000675036,0.0978255,1,5.25488e-05,-2.11041e-05,1.59128e-05,0.0105098,-0.00422081,0.00318257,0.999348,0.000233053,0.0360865,0.00129344,0.0429202,-0.273126,-0.883019,34.3125,1,51375,5184765
39,7,0.999348,0.000233053,0.0360865,0.00129344,-0.714672,-0.0664527,9.78259,0.0748035,0.202216,0.877096,-0.00715083,-0.000675036,0.0978255,1,5.25488e-05,-2.11041e-05,1.59128e-05,0.0105098,-0.00422081,0.00318257,0.999348,0.000233053,0.0360865,0.00129344,0.0429202,-0.273126,-0.883019,34.3125,1,51375,5184765
39,8,0.999348,0.000233053,0.0360865,0.00129344,-0.714672,-0.0664527,9.78259,0.0748035,0.202216,0.877096,-0.00715083,-0.000675036,0.0978255,1,5.25488e-05,-2.11041e-05,1.59128e-05,0.0105098,-0.00422081,0.00318257,0.999348,0.000233053,0.0360865,0.00129344,0.0429202,-0.273126,-0.883019,34.3125,1,51375,5184765
39,9,0.999348,0.000259489,0.0360726,0.00133582,-0.723704,-0.0820158,9.78624,0.0669111,0.188007,0.880957,-0.00723998,-0.000828721,0.0978622,1,4.23808e-05,-1.51934e-05,1.84533e-05,0.00847616,-0.00303868,0.00369065,0.999348,0.000259489,0.0360726,0.00133582,0.0439517,-0.275112,-0.881552,34.3125,1,51376,5184865
39,10,0.999348,0.000259489,0.0360726,0.00133582,-0.723704,-0.0820158,9.78624,0.0669111,0.188007,0.880957,-0.00723998,-0.000828721,0.0978622,1,4.23808e-05,-1.51934e-05,1.84533e-05,0.00847616,-0.00303868,0.00369065,0.999348,0.000259489,0.0360726,0.00133582,0.0439517,-0.275112,-0.881552,34.3125,1,51376,5184865
39,11,0.999348,0.000259489,0.0360726,0.00133582,-0.723704,-0.0820158,9.78624,0.0669111,0.188007,0.880957,-0.00723998,-0.000828721,0.0978622,1,4.23808e-05,-1.51934e-05,1.84533e-05,0.00847616,-0.00303868,0.00369065,0.999348,0.000259489,0.0360726,0.00133582,0.0439517,-0.275112,-0.881552,34.3125,1,51376,5184865
39,12,0.999349,0.000292241,0.0360614,0.00134554,-0.712466,-0.0829909,9.79634,0.0767704,0.187456,0.887091,-0.0071272,-0.000839098,0.0979631,1,4.57632e-05,-1.31449e-05,1.55962e-05,0.00915263,-0.00262899,0.00311923,0.999349,0.000292241,0.0360614,0.00134554,0.0444035,-0.277022,-0.884122,34.3125,1,51377,5184965
40,1,0.999349,0.000292241,0.0360614,0.00134554,-0.712466,-0.0829909,9.79634,0.0767704,0.187456,0.887091,-0.0071272,-0.000839098,0.0979631,1,4.57632e-05,-1.31449e-05,1.55962e-05,0.00915263,-0.00262899,0.00311923,0.999349,0.000292241,0.0360614,0.00134554,0.0444035,-0.277022,-0.884122,34.3125,1,51377,5184965
40,2,0.999349,0.000292241,0.0360614,0.00134554,-0.712466,-0.0829909,9.79634,0.0767704,0.187456,0.887091,-0.0071272,-0.000839098,0.0979631,1,4.57632e-05,-1.31449e-05,1.55962e-05,0.00915263,-0.00262899,0.00311923,0.999349,0.000292241,0.0360614,0.00134554,0.0444035,-0.277022,-0.884122,34.3125,1,51377,5184965
40,3,0.999349,0.000299935,0.0360449,0.00135149,-0.726053,-0.075615,9.78666,0.0635473,0.190132,0.882893,-0.00726429,-0.000764278,0.0978663,1,3.99407e-05,-1.93512e-05,2.13718e-05,0.00798815,-0.00387023,0.00427436,0.999349,0.000299935,0.0360449,0.00135149,0.0443299,-0.275523,-0.886109,34.3125,1,51378,5185065
40,4,0.999349,0.000299935,0.0360449,0.00135149,-0.726053,-0.075615,9.78666,0.0635473,0.190132,0.882893,-0.00726429,-0.000764278,0.0978663,1,3.99407e-05,-1.93512e-05,2.13718e-05,0.00798815,-0.00387023,0.00427436,0.999349,0.000299935,0.0360449,0.00135149,0.0443299,-0.275523,-0.886109,34.3125,1,51378,5185065
40,5,0.999349,0.000299935,0.0360449,0.00135149,-0.726053,-0.075615,9.78666,0.0635473,0.190132,0.882893,-0.00726429,-0.000764278,0.0978663,1,3.99407e-05,-1.93512e-05,2.13718e-05,0.00798815,-0.00387023,0.00427436,0.999349,0.000299935,0.0360449,0.00135149,0.0443299,-0.275523,-0.886109,34.3125,1,51378,5185065
