frame_id,imu_idx,quat_w,quat_x,quat_y,quat_z,accel_x,accel_y,accel_z,free_accel_x,free_accel_y,free_accel_z,delta_v_x,delta_v_y,delta_v_z,delta_q_w,delta_q_x,delta_q_y,delta_q_z,rate_x,rate_y,rate_z,quat_w,quat_x,quat_y,quat_z,mag_x,mag_y,mag_z,temperature,status_byte,packet_counter,time_fine
2669,1,0.819147,-0.0201508,0.0374325,0.572006,-0.308162,0.0971066,10.2994,0.710999,0.684327,1.31276,-0.00307418,0.000972128,0.102995,0.999998,5.53476e-05,1.70012e-05,-0.00202445,0.0110695,0.00340025,-0.404889,0.819147,-0.0201508,0.0374325,0.572006,0.476946,0.27608,-0.969787,33.875,3,3449,7013245
2669,2,0.819147,-0.0201508,0.0374325,0.572006,-0.515446,-0.0511605,7.34818,0.710999,0.684327,1.31276,-0.00515786,-0.000515271,0.0734815,1,2.35793e-05,-2.32458e-05,1.95e-05,0.00471586,-0.00464916,0.0039,0.819147,-0.0201508,0.0374325,0.572006,0.0526487,0.537611,-0.96252,33.8125,1,8516,7521480
1,1,0.819147,-0.0201508,0.0374325,0.572006,-0.515446,-0.0511605,7.34818,0.710999,0.684327,1.31276,-0.00515786,-0.000515271,0.0734815,1,2.35793e-05,-2.32458e-05,1.95e-05,0.00471586,-0.00464916,0.0039,0.819147,-0.0201508,0.0374325,0.572006,0.0526487,0.537611,-0.96252,33.8125,1,8516,7521480
1,2,0.819147,-0.0201508,0.0374325,0.572006,-0.515446,-0.0511605,7.34818,0.710999,0.684327,1.31276,-0.00515786,-0.000515271,0.0734815,1,2.35793e-05,-2.32458e-05,1.95e-05,0.00471586,-0.00464916,0.0039,0.819147,-0.0201508,0.0374325,0.572006,0.0526487,0.537611,-0.96252,33.8125,1,8516,7521480
1,3,0.999381,-0.00345309,0.0350192,-0.000113557,-0.680166,-0.0623836,9.78738,0.0890937,-0.518968,0.966313,-0.00680405,-0.000632177,0.0978736,1,4.18871e-05,-1.22637e-05,1.03955e-05,0.00837742,-0.00245274,0.0020791,0.999381,-0.00345309,0.0350192,-0.000113557,0.0506872,0.537655,-0.964025,33.8125,1,8517,7521580
1,4,0.999381,-0.00345309,0.0350192,-0.000113557,-0.680166,-0.0623836,9.78738,0.0890937,-0.518968,0.966313,-0.00680405,-0.000632177,0.0978736,1,4.18871e-05,-1.22637e-05,1.03955e-05,0.00837742,-0.00245274,0.0020791,0.999381,-0.00345309,0.0350192,-0.000113557,0.0506872,0.537655,-0.964025,33.8125,1,8517,7521580
2,1,0.999381,-0.00345309,0.0350192,-0.000113557,-0.680166,-0.0623836,9.78738,0.0890937,-0.518968,0.966313,-0.00680405,-0.000632177,0.0978736,1,4.18871e-05,-1.22637e-05,1.03955e-05,0.00837742,-0.00245274,0.0020791,0.999381,-0.00345309,0.0350192,-0.000113557,0.0506872,0.537655,-0.964025,33.8125,1,8517,7521580
2,2,0.999381,-0.00340994,0.0349994,-0.000113598,-0.6768,-0.0535134,9.78947,0.0920447,-0.51332,0.969767,-0.00677001,-0.000543198,0.0978945,1,3.968e-05,-1.0399e-05,2.17799e-05,0.007936,-0.00207979,0.00435599,0.999381,-0.00340994,0.0349994,-0.000113598,0.0483789,0.533267,-0.963102,33.8125,1,8518,7521680
3,1,0.999381,-0.00340994,0.0349994,-0.000113598,-0.6768,-0.0535134,9.78947,0.0920447,-0.51332,0.969767,-0.00677001,-0.000543198,0.0978945,1,3.968e-05,-1.0399e-05,2.17799e-05,0.007936,-0.00207979,0.00435599,0.999381,-0.00340994,0.0349994,-0.000113598,0.0483789,0.533267,-0.963102,33.8125,1,8518,7521680
3,2,0.999381,-0.00340994,0.0349994,-0.000113598,-0.6768,-0.0535134,9.78947,0.0920447,-0.51332,0.969767,-0.00677001,-0.000543198,0.0978945,1,3.968e-05,-1.0399e-05,2.17799e-05,0.007936,-0.00207979,0.00435599,0.999381,-0.00340994,0.0349994,-0.000113598,0.0483789,0.533267,-0.963102,33.8125,1,8518,7521680
7,1,0.999382,-0.00337985,0.0349858,-0.00010024,-0.679191,-0.0536483,9.78813,0.0964978,-0.506557,0.96702,-0.00679465,-0.000542457,0.0978811,1,2.96086e-05,-1.40648e-05,1.31112e-05,0.00592172,-0.00281296,0.00262225,0.999382,-0.00337985,0.0349858,-0.00010024,0.0470414,0.529828,-0.961152,33.8125,1,8519,7521780
7,2,0.999382,-0.00337985,0.0349858,-0.00010024,-0.679191,-0.0536483,9.78813,0.0964978,-0.506557,0.96702,-0.00679465,-0.000542457,0.0978811,1,2.96086e-05,-1.40648e-05,1.31112e-05,0.00592172,-0.00281296,0.00262225,0.999382,-0.00337985,0.0349858,-0.00010024,0.0470414,0.529828,-0.961152,33.8125,1,8519,7521780
8,1,0.999382,-0.00337985,0.0349858,-0.00010024,-0.679191,-0.0536483,9.78813,0.0964978,-0.506557,0.96702,-0.00679465,-0.000542457,0.0978811,1,2.96086e-05,-1.40648e-05,1.31112e-05,0.00592172,-0.00281296,0.00262225,0.999382,-0.00337985,0.0349858,-0.00010024,0.0470414,0.529828,-0.961152,33.8125,1,8519,7521780
8,2,0.999383,-0.00334555,0.0349731,-9.72675e-05,-0.686631,-0.0563297,9.78816,0.0868235,-0.514154,0.965937,-0.00686881,-0.000570046,0.0978814,1,3.41739e-05,-1.27629e-05,4.2693e-06,0.00683478,-0.00255257,0.000853861,0.999383,-0.00334555,0.0349731,-9.72675e-05,0.0475434,0.530773,-0.959618,33.8125,1,8520,7521880
8,3,0.999383,-0.00334555,0.0349731,-9.72675e-05,-0.686631,-0.0563297,9.78816,0.0868235,-0.514154,0.965937,-0.00686881,-0.000570046,0.0978814,1,3.41739e-05,-1.27629e-05,4.2693e-06,0.00683478,-0.00255257,0.000853861,0.999383,-0.00334555,0.0349731,-9.72675e-05,0.0475434,0.530773,-0.959618,33.8125,1,8520,7521880
8,4,0.999383,-0.00334555,0.0349731,-9.72675e-05,-0.686631,-0.0563297,9.78816,0.0868235,-0.514154,0.965937,-0.00686881,-0.000570046,0.0978814,1,3.41739e-05,-1.27629e-05,4.2693e-06,0.00683478,-0.00255257,0.000853861,0.999383,-0.00334555,0.0349731,-9.72675e-05,0.0475434,0.530773,-0.959618,33.8125,1,8520,7521880
8,5,0.999383,-0.0032973,0.0349613,-8.49096e-05,-0.677429,-0.0576843,9.7925,0.0938071,-0.51073,0.967179,-0.00677656,-0.000586536,0.0979248,1,4.84977e-05,-1.16825e-05,1.43813e-05,0.00969955,-0.0023365,0.00287627,0.999383,-0.0032973,0.0349613,-8.49096e-05,0.0499703,0.533146,-0.957051,33.8125,1,8521,7521980
8,6,0.999383,-0.0032973,0.0349613,-8.49096e-05,-0.677429,-0.0576843,9.7925,0.0938071,-0.51073,0.967179,-0.00677656,-0.000586536,0.0979248,1,4.84977e-05,-1.16825e-05,1.43813e-05,0.00969955,-0.0023365,0.00287627,0.999383,-0.0032973,0.0349613,-8.49096e-05,0.0499703,0.533146,-0.957051,33.8125,1,8521,7521980
9,1,0.999383,-0.0032973,0.0349613,-8.49096e-05,-0.677429,-0.0576843,9.7925,0.0938071,-0.51073,0.967179,-0.00677656,-0.000586536,0.0979248,1,4.84977e-05,-1.16825e-05,1.43813e-05,0.00969955,-0.0023365,0.00287627,0.999383,-0.0032973,0.0349613,-8.49096e-05,0.0499703,0.533146,-0.957051,33.8125,1,8521,7521980
9,2,0.999384,-0.00325062,0.0349543,-7.05723e-05,-0.694053,-0.0662743,9.7905,0.0772932,-0.523802,0.963401,-0.00694192,-0.000672048,0.0979048,1,4.64395e-05,-7.24196e-06,1.52475e-05,0.0092879,-0.00144839,0.0030495,0.999384,-0.00325062,0.0349543,-7.05723e-05,0.0518335,0.534621,-0.958542,33.8125,1,8522,7522080
9,3,0.999384,-0.00325062,0.0349543,-7.05723e-05,-0.694053,-0.0662743,9.7905,0.0772932,-0.523802,0.963401,-0.00694192,-0.000672048,0.0979048,1,4.64395e-05,-7.24196e-06,1.52475e-05,0.0092879,-0.00144839,0.0030495,0.999384,-0.00325062,0.0349543,-7.05723e-05,0.0518335,0.534621,-0.958542,33.8125,1,8522,7522080
9,4,0.999384,-0.00325062,0.0349543,-7.05723e-05,-0.694053,-0.0662743,9.7905,0.0772932,-0.523802,0.963401,-0.00694192,-0.000672048,0.0979048,1,4.64395e-05,-7.24196e-06,1.52475e-05,0.0092879,-0.00144839,0.0030495,0.999384,-0.00325062,0.0349543,-7.05723e-05,0.0518335,0.534621,-0.958542,33.8125,1,8522,7522080
9,5,0.999384,-0.00320522,0.0349404,-7.43113e-05,-0.686538,-0.0661847,9.79011,0.0848771,-0.523129,0.967023,-0.00686812,-0.000670649,0.0979008,1,4.51077e-05,-1.39643e-05,-2.22949e-06,0.00902154,-0.00279286,-0.000445897,0.999384,-0.00320522,0.0349404,-7.43113e-05,0.0517026,0.536644,-0.962537,33.8125,1,8523,7522180
9,6,0.999384,-0.00320522,0.0349404,-7.43113e-05,-0.686538,-0.0661847,9.79011,0.0848771,-0.523129,0.967023,-0.00686812,-0.000670649,0.0979008,1,4.51077e-05,-1.39643e-05,-2.22949e-06,0.00902154,-0.00279286,-0.000445897,0.999384,-0.00320522,0.0349404,-7.43113e-05,0.0517026,0.536644,-0.962537,33.8125,1,8523,7522180
10,1,0.999384,-0.00320522,0.0349404,-7.43113e-05,-0.686538,-0.0661847,9.79011,0.0848771,-0.523129,0.967023,-0.00686812,-0.000670649,0.0979008,1,4.51077e-05,-1.39643e-05,-2.22949e-06,0.00902154,-0.00279286,-0.000445897,0.999384,-0.00320522,0.0349404,-7.43113e-05,0.0517026,0.536644,-0.962537,33.8125,1,8523,7522180
10,2,0.999385,-0.00316592,0.0349329,-6.00615e-05,-0.674582,-0.0645526,9.80124,0.0939955,-0.522831,0.975685,-0.00674728,-0.000653345,0.0980122,1,3.8812e-05,-7.54178e-06,1.55716e-05,0.0077624,-0.00150836,0.00311432,0.999385,-0.00316592,0.0349329,-6.00615e-05,0.0516855,0.534729,-0.9646,33.8125,1,8524,7522280
11,1,0.999385,-0.00316592,0.0349329,-6.00615e-05,-0.674582,-0.0645526,9.80124,0.0939955,-0.522831,0.975685,-0.00674728,-0.000653345,0.0980122,1,3.8812e-05,-7.54178e-06,1.55716e-05,0.0077624,-0.00150836,0.00311432,0.999385,-0.00316592,0.0349329,-6.00615e-05,0.0516855,0.534729,-0.9646,33.8125,1,8524,7522280
11,2,0.999385,-0.00316592,0.0349329,-6.00615e-05,-0.674582,-0.0645526,9.80124,0.0939955,-0.522831,0.975685,-0.00674728,-0.000653345,0.0980122,1,3.8812e-05,-7.54178e-06,1.55716e-05,0.0077624,-0.00150836,0.00311432,0.999385,-0.00316592,0.0349329,-6.00615e-05,0.0516855,0.534729,-0.9646,33.8125,1,8524,7522280
11,3,0.999385,-0.00311011,0.0349224,-5.84989e-05,-0.678764,-0.060566,9.7857,0.0888176,-0.525167,0.964691,-0.00678969,-0.000616356,0.0978567,1,5.44359e-05,-1.0533e-05,3.07684e-06,0.0108872,-0.00210659,0.000615368,0.999385,-0.00311011,0.0349224,-5.84989e-05,0.0483993,0.53277,-0.962608,33.8125,1,8525,7522380
11,4,0.999385,-0.00311011,0.0349224,-5.84989e-05,-0.678764,-0.060566,9.7857,0.0888176,-0.525167,0.964691,-0.00678969,-0.000616356,0.0978567,1,5.44359e-05,-1.0533e-05,3.07684e-06,0.0108872,-0.00210659,0.000615368,0.999385,-0.00311011,0.0349224,-5.84989e-05,0.0483993,0.53277,-0.962608,33.8125,1,8525,7522380
11,5,0.999385,-0.00311011,0.0349224,-5.84989e-05,-0.678764,-0.060566,9.7857,0.0888176,-0.525167,0.964691,-0.00678969,-0.000616356,0.0978567,1,5.44359e-05,-1.0533e-05,3.07684e-06,0.0108872,-0.00210659,0.000615368,0.999385,-0.00311011,0.0349224,-5.84989e-05,0.0483993,0.53277,-0.962608,33.8125,1,8525,7522380
11,6,0.999386,-0.00306409,0.0348965,-3.98053e-05,-0.676606,-0.0629703,9.78228,0.0902394,-0.525601,0.962523,-0.00677111,-0.000638792,0.0978224,1,4.50782e-05,-2.59557e-05,1.99339e-05,0.00901563,-0.00519113,0.00398677,0.999386,-0.00306409,0.0348965,-3.98053e-05,0.0475808,0.532191,-0.957061,33.8125,1,8526,7522480
12,1,0.999386,-0.00306409,0.0348965,-3.98053e-05,-0.676606,-0.0629703,9.78228,0.0902394,-0.525601,0.962523,-0.00677111,-0.000638792,0.0978224,1,4.50782e-05,-2.59557e-05,1.99339e-05,0.00901563,-0.00519113,0.00398677,0.999386,-0.00306409,0.0348965,-3.98053e-05,0.0475808,0.532191,-0.957061,33.8125,1,8526,7522480
12,2,0.999386,-0.00306409,0.0348965,-3.98053e-05,-0.676606,-0.0629703,9.78228,0.0902394,-0.525601,0.962523,-0.00677111,-0.000638792,0.0978224,1,4.50782e-05,-2.59557e-05,1.99339e-05,0.00901563,-0.00519113,0.00398677,0.999386,-0.00306409,0.0348965,-3.98053e-05,0.0475808,0.532191,-0.957061,33.8125,1,8526,7522480
12,3,0.999387,-0.00302643,0.0348734,-1.97431e-05,-0.671263,-0.0551335,9.78434,0.0973702,-0.51916,0.95965,-0.00671712,-0.000558763,0.097843,1,3.64911e-05,-2.31023e-05,2.13739e-05,0.00729822,-0.00462047,0.00427478,0.999387,-0.00302643,0.0348734,-1.97431e-05,0.0500035,0.534086,-0.95501,33.8125,1,8527,7522580
12,4,0.999387,-0.00302643,0.0348734,-1.97431e-05,-0.671263,-0.0551335,9.78434,0.0973702,-0.51916,0.95965,-0.00671712,-0.000558763,0.097843,1,3.64911e-05,-2.31023e-05,2.13739e-05,0.00729822,-0.00462047,0.00427478,0.999387,-0.00302643,0.0348734,-1.97431e-05,0.0500035,0.534086,-0.95501,33.8125,1,8527,7522580
10,1,0.999387,-0.00302643,0.0348734,-1.97431e-05,-0.671263,-0.0551335,9.78434,0.0973702,-0.51916,0.95965,-0.00671712,-0.000558763,0.097843,1,3.64911e-05,-2.31023e-05,2.13739e-05,0.00729822,-0.00462047,0.00427478,0.999387,-0.00302643,0.0348734,-1.97431e-05,0.0500035,0.534086,-0.95501,33.8125,1,8527,7522580
10,2,0.999388,-0.00298001,0.0348689,-1.59519e-05,-0.686956,-0.0607185,9.79117,0.086227,-0.523165,0.959456,-0.00687041,-0.000616298,0.0979116,1,4.61508e-05,-4.37728e-06,5.43503e-06,0.00923016,-0.000875457,0.00108701,0.999388,-0.00298001,0.0348689,-1.59519e-05,0.0503579,0.536584,-0.958492,33.8125,1,8528,7522680
14,1,0.999388,-0.00298001,0.0348689,-1.59519e-05,-0.686956,-0.0607185,9.79117,0.086227,-0.523165,0.959456,-0.00687041,-0.000616298,0.0979116,1,4.61508e-05,-4.37728e-06,5.43503e-06,0.00923016,-0.000875457,0.00108701,0.999388,-0.00298001,0.0348689,-1.59519e-05,0.0503579,0.536584,-0.958492,33.8125,1,8528,7522680
14,2,0.999388,-0.00298001,0.0348689,-1.59519e-05,-0.686956,-0.0607185,9.79117,0.086227,-0.523165,0.959456,-0.00687041,-0.000616298,0.0979116,1,4.61508e-05,-4.37728e-06,5.43503e-06,0.00923016,-0.000875457,0.00108701,0.999388,-0.00298001,0.0348689,-1.59519e-05,0.0503579,0.536584,-0.958492,33.8125,1,8528,7522680
14,3,0.999388,-0.00293506,0.0348668,8.3129e-06,-0.681937,-0.0619829,9.78604,0.0845633,-0.52417,0.956691,-0.00681976,-0.000628739,0.0978603,1,4.37349e-05,-2.1418e-06,2.56653e-05,0.00874699,-0.000428361,0.00513307,0.999388,-0.00293506,0.0348668,8.3129e-06,0.0497411,0.536687,-0.964042,33.8125,1,8529,7522780
14,4,0.999388,-0.00293506,0.0348668,8.3129e-06,-0.681937,-0.0619829,9.78604,0.0845633,-0.52417,0.956691,-0.00681976,-0.000628739,0.0978603,1,4.37349e-05,-2.1418e-06,2.56653e-05,0.00874699,-0.000428361,0.00513307,0.999388,-0.00293506,0.0348668,8.3129e-06,0.0497411,0.536687,-0.964042,33.8125,1,8529,7522780
14,5,0.999388,-0.00293506,0.0348668,8.3129e-06,-0.681937,-0.0619829,9.78604,0.0845633,-0.52417,0.956691,-0.00681976,-0.000628739,0.0978603,1,4.37349e-05,-2.1418e-06,2.56653e-05,0.00874699,-0.000428361,0.00513307,0.999388,-0.00293506,0.0348668,8.3129e-06,0.0497411,0.536687,-0.964042,33.8125,1,8529,7522780
14,6,0.999388,-0.00290187,0.0348596,1.8177e-05,-0.700545,-0.0630987,9.79328,0.0654023,-0.530116,0.972357,-0.00700687,-0.000637578,0.0979327,1,3.28869e-05,-7.3035e-06,1.07046e-05,0.00657738,-0.0014607,0.00214093,0.999388,-0.00290187,0.0348596,1.8177e-05,0.0487941,0.532829,-0.966144,33.8125,1,8530,7522880
15,1,0.999388,-0.00290187,0.0348596,1.8177e-05,-0.700545,-0.0630987,9.79328,0.0654023,-0.530116,0.972357,-0.00700687,-0.000637578,0.0979327,1,3.28869e-05,-7.3035e-06,1.07046e-05,0.00657738,-0.0014607,0.00214093,0.999388,-0.00290187,0.0348596,1.8177e-05,0.0487941,0.532829,-0.966144,33.8125,1,8530,7522880
15,2,0.999388,-0.00290187,0.0348596,1.8177e-05,-0.700545,-0.0630987,9.79328,0.0654023,-0.530116,0.972357,-0.00700687,-0.000637578,0.0979327,1,3.28869e-05,-7.3035e-06,1.07046e-05,0.00657738,-0.0014607,0.00214093,0.999388,-0.00290187,0.0348596,1.8177e-05,0.0487941,0.532829,-0.966144,33.8125,1,8530,7522880
16,1,0.999389,-0.00286161,0.0348463,2.42624e-05,-0.677396,-0.0640827,9.78938,0.0911287,-0.533842,0.964439,-0.00677656,-0.000648692,0.0978936,1,3.96706e-05,-1.33178e-05,7.20667e-06,0.00793413,-0.00266356,0.00144133,0.999389,-0.00286161,0.0348463,2.42624e-05,0.0470163,0.528401,-0.963204,33.8125,1,8531,7522980
16,2,0.999389,-0.00286161,0.0348463,2.42624e-05,-0.677396,-0.0640827,9.78938,0.0911287,-0.533842,0.964439,-0.00677656,-0.000648692,0.0978936,1,3.96706e-05,-1.33178e-05,7.20667e-06,0.00793413,-0.00266356,0.00144133,0.999389,-0.00286161,0.0348463,2.42624e-05,0.0470163,0.528401,-0.963204,33.8125,1,8531,7522980
16,3,0.999389,-0.00286161,0.0348463,2.42624e-05,-0.677396,-0.0640827,9.78938,0.0911287,-0.533842,0.964439,-0.00677656,-0.000648692,0.0978936,1,3.96706e-05,-1.33178e-05,7.20667e-06,0.00793413,-0.00266356,0.00144133,0.999389,-0.00286161,0.0348463,2.42624e-05,0.0470163,0.528401,-0.963204,33.8125,1,8531,7522980
16,4,0.999389,-0.00280864,0.0348377,3.66949e-05,-0.682354,-0.0520921,9.78646,0.0853946,-0.516572,0.969868,-0.00682523,-0.000531142,0.0978645,1,5.12693e-05,-8.73397e-06,1.36553e-05,0.0102539,-0.00174679,0.00273106,0.999389,-0.00280864,0.0348377,3.66949e-05,0.0471647,0.529738,-0.956104,33.8125,1,8532,7523080
16,5,0.999389,-0.00280864,0.0348377,3.66949e-05,-0.682354,-0.0520921,9.78646,0.0853946,-0.516572,0.969868,-0.00682523,-0.000531142,0.0978645,1,5.12693e-05,-8.73397e-06,1.36553e-05,0.0102539,-0.00174679,0.00273106,0.999389,-0.00280864,0.0348377,3.66949e-05,0.0471647,0.529738,-0.956104,33.8125,1,8532,7523080
16,6,0.999389,-0.00280864,0.0348377,3.66949e-05,-0.682354,-0.0520921,9.78646,0.0853946,-0.516572,0.969868,-0.00682523,-0.000531142,0.0978645,1,5.12693e-05,-8.73397e-06,1.36553e-05,0.0102539,-0.00174679,0.00273106,0.999389,-0.00280864,0.0348377,3.66949e-05,0.0471647,0.529738,-0.956104,33.8125,1,8532,7523080
17,1,0.99939,-0.00275195,0.0348299,5.9722e-05,-0.687958,-0.0579079,9.79222,0.0888433,-0.520409,0.970583,-0.00688112,-0.000590305,0.097922,1,5.55535e-05,-8.03747e-06,2.51884e-05,0.0111107,-0.00160749,0.00503767,0.99939,-0.00275195,0.0348299,5.9722e-05,0.0480952,0.533126,-0.955023,33.8125,1,8533,7523180
17,2,0.99939,-0.00275195,0.0348299,5.9722e-05,-0.687958,-0.0579079,9.79222,0.0888433,-0.520409,0.970583,-0.00688112,-0.000590305,0.097922,1,5.55535e-05,-8.03747e-06,2.51884e-05,0.0111107,-0.00160749,0.00503767,0.99939,-0.00275195,0.0348299,5.9722e-05,0.0480952,0.533126,-0.955023,33.8125,1,8533,7523180
18,1,0.99939,-0.00275195,0.0348299,5.9722e-05,-0.687958,-0.0579079,9.79222,0.0888433,-0.520409,0.970583,-0.00688112,-0.000590305,0.097922,1,5.55535e-05,-8.03747e-06,2.51884e-05,0.0111107,-0.00160749,0.00503767,0.99939,-0.00275195,0.0348299,5.9722e-05,0.0480952,0.533126,-0.955023,33.8125,1,8533,7523180
18,2,0.99939,-0.00269897,0.0348259,5.51548e-05,-0.681155,-0.0722118,9.78425,0.0836263,-0.541225,0.956166,-0.00681234,-0.000732337,0.0978424,1,5.24372e-05,-3.97306e-06,-3.06793e-06,0.0104874,-0.000794612,-0.000613585,0.99939,-0.00269897,0.0348259,5.51548e-05,0.0498763,0.535143,-0.959532,33.8125,1,8534,7523280
19,1,0.99939,-0.00269897,0.0348259,5.51548e-05,-0.681155,-0.0722118,9.78425,0.0836263,-0.541225,0.956166,-0.00681234,-0.000732337,0.0978424,1,5.24372e-05,-3.97306e-06,-3.06793e-06,0.0104874,-0.000794612,-0.000613585,0.99939,-0.00269897,0.0348259,5.51548e-05,0.0498763,0.535143,-0.959532,33.8125,1,8534,7523280
19,2,0.99939,-0.00269897,0.0348259,5.51548e-05,-0.681155,-0.0722118,9.78425,0.0836263,-0.541225,0.956166,-0.00681234,-0.000732337,0.0978424,1,5.24372e-05,-3.97306e-06,-3.06793e-06,0.0104874,-0.000794612,-0.000613585,0.99939,-0.00269897,0.0348259,5.51548e-05,0.0498763,0.535143,-0.959532,33.8125,1,8534,7523280
19,3,0.99939,-0.00265755,0.0348173,7.48736e-05,-0.689982,-0.0642764,9.78608,0.0819091,-0.536571,0.957392,-0.00690151,-0.000651094,0.0978606,1,4.10677e-05,-8.76185e-06,2.12153e-05,0.00821355,-0.00175237,0.00424306,0.99939,-0.00265755,0.0348173,7.48736e-05,0.0506786,0.536697,-0.965056,33.8125,1,8535,7523380
19,4,0.99939,-0.00265755,0.0348173,7.48736e-05,-0.689982,-0.0642764,9.78608,0.0819091,-0.536571,0.957392,-0.00690151,-0.000651094,0.0978606,1,4.10677e-05,-8.76185e-06,2.12153e-05,0.00821355,-0.00175237,0.00424306,0.99939,-0.00265755,0.0348173,7.48736e-05,0.0506786,0.536697,-0.965056,33.8125,1,8535,7523380
19,5,0.99939,-0.00265755,0.0348173,7.48736e-05,-0.689982,-0.0642764,9.78608,0.0819091,-0.536571,0.957392,-0.00690151,-0.000651094,0.0978606,1,4.10677e-05,-8.76185e-06,2.12153e-05,0.00821355,-0.00175237,0.00424306,0.99939,-0.00265755,0.0348173,7.48736e-05,0.0506786,0.536697,-0.965056,33.8125,1,8535,7523380
19,6,0.99939,-0.00262461,0.0348125,7.61848e-05,-0.680461,-0.0683225,9.79072,0.0874592,-0.541408,0.96327,-0.00680545,-0.000689633,0.0979071,1,3.25125e-05,-4.30086e-06,3.02676e-06,0.0065025,-0.000860171,0.000605352,0.99939,-0.00262461,0.0348125,7.61848e-05,0.0507152,0.535225,-0.964584,33.8125,1,8536,7523480
20,1,0.99939,-0.00262461,0.0348125,7.61848e-05,-0.680461,-0.0683225,9.79072,0.0874592,-0.541408,0.96327,-0.00680545,-0.000689633,0.0979071,1,3.25125e-05,-4.30086e-06,3.02676e-06,0.0065025,-0.000860171,0.000605352,0.99939,-0.00262461,0.0348125,7.61848e-05,0.0507152,0.535225,-0.964584,33.8125,1,8536,7523480
20,2,0.99939,-0.00262461,0.0348125,7.61848e-05,-0.680461,-0.0683225,9.79072,0.0874592,-0.541408,0.96327,-0.00680545,-0.000689633,0.0979071,1,3.25125e-05,-4.30086e-06,3.02676e-06,0.0065025,-0.000860171,0.000605352,0.99939,-0.00262461,0.0348125,7.61848e-05,0.0507152,0.535225,-0.964584,33.8125,1,8536,7523480
20,3,0.999391,-0.00259202,0.0347943,9.06287e-05,-0.678817,-0.053866,9.78779,0.0880536,-0.530427,0.963417,-0.00679161,-0.000545349,0.0978776,1,3.30395e-05,-1.76859e-05,1.63467e-05,0.0066079,-0.00353719,0.00326934,0.999391,-0.00259202,0.0347943,9.06287e-05,0.0489298,0.53273,-0.960591,33.8125,1,8537,7523580
20,4,0.999391,-0.00259202,0.0347943,9.06287e-05,-0.678817,-0.053866,9.78779,0.0880536,-0.530427,0.963417,-0.00679161,-0.000545349,0.0978776,1,3.30395e-05,-1.76859e-05,1.63467e-05,0.0066079,-0.00353719,0.00326934,0.999391,-0.00259202,0.0347943,9.06287e-05,0.0489298,0.53273,-0.960591,33.8125,1,8537,7523580
20,5,0.999391,-0.00259202,0.0347943,9.06287e-05,-0.678817,-0.053866,9.78779,0.0880536,-0.530427,0.963417,-0.00679161,-0.000545349,0.0978776,1,3.30395e-05,-1.76859e-05,1.63467e-05,0.0066079,-0.00353719,0.00326934,0.999391,-0.00259202,0.0347943,9.06287e-05,0.0489298,0.53273,-0.960591,33.8125,1,8537,7523580
20,6,0.999391,-0.00255264,0.0347919,0.000108314,-0.668038,-0.0647755,9.78489,0.100994,-0.545403,0.963265,-0.00668079,-0.000655422,0.0978489,1,3.78675e-05,-2.22972e-06,1.92283e-05,0.0075735,-0.000445944,0.00384565,0.999391,-0.00255264,0.0347919,0.000108314,0.0485635,0.531686,-0.956572,33.8125,1,8538,7523680
21,1,0.999391,-0.00255264,0.0347919,0.000108314,-0.668038,-0.0647755,9.78489,0.100994,-0.545403,0.963265,-0.00668079,-0.000655422,0.0978489,1,3.78675e-05,-2.22972e-06,1.92283e-05,0.0075735,-0.000445944,0.00384565,0.999391,-0.00255264,0.0347919,0.000108314,0.0485635,0.531686,-0.956572,33.8125,1,8538,7523680
21,2,0.999391,-0.00255264,0.0347919,0.000108314,-0.668038,-0.0647755,9.78489,0.100994,-0.545403,0.963265,-0.00668079,-0.000655422,0.0978489,1,3.78675e-05,-2.22972e-06,1.92283e-05,0.0075735,-0.000445944,0.00384565,0.999391,-0.00255264,0.0347919,0.000108314,0.0485635,0.531686,-0.956572,33.8125,1,8538,7523680
21,3,0.999392,-0.00251783,0.0347732,0.000111677,-0.686581,-0.0496478,9.79195,0.0838261,-0.521348,0.964177,-0.00686945,-0.000503336,0.0979192,1,3.46937e-05,-1.86077e-05,4.6359e-06,0.00693875,-0.00372153,0.000927181,0.999392,-0.00251783,0.0347732,0.000111677,0.0499869,0.533616,-0.956031,33.8125,1,8539,7523780
21,4,0.999392,-0.00251783,0.0347732,0.000111677,-0.686581,-0.0496478,9.79195,0.0838261,-0.521348,0.964177,-0.00686945,-0.000503336,0.0979192,1,3.46937e-05,-1.86077e-05,4.6359e-06,0.00693875,-0.00372153,0.000927181,0.999392,-0.00251783,0.0347732,0.000111677,0.0499869,0.533616,-0.956031,33.8125,1,8539,7523780
21,5,0.999392,-0.00251783,0.0347732,0.000111677,-0.686581,-0.0496478,9.79195,0.0838261,-0.521348,0.964177,-0.00686945,-0.000503336,0.0979192,1,3.46937e-05,-1.86077e-05,4.6359e-06,0.00693875,-0.00372153,0.000927181,0.999392,-0.00251783,0.0347732,0.000111677,0.0499869,0.533616,-0.956031,33.8125,1,8539,7523780
21,6,0.999393,-0.00247814,0.0347646,0.000140171,-0.688972,-0.0723552,9.78634,0.0806991,-0.543639,0.958715,-0.00689151,-0.000731578,0.0978632,1,3.89718e-05,-9.38438e-06,2.88303e-05,0.00779437,-0.00187688,0.00576605,0.999393,-0.00247814,0.0347646,0.000140171,0.0517766,0.53659,-0.959508,33.8125,1,8540,7523880
22,1,0.999393,-0.00247814,0.0347646,0.000140171,-0.688972,-0.0723552,9.78634,0.0806991,-0.543639,0.958715,-0.00689151,-0.000731578,0.0978632,1,3.89718e-05,-9.38438e-06,2.88303e-05,0.00779437,-0.00187688,0.00576605,0.999393,-0.00247814,0.0347646,0.000140171,0.0517766,0.53659,-0.959508,33.8125,1,8540,7523880
22,2,0.999393,-0.00247814,0.0347646,0.000140171,-0.688972,-0.0723552,9.78634,0.0806991,-0.543639,0.958715,-0.00689151,-0.000731578,0.0978632,1,3.89718e-05,-9.38438e-06,2.88303e-05,0.00779437,-0.00187688,0.00576605,0.999393,-0.00247814,0.0347646,0.000140171,0.0517766,0.53659,-0.959508,33.8125,1,8540,7523880
22,3,0.999393,-0.00242641,0.0347468,0.000151462,-0.677422,-0.0624231,9.77651,0.0892988,-0.538507,0.945561,-0.00677758,-0.00063449,0.0977648,1,5.14927e-05,-1.72334e-05,1.40874e-05,0.0102985,-0.00344669,0.00281747,0.999393,-0.00242641,0.0347468,0.000151462,0.0511806,0.537642,-0.963523,33.8125,1,8541,7523980
22,4,0.999393,-0.00242641,0.0347468,0.000151462,-0.677422,-0.0624231,9.77651,0.0892988,-0.538507,0.945561,-0.00677758,-0.00063449,0.0977648,1,5.14927e-05,-1.72334e-05,1.40874e-05,0.0102985,-0.00344669,0.00281747,0.999393,-0.00242641,0.0347468,0.000151462,0.0511806,0.537642,-0.963523,33.8125,1,8541,7523980
23,1,0.999393,-0.00242641,0.0347468,0.000151462,-0.677422,-0.0624231,9.77651,0.0892988,-0.538507,0.945561,-0.00677758,-0.00063449,0.0977648,1,5.14927e-05,-1.72334e-05,1.40874e-05,0.0102985,-0.00344669,0.00281747,0.999393,-0.00242641,0.0347468,0.000151462,0.0511806,0.537642,-0.963523,33.8125,1,8541,7523980
23,2,0.999393,-0.00239072,0.0347497,0.000154406,-0.665881,-0.0461332,9.77792,0.098535,-0.525823,0.952965,-0.00665822,-0.000468414,0.0977792,1,3.59286e-05,2.99338e-06,4.20778e-06,0.00718571,0.000598676,0.000841555,0.999393,-0.00239072,0.0347497,0.000154406,0.049716,0.53526,-0.966094,33.8125,1,8542,7524080
24,1,0.999393,-0.00239072,0.0347497,0.000154406,-0.665881,-0.0461332,9.77792,0.098535,-0.525823,0.952965,-0.00665822,-0.000468414,0.0977792,1,3.59286e-05,2.99338e-06,4.20778e-06,0.00718571,0.000598676,0.000841555,0.999393,-0.00239072,0.0347497,0.000154406,0.049716,0.53526,-0.966094,33.8125,1,8542,7524080
24,2,0.999393,-0.00239072,0.0347497,0.000154406,-0.665881,-0.0461332,9.77792,0.098535,-0.525823,0.952965,-0.00665822,-0.000468414,0.0977792,1,3.59286e-05,2.99338e-06,4.20778e-06,0.00718571,0.000598676,0.000841555,0.999393,-0.00239072,0.0347497,0.000154406,0.049716,0.53526,-0.966094,33.8125,1,8542,7524080
24,3,0.999394,-0.00233281,0.0347371,0.000182634,-0.671235,-0.0570622,9.79144,0.0970167,-0.543125,0.96876,-0.00671479,-0.000582066,0.0979142,1,5.64327e-05,-1.26657e-05,2.93084e-05,0.0112865,-0.00253314,0.00586168,0.999394,-0.00233281,0.0347371,0.000182634,0.0473839,0.53378,-0.964096,33.8125,1,8543,7524180
24,4,0.999394,-0.00233281,0.0347371,0.000182634,-0.671235,-0.0570622,9.79144,0.0970167,-0.543125,0.96876,-0.00671479,-0.000582066,0.0979142,1,5.64327e-05,-1.26657e-05,2.93084e-05,0.0112865,-0.00253314,0.00586168,0.999394,-0.00233281,0.0347371,0.000182634,0.0473839,0.53378,-0.964096,33.8125,1,8543,7524180
24,5,0.999394,-0.00227844,0.034738,0.000196187,-0.67794,-0.0653014,9.77987,0.0890957,-0.549555,0.962178,-0.00677909,-0.000663917,0.0977987,1,5.45791e-05,1.45137e-06,1.67491e-05,0.0109158,0.000290274,0.00334981,0.999394,-0.00227844,0.034738,0.000196187,0.0470955,0.531716,-0.957575,33.8125,1,8544,7524280
24,6,0.999394,-0.00227844,0.034738,0.000196187,-0.67794,-0.0653014,9.77987,0.0890957,-0.549555,0.962178,-0.00677909,-0.000663917,0.0977987,1,5.45791e-05,1.45137e-06,1.67491e-05,0.0109158,0.000290274,0.00334981,0.999394,-0.00227844,0.034738,0.000196187,0.0470955,0.531716,-0.957575,33.8125,1,8544,7524280
25,1,0.999394,-0.00223685,0.0347261,0.000211367,-0.674413,-0.0520929,9.78676,0.0936445,-0.534998,0.961244,-0.00674644,-0.000529246,0.0978674,1,4.13433e-05,-1.18948e-05,1.66054e-05,0.00826867,-0.00237896,0.00332108,0.999394,-0.00223685,0.0347261,0.000211367,0.0490451,0.533127,-0.955532,33.8125,1,8545,7524380
25,2,0.999394,-0.00223685,0.0347261,0.000211367,-0.674413,-0.0520929,9.78676,0.0936445,-0.534998,0.961244,-0.00674644,-0.000529246,0.0978674,1,4.13433e-05,-1.18948e-05,1.66054e-05,0.00826867,-0.00237896,0.00332108,0.999394,-0.00223685,0.0347261,0.000211367,0.0490451,0.533127,-0.955532,33.8125,1,8545,7524380
25,3,0.999394,-0.00223685,0.0347261,0.000211367,-0.674413,-0.0520929,9.78676,0.0936445,-0.534998,0.961244,-0.00674644,-0.000529246,0.0978674,1,4.13433e-05,-1.18948e-05,1.66054e-05,0.00826867,-0.00237896,0.00332108,0.999394,-0.00223685,0.0347261,0.000211367,0.0490451,0.533127,-0.955532,33.8125,1,8545,7524380
25,4,0.999395,-0.00218985,0.0347111,0.000230698,-0.679779,-0.0610091,9.78841,0.0880492,-0.53962,0.95791,-0.00680069,-0.000619411,0.0978839,1,4.61749e-05,-1.49553e-05,2.06679e-05,0.00923499,-0.00299106,0.00413358,0.999395,-0.00218985,0.0347111,0.000230698,0.0513609,0.535582,-0.957508,33.8125,1,8546,7524480
26,1,0.999395,-0.00218985,0.0347111,0.000230698,-0.679779,-0.0610091,9.78841,0.0880492,-0.53962,0.95791,-0.00680069,-0.000619411,0.0978839,1,4.61749e-05,-1.49553e-05,2.06679e-05,0.00923499,-0.00299106,0.00413358,0.999395,-0.00218985,0.0347111,0.000230698,0.0513609,0.535582,-0.957508,33.8125,1,8546,7524480
26,2,0.999395,-0.00218985,0.0347111,0.000230698,-0.679779,-0.0610091,9.78841,0.0880492,-0.53962,0.95791,-0.00680069,-0.000619411,0.0978839,1,4.61749e-05,-1.49553e-05,2.06679e-05,0.00923499,-0.00299106,0.00413358,0.999395,-0.00218985,0.0347111,0.000230698,0.0513609,0.535582,-0.957508,33.8125,1,8546,7524480
27,1,0.999396,-0.00214576,0.0346909,0.000256431,-0.677794,-0.0465236,9.78514,0.0860313,-0.532133,0.953528,-0.0067818,-0.000474219,0.0978511,1,4.39045e-05,-1.98538e-05,2.88096e-05,0.00878089,-0.00397076,0.00576192,0.999396,-0.00214576,0.0346909,0.000256431,0.0502715,0.536647,-0.962025,33.8125,1,8547,7524580
27,2,0.999396,-0.00214576,0.0346909,0.000256431,-0.677794,-0.0465236,9.78514,0.0860313,-0.532133,0.953528,-0.0067818,-0.000474219,0.0978511,1,4.39045e-05,-1.98538e-05,2.88096e-05,0.00878089,-0.00397076,0.00576192,0.999396,-0.00214576,0.0346909,0.000256431,0.0502715,0.536647,-0.962025,33.8125,1,8547,7524580
27,3,0.999396,-0.00214576,0.0346909,0.000256431,-0.677794,-0.0465236,9.78514,0.0860313,-0.532133,0.953528,-0.0067818,-0.000474219,0.0978511,1,4.39045e-05,-1.98538e-05,2.88096e-05,0.00878089,-0.00397076,0.00576192,0.999396,-0.00214576,0.0346909,0.000256431,0.0502715,0.536647,-0.962025,33.8125,1,8547,7524580
27,4,0.999396,-0.00210339,0.0346879,0.000261726,-0.678901,-0.0616851,9.78839,0.0777395,-0.548044,0.960627,-0.00678956,-0.000625291,0.0978838,1,4.26378e-05,-2.86639e-06,6.84915e-06,0.00852756,-0.000573278,0.00136983,0.999396,-0.00210339,0.0346879,0.000261726,0.049753,0.535233,-0.96458,33.8125,1,8548,7524680
28,1,0.999396,-0.00210339,0.0346879,0.000261726,-0.678901,-0.0616851,9.78839,0.0777395,-0.548044,0.960627,-0.00678956,-0.000625291,0.0978838,1,4.26378e-05,-2.86639e-06,6.84915e-06,0.00852756,-0.000573278,0.00136983,0.999396,-0.00210339,0.0346879,0.000261726,0.049753,0.535233,-0.96458,33.8125,1,8548,7524680
28,2,0.999396,-0.00210339,0.0346879,0.000261726,-0.678901,-0.0616851,9.78839,0.0777395,-0.548044,0.960627,-0.00678956,-0.000625291,0.0978838,1,4.26378e-05,-2.86639e-06,6.84915e-06,0.00852756,-0.000573278,0.00136983,0.999396,-0.00210339,0.0346879,0.000261726,0.049753,0.535233,-0.96458,33.8125,1,8548,7524680
28,3,0.999396,-0.00205156,0.0346819,0.000269421,-0.687397,-0.0580196,9.79221,0.0773627,-0.547141,0.969879,-0.00687503,-0.000590407,0.097922,1,5.14369e-05,-5.49855e-06,1.00027e-05,0.0102874,-0.00109971,0.00200053,0.999396,-0.00205156,0.0346819,0.000269421,0.0469683,0.532773,-0.962096,33.8125,1,8549,7524780
28,4,0.999396,-0.00205156,0.0346819,0.000269421,-0.687397,-0.0580196,9.79221,0.0773627,-0.547141,0.969879,-0.00687503,-0.000590407,0.097922,1,5.14369e-05,-5.49855e-06,1.00027e-05,0.0102874,-0.00109971,0.00200053,0.999396,-0.00205156,0.0346819,0.000269421,0.0469683,0.532773,-0.962096,33.8125,1,8549,7524780
28,5,0.999396,-0.00205156,0.0346819,0.000269421,-0.687397,-0.0580196,9.79221,0.0773627,-0.547141,0.969879,-0.00687503,-0.000590407,0.097922,1,5.14369e-05,-5.49855e-06,1.00027e-05,0.0102874,-0.00109971,0.00200053,0.999396,-0.00205156,0.0346819,0.000269421,0.0469683,0.532773,-0.962096,33.8125,1,8549,7524780
28,6,0.999397,-0.00201292,0.0346737,0.000273647,-0.686914,-0.0710689,9.78837,0.0794984,-0.559486,0.967796,-0.00687064,-0.00071832,0.0978835,1,3.85214e-05,-7.73717e-06,6.51554e-06,0.00770427,-0.00154743,0.00130311,0.999397,-0.00201292,0.0346737,0.000273647,0.0471121,0.532186,-0.956554,33.8125,1,8550,7524880
29,1,0.999397,-0.00201292,0.0346737,0.000273647,-0.686914,-0.0710689,9.78837,0.0794984,-0.559486,0.967796,-0.00687064,-0.00071832,0.0978835,1,3.85214e-05,-7.73717e-06,6.51554e-06,0.00770427,-0.00154743,0.00130311,0.999397,-0.00201292,0.0346737,0.000273647,0.0471121,0.532186,-0.956554,33.8125,1,8550,7524880
29,2,0.999397,-0.00201292,0.0346737,0.000273647,-0.686914,-0.0710689,9.78837,0.0794984,-0.559486,0.967796,-0.00687064,-0.00071832,0.0978835,1,3.85214e-05,-7.73717e-06,6.51554e-06,0.00770427,-0.00154743,0.00130311,0.999397,-0.00201292,0.0346737,0.000273647,0.0471121,0.532186,-0.956554,33.8125,1,8550,7524880
30,1,0.999397,-0.00196454,0.0346664,0.000295925,-0.686663,-0.0544538,9.78478,0.0794537,-0.539051,0.958008,-0.00686801,-0.000554282,0.0978477,1,4.81123e-05,-7.20294e-06,2.38993e-05,0.00962246,-0.00144059,0.00477986,0.999397,-0.00196454,0.0346664,0.000295925,0.0475694,0.53509,-0.955482,33.8125,1,8551,7524980
30,2,0.999397,-0.00196454,0.0346664,0.000295925,-0.686663,-0.0544538,9.78478,0.0794537,-0.539051,0.958008,-0.00686801,-0.000554282,0.0978477,1,4.81123e-05,-7.20294e-06,2.38993e-05,0.00962246,-0.00144059,0.00477986,0.999397,-0.00196454,0.0346664,0.000295925,0.0475694,0.53509,-0.955482,33.8125,1,8551,7524980
31,1,0.999397,-0.00196454,0.0346664,0.000295925,-0.686663,-0.0544538,9.78478,0.0794537,-0.539051,0.958008,-0.00686801,-0.000554282,0.0978477,1,4.81123e-05,-7.20294e-06,2.38993e-05,0.00962246,-0.00144059,0.00477986,0.999397,-0.00196454,0.0346664,0.000295925,0.0475694,0.53509,-0.955482,33.8125,1,8551,7524980
31,2,0.999397,-0.00193662,0.0346686,0.000317274,-0.689521,-0.0591437,9.78441,0.0777835,-0.549138,0.956239,-0.00689473,-0.000597137,0.0978441,1,2.75708e-05,2.30051e-06,2.20705e-05,0.00551416,0.000460102,0.0044141,0.999397,-0.00193662,0.0346686,0.000317274,0.0489145,0.536596,-0.958485,33.8125,1,8552,7525080
31,3,0.999397,-0.00193662,0.0346686,0.000317274,-0.689521,-0.0591437,9.78441,0.0777835,-0.549138,0.956239,-0.00689473,-0.000597137,0.0978441,1,2.75708e-05,2.30051e-06,2.20705e-05,0.00551416,0.000460102,0.0044141,0.999397,-0.00193662,0.0346686,0.000317274,0.0489145,0.536596,-0.958485,33.8125,1,8552,7525080
31,4,0.999397,-0.00193662,0.0346686,0.000317274,-0.689521,-0.0591437,9.78441,0.0777835,-0.549138,0.956239,-0.00689473,-0.000597137,0.0978441,1,2.75708e-05,2.30051e-06,2.20705e-05,0.00551416,0.000460102,0.0044141,0.999397,-0.00193662,0.0346686,0.000317274,0.0489145,0.536596,-0.958485,33.8125,1,8552,7525080
31,5,0.999398,-0.00189511,0.0346469,0.000339953,-0.682683,-0.068957,9.79413,0.0865429,-0.561955,0.964004,-0.00683107,-0.000698121,0.097941,1,4.19803e-05,-2.17834e-05,2.39892e-05,0.00839606,-0.00435669,0.00479783,0.999398,-0.00189511,0.0346469,0.000339953,0.050728,0.536661,-0.963037,33.8125,1,8553,7525180
31,6,0.999398,-0.00189511,0.0346469,0.000339953,-0.682683,-0.068957,9.79413,0.0865429,-0.561955,0.964004,-0.00683107,-0.000698121,0.097941,1,4.19803e-05,-2.17834e-05,2.39892e-05,0.00839606,-0.00435669,0.00479783,0.999398,-0.00189511,0.0346469,0.000339953,0.050728,0.536661,-0.963037,33.8125,1,8553,7525180
32,1,0.999398,-0.00189511,0.0346469,0.000339953,-0.682683,-0.068957,9.79413,0.0865429,-0.561955,0.964004,-0.00683107,-0.000698121,0.097941,1,4.19803e-05,-2.17834e-05,2.39892e-05,0.00839606,-0.00435669,0.00479783,0.999398,-0.00189511,0.0346469,0.000339953,0.050728,0.536661,-0.963037,33.8125,1,8553,7525180
32,2,0.999398,-0.00185454,0.0346328,0.000359709,-0.684917,-0.0631086,9.783,0.0791202,-0.554387,0.952621,-0.00685186,-0.000639348,0.0978298,1,4.06503e-05,-1.38692e-05,2.2499e-05,0.00813007,-0.00277385,0.0044998,0.999398,-0.00185454,0.0346328,0.000359709,0.0502298,0.53475,-0.965098,33.8125,1,8554,7525280
32,3,0.999398,-0.00185454,0.0346328,0.000359709,-0.684917,-0.0631086,9.783,0.0791202,-0.554387,0.952621,-0.00685186,-0.000639348,0.0978298,1,4.06503e-05,-1.38692e-05,2.2499e-05,0.00813007,-0.00277385,0.0044998,0.999398,-0.00185454,0.0346328,0.000359709,0.0502298,0.53475,-0.965098,33.8125,1,8554,7525280
32,4,0.999398,-0.00185454,0.0346328,0.000359709,-0.684917,-0.0631086,9.783,0.0791202,-0.554387,0.952621,-0.00685186,-0.000639348,0.0978298,1,4.06503e-05,-1.38692e-05,2.2499e-05,0.00813007,-0.00277385,0.0044998,0.999398,-0.00185454,0.0346328,0.000359709,0.0502298,0.53475,-0.965098,33.8125,1,8554,7525280
33,1,0.999399,-0.00181356,0.0346106,0.000382109,-0.692019,-0.0582787,9.78581,0.0707081,-0.550193,0.961602,-0.00692445,-0.000591172,0.0978577,1,4.11289e-05,-2.1953e-05,2.42334e-05,0.00822578,-0.0043906,0.00484669,0.999399,-0.00181356,0.0346106,0.000382109,0.0478973,0.531825,-0.964142,33.8125,1,8555,7525380
33,2,0.999399,-0.00181356,0.0346106,0.000382109,-0.692019,-0.0582787,9.78581,0.0707081,-0.550193,0.961602,-0.00692445,-0.000591172,0.0978577,1,4.11289e-05,-2.1953e-05,2.42334e-05,0.00822578,-0.0043906,0.00484669,0.999399,-0.00181356,0.0346106,0.000382109,0.0478973,0.531825,-0.964142,33.8125,1,8555,7525380
34,1,0.999399,-0.00181356,0.0346106,0.000382109,-0.692019,-0.0582787,9.78581,0.0707081,-0.550193,0.961602,-0.00692445,-0.000591172,0.0978577,1,4.11289e-05,-2.1953e-05,2.42334e-05,0.00822578,-0.0043906,0.00484669,0.999399,-0.00181356,0.0346106,0.000382109,0.0478973,0.531825,-0.964142,33.8125,1,8555,7525380
34,2,0.999399,-0.00177152,0.0346032,0.000411242,-0.679541,-0.0606558,9.78671,0.0835403,-0.553419,0.964712,-0.00679681,-0.00061515,0.097867,1,4.17269e-05,-7.3499e-06,3.11938e-05,0.00834538,-0.00146998,0.00623876,0.999399,-0.00177152,0.0346032,0.000411242,0.0485303,0.530747,-0.958613,33.8125,1,8556,7525480
34,3,0.999399,-0.00177152,0.0346032,0.000411242,-0.679541,-0.0606558,9.78671,0.0835403,-0.553419,0.964712,-0.00679681,-0.00061515,0.097867,1,4.17269e-05,-7.3499e-06,3.11938e-05,0.00834538,-0.00146998,0.00623876,0.999399,-0.00177152,0.0346032,0.000411242,0.0485303,0.530747,-0.958613,33.8125,1,8556,7525480
34,4,0.999399,-0.00177152,0.0346032,0.000411242,-0.679541,-0.0606558,9.78671,0.0835403,-0.553419,0.964712,-0.00679681,-0.00061515,0.097867,1,4.17269e-05,-7.3499e-06,3.11938e-05,0.00834538,-0.00146998,0.00623876,0.999399,-0.00177152,0.0346032,0.000411242,0.0485303,0.530747,-0.958613,33.8125,1,8556,7525480
34,5,0.9994,-0.00172427,0.0345877,0.000427012,-0.680042,-0.0612937,9.78943,0.0832044,-0.549848,0.964119,-0.00680345,-0.00062255,0.0978941,1,4.78606e-05,-1.55682e-05,1.77992e-05,0.00957213,-0.00311365,0.00355985,0.9994,-0.00172427,0.0345877,0.000427012,0.0494892,0.53315,-0.957049,33.8125,1,8557,7525580
34,6,0.9994,-0.00172427,0.0345877,0.000427012,-0.680042,-0.0612937,9.78943,0.0832044,-0.549848,0.964119,-0.00680345,-0.00062255,0.0978941,1,4.78606e-05,-1.55682e-05,1.77992e-05,0.00957213,-0.00311365,0.00355985,0.9994,-0.00172427,0.0345877,0.000427012,0.0494892,0.53315,-0.957049,33.8125,1,8557,7525580
35,1,0.9994,-0.00172427,0.0345877,0.000427012,-0.680042,-0.0612937,9.78943,0.0832044,-0.549848,0.964119,-0.00680345,-0.00062255,0.0978941,1,4.78606e-05,-1.55682e-05,1.77992e-05,0.00957213,-0.00311365,0.00355985,0.9994,-0.00172427,0.0345877,0.000427012,0.0494892,0.53315,-0.957049,33.8125,1,8557,7525580
35,2,0.999401,-0.00168139,0.0345738,0.000439876,-0.683872,-0.0618871,9.79759,0.0755125,-0.555504,0.9706,-0.00684146,-0.000627653,0.0979756,1,4.37571e-05,-1.40594e-05,1.51976e-05,0.00875143,-0.00281187,0.00303951,0.999401,-0.00168139,0.0345738,0.000439876,0.0517519,0.536608,-0.960518,33.8125,1,8558,7525680
35,3,0.999401,-0.00168139,0.0345738,0.000439876,-0.683872,-0.0618871,9.79759,0.0755125,-0.555504,0.9706,-0.00684146,-0.000627653,0.0979756,1,4.37571e-05,-1.40594e-05,1.51976e-05,0.00875143,-0.00281187,0.00303951,0.999401,-0.00168139,0.0345738,0.000439876,0.0517519,0.536608,-0.960518,33.8125,1,8558,7525680
35,4,0.999401,-0.00168139,0.0345738,0.000439876,-0.683872,-0.0618871,9.79759,0.0755125,-0.555504,0.9706,-0.00684146,-0.000627653,0.0979756,1,4.37571e-05,-1.40594e-05,1.51976e-05,0.00875143,-0.00281187,0.00303951,0.999401,-0.00168139,0.0345738,0.000439876,0.0517519,0.536608,-0.960518,33.8125,1,8558,7525680
36,1,0.999402,-0.00163884,0.0345489,0.000456143,-0.685948,-0.050122,9.7838,0.0771523,-0.540016,0.956549,-0.00686435,-0.000509795,0.0978376,1,4.25539e-05,-2.49968e-05,1.80733e-05,0.00851078,-0.00499936,0.00361467,0.999402,-0.00163884,0.0345489,0.000456143,0.0506867,0.536209,-0.965067,33.8125,1,8559,7525780
36,2,0.999402,-0.00163884,0.0345489,0.000456143,-0.685948,-0.050122,9.7838,0.0771523,-0.540016,0.956549,-0.00686435,-0.000509795,0.0978376,1,4.25539e-05,-2.49968e-05,1.80733e-05,0.00851078,-0.00499936,0.00361467,0.999402,-0.00163884,0.0345489,0.000456143,0.0506867,0.536209,-0.965067,33.8125,1,8559,7525780
36,3,0.999402,-0.00163884,0.0345489,0.000456143,-0.685948,-0.050122,9.7838,0.0771523,-0.540016,0.956549,-0.00686435,-0.000509795,0.0978376,1,4.25539e-05,-2.49968e-05,1.80733e-05,0.00851078,-0.00499936,0.00361467,0.999402,-0.00163884,0.0345489,0.000456143,0.0506867,0.536209,-0.965067,33.8125,1,8559,7525780
36,4,0.999402,-0.00159629,0.0345384,0.000470443,-0.684558,-0.0631667,9.7925,0.0762447,-0.566956,0.96992,-0.0068476,-0.000640417,0.0979248,1,4.35765e-05,-1.04235e-05,1.5719e-05,0.0087153,-0.00208469,0.00314379,0.999402,-0.00159629,0.0345384,0.000470443,0.0483623,0.532797,-0.964122,33.8125,1,8560,7525880
36,5,0.999402,-0.00159629,0.0345384,0.000470443,-0.684558,-0.0631667,9.7925,0.0762447,-0.566956,0.96992,-0.0068476,-0.000640417,0.0979248,1,4.35765e-05,-1.04235e-05,1.5719e-05,0.0087153,-0.00208469,0.00314379,0.999402,-0.00159629,0.0345384,0.000470443,0.0483623,0.532797,-0.964122,33.8125,1,8560,7525880
36,6,0.999402,-0.00159629,0.0345384,0.000470443,-0.684558,-0.0631667,9.7925,0.0762447,-0.566956,0.96992,-0.0068476,-0.000640417,0.0979248,1,4.35765e-05,-1.04235e-05,1.5719e-05,0.0087153,-0.00208469,0.00314379,0.999402,-0.00159629,0.0345384,0.000470443,0.0483623,0.532797,-0.964122,33.8125,1,8560,7525880
36,7,0.999402,-0.00154275,0.0345285,0.000498359,-0.683731,-0.0745856,9.78765,0.0810528,-0.573523,0.965521,-0.00683926,-0.000756679,0.0978763,1,5.32662e-05,-1.01756e-05,2.89452e-05,0.0106532,-0.00203512,0.00578905,0.999402,-0.00154275,0.0345285,0.000498359,0.0469479,0.53327,-0.96259,33.8125,1,8561,7525980
36,8,0.999402,-0.00154275,0.0345285,0.000498359,-0.683731,-0.0745856,9.78765,0.0810528,-0.573523,0.965521,-0.00683926,-0.000756679,0.0978763,1,5.32662e-05,-1.01756e-05,2.89452e-05,0.0106532,-0.00203512,0.00578905,0.999402,-0.00154275,0.0345285,0.000498359,0.0469479,0.53327,-0.96259,33.8125,1,8561,7525980
37,1,0.999402,-0.00154275,0.0345285,0.000498359,-0.683731,-0.0745856,9.78765,0.0810528,-0.573523,0.965521,-0.00683926,-0.000756679,0.0978763,1,5.32662e-05,-1.01756e-05,2.89452e-05,0.0106532,-0.00203512,0.00578905,0.999402,-0.00154275,0.0345285,0.000498359,0.0469479,0.53327,-0.96259,33.8125,1,8561,7525980
37,2,0.999403,-0.00151002,0.0345118,0.000513332,-0.685501,-0.0601399,9.79186,0.0780078,-0.56087,0.969241,-0.00685834,-0.000608402,0.0979183,1,3.45967e-05,-1.71159e-05,1.65924e-05,0.00691935,-0.00342318,0.00331849,0.999403,-0.00151002,0.0345118,0.000513332,0.0479884,0.533686,-0.95905,33.8125,1,8562,7526080
37,3,0.999403,-0.00151002,0.0345118,0.000513332,-0.685501,-0.0601399,9.79186,0.0780078,-0.56087,0.969241,-0.00685834,-0.000608402,0.0979183,1,3.45967e-05,-1.71159e-05,1.65924e-05,0.00691935,-0.00342318,0.00331849,0.999403,-0.00151002,0.0345118,0.000513332,0.0479884,0.533686,-0.95905,33.8125,1,8562,7526080
37,4,0.999403,-0.00151002,0.0345118,0.000513332,-0.685501,-0.0601399,9.79186,0.0780078,-0.56087,0.969241,-0.00685834,-0.000608402,0.0979183,1,3.45967e-05,-1.71159e-05,1.65924e-05,0.00691935,-0.00342318,0.00331849,0.999403,-0.00151002,0.0345118,0.000513332,0.0479884,0.533686,-0.95905,33.8125,1,8562,7526080
38,1,0.999404,-0.00144261,0.0344949,0.000510198,-0.676719,-0.0617874,9.78567,0.0864219,-0.564943,0.957354,-0.00677056,-0.000631548,0.0978564,1,6.98901e-05,-1.72053e-05,-3.66853e-07,0.013978,-0.00344107,-7.33706e-05,0.999404,-0.00144261,0.0344949,0.000510198,0.0499171,0.534149,-0.958544,33.8125,1,8563,7526180
38,2,0.999404,-0.00144261,0.0344949,0.000510198,-0.676719,-0.0617874,9.78567,0.0864219,-0.564943,0.957354,-0.00677056,-0.000631548,0.0978564,1,6.98901e-05,-1.72053e-05,-3.66853e-07,0.013978,-0.00344107,-7.33706e-05,0.999404,-0.00144261,0.0344949,0.000510198,0.0499171,0.534149,-0.958544,33.8125,1,8563,7526180
38,3,0.999404,-0.00144261,0.0344949,0.000510198,-0.676719,-0.0617874,9.78567,0.0864219,-0.564943,0.957354,-0.00677056,-0.000631548,0.0978564,1,6.98901e-05,-1.72053e-05,-3.66853e-07,0.013978,-0.00344107,-7.33706e-05,0.999404,-0.00144261,0.0344949,0.000510198,0.0499171,0.534149,-0.958544,33.8125,1,8563,7526180
38,4,0.999404,-0.0014088,0.0344928,0.000540414,-0.691087,-0.0690075,9.78366,0.064944,-0.571856,0.955354,-0.00691131,-0.000697011,0.0978366,1,3.31905e-05,-2.48645e-06,3.19295e-05,0.00663809,-0.000497291,0.00638589,0.999404,-0.0014088,0.0344928,0.000540414,0.0512661,0.534688,-0.962073,33.8125,1,8564,7526280
39,1,0.999404,-0.0014088,0.0344928,0.000540414,-0.691087,-0.0690075,9.78366,0.064944,-0.571856,0.955354,-0.00691131,-0.000697011,0.0978366,1,3.31905e-05,-2.48645e-06,3.19295e-05,0.00663809,-0.000497291,0.00638589,0.999404,-0.0014088,0.0344928,0.000540414,0.0512661,0.534688,-0.962073,33.8125,1,8564,7526280
39,2,0.999404,-0.0014088,0.0344928,0.000540414,-0.691087,-0.0690075,9.78366,0.064944,-0.571856,0.955354,-0.00691131,-0.000697011,0.0978366,1,3.31905e-05,-2.48645e-06,3.19295e-05,0.00663809,-0.000497291,0.00638589,0.999404,-0.0014088,0.0344928,0.000540414,0.0512661,0.534688,-0.962073,33.8125,1,8564,7526280
39,3,0.999404,-0.00134498,0.0344783,0.000561709,-0.679228,-0.0541558,9.77931,0.0770159,-0.555262,0.951046,-0.00679521,-0.0005548,0.0977928,1,6.60343e-05,-1.50823e-05,2.40395e-05,0.0132069,-0.00301647,0.0048079,0.999404,-0.00134498,0.0344783,0.000561709,0.0487172,0.53674,-0.966562,33.8125,1,8565,7526380
39,4,0.999404,-0.00134498,0.0344783,0.000561709,-0.679228,-0.0541558,9.77931,0.0770159,-0.555262,0.951046,-0.00679521,-0.0005548,0.0977928,1,6.60343e-05,-1.50823e-05,2.40395e-05,0.0132069,-0.00301647,0.0048079,0.999404,-0.00134498,0.0344783,0.000561709,0.0487172,0.53674,-0.966562,33.8125,1,8565,7526380
40,1,0.999404,-0.00134498,0.0344783,0.000561709,-0.679228,-0.0541558,9.77931,0.0770159,-0.555262,0.951046,-0.00679521,-0.0005548,0.0977928,1,6.60343e-05,-1.50823e-05,2.40395e-05,0.0132069,-0.00301647,0.0048079,0.999404,-0.00134498,0.0344783,0.000561709,0.0487172,0.53674,-0.966562,33.8125,1,8565,7526380
40,2,0.999405,-0.00130432,0.0344591,0.0005747,-0.68213,-0.0585898,9.78405,0.0782237,-0.566051,0.960549,-0.0068251,-0.000594491,0.0978402,1,4.2867e-05,-1.94757e-05,1.49979e-05,0.0085734,-0.00389514,0.00299959,0.999405,-0.00130432,0.0344591,0.0005747,0.0473389,0.534295,-0.965599,33.8125,1,8566,7526480
40,3,0.999405,-0.00130432,0.0344591,0.0005747,-0.68213,-0.0585898,9.78405,0.0782237,-0.566051,0.960549,-0.0068251,-0.000594491,0.0978402,1,4.2867e-05,-1.94757e-05,1.49979e-05,0.0085734,-0.00389514,0.00299959,0.999405,-0.00130432,0.0344591,0.0005747,0.0473389,0.534295,-0.965599,33.8125,1,8566,7526480
40,4,0.999405,-0.00130432,0.0344591,0.0005747,-0.68213,-0.0585898,9.78405,0.0782237,-0.566051,0.960549,-0.0068251,-0.000594491,0.0978402,1,4.2867e-05,-1.94757e-05,1.49979e-05,0.0085734,-0.00389514,0.00299959,0.999405,-0.00130432,0.0344591,0.0005747,0.0473389,0.534295,-0.965599,33.8125,1,8566,7526480
40,5,0.999406,-0.00127124,0.0344486,0.00059582,-0.690057,-0.0516342,9.79602,0.0733428,-0.560006,0.975913,-0.00690268,-0.000523583,0.09796,1,3.53289e-05,-1.09054e-05,2.31863e-05,0.00706577,-0.00218108,0.00463726,0.999406,-0.00127124,0.0344486,0.00059582,0.0465484,0.531286,-0.960612,33.8125,1,8567,7526580
40,6,0.999406,-0.00127124,0.0344486,0.00059582,-0.690057,-0.0516342,9.79602,0.0733428,-0.560006,0.975913,-0.00690268,-0.000523583,0.09796,1,3.53289e-05,-1.09054e-05,2.31863e-05,0.00706577,-0.00218108,0.00463726,0.999406,-0.00127124,0.0344486,0.00059582,0.0465484,0.531286,-0.960612,33.8125,1,8567,7526580
41,1,0.999406,-0.00127124,0.0344486,0.00059582,-0.690057,-0.0516342,9.79602,0.0733428,-0.560006,0.975913,-0.00690268,-0.000523583,0.09796,1,3.53289e-05,-1.09054e-05,2.31863e-05,0.00706577,-0.00218108,0.00463726,0.999406,-0.00127124,0.0344486,0.00059582,0.0465484,0.531286,-0.960612,33.8125,1,8567,7526580
41,2,0.999406,-0.00123463,0.0344459,0.000601996,-0.675556,-0.0534662,9.78132,0.0893089,-0.556602,0.953222,-0.00675615,-0.000542385,0.0978131,1,3.88995e-05,-3.079e-06,8.32968e-06,0.0077799,-0.0006158,0.00166594,0.999406,-0.00123463,0.0344459,0.000601996,0.0471244,0.532177,-0.956049,33.8125,1,8568,7526680
41,3,0.999406,-0.00123463,0.0344459,0.000601996,-0.675556,-0.0534662,9.78132,0.0893089,-0.556602,0.953222,-0.00675615,-0.000542385,0.0978131,1,3.88995e-05,-3.079e-06,8.32968e-06,0.0077799,-0.0006158,0.00166594,0.999406,-0.00123463,0.0344459,0.000601996,0.0471244,0.532177,-0.956049,33.8125,1,8568,7526680
41,4,0.999406,-0.00123463,0.0344459,0.000601996,-0.675556,-0.0534662,9.78132,0.0893089,-0.556602,0.953222,-0.00675615,-0.000542385,0.0978131,1,3.88995e-05,-3.079e-06,8.32968e-06,0.0077799,-0.0006158,0.00166594,0.999406,-0.00123463,0.0344459,0.000601996,0.0471244,0.532177,-0.956049,33.8125,1,8568,7526680
41,5,0.999406,-0.0011985,0.0344284,0.000614473,-0.679067,-0.0614501,9.79281,0.0829895,-0.568371,0.966754,-0.00679415,-0.000622176,0.0979278,1,3.81655e-05,-1.78871e-05,1.46964e-05,0.0076331,-0.00357743,0.00293929,0.999406,-0.0011985,0.0344284,0.000614473,0.0509245,0.533626,-0.957045,33.8125,1,8569,7526780
41,6,0.999406,-0.0011985,0.0344284,0.000614473,-0.679067,-0.0614501,9.79281,0.0829895,-0.568371,0.966754,-0.00679415,-0.000622176,0.0979278,1,3.81655e-05,-1.78871e-05,1.46964e-05,0.0076331,-0.00357743,0.00293929,0.999406,-0.0011985,0.0344284,0.000614473,0.0509245,0.533626,-0.957045,33.8125,1,8569,7526780
42,1,0.999406,-0.0011985,0.0344284,0.000614473,-0.679067,-0.0614501,9.79281,0.0829895,-0.568371,0.966754,-0.00679415,-0.000622176,0.0979278,1,3.81655e-05,-1.78871e-05,1.46964e-05,0.0076331,-0.00357743,0.00293929,0.999406,-0.0011985,0.0344284,0.000614473,0.0509245,0.533626,-0.957045,33.8125,1,8569,7526780
42,2,0.999407,-0.00115457,0.0344199,0.000633077,-0.690008,-0.0626853,9.78507,0.070953,-0.5694,0.955048,-0.00690181,-0.000636224,0.0978505,1,4.63669e-05,-8.97754e-06,2.15358e-05,0.00927339,-0.00179551,0.00430716,0.999407,-0.00115457,0.0344199,0.000633077,0.0522496,0.537074,-0.9595,33.8125,1,8570,7526880
42,3,0.999407,-0.00115457,0.0344199,0.000633077,-0.690008,-0.0626853,9.78507,0.070953,-0.5694,0.955048,-0.00690181,-0.000636224,0.0978505,1,4.63669e-05,-8.97754e-06,2.15358e-05,0.00927339,-0.00179551,0.00430716,0.999407,-0.00115457,0.0344199,0.000633077,0.0522496,0.537074,-0.9595,33.8125,1,8570,7526880
42,4,0.999407,-0.00115457,0.0344199,0.000633077,-0.690008,-0.0626853,9.78507,0.070953,-0.5694,0.955048,-0.00690181,-0.000636224,0.0978505,1,4.63669e-05,-8.97754e-06,2.15358e-05,0.00927339,-0.00179551,0.00430716,0.999407,-0.00115457,0.0344199,0.000633077,0.0522496,0.537074,-0.9595,33.8125,1,8570,7526880
42,5,0.999407,-0.00109826,0.0344091,0.000644066,-0.680544,-0.0540166,9.78475,0.0766466,-0.559039,0.949573,-0.00680767,-0.00055208,0.0978472,1,5.98244e-05,-1.15243e-05,1.52401e-05,0.0119649,-0.00230486,0.00304801,0.999407,-0.00109826,0.0344091,0.000644066,0.0507161,0.538115,-0.9625,33.8125,1,8571,7526980
42,6,0.999407,-0.00109826,0.0344091,0.000644066,-0.680544,-0.0540166,9.78475,0.0766466,-0.559039,0.949573,-0.00680767,-0.00055208,0.0978472,1,5.98244e-05,-1.15243e-05,1.52401e-05,0.0119649,-0.00230486,0.00304801,0.999407,-0.00109826,0.0344091,0.000644066,0.0507161,0.538115,-0.9625,33.8125,1,8571,7526980
43,1,0.999407,-0.00109826,0.0344091,0.000644066,-0.680544,-0.0540166,9.78475,0.0766466,-0.559039,0.949573,-0.00680767,-0.00055208,0.0978472,1,5.98244e-05,-1.15243e-05,1.52401e-05,0.0119649,-0.00230486,0.00304801,0.999407,-0.00109826,0.0344091,0.000644066,0.0507161,0.538115,-0.9625,33.8125,1,8571,7526980
43,2,0.999407,-0.0010648,0.0344054,0.000664668,-0.675838,-0.0583263,9.78874,0.0817411,-0.571016,0.961495,-0.00675915,-0.000590868,0.0978873,1,3.73013e-05,-4.10152e-06,2.23164e-05,0.00746026,-0.000820304,0.00446329,0.999407,-0.0010648,0.0344054,0.000664668,0.0492956,0.532328,-0.965652,33.8125,1,8572,7527080
43,3,0.999407,-0.0010648,0.0344054,0.000664668,-0.675838,-0.0583263,9.78874,0.0817411,-0.571016,0.961495,-0.00675915,-0.000590868,0.0978873,1,3.73013e-05,-4.10152e-06,2.23164e-05,0.00746026,-0.000820304,0.00446329,0.999407,-0.0010648,0.0344054,0.000664668,0.0492956,0.532328,-0.965652,33.8125,1,8572,7527080
43,4,0.999407,-0.0010648,0.0344054,0.000664668,-0.675838,-0.0583263,9.78874,0.0817411,-0.571016,0.961495,-0.00675915,-0.000590868,0.0978873,1,3.73013e-05,-4.10152e-06,2.23164e-05,0.00746026,-0.000820304,0.00446329,0.999407,-0.0010648,0.0344054,0.000664668,0.0492956,0.532328,-0.965652,33.8125,1,8572,7527080
43,5,0.999408,-0.00101612,0.0343839,0.000688741,-0.678363,-0.0608607,9.78637,0.0795228,-0.575016,0.960318,-0.00678788,-0.00061916,0.0978634,1,5.22137e-05,-2.18822e-05,2.46019e-05,0.0104427,-0.00437643,0.00492039,0.999408,-0.00101612,0.0343839,0.000688741,0.0464701,0.530862,-0.964157,33.8125,1,8573,7527180
43,6,0.999408,-0.00101612,0.0343839,0.000688741,-0.678363,-0.0608607,9.78637,0.0795228,-0.575016,0.960318,-0.00678788,-0.00061916,0.0978634,1,5.22137e-05,-2.18822e-05,2.46019e-05,0.0104427,-0.00437643,0.00492039,0.999408,-0.00101612,0.0343839,0.000688741,0.0464701,0.530862,-0.964157,33.8125,1,8573,7527180
44,1,0.999408,-0.00101612,0.0343839,0.000688741,-0.678363,-0.0608607,9.78637,0.0795228,-0.575016,0.960318,-0.00678788,-0.00061916,0.0978634,1,5.22137e-05,-2.18822e-05,2.46019e-05,0.0104427,-0.00437643,0.00492039,0.999408,-0.00101612,0.0343839,0.000688741,0.0464701,0.530862,-0.964157,33.8125,1,8573,7527180
44,2,0.999408,-0.000975479,0.034374,0.00070646,-0.675694,-0.0637831,9.78531,0.0815096,-0.577103,0.955568,-0.0067589,-0.000646561,0.0978529,1,4.33755e-05,-1.01049e-05,1.78457e-05,0.0086751,-0.00202098,0.00356913,0.999408,-0.000975479,0.034374,0.00070646,0.0480492,0.530751,-0.958611,33.8125,1,8574,7527280
44,3,0.999408,-0.000975479,0.034374,0.00070646,-0.675694,-0.0637831,9.78531,0.0815096,-0.577103,0.955568,-0.0067589,-0.000646561,0.0978529,1,4.33755e-05,-1.01049e-05,1.78457e-05,0.0086751,-0.00202098,0.00356913,0.999408,-0.000975479,0.034374,0.00070646,0.0480492,0.530751,-0.958611,33.8125,1,8574,7527280
44,4,0.999408,-0.000975479,0.034374,0.00070646,-0.675694,-0.0637831,9.78531,0.0815096,-0.577103,0.955568,-0.0067589,-0.000646561,0.0978529,1,4.33755e-05,-1.01049e-05,1.78457e-05,0.0086751,-0.00202098,0.00356913,0.999408,-0.000975479,0.034374,0.00070646,0.0480492,0.530751,-0.958611,33.8125,1,8574,7527280
45,1,0.999409,-0.000921375,0.0343648,0.000719796,-0.671377,-0.0618028,9.7819,0.0858743,-0.57483,0.954069,-0.00671562,-0.000629082,0.0978188,1,5.54323e-05,-9.53855e-06,1.56016e-05,0.0110865,-0.00190771,0.00312032,0.999409,-0.000921375,0.0343648,0.000719796,0.0499746,0.533625,-0.956535,33.8125,1,8575,7527380
45,2,0.999409,-0.000921375,0.0343648,0.000719796,-0.671377,-0.0618028,9.7819,0.0858743,-0.57483,0.954069,-0.00671562,-0.000629082,0.0978188,1,5.54323e-05,-9.53855e-06,1.56016e-05,0.0110865,-0.00190771,0.00312032,0.999409,-0.000921375,0.0343648,0.000719796,0.0499746,0.533625,-0.956535,33.8125,1,8575,7527380
45,3,0.999409,-0.000921375,0.0343648,0.000719796,-0.671377,-0.0618028,9.7819,0.0858743,-0.57483,0.954069,-0.00671562,-0.000629082,0.0978188,1,5.54323e-05,-9.53855e-06,1.56016e-05,0.0110865,-0.00190771,0.00312032,0.999409,-0.000921375,0.0343648,0.000719796,0.0499746,0.533625,-0.956535,33.8125,1,8575,7527380
45,4,0.999409,-0.000885469,0.0343495,0.000725427,-0.696407,-0.0612219,9.79226,0.0635824,-0.571419,0.962509,-0.00696706,-0.000619927,0.0979223,1,3.86965e-05,-1.53536e-05,9.2332e-06,0.0077393,-0.00307072,0.00184664,0.999409,-0.000885469,0.0343495,0.000725427,0.050802,0.536607,-0.960008,33.8125,1,8576,7527480
46,1,0.999409,-0.000885469,0.0343495,0.000725427,-0.696407,-0.0612219,9.79226,0.0635824,-0.571419,0.962509,-0.00696706,-0.000619927,0.0979223,1,3.86965e-05,-1.53536e-05,9.2332e-06,0.0077393,-0.00307072,0.00184664,0.999409,-0.000885469,0.0343495,0.000725427,0.050802,0.536607,-0.960008,33.8125,1,8576,7527480
46,2,0.999409,-0.000885469,0.0343495,0.000725427,-0.696407,-0.0612219,9.79226,0.0635824,-0.571419,0.962509,-0.00696706,-0.000619927,0.0979223,1,3.86965e-05,-1.53536e-05,9.2332e-06,0.0077393,-0.00307072,0.00184664,0.999409,-0.000885469,0.0343495,0.000725427,0.050802,0.536607,-0.960008,33.8125,1,8576,7527480
46,3,0.99941,-0.000849654,0.0343445,0.000742195,-0.68976,-0.0607617,9.7861,0.070752,-0.575515,0.955961,-0.00689877,-0.000615773,0.0978609,1,4.01884e-05,-6.09826e-06,2.09866e-05,0.00803767,-0.00121965,0.00419731,0.99941,-0.000849654,0.0343445,0.000742195,0.052159,0.536658,-0.963549,33.8125,1,8577,7527580
46,4,0.99941,-0.000849654,0.0343445,0.000742195,-0.68976,-0.0607617,9.7861,0.070752,-0.575515,0.955961,-0.00689877,-0.000615773,0.0978609,1,4.01884e-05,-6.09826e-06,2.09866e-05,0.00803767,-0.00121965,0.00419731,0.99941,-0.000849654,0.0343445,0.000742195,0.052159,0.536658,-0.963549,33.8125,1,8577,7527580
47,1,0.99941,-0.000849654,0.0343445,0.000742195,-0.68976,-0.0607617,9.7861,0.070752,-0.575515,0.955961,-0.00689877,-0.000615773,0.0978609,1,4.01884e-05,-6.09826e-06,2.09866e-05,0.00803767,-0.00121965,0.00419731,0.99941,-0.000849654,0.0343445,0.000742195,0.052159,0.536658,-0.963549,33.8125,1,8577,7527580
47,2,0.999409,-0.000810224,0.0343486,0.000758449,-0.689189,-0.0616628,9.781,0.0694233,-0.581186,0.953464,-0.00689125,-0.00062591,0.0978099,1,4.59663e-05,3.14825e-06,2.10423e-05,0.00919326,0.000629649,0.00420847,0.999409,-0.000810224,0.0343486,0.000758449,0.0517548,0.532751,-0.963129,33.8125,1,8578,7527680
47,3,0.999409,-0.000810224,0.0343486,0.000758449,-0.689189,-0.0616628,9.781,0.0694233,-0.581186,0.953464,-0.00689125,-0.00062591,0.0978099,1,4.59663e-05,3.14825e-06,2.10423e-05,0.00919326,0.000629649,0.00420847,0.999409,-0.000810224,0.0343486,0.000758449,0.0517548,0.532751,-0.963129,33.8125,1,8578,7527680
47,4,0.999409,-0.000810224,0.0343486,0.000758449,-0.689189,-0.0616628,9.781,0.0694233,-0.581186,0.953464,-0.00689125,-0.00062591,0.0978099,1,4.59663e-05,3.14825e-06,2.10423e-05,0.00919326,0.000629649,0.00420847,0.999409,-0.000810224,0.0343486,0.000758449,0.0517548,0.532751,-0.963129,33.8125,1,8578,7527680
47,5,0.999409,-0.000777785,0.0343557,0.00076369,-0.689603,-0.0591325,9.78678,0.0637113,-0.577341,0.957978,-0.00689511,-0.000598937,0.0978678,1,3.81766e-05,4.61555e-06,1.01127e-05,0.00763533,0.000923109,0.00202254,0.999409,-0.000777785,0.0343557,0.00076369,0.0474978,0.529842,-0.962164,33.8125,1,8579,7527780
47,6,0.999409,-0.000777785,0.0343557,0.00076369,-0.689603,-0.0591325,9.78678,0.0637113,-0.577341,0.957978,-0.00689511,-0.000598937,0.0978678,1,3.81766e-05,4.61555e-06,1.01127e-05,0.00763533,0.000923109,0.00202254,0.999409,-0.000777785,0.0343557,0.00076369,0.0474978,0.529842,-0.962164,33.8125,1,8579,7527780
48,1,0.999409,-0.000777785,0.0343557,0.00076369,-0.689603,-0.0591325,9.78678,0.0637113,-0.577341,0.957978,-0.00689511,-0.000598937,0.0978678,1,3.81766e-05,4.61555e-06,1.01127e-05,0.00763533,0.000923109,0.00202254,0.999409,-0.000777785,0.0343557,0.00076369,0.0474978,0.529842,-0.962164,33.8125,1,8579,7527780
48,2,0.999409,-0.000741859,0.0343519,0.000784662,-0.68488,-0.0657803,9.78637,0.0721378,-0.585686,0.96192,-0.00684983,-0.000665679,0.0978636,1,3.91734e-05,-5.35693e-06,1.52698e-05,0.00783467,-0.00107139,0.00305396,0.999409,-0.000741859,0.0343519,0.000784662,0.0476093,0.531206,-0.956578,33.8125,1,8580,7527880
48,3,0.999409,-0.000741859,0.0343519,0.000784662,-0.68488,-0.0657803,9.78637,0.0721378,-0.585686,0.96192,-0.00684983,-0.000665679,0.0978636,1,3.91734e-05,-5.35693e-06,1.52698e-05,0.00783467,-0.00107139,0.00305396,0.999409,-0.000741859,0.0343519,0.000784662,0.0476093,0.531206,-0.956578,33.8125,1,8580,7527880
48,4,0.999409,-0.000741859,0.0343519,0.000784662,-0.68488,-0.0657803,9.78637,0.0721378,-0.585686,0.96192,-0.00684983,-0.000665679,0.0978636,1,3.91734e-05,-5.35693e-06,1.52698e-05,0.00783467,-0.00107139,0.00305396,0.999409,-0.000741859,0.0343519,0.000784662,0.0476093,0.531206,-0.956578,33.8125,1,8580,7527880
48,5,0.99941,-0.000700819,0.0343341,0.000798512,-0.67677,-0.0535213,9.78405,0.0756513,-0.573101,0.955137,-0.00677104,-0.000543348,0.0978402,1,4.071e-05,-1.71383e-05,1.24777e-05,0.00814199,-0.00342765,0.00249555,0.99941,-0.000700819,0.0343341,0.000798512,0.0505297,0.533567,-0.953509,33.8125,1,8581,7527980
48,6,0.99941,-0.000700819,0.0343341,0.000798512,-0.67677,-0.0535213,9.78405,0.0756513,-0.573101,0.955137,-0.00677104,-0.000543348,0.0978402,1,4.071e-05,-1.71383e-05,1.24777e-05,0.00814199,-0.00342765,0.00249555,0.99941,-0.000700819,0.0343341,0.000798512,0.0505297,0.533567,-0.953509,33.8125,1,8581,7527980
48,7,0.99941,-0.000700819,0.0343341,0.000798512,-0.67677,-0.0535213,9.78405,0.0756513,-0.573101,0.955137,-0.00677104,-0.000543348,0.0978402,1,4.071e-05,-1.71383e-05,1.24777e-05,0.00814199,-0.00342765,0.00249555,0.99941,-0.000700819,0.0343341,0.000798512,0.0505297,0.533567,-0.953509,33.8125,1,8581,7527980
48,8,0.99941,-0.000665529,0.0343328,0.000810737,-0.685347,-0.0645791,9.78367,0.0742655,-0.582307,0.953773,-0.00685384,-0.000653214,0.0978366,1,3.67425e-05,-1.98013e-06,1.70283e-05,0.0073485,-0.000396027,0.00340566,0.99941,-0.000665529,0.0343328,0.000810737,0.0518459,0.534612,-0.958037,33.8125,1,8582,7528080
48,9,0.99941,-0.000665529,0.0343328,0.000810737,-0.685347,-0.0645791,9.78367,0.0742655,-0.582307,0.953773,-0.00685384,-0.000653214,0.0978366,1,3.67425e-05,-1.98013e-06,1.70283e-05,0.0073485,-0.000396027,0.00340566,0.99941,-0.000665529,0.0343328,0.000810737,0.0518459,0.534612,-0.958037,33.8125,1,8582,7528080
48,10,0.99941,-0.000665529,0.0343328,0.000810737,-0.685347,-0.0645791,9.78367,0.0742655,-0.582307,0.953773,-0.00685384,-0.000653214,0.0978366,1,3.67425e-05,-1.98013e-06,1.70283e-05,0.0073485,-0.000396027,0.00340566,0.99941,-0.000665529,0.0343328,0.000810737,0.0518459,0.534612,-0.958037,33.8125,1,8582,7528080
48,11,0.99941,-0.000630136,0.0343173,0.000816097,-0.686156,-0.0622057,9.79455,0.0742232,-0.578983,0.964595,-0.00686479,-0.000630193,0.0979452,1,4.05628e-05,-1.65852e-05,1.38822e-05,0.00811255,-0.00331704,0.00277645,0.99941,-0.000630136,0.0343173,0.000816097,0.0497572,0.535711,-0.964064,33.8125,1,8583,7528180
48,12,0.99941,-0.000630136,0.0343173,0.000816097,-0.686156,-0.0622057,9.79455,0.0742232,-0.578983,0.964595,-0.00686479,-0.000630193,0.0979452,1,4.05628e-05,-1.65852e-05,1.38822e-05,0.00811255,-0.00331704,0.00277645,0.99941,-0.000630136,0.0343173,0.000816097,0.0497572,0.535711,-0.964064,33.8125,1,8583,7528180
49,1,0.99941,-0.000630136,0.0343173,0.000816097,-0.686156,-0.0622057,9.79455,0.0742232,-0.578983,0.964595,-0.00686479,-0.000630193,0.0979452,1,4.05628e-05,-1.65852e-05,1.38822e-05,0.00811255,-0.00331704,0.00277645,0.99941,-0.000630136,0.0343173,0.000816097,0.0497572,0.535711,-0.964064,33.8125,1,8583,7528180
49,2,0.999411,-0.000591178,0.0343076,0.000821952,-0.676362,-0.061346,9.79381,0.0810545,-0.580977,0.961125,-0.00676576,-0.000623102,0.0979379,1,4.85834e-05,-1.10006e-05,9.31319e-06,0.00971668,-0.00220011,0.00186264,0.999411,-0.000591178,0.0343076,0.000821952,0.0482517,0.534323,-0.967623,33.8125,1,8584,7528280
49,3,0.999411,-0.000591178,0.0343076,0.000821952,-0.676362,-0.061346,9.79381,0.0810545,-0.580977,0.961125,-0.00676576,-0.000623102,0.0979379,1,4.85834e-05,-1.10006e-05,9.31319e-06,0.00971668,-0.00220011,0.00186264,0.999411,-0.000591178,0.0343076,0.000821952,0.0482517,0.534323,-0.967623,33.8125,1,8584,7528280
49,4,0.999411,-0.000591178,0.0343076,0.000821952,-0.676362,-0.061346,9.79381,0.0810545,-0.580977,0.961125,-0.00676576,-0.000623102,0.0979379,1,4.85834e-05,-1.10006e-05,9.31319e-06,0.00971668,-0.00220011,0.00186264,0.999411,-0.000591178,0.0343076,0.000821952,0.0482517,0.534323,-0.967623,33.8125,1,8584,7528280
49,5,0.999412,-0.000558729,0.034285,0.000848401,-0.685485,-0.0640735,9.78233,0.0684071,-0.582841,0.953941,-0.00685954,-0.000649899,0.0978229,1,4.50592e-05,-2.41102e-05,2.54344e-05,0.00901184,-0.00482203,0.00508689,0.999412,-0.000558729,0.034285,0.000848401,0.0484193,0.530828,-0.963156,33.8125,1,8585,7528380
49,6,0.999412,-0.000558729,0.034285,0.000848401,-0.685485,-0.0640735,9.78233,0.0684071,-0.582841,0.953941,-0.00685954,-0.000649899,0.0978229,1,4.50592e-05,-2.41102e-05,2.54344e-05,0.00901184,-0.00482203,0.00508689,0.999412,-0.000558729,0.034285,0.000848401,0.0484193,0.530828,-0.963156,33.8125,1,8585,7528380
49,7,0.999412,-0.000558729,0.034285,0.000848401,-0.685485,-0.0640735,9.78233,0.0684071,-0.582841,0.953941,-0.00685954,-0.000649899,0.0978229,1,4.50592e-05,-2.41102e-05,2.54344e-05,0.00901184,-0.00482203,0.00508689,0.999412,-0.000558729,0.034285,0.000848401,0.0484193,0.530828,-0.963156,33.8125,1,8585,7528380
49,8,0.999412,-0.00052434,0.034278,0.000859791,-0.686644,-0.0580657,9.78848,0.0737932,-0.578551,0.95876,-0.00686794,-0.000588719,0.0978847,1,4.05293e-05,-7.74327e-06,9.28329e-06,0.00810586,-0.00154865,0.00185666,0.999412,-0.00052434,0.034278,0.000859791,0.0485426,0.530738,-0.958108,33.8125,1,8586,7528480
49,9,0.999412,-0.00052434,0.034278,0.000859791,-0.686644,-0.0580657,9.78848,0.0737932,-0.578551,0.95876,-0.00686794,-0.000588719,0.0978847,1,4.05293e-05,-7.74327e-06,9.28329e-06,0.00810586,-0.00154865,0.00185666,0.999412,-0.00052434,0.034278,0.000859791,0.0485426,0.530738,-0.958108,33.8125,1,8586,7528480
49,10,0.999412,-0.00052434,0.034278,0.000859791,-0.686644,-0.0580657,9.78848,0.0737932,-0.578551,0.95876,-0.00686794,-0.000588719,0.0978847,1,4.05293e-05,-7.74327e-06,9.28329e-06,0.00810586,-0.00154865,0.00185666,0.999412,-0.00052434,0.034278,0.000859791,0.0485426,0.530738,-0.958108,33.8125,1,8586,7528480
50,1,0.999412,-0.000482631,0.0342608,0.00087314,-0.687372,-0.0596576,9.78033,0.069731,-0.58305,0.950836,-0.00687717,-0.000604848,0.097803,1,4.11514e-05,-1.77135e-05,1.61699e-05,0.00823028,-0.00354271,0.00323398,0.999412,-0.000482631,0.0342608,0.00087314,0.0503944,0.535112,-0.95802,33.8125,1,8587,7528580
50,2,0.999412,-0.000482631,0.0342608,0.00087314,-0.687372,-0.0596576,9.78033,0.069731,-0.58305,0.950836,-0.00687717,-0.000604848,0.097803,1,4.11514e-05,-1.77135e-05,1.61699e-05,0.00823028,-0.00354271,0.00323398,0.999412,-0.000482631,0.0342608,0.00087314,0.0503944,0.535112,-0.95802,33.8125,1,8587,7528580
51,1,0.999412,-0.000482631,0.0342608,0.00087314,-0.687372,-0.0596576,9.78033,0.069731,-0.58305,0.950836,-0.00687717,-0.000604848,0.097803,1,4.11514e-05,-1.77135e-05,1.61699e-05,0.00823028,-0.00354271,0.00323398,0.999412,-0.000482631,0.0342608,0.00087314,0.0503944,0.535112,-0.95802,33.8125,1,8587,7528580
51,2,0.999413,-0.000444728,0.0342463,0.000895887,-0.682115,-0.0589947,9.78981,0.0713909,-0.584426,0.961683,-0.00682419,-0.000598844,0.0978978,1,4.34761e-05,-1.57357e-05,2.81854e-05,0.00869521,-0.00314714,0.00563708,0.999413,-0.000444728,0.0342463,0.000895887,0.0531957,0.538041,-0.959482,33.8125,1,8588,7528680
51,3,0.999413,-0.000444728,0.0342463,0.000895887,-0.682115,-0.0589947,9.78981,0.0713909,-0.584426,0.961683,-0.00682419,-0.000598844,0.0978978,1,4.34761e-05,-1.57357e-05,2.81854e-05,0.00869521,-0.00314714,0.00563708,0.999413,-0.000444728,0.0342463,0.000895887,0.0531957,0.538041,-0.959482,33.8125,1,8588,7528680
51,4,0.999413,-0.000444728,0.0342463,0.000895887,-0.682115,-0.0589947,9.78981,0.0713909,-0.584426,0.961683,-0.00682419,-0.000598844,0.0978978,1,4.34761e-05,-1.57357e-05,2.81854e-05,0.00869521,-0.00314714,0.00563708,0.999413,-0.000444728,0.0342463,0.000895887,0.0531957,0.538041,-0.959482,33.8125,1,8588,7528680
51,5,0.999413,-0.000412814,0.0342344,0.000896215,-0.683095,-0.069558,9.7887,0.07032,-0.595026,0.961333,-0.00683361,-0.000703943,0.0978868,1,4.13191e-05,-1.36922e-05,2.00384e-05,0.00826381,-0.00273845,0.00400767,0.999413,-0.000412814,0.0342344,0.000896215,0.0516086,0.53864,-0.965017,33.8125,1,8589,7528780
51,6,0.999413,-0.000412814,0.0342344,0.000896215,-0.683095,-0.069558,9.7887,0.07032,-0.595026,0.961333,-0.00683361,-0.000703943,0.0978868,1,4.13191e-05,-1.36922e-05,2.00384e-05,0.00826381,-0.00273845,0.00400767,0.999413,-0.000412814,0.0342344,0.000896215,0.0516086,0.53864,-0.965017,33.8125,1,8589,7528780
51,7,0.999413,-0.000412814,0.0342344,0.000896215,-0.683095,-0.069558,9.7887,0.07032,-0.595026,0.961333,-0.00683361,-0.000703943,0.0978868,1,4.13191e-05,-1.36922e-05,2.00384e-05,0.00826381,-0.00273845,0.00400767,0.999413,-0.000412814,0.0342344,0.000896215,0.0516086,0.53864,-0.965017,33.8125,1,8589,7528780
51,8,0.999414,-0.000393844,0.0342172,0.000917604,-0.684566,-0.0624444,9.78267,0.0652635,-0.59014,0.952049,-0.00684904,-0.000632055,0.0978264,1,3.65336e-05,-1.75035e-05,3.37624e-05,0.00730673,-0.00350071,0.00675249,0.999414,-0.000393844,0.0342172,0.000917604,0.0492386,0.534297,-0.966618,33.8125,1,8590,7528880
52,1,0.999414,-0.000393844,0.0342172,0.000917604,-0.684566,-0.0624444,9.78267,0.0652635,-0.59014,0.952049,-0.00684904,-0.000632055,0.0978264,1,3.65336e-05,-1.75035e-05,3.37624e-05,0.00730673,-0.00350071,0.00675249,0.999414,-0.000393844,0.0342172,0.000917604,0.0492386,0.534297,-0.966618,33.8125,1,8590,7528880
52,2,0.999414,-0.000393844,0.0342172,0.000917604,-0.684566,-0.0624444,9.78267,0.0652635,-0.59014,0.952049,-0.00684904,-0.000632055,0.0978264,1,3.65336e-05,-1.75035e-05,3.37624e-05,0.00730673,-0.00350071,0.00675249,0.999414,-0.000393844,0.0342172,0.000917604,0.0492386,0.534297,-0.966618,33.8125,1,8590,7528880
52,3,0.999414,-0.000354628,0.0341993,0.000949623,-0.677087,-0.0502615,9.78815,0.0769555,-0.579157,0.958022,-0.00677462,-0.000513881,0.0978812,1,5.54658e-05,-1.92936e-05,3.0091e-05,0.0110932,-0.00385871,0.00601819,0.999414,-0.000354628,0.0341993,0.000949623,0.0474409,0.531811,-0.96313,33.8125,1,8591,7528980
52,4,0.999414,-0.000354628,0.0341993,0.000949623,-0.677087,-0.0502615,9.78815,0.0769555,-0.579157,0.958022,-0.00677462,-0.000513881,0.0978812,1,5.54658e-05,-1.92936e-05,3.0091e-05,0.0110932,-0.00385871,0.00601819,0.999414,-0.000354628,0.0341993,0.000949623,0.0474409,0.531811,-0.96313,33.8125,1,8591,7528980
53,1,0.999414,-0.000354628,0.0341993,0.000949623,-0.677087,-0.0502615,9.78815,0.0769555,-0.579157,0.958022,-0.00677462,-0.000513881,0.0978812,1,5.54658e-05,-1.92936e-05,3.0091e-05,0.0110932,-0.00385871,0.00601819,0.999414,-0.000354628,0.0341993,0.000949623,0.0474409,0.531811,-0.96313,33.8125,1,8591,7528980
53,2,0.999415,-0.000302295,0.0341807,0.000997463,-0.68916,-0.06821,9.78774,0.0646836,-0.59292,0.961319,-0.00689527,-0.00069363,0.0978771,1,5.67195e-05,-1.89677e-05,3.09103e-05,0.0113439,-0.00379354,0.00618206,0.999415,-0.000302295,0.0341807,0.000997463,0.0480169,0.532702,-0.958567,33.8125,1,8592,7529080
54,1,0.999415,-0.000302295,0.0341807,0.000997463,-0.68916,-0.06821,9.78774,0.0646836,-0.59292,0.961319,-0.00689527,-0.00069363,0.0978771,1,5.67195e-05,-1.89677e-05,3.09103e-05,0.0113439,-0.00379354,0.00618206,0.999415,-0.000302295,0.0341807,0.000997463,0.0480169,0.532702,-0.958567,33.8125,1,8592,7529080
54,2,0.999415,-0.000302295,0.0341807,0.000997463,-0.68916,-0.06821,9.78774,0.0646836,-0.59292,0.961319,-0.00689527,-0.00069363,0.0978771,1,5.67195e-05,-1.89677e-05,3.09103e-05,0.0113439,-0.00379354,0.00618206,0.999415,-0.000302295,0.0341807,0.000997463,0.0480169,0.532702,-0.958567,33.8125,1,8592,7529080
54,3,0.999415,-0.000264594,0.0341842,0.00102213,-0.675477,-0.054881,9.78776,0.0779287,-0.585707,0.958261,-0.00675403,-0.000556002,0.0978776,1,3.52731e-05,3.6453e-06,2.12374e-05,0.00705463,0.00072906,0.00424748,0.999415,-0.000264594,0.0341842,0.00102213,0.0494445,0.53511,-0.95751,33.8125,1,8593,7529180
54,4,0.999415,-0.000264594,0.0341842,0.00102213,-0.675477,-0.054881,9.78776,0.0779287,-0.585707,0.958261,-0.00675403,-0.000556002,0.0978776,1,3.52731e-05,3.6453e-06,2.12374e-05,0.00705463,0.00072906,0.00424748,0.999415,-0.000264594,0.0341842,0.00102213,0.0494445,0.53511,-0.95751,33.8125,1,8593,7529180
54,5,0.999415,-0.000264594,0.0341842,0.00102213,-0.675477,-0.054881,9.78776,0.0779287,-0.585707,0.958261,-0.00675403,-0.000556002,0.0978776,1,3.52731e-05,3.6453e-06,2.12374e-05,0.00705463,0.00072906,0.00424748,0.999415,-0.000264594,0.0341842,0.00102213,0.0494445,0.53511,-0.95751,33.8125,1,8593,7529180
54,6,0.999416,-0.000197607,0.0341651,0.00102774,-0.682408,-0.0601606,9.79624,0.0722625,-0.591652,0.970312,-0.00682807,-0.000615091,0.097962,1,6.82324e-05,-2.04088e-05,8.54229e-06,0.0136465,-0.00408177,0.00170846,0.999416,-0.000197607,0.0341651,0.00102774,0.0522824,0.536568,-0.958501,33.8125,1,8594,7529280
55,1,0.999416,-0.000197607,0.0341651,0.00102774,-0.682408,-0.0601606,9.79624,0.0722625,-0.591652,0.970312,-0.00682807,-0.000615091,0.097962,1,6.82324e-05,-2.04088e-05,8.54229e-06,0.0136465,-0.00408177,0.00170846,0.999416,-0.000197607,0.0341651,0.00102774,0.0522824,0.536568,-0.958501,33.8125,1,8594,7529280
55,2,0.999416,-0.000197607,0.0341651,0.00102774,-0.682408,-0.0601606,9.79624,0.0722625,-0.591652,0.970312,-0.00682807,-0.000615091,0.097962,1,6.82324e-05,-2.04088e-05,8.54229e-06,0.0136465,-0.00408177,0.00170846,0.999416,-0.000197607,0.0341651,0.00102774,0.0522824,0.536568,-0.958501,33.8125,1,8594,7529280
55,3,0.999416,-0.000166556,0.0341482,0.00103839,-0.66813,-0.0681003,9.78319,0.0857509,-0.596866,0.953171,-0.00668511,-0.000688671,0.0978315,1,3.78416e-05,-1.96135e-05,1.97608e-05,0.00756832,-0.0039227,0.00395215,0.999416,-0.000166556,0.0341482,0.00103839,0.0507284,0.538106,-0.961995,33.8125,1,8595,7529380
55,4,0.999416,-0.000166556,0.0341482,0.00103839,-0.66813,-0.0681003,9.78319,0.0857509,-0.596866,0.953171,-0.00668511,-0.000688671,0.0978315,1,3.78416e-05,-1.96135e-05,1.97608e-05,0.00756832,-0.0039227,0.00395215,0.999416,-0.000166556,0.0341482,0.00103839,0.0507284,0.538106,-0.961995,33.8125,1,8595,7529380
55,5,0.999416,-0.000166556,0.0341482,0.00103839,-0.66813,-0.0681003,9.78319,0.0857509,-0.596866,0.953171,-0.00668511,-0.000688671,0.0978315,1,3.78416e-05,-1.96135e-05,1.97608e-05,0.00756832,-0.0039227,0.00395215,0.999416,-0.000166556,0.0341482,0.00103839,0.0507284,0.538106,-0.961995,33.8125,1,8595,7529380
55,6,0.999416,-0.000135901,0.0341469,0.00104773,-0.677546,-0.0537674,9.78574,0.0766885,-0.587431,0.955939,-0.00677603,-0.000546508,0.0978573,1,4.40833e-05,-2.98386e-06,1.51804e-05,0.00881665,-0.000596772,0.00303609,0.999416,-0.000135901,0.0341469,0.00104773,0.0482973,0.535254,-0.965078,33.8125,1,8596,7529480
56,1,0.999416,-0.000135901,0.0341469,0.00104773,-0.677546,-0.0537674,9.78574,0.0766885,-0.587431,0.955939,-0.00677603,-0.000546508,0.0978573,1,4.40833e-05,-2.98386e-06,1.51804e-05,0.00881665,-0.000596772,0.00303609,0.999416,-0.000135901,0.0341469,0.00104773,0.0482973,0.535254,-0.965078,33.8125,1,8596,7529480
56,2,0.999416,-0.000135901,0.0341469,0.00104773,-0.677546,-0.0537674,9.78574,0.0766885,-0.587431,0.955939,-0.00677603,-0.000546508,0.0978573,1,4.40833e-05,-2.98386e-06,1.51804e-05,0.00881665,-0.000596772,0.00303609,0.999416,-0.000135901,0.0341469,0.00104773,0.0482973,0.535254,-0.965078,33.8125,1,8596,7529480
56,3,0.999417,-0.000109977,0.0341288,0.00107208,-0.672255,-0.0565078,9.78637,0.077472,-0.590924,0.952852,-0.00672616,-0.000573598,0.0978634,1,4.21407e-05,-1.85443e-05,2.02393e-05,0.00842813,-0.00370886,0.00404786,0.999417,-0.000109977,0.0341288,0.00107208,0.0464991,0.531323,-0.962631,33.8125,1,8597,7529580
56,4,0.999417,-0.000109977,0.0341288,0.00107208,-0.672255,-0.0565078,9.78637,0.077472,-0.590924,0.952852,-0.00672616,-0.000573598,0.0978634,1,4.21407e-05,-1.85443e-05,2.02393e-05,0.00842813,-0.00370886,0.00404786,0.999417,-0.000109977,0.0341288,0.00107208,0.0464991,0.531323,-0.962631,33.8125,1,8597,7529580
56,5,0.999417,-0.000109977,0.0341288,0.00107208,-0.672255,-0.0565078,9.78637,0.077472,-0.590924,0.952852,-0.00672616,-0.000573598,0.0978634,1,4.21407e-05,-1.85443e-05,2.02393e-05,0.00842813,-0.00370886,0.00404786,0.999417,-0.000109977,0.0341288,0.00107208,0.0464991,0.531323,-0.962631,33.8125,1,8597,7529580
56,6,0.999417,-8.71449e-05,0.0341171,0.00109575,-0.68228,-0.0556883,9.78677,0.0719069,-0.59141,0.957519,-0.0068252,-0.0005628,0.0978675,1,2.96831e-05,-1.22599e-05,7.8046e-06,0.00593662,-0.00245197,0.00156092,0.999417,-8.71449e-05,0.0341171,0.00109575,0.0470874,0.532204,-0.957564,33.8125,1,8598,7529680
57,1,0.999417,-8.71449e-05,0.0341171,0.00109575,-0.68228,-0.0556883,9.78677,0.0719069,-0.59141,0.957519,-0.0068252,-0.0005628,0.0978675,1,2.96831e-05,-1.22599e-05,7.8046e-06,0.00593662,-0.00245197,0.00156092,0.999417,-8.71449e-05,0.0341171,0.00109575,0.0470874,0.532204,-0.957564,33.8125,1,8598,7529680
57,2,0.999417,-8.71449e-05,0.0341171,0.00109575,-0.68228,-0.0556883,9.78677,0.0719069,-0.59141,0.957519,-0.0068252,-0.0005628,0.0978675,1,2.96831e-05,-1.22599e-05,7.8046e-06,0.00593662,-0.00245197,0.00156092,0.999417,-8.71449e-05,0.0341171,0.00109575,0.0470874,0.532204,-0.957564,33.8125,1,8598,7529680
58,1,0.999418,-4.65569e-05,0.0340928,0.00111615,-0.676298,-0.0577023,9.7908,0.0785271,-0.592631,0.961251,-0.00676743,-0.000584847,0.0979076,1,3.87131e-05,-2.28345e-05,1.80135e-05,0.00774262,-0.0045669,0.0036027,0.999418,-4.65569e-05,0.0340928,0.00111615,0.0499299,0.535585,-0.956997,33.8125,1,8599,7529780
58,2,0.999418,-4.65569e-05,0.0340928,0.00111615,-0.676298,-0.0577023,9.7908,0.0785271,-0.592631,0.961251,-0.00676743,-0.000584847,0.0979076,1,3.87131e-05,-2.28345e-05,1.80135e-05,0.00774262,-0.0045669,0.0036027,0.999418,-4.65569e-05,0.0340928,0.00111615,0.0499299,0.535585,-0.956997,33.8125,1,8599,7529780
58,3,0.999418,-4.65569e-05,0.0340928,0.00111615,-0.676298,-0.0577023,9.7908,0.0785271,-0.592631,0.961251,-0.00676743,-0.000584847,0.0979076,1,3.87131e-05,-2.28345e-05,1.80135e-05,0.00774262,-0.0045669,0.0036027,0.999418,-4.65569e-05,0.0340928,0.00111615,0.0499299,0.535585,-0.956997,33.8125,1,8599,7529780
58,4,0.999418,-1.34545e-05,0.0340875,0.00113208,-0.686278,-0.0659126,9.79349,0.0667894,-0.599435,0.961312,-0.00686433,-0.000666711,0.0979348,1,3.7169e-05,-8.06683e-06,2.22179e-05,0.0074338,-0.00161337,0.00444358,0.999418,-1.34545e-05,0.0340875,0.00113208,0.0503086,0.53662,-0.960511,33.8125,1,8600,7529880
58,5,0.999418,-1.34545e-05,0.0340875,0.00113208,-0.686278,-0.0659126,9.79349,0.0667894,-0.599435,0.961312,-0.00686433,-0.000666711,0.0979348,1,3.7169e-05,-8.06683e-06,2.22179e-05,0.0074338,-0.00161337,0.00444358,0.999418,-1.34545e-05,0.0340875,0.00113208,0.0503086,0.53662,-0.960511,33.8125,1,8600,7529880
58,6,0.999418,-1.34545e-05,0.0340875,0.00113208,-0.686278,-0.0659126,9.79349,0.0667894,-0.599435,0.961312,-0.00686433,-0.000666711,0.0979348,1,3.7169e-05,-8.06683e-06,2.22179e-05,0.0074338,-0.00161337,0.00444358,0.999418,-1.34545e-05,0.0340875,0.00113208,0.0503086,0.53662,-0.960511,33.8125,1,8600,7529880
58,7,0.999418,1.91087e-05,0.0340856,0.00115935,-0.673453,-0.0578564,9.78601,0.075552,-0.596197,0.95584,-0.00673545,-0.000587507,0.09786,1,4.35803e-05,-4.90785e-06,3.07262e-05,0.00871606,-0.00098157,0.00614525,0.999418,1.91087e-05,0.0340856,0.00115935,0.0506744,0.536218,-0.965572,33.8125,1,8601,7529980
58,8,0.999418,1.91087e-05,0.0340856,0.00115935,-0.673453,-0.0578564,9.78601,0.075552,-0.596197,0.95584,-0.00673545,-0.000587507,0.09786,1,4.35803e-05,-4.90785e-06,3.07262e-05,0.00871606,-0.00098157,0.00614525,0.999418,1.91087e-05,0.0340856,0.00115935,0.0506744,0.536218,-0.965572,33.8125,1,8601,7529980
59,1,0.999418,1.91087e-05,0.0340856,0.00115935,-0.673453,-0.0578564,9.78601,0.075552,-0.596197,0.95584,-0.00673545,-0.000587507,0.09786,1,4.35803e-05,-4.90785e-06,3.07262e-05,0.00871606,-0.00098157,0.00614525,0.999418,1.91087e-05,0.0340856,0.00115935,0.0506744,0.536218,-0.965572,33.8125,1,8601,7529980
59,2,0.999419,4.75226e-05,0.0340675,0.00117045,-0.684073,-0.0586047,9.78509,0.0644425,-0.601456,0.957918,-0.00684493,-0.000595805,0.0978505,1,4.86022e-05,-2.15582e-05,1.79889e-05,0.00972043,-0.00431163,0.00359778,0.999419,4.75226e-05,0.0340675,0.00117045,0.0493041,0.533286,-0.964621,33.8125,1,8602,7530080
59,3,0.999419,4.75226e-05,0.0340675,0.00117045,-0.684073,-0.0586047,9.78509,0.0644425,-0.601456,0.957918,-0.00684493,-0.000595805,0.0978505,1,4.86022e-05,-2.15582e-05,1.79889e-05,0.00972043,-0.00431163,0.00359778,0.999419,4.75226e-05,0.0340675,0.00117045,0.0493041,0.533286,-0.964621,33.8125,1,8602,7530080
59,4,0.999419,4.75226e-05,0.0340675,0.00117045,-0.684073,-0.0586047,9.78509,0.0644425,-0.601456,0.957918,-0.00684493,-0.000595805,0.0978505,1,4.86022e-05,-2.15582e-05,1.79889e-05,0.00972043,-0.00431163,0.00359778,0.999419,4.75226e-05,0.0340675,0.00117045,0.0493041,0.533286,-0.964621,33.8125,1,8602,7530080
59,5,0.999419,6.09521e-05,0.0340666,0.00118444,-0.677836,-0.0604,9.78603,0.0755302,-0.598694,0.956455,-0.00677912,-0.000609985,0.0978602,1,2.9495e-05,-3.96383e-06,1.56424e-05,0.00589899,-0.000792766,0.00312848,0.999419,6.09521e-05,0.0340666,0.00118444,0.0465607,0.531277,-0.960107,33.8125,1,8603,7530180
59,6,0.999419,6.09521e-05,0.0340666,0.00118444,-0.677836,-0.0604,9.78603,0.0755302,-0.598694,0.956455,-0.00677912,-0.000609985,0.0978602,1,2.9495e-05,-3.96383e-06,1.56424e-05,0.00589899,-0.000792766,0.00312848,0.999419,6.09521e-05,0.0340666,0.00118444,0.0465607,0.531277,-0.960107,33.8125,1,8603,7530180
59,7,0.999419,6.09521e-05,0.0340666,0.00118444,-0.677836,-0.0604,9.78603,0.0755302,-0.598694,0.956455,-0.00677912,-0.000609985,0.0978602,1,2.9495e-05,-3.96383e-06,1.56424e-05,0.00589899,-0.000792766,0.00312848,0.999419,6.09521e-05,0.0340666,0.00118444,0.0465607,0.531277,-0.960107,33.8125,1,8603,7530180
59,8,0.999419,0.000108313,0.0340651,0.00121353,-0.686672,-0.0662571,9.79044,0.0649753,-0.601951,0.961286,-0.00686691,-0.000672458,0.0979043,1,4.90397e-05,-1.10082e-06,2.0763e-05,0.00980794,-0.000220164,0.0041526,0.999419,0.000108313,0.0340651,0.00121353,0.0480904,0.531202,-0.956581,33.8125,1,8604,7530280
60,1,0.999419,0.000108313,0.0340651,0.00121353,-0.686672,-0.0662571,9.79044,0.0649753,-0.601951,0.961286,-0.00686691,-0.000672458,0.0979043,1,4.90397e-05,-1.10082e-06,2.0763e-05,0.00980794,-0.000220164,0.0041526,0.999419,0.000108313,0.0340651,0.00121353,0.0480904,0.531202,-0.956581,33.8125,1,8604,7530280
60,2,0.999419,0.000108313,0.0340651,0.00121353,-0.686672,-0.0662571,9.79044,0.0649753,-0.601951,0.961286,-0.00686691,-0.000672458,0.0979043,1,4.90397e-05,-1.10082e-06,2.0763e-05,0.00980794,-0.000220164,0.0041526,0.999419,0.000108313,0.0340651,0.00121353,0.0480904,0.531202,-0.956581,33.8125,1,8604,7530280
60,3,0.999419,0.000151382,0.0340558,0.0012359,-0.677685,-0.0712633,9.78967,0.0801892,-0.609154,0.95735,-0.00677866,-0.000721067,0.0978965,1,4.12222e-05,-9.43975e-06,2.67718e-05,0.00824445,-0.00188795,0.00535436,0.999419,0.000151382,0.0340558,0.0012359,0.0490208,0.534591,-0.955499,33.8125,1,8605,7530380
60,4,0.999419,0.000151382,0.0340558,0.0012359,-0.677685,-0.0712633,9.78967,0.0801892,-0.609154,0.95735,-0.00677866,-0.000721067,0.0978965,1,4.12222e-05,-9.43975e-06,2.67718e-05,0.00824445,-0.00188795,0.00535436,0.999419,0.000151382,0.0340558,0.0012359,0.0490208,0.534591,-0.955499,33.8125,1,8605,7530380
60,5,0.999419,0.000151382,0.0340558,0.0012359,-0.677685,-0.0712633,9.78967,0.0801892,-0.609154,0.95735,-0.00677866,-0.000721067,0.0978965,1,4.12222e-05,-9.43975e-06,2.67718e-05,0.00824445,-0.00188795,0.00535436,0.999419,0.000151382,0.0340558,0.0012359,0.0490208,0.534591,-0.955499,33.8125,1,8605,7530380
60,6,0.99942,0.000192278,0.0340399,0.00125803,-0.695022,-0.0638369,9.7885,0.0546281,-0.603511,0.960376,-0.00695347,-0.000647551,0.0978847,1,4.49569e-05,-1.67729e-05,2.73622e-05,0.00899139,-0.00335457,0.00547245,0.99942,0.000192278,0.0340399,0.00125803,0.0512997,0.537073,-0.95899,33.8125,1,8606,7530480
60,7,0.99942,0.000192278,0.0340399,0.00125803,-0.695022,-0.0638369,9.7885,0.0546281,-0.603511,0.960376,-0.00695347,-0.000647551,0.0978847,1,4.49569e-05,-1.67729e-05,2.73622e-05,0.00899139,-0.00335457,0.00547245,0.99942,0.000192278,0.0340399,0.00125803,0.0512997,0.537073,-0.95899,33.8125,1,8606,7530480
60,8,0.99942,0.000192278,0.0340399,0.00125803,-0.695022,-0.0638369,9.7885,0.0546281,-0.603511,0.960376,-0.00695347,-0.000647551,0.0978847,1,4.49569e-05,-1.67729e-05,2.73622e-05,0.00899139,-0.00335457,0.00547245,0.99942,0.000192278,0.0340399,0.00125803,0.0512997,0.537073,-0.95899,33.8125,1,8606,7530480
61,1,0.99942,0.000235454,0.0340278,0.00125643,-0.676713,-0.0642432,9.78328,0.0739319,-0.602834,0.95026,-0.00677021,-0.000653818,0.0978325,1,5.73843e-05,-1.57972e-05,1.17086e-05,0.0114769,-0.00315944,0.00234172,0.99942,0.000235454,0.0340278,0.00125643,0.0506748,0.537664,-0.96453,33.8125,1,8607,7530580
61,2,0.99942,0.000235454,0.0340278,0.00125643,-0.676713,-0.0642432,9.78328,0.0739319,-0.602834,0.95026,-0.00677021,-0.000653818,0.0978325,1,5.73843e-05,-1.57972e-05,1.17086e-05,0.0114769,-0.00315944,0.00234172,0.99942,0.000235454,0.0340278,0.00125643,0.0506748,0.537664,-0.96453,33.8125,1,8607,7530580
61,3,0.99942,0.000235454,0.0340278,0.00125643,-0.676713,-0.0642432,9.78328,0.0739319,-0.602834,0.95026,-0.00677021,-0.000653818,0.0978325,1,5.73843e-05,-1.57972e-05,1.17086e-05,0.0114769,-0.00315944,0.00234172,0.99942,0.000235454,0.0340278,0.00125643,0.0506748,0.537664,-0.96453,33.8125,1,8607,7530580
61,4,0.99942,0.000258862,0.0340188,0.00126321,-0.675321,-0.0602455,9.79348,0.0751769,-0.599841,0.961708,-0.00675557,-0.000611601,0.0979345,1,4.56852e-05,-1.21033e-05,1.46347e-05,0.00913703,-0.00242067,0.00292694,0.99942,0.000258862,0.0340188,0.00126321,0.0492633,0.534279,-0.965609,33.8125,1,8608,7530680
61,5,0.99942,0.000258862,0.0340188,0.00126321,-0.675321,-0.0602455,9.79348,0.0751769,-0.599841,0.961708,-0.00675557,-0.000611601,0.0979345,1,4.56852e-05,-1.21033e-05,1.46347e-05,0.00913703,-0.00242067,0.00292694,0.99942,0.000258862,0.0340188,0.00126321,0.0492633,0.534279,-0.965609,33.8125,1,8608,7530680
61,6,0.99942,0.000258862,0.0340188,0.00126321,-0.675321,-0.0602455,9.79348,0.0751769,-0.599841,0.961708,-0.00675557,-0.000611601,0.0979345,1,4.56852e-05,-1.21033e-05,1.46347e-05,0.00913703,-0.00242067,0.00292694,0.99942,0.000258862,0.0340188,0.00126321,0.0492633,0.534279,-0.965609,33.8125,1,8608,7530680
61,7,0.999421,0.000273969,0.0340135,0.00128553,-0.681995,-0.0396167,9.79302,0.0678877,-0.578308,0.965098,-0.00682142,-0.000403369,0.0979301,1,3.52859e-05,-7.5923e-06,2.13831e-05,0.00705719,-0.00151846,0.00427662,0.999421,0.000273969,0.0340135,0.00128553,0.0479585,0.530335,-0.96266,33.8125,1,8609,7530780
61,8,0.999421,0.000273969,0.0340135,0.00128553,-0.681995,-0.0396167,9.79302,0.0678877,-0.578308,0.965098,-0.00682142,-0.000403369,0.0979301,1,3.52859e-05,-7.5923e-06,2.13831e-05,0.00705719,-0.00151846,0.00427662,0.999421,0.000273969,0.0340135,0.00128553,0.0479585,0.530335,-0.96266,33.8125,1,8609,7530780
62,1,0.999421,0.000273969,0.0340135,0.00128553,-0.681995,-0.0396167,9.79302,0.0678877,-0.578308,0.965098,-0.00682142,-0.000403369,0.0979301,1,3.52859e-05,-7.5923e-06,2.13831e-05,0.00705719,-0.00151846,0.00427662,0.999421,0.000273969,0.0340135,0.00128553,0.0479585,0.530335,-0.96266,33.8125,1,8609,7530780
62,2,0.99942,0.00031233,0.0340173,0.00129937,-0.677141,-0.0650993,9.7931,0.0747843,-0.609781,0.960399,-0.00677117,-0.000660345,0.0979309,1,4.70821e-05,1.11571e-06,9.57584e-06,0.00941641,0.000223142,0.00191517,0.99942,0.00031233,0.0340173,0.00129937,0.0471078,0.531707,-0.95707,33.8125,1,8610,7530880
62,3,0.99942,0.00031233,0.0340173,0.00129937,-0.677141,-0.0650993,9.7931,0.0747843,-0.609781,0.960399,-0.00677117,-0.000660345,0.0979309,1,4.70821e-05,1.11571e-06,9.57584e-06,0.00941641,0.000223142,0.00191517,0.99942,0.00031233,0.0340173,0.00129937,0.0471078,0.531707,-0.95707,33.8125,1,8610,7530880
62,4,0.99942,0.00031233,0.0340173,0.00129937,-0.677141,-0.0650993,9.7931,0.0747843,-0.609781,0.960399,-0.00677117,-0.000660345,0.0979309,1,4.70821e-05,1.11571e-06,9.57584e-06,0.00941641,0.000223142,0.00191517,0.99942,0.00031233,0.0340173,0.00129937,0.0471078,0.531707,-0.95707,33.8125,1,8610,7530880
62,5,0.999421,0.000360303,0.0340075,0.00131693,-0.683811,-0.0647171,9.78909,0.0663949,-0.60949,0.958066,-0.00684006,-0.000656963,0.0978907,1,4.89541e-05,-1.00565e-05,1.51301e-05,0.00979082,-0.00201129,0.00302601,0.999421,0.000360303,0.0340075,0.00131693,0.0485151,0.534613,-0.956507,33.8125,1,8611,7530980
62,6,0.999421,0.000360303,0.0340075,0.00131693,-0.683811,-0.0647171,9.78909,0.0663949,-0.60949,0.958066,-0.00684006,-0.000656963,0.0978907,1,4.89541e-05,-1.00565e-05,1.51301e-05,0.00979082,-0.00201129,0.00302601,0.999421,0.000360303,0.0340075,0.00131693,0.0485151,0.534613,-0.956507,33.8125,1,8611,7530980
62,7,0.999421,0.000360303,0.0340075,0.00131693,-0.683811,-0.0647171,9.78909,0.0663949,-0.60949,0.958066,-0.00684006,-0.000656963,0.0978907,1,4.89541e-05,-1.00565e-05,1.51301e-05,0.00979082,-0.00201129,0.00302601,0.999421,0.000360303,0.0340075,0.00131693,0.0485151,0.534613,-0.956507,33.8125,1,8611,7530980
62,8,0.999421,0.000377443,0.0340012,0.00134531,-0.680148,-0.0646051,9.79211,0.0719546,-0.606969,0.960045,-0.00680288,-0.000651237,0.097921,1,2.43205e-05,-7.31258e-06,3.10932e-05,0.0048641,-0.00146252,0.00621864,0.999421,0.000377443,0.0340012,0.00134531,0.0512746,0.535645,-0.961042,33.8125,1,8612,7531080
63,1,0.999421,0.000377443,0.0340012,0.00134531,-0.680148,-0.0646051,9.79211,0.0719546,-0.606969,0.960045,-0.00680288,-0.000651237,0.097921,1,2.43205e-05,-7.31258e-06,3.10932e-05,0.0048641,-0.00146252,0.00621864,0.999421,0.000377443,0.0340012,0.00134531,0.0512746,0.535645,-0.961042,33.8125,1,8612,7531080
63,2,0.999421,0.000377443,0.0340012,0.00134531,-0.680148,-0.0646051,9.79211,0.0719546,-0.606969,0.960045,-0.00680288,-0.000651237,0.097921,1,2.43205e-05,-7.31258e-06,3.10932e-05,0.0048641,-0.00146252,0.00621864,0.999421,0.000377443,0.0340012,0.00134531,0.0512746,0.535645,-0.961042,33.8125,1,8612,7531080
63,3,0.999421,0.000423493,0.0339922,0.00135976,-0.682995,-0.0511699,9.77936,0.0683525,-0.598202,0.944787,-0.00683247,-0.000524334,0.0977933,1,6.28437e-05,-1.30017e-05,2.51271e-05,0.0125687,-0.00260034,0.00502542,0.999421,0.000423493,0.0339922,0.00135976,0.0511474,0.536702,-0.965564,33.8125,1,8613,7531180
63,4,0.999421,0.000423493,0.0339922,0.00135976,-0.682995,-0.0511699,9.77936,0.0683525,-0.598202,0.944787,-0.00683247,-0.000524334,0.0977933,1,6.28437e-05,-1.30017e-05,2.51271e-05,0.0125687,-0.00260034,0.00502542,0.999421,0.000423493,0.0339922,0.00135976,0.0511474,0.536702,-0.965564,33.8125,1,8613,7531180
63,5,0.999421,0.000423493,0.0339922,0.00135976,-0.682995,-0.0511699,9.77936,0.0683525,-0.598202,0.944787,-0.00683247,-0.000524334,0.0977933,1,6.28437e-05,-1.30017e-05,2.51271e-05,0.0125687,-0.00260034,0.00502542,0.999421,0.000423493,0.0339922,0.00135976,0.0511474,0.536702,-0.965564,33.8125,1,8613,7531180
63,6,0.999421,0.000444795,0.0339915,0.00136306,-0.687048,-0.0589973,9.79118,0.0587047,-0.603504,0.959763,-0.00687142,-0.000599285,0.0979117,1,4.65736e-05,-4.878e-06,1.39495e-05,0.00931471,-0.000975601,0.0027899,0.999421,0.000444795,0.0339915,0.00136306,0.0488064,0.53282,-0.965639,33.8125,1,8614,7531280
63,7,0.999421,0.000444795,0.0339915,0.00136306,-0.687048,-0.0589973,9.79118,0.0587047,-0.603504,0.959763,-0.00687142,-0.000599285,0.0979117,1,4.65736e-05,-4.878e-06,1.39495e-05,0.00931471,-0.000975601,0.0027899,0.999421,0.000444795,0.0339915,0.00136306,0.0488064,0.53282,-0.965639,33.8125,1,8614,7531280
63,8,0.999421,0.000444795,0.0339915,0.00136306,-0.687048,-0.0589973,9.79118,0.0587047,-0.603504,0.959763,-0.00687142,-0.000599285,0.0979117,1,4.65736e-05,-4.878e-06,1.39495e-05,0.00931471,-0.000975601,0.0027899,0.999421,0.000444795,0.0339915,0.00136306,0.0488064,0.53282,-0.965639,33.8125,1,8614,7531280
64,1,0.999421,0.00046806,0.0339806,0.00138533,-0.673963,-0.0692048,9.7883,0.0760864,-0.61491,0.956021,-0.00674242,-0.00070077,0.0978827,1,4.31314e-05,-1.44019e-05,2.06773e-05,0.00862628,-0.00288038,0.00413547,0.999421,0.00046806,0.0339806,0.00138533,0.047477,0.528894,-0.9637,33.8125,1,8615,7531380
64,2,0.999421,0.00046806,0.0339806,0.00138533,-0.673963,-0.0692048,9.7883,0.0760864,-0.61491,0.956021,-0.00674242,-0.00070077,0.0978827,1,4.31314e-05,-1.44019e-05,2.06773e-05,0.00862628,-0.00288038,0.00413547,0.999421,0.00046806,0.0339806,0.00138533,0.047477,0.528894,-0.9637,33.8125,1,8615,7531380
65,1,0.999421,0.00046806,0.0339806,0.00138533,-0.673963,-0.0692048,9.7883,0.0760864,-0.61491,0.956021,-0.00674242,-0.00070077,0.0978827,1,4.31314e-05,-1.44019e-05,2.06773e-05,0.00862628,-0.00288038,0.00413547,0.999421,0.00046806,0.0339806,0.00138533,0.047477,0.528894,-0.9637,33.8125,1,8615,7531380
65,2,0.999422,0.00048917,0.0339684,0.0013965,-0.688923,-0.0585185,9.79189,0.0610485,-0.606353,0.959397,-0.00689209,-0.000591452,0.0979186,1,3.17506e-05,-1.46554e-05,3.53517e-06,0.00635011,-0.00293108,0.000707033,0.999422,0.00048917,0.0339684,0.0013965,0.0490565,0.530228,-0.957112,33.8125,1,8616,7531480
66,1,0.999422,0.00048917,0.0339684,0.0013965,-0.688923,-0.0585185,9.79189,0.0610485,-0.606353,0.959397,-0.00689209,-0.000591452,0.0979186,1,3.17506e-05,-1.46554e-05,3.53517e-06,0.00635011,-0.00293108,0.000707033,0.999422,0.00048917,0.0339684,0.0013965,0.0490565,0.530228,-0.957112,33.8125,1,8616,7531480
66,2,0.999422,0.00048917,0.0339684,0.0013965,-0.688923,-0.0585185,9.79189,0.0610485,-0.606353,0.959397,-0.00689209,-0.000591452,0.0979186,1,3.17506e-05,-1.46554e-05,3.53517e-06,0.00635011,-0.00293108,0.000707033,0.999422,0.00048917,0.0339684,0.0013965,0.0490565,0.530228,-0.957112,33.8125,1,8616,7531480
66,3,0.999422,0.000534994,0.0339729,0.00140373,-0.691826,-0.057992,9.79326,0.0581925,-0.607551,0.966281,-0.00691756,-0.000588942,0.0979326,1,4.48358e-05,3.49051e-06,1.73635e-05,0.00896715,0.000698101,0.0034727,0.999422,0.000534994,0.0339729,0.00140373,0.0509164,0.534114,-0.957034,33.8125,1,8617,7531580
66,4,0.999422,0.000534994,0.0339729,0.00140373,-0.691826,-0.057992,9.79326,0.0581925,-0.607551,0.966281,-0.00691756,-0.000588942,0.0979326,1,4.48358e-05,3.49051e-06,1.73635e-05,0.00896715,0.000698101,0.0034727,0.999422,0.000534994,0.0339729,0.00140373,0.0509164,0.534114,-0.957034,33.8125,1,8617,7531580
66,5,0.999422,0.000534994,0.0339729,0.00140373,-0.691826,-0.057992,9.79326,0.0581925,-0.607551,0.966281,-0.00691756,-0.000588942,0.0979326,1,4.48358e-05,3.49051e-06,1.73635e-05,0.00896715,0.000698101,0.0034727,0.999422,0.000534994,0.0339729,0.00140373,0.0509164,0.534114,-0.957034,33.8125,1,8617,7531580
66,6,0.999422,0.000578458,0.0339508,0.00141474,-0.68545,-0.0603928,9.78982,0.0685127,-0.603879,0.959205,-0.0068592,-0.000614421,0.0978978,1,5.17704e-05,-2.4153e-05,2.59875e-05,0.0103541,-0.0048306,0.00519749,0.999422,0.000578458,0.0339508,0.00141474,0.0507773,0.536625,-0.961018,33.8125,1,8618,7531680
66,7,0.999422,0.000578458,0.0339508,0.00141474,-0.68545,-0.0603928,9.78982,0.0685127,-0.603879,0.959205,-0.0068592,-0.000614421,0.0978978,1,5.17704e-05,-2.4153e-05,2.59875e-05,0.0103541,-0.0048306,0.00519749,0.999422,0.000578458,0.0339508,0.00141474,0.0507773,0.536625,-0.961018,33.8125,1,8618,7531680
66,8,0.999422,0.000578458,0.0339508,0.00141474,-0.68545,-0.0603928,9.78982,0.0685127,-0.603879,0.959205,-0.0068592,-0.000614421,0.0978978,1,5.17704e-05,-2.4153e-05,2.59875e-05,0.0103541,-0.0048306,0.00519749,0.999422,0.000578458,0.0339508,0.00141474,0.0507773,0.536625,-0.961018,33.8125,1,8618,7531680
67,1,0.999423,0.000600286,0.0339295,0.00141602,-0.681369,-0.0535626,9.79562,0.0719584,-0.600661,0.961786,-0.0068183,-0.000543915,0.0979558,1,4.11924e-05,-2.36145e-05,1.60355e-05,0.00823849,-0.00472291,0.0032071,0.999423,0.000600286,0.0339295,0.00141602,0.0492927,0.536185,-0.963041,33.8125,1,8619,7531780
67,2,0.999423,0.000600286,0.0339295,0.00141602,-0.681369,-0.0535626,9.79562,0.0719584,-0.600661,0.961786,-0.0068183,-0.000543915,0.0979558,1,4.11924e-05,-2.36145e-05,1.60355e-05,0.00823849,-0.00472291,0.0032071,0.999423,0.000600286,0.0339295,0.00141602,0.0492927,0.536185,-0.963041,33.8125,1,8619,7531780
67,3,0.999423,0.000600286,0.0339295,0.00141602,-0.681369,-0.0535626,9.79562,0.0719584,-0.600661,0.961786,-0.0068183,-0.000543915,0.0979558,1,4.11924e-05,-2.36145e-05,1.60355e-05,0.00823849,-0.00472291,0.0032071,0.999423,0.000600286,0.0339295,0.00141602,0.0492927,0.536185,-0.963041,33.8125,1,8619,7531780
67,4,0.999423,0.000612606,0.0339224,0.00142837,-0.68606,-0.0556617,9.78985,0.0641964,-0.605006,0.960986,-0.00686234,-0.000563654,0.0978983,1,3.46991e-05,-8.9537e-06,1.77252e-05,0.00693982,-0.00179074,0.00354503,0.999423,0.000612606,0.0339224,0.00142837,0.0478978,0.533271,-0.9631,33.8125,1,8620,7531880
67,5,0.999423,0.000612606,0.0339224,0.00142837,-0.68606,-0.0556617,9.78985,0.0641964,-0.605006,0.960986,-0.00686234,-0.000563654,0.0978983,1,3.46991e-05,-8.9537e-06,1.77252e-05,0.00693982,-0.00179074,0.00354503,0.999423,0.000612606,0.0339224,0.00142837,0.0478978,0.533271,-0.9631,33.8125,1,8620,7531880
67,6,0.999423,0.000612606,0.0339224,0.00142837,-0.68606,-0.0556617,9.78985,0.0641964,-0.605006,0.960986,-0.00686234,-0.000563654,0.0978983,1,3.46991e-05,-8.9537e-06,1.77252e-05,0.00693982,-0.00179074,0.00354503,0.999423,0.000612606,0.0339224,0.00142837,0.0478978,0.533271,-0.9631,33.8125,1,8620,7531880
67,7,0.999424,0.000632741,0.0339101,0.00146441,-0.673697,-0.0514532,9.78778,0.0760684,-0.599054,0.950485,-0.00673985,-0.000522246,0.0978776,1,3.7322e-05,-1.48973e-05,3.02567e-05,0.00746439,-0.00297947,0.00605133,0.999424,0.000632741,0.0339101,0.00146441,0.0470006,0.530822,-0.96214,33.8125,1,8621,7531980
67,8,0.999424,0.000632741,0.0339101,0.00146441,-0.673697,-0.0514532,9.78778,0.0760684,-0.599054,0.950485,-0.00673985,-0.000522246,0.0978776,1,3.7322e-05,-1.48973e-05,3.02567e-05,0.00746439,-0.00297947,0.00605133,0.999424,0.000632741,0.0339101,0.00146441,0.0470006,0.530822,-0.96214,33.8125,1,8621,7531980
68,1,0.999424,0.000632741,0.0339101,0.00146441,-0.673697,-0.0514532,9.78778,0.0760684,-0.599054,0.950485,-0.00673985,-0.000522246,0.0978776,1,3.7322e-05,-1.48973e-05,3.02567e-05,0.00746439,-0.00297947,0.00605133,0.999424,0.000632741,0.0339101,0.00146441,0.0470006,0.530822,-0.96214,33.8125,1,8621,7531980
68,2,0.999423,0.000662846,0.0339162,0.00148211,-0.688097,-0.062099,9.78065,0.0623026,-0.611112,0.951867,-0.00688039,-0.000629369,0.0978065,1,4.24255e-05,2.9616e-06,5.8335e-06,0.0084851,0.00059232,0.0011667,0.999423,0.000662846,0.0339162,0.00148211,0.0484852,0.531261,-0.960117,33.8125,1,8622,7532080
68,3,0.999423,0.000662846,0.0339162,0.00148211,-0.688097,-0.062099,9.78065,0.0623026,-0.611112,0.951867,-0.00688039,-0.000629369,0.0978065,1,4.24255e-05,2.9616e-06,5.8335e-06,0.0084851,0.00059232,0.0011667,0.999423,0.000662846,0.0339162,0.00148211,0.0484852,0.531261,-0.960117,33.8125,1,8622,7532080
68,4,0.999423,0.000662846,0.0339162,0.00148211,-0.688097,-0.062099,9.78065,0.0623026,-0.611112,0.951867,-0.00688039,-0.000629369,0.0978065,1,4.24255e-05,2.9616e-06,5.8335e-06,0.0084851,0.00059232,0.0011667,0.999423,0.000662846,0.0339162,0.00148211,0.0484852,0.531261,-0.960117,33.8125,1,8622,7532080
68,5,0.999423,0.0006892,0.0339151,0.00149467,-0.687417,-0.0579888,9.78204,0.0621056,-0.613522,0.951789,-0.00687489,-0.00058724,0.0978203,1,3.63663e-05,-3.77189e-06,1.72555e-05,0.00727326,-0.000754379,0.0034511,0.999423,0.0006892,0.0339151,0.00149467,0.048478,0.53464,-0.958021,33.8125,1,8623,7532180
68,6,0.999423,0.0006892,0.0339151,0.00149467,-0.687417,-0.0579888,9.78204,0.0621056,-0.613522,0.951789,-0.00687489,-0.00058724,0.0978203,1,3.63663e-05,-3.77189e-06,1.72555e-05,0.00727326,-0.000754379,0.0034511,0.999423,0.0006892,0.0339151,0.00149467,0.048478,0.53464,-0.958021,33.8125,1,8623,7532180
69,1,0.999423,0.0006892,0.0339151,0.00149467,-0.687417,-0.0579888,9.78204,0.0621056,-0.613522,0.951789,-0.00687489,-0.00058724,0.0978203,1,3.63663e-05,-3.77189e-06,1.72555e-05,0.00727326,-0.000754379,0.0034511,0.999423,0.0006892,0.0339151,0.00149467,0.048478,0.53464,-0.958021,33.8125,1,8623,7532180
69,2,0.999424,0.000726292,0.0339067,0.00150125,-0.683216,-0.0583105,9.78608,0.0636428,-0.60647,0.951666,-0.00683417,-0.000592666,0.0978606,1,4.81847e-05,-1.03659e-05,9.47697e-06,0.00963695,-0.00207318,0.00189539,0.999424,0.000726292,0.0339067,0.00150125,0.049371,0.53661,-0.959497,33.8125,1,8624,7532280
69,3,0.999424,0.000726292,0.0339067,0.00150125,-0.683216,-0.0583105,9.78608,0.0636428,-0.60647,0.951666,-0.00683417,-0.000592666,0.0978606,1,4.81847e-05,-1.03659e-05,9.47697e-06,0.00963695,-0.00207318,0.00189539,0.999424,0.000726292,0.0339067,0.00150125,0.049371,0.53661,-0.959497,33.8125,1,8624,7532280
69,4,0.999424,0.000726292,0.0339067,0.00150125,-0.683216,-0.0583105,9.78608,0.0636428,-0.60647,0.951666,-0.00683417,-0.000592666,0.0978606,1,4.81847e-05,-1.03659e-05,9.47697e-06,0.00963695,-0.00207318,0.00189539,0.999424,0.000726292,0.0339067,0.00150125,0.049371,0.53661,-0.959497,33.8125,1,8624,7532280
70,1,0.999423,0.000743167,0.0339089,0.00151577,-0.664617,-0.0337604,9.77462,0.0845449,-0.587118,0.943475,-0.00664631,-0.000344701,0.0977462,1,3.49804e-05,-8.00864e-07,1.94778e-05,0.00699608,-0.000160173,0.00389556,0.999423,0.000743167,0.0339089,0.00151577,0.0497245,0.536217,-0.965063,33.8125,1,8625,7532380
70,2,0.999423,0.000743167,0.0339089,0.00151577,-0.664617,-0.0337604,9.77462,0.0845449,-0.587118,0.943475,-0.00664631,-0.000344701,0.0977462,1,3.49804e-05,-8.00864e-07,1.94778e-05,0.00699608,-0.000160173,0.00389556,0.999423,0.000743167,0.0339089,0.00151577,0.0497245,0.536217,-0.965063,33.8125,1,8625,7532380
70,3,0.999423,0.000743167,0.0339089,0.00151577,-0.664617,-0.0337604,9.77462,0.0845449,-0.587118,0.943475,-0.00664631,-0.000344701,0.0977462,1,3.49804e-05,-8.00864e-07,1.94778e-05,0.00699608,-0.000160173,0.00389556,0.999423,0.000743167,0.0339089,0.00151577,0.0497245,0.536217,-0.965063,33.8125,1,8625,7532380
70,4,0.999423,0.000755836,0.0339146,0.00152406,-0.666975,-0.0598704,9.78223,0.0829224,-0.611973,0.948026,-0.00666965,-0.000607246,0.0978222,1,4.26398e-05,4.02315e-07,1.49679e-05,0.00852796,8.04629e-05,0.00299358,0.999423,0.000755836,0.0339146,0.00152406,0.0502336,0.533783,-0.965624,33.8125,1,8626,7532480
71,1,0.999423,0.000755836,0.0339146,0.00152406,-0.666975,-0.0598704,9.78223,0.0829224,-0.611973,0.948026,-0.00666965,-0.000607246,0.0978222,1,4.26398e-05,4.02315e-07,1.49679e-05,0.00852796,8.04629e-05,0.00299358,0.999423,0.000755836,0.0339146,0.00152406,0.0502336,0.533783,-0.965624,33.8125,1,8626,7532480
71,2,0.999423,0.000755836,0.0339146,0.00152406,-0.666975,-0.0598704,9.78223,0.0829224,-0.611973,0.948026,-0.00666965,-0.000607246,0.0978222,1,4.26398e-05,4.02315e-07,1.49679e-05,0.00852796,8.04629e-05,0.00299358,0.999423,0.000755836,0.0339146,0.00152406,0.0502336,0.533783,-0.965624,33.8125,1,8626,7532480
71,3,0.999424,0.000776098,0.0339073,0.00153353,-0.689431,-0.0546013,9.78581,0.060377,-0.610679,0.955759,-0.00689689,-0.000555717,0.0978579,1,4.80486e-05,-1.33275e-05,2.18156e-05,0.00960973,-0.0026655,0.00436311,0.999424,0.000776098,0.0339073,0.00153353,0.0479301,0.531319,-0.963143,33.8125,1,8627,7532580
71,4,0.999424,0.000776098,0.0339073,0.00153353,-0.689431,-0.0546013,9.78581,0.060377,-0.610679,0.955759,-0.00689689,-0.000555717,0.0978579,1,4.80486e-05,-1.33275e-05,2.18156e-05,0.00960973,-0.0026655,0.00436311,0.999424,0.000776098,0.0339073,0.00153353,0.0479301,0.531319,-0.963143,33.8125,1,8627,7532580
71,5,0.999424,0.000776098,0.0339073,0.00153353,-0.689431,-0.0546013,9.78581,0.060377,-0.610679,0.955759,-0.00689689,-0.000555717,0.0978579,1,4.80486e-05,-1.33275e-05,2.18156e-05,0.00960973,-0.0026655,0.00436311,0.999424,0.000776098,0.0339073,0.00153353,0.0479301,0.531319,-0.963143,33.8125,1,8627,7532580
71,6,0.999424,0.000812863,0.0338859,0.00155651,-0.686779,-0.0542062,9.79701,0.0635114,-0.606799,0.967081,-0.00687264,-0.000552293,0.0979697,1,5.09753e-05,-2.48527e-05,1.76318e-05,0.0101951,-0.00497054,0.00352636,0.999424,0.000812863,0.0338859,0.00155651,0.0475885,0.530258,-0.958114,33.8125,1,8628,7532680
72,1,0.999424,0.000812863,0.0338859,0.00155651,-0.686779,-0.0542062,9.79701,0.0635114,-0.606799,0.967081,-0.00687264,-0.000552293,0.0979697,1,5.09753e-05,-2.48527e-05,1.76318e-05,0.0101951,-0.00497054,0.00352636,0.999424,0.000812863,0.0338859,0.00155651,0.0475885,0.530258,-0.958114,33.8125,1,8628,7532680
72,2,0.999424,0.000812863,0.0338859,0.00155651,-0.686779,-0.0542062,9.79701,0.0635114,-0.606799,0.967081,-0.00687264,-0.000552293,0.0979697,1,5.09753e-05,-2.48527e-05,1.76318e-05,0.0101951,-0.00497054,0.00352636,0.999424,0.000812863,0.0338859,0.00155651,0.0475885,0.530258,-0.958114,33.8125,1,8628,7532680
72,3,0.999425,0.000837246,0.0338653,0.00158502,-0.685765,-0.0674026,9.78705,0.0640769,-0.619113,0.953421,-0.00686192,-0.000678991,0.0978701,1,2.35178e-05,-2.20016e-05,2.63303e-05,0.00470356,-0.00440032,0.00526606,0.999425,0.000837246,0.0338653,0.00158502,0.0509411,0.534096,-0.956024,33.8125,1,8629,7532780
72,4,0.999425,0.000837246,0.0338653,0.00158502,-0.685765,-0.0674026,9.78705,0.0640769,-0.619113,0.953421,-0.00686192,-0.000678991,0.0978701,1,2.35178e-05,-2.20016e-05,2.63303e-05,0.00470356,-0.00440032,0.00526606,0.999425,0.000837246,0.0338653,0.00158502,0.0509411,0.534096,-0.956024,33.8125,1,8629,7532780
72,5,0.999425,0.000837246,0.0338653,0.00158502,-0.685765,-0.0674026,9.78705,0.0640769,-0.619113,0.953421,-0.00686192,-0.000678991,0.0978701,1,2.35178e-05,-2.20016e-05,2.63303e-05,0.00470356,-0.00440032,0.00526606,0.999425,0.000837246,0.0338653,0.00158502,0.0509411,0.534096,-0.956024,33.8125,1,8629,7532780
72,6,0.999425,0.000878853,0.033844,0.00159171,-0.675544,-0.0622546,9.79042,0.0736246,-0.616351,0.957126,-0.00676019,-0.000632282,0.0979038,1,4.7557e-05,-2.44509e-05,3.13856e-05,0.00951141,-0.00489018,0.00627712,0.999425,0.000878853,0.033844,0.00159171,0.0512751,0.537091,-0.96,33.8125,1,8630,7532880
72,7,0.999425,0.000878853,0.033844,0.00159171,-0.675544,-0.0622546,9.79042,0.0736246,-0.616351,0.957126,-0.00676019,-0.000632282,0.0979038,1,4.7557e-05,-2.44509e-05,3.13856e-05,0.00951141,-0.00489018,0.00627712,0.999425,0.000878853,0.033844,0.00159171,0.0512751,0.537091,-0.96,33.8125,1,8630,7532880
72,8,0.999425,0.000878853,0.033844,0.00159171,-0.675544,-0.0622546,9.79042,0.0736246,-0.616351,0.957126,-0.00676019,-0.000632282,0.0979038,1,4.7557e-05,-2.44509e-05,3.13856e-05,0.00951141,-0.00489018,0.00627712,0.999425,0.000878853,0.033844,0.00159171,0.0512751,0.537091,-0.96,33.8125,1,8630,7532880
73,1,0.999426,0.000901853,0.0338313,0.00159553,-0.698295,-0.069539,9.79932,0.0513686,-0.620436,0.964841,-0.00698612,-0.000704609,0.0979929,1,4.53052e-05,-1.6339e-05,2.43428e-05,0.00906104,-0.0032678,0.00486855,0.999426,0.000901853,0.0338313,0.00159553,0.0502222,0.536683,-0.964045,33.8125,1,8631,7532980
73,2,0.999426,0.000901853,0.0338313,0.00159553,-0.698295,-0.069539,9.79932,0.0513686,-0.620436,0.964841,-0.00698612,-0.000704609,0.0979929,1,4.53052e-05,-1.6339e-05,2.43428e-05,0.00906104,-0.0032678,0.00486855,0.999426,0.000901853,0.0338313,0.00159553,0.0502222,0.536683,-0.964045,33.8125,1,8631,7532980
73,3,0.999426,0.000901853,0.0338313,0.00159553,-0.698295,-0.069539,9.79932,0.0513686,-0.620436,0.964841,-0.00698612,-0.000704609,0.0979929,1,4.53052e-05,-1.6339e-05,2.43428e-05,0.00906104,-0.0032678,0.00486855,0.999426,0.000901853,0.0338313,0.00159553,0.0502222,0.536683,-0.964045,33.8125,1,8631,7532980
73,4,0.999426,0.000912565,0.0338376,0.00160845,-0.680973,-0.0617773,9.79078,0.0623336,-0.620466,0.961642,-0.00680917,-0.000625892,0.0979078,1,3.9637e-05,2.68748e-06,2.62876e-05,0.0079274,0.000537496,0.00525753,0.999426,0.000912565,0.0338376,0.00160845,0.0493165,0.533277,-0.964116,33.8125,1,8632,7533080
73,5,0.999426,0.000912565,0.0338376,0.00160845,-0.680973,-0.0617773,9.79078,0.0623336,-0.620466,0.961642,-0.00680917,-0.000625892,0.0979078,1,3.9637e-05,2.68748e-06,2.62876e-05,0.0079274,0.000537496,0.00525753,0.999426,0.000912565,0.0338376,0.00160845,0.0493165,0.533277,-0.964116,33.8125,1,8632,7533080
73,6,0.999426,0.000912565,0.0338376,0.00160845,-0.680973,-0.0617773,9.79078,0.0623336,-0.620466,0.961642,-0.00680917,-0.000625892,0.0979078,1,3.9637e-05,2.68748e-06,2.62876e-05,0.0079274,0.000537496,0.00525753,0.999426,0.000912565,0.0338376,0.00160845,0.0493165,0.533277,-0.964116,33.8125,1,8632,7533080
73,7,0.999426,0.000930244,0.033835,0.00163201,-0.67881,-0.0725486,9.77406,0.0663324,-0.630119,0.942495,-0.0067894,-0.000733752,0.0977404,1,4.07435e-05,-6.83234e-06,2.22194e-05,0.00814871,-0.00136647,0.00444387,0.999426,0.000930244,0.033835,0.00163201,0.0469721,0.531806,-0.962623,33.8125,1,8633,7533180
73,8,0.999426,0.000930244,0.033835,0.00163201,-0.67881,-0.0725486,9.77406,0.0663324,-0.630119,0.942495,-0.0067894,-0.000733752,0.0977404,1,4.07435e-05,-6.83234e-06,2.22194e-05,0.00814871,-0.00136647,0.00444387,0.999426,0.000930244,0.033835,0.00163201,0.0469721,0.531806,-0.962623,33.8125,1,8633,7533180
73,9,0.999426,0.000930244,0.033835,0.00163201,-0.67881,-0.0725486,9.77406,0.0663324,-0.630119,0.942495,-0.0067894,-0.000733752,0.0977404,1,4.07435e-05,-6.83234e-06,2.22194e-05,0.00814871,-0.00136647,0.00444387,0.999426,0.000930244,0.033835,0.00163201,0.0469721,0.531806,-0.962623,33.8125,1,8633,7533180
73,10,0.999426,0.000965563,0.033824,0.00167384,-0.687591,-0.0610469,9.79253,0.0592209,-0.618544,0.960718,-0.00687871,-0.000620728,0.0979251,1,5.06081e-05,-1.44577e-05,2.5321e-05,0.0101216,-0.00289154,0.00506419,0.999426,0.000965563,0.033824,0.00167384,0.048025,0.532214,-0.958578,33.8125,1,8634,7533280
74,1,0.999426,0.000965563,0.033824,0.00167384,-0.687591,-0.0610469,9.79253,0.0592209,-0.618544,0.960718,-0.00687871,-0.000620728,0.0979251,1,5.06081e-05,-1.44577e-05,2.5321e-05,0.0101216,-0.00289154,0.00506419,0.999426,0.000965563,0.033824,0.00167384,0.048025,0.532214,-0.958578,33.8125,1,8634,7533280
74,2,0.999426,0.000965563,0.033824,0.00167384,-0.687591,-0.0610469,9.79253,0.0592209,-0.618544,0.960718,-0.00687871,-0.000620728,0.0979251,1,5.06081e-05,-1.44577e-05,2.5321e-05,0.0101216,-0.00289154,0.00506419,0.999426,0.000965563,0.033824,0.00167384,0.048025,0.532214,-0.958578,33.8125,1,8634,7533280
74,3,0.999427,0.00098369,0.0338039,0.00169193,-0.680584,-0.0684761,9.79989,0.0685629,-0.62611,0.968793,-0.00681031,-0.000690236,0.0979986,1,2.65631e-05,-2.29236e-05,1.97664e-05,0.00531263,-0.00458473,0.00395328,0.999427,0.00098369,0.0338039,0.00169193,0.0504272,0.534606,-0.957021,33.8125,1,8635,7533380
74,4,0.999427,0.00098369,0.0338039,0.00169193,-0.680584,-0.0684761,9.79989,0.0685629,-0.62611,0.968793,-0.00681031,-0.000690236,0.0979986,1,2.65631e-05,-2.29236e-05,1.97664e-05,0.00531263,-0.00458473,0.00395328,0.999427,0.00098369,0.0338039,0.00169193,0.0504272,0.534606,-0.957021,33.8125,1,8635,7533380
74,5,0.999427,0.00098369,0.0338039,0.00169193,-0.680584,-0.0684761,9.79989,0.0685629,-0.62611,0.968793,-0.00681031,-0.000690236,0.0979986,1,2.65631e-05,-2.29236e-05,1.97664e-05,0.00531263,-0.00458473,0.00395328,0.999427,0.00098369,0.0338039,0.00169193,0.0504272,0.534606,-0.957021,33.8125,1,8635,7533380
74,6,0.999427,0.00101205,0.0337904,0.00168671,-0.686571,-0.0542516,9.78717,0.0574764,-0.613458,0.953802,-0.006869,-0.000550676,0.0978714,1,4.07753e-05,-1.69013e-05,1.29769e-05,0.00815507,-0.00338027,0.00259539,0.999427,0.00101205,0.0337904,0.00168671,0.0517604,0.537565,-0.959486,33.8125,1,8636,7533480
74,7,0.999427,0.00101205,0.0337904,0.00168671,-0.686571,-0.0542516,9.78717,0.0574764,-0.613458,0.953802,-0.006869,-0.000550676,0.0978714,1,4.07753e-05,-1.69013e-05,1.29769e-05,0.00815507,-0.00338027,0.00259539,0.999427,0.00101205,0.0337904,0.00168671,0.0517604,0.537565,-0.959486,33.8125,1,8636,7533480
74,8,0.999427,0.00101205,0.0337904,0.00168671,-0.686571,-0.0542516,9.78717,0.0574764,-0.613458,0.953802,-0.006869,-0.000550676,0.0978714,1,4.07753e-05,-1.69013e-05,1.29769e-05,0.00815507,-0.00338027,0.00259539,0.999427,0.00101205,0.0337904,0.00168671,0.0517604,0.537565,-0.959486,33.8125,1,8636,7533480
75,1,0.999427,0.0010278,0.0337871,0.00167866,-0.680784,-0.0682569,9.79208,0.0686758,-0.627418,0.959082,-0.00680944,-0.000690401,0.0979206,1,3.90093e-05,-8.26832e-06,1.41898e-05,0.00780186,-0.00165366,0.00283795,0.999427,0.0010278,0.0337871,0.00167866,0.0492562,0.537658,-0.963513,33.8125,1,8637,7533580
75,2,0.999427,0.0010278,0.0337871,0.00167866,-0.680784,-0.0682569,9.79208,0.0686758,-0.627418,0.959082,-0.00680944,-0.000690401,0.0979206,1,3.90093e-05,-8.26832e-06,1.41898e-05,0.00780186,-0.00165366,0.00283795,0.999427,0.0010278,0.0337871,0.00167866,0.0492562,0.537658,-0.963513,33.8125,1,8637,7533580
75,3,0.999427,0.0010278,0.0337871,0.00167866,-0.680784,-0.0682569,9.79208,0.0686758,-0.627418,0.959082,-0.00680944,-0.000690401,0.0979206,1,3.90093e-05,-8.26832e-06,1.41898e-05,0.00780186,-0.00165366,0.00283795,0.999427,0.0010278,0.0337871,0.00167866,0.0492562,0.537658,-0.963513,33.8125,1,8637,7533580
75,4,0.999427,0.0010475,0.0337887,0.00168312,-0.691047,-0.0713049,9.78975,0.0540773,-0.634911,0.957484,-0.00691076,-0.000722767,0.0978974,1,4.88404e-05,-1.54599e-06,1.12672e-05,0.00976808,-0.000309199,0.00225345,0.999427,0.0010475,0.0337887,0.00168312,0.04835,0.532806,-0.964627,33.8125,1,8638,7533680
75,5,0.999427,0.0010475,0.0337887,0.00168312,-0.691047,-0.0713049,9.78975,0.0540773,-0.634911,0.957484,-0.00691076,-0.000722767,0.0978974,1,4.88404e-05,-1.54599e-06,1.12672e-05,0.00976808,-0.000309199,0.00225345,0.999427,0.0010475,0.0337887,0.00168312,0.04835,0.532806,-0.964627,33.8125,1,8638,7533680
75,6,0.999427,0.0010475,0.0337887,0.00168312,-0.691047,-0.0713049,9.78975,0.0540773,-0.634911,0.957484,-0.00691076,-0.000722767,0.0978974,1,4.88404e-05,-1.54599e-06,1.12672e-05,0.00976808,-0.000309199,0.00225345,0.999427,0.0010475,0.0337887,0.00168312,0.04835,0.532806,-0.964627,33.8125,1,8638,7533680
75,7,0.999428,0.00105624,0.0337679,0.00171458,-0.693589,-0.063387,9.78884,0.0549412,-0.626415,0.953334,-0.00694092,-0.000640372,0.097888,1,3.14748e-05,-2.58186e-05,2.44805e-05,0.00629495,-0.00516372,0.0048961,0.999428,0.00105624,0.0337679,0.00171458,0.0489416,0.531275,-0.961128,33.8125,1,8639,7533780
75,8,0.999428,0.00105624,0.0337679,0.00171458,-0.693589,-0.063387,9.78884,0.0549412,-0.626415,0.953334,-0.00694092,-0.000640372,0.097888,1,3.14748e-05,-2.58186e-05,2.44805e-05,0.00629495,-0.00516372,0.0048961,0.999428,0.00105624,0.0337679,0.00171458,0.0489416,0.531275,-0.961128,33.8125,1,8639,7533780
75,9,0.999428,0.00105624,0.0337679,0.00171458,-0.693589,-0.063387,9.78884,0.0549412,-0.626415,0.953334,-0.00694092,-0.000640372,0.097888,1,3.14748e-05,-2.58186e-05,2.44805e-05,0.00629495,-0.00516372,0.0048961,0.999428,0.00105624,0.0337679,0.00171458,0.0489416,0.531275,-0.961128,33.8125,1,8639,7533780
75,10,0.999428,0.00106507,0.0337609,0.00172868,-0.686488,-0.0654689,9.79521,0.0628146,-0.627307,0.963093,-0.00686719,-0.000659557,0.0979519,1,2.35122e-05,-1.19342e-05,1.91199e-05,0.00470243,-0.00238684,0.00382399,0.999428,0.00106507,0.0337609,0.00172868,0.0485269,0.533158,-0.957044,33.8125,1,8640,7533880
76,1,0.999428,0.00106507,0.0337609,0.00172868,-0.686488,-0.0654689,9.79521,0.0628146,-0.627307,0.963093,-0.00686719,-0.000659557,0.0979519,1,2.35122e-05,-1.19342e-05,1.91199e-05,0.00470243,-0.00238684,0.00382399,0.999428,0.00106507,0.0337609,0.00172868,0.0485269,0.533158,-0.957044,33.8125,1,8640,7533880
76,2,0.999428,0.00106507,0.0337609,0.00172868,-0.686488,-0.0654689,9.79521,0.0628146,-0.627307,0.963093,-0.00686719,-0.000659557,0.0979519,1,2.35122e-05,-1.19342e-05,1.91199e-05,0.00470243,-0.00238684,0.00382399,0.999428,0.00106507,0.0337609,0.00172868,0.0485269,0.533158,-0.957044,33.8125,1,8640,7533880
76,3,0.999428,0.00108627,0.0337475,0.00174937,-0.682822,-0.0648571,9.78399,0.0662505,-0.62536,0.953743,-0.00683147,-0.000655108,0.0978396,1,3.1527e-05,-1.67844e-05,2.69079e-05,0.00630541,-0.00335688,0.00538157,0.999428,0.00108627,0.0337475,0.00174937,0.0480586,0.534599,-0.955495,33.8125,1,8641,7533980
76,4,0.999428,0.00108627,0.0337475,0.00174937,-0.682822,-0.0648571,9.78399,0.0662505,-0.62536,0.953743,-0.00683147,-0.000655108,0.0978396,1,3.1527e-05,-1.67844e-05,2.69079e-05,0.00630541,-0.00335688,0.00538157,0.999428,0.00108627,0.0337475,0.00174937,0.0480586,0.534599,-0.955495,33.8125,1,8641,7533980
76,5,0.999428,0.00108627,0.0337475,0.00174937,-0.682822,-0.0648571,9.78399,0.0662505,-0.62536,0.953743,-0.00683147,-0.000655108,0.0978396,1,3.1527e-05,-1.67844e-05,2.69079e-05,0.00630541,-0.00335688,0.00538157,0.999428,0.00108627,0.0337475,0.00174937,0.0480586,0.534599,-0.955495,33.8125,1,8641,7533980
76,6,0.999429,0.00111381,0.0337373,0.00176425,-0.676413,-0.0603202,9.78737,0.0704678,-0.619013,0.954374,-0.00676677,-0.000611456,0.0978735,1,4.07789e-05,-1.36102e-05,2.01204e-05,0.00815579,-0.00272203,0.00402407,0.999429,0.00111381,0.0337373,0.00176425,0.0503579,0.536584,-0.958492,33.8125,1,8642,7534080
77,1,0.999429,0.00111381,0.0337373,0.00176425,-0.676413,-0.0603202,9.78737,0.0704678,-0.619013,0.954374,-0.00676677,-0.000611456,0.0978735,1,4.07789e-05,-1.36102e-05,2.01204e-05,0.00815579,-0.00272203,0.00402407,0.999429,0.00111381,0.0337373,0.00176425,0.0503579,0.536584,-0.958492,33.8125,1,8642,7534080
77,2,0.999429,0.00111381,0.0337373,0.00176425,-0.676413,-0.0603202,9.78737,0.0704678,-0.619013,0.954374,-0.00676677,-0.000611456,0.0978735,1,4.07789e-05,-1.36102e-05,2.01204e-05,0.00815579,-0.00272203,0.00402407,0.999429,0.00111381,0.0337373,0.00176425,0.0503579,0.536584,-0.958492,33.8125,1,8642,7534080
77,3,0.999429,0.0011311,0.0337359,0.00174882,-0.675053,-0.0671504,9.78425,0.0698248,-0.626476,0.94992,-0.0067518,-0.000679423,0.0978424,1,4.05963e-05,-6.4786e-06,-1.83668e-06,0.00811926,-0.00129572,-0.000367337,0.999429,0.0011311,0.0337359,0.00174882,0.0501895,0.537189,-0.965043,33.8125,1,8643,7534180
77,4,0.999429,0.0011311,0.0337359,0.00174882,-0.675053,-0.0671504,9.78425,0.0698248,-0.626476,0.94992,-0.0067518,-0.000679423,0.0978424,1,4.05963e-05,-6.4786e-06,-1.83668e-06,0.00811926,-0.00129572,-0.000367337,0.999429,0.0011311,0.0337359,0.00174882,0.0501895,0.537189,-0.965043,33.8125,1,8643,7534180
77,5,0.999429,0.0011311,0.0337359,0.00174882,-0.675053,-0.0671504,9.78425,0.0698248,-0.626476,0.94992,-0.0067518,-0.000679423,0.0978424,1,4.05963e-05,-6.4786e-06,-1.83668e-06,0.00811926,-0.00129572,-0.000367337,0.999429,0.0011311,0.0337359,0.00174882,0.0501895,0.537189,-0.965043,33.8125,1,8643,7534180
77,6,0.999429,0.00115025,0.0337349,0.00176681,-0.678118,-0.0659882,9.78699,0.0688257,-0.630658,0.953026,-0.00678246,-0.000669987,0.0978698,1,4.97699e-05,-6.71679e-06,2.677e-05,0.00995397,-0.00134336,0.00535399,0.999429,0.00115025,0.0337349,0.00176681,0.0478527,0.533785,-0.964603,33.8125,1,8644,7534280
77,7,0.999429,0.00115025,0.0337349,0.00176681,-0.678118,-0.0659882,9.78699,0.0688257,-0.630658,0.953026,-0.00678246,-0.000669987,0.0978698,1,4.97699e-05,-6.71679e-06,2.677e-05,0.00995397,-0.00134336,0.00535399,0.999429,0.00115025,0.0337349,0.00176681,0.0478527,0.533785,-0.964603,33.8125,1,8644,7534280
77,8,0.999429,0.00115025,0.0337349,0.00176681,-0.678118,-0.0659882,9.78699,0.0688257,-0.630658,0.953026,-0.00678246,-0.000669987,0.0978698,1,4.97699e-05,-6.71679e-06,2.677e-05,0.00995397,-0.00134336,0.00535399,0.999429,0.00115025,0.0337349,0.00176681,0.0478527,0.533785,-0.964603,33.8125,1,8644,7534280
77,9,0.999428,0.00116938,0.0337383,0.0017862,-0.685138,-0.065218,9.79893,0.0614891,-0.632216,0.971035,-0.00685164,-0.000660912,0.0979892,1,4.35115e-05,-1.43803e-06,1.49604e-05,0.0087023,-0.000287606,0.00299207,0.999428,0.00116938,0.0337383,0.0017862,0.0460549,0.531299,-0.961115,33.8125,1,8645,7534380
77,10,0.999428,0.00116938,0.0337383,0.0017862,-0.685138,-0.065218,9.79893,0.0614891,-0.632216,0.971035,-0.00685164,-0.000660912,0.0979892,1,4.35115e-05,-1.43803e-06,1.49604e-05,0.0087023,-0.000287606,0.00299207,0.999428,0.00116938,0.0337383,0.0017862,0.0460549,0.531299,-0.961115,33.8125,1,8645,7534380
78,1,0.999429,0.00119966,0.0337314,0.00181411,-0.681138,-0.0633431,9.78603,0.0656205,-0.628992,0.955607,-0.00681346,-0.000642858,0.0978601,1,4.66947e-05,-1.07436e-05,2.11037e-05,0.00933895,-0.00214872,0.00422073,0.999429,0.00119966,0.0337314,0.00181411,0.0476013,0.531694,-0.956567,33.8125,1,8646,7534480
78,2,0.999429,0.00119966,0.0337314,0.00181411,-0.681138,-0.0633431,9.78603,0.0656205,-0.628992,0.955607,-0.00681346,-0.000642858,0.0978601,1,4.66947e-05,-1.07436e-05,2.11037e-05,0.00933895,-0.00214872,0.00422073,0.999429,0.00119966,0.0337314,0.00181411,0.0476013,0.531694,-0.956567,33.8125,1,8646,7534480
78,3,0.999429,0.00119966,0.0337314,0.00181411,-0.681138,-0.0633431,9.78603,0.0656205,-0.628992,0.955607,-0.00681346,-0.000642858,0.0978601,1,4.66947e-05,-1.07436e-05,2.11037e-05,0.00933895,-0.00214872,0.00422073,0.999429,0.00119966,0.0337314,0.00181411,0.0476013,0.531694,-0.956567,33.8125,1,8646,7534480
