frame_id,imu_idx,quat_w,quat_x,quat_y,quat_z,accel_x,accel_y,accel_z,free_accel_x,free_accel_y,free_accel_z,delta_v_x,delta_v_y,delta_v_z,delta_q_w,delta_q_x,delta_q_y,delta_q_z,rate_x,rate_y,rate_z,quat_w,quat_x,quat_y,quat_z,mag_x,mag_y,mag_z,temperature,status_byte,packet_counter,time_fine
1727,1,0.998923,0.0278711,0.0259511,0.026518,-0.640307,-0.0755591,9.79077,-0.019409,-1.2684,0.897303,-0.00640256,-0.000765345,0.0979076,1,4.90397e-05,2.50155e-06,1.18409e-05,0.00980794,0.000500311,0.00236817,0.998923,0.0278711,0.0259511,0.026518,0.0638383,0.526693,-0.985037,29.9375,3,29481,2998239
1727,2,0.998923,0.0278711,0.0259511,0.026518,-0.48576,-0.0619201,7.34862,-0.019409,-1.2684,0.897303,-0.00485691,-0.000623114,0.0734863,1,2.60491e-05,4.57284e-06,8.72647e-06,0.00520982,0.000914569,0.00174529,0.998923,0.0278711,0.0259511,0.026518,0.0658069,0.523272,-0.985627,30.1875,1,32185,3270095
1727,3,0.998923,0.0278711,0.0259511,0.026518,-0.48576,-0.0619201,7.34862,-0.019409,-1.2684,0.897303,-0.00485691,-0.000623114,0.0734863,1,2.60491e-05,4.57284e-06,8.72647e-06,0.00520982,0.000914569,0.00174529,0.998923,0.0278711,0.0259511,0.026518,0.0658069,0.523272,-0.985627,30.1875,1,32185,3270095
1727,4,0.998923,0.0278711,0.0259511,0.026518,-0.48576,-0.0619201,7.34862,-0.019409,-1.2684,0.897303,-0.00485691,-0.000623114,0.0734863,1,2.60491e-05,4.57284e-06,8.72647e-06,0.00520982,0.000914569,0.00174529,0.998923,0.0278711,0.0259511,0.026518,0.0658069,0.523272,-0.985627,30.1875,1,32185,3270095
1727,5,0.999447,-0.00418066,0.0329737,-0.00012035,-0.639086,-0.0829805,9.7945,0.072552,-0.507689,0.997365,-0.00639446,-0.000839218,0.0979447,1,4.67022e-05,-1.85665e-05,2.06921e-05,0.00934045,-0.00371331,0.00413842,0.999447,-0.00418066,0.0329737,-0.00012035,0.0644011,0.524702,-0.983064,30.1875,1,32186,3270195
1727,6,0.999447,-0.00418066,0.0329737,-0.00012035,-0.639086,-0.0829805,9.7945,0.072552,-0.507689,0.997365,-0.00639446,-0.000839218,0.0979447,1,4.67022e-05,-1.85665e-05,2.06921e-05,0.00934045,-0.00371331,0.00413842,0.999447,-0.00418066,0.0329737,-0.00012035,0.0644011,0.524702,-0.983064,30.1875,1,32186,3270195
1,1,0.999447,-0.00418066,0.0329737,-0.00012035,-0.639086,-0.0829805,9.7945,0.072552,-0.507689,0.997365,-0.00639446,-0.000839218,0.0979447,1,4.67022e-05,-1.85665e-05,2.06921e-05,0.00934045,-0.00371331,0.00413842,0.999447,-0.00418066,0.0329737,-0.00012035,0.0644011,0.524702,-0.983064,30.1875,1,32186,3270195
1,2,0.999448,-0.00415545,0.0329584,-0.000129526,-0.642074,-0.0744502,9.7783,0.0664388,-0.499856,0.982109,-0.00642258,-0.000752334,0.0977828,1,3.95421e-05,-9.44723e-06,7.63116e-06,0.00790842,-0.00188945,0.00152623,0.999448,-0.00415545,0.0329584,-0.000129526,0.0649154,0.525638,-0.981025,30.1875,1,32187,3270295
1,3,0.999448,-0.00415545,0.0329584,-0.000129526,-0.642074,-0.0744502,9.7783,0.0664388,-0.499856,0.982109,-0.00642258,-0.000752334,0.0977828,1,3.95421e-05,-9.44723e-06,7.63116e-06,0.00790842,-0.00188945,0.00152623,0.999448,-0.00415545,0.0329584,-0.000129526,0.0649154,0.525638,-0.981025,30.1875,1,32187,3270295
1,4,0.999448,-0.00415545,0.0329584,-0.000129526,-0.642074,-0.0744502,9.7783,0.0664388,-0.499856,0.982109,-0.00642258,-0.000752334,0.0977828,1,3.95421e-05,-9.44723e-06,7.63116e-06,0.00790842,-0.00188945,0.00152623,0.999448,-0.00415545,0.0329584,-0.000129526,0.0649154,0.525638,-0.981025,30.1875,1,32187,3270295
1,5,0.999448,-0.00410537,0.0329614,-0.000107904,-0.642834,-0.0781657,9.79082,0.0692565,-0.50566,0.991349,-0.00642771,-0.000791523,0.0979081,1,4.88272e-05,3.03807e-06,2.37043e-05,0.00976545,0.000607614,0.00474086,0.999448,-0.00410537,0.0329614,-0.000107904,0.0649026,0.524202,-0.982572,30.1875,1,32188,3270395
1,6,0.999448,-0.00410537,0.0329614,-0.000107904,-0.642834,-0.0781657,9.79082,0.0692565,-0.50566,0.991349,-0.00642771,-0.000791523,0.0979081,1,4.88272e-05,3.03807e-06,2.37043e-05,0.00976545,0.000607614,0.00474086,0.999448,-0.00410537,0.0329614,-0.000107904,0.0649026,0.524202,-0.982572,30.1875,1,32188,3270395
2,1,0.999448,-0.00410537,0.0329614,-0.000107904,-0.642834,-0.0781657,9.79082,0.0692565,-0.50566,0.991349,-0.00642771,-0.000791523,0.0979081,1,4.88272e-05,3.03807e-06,2.37043e-05,0.00976545,0.000607614,0.00474086,0.999448,-0.00410537,0.0329614,-0.000107904,0.0649026,0.524202,-0.982572,30.1875,1,32188,3270395
2,2,0.999448,-0.00405393,0.0329701,-9.06793e-05,-0.640176,-0.07709,9.78809,0.0709158,-0.512448,0.988677,-0.00640005,-0.00078107,0.0978809,1,5.07402e-05,8.55547e-06,1.85856e-05,0.010148,0.00171109,0.00371711,0.999448,-0.00405393,0.0329701,-9.06793e-05,0.0648941,0.523244,-0.983603,30.1875,1,32189,3270495
2,3,0.999448,-0.00405393,0.0329701,-9.06793e-05,-0.640176,-0.07709,9.78809,0.0709158,-0.512448,0.988677,-0.00640005,-0.00078107,0.0978809,1,5.07402e-05,8.55547e-06,1.85856e-05,0.010148,0.00171109,0.00371711,0.999448,-0.00405393,0.0329701,-9.06793e-05,0.0648941,0.523244,-0.983603,30.1875,1,32189,3270495
2,4,0.999448,-0.00405393,0.0329701,-9.06793e-05,-0.640176,-0.07709,9.78809,0.0709158,-0.512448,0.988677,-0.00640005,-0.00078107,0.0978809,1,5.07402e-05,8.55547e-06,1.85856e-05,0.010148,0.00171109,0.00371711,0.999448,-0.00405393,0.0329701,-9.06793e-05,0.0648941,0.523244,-0.983603,30.1875,1,32189,3270495
2,5,0.999448,-0.00401145,0.0329842,-8.19943e-05,-0.646876,-0.0773161,9.79865,0.068038,-0.507063,0.998626,-0.0064661,-0.000781553,0.0979867,1,4.21944e-05,1.35286e-05,9.48625e-06,0.00843889,0.00270573,0.00189725,0.999448,-0.00401145,0.0329842,-8.19943e-05,0.0644006,0.523257,-0.984106,30.1875,1,32190,3270595
2,6,0.999448,-0.00401145,0.0329842,-8.19943e-05,-0.646876,-0.0773161,9.79865,0.068038,-0.507063,0.998626,-0.0064661,-0.000781553,0.0979867,1,4.21944e-05,1.35286e-05,9.48625e-06,0.00843889,0.00270573,0.00189725,0.999448,-0.00401145,0.0329842,-8.19943e-05,0.0644006,0.523257,-0.984106,30.1875,1,32190,3270595
3,1,0.999448,-0.00401145,0.0329842,-8.19943e-05,-0.646876,-0.0773161,9.79865,0.068038,-0.507063,0.998626,-0.0064661,-0.000781553,0.0979867,1,4.21944e-05,1.35286e-05,9.48625e-06,0.00843889,0.00270573,0.00189725,0.999448,-0.00401145,0.0329842,-8.19943e-05,0.0644006,0.523257,-0.984106,30.1875,1,32190,3270595
3,2,0.999448,-0.00396777,0.0329813,-6.8413e-05,-0.647139,-0.0761314,9.78477,0.0663375,-0.504002,0.987208,-0.00647195,-0.000769909,0.0978476,1,4.29322e-05,-3.00414e-06,1.49326e-05,0.00858643,-0.000600828,0.00298651,0.999448,-0.00396777,0.0329813,-6.8413e-05,0.0648941,0.523244,-0.983603,30.1875,1,32191,3270695
3,3,0.999448,-0.00396777,0.0329813,-6.8413e-05,-0.647139,-0.0761314,9.78477,0.0663375,-0.504002,0.987208,-0.00647195,-0.000769909,0.0978476,1,4.29322e-05,-3.00414e-06,1.49326e-05,0.00858643,-0.000600828,0.00298651,0.999448,-0.00396777,0.0329813,-6.8413e-05,0.0648941,0.523244,-0.983603,30.1875,1,32191,3270695
3,4,0.999448,-0.00396777,0.0329813,-6.8413e-05,-0.647139,-0.0761314,9.78477,0.0663375,-0.504002,0.987208,-0.00647195,-0.000769909,0.0978476,1,4.29322e-05,-3.00414e-06,1.49326e-05,0.00858643,-0.000600828,0.00298651,0.999448,-0.00396777,0.0329813,-6.8413e-05,0.0648941,0.523244,-0.983603,30.1875,1,32191,3270695
3,5,0.999448,-0.00393417,0.0329742,-6.16748e-05,-0.642326,-0.0817698,9.79248,0.0699386,-0.51105,0.991414,-0.00642461,-0.000824418,0.0979247,1,3.37753e-05,-6.98697e-06,8.23114e-06,0.00675505,-0.00139739,0.00164623,0.999448,-0.00393417,0.0329742,-6.16748e-05,0.0635,0.52322,-0.981577,30.1875,1,32192,3270795
3,6,0.999448,-0.00393417,0.0329742,-6.16748e-05,-0.642326,-0.0817698,9.79248,0.0699386,-0.51105,0.991414,-0.00642461,-0.000824418,0.0979247,1,3.37753e-05,-6.98697e-06,8.23114e-06,0.00675505,-0.00139739,0.00164623,0.999448,-0.00393417,0.0329742,-6.16748e-05,0.0635,0.52322,-0.981577,30.1875,1,32192,3270795
4,1,0.999448,-0.00393417,0.0329742,-6.16748e-05,-0.642326,-0.0817698,9.79248,0.0699386,-0.51105,0.991414,-0.00642461,-0.000824418,0.0979247,1,3.37753e-05,-6.98697e-06,8.23114e-06,0.00675505,-0.00139739,0.00164623,0.999448,-0.00393417,0.0329742,-6.16748e-05,0.0635,0.52322,-0.981577,30.1875,1,32192,3270795
4,2,0.999449,-0.0038889,0.0329654,-4.76356e-05,-0.63732,-0.0760863,9.78469,0.0772282,-0.508623,0.983853,-0.00637488,-0.000769893,0.0978467,1,4.50872e-05,-8.71707e-06,1.61921e-05,0.00901743,-0.00174341,0.00323843,0.999449,-0.0038889,0.0329654,-4.76356e-05,0.0639731,0.523704,-0.981569,30.1875,1,32193,3270895
4,3,0.999449,-0.0038889,0.0329654,-4.76356e-05,-0.63732,-0.0760863,9.78469,0.0772282,-0.508623,0.983853,-0.00637488,-0.000769893,0.0978467,1,4.50872e-05,-8.71707e-06,1.61921e-05,0.00901743,-0.00174341,0.00323843,0.999449,-0.0038889,0.0329654,-4.76356e-05,0.0639731,0.523704,-0.981569,30.1875,1,32193,3270895
4,4,0.999449,-0.0038889,0.0329654,-4.76356e-05,-0.63732,-0.0760863,9.78469,0.0772282,-0.508623,0.983853,-0.00637488,-0.000769893,0.0978467,1,4.50872e-05,-8.71707e-06,1.61921e-05,0.00901743,-0.00174341,0.00323843,0.999449,-0.0038889,0.0329654,-4.76356e-05,0.0639731,0.523704,-0.981569,30.1875,1,32193,3270895
4,5,0.999449,-0.00382967,0.032971,-3.44437e-05,-0.641369,-0.0815424,9.78976,0.0740414,-0.51632,0.99016,-0.00641253,-0.000827125,0.0978976,1,5.87404e-05,5.80406e-06,1.55229e-05,0.0117481,0.00116081,0.00310459,0.999449,-0.00382967,0.032971,-3.44437e-05,0.0638791,0.5257,-0.984049,30.1875,1,32194,3270995
4,6,0.999449,-0.00382967,0.032971,-3.44437e-05,-0.641369,-0.0815424,9.78976,0.0740414,-0.51632,0.99016,-0.00641253,-0.000827125,0.0978976,1,5.87404e-05,5.80406e-06,1.55229e-05,0.0117481,0.00116081,0.00310459,0.999449,-0.00382967,0.032971,-3.44437e-05,0.0638791,0.5257,-0.984049,30.1875,1,32194,3270995
5,1,0.999449,-0.00382967,0.032971,-3.44437e-05,-0.641369,-0.0815424,9.78976,0.0740414,-0.51632,0.99016,-0.00641253,-0.000827125,0.0978976,1,5.87404e-05,5.80406e-06,1.55229e-05,0.0117481,0.00116081,0.00310459,0.999449,-0.00382967,0.032971,-3.44437e-05,0.0638791,0.5257,-0.984049,30.1875,1,32194,3270995
5,2,0.99945,-0.00377357,0.0329621,-2.46143e-05,-0.639135,-0.0900487,9.78799,0.0707376,-0.526395,0.985408,-0.00639306,-0.00091151,0.0978796,1,5.55422e-05,-8.87003e-06,1.17438e-05,0.0111084,-0.00177401,0.00234875,0.99945,-0.00377357,0.0329621,-2.46143e-05,0.0638787,0.524255,-0.985091,30.1875,1,32195,3271095
5,3,0.99945,-0.00377357,0.0329621,-2.46143e-05,-0.639135,-0.0900487,9.78799,0.0707376,-0.526395,0.985408,-0.00639306,-0.00091151,0.0978796,1,5.55422e-05,-8.87003e-06,1.17438e-05,0.0111084,-0.00177401,0.00234875,0.99945,-0.00377357,0.0329621,-2.46143e-05,0.0638787,0.524255,-0.985091,30.1875,1,32195,3271095
5,4,0.99945,-0.00377357,0.0329621,-2.46143e-05,-0.639135,-0.0900487,9.78799,0.0707376,-0.526395,0.985408,-0.00639306,-0.00091151,0.0978796,1,5.55422e-05,-8.87003e-06,1.17438e-05,0.0111084,-0.00177401,0.00234875,0.99945,-0.00377357,0.0329621,-2.46143e-05,0.0638787,0.524255,-0.985091,30.1875,1,32195,3271095
5,5,0.99945,-0.00372104,0.0329475,1.07075e-06,-0.640495,-0.0839806,9.79415,0.0723467,-0.516949,0.99631,-0.00640777,-0.000850149,0.0979412,1,5.10328e-05,-1.46217e-05,2.7081e-05,0.0102066,-0.00292435,0.0054162,0.99945,-0.00372104,0.0329475,1.07075e-06,0.0633682,0.522353,-0.987657,30.1875,1,32196,3271195
5,6,0.99945,-0.00372104,0.0329475,1.07075e-06,-0.640495,-0.0839806,9.79415,0.0723467,-0.516949,0.99631,-0.00640777,-0.000850149,0.0979412,1,5.10328e-05,-1.46217e-05,2.7081e-05,0.0102066,-0.00292435,0.0054162,0.99945,-0.00372104,0.0329475,1.07075e-06,0.0633682,0.522353,-0.987657,30.1875,1,32196,3271195
6,1,0.99945,-0.00372104,0.0329475,1.07075e-06,-0.640495,-0.0839806,9.79415,0.0723467,-0.516949,0.99631,-0.00640777,-0.000850149,0.0979412,1,5.10328e-05,-1.46217e-05,2.7081e-05,0.0102066,-0.00292435,0.0054162,0.99945,-0.00372104,0.0329475,1.07075e-06,0.0633682,0.522353,-0.987657,30.1875,1,32196,3271195
6,2,0.99945,-0.00368247,0.0329478,1.46374e-05,-0.642623,-0.0872958,9.79753,0.0697016,-0.529576,1.00067,-0.00642617,-0.00088057,0.0979752,1,3.78545e-05,1.71164e-07,1.51247e-05,0.0075709,3.42328e-05,0.00302493,0.99945,-0.00368247,0.0329478,1.46374e-05,0.0634336,0.521341,-0.985659,30.1875,1,32197,3271295
6,3,0.99945,-0.00368247,0.0329478,1.46374e-05,-0.642623,-0.0872958,9.79753,0.0697016,-0.529576,1.00067,-0.00642617,-0.00088057,0.0979752,1,3.78545e-05,1.71164e-07,1.51247e-05,0.0075709,3.42328e-05,0.00302493,0.99945,-0.00368247,0.0329478,1.46374e-05,0.0634336,0.521341,-0.985659,30.1875,1,32197,3271295
6,4,0.99945,-0.00368247,0.0329478,1.46374e-05,-0.642623,-0.0872958,9.79753,0.0697016,-0.529576,1.00067,-0.00642617,-0.00088057,0.0979752,1,3.78545e-05,1.71164e-07,1.51247e-05,0.0075709,3.42328e-05,0.00302493,0.99945,-0.00368247,0.0329478,1.46374e-05,0.0634336,0.521341,-0.985659,30.1875,1,32197,3271295
6,5,0.999451,-0.00363452,0.0329414,3.19341e-05,-0.644116,-0.0771499,9.78371,0.0687689,-0.514133,0.989709,-0.00644237,-0.000780963,0.097837,1,4.71304e-05,-6.3705e-06,1.87401e-05,0.00942609,-0.0012741,0.00374802,0.999451,-0.00363452,0.0329414,3.19341e-05,0.0634588,0.522768,-0.983607,30.1875,1,32198,3271395
6,6,0.999451,-0.00363452,0.0329414,3.19341e-05,-0.644116,-0.0771499,9.78371,0.0687689,-0.514133,0.989709,-0.00644237,-0.000780963,0.097837,1,4.71304e-05,-6.3705e-06,1.87401e-05,0.00942609,-0.0012741,0.00374802,0.999451,-0.00363452,0.0329414,3.19341e-05,0.0634588,0.522768,-0.983607,30.1875,1,32198,3271395
29,1,0.999451,-0.00363452,0.0329414,3.19341e-05,-0.644116,-0.0771499,9.78371,0.0687689,-0.514133,0.989709,-0.00644237,-0.000780963,0.097837,1,4.71304e-05,-6.3705e-06,1.87401e-05,0.00942609,-0.0012741,0.00374802,0.999451,-0.00363452,0.0329414,3.19341e-05,0.0634588,0.522768,-0.983607,30.1875,1,32198,3271395
29,2,0.999451,-0.00358756,0.0329289,4.40425e-05,-0.646395,-0.0833833,9.78504,0.0679517,-0.521591,0.987295,-0.00646646,-0.000843136,0.0978502,1,4.66424e-05,-1.28993e-05,1.35471e-05,0.00932847,-0.00257986,0.00270943,0.999451,-0.00358756,0.0329289,4.40425e-05,0.0639399,0.522764,-0.983609,30.1875,1,32199,3271495
29,3,0.999451,-0.00358756,0.0329289,4.40425e-05,-0.646395,-0.0833833,9.78504,0.0679517,-0.521591,0.987295,-0.00646646,-0.000843136,0.0978502,1,4.66424e-05,-1.28993e-05,1.35471e-05,0.00932847,-0.00257986,0.00270943,0.999451,-0.00358756,0.0329289,4.40425e-05,0.0639399,0.522764,-0.983609,30.1875,1,32199,3271495
29,4,0.999451,-0.00358756,0.0329289,4.40425e-05,-0.646395,-0.0833833,9.78504,0.0679517,-0.521591,0.987295,-0.00646646,-0.000843136,0.0978502,1,4.66424e-05,-1.28993e-05,1.35471e-05,0.00932847,-0.00257986,0.00270943,0.999451,-0.00358756,0.0329289,4.40425e-05,0.0639399,0.522764,-0.983609,30.1875,1,32199,3271495
29,5,0.999452,-0.00354658,0.0329124,4.82192e-05,-0.632327,-0.0880471,9.78626,0.0795746,-0.53185,0.983103,-0.00632648,-0.000888528,0.0978623,1,4.08031e-05,-1.64453e-05,5.61215e-06,0.00816062,-0.00328905,0.00112243,0.999452,-0.00354658,0.0329124,4.82192e-05,0.0643764,0.52472,-0.984073,30.1875,1,32200,3271595
29,6,0.999452,-0.00354658,0.0329124,4.82192e-05,-0.632327,-0.0880471,9.78626,0.0795746,-0.53185,0.983103,-0.00632648,-0.000888528,0.0978623,1,4.08031e-05,-1.64453e-05,5.61215e-06,0.00816062,-0.00328905,0.00112243,0.999452,-0.00354658,0.0329124,4.82192e-05,0.0643764,0.52472,-0.984073,30.1875,1,32200,3271595
30,1,0.999452,-0.00354658,0.0329124,4.82192e-05,-0.632327,-0.0880471,9.78626,0.0795746,-0.53185,0.983103,-0.00632648,-0.000888528,0.0978623,1,4.08031e-05,-1.64453e-05,5.61215e-06,0.00816062,-0.00328905,0.00112243,0.999452,-0.00354658,0.0329124,4.82192e-05,0.0643764,0.52472,-0.984073,30.1875,1,32200,3271595
30,2,0.999452,-0.00349038,0.0329067,6.78883e-05,-0.638154,-0.0963216,9.79639,0.073089,-0.533449,0.998734,-0.00638262,-0.000974287,0.0979638,1,5.50932e-05,-5.69964e-06,2.16629e-05,0.0110186,-0.00113993,0.00433258,0.999452,-0.00349038,0.0329067,6.78883e-05,0.0628965,0.526205,-0.984538,30.1875,1,32201,3271695
30,3,0.999452,-0.00349038,0.0329067,6.78883e-05,-0.638154,-0.0963216,9.79639,0.073089,-0.533449,0.998734,-0.00638262,-0.000974287,0.0979638,1,5.50932e-05,-5.69964e-06,2.16629e-05,0.0110186,-0.00113993,0.00433258,0.999452,-0.00349038,0.0329067,6.78883e-05,0.0628965,0.526205,-0.984538,30.1875,1,32201,3271695
30,4,0.999452,-0.00349038,0.0329067,6.78883e-05,-0.638154,-0.0963216,9.79639,0.073089,-0.533449,0.998734,-0.00638262,-0.000974287,0.0979638,1,5.50932e-05,-5.69964e-06,2.16629e-05,0.0110186,-0.00113993,0.00433258,0.999452,-0.00349038,0.0329067,6.78883e-05,0.0628965,0.526205,-0.984538,30.1875,1,32201,3271695
30,5,0.999452,-0.00345392,0.0329103,8.99104e-05,-0.651921,-0.0894236,9.79586,0.0576406,-0.530107,1.00113,-0.00651847,-0.000901553,0.0979586,1,3.58129e-05,3.59655e-06,2.30132e-05,0.00716257,0.000719309,0.00460265,0.999452,-0.00345392,0.0329103,8.99104e-05,0.0628918,0.524281,-0.986096,30.1875,1,32202,3271795
30,6,0.999452,-0.00345392,0.0329103,8.99104e-05,-0.651921,-0.0894236,9.79586,0.0576406,-0.530107,1.00113,-0.00651847,-0.000901553,0.0979586,1,3.58129e-05,3.59655e-06,2.30132e-05,0.00716257,0.000719309,0.00460265,0.999452,-0.00345392,0.0329103,8.99104e-05,0.0628918,0.524281,-0.986096,30.1875,1,32202,3271795
31,1,0.999452,-0.00345392,0.0329103,8.99104e-05,-0.651921,-0.0894236,9.79586,0.0576406,-0.530107,1.00113,-0.00651847,-0.000901553,0.0979586,1,3.58129e-05,3.59655e-06,2.30132e-05,0.00716257,0.000719309,0.00460265,0.999452,-0.00345392,0.0329103,8.99104e-05,0.0628918,0.524281,-0.986096,30.1875,1,32202,3271795
31,2,0.999453,-0.00340465,0.0328963,0.00011343,-0.639105,-0.0891018,9.79071,0.0723046,-0.536143,0.993914,-0.00639376,-0.000900882,0.0979068,1,4.87418e-05,-1.40683e-05,2.50395e-05,0.00974836,-0.00281366,0.00500791,0.999453,-0.00340465,0.0328963,0.00011343,0.0634341,0.522786,-0.984617,30.1875,1,32203,3271895
31,3,0.999453,-0.00340465,0.0328963,0.00011343,-0.639105,-0.0891018,9.79071,0.0723046,-0.536143,0.993914,-0.00639376,-0.000900882,0.0979068,1,4.87418e-05,-1.40683e-05,2.50395e-05,0.00974836,-0.00281366,0.00500791,0.999453,-0.00340465,0.0328963,0.00011343,0.0634341,0.522786,-0.984617,30.1875,1,32203,3271895
31,4,0.999453,-0.00340465,0.0328963,0.00011343,-0.639105,-0.0891018,9.79071,0.0723046,-0.536143,0.993914,-0.00639376,-0.000900882,0.0979068,1,4.87418e-05,-1.40683e-05,2.50395e-05,0.00974836,-0.00281366,0.00500791,0.999453,-0.00340465,0.0328963,0.00011343,0.0634341,0.522786,-0.984617,30.1875,1,32203,3271895
31,5,0.999454,-0.0033567,0.0328852,0.000133209,-0.651439,-0.0906035,9.78976,0.0583896,-0.536607,0.99058,-0.00651653,-0.000915613,0.0978973,1,4.75067e-05,-1.11347e-05,2.12399e-05,0.00950134,-0.00222695,0.00424799,0.999454,-0.0033567,0.0328852,0.000133209,0.0624643,0.524727,-0.983559,30.1875,1,32204,3271995
31,6,0.999454,-0.0033567,0.0328852,0.000133209,-0.651439,-0.0906035,9.78976,0.0583896,-0.536607,0.99058,-0.00651653,-0.000915613,0.0978973,1,4.75067e-05,-1.11347e-05,2.12399e-05,0.00950134,-0.00222695,0.00424799,0.999454,-0.0033567,0.0328852,0.000133209,0.0624643,0.524727,-0.983559,30.1875,1,32204,3271995
32,1,0.999454,-0.0033567,0.0328852,0.000133209,-0.651439,-0.0906035,9.78976,0.0583896,-0.536607,0.99058,-0.00651653,-0.000915613,0.0978973,1,4.75067e-05,-1.11347e-05,2.12399e-05,0.00950134,-0.00222695,0.00424799,0.999454,-0.0033567,0.0328852,0.000133209,0.0624643,0.524727,-0.983559,30.1875,1,32204,3271995
32,2,0.999454,-0.00330159,0.0328707,0.000156138,-0.641578,-0.0794789,9.79589,0.0688417,-0.52511,0.996,-0.00641851,-0.000805844,0.0979587,1,5.48064e-05,-1.41746e-05,2.47046e-05,0.0109613,-0.00283492,0.00494092,0.999454,-0.00330159,0.0328707,0.000156138,0.0644419,0.523709,-0.982076,30.1875,1,32205,3272095
32,3,0.999454,-0.00330159,0.0328707,0.000156138,-0.641578,-0.0794789,9.79589,0.0688417,-0.52511,0.996,-0.00641851,-0.000805844,0.0979587,1,5.48064e-05,-1.41746e-05,2.47046e-05,0.0109613,-0.00283492,0.00494092,0.999454,-0.00330159,0.0328707,0.000156138,0.0644419,0.523709,-0.982076,30.1875,1,32205,3272095
32,4,0.999454,-0.00330159,0.0328707,0.000156138,-0.641578,-0.0794789,9.79589,0.0688417,-0.52511,0.996,-0.00641851,-0.000805844,0.0979587,1,5.48064e-05,-1.41746e-05,2.47046e-05,0.0109613,-0.00283492,0.00494092,0.999454,-0.00330159,0.0328707,0.000156138,0.0644419,0.523709,-0.982076,30.1875,1,32205,3272095
32,5,0.999454,-0.0032507,0.0328843,0.000171793,-0.64606,-0.0738019,9.78611,0.0713493,-0.519754,0.984279,-0.00645794,-0.000748196,0.0978612,1,5.08595e-05,1.34779e-05,1.72316e-05,0.0101719,0.00269557,0.00344633,0.999454,-0.0032507,0.0328843,0.000171793,0.0648941,0.523244,-0.983603,30.1875,1,32206,3272195
32,6,0.999454,-0.0032507,0.0328843,0.000171793,-0.64606,-0.0738019,9.78611,0.0713493,-0.519754,0.984279,-0.00645794,-0.000748196,0.0978612,1,5.08595e-05,1.34779e-05,1.72316e-05,0.0101719,0.00269557,0.00344633,0.999454,-0.0032507,0.0328843,0.000171793,0.0648941,0.523244,-0.983603,30.1875,1,32206,3272195
33,1,0.999454,-0.0032507,0.0328843,0.000171793,-0.64606,-0.0738019,9.78611,0.0713493,-0.519754,0.984279,-0.00645794,-0.000748196,0.0978612,1,5.08595e-05,1.34779e-05,1.72316e-05,0.0101719,0.00269557,0.00344633,0.999454,-0.0032507,0.0328843,0.000171793,0.0648941,0.523244,-0.983603,30.1875,1,32206,3272195
33,2,0.999454,-0.0031965,0.0328781,0.000192484,-0.628873,-0.061434,9.7729,0.0789828,-0.51245,0.96641,-0.00628988,-0.000625191,0.0977288,1,5.40356e-05,-6.03308e-06,2.29434e-05,0.0108071,-0.00120662,0.00458867,0.999454,-0.0031965,0.0328781,0.000192484,0.0643598,0.524251,-0.985094,30.1875,1,32207,3272295
33,3,0.999454,-0.0031965,0.0328781,0.000192484,-0.628873,-0.061434,9.7729,0.0789828,-0.51245,0.96641,-0.00628988,-0.000625191,0.0977288,1,5.40356e-05,-6.03308e-06,2.29434e-05,0.0108071,-0.00120662,0.00458867,0.999454,-0.0031965,0.0328781,0.000192484,0.0643598,0.524251,-0.985094,30.1875,1,32207,3272295
33,4,0.999454,-0.0031965,0.0328781,0.000192484,-0.628873,-0.061434,9.7729,0.0789828,-0.51245,0.96641,-0.00628988,-0.000625191,0.0977288,1,5.40356e-05,-6.03308e-06,2.29434e-05,0.0108071,-0.00120662,0.00458867,0.999454,-0.0031965,0.0328781,0.000192484,0.0643598,0.524251,-0.985094,30.1875,1,32207,3272295
33,5,0.999455,-0.00315136,0.0328664,0.000221959,-0.643691,-0.0724253,9.79393,0.0681228,-0.519665,0.991884,-0.00643917,-0.000733356,0.0979391,1,4.44445e-05,-1.17757e-05,3.08715e-05,0.0088889,-0.00235515,0.0061743,0.999455,-0.00315136,0.0328664,0.000221959,0.063418,0.523762,-0.984595,30.1875,1,32208,3272395
33,6,0.999455,-0.00315136,0.0328664,0.000221959,-0.643691,-0.0724253,9.79393,0.0681228,-0.519665,0.991884,-0.00643917,-0.000733356,0.0979391,1,4.44445e-05,-1.17757e-05,3.08715e-05,0.0088889,-0.00235515,0.0061743,0.999455,-0.00315136,0.0328664,0.000221959,0.063418,0.523762,-0.984595,30.1875,1,32208,3272395
34,1,0.999455,-0.00315136,0.0328664,0.000221959,-0.643691,-0.0724253,9.79393,0.0681228,-0.519665,0.991884,-0.00643917,-0.000733356,0.0979391,1,4.44445e-05,-1.17757e-05,3.08715e-05,0.0088889,-0.00235515,0.0061743,0.999455,-0.00315136,0.0328664,0.000221959,0.063418,0.523762,-0.984595,30.1875,1,32208,3272395
34,2,0.999456,-0.00310721,0.0328454,0.000232121,-0.639371,-0.0816813,9.79418,0.0705891,-0.534295,0.99567,-0.00639775,-0.000825472,0.0979414,1,4.34238e-05,-2.07277e-05,1.19375e-05,0.00868477,-0.00414554,0.00238749,0.999456,-0.00310721,0.0328454,0.000232121,0.0639442,0.523243,-0.983094,30.1875,1,32209,3272495
34,3,0.999456,-0.00310721,0.0328454,0.000232121,-0.639371,-0.0816813,9.79418,0.0705891,-0.534295,0.99567,-0.00639775,-0.000825472,0.0979414,1,4.34238e-05,-2.07277e-05,1.19375e-05,0.00868477,-0.00414554,0.00238749,0.999456,-0.00310721,0.0328454,0.000232121,0.0639442,0.523243,-0.983094,30.1875,1,32209,3272495
34,4,0.999456,-0.00310721,0.0328454,0.000232121,-0.639371,-0.0816813,9.79418,0.0705891,-0.534295,0.99567,-0.00639775,-0.000825472,0.0979414,1,4.34238e-05,-2.07277e-05,1.19375e-05,0.00868477,-0.00414554,0.00238749,0.999456,-0.00310721,0.0328454,0.000232121,0.0639442,0.523243,-0.983094,30.1875,1,32209,3272495
34,5,0.999456,-0.00306903,0.0328371,0.000240696,-0.648819,-0.0817153,9.78676,0.0626355,-0.527929,0.986348,-0.00648978,-0.000824763,0.0978674,1,3.82289e-05,-8.17691e-06,9.85357e-06,0.00764579,-0.00163538,0.00197071,0.999456,-0.00306903,0.0328371,0.000240696,0.06445,0.523221,-0.982087,30.1875,1,32210,3272595
34,6,0.999456,-0.00306903,0.0328371,0.000240696,-0.648819,-0.0817153,9.78676,0.0626355,-0.527929,0.986348,-0.00648978,-0.000824763,0.0978674,1,3.82289e-05,-8.17691e-06,9.85357e-06,0.00764579,-0.00163538,0.00197071,0.999456,-0.00306903,0.0328371,0.000240696,0.06445,0.523221,-0.982087,30.1875,1,32210,3272595
35,1,0.999456,-0.00306903,0.0328371,0.000240696,-0.648819,-0.0817153,9.78676,0.0626355,-0.527929,0.986348,-0.00648978,-0.000824763,0.0978674,1,3.82289e-05,-8.17691e-06,9.85357e-06,0.00764579,-0.00163538,0.00197071,0.999456,-0.00306903,0.0328371,0.000240696,0.06445,0.523221,-0.982087,30.1875,1,32210,3272595
35,2,0.999457,-0.00301347,0.0328249,0.000249206,-0.640912,-0.0811478,9.78841,0.0668848,-0.535503,0.98599,-0.00641145,-0.000822515,0.0978839,1,5.57025e-05,-1.20137e-05,1.03358e-05,0.0111405,-0.00240275,0.00206716,0.999457,-0.00301347,0.0328249,0.000249206,0.0634834,0.52275,-0.982598,30.1875,1,32211,3272695
35,3,0.999457,-0.00301347,0.0328249,0.000249206,-0.640912,-0.0811478,9.78841,0.0668848,-0.535503,0.98599,-0.00641145,-0.000822515,0.0978839,1,5.57025e-05,-1.20137e-05,1.03358e-05,0.0111405,-0.00240275,0.00206716,0.999457,-0.00301347,0.0328249,0.000249206,0.0634834,0.52275,-0.982598,30.1875,1,32211,3272695
35,4,0.999457,-0.00301347,0.0328249,0.000249206,-0.640912,-0.0811478,9.78841,0.0668848,-0.535503,0.98599,-0.00641145,-0.000822515,0.0978839,1,5.57025e-05,-1.20137e-05,1.03358e-05,0.0111405,-0.00240275,0.00206716,0.999457,-0.00301347,0.0328249,0.000249206,0.0634834,0.52275,-0.982598,30.1875,1,32211,3272695
35,5,0.999457,-0.00297158,0.0328191,0.000252753,-0.657719,-0.0790943,9.7926,0.0532367,-0.531829,0.989326,-0.00657828,-0.000799088,0.0979259,1,4.12669e-05,-5.63086e-06,4.79851e-06,0.00825337,-0.00112617,0.000959702,0.999457,-0.00297158,0.0328191,0.000252753,0.0638872,0.525212,-0.98406,30.1875,1,32212,3272795
35,6,0.999457,-0.00297158,0.0328191,0.000252753,-0.657719,-0.0790943,9.7926,0.0532367,-0.531829,0.989326,-0.00657828,-0.000799088,0.0979259,1,4.12669e-05,-5.63086e-06,4.79851e-06,0.00825337,-0.00112617,0.000959702,0.999457,-0.00297158,0.0328191,0.000252753,0.0638872,0.525212,-0.98406,30.1875,1,32212,3272795
36,1,0.999457,-0.00297158,0.0328191,0.000252753,-0.657719,-0.0790943,9.7926,0.0532367,-0.531829,0.989326,-0.00657828,-0.000799088,0.0979259,1,4.12669e-05,-5.63086e-06,4.79851e-06,0.00825337,-0.00112617,0.000959702,0.999457,-0.00297158,0.0328191,0.000252753,0.0638872,0.525212,-0.98406,30.1875,1,32212,3272795
36,2,0.999457,-0.00293314,0.032814,0.000267102,-0.63041,-0.0847691,9.80018,0.0800313,-0.537404,0.997764,-0.0063051,-0.000855496,0.0980017,1,3.88249e-05,-5.22483e-06,1.55031e-05,0.00776497,-0.00104497,0.00310061,0.999457,-0.00293314,0.032814,0.000267102,0.065314,0.52473,-0.985087,30.1875,1,32213,3272895
36,3,0.999457,-0.00293314,0.032814,0.000267102,-0.63041,-0.0847691,9.80018,0.0800313,-0.537404,0.997764,-0.0063051,-0.000855496,0.0980017,1,3.88249e-05,-5.22483e-06,1.55031e-05,0.00776497,-0.00104497,0.00310061,0.999457,-0.00293314,0.032814,0.000267102,0.065314,0.52473,-0.985087,30.1875,1,32213,3272895
36,4,0.999457,-0.00293314,0.032814,0.000267102,-0.63041,-0.0847691,9.80018,0.0800313,-0.537404,0.997764,-0.0063051,-0.000855496,0.0980017,1,3.88249e-05,-5.22483e-06,1.55031e-05,0.00776497,-0.00104497,0.00310061,0.999457,-0.00293314,0.032814,0.000267102,0.065314,0.52473,-0.985087,30.1875,1,32213,3272895
36,5,0.999458,-0.00289242,0.0328065,0.000272812,-0.640831,-0.0889107,9.79309,0.0700812,-0.547017,0.993253,-0.00640976,-0.000897366,0.0979308,1,4.1701e-05,-7.5047e-06,7.14494e-06,0.00834019,-0.00150094,0.00142899,0.999458,-0.00289242,0.0328065,0.000272812,0.064347,0.522814,-0.986641,30.1875,1,32214,3272995
36,6,0.999458,-0.00289242,0.0328065,0.000272812,-0.640831,-0.0889107,9.79309,0.0700812,-0.547017,0.993253,-0.00640976,-0.000897366,0.0979308,1,4.1701e-05,-7.5047e-06,7.14494e-06,0.00834019,-0.00150094,0.00142899,0.999458,-0.00289242,0.0328065,0.000272812,0.064347,0.522814,-0.986641,30.1875,1,32214,3272995
37,1,0.999458,-0.00289242,0.0328065,0.000272812,-0.640831,-0.0889107,9.79309,0.0700812,-0.547017,0.993253,-0.00640976,-0.000897366,0.0979308,1,4.1701e-05,-7.5047e-06,7.14494e-06,0.00834019,-0.00150094,0.00142899,0.999458,-0.00289242,0.0328065,0.000272812,0.064347,0.522814,-0.986641,30.1875,1,32214,3272995
37,2,0.999458,-0.00285844,0.0328073,0.000285014,-0.648236,-0.0763088,9.78205,0.0623199,-0.533977,0.983644,-0.00648213,-0.000769979,0.0978204,1,3.43137e-05,1.05077e-06,1.3763e-05,0.00686274,0.000210155,0.00275259,0.999458,-0.00285844,0.0328073,0.000285014,0.063919,0.521816,-0.985146,30.1875,1,32215,3273095
37,3,0.999458,-0.00285844,0.0328073,0.000285014,-0.648236,-0.0763088,9.78205,0.0623199,-0.533977,0.983644,-0.00648213,-0.000769979,0.0978204,1,3.43137e-05,1.05077e-06,1.3763e-05,0.00686274,0.000210155,0.00275259,0.999458,-0.00285844,0.0328073,0.000285014,0.063919,0.521816,-0.985146,30.1875,1,32215,3273095
37,4,0.999458,-0.00285844,0.0328073,0.000285014,-0.648236,-0.0763088,9.78205,0.0623199,-0.533977,0.983644,-0.00648213,-0.000769979,0.0978204,1,3.43137e-05,1.05077e-06,1.3763e-05,0.00686274,0.000210155,0.00275259,0.999458,-0.00285844,0.0328073,0.000285014,0.063919,0.521816,-0.985146,30.1875,1,32215,3273095
37,5,0.999458,-0.00280295,0.0327876,0.000286906,-0.632669,-0.0855833,9.78628,0.0742142,-0.544671,0.988875,-0.00633051,-0.000866764,0.0978625,1,5.56055e-05,-1.95579e-05,3.74566e-06,0.0111211,-0.00391158,0.000749131,0.999458,-0.00280295,0.0327876,0.000286906,0.0630019,0.521309,-0.983638,30.1875,1,32216,3273195
37,6,0.999458,-0.00280295,0.0327876,0.000286906,-0.632669,-0.0855833,9.78628,0.0742142,-0.544671,0.988875,-0.00633051,-0.000866764,0.0978625,1,5.56055e-05,-1.95579e-05,3.74566e-06,0.0111211,-0.00391158,0.000749131,0.999458,-0.00280295,0.0327876,0.000286906,0.0630019,0.521309,-0.983638,30.1875,1,32216,3273195
38,1,0.999458,-0.00280295,0.0327876,0.000286906,-0.632669,-0.0855833,9.78628,0.0742142,-0.544671,0.988875,-0.00633051,-0.000866764,0.0978625,1,5.56055e-05,-1.95579e-05,3.74566e-06,0.0111211,-0.00391158,0.000749131,0.999458,-0.00280295,0.0327876,0.000286906,0.0630019,0.521309,-0.983638,30.1875,1,32216,3273195
38,2,0.999459,-0.00276219,0.0327717,0.000310362,-0.639263,-0.0893627,9.80462,0.0737326,-0.545474,1.00649,-0.00639568,-0.000901998,0.0980459,1,4.1051e-05,-1.58069e-05,2.51414e-05,0.0082102,-0.00316138,0.00502829,0.999459,-0.00276219,0.0327717,0.000310362,0.0649059,0.52179,-0.984141,30.1875,1,32217,3273295
38,3,0.999459,-0.00276219,0.0327717,0.000310362,-0.639263,-0.0893627,9.80462,0.0737326,-0.545474,1.00649,-0.00639568,-0.000901998,0.0980459,1,4.1051e-05,-1.58069e-05,2.51414e-05,0.0082102,-0.00316138,0.00502829,0.999459,-0.00276219,0.0327717,0.000310362,0.0649059,0.52179,-0.984141,30.1875,1,32217,3273295
38,4,0.999459,-0.00276219,0.0327717,0.000310362,-0.639263,-0.0893627,9.80462,0.0737326,-0.545474,1.00649,-0.00639568,-0.000901998,0.0980459,1,4.1051e-05,-1.58069e-05,2.51414e-05,0.0082102,-0.00316138,0.00502829,0.999459,-0.00276219,0.0327717,0.000310362,0.0649059,0.52179,-0.984141,30.1875,1,32217,3273295
38,5,0.999459,-0.00271852,0.0327756,0.00031983,-0.645179,-0.083682,9.784,0.0630023,-0.543078,0.980915,-0.00645097,-0.000845499,0.09784,1,4.3612e-05,4.10879e-06,1.12224e-05,0.0087224,0.000821758,0.00224449,0.999459,-0.00271852,0.0327756,0.00031983,0.0658235,0.523742,-0.984607,30.1875,1,32218,3273395
38,6,0.999459,-0.00271852,0.0327756,0.00031983,-0.645179,-0.083682,9.784,0.0630023,-0.543078,0.980915,-0.00645097,-0.000845499,0.09784,1,4.3612e-05,4.10879e-06,1.12224e-05,0.0087224,0.000821758,0.00224449,0.999459,-0.00271852,0.0327756,0.00031983,0.0658235,0.523742,-0.984607,30.1875,1,32218,3273395
39,1,0.999459,-0.00271852,0.0327756,0.00031983,-0.645179,-0.083682,9.784,0.0630023,-0.543078,0.980915,-0.00645097,-0.000845499,0.09784,1,4.3612e-05,4.10879e-06,1.12224e-05,0.0087224,0.000821758,0.00224449,0.999459,-0.00271852,0.0327756,0.00031983,0.0658235,0.523742,-0.984607,30.1875,1,32218,3273395
39,2,0.99946,-0.00267054,0.0327625,0.00033544,-0.640834,-0.0813828,9.79554,0.066638,-0.54186,0.994924,-0.00641085,-0.000823701,0.0979551,1,4.92577e-05,-1.29733e-05,1.73708e-05,0.00985155,-0.00259466,0.00347416,0.99946,-0.00267054,0.0327625,0.00033544,0.0648367,0.523768,-0.985612,30.1875,1,32219,3273495
39,3,0.99946,-0.00267054,0.0327625,0.00033544,-0.640834,-0.0813828,9.79554,0.066638,-0.54186,0.994924,-0.00641085,-0.000823701,0.0979551,1,4.92577e-05,-1.29733e-05,1.73708e-05,0.00985155,-0.00259466,0.00347416,0.99946,-0.00267054,0.0327625,0.00033544,0.0648367,0.523768,-0.985612,30.1875,1,32219,3273495
39,4,0.99946,-0.00267054,0.0327625,0.00033544,-0.640834,-0.0813828,9.79554,0.066638,-0.54186,0.994924,-0.00641085,-0.000823701,0.0979551,1,4.92577e-05,-1.29733e-05,1.73708e-05,0.00985155,-0.00259466,0.00347416,0.99946,-0.00267054,0.0327625,0.00033544,0.0648367,0.523768,-0.985612,30.1875,1,32219,3273495
39,5,0.99946,-0.002623,0.0327606,0.000338912,-0.646077,-0.0888691,9.79278,0.0624764,-0.552714,0.990632,-0.00646111,-0.000898274,0.0979277,1,4.85666e-05,-1.79188e-06,5.4522e-06,0.00971332,-0.000358376,0.00109044,0.99946,-0.002623,0.0327606,0.000338912,0.0638455,0.523315,-0.987132,30.1875,1,32220,3273595
39,6,0.99946,-0.002623,0.0327606,0.000338912,-0.646077,-0.0888691,9.79278,0.0624764,-0.552714,0.990632,-0.00646111,-0.000898274,0.0979277,1,4.85666e-05,-1.79188e-06,5.4522e-06,0.00971332,-0.000358376,0.00109044,0.99946,-0.002623,0.0327606,0.000338912,0.0638455,0.523315,-0.987132,30.1875,1,32220,3273595
40,1,0.99946,-0.002623,0.0327606,0.000338912,-0.646077,-0.0888691,9.79278,0.0624764,-0.552714,0.990632,-0.00646111,-0.000898274,0.0979277,1,4.85666e-05,-1.79188e-06,5.4522e-06,0.00971332,-0.000358376,0.00109044,0.99946,-0.002623,0.0327606,0.000338912,0.0638455,0.523315,-0.987132,30.1875,1,32220,3273595
40,2,0.99946,-0.00257044,0.0327532,0.000347607,-0.634507,-0.0777577,9.78907,0.0740614,-0.54177,0.984747,-0.00634648,-0.000788237,0.0978905,1,5.37281e-05,-7.27508e-06,1.1105e-05,0.0107456,-0.00145502,0.00222099,0.99946,-0.00257044,0.0327532,0.000347607,0.0634014,0.523292,-0.985616,30.1875,1,32221,3273695
40,3,0.99946,-0.00257044,0.0327532,0.000347607,-0.634507,-0.0777577,9.78907,0.0740614,-0.54177,0.984747,-0.00634648,-0.000788237,0.0978905,1,5.37281e-05,-7.27508e-06,1.1105e-05,0.0107456,-0.00145502,0.00222099,0.99946,-0.00257044,0.0327532,0.000347607,0.0634014,0.523292,-0.985616,30.1875,1,32221,3273695
40,4,0.99946,-0.00257044,0.0327532,0.000347607,-0.634507,-0.0777577,9.78907,0.0740614,-0.54177,0.984747,-0.00634648,-0.000788237,0.0978905,1,5.37281e-05,-7.27508e-06,1.1105e-05,0.0107456,-0.00145502,0.00222099,0.99946,-0.00257044,0.0327532,0.000347607,0.0634014,0.523292,-0.985616,30.1875,1,32221,3273695
40,5,0.99946,-0.0025196,0.0327431,0.000375432,-0.636335,-0.0738616,9.78097,0.0722373,-0.531971,0.981763,-0.00636525,-0.000748979,0.0978095,1,5.10252e-05,-9.95941e-06,2.99591e-05,0.010205,-0.00199188,0.00599182,0.99946,-0.0025196,0.0327431,0.000375432,0.0648779,0.52422,-0.983581,30.1875,1,32222,3273795
40,6,0.99946,-0.0025196,0.0327431,0.000375432,-0.636335,-0.0738616,9.78097,0.0722373,-0.531971,0.981763,-0.00636525,-0.000748979,0.0978095,1,5.10252e-05,-9.95941e-06,2.99591e-05,0.010205,-0.00199188,0.00599182,0.99946,-0.0025196,0.0327431,0.000375432,0.0648779,0.52422,-0.983581,30.1875,1,32222,3273795
41,1,0.999461,-0.00249199,0.0327398,0.000400586,-0.639933,-0.0822268,9.79857,0.0682507,-0.547521,0.996604,-0.00639992,-0.000828215,0.0979856,1,2.86083e-05,-3.24116e-06,2.66471e-05,0.00572166,-0.000648232,0.00532941,0.999461,-0.00249199,0.0327398,0.000400586,0.066354,0.523702,-0.98259,30.1875,1,32223,3273895
41,2,0.999461,-0.00249199,0.0327398,0.000400586,-0.639933,-0.0822268,9.79857,0.0682507,-0.547521,0.996604,-0.00639992,-0.000828215,0.0979856,1,2.86083e-05,-3.24116e-06,2.66471e-05,0.00572166,-0.000648232,0.00532941,0.999461,-0.00249199,0.0327398,0.000400586,0.066354,0.523702,-0.98259,30.1875,1,32223,3273895
41,3,0.999461,-0.00249199,0.0327398,0.000400586,-0.639933,-0.0822268,9.79857,0.0682507,-0.547521,0.996604,-0.00639992,-0.000828215,0.0979856,1,2.86083e-05,-3.24116e-06,2.66471e-05,0.00572166,-0.000648232,0.00532941,0.999461,-0.00249199,0.0327398,0.000400586,0.066354,0.523702,-0.98259,30.1875,1,32223,3273895
41,4,0.999461,-0.00244737,0.0327355,0.00040412,-0.638594,-0.0833592,9.79414,0.0717077,-0.552439,0.991746,-0.00638674,-0.000842702,0.0979412,1,4.61526e-05,-4.15192e-06,5.4335e-06,0.00923052,-0.000830384,0.0010867,0.999461,-0.00244737,0.0327355,0.00040412,0.0653633,0.524694,-0.983068,30.1875,1,32224,3273995
41,5,0.999461,-0.00244737,0.0327355,0.00040412,-0.638594,-0.0833592,9.79414,0.0717077,-0.552439,0.991746,-0.00638674,-0.000842702,0.0979412,1,4.61526e-05,-4.15192e-06,5.4335e-06,0.00923052,-0.000830384,0.0010867,0.999461,-0.00244737,0.0327355,0.00040412,0.0653633,0.524694,-0.983068,30.1875,1,32224,3273995
41,6,0.999461,-0.00244737,0.0327355,0.00040412,-0.638594,-0.0833592,9.79414,0.0717077,-0.552439,0.991746,-0.00638674,-0.000842702,0.0979412,1,4.61526e-05,-4.15192e-06,5.4335e-06,0.00923052,-0.000830384,0.0010867,0.999461,-0.00244737,0.0327355,0.00040412,0.0653633,0.524694,-0.983068,30.1875,1,32224,3273995
42,1,0.999461,-0.00241032,0.0327276,0.000398855,-0.639315,-0.0690059,9.78851,0.0618707,-0.538016,0.985652,-0.00639464,-0.000697805,0.0978849,1,3.97824e-05,-7.61832e-06,-3.30831e-06,0.00795647,-0.00152366,-0.000661663,0.999461,-0.00241032,0.0327276,0.000398855,0.064829,0.525701,-0.984558,30.1875,1,32225,3274095
42,2,0.999461,-0.00241032,0.0327276,0.000398855,-0.639315,-0.0690059,9.78851,0.0618707,-0.538016,0.985652,-0.00639464,-0.000697805,0.0978849,1,3.97824e-05,-7.61832e-06,-3.30831e-06,0.00795647,-0.00152366,-0.000661663,0.999461,-0.00241032,0.0327276,0.000398855,0.064829,0.525701,-0.984558,30.1875,1,32225,3274095
42,3,0.999461,-0.00241032,0.0327276,0.000398855,-0.639315,-0.0690059,9.78851,0.0618707,-0.538016,0.985652,-0.00639464,-0.000697805,0.0978849,1,3.97824e-05,-7.61832e-06,-3.30831e-06,0.00795647,-0.00152366,-0.000661663,0.999461,-0.00241032,0.0327276,0.000398855,0.064829,0.525701,-0.984558,30.1875,1,32225,3274095
42,4,0.999462,-0.00236697,0.0327173,0.000411323,-0.637558,-0.0799681,9.79485,0.0668172,-0.546565,0.992587,-0.00637754,-0.00080874,0.0979482,1,4.53125e-05,-1.00918e-05,1.43016e-05,0.00906251,-0.00201836,0.00286031,0.999462,-0.00236697,0.0327173,0.000411323,0.0633563,0.523807,-0.987119,30.1875,1,32226,3274195
42,5,0.999462,-0.00236697,0.0327173,0.000411323,-0.637558,-0.0799681,9.79485,0.0668172,-0.546565,0.992587,-0.00637754,-0.00080874,0.0979482,1,4.53125e-05,-1.00918e-05,1.43016e-05,0.00906251,-0.00201836,0.00286031,0.999462,-0.00236697,0.0327173,0.000411323,0.0633563,0.523807,-0.987119,30.1875,1,32226,3274195
42,6,0.999462,-0.00236697,0.0327173,0.000411323,-0.637558,-0.0799681,9.79485,0.0668172,-0.546565,0.992587,-0.00637754,-0.00080874,0.0979482,1,4.53125e-05,-1.00918e-05,1.43016e-05,0.00906251,-0.00201836,0.00286031,0.999462,-0.00236697,0.0327173,0.000411323,0.0633563,0.523807,-0.987119,30.1875,1,32226,3274195
43,1,0.999462,-0.00232387,0.0327209,0.000425448,-0.636661,-0.0830179,9.78903,0.0714874,-0.551659,0.987984,-0.00636581,-0.000839137,0.0978903,1,4.46885e-05,3.92268e-06,1.63616e-05,0.00893771,0.000784536,0.00327232,0.999462,-0.00232387,0.0327209,0.000425448,0.0633928,0.522335,-0.986647,30.1875,1,32227,3274295
43,2,0.999462,-0.00232387,0.0327209,0.000425448,-0.636661,-0.0830179,9.78903,0.0714874,-0.551659,0.987984,-0.00636581,-0.000839137,0.0978903,1,4.46885e-05,3.92268e-06,1.63616e-05,0.00893771,0.000784536,0.00327232,0.999462,-0.00232387,0.0327209,0.000425448,0.0633928,0.522335,-0.986647,30.1875,1,32227,3274295
43,3,0.999462,-0.00232387,0.0327209,0.000425448,-0.636661,-0.0830179,9.78903,0.0714874,-0.551659,0.987984,-0.00636581,-0.000839137,0.0978903,1,4.46885e-05,3.92268e-06,1.63616e-05,0.00893771,0.000784536,0.00327232,0.999462,-0.00232387,0.0327209,0.000425448,0.0633928,0.522335,-0.986647,30.1875,1,32227,3274295
43,4,0.999462,-0.00228118,0.0327161,0.000438252,-0.644813,-0.081303,9.78503,0.0616113,-0.554209,0.98723,-0.00644901,-0.00082183,0.0978502,1,4.40142e-05,-4.61174e-06,1.44339e-05,0.00880284,-0.000922349,0.00288679,0.999462,-0.00228118,0.0327161,0.000438252,0.0624557,0.52377,-0.98459,30.1875,1,32228,3274395
43,5,0.999462,-0.00228118,0.0327161,0.000438252,-0.644813,-0.081303,9.78503,0.0616113,-0.554209,0.98723,-0.00644901,-0.00082183,0.0978502,1,4.40142e-05,-4.61174e-06,1.44339e-05,0.00880284,-0.000922349,0.00288679,0.999462,-0.00228118,0.0327161,0.000438252,0.0624557,0.52377,-0.98459,30.1875,1,32228,3274395
43,6,0.999462,-0.00228118,0.0327161,0.000438252,-0.644813,-0.081303,9.78503,0.0616113,-0.554209,0.98723,-0.00644901,-0.00082183,0.0978502,1,4.40142e-05,-4.61174e-06,1.44339e-05,0.00880284,-0.000922349,0.00288679,0.999462,-0.00228118,0.0327161,0.000438252,0.0624557,0.52377,-0.98459,30.1875,1,32228,3274395
43,7,0.999463,-0.0022386,0.0327006,0.000454008,-0.634538,-0.0696828,9.78982,0.0735276,-0.539624,0.98732,-0.00634836,-0.000705799,0.097898,1,4.46847e-05,-1.53505e-05,1.75368e-05,0.00893694,-0.00307009,0.00350736,0.999463,-0.0022386,0.0327006,0.000454008,0.063455,0.523735,-0.983081,30.1875,1,32229,3274495
43,8,0.999463,-0.0022386,0.0327006,0.000454008,-0.634538,-0.0696828,9.78982,0.0735276,-0.539624,0.98732,-0.00634836,-0.000705799,0.097898,1,4.46847e-05,-1.53505e-05,1.75368e-05,0.00893694,-0.00307009,0.00350736,0.999463,-0.0022386,0.0327006,0.000454008,0.063455,0.523735,-0.983081,30.1875,1,32229,3274495
44,1,0.999463,-0.00220979,0.032701,0.000464581,-0.649827,-0.0877226,9.79587,0.0661995,-0.560618,0.993426,-0.00649811,-0.000883409,0.0979587,1,3.07187e-05,7.09756e-07,1.26363e-05,0.00614374,0.000141951,0.00252726,0.999463,-0.00220979,0.032701,0.000464581,0.0643883,0.523266,-0.984611,30.1875,1,32230,3274595
44,2,0.999463,-0.00220979,0.032701,0.000464581,-0.649827,-0.0877226,9.79587,0.0661995,-0.560618,0.993426,-0.00649811,-0.000883409,0.0979587,1,3.07187e-05,7.09756e-07,1.26363e-05,0.00614374,0.000141951,0.00252726,0.999463,-0.00220979,0.032701,0.000464581,0.0643883,0.523266,-0.984611,30.1875,1,32230,3274595
44,3,0.999463,-0.00220979,0.032701,0.000464581,-0.649827,-0.0877226,9.79587,0.0661995,-0.560618,0.993426,-0.00649811,-0.000883409,0.0979587,1,3.07187e-05,7.09756e-07,1.26363e-05,0.00614374,0.000141951,0.00252726,0.999463,-0.00220979,0.032701,0.000464581,0.0643883,0.523266,-0.984611,30.1875,1,32230,3274595
44,4,0.999463,-0.00216569,0.0326964,0.00048002,-0.638533,-0.0810112,9.79789,0.0666244,-0.552009,0.994506,-0.00638615,-0.000819436,0.0979788,1,4.64097e-05,-4.36606e-06,1.80005e-05,0.00928194,-0.000873213,0.00360011,0.999463,-0.00216569,0.0326964,0.00048002,0.0647996,0.523795,-0.987126,30.1875,1,32231,3274695
44,5,0.999463,-0.00216569,0.0326964,0.00048002,-0.638533,-0.0810112,9.79789,0.0666244,-0.552009,0.994506,-0.00638615,-0.000819436,0.0979788,1,4.64097e-05,-4.36606e-06,1.80005e-05,0.00928194,-0.000873213,0.00360011,0.999463,-0.00216569,0.0326964,0.00048002,0.0647996,0.523795,-0.987126,30.1875,1,32231,3274695
44,6,0.999463,-0.00216569,0.0326964,0.00048002,-0.638533,-0.0810112,9.79789,0.0666244,-0.552009,0.994506,-0.00638615,-0.000819436,0.0979788,1,4.64097e-05,-4.36606e-06,1.80005e-05,0.00928194,-0.000873213,0.00360011,0.999463,-0.00216569,0.0326964,0.00048002,0.0647996,0.523795,-0.987126,30.1875,1,32231,3274695
45,1,0.999463,-0.00212792,0.032682,0.000512058,-0.639551,-0.0836063,9.78296,0.0669782,-0.554194,0.978115,-0.00639823,-0.000844245,0.0978293,1,3.95924e-05,-1.41597e-05,3.40585e-05,0.00791849,-0.00283193,0.0068117,0.999463,-0.00212792,0.032682,0.000512058,0.0638417,0.524282,-0.986606,30.1875,1,32232,3274795
45,2,0.999463,-0.00212792,0.032682,0.000512058,-0.639551,-0.0836063,9.78296,0.0669782,-0.554194,0.978115,-0.00639823,-0.000844245,0.0978293,1,3.95924e-05,-1.41597e-05,3.40585e-05,0.00791849,-0.00283193,0.0068117,0.999463,-0.00212792,0.032682,0.000512058,0.0638417,0.524282,-0.986606,30.1875,1,32232,3274795
45,3,0.999463,-0.00212792,0.032682,0.000512058,-0.639551,-0.0836063,9.78296,0.0669782,-0.554194,0.978115,-0.00639823,-0.000844245,0.0978293,1,3.95924e-05,-1.41597e-05,3.40585e-05,0.00791849,-0.00283193,0.0068117,0.999463,-0.00212792,0.032682,0.000512058,0.0638417,0.524282,-0.986606,30.1875,1,32232,3274795
45,4,0.999464,-0.00209354,0.0326602,0.000522766,-0.644628,-0.0819666,9.78572,0.0643227,-0.557134,0.984685,-0.0064505,-0.000827137,0.0978568,1,3.73534e-05,-2.16532e-05,1.24521e-05,0.00747069,-0.00433063,0.00249041,0.999464,-0.00209354,0.0326602,0.000522766,0.0644125,0.521803,-0.984643,30.1875,1,32233,3274895
45,5,0.999464,-0.00209354,0.0326602,0.000522766,-0.644628,-0.0819666,9.78572,0.0643227,-0.557134,0.984685,-0.0064505,-0.000827137,0.0978568,1,3.73534e-05,-2.16532e-05,1.24521e-05,0.00747069,-0.00433063,0.00249041,0.999464,-0.00209354,0.0326602,0.000522766,0.0644125,0.521803,-0.984643,30.1875,1,32233,3274895
45,6,0.999464,-0.00209354,0.0326602,0.000522766,-0.644628,-0.0819666,9.78572,0.0643227,-0.557134,0.984685,-0.0064505,-0.000827137,0.0978568,1,3.73534e-05,-2.16532e-05,1.24521e-05,0.00747069,-0.00433063,0.00249041,0.999464,-0.00209354,0.0326602,0.000522766,0.0644125,0.521803,-0.984643,30.1875,1,32233,3274895
46,1,0.999465,-0.00204037,0.0326409,0.0005286,-0.639438,-0.0842275,9.79076,0.065695,-0.559172,0.988429,-0.00639809,-0.000853448,0.0979072,1,5.652e-05,-1.89993e-05,8.24777e-06,0.011304,-0.00379985,0.00164955,0.999465,-0.00204037,0.0326409,0.0005286,0.0634545,0.52229,-0.984123,30.1875,1,32234,3274995
46,2,0.999465,-0.00204037,0.0326409,0.0005286,-0.639438,-0.0842275,9.79076,0.065695,-0.559172,0.988429,-0.00639809,-0.000853448,0.0979072,1,5.652e-05,-1.89993e-05,8.24777e-06,0.011304,-0.00379985,0.00164955,0.999465,-0.00204037,0.0326409,0.0005286,0.0634545,0.52229,-0.984123,30.1875,1,32234,3274995
46,3,0.999465,-0.00204037,0.0326409,0.0005286,-0.639438,-0.0842275,9.79076,0.065695,-0.559172,0.988429,-0.00639809,-0.000853448,0.0979072,1,5.652e-05,-1.89993e-05,8.24777e-06,0.011304,-0.00379985,0.00164955,0.999465,-0.00204037,0.0326409,0.0005286,0.0634545,0.52229,-0.984123,30.1875,1,32234,3274995
46,4,0.999465,-0.00198778,0.0326301,0.00054748,-0.652766,-0.0837722,9.7939,0.0547843,-0.557636,0.993905,-0.00652976,-0.000848864,0.0979387,1,5.54436e-05,-1.09225e-05,2.15451e-05,0.0110887,-0.0021845,0.00430901,0.999465,-0.00198778,0.0326301,0.00054748,0.0629577,0.524714,-0.983057,30.1875,1,32235,3275095
46,5,0.999465,-0.00198778,0.0326301,0.00054748,-0.652766,-0.0837722,9.7939,0.0547843,-0.557636,0.993905,-0.00652976,-0.000848864,0.0979387,1,5.54436e-05,-1.09225e-05,2.15451e-05,0.0110887,-0.0021845,0.00430901,0.999465,-0.00198778,0.0326301,0.00054748,0.0629577,0.524714,-0.983057,30.1875,1,32235,3275095
46,6,0.999465,-0.00198778,0.0326301,0.00054748,-0.652766,-0.0837722,9.7939,0.0547843,-0.557636,0.993905,-0.00652976,-0.000848864,0.0979387,1,5.54436e-05,-1.09225e-05,2.15451e-05,0.0110887,-0.0021845,0.00430901,0.999465,-0.00198778,0.0326301,0.00054748,0.0629577,0.524714,-0.983057,30.1875,1,32235,3275095
47,1,0.999466,-0.00196109,0.0326225,0.000570721,-0.636557,-0.0753014,9.79183,0.0678182,-0.553454,0.990318,-0.00636705,-0.00075905,0.0979181,1,2.91672e-05,-7.75618e-06,2.54642e-05,0.00583343,-0.00155124,0.00509284,0.999466,-0.00196109,0.0326225,0.000570721,0.0624847,0.524231,-0.983065,30.1875,1,32236,3275195
47,2,0.999466,-0.00196109,0.0326225,0.000570721,-0.636557,-0.0753014,9.79183,0.0678182,-0.553454,0.990318,-0.00636705,-0.00075905,0.0979181,1,2.91672e-05,-7.75618e-06,2.54642e-05,0.00583343,-0.00155124,0.00509284,0.999466,-0.00196109,0.0326225,0.000570721,0.0624847,0.524231,-0.983065,30.1875,1,32236,3275195
47,3,0.999466,-0.00196109,0.0326225,0.000570721,-0.636557,-0.0753014,9.79183,0.0678182,-0.553454,0.990318,-0.00636705,-0.00075905,0.0979181,1,2.91672e-05,-7.75618e-06,2.54642e-05,0.00583343,-0.00155124,0.00509284,0.999466,-0.00196109,0.0326225,0.000570721,0.0624847,0.524231,-0.983065,30.1875,1,32236,3275195
47,4,0.999466,-0.00192289,0.0326131,0.000579762,-0.644375,-0.0724699,9.78919,0.0586792,-0.554555,0.981664,-0.00644555,-0.000732941,0.0978917,1,4.13731e-05,-9.29078e-06,1.09764e-05,0.00827462,-0.00185816,0.00219529,0.999466,-0.00192289,0.0326131,0.000579762,0.0648694,0.523262,-0.984613,30.1875,1,32237,3275295
47,5,0.999466,-0.00192289,0.0326131,0.000579762,-0.644375,-0.0724699,9.78919,0.0586792,-0.554555,0.981664,-0.00644555,-0.000732941,0.0978917,1,4.13731e-05,-9.29078e-06,1.09764e-05,0.00827462,-0.00185816,0.00219529,0.999466,-0.00192289,0.0326131,0.000579762,0.0648694,0.523262,-0.984613,30.1875,1,32237,3275295
47,6,0.999466,-0.00192289,0.0326131,0.000579762,-0.644375,-0.0724699,9.78919,0.0586792,-0.554555,0.981664,-0.00644555,-0.000732941,0.0978917,1,4.13731e-05,-9.29078e-06,1.09764e-05,0.00827462,-0.00185816,0.00219529,0.999466,-0.00192289,0.0326131,0.000579762,0.0648694,0.523262,-0.984613,30.1875,1,32237,3275295
48,1,0.999466,-0.00188472,0.0326077,0.000596845,-0.637887,-0.0829941,9.79143,0.0669315,-0.565611,0.988652,-0.00637986,-0.000838421,0.0979141,1,4.20548e-05,-5.21929e-06,1.91703e-05,0.00841095,-0.00104386,0.00383407,0.999466,-0.00188472,0.0326077,0.000596845,0.0662591,0.522807,-0.987155,30.1875,1,32238,3275395
48,2,0.999466,-0.00188472,0.0326077,0.000596845,-0.637887,-0.0829941,9.79143,0.0669315,-0.565611,0.988652,-0.00637986,-0.000838421,0.0979141,1,4.20548e-05,-5.21929e-06,1.91703e-05,0.00841095,-0.00104386,0.00383407,0.999466,-0.00188472,0.0326077,0.000596845,0.0662591,0.522807,-0.987155,30.1875,1,32238,3275395
48,3,0.999466,-0.00188472,0.0326077,0.000596845,-0.637887,-0.0829941,9.79143,0.0669315,-0.565611,0.988652,-0.00637986,-0.000838421,0.0979141,1,4.20548e-05,-5.21929e-06,1.91703e-05,0.00841095,-0.00104386,0.00383407,0.999466,-0.00188472,0.0326077,0.000596845,0.0662591,0.522807,-0.987155,30.1875,1,32238,3275395
48,4,0.999466,-0.00184408,0.0326052,0.000594403,-0.642331,-0.0840303,9.78601,0.0664557,-0.562315,0.978618,-0.00642382,-0.00084929,0.09786,1,4.57913e-05,-2.61142e-06,1.92588e-06,0.00915825,-0.000522285,0.000385177,0.999466,-0.00184408,0.0326052,0.000594403,0.0648647,0.521338,-0.986171,30.1875,1,32239,3275495
48,5,0.999466,-0.00184408,0.0326052,0.000594403,-0.642331,-0.0840303,9.78601,0.0664557,-0.562315,0.978618,-0.00642382,-0.00084929,0.09786,1,4.57913e-05,-2.61142e-06,1.92588e-06,0.00915825,-0.000522285,0.000385177,0.999466,-0.00184408,0.0326052,0.000594403,0.0648647,0.521338,-0.986171,30.1875,1,32239,3275495
48,6,0.999466,-0.00184408,0.0326052,0.000594403,-0.642331,-0.0840303,9.78601,0.0664557,-0.562315,0.978618,-0.00642382,-0.00084929,0.09786,1,4.57913e-05,-2.61142e-06,1.92588e-06,0.00915825,-0.000522285,0.000385177,0.999466,-0.00184408,0.0326052,0.000594403,0.0648647,0.521338,-0.986171,30.1875,1,32239,3275495
49,1,0.999467,-0.00179737,0.032591,0.000618139,-0.635411,-0.0839714,9.7887,0.0662965,-0.566064,0.98438,-0.0063569,-0.000849848,0.0978867,1,5.00754e-05,-1.44673e-05,2.59408e-05,0.0100151,-0.00289346,0.00518817,0.999467,-0.00179737,0.032591,0.000618139,0.0629364,0.522321,-0.985635,30.1875,1,32240,3275595
49,2,0.999467,-0.00179737,0.032591,0.000618139,-0.635411,-0.0839714,9.7887,0.0662965,-0.566064,0.98438,-0.0063569,-0.000849848,0.0978867,1,5.00754e-05,-1.44673e-05,2.59408e-05,0.0100151,-0.00289346,0.00518817,0.999467,-0.00179737,0.032591,0.000618139,0.0629364,0.522321,-0.985635,30.1875,1,32240,3275595
49,3,0.999467,-0.00179737,0.032591,0.000618139,-0.635411,-0.0839714,9.7887,0.0662965,-0.566064,0.98438,-0.0063569,-0.000849848,0.0978867,1,5.00754e-05,-1.44673e-05,2.59408e-05,0.0100151,-0.00289346,0.00518817,0.999467,-0.00179737,0.032591,0.000618139,0.0629364,0.522321,-0.985635,30.1875,1,32240,3275595
49,4,0.999467,-0.00176457,0.0325891,0.000628161,-0.629061,-0.0809037,9.78868,0.0707337,-0.56308,0.988678,-0.00629078,-0.000816446,0.0978867,1,3.71635e-05,-9.36882e-07,1.05404e-05,0.00743271,-0.000187376,0.00210809,0.999467,-0.00176457,0.0325891,0.000628161,0.0634583,0.521323,-0.984649,30.1875,1,32241,3275695
49,5,0.999467,-0.00176457,0.0325891,0.000628161,-0.629061,-0.0809037,9.78868,0.0707337,-0.56308,0.988678,-0.00629078,-0.000816446,0.0978867,1,3.71635e-05,-9.36882e-07,1.05404e-05,0.00743271,-0.000187376,0.00210809,0.999467,-0.00176457,0.0325891,0.000628161,0.0634583,0.521323,-0.984649,30.1875,1,32241,3275695
49,6,0.999467,-0.00176457,0.0325891,0.000628161,-0.629061,-0.0809037,9.78868,0.0707337,-0.56308,0.988678,-0.00629078,-0.000816446,0.0978867,1,3.71635e-05,-9.36882e-07,1.05404e-05,0.00743271,-0.000187376,0.00210809,0.999467,-0.00176457,0.0325891,0.000628161,0.0634583,0.521323,-0.984649,30.1875,1,32241,3275695
50,1,0.999468,-0.00172516,0.032567,0.000646725,-0.639356,-0.0845022,9.79686,0.0677754,-0.566225,0.994149,-0.00639797,-0.000853677,0.0979683,1,4.28409e-05,-2.27075e-05,2.03436e-05,0.00856819,-0.00454149,0.00406872,0.999468,-0.00172516,0.032567,0.000646725,0.0648898,0.522765,-0.984119,30.1875,1,32242,3275795
50,2,0.999468,-0.00172516,0.032567,0.000646725,-0.639356,-0.0845022,9.79686,0.0677754,-0.566225,0.994149,-0.00639797,-0.000853677,0.0979683,1,4.28409e-05,-2.27075e-05,2.03436e-05,0.00856819,-0.00454149,0.00406872,0.999468,-0.00172516,0.032567,0.000646725,0.0648898,0.522765,-0.984119,30.1875,1,32242,3275795
50,3,0.999468,-0.00172516,0.032567,0.000646725,-0.639356,-0.0845022,9.79686,0.0677754,-0.566225,0.994149,-0.00639797,-0.000853677,0.0979683,1,4.28409e-05,-2.27075e-05,2.03436e-05,0.00856819,-0.00454149,0.00406872,0.999468,-0.00172516,0.032567,0.000646725,0.0648898,0.522765,-0.984119,30.1875,1,32242,3275795
50,4,0.999468,-0.0016971,0.0325714,0.000662494,-0.642176,-0.0752153,9.79016,0.0615881,-0.560512,0.987887,-0.00642094,-0.000758739,0.0979016,1,3.23429e-05,4.06457e-06,1.96659e-05,0.00646857,0.000812913,0.00393319,0.999468,-0.0016971,0.0325714,0.000662494,0.065322,0.524243,-0.985098,30.1875,1,32243,3275895
50,5,0.999468,-0.0016971,0.0325714,0.000662494,-0.642176,-0.0752153,9.79016,0.0615881,-0.560512,0.987887,-0.00642094,-0.000758739,0.0979016,1,3.23429e-05,4.06457e-06,1.96659e-05,0.00646857,0.000812913,0.00393319,0.999468,-0.0016971,0.0325714,0.000662494,0.065322,0.524243,-0.985098,30.1875,1,32243,3275895
50,6,0.999468,-0.0016971,0.0325714,0.000662494,-0.642176,-0.0752153,9.79016,0.0615881,-0.560512,0.987887,-0.00642094,-0.000758739,0.0979016,1,3.23429e-05,4.06457e-06,1.96659e-05,0.00646857,0.000812913,0.00393319,0.999468,-0.0016971,0.0325714,0.000662494,0.065322,0.524243,-0.985098,30.1875,1,32243,3275895
51,1,0.999468,-0.0016597,0.0325687,0.000690958,-0.646741,-0.0828202,9.79691,0.0597373,-0.564952,0.994564,-0.00646798,-0.000836932,0.097969,1,4.23751e-05,-3.17777e-06,3.29968e-05,0.00847502,-0.000635554,0.00659936,0.999468,-0.0016597,0.0325687,0.000690958,0.0647958,0.524761,-0.986599,30.1875,1,32244,3275995
51,2,0.999468,-0.0016597,0.0325687,0.000690958,-0.646741,-0.0828202,9.79691,0.0597373,-0.564952,0.994564,-0.00646798,-0.000836932,0.097969,1,4.23751e-05,-3.17777e-06,3.29968e-05,0.00847502,-0.000635554,0.00659936,0.999468,-0.0016597,0.0325687,0.000690958,0.0647958,0.524761,-0.986599,30.1875,1,32244,3275995
51,3,0.999468,-0.0016597,0.0325687,0.000690958,-0.646741,-0.0828202,9.79691,0.0597373,-0.564952,0.994564,-0.00646798,-0.000836932,0.097969,1,4.23751e-05,-3.17777e-06,3.29968e-05,0.00847502,-0.000635554,0.00659936,0.999468,-0.0016597,0.0325687,0.000690958,0.0647958,0.524761,-0.986599,30.1875,1,32244,3275995
51,4,0.999468,-0.00161829,0.0325653,0.000698813,-0.634202,-0.0784455,9.78839,0.0725637,-0.561197,0.98474,-0.00634274,-0.00079418,0.0978837,1,4.88199e-05,-3.77001e-06,1.31912e-05,0.00976399,-0.000754001,0.00263824,0.999468,-0.00161829,0.0325653,0.000698813,0.0629202,0.523296,-0.985613,30.1875,1,32245,3276095
51,5,0.999468,-0.00161829,0.0325653,0.000698813,-0.634202,-0.0784455,9.78839,0.0725637,-0.561197,0.98474,-0.00634274,-0.00079418,0.0978837,1,4.88199e-05,-3.77001e-06,1.31912e-05,0.00976399,-0.000754001,0.00263824,0.999468,-0.00161829,0.0325653,0.000698813,0.0629202,0.523296,-0.985613,30.1875,1,32245,3276095
51,6,0.999468,-0.00161829,0.0325653,0.000698813,-0.634202,-0.0784455,9.78839,0.0725637,-0.561197,0.98474,-0.00634274,-0.00079418,0.0978837,1,4.88199e-05,-3.77001e-06,1.31912e-05,0.00976399,-0.000754001,0.00263824,0.999468,-0.00161829,0.0325653,0.000698813,0.0629202,0.523296,-0.985613,30.1875,1,32245,3276095
52,1,0.999468,-0.00159063,0.0325648,0.000716362,-0.639057,-0.0779984,9.7857,0.0634195,-0.565524,0.983124,-0.00639056,-0.000786647,0.097857,1,3.29707e-05,-1.06038e-07,1.64565e-05,0.00659414,-2.12077e-05,0.00329129,0.999468,-0.00159063,0.0325648,0.000716362,0.062488,0.521819,-0.984634,30.1875,1,32246,3276195
52,2,0.999468,-0.00159063,0.0325648,0.000716362,-0.639057,-0.0779984,9.7857,0.0634195,-0.565524,0.983124,-0.00639056,-0.000786647,0.097857,1,3.29707e-05,-1.06038e-07,1.64565e-05,0.00659414,-2.12077e-05,0.00329129,0.999468,-0.00159063,0.0325648,0.000716362,0.062488,0.521819,-0.984634,30.1875,1,32246,3276195
52,3,0.999468,-0.00159063,0.0325648,0.000716362,-0.639057,-0.0779984,9.7857,0.0634195,-0.565524,0.983124,-0.00639056,-0.000786647,0.097857,1,3.29707e-05,-1.06038e-07,1.64565e-05,0.00659414,-2.12077e-05,0.00329129,0.999468,-0.00159063,0.0325648,0.000716362,0.062488,0.521819,-0.984634,30.1875,1,32246,3276195
52,4,0.999469,-0.00154352,0.0325529,0.000726749,-0.642529,-0.0803047,9.80132,0.0612204,-0.568441,0.997306,-0.00642743,-0.000813183,0.098013,1,5.10366e-05,-1.09949e-05,1.01942e-05,0.0102073,-0.00219898,0.00203883,0.999469,-0.00154352,0.0325529,0.000726749,0.0644372,0.521785,-0.983634,30.1875,1,32247,3276295
52,5,0.999469,-0.00154352,0.0325529,0.000726749,-0.642529,-0.0803047,9.80132,0.0612204,-0.568441,0.997306,-0.00642743,-0.000813183,0.098013,1,5.10366e-05,-1.09949e-05,1.01942e-05,0.0102073,-0.00219898,0.00203883,0.999469,-0.00154352,0.0325529,0.000726749,0.0644372,0.521785,-0.983634,30.1875,1,32247,3276295
52,6,0.999469,-0.00154352,0.0325529,0.000726749,-0.642529,-0.0803047,9.80132,0.0612204,-0.568441,0.997306,-0.00642743,-0.000813183,0.098013,1,5.10366e-05,-1.09949e-05,1.01942e-05,0.0102073,-0.00219898,0.00203883,0.999469,-0.00154352,0.0325529,0.000726749,0.0644372,0.521785,-0.983634,30.1875,1,32247,3276295
53,1,0.999469,-0.00151843,0.0325448,0.000733163,-0.645324,-0.0791175,9.79355,0.064284,-0.562391,0.988852,-0.00645488,-0.000797009,0.0979353,1,2.92045e-05,-8.47854e-06,8.80465e-06,0.0058409,-0.00169571,0.00176093,0.999469,-0.00151843,0.0325448,0.000733163,0.0638991,0.523758,-0.984597,30.1875,1,32248,3276395
53,2,0.999469,-0.00151843,0.0325448,0.000733163,-0.645324,-0.0791175,9.79355,0.064284,-0.562391,0.988852,-0.00645488,-0.000797009,0.0979353,1,2.92045e-05,-8.47854e-06,8.80465e-06,0.0058409,-0.00169571,0.00176093,0.999469,-0.00151843,0.0325448,0.000733163,0.0638991,0.523758,-0.984597,30.1875,1,32248,3276395
53,3,0.999469,-0.00151843,0.0325448,0.000733163,-0.645324,-0.0791175,9.79355,0.064284,-0.562391,0.988852,-0.00645488,-0.000797009,0.0979353,1,2.92045e-05,-8.47854e-06,8.80465e-06,0.0058409,-0.00169571,0.00176093,0.999469,-0.00151843,0.0325448,0.000733163,0.0638991,0.523758,-0.984597,30.1875,1,32248,3276395
53,4,0.999469,-0.00148404,0.0325404,0.000757064,-0.642697,-0.0840649,9.78534,0.062428,-0.575036,0.982229,-0.00642758,-0.00084882,0.0978533,1,4.01046e-05,-3.32331e-06,2.50674e-05,0.00802093,-0.000664662,0.00501349,0.999469,-0.00148404,0.0325404,0.000757064,0.0647878,0.525249,-0.986589,30.1875,1,32249,3276495
53,5,0.999469,-0.00148404,0.0325404,0.000757064,-0.642697,-0.0840649,9.78534,0.062428,-0.575036,0.982229,-0.00642758,-0.00084882,0.0978533,1,4.01046e-05,-3.32331e-06,2.50674e-05,0.00802093,-0.000664662,0.00501349,0.999469,-0.00148404,0.0325404,0.000757064,0.0647878,0.525249,-0.986589,30.1875,1,32249,3276495
53,6,0.999469,-0.00148404,0.0325404,0.000757064,-0.642697,-0.0840649,9.78534,0.062428,-0.575036,0.982229,-0.00642758,-0.00084882,0.0978533,1,4.01046e-05,-3.32331e-06,2.50674e-05,0.00802093,-0.000664662,0.00501349,0.999469,-0.00148404,0.0325404,0.000757064,0.0647878,0.525249,-0.986589,30.1875,1,32249,3276495
54,1,0.999469,-0.00146308,0.0325369,0.000767103,-0.642249,-0.0888799,9.78903,0.0639661,-0.577153,0.984024,-0.00642335,-0.000895275,0.0978902,1,3.18625e-05,-4.56332e-06,1.85426e-05,0.00637249,-0.000912665,0.00370852,0.999469,-0.00146308,0.0325369,0.000767103,0.0652727,0.524279,-0.987117,30.1875,1,32250,3276595
54,2,0.999469,-0.00146308,0.0325369,0.000767103,-0.642249,-0.0888799,9.78903,0.0639661,-0.577153,0.984024,-0.00642335,-0.000895275,0.0978902,1,3.18625e-05,-4.56332e-06,1.85426e-05,0.00637249,-0.000912665,0.00370852,0.999469,-0.00146308,0.0325369,0.000767103,0.0652727,0.524279,-0.987117,30.1875,1,32250,3276595
54,3,0.999469,-0.00146308,0.0325369,0.000767103,-0.642249,-0.0888799,9.78903,0.0639661,-0.577153,0.984024,-0.00642335,-0.000895275,0.0978902,1,3.18625e-05,-4.56332e-06,1.85426e-05,0.00637249,-0.000912665,0.00370852,0.999469,-0.00146308,0.0325369,0.000767103,0.0652727,0.524279,-0.987117,30.1875,1,32250,3276595
54,4,0.99947,-0.00141928,0.0325217,0.000777868,-0.644526,-0.0871042,9.79144,0.0615473,-0.576358,0.987258,-0.00644804,-0.00088203,0.0979141,1,5.47524e-05,-1.44062e-05,2.06192e-05,0.0109505,-0.00288124,0.00412383,0.99947,-0.00141928,0.0325217,0.000777868,0.0638455,0.523315,-0.987132,30.1875,1,32251,3276695
54,5,0.99947,-0.00141928,0.0325217,0.000777868,-0.644526,-0.0871042,9.79144,0.0615473,-0.576358,0.987258,-0.00644804,-0.00088203,0.0979141,1,5.47524e-05,-1.44062e-05,2.06192e-05,0.0109505,-0.00288124,0.00412383,0.99947,-0.00141928,0.0325217,0.000777868,0.0638455,0.523315,-0.987132,30.1875,1,32251,3276695
54,6,0.99947,-0.00141928,0.0325217,0.000777868,-0.644526,-0.0871042,9.79144,0.0615473,-0.576358,0.987258,-0.00644804,-0.00088203,0.0979141,1,5.47524e-05,-1.44062e-05,2.06192e-05,0.0109505,-0.00288124,0.00412383,0.99947,-0.00141928,0.0325217,0.000777868,0.0638455,0.523315,-0.987132,30.1875,1,32251,3276695
55,1,0.99947,-0.00138779,0.0325233,0.000778576,-0.638285,-0.0914976,9.78456,0.0653028,-0.580825,0.98064,-0.00638241,-0.000923315,0.0978456,1,4.24199e-05,2.19607e-06,2.96346e-06,0.00848398,0.000439213,0.000592692,0.99947,-0.00138779,0.0325233,0.000778576,0.0624676,0.522316,-0.985128,30.1875,1,32252,3276795
55,2,0.99947,-0.00138779,0.0325233,0.000778576,-0.638285,-0.0914976,9.78456,0.0653028,-0.580825,0.98064,-0.00638241,-0.000923315,0.0978456,1,4.24199e-05,2.19607e-06,2.96346e-06,0.00848398,0.000439213,0.000592692,0.99947,-0.00138779,0.0325233,0.000778576,0.0624676,0.522316,-0.985128,30.1875,1,32252,3276795
55,3,0.99947,-0.00138779,0.0325233,0.000778576,-0.638285,-0.0914976,9.78456,0.0653028,-0.580825,0.98064,-0.00638241,-0.000923315,0.0978456,1,4.24199e-05,2.19607e-06,2.96346e-06,0.00848398,0.000439213,0.000592692,0.99947,-0.00138779,0.0325233,0.000778576,0.0624676,0.522316,-0.985128,30.1875,1,32252,3276795
55,4,0.99947,-0.00134478,0.0325115,0.000802869,-0.641845,-0.083703,9.79111,0.0632299,-0.577086,0.989604,-0.0064207,-0.000846364,0.0979109,1,4.67822e-05,-1.16063e-05,1.34629e-05,0.00935644,-0.00232126,0.00269259,0.99947,-0.00134478,0.0325115,0.000802869,0.0630023,0.522754,-0.982595,30.1875,1,32253,3276895
55,5,0.99947,-0.00134478,0.0325115,0.000802869,-0.641845,-0.083703,9.79111,0.0632299,-0.577086,0.989604,-0.0064207,-0.000846364,0.0979109,1,4.67822e-05,-1.16063e-05,1.34629e-05,0.00935644,-0.00232126,0.00269259,0.99947,-0.00134478,0.0325115,0.000802869,0.0630023,0.522754,-0.982595,30.1875,1,32253,3276895
55,6,0.99947,-0.00134478,0.0325115,0.000802869,-0.641845,-0.083703,9.79111,0.0632299,-0.577086,0.989604,-0.0064207,-0.000846364,0.0979109,1,4.67822e-05,-1.16063e-05,1.34629e-05,0.00935644,-0.00232126,0.00269259,0.99947,-0.00134478,0.0325115,0.000802869,0.0630023,0.522754,-0.982595,30.1875,1,32253,3276895
56,1,0.99947,-0.00131198,0.0325016,0.000812403,-0.637475,-0.0841802,9.79481,0.0683095,-0.575755,0.994781,-0.00637654,-0.000848171,0.0979479,1,3.23132e-05,-9.16779e-06,3.08264e-06,0.00646265,-0.00183356,0.000616529,0.99947,-0.00131198,0.0325016,0.000812403,0.0658117,0.525196,-0.984069,30.1875,1,32254,3276995
56,2,0.99947,-0.00131198,0.0325016,0.000812403,-0.637475,-0.0841802,9.79481,0.0683095,-0.575755,0.994781,-0.00637654,-0.000848171,0.0979479,1,3.23132e-05,-9.16779e-06,3.08264e-06,0.00646265,-0.00183356,0.000616529,0.99947,-0.00131198,0.0325016,0.000812403,0.0658117,0.525196,-0.984069,30.1875,1,32254,3276995
56,3,0.99947,-0.00131198,0.0325016,0.000812403,-0.637475,-0.0841802,9.79481,0.0683095,-0.575755,0.994781,-0.00637654,-0.000848171,0.0979479,1,3.23132e-05,-9.16779e-06,3.08264e-06,0.00646265,-0.00183356,0.000616529,0.99947,-0.00131198,0.0325016,0.000812403,0.0658117,0.525196,-0.984069,30.1875,1,32254,3276995
56,4,0.999471,-0.00127914,0.0324914,0.000799046,-0.654523,-0.0784483,9.79972,0.0466605,-0.57404,0.99963,-0.00654757,-0.000792528,0.097997,1,4.0695e-05,-1.20066e-05,5.32179e-06,0.00813901,-0.00240133,0.00106436,0.999471,-0.00127914,0.0324914,0.000799046,0.0662558,0.525219,-0.985586,30.1875,1,32255,3277095
56,5,0.999471,-0.00127914,0.0324914,0.000799046,-0.654523,-0.0784483,9.79972,0.0466605,-0.57404,0.99963,-0.00654757,-0.000792528,0.097997,1,4.0695e-05,-1.20066e-05,5.32179e-06,0.00813901,-0.00240133,0.00106436,0.999471,-0.00127914,0.0324914,0.000799046,0.0662558,0.525219,-0.985586,30.1875,1,32255,3277095
56,6,0.999471,-0.00127914,0.0324914,0.000799046,-0.654523,-0.0784483,9.79972,0.0466605,-0.57404,0.99963,-0.00654757,-0.000792528,0.097997,1,4.0695e-05,-1.20066e-05,5.32179e-06,0.00813901,-0.00240133,0.00106436,0.999471,-0.00127914,0.0324914,0.000799046,0.0662558,0.525219,-0.985586,30.1875,1,32255,3277095
57,1,0.999471,-0.00123508,0.0324886,0.000795347,-0.647063,-0.0843364,9.78842,0.0536109,-0.580799,0.985959,-0.00647158,-0.000854761,0.0978841,1,5.69318e-05,-5.03306e-06,1.94459e-05,0.0113864,-0.00100661,0.00388918,0.999471,-0.00123508,0.0324886,0.000795347,0.0633444,0.525261,-0.986582,30.1875,1,32256,3277195
57,2,0.999471,-0.00123508,0.0324886,0.000795347,-0.647063,-0.0843364,9.78842,0.0536109,-0.580799,0.985959,-0.00647158,-0.000854761,0.0978841,1,5.69318e-05,-5.03306e-06,1.94459e-05,0.0113864,-0.00100661,0.00388918,0.999471,-0.00123508,0.0324886,0.000795347,0.0633444,0.525261,-0.986582,30.1875,1,32256,3277195
57,3,0.999471,-0.00123508,0.0324886,0.000795347,-0.647063,-0.0843364,9.78842,0.0536109,-0.580799,0.985959,-0.00647158,-0.000854761,0.0978841,1,5.69318e-05,-5.03306e-06,1.94459e-05,0.0113864,-0.00100661,0.00388918,0.999471,-0.00123508,0.0324886,0.000795347,0.0633444,0.525261,-0.986582,30.1875,1,32256,3277195
57,4,0.999472,-0.00120075,0.0324678,0.000804819,-0.653371,-0.0793906,9.79293,0.0494174,-0.572318,0.990473,-0.00653741,-0.000803354,0.097929,1,4.71196e-05,-1.90341e-05,1.67691e-05,0.00942391,-0.00380683,0.00335382,0.999472,-0.00120075,0.0324678,0.000804819,0.0643513,0.523293,-0.986125,30.1875,1,32257,3277295
57,5,0.999472,-0.00120075,0.0324678,0.000804819,-0.653371,-0.0793906,9.79293,0.0494174,-0.572318,0.990473,-0.00653741,-0.000803354,0.097929,1,4.71196e-05,-1.90341e-05,1.67691e-05,0.00942391,-0.00380683,0.00335382,0.999472,-0.00120075,0.0324678,0.000804819,0.0643513,0.523293,-0.986125,30.1875,1,32257,3277295
57,6,0.999472,-0.00120075,0.0324678,0.000804819,-0.653371,-0.0793906,9.79293,0.0494174,-0.572318,0.990473,-0.00653741,-0.000803354,0.097929,1,4.71196e-05,-1.90341e-05,1.67691e-05,0.00942391,-0.00380683,0.00335382,0.999472,-0.00120075,0.0324678,0.000804819,0.0643513,0.523293,-0.986125,30.1875,1,32257,3277295
58,1,0.999472,-0.00117262,0.0324652,0.000816783,-0.645308,-0.09168,9.79649,0.0567485,-0.590689,0.992518,-0.00645341,-0.000924652,0.0979648,1,3.89702e-05,-1.83278e-06,1.67583e-05,0.00779405,-0.000366556,0.00335165,0.999472,-0.00117262,0.0324652,0.000816783,0.0639276,0.522773,-0.984114,30.1875,1,32258,3277395
58,2,0.999472,-0.00117262,0.0324652,0.000816783,-0.645308,-0.09168,9.79649,0.0567485,-0.590689,0.992518,-0.00645341,-0.000924652,0.0979648,1,3.89702e-05,-1.83278e-06,1.67583e-05,0.00779405,-0.000366556,0.00335165,0.999472,-0.00117262,0.0324652,0.000816783,0.0639276,0.522773,-0.984114,30.1875,1,32258,3277395
58,3,0.999472,-0.00117262,0.0324652,0.000816783,-0.645308,-0.09168,9.79649,0.0567485,-0.590689,0.992518,-0.00645341,-0.000924652,0.0979648,1,3.89702e-05,-1.83278e-06,1.67583e-05,0.00779405,-0.000366556,0.00335165,0.999472,-0.00117262,0.0324652,0.000816783,0.0639276,0.522773,-0.984114,30.1875,1,32258,3277395
58,4,0.999472,-0.00114194,0.0324572,0.000830645,-0.636523,-0.078198,9.78467,0.0669504,-0.573001,0.979359,-0.00636713,-0.000788831,0.0978466,1,3.41052e-05,-9.83084e-06,1.39194e-05,0.00682103,-0.00196617,0.00278388,0.999472,-0.00114194,0.0324572,0.000830645,0.0648941,0.523244,-0.983603,30.1875,1,32259,3277495
58,5,0.999472,-0.00114194,0.0324572,0.000830645,-0.636523,-0.078198,9.78467,0.0669504,-0.573001,0.979359,-0.00636713,-0.000788831,0.0978466,1,3.41052e-05,-9.83084e-06,1.39194e-05,0.00682103,-0.00196617,0.00278388,0.999472,-0.00114194,0.0324572,0.000830645,0.0648941,0.523244,-0.983603,30.1875,1,32259,3277495
58,6,0.999472,-0.00114194,0.0324572,0.000830645,-0.636523,-0.078198,9.78467,0.0669504,-0.573001,0.979359,-0.00636713,-0.000788831,0.0978466,1,3.41052e-05,-9.83084e-06,1.39194e-05,0.00682103,-0.00196617,0.00278388,0.999472,-0.00114194,0.0324572,0.000830645,0.0648941,0.523244,-0.983603,30.1875,1,32259,3277495
59,1,0.999473,-0.00110294,0.0324482,0.000842159,-0.647073,-0.0748561,9.78885,0.0543168,-0.570833,0.98587,-0.00647284,-0.000757215,0.0978883,1,4.26994e-05,-1.09446e-05,2.2793e-05,0.00853989,-0.00218891,0.0045586,0.999473,-0.00110294,0.0324482,0.000842159,0.0658155,0.52423,-0.984596,30.1875,1,32260,3277595
59,2,0.999473,-0.00110294,0.0324482,0.000842159,-0.647073,-0.0748561,9.78885,0.0543168,-0.570833,0.98587,-0.00647284,-0.000757215,0.0978883,1,4.26994e-05,-1.09446e-05,2.2793e-05,0.00853989,-0.00218891,0.0045586,0.999473,-0.00110294,0.0324482,0.000842159,0.0658155,0.52423,-0.984596,30.1875,1,32260,3277595
59,3,0.999473,-0.00110294,0.0324482,0.000842159,-0.647073,-0.0748561,9.78885,0.0543168,-0.570833,0.98587,-0.00647284,-0.000757215,0.0978883,1,4.26994e-05,-1.09446e-05,2.2793e-05,0.00853989,-0.00218891,0.0045586,0.999473,-0.00110294,0.0324482,0.000842159,0.0658155,0.52423,-0.984596,30.1875,1,32260,3277595
59,4,0.999473,-0.00106745,0.0324387,0.00083648,-0.639909,-0.0839618,9.7877,0.0649672,-0.584469,0.983559,-0.00640086,-0.000848833,0.0978768,1,4.60949e-05,-9.19039e-06,1.5039e-05,0.00921897,-0.00183808,0.0030078,0.999473,-0.00106745,0.0324387,0.00083648,0.0662596,0.524253,-0.986112,30.1875,1,32261,3277695
59,5,0.999473,-0.00106745,0.0324387,0.00083648,-0.639909,-0.0839618,9.7877,0.0649672,-0.584469,0.983559,-0.00640086,-0.000848833,0.0978768,1,4.60949e-05,-9.19039e-06,1.5039e-05,0.00921897,-0.00183808,0.0030078,0.999473,-0.00106745,0.0324387,0.00083648,0.0662596,0.524253,-0.986112,30.1875,1,32261,3277695
59,6,0.999473,-0.00106745,0.0324387,0.00083648,-0.639909,-0.0839618,9.7877,0.0649672,-0.584469,0.983559,-0.00640086,-0.000848833,0.0978768,1,4.60949e-05,-9.19039e-06,1.5039e-05,0.00921897,-0.00183808,0.0030078,0.999473,-0.00106745,0.0324387,0.00083648,0.0662596,0.524253,-0.986112,30.1875,1,32261,3277695
60,1,0.999473,-0.00104153,0.0324312,0.000815909,-0.633818,-0.0808288,9.78328,0.0647618,-0.57418,0.978724,-0.00633956,-0.000816726,0.0978326,1,4.28893e-05,-7.078e-06,3.62263e-06,0.00857785,-0.0014156,0.000724526,0.999473,-0.00104153,0.0324312,0.000815909,0.0657415,0.524284,-0.987625,30.1875,1,32262,3277795
60,2,0.999473,-0.00104153,0.0324312,0.000815909,-0.633818,-0.0808288,9.78328,0.0647618,-0.57418,0.978724,-0.00633956,-0.000816726,0.0978326,1,4.28893e-05,-7.078e-06,3.62263e-06,0.00857785,-0.0014156,0.000724526,0.999473,-0.00104153,0.0324312,0.000815909,0.0657415,0.524284,-0.987625,30.1875,1,32262,3277795
60,3,0.999473,-0.00104153,0.0324312,0.000815909,-0.633818,-0.0808288,9.78328,0.0647618,-0.57418,0.978724,-0.00633956,-0.000816726,0.0978326,1,4.28893e-05,-7.078e-06,3.62263e-06,0.00857785,-0.0014156,0.000724526,0.999473,-0.00104153,0.0324312,0.000815909,0.0657415,0.524284,-0.987625,30.1875,1,32262,3277795
60,4,0.999474,-0.00103029,0.0324184,0.000802783,-0.642184,-0.0893283,9.79887,0.0621349,-0.589458,0.991299,-0.00642384,-0.000900209,0.0979885,1,3.43434e-05,-1.03359e-05,1.52328e-05,0.00686868,-0.00206717,0.00304656,0.999474,-0.00103029,0.0324184,0.000802783,0.0643593,0.522805,-0.986136,30.1875,1,32263,3277895
60,5,0.999474,-0.00103029,0.0324184,0.000802783,-0.642184,-0.0893283,9.79887,0.0621349,-0.589458,0.991299,-0.00642384,-0.000900209,0.0979885,1,3.43434e-05,-1.03359e-05,1.52328e-05,0.00686868,-0.00206717,0.00304656,0.999474,-0.00103029,0.0324184,0.000802783,0.0643593,0.522805,-0.986136,30.1875,1,32263,3277895
60,6,0.999474,-0.00103029,0.0324184,0.000802783,-0.642184,-0.0893283,9.79887,0.0621349,-0.589458,0.991299,-0.00642384,-0.000900209,0.0979885,1,3.43434e-05,-1.03359e-05,1.52328e-05,0.00686868,-0.00206717,0.00304656,0.999474,-0.00103029,0.0324184,0.000802783,0.0643593,0.522805,-0.986136,30.1875,1,32263,3277895
44,1,0.999474,-0.00100872,0.0324019,0.000819683,-0.644532,-0.0877041,9.79279,0.0525216,-0.590972,0.990213,-0.00644848,-0.000883761,0.0979277,1,3.31775e-05,-1.63113e-05,1.72312e-05,0.00663549,-0.00326225,0.00344624,0.999474,-0.00100872,0.0324019,0.000819683,0.062953,0.52279,-0.984614,30.1875,1,32264,3277995
44,2,0.999474,-0.00100872,0.0324019,0.000819683,-0.644532,-0.0877041,9.79279,0.0525216,-0.590972,0.990213,-0.00644848,-0.000883761,0.0979277,1,3.31775e-05,-1.63113e-05,1.72312e-05,0.00663549,-0.00326225,0.00344624,0.999474,-0.00100872,0.0324019,0.000819683,0.062953,0.52279,-0.984614,30.1875,1,32264,3277995
44,3,0.999474,-0.00100872,0.0324019,0.000819683,-0.644532,-0.0877041,9.79279,0.0525216,-0.590972,0.990213,-0.00644848,-0.000883761,0.0979277,1,3.31775e-05,-1.63113e-05,1.72312e-05,0.00663549,-0.00326225,0.00344624,0.999474,-0.00100872,0.0324019,0.000819683,0.062953,0.52279,-0.984614,30.1875,1,32264,3277995
44,4,0.999475,-0.000972495,0.0323799,0.000851125,-0.635309,-0.0850974,9.7836,0.0642257,-0.580516,0.979607,-0.0063575,-0.000858626,0.0978356,1,3.81025e-05,-2.27167e-05,1.54595e-05,0.00762049,-0.00454333,0.00309191,0.999475,-0.000972495,0.0323799,0.000851125,0.065359,0.524216,-0.983584,30.1875,1,32265,3278095
44,5,0.999475,-0.000972495,0.0323799,0.000851125,-0.635309,-0.0850974,9.7836,0.0642257,-0.580516,0.979607,-0.0063575,-0.000858626,0.0978356,1,3.81025e-05,-2.27167e-05,1.54595e-05,0.00762049,-0.00454333,0.00309191,0.999475,-0.000972495,0.0323799,0.000851125,0.065359,0.524216,-0.983584,30.1875,1,32265,3278095
44,6,0.999475,-0.000972495,0.0323799,0.000851125,-0.635309,-0.0850974,9.7836,0.0642257,-0.580516,0.979607,-0.0063575,-0.000858626,0.0978356,1,3.81025e-05,-2.27167e-05,1.54595e-05,0.00762049,-0.00454333,0.00309191,0.999475,-0.000972495,0.0323799,0.000851125,0.065359,0.524216,-0.983584,30.1875,1,32265,3278095
44,7,0.999475,-0.000948318,0.0323664,0.000843678,-0.640573,-0.0746233,9.79424,0.0638797,-0.57507,0.988944,-0.00640876,-0.000752562,0.0979421,1,3.12849e-05,-1.5585e-05,1.56108e-05,0.00625697,-0.00311701,0.00312217,0.999475,-0.000948318,0.0323664,0.000843678,0.0658359,0.523733,-0.984102,30.1875,1,32266,3278195
44,8,0.999475,-0.000948318,0.0323664,0.000843678,-0.640573,-0.0746233,9.79424,0.0638797,-0.57507,0.988944,-0.00640876,-0.000752562,0.0979421,1,3.12849e-05,-1.5585e-05,1.56108e-05,0.00625697,-0.00311701,0.00312217,0.999475,-0.000948318,0.0323664,0.000843678,0.0658359,0.523733,-0.984102,30.1875,1,32266,3278195
62,1,0.999475,-0.000948318,0.0323664,0.000843678,-0.640573,-0.0746233,9.79424,0.0638797,-0.57507,0.988944,-0.00640876,-0.000752562,0.0979421,1,3.12849e-05,-1.5585e-05,1.56108e-05,0.00625697,-0.00311701,0.00312217,0.999475,-0.000948318,0.0323664,0.000843678,0.0658359,0.523733,-0.984102,30.1875,1,32266,3278195
62,2,0.999476,-0.000910975,0.0323591,0.000840283,-0.638204,-0.0850622,9.79344,0.0615334,-0.586877,0.988655,-0.00638371,-0.000860133,0.0979342,1,4.69833e-05,-8.75079e-06,2.41848e-05,0.00939665,-0.00175016,0.00483695,0.999476,-0.000910975,0.0323591,0.000840283,0.065844,0.523245,-0.984113,30.1875,1,32267,3278295
62,3,0.999476,-0.000910975,0.0323591,0.000840283,-0.638204,-0.0850622,9.79344,0.0615334,-0.586877,0.988655,-0.00638371,-0.000860133,0.0979342,1,4.69833e-05,-8.75079e-06,2.41848e-05,0.00939665,-0.00175016,0.00483695,0.999476,-0.000910975,0.0323591,0.000840283,0.065844,0.523245,-0.984113,30.1875,1,32267,3278295
62,4,0.999476,-0.000910975,0.0323591,0.000840283,-0.638204,-0.0850622,9.79344,0.0615334,-0.586877,0.988655,-0.00638371,-0.000860133,0.0979342,1,4.69833e-05,-8.75079e-06,2.41848e-05,0.00939665,-0.00175016,0.00483695,0.999476,-0.000910975,0.0323591,0.000840283,0.065844,0.523245,-0.984113,30.1875,1,32267,3278295
62,5,0.999476,-0.000876606,0.0323468,0.000830121,-0.638748,-0.0908545,9.79714,0.0627437,-0.593802,0.994068,-0.00639043,-0.000917372,0.0979711,1,4.4167e-05,-1.51713e-05,1.35343e-05,0.0088334,-0.00303425,0.00270685,0.999476,-0.000876606,0.0323468,0.000830121,0.0648405,0.522801,-0.986138,30.1875,1,32268,3278395
62,6,0.999476,-0.000876606,0.0323468,0.000830121,-0.638748,-0.0908545,9.79714,0.0627437,-0.593802,0.994068,-0.00639043,-0.000917372,0.0979711,1,4.4167e-05,-1.51713e-05,1.35343e-05,0.0088334,-0.00303425,0.00270685,0.999476,-0.000876606,0.0323468,0.000830121,0.0648405,0.522801,-0.986138,30.1875,1,32268,3278395
63,1,0.999476,-0.000876606,0.0323468,0.000830121,-0.638748,-0.0908545,9.79714,0.0627437,-0.593802,0.994068,-0.00639043,-0.000917372,0.0979711,1,4.4167e-05,-1.51713e-05,1.35343e-05,0.0088334,-0.00303425,0.00270685,0.999476,-0.000876606,0.0323468,0.000830121,0.0648405,0.522801,-0.986138,30.1875,1,32268,3278395
63,2,0.999476,-0.000851742,0.0323448,0.000837098,-0.642416,-0.0812631,9.78604,0.0553603,-0.585882,0.977121,-0.00642452,-0.000820723,0.0978603,1,4.0546e-05,-1.96175e-06,1.21706e-05,0.0081092,-0.000392349,0.00243412,0.999476,-0.000851742,0.0323448,0.000837098,0.0629525,0.521345,-0.985657,30.1875,1,32269,3278495
63,3,0.999476,-0.000851742,0.0323448,0.000837098,-0.642416,-0.0812631,9.78604,0.0553603,-0.585882,0.977121,-0.00642452,-0.000820723,0.0978603,1,4.0546e-05,-1.96175e-06,1.21706e-05,0.0081092,-0.000392349,0.00243412,0.999476,-0.000851742,0.0323448,0.000837098,0.0629525,0.521345,-0.985657,30.1875,1,32269,3278495
63,4,0.999476,-0.000818953,0.0323421,0.000887118,-0.645971,-0.083533,9.80267,0.0559987,-0.586752,0.998942,-0.00646064,-0.000843086,0.0980266,1,3.83239e-05,-4.92315e-06,1.87587e-05,0.00766477,-0.000984629,0.00375174,0.999476,-0.000818953,0.0323421,0.000887118,0.062953,0.52279,-0.984614,30.1875,1,32270,3278595
63,5,0.999476,-0.000818953,0.0323421,0.000887118,-0.645971,-0.083533,9.80267,0.0559987,-0.586752,0.998942,-0.00646064,-0.000843086,0.0980266,1,3.83239e-05,-4.92315e-06,1.87587e-05,0.00766477,-0.000984629,0.00375174,0.999476,-0.000818953,0.0323421,0.000887118,0.062953,0.52279,-0.984614,30.1875,1,32270,3278595
63,6,0.999476,-0.000818953,0.0323421,0.000887118,-0.645971,-0.083533,9.80267,0.0559987,-0.586752,0.998942,-0.00646064,-0.000843086,0.0980266,1,3.83239e-05,-4.92315e-06,1.87587e-05,0.00766477,-0.000984629,0.00375174,0.999476,-0.000818953,0.0323421,0.000887118,0.062953,0.52279,-0.984614,30.1875,1,32270,3278595
64,1,0.999476,-0.000780752,0.0323349,0.000920987,-0.65277,-0.0903043,9.7918,0.0456558,-0.596506,0.989682,-0.00652912,-0.000911994,0.0979178,1,4.41e-05,-7.47482e-06,2.41268e-05,0.00882,-0.00149496,0.00482537,0.999476,-0.000780752,0.0323349,0.000920987,0.0643845,0.524233,-0.984084,30.1875,1,32271,3278695
64,2,0.999476,-0.000780752,0.0323349,0.000920987,-0.65277,-0.0903043,9.7918,0.0456558,-0.596506,0.989682,-0.00652912,-0.000911994,0.0979178,1,4.41e-05,-7.47482e-06,2.41268e-05,0.00882,-0.00149496,0.00482537,0.999476,-0.000780752,0.0323349,0.000920987,0.0643845,0.524233,-0.984084,30.1875,1,32271,3278695
64,3,0.999476,-0.000780752,0.0323349,0.000920987,-0.65277,-0.0903043,9.7918,0.0456558,-0.596506,0.989682,-0.00652912,-0.000911994,0.0979178,1,4.41e-05,-7.47482e-06,2.41268e-05,0.00882,-0.00149496,0.00482537,0.999476,-0.000780752,0.0323349,0.000920987,0.0643845,0.524233,-0.984084,30.1875,1,32271,3278695
64,4,0.999477,-0.000753023,0.0323279,0.000925398,-0.640714,-0.0778576,9.78809,0.0607159,-0.58397,0.984235,-0.0064084,-0.000786382,0.0978808,1,3.87076e-05,-6.59917e-06,1.78649e-05,0.00774151,-0.00131983,0.00357297,0.999477,-0.000753023,0.0323279,0.000925398,0.0653059,0.525218,-0.985076,30.1875,1,32272,3278795
64,5,0.999477,-0.000753023,0.0323279,0.000925398,-0.640714,-0.0778576,9.78809,0.0607159,-0.58397,0.984235,-0.0064084,-0.000786382,0.0978808,1,3.87076e-05,-6.59917e-06,1.78649e-05,0.00774151,-0.00131983,0.00357297,0.999477,-0.000753023,0.0323279,0.000925398,0.0653059,0.525218,-0.985076,30.1875,1,32272,3278795
64,6,0.999477,-0.000753023,0.0323279,0.000925398,-0.640714,-0.0778576,9.78809,0.0607159,-0.58397,0.984235,-0.0064084,-0.000786382,0.0978808,1,3.87076e-05,-6.59917e-06,1.78649e-05,0.00774151,-0.00131983,0.00357297,0.999477,-0.000753023,0.0323279,0.000925398,0.0653059,0.525218,-0.985076,30.1875,1,32272,3278795
65,1,0.999477,-0.000711153,0.0323048,0.000923167,-0.629417,-0.0941006,9.79773,0.0711924,-0.59846,0.991127,-0.00629857,-0.00095328,0.0979769,1,6.10259e-05,-2.26907e-05,2.51158e-05,0.0122052,-0.00453814,0.00502316,0.999477,-0.000711153,0.0323048,0.000923167,0.0652808,0.523791,-0.987128,30.1875,1,32273,3278895
65,2,0.999477,-0.000711153,0.0323048,0.000923167,-0.629417,-0.0941006,9.79773,0.0711924,-0.59846,0.991127,-0.00629857,-0.00095328,0.0979769,1,6.10259e-05,-2.26907e-05,2.51158e-05,0.0122052,-0.00453814,0.00502316,0.999477,-0.000711153,0.0323048,0.000923167,0.0652808,0.523791,-0.987128,30.1875,1,32273,3278895
65,3,0.999477,-0.000711153,0.0323048,0.000923167,-0.629417,-0.0941006,9.79773,0.0711924,-0.59846,0.991127,-0.00629857,-0.00095328,0.0979769,1,6.10259e-05,-2.26907e-05,2.51158e-05,0.0122052,-0.00453814,0.00502316,0.999477,-0.000711153,0.0323048,0.000923167,0.0652808,0.523791,-0.987128,30.1875,1,32273,3278895
65,4,0.999478,-0.000700375,0.0322935,0.000926912,-0.639826,-0.087156,9.78903,0.0569505,-0.596565,0.98009,-0.00640011,-0.000879045,0.0978901,1,3.62491e-05,-9.73776e-06,3.03424e-05,0.00724983,-0.00194755,0.00606847,0.999478,-0.000700375,0.0322935,0.000926912,0.0628994,0.522348,-0.987149,30.1875,1,32274,3278995
65,5,0.999478,-0.000700375,0.0322935,0.000926912,-0.639826,-0.087156,9.78903,0.0569505,-0.596565,0.98009,-0.00640011,-0.000879045,0.0978901,1,3.62491e-05,-9.73776e-06,3.03424e-05,0.00724983,-0.00194755,0.00606847,0.999478,-0.000700375,0.0322935,0.000926912,0.0628994,0.522348,-0.987149,30.1875,1,32274,3278995
65,6,0.999478,-0.000700375,0.0322935,0.000926912,-0.639826,-0.087156,9.78903,0.0569505,-0.596565,0.98009,-0.00640011,-0.000879045,0.0978901,1,3.62491e-05,-9.73776e-06,3.03424e-05,0.00724983,-0.00194755,0.00606847,0.999478,-0.000700375,0.0322935,0.000926912,0.0628994,0.522348,-0.987149,30.1875,1,32274,3278995
66,1,0.999478,-0.000693661,0.0322833,0.00095416,-0.639187,-0.0784805,9.80064,0.0612944,-0.583882,0.996498,-0.00639331,-0.000789638,0.0980062,1,2.42572e-05,-7.38734e-06,6.13367e-06,0.00485144,-0.00147747,0.00122673,0.999478,-0.000693661,0.0322833,0.00095416,0.0634417,0.520853,-0.98567,30.1875,1,32275,3279095
66,2,0.999478,-0.000693661,0.0322833,0.00095416,-0.639187,-0.0784805,9.80064,0.0612944,-0.583882,0.996498,-0.00639331,-0.000789638,0.0980062,1,2.42572e-05,-7.38734e-06,6.13367e-06,0.00485144,-0.00147747,0.00122673,0.999478,-0.000693661,0.0322833,0.00095416,0.0634417,0.520853,-0.98567,30.1875,1,32275,3279095
66,3,0.999478,-0.000693661,0.0322833,0.00095416,-0.639187,-0.0784805,9.80064,0.0612944,-0.583882,0.996498,-0.00639331,-0.000789638,0.0980062,1,2.42572e-05,-7.38734e-06,6.13367e-06,0.00485144,-0.00147747,0.00122673,0.999478,-0.000693661,0.0322833,0.00095416,0.0634417,0.520853,-0.98567,30.1875,1,32275,3279095
66,4,0.999478,-0.000662959,0.0322705,0.000982006,-0.641309,-0.0765077,9.78947,0.0537766,-0.581342,0.983062,-0.00641588,-0.000772549,0.0978945,1,3.76925e-05,-1.43013e-05,7.19557e-06,0.0075385,-0.00286027,0.00143911,0.999478,-0.000662959,0.0322705,0.000982006,0.0634464,0.522777,-0.984112,30.1875,1,32276,3279195
66,5,0.999478,-0.000662959,0.0322705,0.000982006,-0.641309,-0.0765077,9.78947,0.0537766,-0.581342,0.983062,-0.00641588,-0.000772549,0.0978945,1,3.76925e-05,-1.43013e-05,7.19557e-06,0.0075385,-0.00286027,0.00143911,0.999478,-0.000662959,0.0322705,0.000982006,0.0634464,0.522777,-0.984112,30.1875,1,32276,3279195
66,6,0.999478,-0.000662959,0.0322705,0.000982006,-0.641309,-0.0765077,9.78947,0.0537766,-0.581342,0.983062,-0.00641588,-0.000772549,0.0978945,1,3.76925e-05,-1.43013e-05,7.19557e-06,0.0075385,-0.00286027,0.00143911,0.999478,-0.000662959,0.0322705,0.000982006,0.0634464,0.522777,-0.984112,30.1875,1,32276,3279195
67,1,0.999479,-0.000618271,0.0322538,0.000990203,-0.644979,-0.0815059,9.78742,0.0533452,-0.59402,0.981701,-0.00645321,-0.000825065,0.0978739,1,5.07739e-05,-1.7503e-05,5.16909e-06,0.0101548,-0.00350061,0.00103382,0.999479,-0.000618271,0.0322538,0.000990203,0.0644129,0.523248,-0.983601,30.1875,1,32277,3279295
67,2,0.999479,-0.000618271,0.0322538,0.000990203,-0.644979,-0.0815059,9.78742,0.0533452,-0.59402,0.981701,-0.00645321,-0.000825065,0.0978739,1,5.07739e-05,-1.7503e-05,5.16909e-06,0.0101548,-0.00350061,0.00103382,0.999479,-0.000618271,0.0322538,0.000990203,0.0644129,0.523248,-0.983601,30.1875,1,32277,3279295
67,3,0.999479,-0.000618271,0.0322538,0.000990203,-0.644979,-0.0815059,9.78742,0.0533452,-0.59402,0.981701,-0.00645321,-0.000825065,0.0978739,1,5.07739e-05,-1.7503e-05,5.16909e-06,0.0101548,-0.00350061,0.00103382,0.999479,-0.000618271,0.0322538,0.000990203,0.0644129,0.523248,-0.983601,30.1875,1,32277,3279295
67,4,0.999479,-0.000581925,0.0322441,0.000991516,-0.638595,-0.0723373,9.78779,0.0587771,-0.585089,0.985683,-0.00638824,-0.000731827,0.0978777,1,4.2349e-05,-1.17982e-05,1.28206e-05,0.00846981,-0.00235964,0.00256412,0.999479,-0.000581925,0.0322441,0.000991516,0.0643432,0.523781,-0.986114,30.1875,1,32278,3279395
67,5,0.999479,-0.000581925,0.0322441,0.000991516,-0.638595,-0.0723373,9.78779,0.0587771,-0.585089,0.985683,-0.00638824,-0.000731827,0.0978777,1,4.2349e-05,-1.17982e-05,1.28206e-05,0.00846981,-0.00235964,0.00256412,0.999479,-0.000581925,0.0322441,0.000991516,0.0643432,0.523781,-0.986114,30.1875,1,32278,3279395
67,6,0.999479,-0.000581925,0.0322441,0.000991516,-0.638595,-0.0723373,9.78779,0.0587771,-0.585089,0.985683,-0.00638824,-0.000731827,0.0978777,1,4.2349e-05,-1.17982e-05,1.28206e-05,0.00846981,-0.00235964,0.00256412,0.999479,-0.000581925,0.0322441,0.000991516,0.0643432,0.523781,-0.986114,30.1875,1,32278,3279395
68,1,0.99948,-0.000558569,0.0322325,0.000984213,-0.639105,-0.088492,9.79444,0.058282,-0.601281,0.987138,-0.00639334,-0.000893824,0.0979442,1,4.51227e-05,-1.17381e-05,5.07001e-06,0.00902453,-0.00234762,0.001014,0.99948,-0.000558569,0.0322325,0.000984213,0.0643475,0.52426,-0.985598,30.1875,1,32279,3279495
68,2,0.99948,-0.000558569,0.0322325,0.000984213,-0.639105,-0.088492,9.79444,0.058282,-0.601281,0.987138,-0.00639334,-0.000893824,0.0979442,1,4.51227e-05,-1.17381e-05,5.07001e-06,0.00902453,-0.00234762,0.001014,0.99948,-0.000558569,0.0322325,0.000984213,0.0643475,0.52426,-0.985598,30.1875,1,32279,3279495
68,3,0.99948,-0.000558569,0.0322325,0.000984213,-0.639105,-0.088492,9.79444,0.058282,-0.601281,0.987138,-0.00639334,-0.000893824,0.0979442,1,4.51227e-05,-1.17381e-05,5.07001e-06,0.00902453,-0.00234762,0.001014,0.99948,-0.000558569,0.0322325,0.000984213,0.0643475,0.52426,-0.985598,30.1875,1,32279,3279495
68,4,0.99948,-0.000545784,0.0322242,0.000966661,-0.642578,-0.0776909,9.79388,0.0537138,-0.585671,0.987091,-0.00642741,-0.000783745,0.0979387,1,3.47868e-05,-8.3317e-06,1.69097e-06,0.00695736,-0.00166634,0.000338193,0.99948,-0.000545784,0.0322242,0.000966661,0.0648367,0.523768,-0.985612,30.1875,1,32280,3279595
68,5,0.99948,-0.000545784,0.0322242,0.000966661,-0.642578,-0.0776909,9.79388,0.0537138,-0.585671,0.987091,-0.00642741,-0.000783745,0.0979387,1,3.47868e-05,-8.3317e-06,1.69097e-06,0.00695736,-0.00166634,0.000338193,0.99948,-0.000545784,0.0322242,0.000966661,0.0648367,0.523768,-0.985612,30.1875,1,32280,3279595
68,6,0.99948,-0.000545784,0.0322242,0.000966661,-0.642578,-0.0776909,9.79388,0.0537138,-0.585671,0.987091,-0.00642741,-0.000783745,0.0979387,1,3.47868e-05,-8.3317e-06,1.69097e-06,0.00695736,-0.00166634,0.000338193,0.99948,-0.000545784,0.0322242,0.000966661,0.0648367,0.523768,-0.985612,30.1875,1,32280,3279595
69,1,0.99948,-0.000515295,0.0322138,0.000953403,-0.643273,-0.0735211,9.79698,0.0527552,-0.583783,0.995379,-0.00643485,-0.000745348,0.0979696,1,5.09732e-05,-1.09135e-05,1.15817e-05,0.0101946,-0.0021827,0.00231634,0.99948,-0.000515295,0.0322138,0.000953403,0.0634175,0.522317,-0.985637,30.1875,1,32281,3279695
69,2,0.99948,-0.000515295,0.0322138,0.000953403,-0.643273,-0.0735211,9.79698,0.0527552,-0.583783,0.995379,-0.00643485,-0.000745348,0.0979696,1,5.09732e-05,-1.09135e-05,1.15817e-05,0.0101946,-0.0021827,0.00231634,0.99948,-0.000515295,0.0322138,0.000953403,0.0634175,0.522317,-0.985637,30.1875,1,32281,3279695
69,3,0.99948,-0.000515295,0.0322138,0.000953403,-0.643273,-0.0735211,9.79698,0.0527552,-0.583783,0.995379,-0.00643485,-0.000745348,0.0979696,1,5.09732e-05,-1.09135e-05,1.15817e-05,0.0101946,-0.0021827,0.00231634,0.99948,-0.000515295,0.0322138,0.000953403,0.0634175,0.522317,-0.985637,30.1875,1,32281,3279695
69,4,0.999481,-0.000488226,0.0321999,0.000973431,-0.627853,-0.0825939,9.79239,0.0683227,-0.591741,0.985592,-0.00628134,-0.000833955,0.0979236,1,4.02928e-05,-1.44616e-05,9.9592e-06,0.00805855,-0.00289232,0.00199184,0.999481,-0.000488226,0.0321999,0.000973431,0.0625212,0.522758,-0.982593,30.1875,1,32282,3279795
69,5,0.999481,-0.000488226,0.0321999,0.000973431,-0.627853,-0.0825939,9.79239,0.0683227,-0.591741,0.985592,-0.00628134,-0.000833955,0.0979236,1,4.02928e-05,-1.44616e-05,9.9592e-06,0.00805855,-0.00289232,0.00199184,0.999481,-0.000488226,0.0321999,0.000973431,0.0625212,0.522758,-0.982593,30.1875,1,32282,3279795
69,6,0.999481,-0.000488226,0.0321999,0.000973431,-0.627853,-0.0825939,9.79239,0.0683227,-0.591741,0.985592,-0.00628134,-0.000833955,0.0979236,1,4.02928e-05,-1.44616e-05,9.9592e-06,0.00805855,-0.00289232,0.00199184,0.999481,-0.000488226,0.0321999,0.000973431,0.0625212,0.522758,-0.982593,30.1875,1,32282,3279795
70,1,0.999481,-0.000436757,0.0321849,0.00100962,-0.639117,-0.0819739,9.79314,0.061597,-0.594209,0.986759,-0.00639413,-0.000829188,0.0979312,1,4.71939e-05,-1.52757e-05,1.60595e-05,0.00943877,-0.00305514,0.0032119,0.999481,-0.000436757,0.0321849,0.00100962,0.0639978,0.523686,-0.980559,30.1875,1,32283,3279895
70,2,0.999481,-0.000436757,0.0321849,0.00100962,-0.639117,-0.0819739,9.79314,0.061597,-0.594209,0.986759,-0.00639413,-0.000829188,0.0979312,1,4.71939e-05,-1.52757e-05,1.60595e-05,0.00943877,-0.00305514,0.0032119,0.999481,-0.000436757,0.0321849,0.00100962,0.0639978,0.523686,-0.980559,30.1875,1,32283,3279895
70,3,0.999481,-0.000436757,0.0321849,0.00100962,-0.639117,-0.0819739,9.79314,0.061597,-0.594209,0.986759,-0.00639413,-0.000829188,0.0979312,1,4.71939e-05,-1.52757e-05,1.60595e-05,0.00943877,-0.00305514,0.0032119,0.999481,-0.000436757,0.0321849,0.00100962,0.0639978,0.523686,-0.980559,30.1875,1,32283,3279895
70,4,0.999482,-0.000394117,0.0321758,0.00101628,-0.640431,-0.0892417,9.79106,0.0503102,-0.601947,0.985567,-0.00640641,-0.000899987,0.0979104,1,3.76237e-05,-1.08555e-05,1.57856e-05,0.00752473,-0.00217109,0.00315712,0.999482,-0.000394117,0.0321758,0.00101628,0.0643887,0.524711,-0.983568,30.1875,1,32284,3279995
70,5,0.999482,-0.000394117,0.0321758,0.00101628,-0.640431,-0.0892417,9.79106,0.0503102,-0.601947,0.985567,-0.00640641,-0.000899987,0.0979104,1,3.76237e-05,-1.08555e-05,1.57856e-05,0.00752473,-0.00217109,0.00315712,0.999482,-0.000394117,0.0321758,0.00101628,0.0643887,0.524711,-0.983568,30.1875,1,32284,3279995
70,6,0.999482,-0.000394117,0.0321758,0.00101628,-0.640431,-0.0892417,9.79106,0.0503102,-0.601947,0.985567,-0.00640641,-0.000899987,0.0979104,1,3.76237e-05,-1.08555e-05,1.57856e-05,0.00752473,-0.00217109,0.00315712,0.999482,-0.000394117,0.0321758,0.00101628,0.0643887,0.524711,-0.983568,30.1875,1,32284,3279995
71,1,0.999482,-0.000368977,0.0321648,0.00102179,-0.641342,-0.0699247,9.78173,0.0539273,-0.584328,0.977819,-0.00641557,-0.000707514,0.0978171,1,4.06804e-05,-1.11924e-05,2.4108e-05,0.00813607,-0.00223848,0.0048216,0.999482,-0.000368977,0.0321648,0.00102179,0.0643394,0.524747,-0.985588,30.1875,1,32285,3280095
71,2,0.999482,-0.000368977,0.0321648,0.00102179,-0.641342,-0.0699247,9.78173,0.0539273,-0.584328,0.977819,-0.00641557,-0.000707514,0.0978171,1,4.06804e-05,-1.11924e-05,2.4108e-05,0.00813607,-0.00223848,0.0048216,0.999482,-0.000368977,0.0321648,0.00102179,0.0643394,0.524747,-0.985588,30.1875,1,32285,3280095
71,3,0.999482,-0.000368977,0.0321648,0.00102179,-0.641342,-0.0699247,9.78173,0.0539273,-0.584328,0.977819,-0.00641557,-0.000707514,0.0978171,1,4.06804e-05,-1.11924e-05,2.4108e-05,0.00813607,-0.00223848,0.0048216,0.999482,-0.000368977,0.0321648,0.00102179,0.0643394,0.524747,-0.985588,30.1875,1,32285,3280095
71,4,0.999482,-0.000350304,0.0321521,0.00101675,-0.641933,-0.0806489,9.79249,0.0542523,-0.597873,0.989437,-0.00642162,-0.000815261,0.0979247,1,4.40944e-05,-1.17588e-05,1.06246e-05,0.00881888,-0.00235177,0.00212492,0.999482,-0.000350304,0.0321521,0.00101675,0.0638578,0.523306,-0.986627,30.1875,1,32286,3280195
71,5,0.999482,-0.000350304,0.0321521,0.00101675,-0.641933,-0.0806489,9.79249,0.0542523,-0.597873,0.989437,-0.00642162,-0.000815261,0.0979247,1,4.40944e-05,-1.17588e-05,1.06246e-05,0.00881888,-0.00235177,0.00212492,0.999482,-0.000350304,0.0321521,0.00101675,0.0638578,0.523306,-0.986627,30.1875,1,32286,3280195
71,6,0.999482,-0.000350304,0.0321521,0.00101675,-0.641933,-0.0806489,9.79249,0.0542523,-0.597873,0.989437,-0.00642162,-0.000815261,0.0979247,1,4.40944e-05,-1.17588e-05,1.06246e-05,0.00881888,-0.00235177,0.00212492,0.999482,-0.000350304,0.0321521,0.00101675,0.0638578,0.523306,-0.986627,30.1875,1,32286,3280195
72,1,0.999483,-0.000323481,0.0321489,0.00103426,-0.641263,-0.0850315,9.79788,0.0522758,-0.600091,0.989339,-0.00641321,-0.000860819,0.0979787,1,5.20702e-05,-3.14038e-06,2.33893e-05,0.010414,-0.000628077,0.00467786,0.999483,-0.000323481,0.0321489,0.00103426,0.0644002,0.521812,-0.985148,30.1875,1,32287,3280295
72,2,0.999483,-0.000323481,0.0321489,0.00103426,-0.641263,-0.0850315,9.79788,0.0522758,-0.600091,0.989339,-0.00641321,-0.000860819,0.0979787,1,5.20702e-05,-3.14038e-06,2.33893e-05,0.010414,-0.000628077,0.00467786,0.999483,-0.000323481,0.0321489,0.00103426,0.0644002,0.521812,-0.985148,30.1875,1,32287,3280295
72,3,0.999483,-0.000323481,0.0321489,0.00103426,-0.641263,-0.0850315,9.79788,0.0522758,-0.600091,0.989339,-0.00641321,-0.000860819,0.0979787,1,5.20702e-05,-3.14038e-06,2.33893e-05,0.010414,-0.000628077,0.00467786,0.999483,-0.000323481,0.0321489,0.00103426,0.0644002,0.521812,-0.985148,30.1875,1,32287,3280295
72,4,0.999483,-0.000304059,0.0321419,0.0010422,-0.647396,-0.0852004,9.78909,0.0490766,-0.595935,0.983447,-0.00647581,-0.00085896,0.0978907,1,3.4619e-05,-9.57791e-06,1.3765e-05,0.0069238,-0.00191558,0.00275301,0.999483,-0.000304059,0.0321419,0.0010422,0.0649017,0.521311,-0.984656,30.1875,1,32288,3280395
72,5,0.999483,-0.000304059,0.0321419,0.0010422,-0.647396,-0.0852004,9.78909,0.0490766,-0.595935,0.983447,-0.00647581,-0.00085896,0.0978907,1,3.4619e-05,-9.57791e-06,1.3765e-05,0.0069238,-0.00191558,0.00275301,0.999483,-0.000304059,0.0321419,0.0010422,0.0649017,0.521311,-0.984656,30.1875,1,32288,3280395
72,6,0.999483,-0.000304059,0.0321419,0.0010422,-0.647396,-0.0852004,9.78909,0.0490766,-0.595935,0.983447,-0.00647581,-0.00085896,0.0978907,1,3.4619e-05,-9.57791e-06,1.3765e-05,0.0069238,-0.00191558,0.00275301,0.999483,-0.000304059,0.0321419,0.0010422,0.0649017,0.521311,-0.984656,30.1875,1,32288,3280395
73,1,0.999482,-0.000253881,0.0321539,0.00105964,-0.642342,-0.0914394,9.7985,0.0556959,-0.610674,0.991632,-0.00642178,-0.000927076,0.097985,1,6.29201e-05,8.12142e-06,2.73698e-05,0.012584,0.00162428,0.00547396,0.999482,-0.000253881,0.0321539,0.00105964,0.0639769,0.522737,-0.982095,30.1875,1,32289,3280495
73,2,0.999482,-0.000253881,0.0321539,0.00105964,-0.642342,-0.0914394,9.7985,0.0556959,-0.610674,0.991632,-0.00642178,-0.000927076,0.097985,1,6.29201e-05,8.12142e-06,2.73698e-05,0.012584,0.00162428,0.00547396,0.999482,-0.000253881,0.0321539,0.00105964,0.0639769,0.522737,-0.982095,30.1875,1,32289,3280495
73,3,0.999482,-0.000253881,0.0321539,0.00105964,-0.642342,-0.0914394,9.7985,0.0556959,-0.610674,0.991632,-0.00642178,-0.000927076,0.097985,1,6.29201e-05,8.12142e-06,2.73698e-05,0.012584,0.00162428,0.00547396,0.999482,-0.000253881,0.0321539,0.00105964,0.0639769,0.522737,-0.982095,30.1875,1,32289,3280495
73,4,0.999483,-0.000215858,0.0321447,0.00106853,-0.636825,-0.086418,9.79105,0.0596366,-0.602785,0.983887,-0.00637025,-0.000872999,0.0979103,1,4.41298e-05,-1.03209e-05,1.3901e-05,0.00882595,-0.00206418,0.0027802,0.999483,-0.000215858,0.0321447,0.00106853,0.063492,0.523708,-0.981566,30.1875,1,32290,3280595
73,5,0.999483,-0.000215858,0.0321447,0.00106853,-0.636825,-0.086418,9.79105,0.0596366,-0.602785,0.983887,-0.00637025,-0.000872999,0.0979103,1,4.41298e-05,-1.03209e-05,1.3901e-05,0.00882595,-0.00206418,0.0027802,0.999483,-0.000215858,0.0321447,0.00106853,0.063492,0.523708,-0.981566,30.1875,1,32290,3280595
73,6,0.999483,-0.000215858,0.0321447,0.00106853,-0.636825,-0.086418,9.79105,0.0596366,-0.602785,0.983887,-0.00637025,-0.000872999,0.0979103,1,4.41298e-05,-1.03209e-05,1.3901e-05,0.00882595,-0.00206418,0.0027802,0.999483,-0.000215858,0.0321447,0.00106853,0.063492,0.523708,-0.981566,30.1875,1,32290,3280595
74,1,0.999483,-0.000181738,0.0321455,0.00108244,-0.637237,-0.0857122,9.79173,0.0564989,-0.603515,0.987868,-0.00637235,-0.000865752,0.0979173,1,4.27998e-05,-4.266e-08,1.94405e-05,0.00855997,-8.532e-06,0.0038881,0.999483,-0.000181738,0.0321455,0.00108244,0.0644129,0.523248,-0.983601,30.1875,1,32291,3280695
74,2,0.999483,-0.000181738,0.0321455,0.00108244,-0.637237,-0.0857122,9.79173,0.0564989,-0.603515,0.987868,-0.00637235,-0.000865752,0.0979173,1,4.27998e-05,-4.266e-08,1.94405e-05,0.00855997,-8.532e-06,0.0038881,0.999483,-0.000181738,0.0321455,0.00108244,0.0644129,0.523248,-0.983601,30.1875,1,32291,3280695
74,3,0.999483,-0.000181738,0.0321455,0.00108244,-0.637237,-0.0857122,9.79173,0.0564989,-0.603515,0.987868,-0.00637235,-0.000865752,0.0979173,1,4.27998e-05,-4.266e-08,1.94405e-05,0.00855997,-8.532e-06,0.0038881,0.999483,-0.000181738,0.0321455,0.00108244,0.0644129,0.523248,-0.983601,30.1875,1,32291,3280695
74,4,0.999483,-0.000159599,0.0321345,0.00107588,-0.631117,-0.0792291,9.78904,0.0628831,-0.600993,0.983234,-0.00631358,-0.000800352,0.0978901,1,4.0777e-05,-1.23307e-05,6.20086e-06,0.0081554,-0.00246614,0.00124017,0.999483,-0.000159599,0.0321345,0.00107588,0.0629202,0.523296,-0.985613,30.1875,1,32292,3280795
74,5,0.999483,-0.000159599,0.0321345,0.00107588,-0.631117,-0.0792291,9.78904,0.0628831,-0.600993,0.983234,-0.00631358,-0.000800352,0.0978901,1,4.0777e-05,-1.23307e-05,6.20086e-06,0.0081554,-0.00246614,0.00124017,0.999483,-0.000159599,0.0321345,0.00107588,0.0629202,0.523296,-0.985613,30.1875,1,32292,3280795
74,6,0.999483,-0.000159599,0.0321345,0.00107588,-0.631117,-0.0792291,9.78904,0.0628831,-0.600993,0.983234,-0.00631358,-0.000800352,0.0978901,1,4.0777e-05,-1.23307e-05,6.20086e-06,0.0081554,-0.00246614,0.00124017,0.999483,-0.000159599,0.0321345,0.00107588,0.0629202,0.523296,-0.985613,30.1875,1,32292,3280795
75,1,0.999483,-0.000144098,0.0321324,0.00110448,-0.634913,-0.0842863,9.78393,0.0604103,-0.604025,0.974916,-0.00634943,-0.000850903,0.0978392,1,3.94563e-05,-1.77685e-06,2.51551e-05,0.00789127,-0.00035537,0.00503101,0.999483,-0.000144098,0.0321324,0.00110448,0.0620192,0.521814,-0.984127,30.1875,1,32293,3280895
75,2,0.999483,-0.000144098,0.0321324,0.00110448,-0.634913,-0.0842863,9.78393,0.0604103,-0.604025,0.974916,-0.00634943,-0.000850903,0.0978392,1,3.94563e-05,-1.77685e-06,2.51551e-05,0.00789127,-0.00035537,0.00503101,0.999483,-0.000144098,0.0321324,0.00110448,0.0620192,0.521814,-0.984127,30.1875,1,32293,3280895
75,3,0.999483,-0.000144098,0.0321324,0.00110448,-0.634913,-0.0842863,9.78393,0.0604103,-0.604025,0.974916,-0.00634943,-0.000850903,0.0978392,1,3.94563e-05,-1.77685e-06,2.51551e-05,0.00789127,-0.00035537,0.00503101,0.999483,-0.000144098,0.0321324,0.00110448,0.0620192,0.521814,-0.984127,30.1875,1,32293,3280895
75,4,0.999484,-0.000125742,0.0321102,0.00112543,-0.640524,-0.0755508,9.79185,0.0557748,-0.591605,0.982496,-0.00640952,-0.000762176,0.0979182,1,3.38182e-05,-2.18655e-05,3.54848e-06,0.00676365,-0.00437309,0.000709696,0.999484,-0.000125742,0.0321102,0.00112543,0.0620074,0.523268,-0.983589,30.1875,1,32294,3280995
75,5,0.999484,-0.000125742,0.0321102,0.00112543,-0.640524,-0.0755508,9.79185,0.0557748,-0.591605,0.982496,-0.00640952,-0.000762176,0.0979182,1,3.38182e-05,-2.18655e-05,3.54848e-06,0.00676365,-0.00437309,0.000709696,0.999484,-0.000125742,0.0321102,0.00112543,0.0620074,0.523268,-0.983589,30.1875,1,32294,3280995
75,6,0.999484,-0.000125742,0.0321102,0.00112543,-0.640524,-0.0755508,9.79185,0.0557748,-0.591605,0.982496,-0.00640952,-0.000762176,0.0979182,1,3.38182e-05,-2.18655e-05,3.54848e-06,0.00676365,-0.00437309,0.000709696,0.999484,-0.000125742,0.0321102,0.00112543,0.0620074,0.523268,-0.983589,30.1875,1,32294,3280995
76,1,0.999484,-9.52243e-05,0.0321038,0.00115354,-0.636251,-0.0706014,9.79559,0.0615673,-0.589284,0.988676,-0.00636381,-0.000715718,0.0979558,1,4.83673e-05,-6.76687e-06,1.79019e-05,0.00967346,-0.00135337,0.00358039,0.999484,-9.52243e-05,0.0321038,0.00115354,0.0629164,0.524263,-0.985087,30.1875,1,32295,3281095
76,2,0.999484,-9.52243e-05,0.0321038,0.00115354,-0.636251,-0.0706014,9.79559,0.0615673,-0.589284,0.988676,-0.00636381,-0.000715718,0.0979558,1,4.83673e-05,-6.76687e-06,1.79019e-05,0.00967346,-0.00135337,0.00358039,0.999484,-9.52243e-05,0.0321038,0.00115354,0.0629164,0.524263,-0.985087,30.1875,1,32295,3281095
76,3,0.999484,-9.52243e-05,0.0321038,0.00115354,-0.636251,-0.0706014,9.79559,0.0615673,-0.589284,0.988676,-0.00636381,-0.000715718,0.0979558,1,4.83673e-05,-6.76687e-06,1.79019e-05,0.00967346,-0.00135337,0.00358039,0.999484,-9.52243e-05,0.0321038,0.00115354,0.0629164,0.524263,-0.985087,30.1875,1,32295,3281095
76,4,0.999484,-7.41043e-05,0.0321007,0.00117418,-0.64509,-0.0778902,9.78676,0.0526337,-0.597458,0.976357,-0.00645173,-0.000788292,0.0978675,1,4.65886e-05,-4.44603e-06,2.09508e-05,0.00931772,-0.000889206,0.00419016,0.999484,-7.41043e-05,0.0321007,0.00117418,0.0624272,0.524754,-0.985074,30.1875,1,32296,3281195
76,5,0.999484,-7.41043e-05,0.0321007,0.00117418,-0.64509,-0.0778902,9.78676,0.0526337,-0.597458,0.976357,-0.00645173,-0.000788292,0.0978675,1,4.65886e-05,-4.44603e-06,2.09508e-05,0.00931772,-0.000889206,0.00419016,0.999484,-7.41043e-05,0.0321007,0.00117418,0.0624272,0.524754,-0.985074,30.1875,1,32296,3281195
76,6,0.999484,-7.41043e-05,0.0321007,0.00117418,-0.64509,-0.0778902,9.78676,0.0526337,-0.597458,0.976357,-0.00645173,-0.000788292,0.0978675,1,4.65886e-05,-4.44603e-06,2.09508e-05,0.00931772,-0.000889206,0.00419016,0.999484,-7.41043e-05,0.0321007,0.00117418,0.0624272,0.524754,-0.985074,30.1875,1,32296,3281195
60,1,0.999485,-5.99075e-05,0.0320829,0.00117864,-0.636356,-0.0841204,9.79209,0.0613802,-0.607847,0.984579,-0.00636717,-0.00084921,0.0979206,1,4.08273e-05,-1.8429e-05,8.52861e-07,0.00816547,-0.0036858,0.000170572,0.999485,-5.99075e-05,0.0320829,0.00117864,0.0638668,0.525709,-0.984554,30.1875,1,32297,3281295
60,2,0.999485,-5.99075e-05,0.0320829,0.00117864,-0.636356,-0.0841204,9.79209,0.0613802,-0.607847,0.984579,-0.00636717,-0.00084921,0.0979206,1,4.08273e-05,-1.8429e-05,8.52861e-07,0.00816547,-0.0036858,0.000170572,0.999485,-5.99075e-05,0.0320829,0.00117864,0.0638668,0.525709,-0.984554,30.1875,1,32297,3281295
60,3,0.999485,-5.99075e-05,0.0320829,0.00117864,-0.636356,-0.0841204,9.79209,0.0613802,-0.607847,0.984579,-0.00636717,-0.00084921,0.0979206,1,4.08273e-05,-1.8429e-05,8.52861e-07,0.00816547,-0.0036858,0.000170572,0.999485,-5.99075e-05,0.0320829,0.00117864,0.0638668,0.525709,-0.984554,30.1875,1,32297,3281295
60,4,0.999485,-3.14888e-05,0.0320781,0.00118191,-0.638084,-0.083644,9.8033,0.0557581,-0.608421,0.998706,-0.00638236,-0.000847225,0.0980328,1,5.40186e-05,-7.92576e-06,1.5186e-05,0.0108037,-0.00158515,0.00303719,0.999485,-3.14888e-05,0.0320781,0.00118191,0.0638502,0.525239,-0.985574,30.1875,1,32298,3281395
60,5,0.999485,-3.14888e-05,0.0320781,0.00118191,-0.638084,-0.083644,9.8033,0.0557581,-0.608421,0.998706,-0.00638236,-0.000847225,0.0980328,1,5.40186e-05,-7.92576e-06,1.5186e-05,0.0108037,-0.00158515,0.00303719,0.999485,-3.14888e-05,0.0320781,0.00118191,0.0638502,0.525239,-0.985574,30.1875,1,32298,3281395
60,6,0.999485,-3.14888e-05,0.0320781,0.00118191,-0.638084,-0.083644,9.8033,0.0557581,-0.608421,0.998706,-0.00638236,-0.000847225,0.0980328,1,5.40186e-05,-7.92576e-06,1.5186e-05,0.0108037,-0.00158515,0.00303719,0.999485,-3.14888e-05,0.0320781,0.00118191,0.0638502,0.525239,-0.985574,30.1875,1,32298,3281395
78,1,0.999485,-2.45695e-05,0.0320824,0.00119048,-0.648768,-0.0869242,9.79418,0.0471079,-0.610891,0.986852,-0.00648729,-0.000876156,0.0979417,1,3.39263e-05,1.83128e-06,2.07143e-05,0.00678525,0.000366256,0.00414287,0.999485,-2.45695e-05,0.0320824,0.00119048,0.0638948,0.523279,-0.985113,30.1875,1,32299,3281495
78,2,0.999485,-2.45695e-05,0.0320824,0.00119048,-0.648768,-0.0869242,9.79418,0.0471079,-0.610891,0.986852,-0.00648729,-0.000876156,0.0979417,1,3.39263e-05,1.83128e-06,2.07143e-05,0.00678525,0.000366256,0.00414287,0.999485,-2.45695e-05,0.0320824,0.00119048,0.0638948,0.523279,-0.985113,30.1875,1,32299,3281495
78,3,0.999485,-2.45695e-05,0.0320824,0.00119048,-0.648768,-0.0869242,9.79418,0.0471079,-0.610891,0.986852,-0.00648729,-0.000876156,0.0979417,1,3.39263e-05,1.83128e-06,2.07143e-05,0.00678525,0.000366256,0.00414287,0.999485,-2.45695e-05,0.0320824,0.00119048,0.0638948,0.523279,-0.985113,30.1875,1,32299,3281495
78,4,0.999485,-6.46441e-06,0.0320742,0.00119206,-0.636919,-0.074839,9.7864,0.0545118,-0.599876,0.978819,-0.00637135,-0.000756268,0.0978638,1,3.93875e-05,-1.1163e-05,1.32359e-05,0.00787749,-0.00223261,0.00264718,0.999485,-6.46441e-06,0.0320742,0.00119206,0.0629857,0.522285,-0.983616,30.1875,1,32300,3281595
78,5,0.999485,-6.46441e-06,0.0320742,0.00119206,-0.636919,-0.074839,9.7864,0.0545118,-0.599876,0.978819,-0.00637135,-0.000756268,0.0978638,1,3.93875e-05,-1.1163e-05,1.32359e-05,0.00787749,-0.00223261,0.00264718,0.999485,-6.46441e-06,0.0320742,0.00119206,0.0629857,0.522285,-0.983616,30.1875,1,32300,3281595
78,6,0.999485,-6.46441e-06,0.0320742,0.00119206,-0.636919,-0.074839,9.7864,0.0545118,-0.599876,0.978819,-0.00637135,-0.000756268,0.0978638,1,3.93875e-05,-1.1163e-05,1.32359e-05,0.00787749,-0.00223261,0.00264718,0.999485,-6.46441e-06,0.0320742,0.00119206,0.0629857,0.522285,-0.983616,30.1875,1,32300,3281595
79,1,0.999485,2.09369e-05,0.0320681,0.00120486,-0.640862,-0.0875099,9.79378,0.0523299,-0.608765,0.982071,-0.0064101,-0.00088346,0.0979376,1,4.18388e-05,-7.67016e-06,1.29472e-05,0.00836776,-0.00153403,0.00258944,0.999485,2.09369e-05,0.0320681,0.00120486,0.0639646,0.522746,-0.9826,30.1875,1,32301,3281695
79,2,0.999485,2.09369e-05,0.0320681,0.00120486,-0.640862,-0.0875099,9.79378,0.0523299,-0.608765,0.982071,-0.0064101,-0.00088346,0.0979376,1,4.18388e-05,-7.67016e-06,1.29472e-05,0.00836776,-0.00153403,0.00258944,0.999485,2.09369e-05,0.0320681,0.00120486,0.0639646,0.522746,-0.9826,30.1875,1,32301,3281695
79,3,0.999485,2.09369e-05,0.0320681,0.00120486,-0.640862,-0.0875099,9.79378,0.0523299,-0.608765,0.982071,-0.0064101,-0.00088346,0.0979376,1,4.18388e-05,-7.67016e-06,1.29472e-05,0.00836776,-0.00153403,0.00258944,0.999485,2.09369e-05,0.0320681,0.00120486,0.0639646,0.522746,-0.9826,30.1875,1,32301,3281695
79,4,0.999486,4.84191e-05,0.0320464,0.00121175,-0.645448,-0.0801062,9.80102,0.0501199,-0.603281,0.992842,-0.00645926,-0.000809593,0.0980098,1,4.22765e-05,-2.45442e-05,1.89391e-05,0.00845529,-0.00490884,0.00378783,0.999486,4.84191e-05,0.0320464,0.00121175,0.0648248,0.525222,-0.985074,30.1875,1,32302,3281795
79,5,0.999486,4.84191e-05,0.0320464,0.00121175,-0.645448,-0.0801062,9.80102,0.0501199,-0.603281,0.992842,-0.00645926,-0.000809593,0.0980098,1,4.22765e-05,-2.45442e-05,1.89391e-05,0.00845529,-0.00490884,0.00378783,0.999486,4.84191e-05,0.0320464,0.00121175,0.0648248,0.525222,-0.985074,30.1875,1,32302,3281795
79,6,0.999486,4.84191e-05,0.0320464,0.00121175,-0.645448,-0.0801062,9.80102,0.0501199,-0.603281,0.992842,-0.00645926,-0.000809593,0.0980098,1,4.22765e-05,-2.45442e-05,1.89391e-05,0.00845529,-0.00490884,0.00378783,0.999486,4.84191e-05,0.0320464,0.00121175,0.0648248,0.525222,-0.985074,30.1875,1,32302,3281795
80,1,0.999486,6.71045e-05,0.0320342,0.00119591,-0.639097,-0.0873902,9.79242,0.0566381,-0.612996,0.981326,-0.00639387,-0.000883035,0.0979239,1,4.63723e-05,-1.48587e-05,4.05499e-06,0.00927447,-0.00297173,0.000810997,0.999486,6.71045e-05,0.0320342,0.00119591,0.0652893,0.524748,-0.986097,30.1875,1,32303,3281895
80,2,0.999486,6.71045e-05,0.0320342,0.00119591,-0.639097,-0.0873902,9.79242,0.0566381,-0.612996,0.981326,-0.00639387,-0.000883035,0.0979239,1,4.63723e-05,-1.48587e-05,4.05499e-06,0.00927447,-0.00297173,0.000810997,0.999486,6.71045e-05,0.0320342,0.00119591,0.0652893,0.524748,-0.986097,30.1875,1,32303,3281895
80,3,0.999486,6.71045e-05,0.0320342,0.00119591,-0.639097,-0.0873902,9.79242,0.0566381,-0.612996,0.981326,-0.00639387,-0.000883035,0.0979239,1,4.63723e-05,-1.48587e-05,4.05499e-06,0.00927447,-0.00297173,0.000810997,0.999486,6.71045e-05,0.0320342,0.00119591,0.0652893,0.524748,-0.986097,30.1875,1,32303,3281895
80,4,0.999487,8.51636e-05,0.0320242,0.00119875,-0.646308,-0.0802981,9.78812,0.0500507,-0.606028,0.978938,-0.00646549,-0.00081248,0.097881,1,4.68605e-05,-1.25342e-05,2.51417e-05,0.0093721,-0.00250684,0.00502833,0.999487,8.51636e-05,0.0320242,0.00119875,0.0638782,0.522809,-0.986134,30.1875,1,32304,3281995
80,5,0.999487,8.51636e-05,0.0320242,0.00119875,-0.646308,-0.0802981,9.78812,0.0500507,-0.606028,0.978938,-0.00646549,-0.00081248,0.097881,1,4.68605e-05,-1.25342e-05,2.51417e-05,0.0093721,-0.00250684,0.00502833,0.999487,8.51636e-05,0.0320242,0.00119875,0.0638782,0.522809,-0.986134,30.1875,1,32304,3281995
80,6,0.999487,8.51636e-05,0.0320242,0.00119875,-0.646308,-0.0802981,9.78812,0.0500507,-0.606028,0.978938,-0.00646549,-0.00081248,0.097881,1,4.68605e-05,-1.25342e-05,2.51417e-05,0.0093721,-0.00250684,0.00502833,0.999487,8.51636e-05,0.0320242,0.00119875,0.0638782,0.522809,-0.986134,30.1875,1,32304,3281995
81,1,0.999487,0.000108977,0.0320101,0.00121455,-0.631263,-0.086663,9.78967,0.0601032,-0.61259,0.983348,-0.00631584,-0.000876294,0.0978964,1,4.82593e-05,-1.65927e-05,1.70169e-05,0.00965186,-0.00331854,0.00340338,0.999487,0.000108977,0.0320101,0.00121455,0.0634664,0.520835,-0.98466,30.1875,1,32305,3282095
81,2,0.999487,0.000108977,0.0320101,0.00121455,-0.631263,-0.086663,9.78967,0.0601032,-0.61259,0.983348,-0.00631584,-0.000876294,0.0978964,1,4.82593e-05,-1.65927e-05,1.70169e-05,0.00965186,-0.00331854,0.00340338,0.999487,0.000108977,0.0320101,0.00121455,0.0634664,0.520835,-0.98466,30.1875,1,32305,3282095
81,3,0.999487,0.000108977,0.0320101,0.00121455,-0.631263,-0.086663,9.78967,0.0601032,-0.61259,0.983348,-0.00631584,-0.000876294,0.0978964,1,4.82593e-05,-1.65927e-05,1.70169e-05,0.00965186,-0.00331854,0.00340338,0.999487,0.000108977,0.0320101,0.00121455,0.0634664,0.520835,-0.98466,30.1875,1,32305,3282095
81,4,0.999487,0.00014354,0.0319955,0.00122583,-0.635141,-0.075017,9.79284,0.0569156,-0.603128,0.986921,-0.00635486,-0.000760332,0.0979281,1,5.14127e-05,-1.76542e-05,7.28506e-06,0.0102825,-0.00353084,0.00145701,0.999487,0.00014354,0.0319955,0.00122583,0.0639484,0.523722,-0.982578,30.1875,1,32306,3282195
81,5,0.999487,0.00014354,0.0319955,0.00122583,-0.635141,-0.075017,9.79284,0.0569156,-0.603128,0.986921,-0.00635486,-0.000760332,0.0979281,1,5.14127e-05,-1.76542e-05,7.28506e-06,0.0102825,-0.00353084,0.00145701,0.999487,0.00014354,0.0319955,0.00122583,0.0639484,0.523722,-0.982578,30.1875,1,32306,3282195
81,6,0.999487,0.00014354,0.0319955,0.00122583,-0.635141,-0.075017,9.79284,0.0569156,-0.603128,0.986921,-0.00635486,-0.000760332,0.0979281,1,5.14127e-05,-1.76542e-05,7.28506e-06,0.0102825,-0.00353084,0.00145701,0.999487,0.00014354,0.0319955,0.00122583,0.0639484,0.523722,-0.982578,30.1875,1,32306,3282195
82,1,0.999487,0.000178841,0.0319894,0.00123412,-0.639591,-0.0844903,9.78599,0.0552778,-0.612963,0.977853,-0.00639751,-0.00085542,0.0978598,1,5.25005e-05,-8.35398e-06,1.89506e-05,0.0105001,-0.0016708,0.00379012,0.999487,0.000178841,0.0319894,0.00123412,0.0648988,0.525168,-0.982045,30.1875,1,32307,3282295
82,2,0.999487,0.000178841,0.0319894,0.00123412,-0.639591,-0.0844903,9.78599,0.0552778,-0.612963,0.977853,-0.00639751,-0.00085542,0.0978598,1,5.25005e-05,-8.35398e-06,1.89506e-05,0.0105001,-0.0016708,0.00379012,0.999487,0.000178841,0.0319894,0.00123412,0.0648988,0.525168,-0.982045,30.1875,1,32307,3282295
82,3,0.999487,0.000178841,0.0319894,0.00123412,-0.639591,-0.0844903,9.78599,0.0552778,-0.612963,0.977853,-0.00639751,-0.00085542,0.0978598,1,5.25005e-05,-8.35398e-06,1.89506e-05,0.0105001,-0.0016708,0.00379012,0.999487,0.000178841,0.0319894,0.00123412,0.0648988,0.525168,-0.982045,30.1875,1,32307,3282295
82,4,0.999487,0.000205601,0.0319942,0.00122691,-0.634893,-0.0863539,9.789,0.0592193,-0.613707,0.978462,-0.00634845,-0.000872853,0.0978899,1,4.6812e-05,2.36187e-06,1.17681e-05,0.0093624,0.000472374,0.00235363,0.999487,0.000205601,0.0319942,0.00122691,0.065314,0.52473,-0.985087,30.1875,1,32308,3282395
82,5,0.999487,0.000205601,0.0319942,0.00122691,-0.634893,-0.0863539,9.789,0.0592193,-0.613707,0.978462,-0.00634845,-0.000872853,0.0978899,1,4.6812e-05,2.36187e-06,1.17681e-05,0.0093624,0.000472374,0.00235363,0.999487,0.000205601,0.0319942,0.00122691,0.065314,0.52473,-0.985087,30.1875,1,32308,3282395
82,6,0.999487,0.000205601,0.0319942,0.00122691,-0.634893,-0.0863539,9.789,0.0592193,-0.613707,0.978462,-0.00634845,-0.000872853,0.0978899,1,4.6812e-05,2.36187e-06,1.17681e-05,0.0093624,0.000472374,0.00235363,0.999487,0.000205601,0.0319942,0.00122691,0.065314,0.52473,-0.985087,30.1875,1,32308,3282395
83,1,0.999487,0.000227626,0.0319902,0.00123236,-0.638196,-0.0825925,9.79143,0.0508772,-0.613583,0.982662,-0.0063831,-0.000835974,0.0979142,1,4.97514e-05,-6.06057e-06,2.4028e-05,0.00995027,-0.00121211,0.00480559,0.999487,0.000227626,0.0319902,0.00123236,0.0643228,0.524278,-0.986608,30.1875,1,32309,3282495
83,2,0.999487,0.000227626,0.0319902,0.00123236,-0.638196,-0.0825925,9.79143,0.0508772,-0.613583,0.982662,-0.0063831,-0.000835974,0.0979142,1,4.97514e-05,-6.06057e-06,2.4028e-05,0.00995027,-0.00121211,0.00480559,0.999487,0.000227626,0.0319902,0.00123236,0.0643228,0.524278,-0.986608,30.1875,1,32309,3282495
83,3,0.999487,0.000227626,0.0319902,0.00123236,-0.638196,-0.0825925,9.79143,0.0508772,-0.613583,0.982662,-0.0063831,-0.000835974,0.0979142,1,4.97514e-05,-6.06057e-06,2.4028e-05,0.00995027,-0.00121211,0.00480559,0.999487,0.000227626,0.0319902,0.00123236,0.0643228,0.524278,-0.986608,30.1875,1,32309,3282495
83,4,0.999488,0.000234342,0.0319853,0.0012364,-0.648013,-0.0919637,9.78735,0.0422352,-0.622499,0.980463,-0.00648139,-0.000926916,0.0978733,1,3.64427e-05,-6.56756e-06,1.11702e-05,0.00728854,-0.00131351,0.00223404,0.999488,0.000234342,0.0319853,0.0012364,0.0634052,0.522326,-0.986142,30.1875,1,32310,3282595
83,5,0.999488,0.000234342,0.0319853,0.0012364,-0.648013,-0.0919637,9.78735,0.0422352,-0.622499,0.980463,-0.00648139,-0.000926916,0.0978733,1,3.64427e-05,-6.56756e-06,1.11702e-05,0.00728854,-0.00131351,0.00223404,0.999488,0.000234342,0.0319853,0.0012364,0.0634052,0.522326,-0.986142,30.1875,1,32310,3282595
83,6,0.999488,0.000234342,0.0319853,0.0012364,-0.648013,-0.0919637,9.78735,0.0422352,-0.622499,0.980463,-0.00648139,-0.000926916,0.0978733,1,3.64427e-05,-6.56756e-06,1.11702e-05,0.00728854,-0.00131351,0.00223404,0.999488,0.000234342,0.0319853,0.0012364,0.0634052,0.522326,-0.986142,30.1875,1,32310,3282595
84,1,0.999488,0.000256436,0.0319824,0.0012594,-0.649051,-0.0838747,9.7993,0.0442747,-0.614602,0.994709,-0.00649152,-0.000848053,0.0979928,1,4.63724e-05,-5.32928e-06,1.67861e-05,0.00927448,-0.00106586,0.00335722,0.999488,0.000256436,0.0319824,0.0012594,0.0639475,0.520831,-0.984663,30.1875,1,32311,3282695
84,2,0.999488,0.000256436,0.0319824,0.0012594,-0.649051,-0.0838747,9.7993,0.0442747,-0.614602,0.994709,-0.00649152,-0.000848053,0.0979928,1,4.63724e-05,-5.32928e-06,1.67861e-05,0.00927448,-0.00106586,0.00335722,0.999488,0.000256436,0.0319824,0.0012594,0.0639475,0.520831,-0.984663,30.1875,1,32311,3282695
84,3,0.999488,0.000256436,0.0319824,0.0012594,-0.649051,-0.0838747,9.7993,0.0442747,-0.614602,0.994709,-0.00649152,-0.000848053,0.0979928,1,4.63724e-05,-5.32928e-06,1.67861e-05,0.00927448,-0.00106586,0.00335722,0.999488,0.000256436,0.0319824,0.0012594,0.0639475,0.520831,-0.984663,30.1875,1,32311,3282695
84,4,0.999488,0.000295081,0.031971,0.00126895,-0.63651,-0.0776131,9.78637,0.0540877,-0.606179,0.979076,-0.00636787,-0.000787523,0.0978635,1,5.74422e-05,-1.42489e-05,1.17012e-05,0.0114884,-0.00284977,0.00234024,0.999488,0.000295081,0.031971,0.00126895,0.0639518,0.52131,-0.984147,30.1875,1,32312,3282795
84,5,0.999488,0.000295081,0.031971,0.00126895,-0.63651,-0.0776131,9.78637,0.0540877,-0.606179,0.979076,-0.00636787,-0.000787523,0.0978635,1,5.74422e-05,-1.42489e-05,1.17012e-05,0.0114884,-0.00284977,0.00234024,0.999488,0.000295081,0.031971,0.00126895,0.0639518,0.52131,-0.984147,30.1875,1,32312,3282795
84,6,0.999488,0.000295081,0.031971,0.00126895,-0.63651,-0.0776131,9.78637,0.0540877,-0.606179,0.979076,-0.00636787,-0.000787523,0.0978635,1,5.74422e-05,-1.42489e-05,1.17012e-05,0.0114884,-0.00284977,0.00234024,0.999488,0.000295081,0.031971,0.00126895,0.0639518,0.52131,-0.984147,30.1875,1,32312,3282795
85,1,0.999489,0.000321607,0.031954,0.00127924,-0.638004,-0.0901401,9.78765,0.054911,-0.626298,0.982723,-0.00638399,-0.000910539,0.0978761,1,4.56982e-05,-2.03177e-05,1.50444e-05,0.00913964,-0.00406355,0.00300887,0.999489,0.000321607,0.031954,0.00127924,0.0630023,0.522754,-0.982595,30.1875,1,32313,3282895
85,2,0.999489,0.000321607,0.031954,0.00127924,-0.638004,-0.0901401,9.78765,0.054911,-0.626298,0.982723,-0.00638399,-0.000910539,0.0978761,1,4.56982e-05,-2.03177e-05,1.50444e-05,0.00913964,-0.00406355,0.00300887,0.999489,0.000321607,0.031954,0.00127924,0.0630023,0.522754,-0.982595,30.1875,1,32313,3282895
85,3,0.999489,0.000321607,0.031954,0.00127924,-0.638004,-0.0901401,9.78765,0.054911,-0.626298,0.982723,-0.00638399,-0.000910539,0.0978761,1,4.56982e-05,-2.03177e-05,1.50444e-05,0.00913964,-0.00406355,0.00300887,0.999489,0.000321607,0.031954,0.00127924,0.0630023,0.522754,-0.982595,30.1875,1,32313,3282895
85,4,0.999489,0.0003486,0.0319517,0.00129094,-0.637633,-0.0748377,9.79183,0.0529223,-0.605849,0.985123,-0.00637709,-0.000757399,0.0979181,1,4.53014e-05,-3.94307e-06,1.18092e-05,0.00906027,-0.000788614,0.00236184,0.999489,0.0003486,0.0319517,0.00129094,0.0639276,0.522773,-0.984114,30.1875,1,32314,3282995
85,5,0.999489,0.0003486,0.0319517,0.00129094,-0.637633,-0.0748377,9.79183,0.0529223,-0.605849,0.985123,-0.00637709,-0.000757399,0.0979181,1,4.53014e-05,-3.94307e-06,1.18092e-05,0.00906027,-0.000788614,0.00236184,0.999489,0.0003486,0.0319517,0.00129094,0.0639276,0.522773,-0.984114,30.1875,1,32314,3282995
85,6,0.999489,0.0003486,0.0319517,0.00129094,-0.637633,-0.0748377,9.79183,0.0529223,-0.605849,0.985123,-0.00637709,-0.000757399,0.0979181,1,4.53014e-05,-3.94307e-06,1.18092e-05,0.00906027,-0.000788614,0.00236184,0.999489,0.0003486,0.0319517,0.00129094,0.0639276,0.522773,-0.984114,30.1875,1,32314,3282995
86,1,0.999489,0.000375578,0.0319369,0.00129729,-0.640882,-0.0784645,9.79047,0.0515592,-0.610043,0.979669,-0.0064122,-0.000794801,0.0979044,1,5.09564e-05,-1.73616e-05,1.39047e-05,0.0101913,-0.00347232,0.00278094,0.999489,0.000375578,0.0319369,0.00129729,0.0658027,0.522793,-0.986143,30.1875,1,32315,3283095
