frame_id,imu_idx,quat_w,quat_x,quat_y,quat_z,accel_x,accel_y,accel_z,free_accel_x,free_accel_y,free_accel_z,delta_v_x,delta_v_y,delta_v_z,delta_q_w,delta_q_x,delta_q_y,delta_q_z,rate_x,rate_y,rate_z,quat_w,quat_x,quat_y,quat_z,mag_x,mag_y,mag_z,temperature,status_byte,packet_counter,time_fine
1,1,0.999198,-0.00265413,0.0399591,-0.000109993,-0.809108,-0.0623853,9.79086,0.104299,-0.475401,1.04232,-0.00809189,-0.000632018,0.0979085,1,4.17419e-05,-4.14818e-06,-5.15883e-07,0.00834838,-0.000829636,-0.000103177,0.999198,-0.00265413,0.0399591,-0.000109993,0.0375909,0.476026,-1.032,30.0625,1,1232,167446
1,2,0.999198,-0.00261188,0.0399531,-9.05742e-05,-0.792472,-0.0614034,9.77651,0.112466,-0.477274,1.02556,-0.00792739,-0.00062268,0.0977648,1,4.36176e-05,-1.36883e-05,7.41711e-06,0.00872352,-0.00273766,0.00148342,0.999198,-0.00261188,0.0399531,-9.05742e-05,0.0404492,0.476987,-1.0325,30.0625,1,1233,167546
1,3,0.999199,-0.0025382,0.0399286,-6.88956e-05,-0.683588,-0.0544723,9.78975,0.22283,-0.475003,1.03587,-0.00683819,-0.000552023,0.0978972,1,3.64258e-05,-1.18579e-05,1.2299e-05,0.00728516,-0.00237159,0.0024598,0.999199,-0.0025382,0.0399286,-6.88956e-05,0.0389679,0.474135,-1.03609,30.0625,1,1235,167746
1,4,0.999198,-0.00247536,0.0399672,-5.35602e-05,-0.85009,-0.077302,9.77165,0.0738703,-0.489588,1.0274,-0.00849738,-0.000778699,0.0977168,1,2.81597e-05,1.79556e-05,1.0317e-05,0.00563193,0.00359113,0.0020634,0.999198,-0.00247536,0.0399672,-5.35602e-05,0.038129,0.474053,-1.03104,30.0625,1,1237,167946
2,1,0.999197,-0.00238418,0.0399946,-3.89091e-05,-0.901513,-0.0540525,9.77729,-0.0012352,-0.474827,1.03429,-0.00901413,-0.000549566,0.097773,1,4.63929e-05,5.09401e-06,-1.73413e-06,0.00927859,0.0010188,-0.000346825,0.999197,-0.00238418,0.0399946,-3.89091e-05,0.037089,0.475082,-1.03354,30.0625,1,1239,168146
2,2,0.999196,-0.00233746,0.0400244,-2.59008e-07,-0.808717,-0.0252573,9.78708,0.11242,-0.438042,1.03517,-0.00808362,-0.000255932,0.0978711,1,1.50481e-05,1.81029e-05,2.55222e-05,0.00300962,0.00362059,0.00510444,0.999196,-0.00233746,0.0400244,-2.59008e-07,0.0394737,0.474113,-1.03508,30.0625,1,1241,168346
2,3,0.999195,-0.00230707,0.0400418,1.48691e-05,-0.910796,-0.0633678,9.76471,0.00669686,-0.475803,1.02847,-0.00910461,-0.0006398,0.0976474,1,2.97948e-05,1.7077e-05,1.66072e-05,0.00595896,0.0034154,0.00332144,0.999195,-0.00230707,0.0400418,1.48691e-05,0.0399548,0.474109,-1.03509,30.0625,1,1242,168446
2,4,0.999195,-0.00221354,0.0400666,3.45177e-05,-0.789597,-0.115236,9.77804,0.117014,-0.537708,1.02958,-0.0078932,-0.00116398,0.0977805,1,5.92153e-05,1.41617e-05,2.52599e-06,0.0118431,0.00283234,0.000505198,0.999195,-0.00221354,0.0400666,3.45177e-05,0.0400573,0.473071,-1.03157,30.0625,1,1244,168646
3,1,0.999193,-0.0021394,0.0401164,5.8552e-05,-0.880023,-0.0473889,9.7704,0.0380328,-0.472289,1.02227,-0.00879518,-0.000482207,0.0977045,1,4.16506e-05,2.57996e-05,1.01718e-05,0.00833012,0.00515992,0.00203437,0.999193,-0.0021394,0.0401164,5.8552e-05,0.0409094,0.476034,-1.03404,30.0625,1,1246,168846
3,2,0.999192,-0.00205475,0.0401399,8.26789e-05,-0.917377,-0.0556407,9.78621,0.000720751,-0.475669,1.05048,-0.00917284,-0.000565981,0.0978622,1,4.76856e-05,4.63998e-06,1.31184e-05,0.00953713,0.000927997,0.00262368,0.999192,-0.00205475,0.0401399,8.26789e-05,0.0399999,0.473594,-1.03358,30.0625,1,1248,169046
3,3,0.999193,-0.00199186,0.0401079,9.12391e-05,-0.909566,-0.0642234,9.77323,-0.0101684,-0.493882,1.03466,-0.00910181,-0.000647328,0.0977317,1,2.48291e-05,-3.15421e-05,1.32675e-05,0.00496581,-0.00630841,0.0026535,0.999193,-0.00199186,0.0401079,9.12391e-05,0.0394822,0.475071,-1.03405,30.0625,1,1250,169246
3,4,0.999196,-0.00193027,0.040053,9.00584e-05,-0.760683,-0.0663725,9.78406,0.145795,-0.490777,1.03357,-0.00761097,-0.000670366,0.0978403,1,3.39373e-05,-2.11432e-05,2.62335e-08,0.00678746,-0.00422863,5.24669e-06,0.999196,-0.00193027,0.040053,9.00584e-05,0.0400122,0.473585,-1.03308,30.0625,1,1252,169446
4,1,0.999195,-0.00189522,0.040061,9.8473e-05,-0.700293,-0.0476993,9.77497,0.206653,-0.470256,1.01308,-0.00700171,-0.000483976,0.0977498,1,3.49394e-05,6.19702e-06,1.08855e-05,0.00698788,0.0012394,0.0021771,0.999195,-0.00189522,0.040061,9.8473e-05,0.0404316,0.473627,-1.0356,30.0625,1,1253,169546
4,2,0.999196,-0.00180436,0.040062,0.000113112,-0.793158,-0.0639148,9.78632,0.126858,-0.485928,1.03573,-0.00793062,-0.000646,0.0978633,1,3.41163e-05,4.85223e-06,1.09839e-05,0.00682325,0.000970445,0.00219678,0.999196,-0.00180436,0.040062,0.000113112,0.0414352,0.47407,-1.03358,30.0625,1,1255,169746
4,3,0.999198,-0.00171482,0.0400024,0.000132835,-0.867278,-0.0517402,9.78968,0.0289325,-0.486833,1.04713,-0.00868144,-0.000528463,0.097896,1,5.47489e-05,-4.43494e-05,1.9675e-05,0.0109498,-0.00886988,0.003935,0.999198,-0.00171482,0.0400024,0.000132835,0.0395396,0.474547,-1.03204,30.0625,1,1257,169946
4,4,0.999201,-0.00165871,0.0399212,0.000145136,-0.738458,-0.0718669,9.76963,0.1597,-0.513163,1.01431,-0.0073913,-0.000724068,0.0976957,1,2.67828e-05,-3.44534e-05,1.12133e-05,0.00535656,-0.00689069,0.00224266,0.999201,-0.00165871,0.0399212,0.000145136,0.040481,0.47359,-1.03359,30.0625,1,1259,170146
5,1,0.999204,-0.00158977,0.0398683,0.0001611,-0.530095,-0.0664349,9.79166,0.376945,-0.509485,1.02457,-0.00530323,-0.000671588,0.0979164,1,3.62843e-05,-1.17273e-05,1.25729e-05,0.00725686,-0.00234545,0.00251458,0.999204,-0.00158977,0.0398683,0.0001611,0.0375858,0.472657,-1.0346,30.0625,1,1261,170346
5,2,0.999203,-0.00155096,0.0398789,0.000169746,-0.569258,-0.0599293,9.78688,0.345945,-0.492057,1.01803,-0.00569061,-0.000607055,0.0978688,1,3.9041e-05,9.99104e-06,1.05318e-05,0.0078082,0.00199821,0.00210636,0.999203,-0.00155096,0.0398789,0.000169746,0.0395553,0.472126,-1.03311,30.0625,1,1262,170446
5,3,0.999201,-0.00148988,0.0399353,0.000176794,-0.777468,-0.069821,9.77021,0.138518,-0.510319,1.01328,-0.00776991,-0.000704848,0.0977024,1,3.27565e-05,2.43224e-05,1.52234e-05,0.0065513,0.00486447,0.00304468,0.999201,-0.00148988,0.0399353,0.000176794,0.0409132,0.475068,-1.03456,30.0625,1,1264,170646
5,4,0.999201,-0.00144079,0.0399411,0.000203182,-0.88839,-0.0508399,9.78302,0.0134776,-0.487386,1.04241,-0.00888663,-0.000512243,0.09783,1,1.83359e-05,-1.40182e-05,1.44411e-05,0.00366717,-0.00280365,0.00288823,0.999201,-0.00144079,0.0399411,0.000203182,0.0395349,0.472623,-1.0336,30.0625,1,1266,170846
6,1,0.999203,-0.00139491,0.0398857,0.000225429,-0.53653,-0.0962909,9.80027,0.357215,-0.533011,1.02589,-0.00536965,-0.000965186,0.0980025,1,1.07828e-05,-2.23126e-05,1.51973e-05,0.00215656,-0.00446253,0.00303947,0.999203,-0.00139491,0.0398857,0.000225429,0.0405465,0.472579,-1.03159,30.0625,1,1268,171046
6,2,0.999202,-0.00133225,0.0399201,0.000254047,-0.707828,-0.107935,9.77823,0.216746,-0.546265,1.00876,-0.00707195,-0.00108607,0.0977826,1,3.30431e-05,3.21867e-05,1.82074e-05,0.00660863,0.00643734,0.00364148,0.999202,-0.00133225,0.0399201,0.000254047,0.0399923,0.475528,-1.03253,30.0625,1,1270,171246
6,3,0.999201,-0.00126046,0.0399566,0.000269356,-0.999411,-0.0532371,9.77525,-0.0894437,-0.501877,1.0452,-0.00999271,-0.000539497,0.0977526,1,3.49229e-05,7.06852e-06,1.49214e-05,0.00698458,0.0014137,0.00298428,0.999201,-0.00126046,0.0399566,0.000269356,0.0413901,0.474585,-1.03508,30.0625,1,1272,171446
6,4,0.999202,-0.00124135,0.0399275,0.000287071,-0.948234,-0.0329363,9.78393,-0.0550896,-0.478895,1.04543,-0.009488,-0.000334025,0.0978388,1,2.20797e-05,-2.89848e-05,1.80283e-05,0.00441594,-0.00579696,0.00360566,0.999202,-0.00124135,0.0399275,0.000287071,0.039523,0.474077,-1.03306,30.0625,1,1273,171546
7,1,0.999205,-0.00116889,0.0398537,0.000310541,-0.799555,-0.0754635,9.77308,0.0978477,-0.540727,1.02382,-0.00800151,-0.00076173,0.0977302,1,3.47719e-05,-3.06331e-05,1.86802e-05,0.00695439,-0.00612662,0.00373605,0.999205,-0.00116889,0.0398537,0.000310541,0.0404815,0.475036,-1.03254,30.0625,1,1275,171746
7,2,0.999206,-0.00111546,0.0398211,0.000328808,-0.746954,-0.107879,9.77783,0.162678,-0.575381,1.02184,-0.00746972,-0.00108441,0.0977783,1,2.74461e-05,-1.1155e-06,1.71773e-05,0.00548921,-0.0002231,0.00343547,0.999206,-0.00111546,0.0398211,0.000328808,0.0389475,0.474632,-1.03659,30.0625,1,1277,171946
7,3,0.999206,-0.00104547,0.0398387,0.000334539,-0.882222,-0.0877744,9.77382,0.0297354,-0.539676,1.03151,-0.00882035,-0.000885627,0.0977383,1,3.94285e-05,9.50316e-06,9.98925e-06,0.00788571,0.00190063,0.00199785,0.999206,-0.00104547,0.0398387,0.000334539,0.0409825,0.47309,-1.03309,30.0625,1,1279,172146
7,4,0.999206,-0.000967915,0.039819,0.000329532,-1.00788,-0.0504581,9.76584,-0.102233,-0.49446,1.03437,-0.0100811,-0.00051352,0.0976581,1,4.61824e-05,-1.16323e-05,-4.01598e-06,0.00923648,-0.00232646,-0.000803195,0.999206,-0.000967915,0.039819,0.000329532,0.0405099,0.474051,-1.03206,30.0625,1,1281,172346
8,1,0.999207,-0.000945786,0.0397951,0.000338592,-1.00404,-0.0494956,9.75906,-0.108458,-0.499881,1.02293,-0.0100456,-0.000500457,0.09759,1,2.70233e-05,-2.64961e-05,1.1282e-05,0.00540465,-0.00529923,0.0022564,0.999207,-0.000945786,0.0397951,0.000338592,0.0414518,0.47454,-1.03256,30.0625,1,1282,172446
8,2,0.99921,-0.000886215,0.0397243,0.000378897,-0.887441,-0.0749334,9.77128,0.0177121,-0.525215,1.02789,-0.00888107,-0.000756031,0.0977122,1,3.22741e-05,-3.42745e-05,2.19531e-05,0.00645482,-0.0068549,0.00439062,0.99921,-0.000886215,0.0397243,0.000378897,0.0399501,0.472185,-1.03664,30.0625,1,1284,172646
8,3,0.999212,-0.000821412,0.0396948,0.000402939,-0.782085,-0.0848798,9.77183,0.113088,-0.539416,1.02262,-0.00782414,-0.000856562,0.0977179,1,3.83163e-05,-1.69895e-05,1.7617e-05,0.00766325,-0.0033979,0.00352341,0.999212,-0.000821412,0.0396948,0.000402939,0.0395392,0.473102,-1.03309,30.0625,1,1286,172846
8,4,0.999211,-0.000751469,0.0397081,0.000417472,-0.892648,-0.0683204,9.7649,0.0212795,-0.524994,1.02312,-0.00892551,-0.000691511,0.097649,1,4.11607e-05,4.82442e-06,1.50093e-05,0.00823213,0.000964884,0.00300187,0.999211,-0.000751469,0.0397081,0.000417472,0.0405465,0.472579,-1.03159,30.0625,1,1288,173046
9,1,0.999211,-0.000703375,0.039714,0.000421944,-0.934401,-0.0469567,9.76674,-0.0378064,-0.501348,1.02766,-0.00934677,-0.000474174,0.0976671,1,2.27019e-05,-1.4212e-05,9.24051e-06,0.00454039,-0.0028424,0.0018481,0.999211,-0.000703375,0.039714,0.000421944,0.0414594,0.472607,-1.03361,30.0625,1,1290,173246
9,2,0.999211,-0.00065789,0.0397096,0.00043314,-0.911521,-0.0694318,9.7674,-0.00991423,-0.521415,1.02522,-0.0091178,-0.000705009,0.0976737,1,5.31412e-05,-1.33888e-05,1.69949e-05,0.0106282,-0.00267776,0.00339898,0.999211,-0.00065789,0.0397096,0.00043314,0.0409948,0.473081,-1.03259,30.0625,1,1291,173346
9,3,0.999212,-0.000594842,0.039696,0.0004446,-0.822696,-0.0758799,9.76844,0.0773126,-0.534309,1.01811,-0.00822958,-0.000767727,0.0976841,1,4.52176e-05,-1.342e-05,5.70738e-06,0.00904353,-0.002684,0.00114148,0.999212,-0.000594842,0.039696,0.0004446,0.0405137,0.473085,-1.03259,30.0625,1,1293,173546
9,4,0.999213,-0.000524313,0.0396649,0.000455687,-0.835875,-0.0691857,9.76928,0.0677644,-0.533036,1.01975,-0.00836215,-0.000700374,0.0976924,1,4.21909e-05,-1.75105e-05,1.63874e-05,0.00843819,-0.0035021,0.00327747,0.999213,-0.000524313,0.0396649,0.000455687,0.0389679,0.474135,-1.03609,30.0625,1,1295,173746
10,1,0.999213,-0.000479004,0.0396732,0.000511411,-0.819083,-0.0884347,9.77307,0.0823268,-0.542192,1.02612,-0.00819556,-0.00088916,0.0977302,1,2.30464e-05,-2.43448e-05,1.8852e-05,0.00460927,-0.00486896,0.00377039,0.999213,-0.000479004,0.0396732,0.000511411,0.0376147,0.473118,-1.03308,30.0625,1,1297,173946
10,2,0.999213,-0.000380767,0.0396654,0.000578366,-0.898415,-0.105409,9.77276,0.00892117,-0.562356,1.03551,-0.00898314,-0.00106708,0.0977276,1,6.44363e-05,4.94776e-06,2.22345e-05,0.0128873,0.000989553,0.0044469,0.999213,-0.000380767,0.0396654,0.000578366,0.0405057,0.473572,-1.03258,30.0625,1,1299,174146
10,3,0.999215,-0.000276371,0.0396212,0.000586947,-0.960272,-0.0618192,9.75527,-0.0665606,-0.524486,1.03839,-0.00961053,-0.000629834,0.0975519,1,5.71889e-05,-4.02184e-05,2.52086e-05,0.0114378,-0.00804368,0.00504171,0.999215,-0.000276371,0.0396212,0.000586947,0.0404848,0.472624,-1.03411,30.0625,1,1301,174346
10,4,0.999216,-0.000245788,0.0395962,0.000609009,-0.899367,-0.0425906,9.79473,0.00373933,-0.511019,1.04635,-0.00900123,-0.000434766,0.0979465,1,4.29412e-05,-3.87227e-05,2.48998e-05,0.00858825,-0.00774454,0.00497997,0.999216,-0.000245788,0.0395962,0.000609009,0.0404563,0.473609,-1.03459,30.0625,1,1302,174446
11,1,0.999217,-0.000211163,0.0395489,0.000636061,-0.763538,-0.0652352,9.77563,0.128994,-0.538038,1.02741,-0.00764344,-0.000659434,0.0977556,1,3.51147e-05,-4.13338e-05,1.41673e-05,0.00702295,-0.00826676,0.00283346,0.999217,-0.000211163,0.0395489,0.000636061,0.0390908,0.4726,-1.03209,30.0625,1,1304,174646
11,2,0.999219,-0.000145068,0.0395096,0.000679346,-0.595598,-0.0919008,9.77797,0.308725,-0.565412,1.0009,-0.005959,-0.000925559,0.0977795,1,3.27918e-05,-1.55178e-05,1.16118e-05,0.00655836,-0.00310356,0.00232236,0.999219,-0.000145068,0.0395096,0.000679346,0.0394822,0.475071,-1.03405,30.0625,1,1306,174846
11,3,0.999218,-9.1939e-05,0.0395369,0.000770435,-0.714877,-0.075055,9.78604,0.189126,-0.551865,1.02495,-0.00714913,-0.000760738,0.0978603,1,5.09451e-05,-1.92046e-06,1.52013e-05,0.010189,-0.000384093,0.00304027,0.999218,-9.1939e-05,0.0395369,0.000770435,0.0399871,0.472158,-1.03513,30.0625,1,1308,175046
11,4,0.999218,-2.76913e-05,0.0395375,0.000811418,-0.807235,-0.0501655,9.78962,0.0904353,-0.528343,1.0378,-0.00807733,-0.000512725,0.0978957,1,5.62687e-05,-2.54213e-05,3.28732e-06,0.0112537,-0.00508426,0.000657464,0.999218,-2.76913e-05,0.0395375,0.000811418,0.0400858,0.472086,-1.03109,30.0625,1,1310,175246
12,1,0.99922,3.84691e-05,0.0394857,0.000797017,-0.79043,-0.0527234,9.78712,0.110747,-0.530529,1.03365,-0.00791198,-0.000538984,0.0978705,1,5.83789e-05,-3.93468e-05,2.04087e-05,0.0116758,-0.00786936,0.00408174,0.99922,3.84691e-05,0.0394857,0.000797017,0.0405716,0.474006,-1.02954,30.0625,1,1311,175346
12,2,0.999223,0.000141489,0.039402,0.000812587,-0.786277,-0.068806,9.78898,0.111464,-0.547168,1.03137,-0.0078699,-0.000697361,0.0978891,1,4.58936e-05,-3.65302e-05,2.00628e-05,0.00917873,-0.00730604,0.00401257,0.999223,0.000141489,0.039402,0.000812587,0.0404278,0.474593,-1.03508,30.0625,1,1313,175546
12,3,0.999224,0.00017396,0.0393675,0.000945345,-0.821675,-0.0628837,9.77639,0.0649257,-0.541694,1.02287,-0.0082262,-0.000639843,0.097763,1,5.6645e-05,-4.83467e-05,-4.20782e-06,0.011329,-0.00966935,-0.000841564,0.999224,0.00017396,0.0393675,0.000945345,0.0370966,0.473149,-1.03459,30.0625,1,1315,175746
12,4,0.999226,0.00021047,0.0393162,0.00116295,-0.673843,-0.0854134,9.77755,0.232936,-0.566332,1.01602,-0.00674167,-0.000861683,0.0977752,1,3.74485e-05,-1.67024e-05,1.676e-05,0.0074897,-0.00334047,0.003352,0.999226,0.00021047,0.0393162,0.00116295,0.0385774,0.474555,-1.03204,30.0625,1,1317,175946
13,1,0.999226,0.000280594,0.0393209,0.00141133,-0.777008,-0.0668742,9.79163,0.13011,-0.53301,1.0337,-0.00777264,-0.000678652,0.097916,1,4.89262e-05,-1.32376e-05,2.11876e-05,0.00978523,-0.00264752,0.00423752,0.999226,0.000280594,0.0393209,0.00141133,0.0394941,0.473617,-1.03459,30.0625,1,1319,176146
13,2,0.999223,0.000333671,0.0393866,0.001656,-0.828538,-0.0622281,9.78387,0.0760937,-0.532917,1.02954,-0.00828555,-0.000633789,0.0978386,1,5.82989e-05,-9.23972e-07,6.06478e-06,0.0116598,-0.000184794,0.00121296,0.999223,0.000333671,0.0393866,0.001656,0.038026,0.473647,-1.03559,30.0625,1,1321,176346
13,3,0.999221,0.000339992,0.039426,0.00191126,-0.853583,-0.0573071,9.77934,0.0487516,-0.541638,1.02696,-0.00854081,-0.000584338,0.0977929,1,5.66785e-05,-2.5518e-05,1.06527e-05,0.0113357,-0.0051036,0.00213054,0.999221,0.000339992,0.039426,0.00191126,0.0385812,0.473588,-1.03257,30.0625,1,1322,176446
13,4,0.999224,0.000437588,0.039322,0.0022823,-0.909185,-0.0656887,9.76474,-0.0138067,-0.546324,1.01791,-0.00910032,-0.000665055,0.0976465,1,4.07065e-05,-4.34329e-05,1.19881e-05,0.00814131,-0.00868657,0.00239762,0.999224,0.000437588,0.039322,0.0022823,0.03905,0.473593,-1.03307,30.0625,1,1324,176646
14,1,0.999217,0.000440068,0.0394336,0.00332751,-0.69709,-0.0737417,9.78969,0.201584,-0.558252,1.02859,-0.0069797,-0.000745071,0.0978963,1,3.75677e-05,-4.50816e-05,2.13794e-05,0.00751353,-0.00901632,0.00427589,0.999217,0.000440068,0.0394336,0.00332751,0.0370966,0.473149,-1.03459,30.0625,1,1326,176846
14,2,0.999208,0.000399194,0.0395499,0.00436046,-0.660803,-0.0787646,9.77818,0.25262,-0.559869,1.00895,-0.00660816,-0.000796519,0.0977817,1,4.48972e-05,-7.39484e-07,6.96639e-06,0.00897944,-0.000147897,0.00139328,0.999208,0.000399194,0.0395499,0.00436046,0.0390912,0.474045,-1.03104,30.0625,1,1328,177046
14,3,0.999191,0.000527517,0.0396673,0.0066784,-0.8304,-0.0713895,9.7872,0.0936134,-0.557127,1.03543,-0.00830496,-0.000722629,0.0978718,1,4.37294e-05,-4.99205e-06,1.05051e-05,0.00874588,-0.00099841,0.00210101,0.999191,0.000527517,0.0396673,0.0066784,0.0394983,0.474095,-1.03407,30.0625,1,1330,177246
14,4,0.99917,0.000624429,0.039918,0.0081414,-0.890269,-0.068077,9.78356,0.0274553,-0.559377,1.03176,-0.00890591,-0.000688047,0.0978352,1,3.6694e-05,-1.65087e-05,5.48939e-06,0.00733881,-0.00330174,0.00109788,0.99917,0.000624429,0.039918,0.0081414,0.0380299,0.47268,-1.03612,30.0625,1,1331,177346
15,1,0.999139,0.000450129,0.0403187,0.00979626,-0.915778,-0.0501275,9.7778,0.0173646,-0.549404,1.03365,-0.00916528,-0.000509983,0.0977773,1,4.1753e-05,-3.84989e-05,2.96516e-05,0.0083506,-0.00769978,0.00593032,0.999139,0.000450129,0.0403187,0.00979626,0.0380835,0.473123,-1.03358,30.0625,1,1333,177546
15,2,0.999124,0.000475534,0.0402788,0.0113701,-0.889973,-0.056872,9.76877,0.0415258,-0.549582,1.01851,-0.00891232,-0.000580092,0.0976865,1,5.65127e-05,-6.45481e-05,1.85612e-05,0.0113025,-0.0129096,0.00371224,0.999124,0.000475534,0.0402788,0.0113701,0.0376185,0.472151,-1.0336,30.0625,1,1335,177746
15,3,0.999094,0.000496944,0.0403684,0.0134936,-0.784304,-0.0612893,9.77818,0.157814,-0.541583,1.02099,-0.00785145,-0.000623457,0.097781,1,5.22007e-05,-4.31074e-05,2.26885e-05,0.0104401,-0.00862147,0.0045377,0.999094,0.000496944,0.0403684,0.0134936,0.0375492,0.474129,-1.03507,30.0625,1,1337,177946
15,4,0.999089,0.000483667,0.0404285,0.0136948,-0.827261,-0.0858375,9.77484,0.128013,-0.576469,1.02187,-0.00827452,-0.000868447,0.0977482,1,5.08316e-05,-9.8482e-06,8.08918e-06,0.0101663,-0.00196964,0.00161784,0.999089,0.000483667,0.0404285,0.0136948,0.0381077,0.471659,-1.03362,30.0625,1,1339,178146
16,1,0.999089,0.000520045,0.040407,0.0136982,-0.863568,-0.0943426,9.77807,0.0912757,-0.604134,1.03706,-0.00863959,-0.000953998,0.0977802,1,5.30445e-05,-2.00659e-05,1.14575e-05,0.0106089,-0.00401318,0.0022915,0.999089,0.000520045,0.040407,0.0136982,0.0390827,0.473088,-1.03207,30.0625,1,1340,178246
16,2,0.99909,0.000552103,0.0403808,0.0137372,-0.878539,-0.0792727,9.78272,0.0635294,-0.589078,1.02798,-0.00878903,-0.000800396,0.0978268,1,3.67426e-05,-1.87997e-05,2.73547e-05,0.00734852,-0.00375994,0.00547094,0.99909,0.000552103,0.0403808,0.0137372,0.0385684,0.472152,-1.03411,30.0625,1,1342,178446
16,3,0.999091,0.00059293,0.0403489,0.0137679,-0.851792,-0.0710676,9.77684,0.0969217,-0.561062,1.02628,-0.00852145,-0.000721115,0.097768,1,5.16698e-05,-1.81777e-05,1.97065e-05,0.010334,-0.00363555,0.0039413,0.999091,0.00059293,0.0403489,0.0137679,0.0390168,0.472654,-1.03511,30.0625,1,1344,178646
16,4,0.999093,0.000642024,0.0402869,0.0137895,-0.821473,-0.0780483,9.79526,0.119421,-0.575696,1.04461,-0.00822251,-0.000791971,0.0979518,1,5.69001e-05,-3.99185e-05,2.07516e-05,0.01138,-0.00798369,0.00415031,0.999093,0.000642024,0.0402869,0.0137895,0.0376066,0.473605,-1.03307,30.0625,1,1346,178846
17,1,0.999095,0.000681842,0.0402246,0.0138026,-0.722062,-0.0633347,9.7947,0.220273,-0.558119,1.03046,-0.00722703,-0.000641053,0.0979464,1,3.77206e-05,-3.28326e-05,2.18806e-05,0.00754411,-0.00656652,0.00437612,0.999095,0.000681842,0.0402246,0.0138026,0.0385689,0.473597,-1.03307,30.0625,1,1348,179046
17,2,0.999097,0.000713509,0.0401897,0.0137984,-0.657993,-0.0608357,9.79766,0.287105,-0.550416,1.03025,-0.00658254,-0.000615415,0.0979764,1,3.55914e-05,-1.33628e-05,6.32373e-06,0.00711828,-0.00267255,0.00126475,0.999097,0.000713509,0.0401897,0.0137984,0.0365912,0.474616,-1.03455,30.0625,1,1350,179246
17,3,0.999097,0.000737908,0.0401851,0.0138064,-0.625548,-0.0716407,9.80481,0.322474,-0.564051,1.03588,-0.00625691,-0.000726419,0.0980479,1,5.00643e-05,-7.43714e-06,1.55401e-05,0.0100129,-0.00148743,0.00310801,0.999097,0.000737908,0.0401851,0.0138064,0.0356333,0.475103,-1.03403,30.0625,1,1351,179346
17,4,0.999097,0.000786938,0.0401633,0.0138031,-0.613001,-0.0711284,9.79049,0.328828,-0.574901,1.02153,-0.00613203,-0.000721318,0.0979047,1,5.05522e-05,-1.04011e-05,1.11104e-05,0.0101104,-0.00208022,0.00222208,0.999097,0.000786938,0.0401633,0.0138031,0.0385859,0.475513,-1.03101,30.0625,1,1353,179546
18,1,0.999098,0.000824318,0.0401409,0.0138142,-0.601902,-0.0246846,9.80166,0.340814,-0.518377,1.02626,-0.00601904,-0.000255693,0.0980166,1,4.47687e-05,-1.06168e-07,5.86175e-06,0.00895374,-2.12336e-05,0.00117235,0.999098,0.000824318,0.0401409,0.0138142,0.0370439,0.475597,-1.03504,30.0625,1,1355,179746
18,2,0.999099,0.000862004,0.0401124,0.0138427,-0.674085,-0.0477013,9.79449,0.272613,-0.546123,1.0254,-0.00674359,-0.000488449,0.0979446,1,5.73043e-05,-1.40684e-05,1.56594e-05,0.0114609,-0.00281367,0.00313187,0.999099,0.000862004,0.0401124,0.0138427,0.0376432,0.472133,-1.03259,30.0625,1,1357,179946
18,3,0.999101,0.000899531,0.0400687,0.0138458,-0.705228,-0.0644879,9.801,0.239925,-0.567158,1.02965,-0.00705426,-0.000655751,0.0980098,1,5.49201e-05,-1.01627e-05,7.54569e-06,0.010984,-0.00203254,0.00150914,0.999101,0.000899531,0.0400687,0.0138458,0.0381124,0.473583,-1.03206,30.0625,1,1359,180146
18,4,0.999102,0.000919076,0.0400452,0.0138459,-0.720918,-0.0562845,9.78049,0.220335,-0.557947,1.0187,-0.00721259,-0.000572181,0.0978046,1,4.71269e-05,-1.7475e-05,8.17296e-06,0.00942539,-0.003495,0.00163459,0.999102,0.000919076,0.0400452,0.0138459,0.039058,0.473106,-1.03308,30.0625,1,1360,180246
19,1,0.999102,0.00094307,0.04002,0.0138492,-0.736165,-0.0509634,9.78266,0.203139,-0.554231,1.02106,-0.00736082,-0.000518294,0.0978266,1,4.41503e-05,4.22984e-06,1.48623e-06,0.00883006,0.000845967,0.000297246,0.999102,0.00094307,0.04002,0.0138492,0.0361585,0.471693,-1.03462,30.0625,1,1362,180446
19,2,0.999104,0.000953497,0.0399701,0.0138555,-0.739671,-0.0722662,9.7703,0.193666,-0.577812,1.01286,-0.00739988,-0.0007282,0.0977027,1,2.75895e-05,-1.63187e-05,9.96715e-06,0.00551789,-0.00326373,0.00199343,0.999104,0.000953497,0.0399701,0.0138555,0.0351849,0.474601,-1.03303,30.0625,1,1364,180646
19,3,0.999105,0.000996156,0.0399513,0.0138651,-0.810977,-0.0541292,9.76685,0.12728,-0.564132,1.00729,-0.00811134,-0.000551849,0.0976683,1,5.30221e-05,-8.08735e-06,1.23345e-05,0.0106044,-0.00161747,0.0024669,0.999105,0.000996156,0.0399513,0.0138651,0.0370975,0.476039,-1.0325,30.0625,1,1366,180846
19,4,0.999106,0.00100956,0.0399219,0.0138672,-0.811859,-0.0693853,9.77826,0.12898,-0.579172,1.01948,-0.00811994,-0.000701879,0.0977825,1,4.03337e-05,-6.94017e-06,8.4734e-06,0.00806674,-0.00138803,0.00169468,0.999106,0.00100956,0.0399219,0.0138672,0.0385233,0.472667,-1.03562,30.0625,1,1368,181046
20,1,0.999108,0.00104656,0.0398806,0.0138742,-0.839839,-0.0802198,9.7743,0.0928238,-0.588663,1.02091,-0.00840197,-0.00081108,0.0977426,1,4.39026e-05,-1.84664e-05,1.78589e-05,0.00878051,-0.00369327,0.00357179,0.999108,0.00104656,0.0398806,0.0138742,0.0371459,0.473113,-1.03257,30.0625,1,1370,181246
20,2,0.999108,0.0010746,0.0398641,0.013877,-0.806759,-0.0901716,9.78654,0.129549,-0.592294,1.02884,-0.00806988,-0.000912924,0.0978651,1,5.63637e-05,-1.1837e-05,1.09263e-05,0.0112727,-0.0023674,0.00218525,0.999108,0.0010746,0.0398641,0.013877,0.0371051,0.474106,-1.03356,30.0625,1,1371,181346
20,3,0.999108,0.00110255,0.0398633,0.0139006,-0.855281,-0.0637978,9.76231,0.0843368,-0.584645,1.00592,-0.00855191,-0.000647263,0.0976231,1,4.63165e-05,4.52815e-06,1.41058e-05,0.0092633,0.00090563,0.00282117,0.999108,0.00110255,0.0398633,0.0139006,0.0366235,0.472665,-1.0346,30.0625,1,1373,181546
20,4,0.999108,0.00113048,0.0398454,0.0139179,-0.885752,-0.057021,9.77717,0.0510468,-0.565309,1.02487,-0.00885858,-0.000578902,0.0977716,1,4.26508e-05,-5.51387e-06,1.98447e-05,0.00853016,-0.00110277,0.00396893,0.999108,0.00113048,0.0398454,0.0139179,0.0366193,0.472186,-1.03511,30.0625,1,1375,181746
21,1,0.999108,0.00114853,0.039836,0.0139319,-0.882156,-0.0797847,9.78611,0.0513757,-0.589149,1.03476,-0.00882207,-0.000804844,0.0978609,1,3.43937e-05,-2.71742e-06,1.49963e-05,0.00687874,-0.000543485,0.00299925,0.999108,0.00114853,0.039836,0.0139319,0.037656,0.473569,-1.03105,30.0625,1,1377,181946
21,2,0.999108,0.00118367,0.0398257,0.0139515,-0.889484,-0.0716189,9.76655,0.0460631,-0.585105,1.01183,-0.0088955,-0.000726334,0.0976653,1,5.0051e-05,-3.52977e-06,2.07352e-05,0.0100102,-0.000705954,0.00414704,0.999108,0.00118367,0.0398257,0.0139515,0.0370638,0.473655,-1.03559,30.0625,1,1379,182146
21,3,0.999108,0.00119892,0.0398281,0.0139615,-0.875948,-0.0703871,9.76442,0.0568488,-0.582455,1.01463,-0.00875911,-0.00071301,0.0976442,1,4.51393e-05,1.76446e-06,1.84272e-05,0.00902785,0.000352892,0.00368543,0.999108,0.00119892,0.0398281,0.0139615,0.0375815,0.472178,-1.03512,30.0625,1,1380,182246
21,4,0.999109,0.00122811,0.0398133,0.0139708,-0.826209,-0.0680638,9.76989,0.108706,-0.578166,1.01868,-0.00826312,-0.000689981,0.0976987,1,4.63537e-05,-5.39974e-06,1.72892e-05,0.00927075,-0.00107995,0.00345784,0.999109,0.00122811,0.0398133,0.0139708,0.0385893,0.473101,-1.03258,30.0625,1,1382,182446
22,1,0.999108,0.0012399,0.0398234,0.0139933,-0.830396,-0.0477587,9.78298,0.105833,-0.559578,1.02575,-0.00830197,-0.000485271,0.0978299,1,3.65528e-05,1.00077e-05,3.20297e-05,0.00731057,0.00200154,0.00640595,0.999108,0.0012399,0.0398234,0.0139933,0.0385608,0.474085,-1.03306,30.0625,1,1384,182646
22,2,0.999107,0.00126307,0.039846,0.0140056,-0.834606,-0.0660415,9.79473,0.101243,-0.576545,1.04051,-0.00834549,-0.000667353,0.0979473,1,3.39318e-05,2.80708e-06,1.74474e-05,0.00678636,0.000561415,0.00348949,0.999107,0.00126307,0.039846,0.0140056,0.0375734,0.472666,-1.03511,30.0625,1,1386,182846
22,3,0.999106,0.00130906,0.0398631,0.0140232,-0.84053,-0.0688765,9.76794,0.0931757,-0.588355,1.00774,-0.00840568,-0.000698104,0.0976793,1,4.55826e-05,-2.14971e-06,2.58145e-05,0.00911652,-0.000429942,0.0051629,0.999106,0.00130906,0.0398631,0.0140232,0.039087,0.473566,-1.03156,30.0625,1,1388,183046
22,4,0.999106,0.00133236,0.0398481,0.0140381,-0.811264,-0.0461655,9.78288,0.127458,-0.557223,1.02697,-0.0081153,-0.000470277,0.0978285,1,4.28911e-05,-1.36383e-05,1.42047e-05,0.00857821,-0.00272766,0.00284094,0.999106,0.00133236,0.0398481,0.0140381,0.0380835,0.473123,-1.03358,30.0625,1,1390,183246
23,1,0.999108,0.00134457,0.0398213,0.0140181,-0.807806,-0.0557983,9.79026,0.11859,-0.576235,1.03119,-0.00808412,-0.000566125,0.097902,1,4.25985e-05,-3.08362e-05,-1.22992e-05,0.00851971,-0.00616723,-0.00245984,0.999108,0.00134457,0.0398213,0.0140181,0.0370842,0.473158,-1.03509,30.0625,1,1391,183346
23,2,0.999109,0.00136801,0.0397855,0.0140314,-0.75254,-0.0504734,9.79026,0.184549,-0.572731,1.02837,-0.00752869,-0.000512667,0.0979023,1,3.92125e-05,-1.69202e-05,1.69481e-05,0.0078425,-0.00338403,0.00338962,0.999109,0.00136801,0.0397855,0.0140314,0.0381081,0.473105,-1.03257,30.0625,1,1393,183546
23,3,0.999111,0.00138028,0.039728,0.0140366,-0.734005,-0.0593288,9.78938,0.194879,-0.571423,1.02523,-0.00734611,-0.00060042,0.0978933,1,3.53865e-05,-3.10317e-05,1.38263e-05,0.00707731,-0.00620634,0.00276526,0.999111,0.00138028,0.039728,0.0140366,0.0376479,0.474057,-1.03104,30.0625,1,1395,183746
23,4,0.999113,0.00139571,0.0396845,0.0140344,-0.695325,-0.0664973,9.80024,0.236144,-0.578771,1.03089,-0.00695646,-0.000674952,0.0980021,1,5.01702e-05,-1.64176e-05,1.0459e-05,0.010034,-0.00328353,0.0020918,0.999113,0.00139571,0.0396845,0.0140344,0.0356494,0.474127,-1.03406,30.0625,1,1397,183946
24,1,0.999113,0.00141953,0.0396593,0.0140565,-0.71464,-0.0659052,9.77933,0.22275,-0.580791,1.01343,-0.00714821,-0.000666016,0.0977931,1,3.43228e-05,-9.38036e-06,1.758e-05,0.00686455,-0.00187607,0.00351599,0.999113,0.00141953,0.0396593,0.0140565,0.0361505,0.472181,-1.03461,30.0625,1,1399,184146
24,2,0.999113,0.00144052,0.039652,0.0140663,-0.736469,-0.0796082,9.78446,0.198802,-0.590458,1.01826,-0.00736627,-0.000806259,0.0978444,1,5.05355e-05,-8.22913e-06,1.95074e-05,0.0101071,-0.00164583,0.00390148,0.999113,0.00144052,0.039652,0.0140663,0.0371174,0.474097,-1.03305,30.0625,1,1400,184246
24,3,0.999113,0.00147712,0.0396486,0.0140748,-0.772448,-0.0761837,9.7742,0.162818,-0.589432,1.01005,-0.0077239,-0.000771386,0.0977419,1,4.75961e-05,2.81813e-06,1.58512e-05,0.00951923,0.000563626,0.00317024,0.999113,0.00147712,0.0396486,0.0140748,0.0366159,0.474598,-1.03354,30.0625,1,1402,184446
24,4,0.999113,0.00150978,0.0396586,0.0140723,-0.749481,-0.0952776,9.78304,0.184511,-0.615542,1.02552,-0.00749362,-0.000961189,0.0978304,1,4.30718e-05,6.08306e-06,-1.01133e-06,0.00861436,0.00121661,-0.000202265,0.999113,0.00150978,0.0396586,0.0140723,0.0371293,0.472643,-1.03359,30.0625,1,1404,184646
25,1,0.999112,0.00155539,0.0396812,0.0140672,-0.758619,-0.0760208,9.77546,0.17758,-0.588453,1.01474,-0.00758325,-0.00077115,0.0977547,1,5.57546e-05,1.50222e-05,2.68611e-06,0.0111509,0.00300443,0.000537222,0.999112,0.00155539,0.0396812,0.0140672,0.037656,0.473569,-1.03105,30.0625,1,1406,184846
25,2,0.999112,0.0015829,0.0396784,0.0140694,-0.826402,-0.0732853,9.78342,0.107231,-0.592555,1.02496,-0.00826396,-0.000742749,0.0978341,1,4.98016e-05,2.14094e-07,9.13984e-06,0.00996032,4.28188e-05,0.00182797,0.999112,0.0015829,0.0396784,0.0140694,0.0375165,0.474635,-1.03607,30.0625,1,1408,185046
25,3,0.999112,0.00159829,0.0396739,0.0140789,-0.813553,-0.0665539,9.78,0.111787,-0.589727,1.02322,-0.00813646,-0.000674851,0.0977998,1,4.60632e-05,-4.85571e-06,1.85968e-05,0.00921264,-0.000971142,0.00371936,0.999112,0.00159829,0.0396739,0.0140789,0.0365623,0.474155,-1.03608,30.0625,1,1409,185146
25,4,0.999113,0.00162212,0.039663,0.0140868,-0.796571,-0.0642779,9.79007,0.136574,-0.584484,1.03162,-0.00796538,-0.00065089,0.0979007,1,4.02759e-05,1.58154e-06,1.41637e-05,0.00805518,0.000316307,0.00283274,0.999113,0.00162212,0.039663,0.0140868,0.0372029,0.471144,-1.0316,30.0625,1,1411,185346
26,1,0.999112,0.00165082,0.039658,0.0141061,-0.795219,-0.0821943,9.77837,0.138207,-0.606229,1.01789,-0.00795126,-0.000830715,0.0977837,1,4.36753e-05,4.66003e-06,1.45009e-05,0.00873506,0.000932007,0.00290018,0.999112,0.00165082,0.039658,0.0141061,0.0380716,0.474577,-1.03305,30.0625,1,1413,185546
26,2,0.999114,0.00168777,0.0396264,0.0141042,-0.788154,-0.0648852,9.79309,0.143491,-0.59203,1.03561,-0.00788552,-0.000657609,0.0979305,1,4.3692e-05,-2.04034e-05,1.2599e-05,0.00873841,-0.00408068,0.0025198,0.999114,0.00168777,0.0396264,0.0141042,0.0385442,0.473615,-1.03408,30.0625,1,1415,185746
26,3,0.999114,0.00171998,0.0396065,0.0141015,-0.814993,-0.050626,9.77743,0.118091,-0.573278,1.02058,-0.00815175,-0.000514501,0.0977741,1,4.10378e-05,-9.37481e-06,1.3275e-05,0.00820756,-0.00187496,0.002655,0.999114,0.00171998,0.0396065,0.0141015,0.0385893,0.473101,-1.03258,30.0625,1,1417,185946
26,4,0.999115,0.00175388,0.0395758,0.0141203,-0.821499,-0.0492161,9.77138,0.106133,-0.575886,1.0162,-0.00821729,-0.000500464,0.0977136,1,4.09074e-05,-1.18891e-05,1.8796e-05,0.00818149,-0.00237781,0.0037592,0.999115,0.00175388,0.0395758,0.0141203,0.0375947,0.47506,-1.03253,30.0625,1,1419,186146
27,1,0.999116,0.00176194,0.0395569,0.0141216,-0.802501,-0.0605729,9.78576,0.123845,-0.589956,1.02229,-0.00802903,-0.000613346,0.0978572,1,3.81993e-05,-2.05821e-05,8.77481e-06,0.00763985,-0.00411642,0.00175496,0.999116,0.00176194,0.0395569,0.0141216,0.0384953,0.475097,-1.03506,30.0625,1,1420,186246
27,2,0.999116,0.00179428,0.0395585,0.0141262,-0.797678,-0.0652983,9.76192,0.131872,-0.594921,1.00299,-0.00797705,-0.000662757,0.0976191,1,4.98071e-05,-1.3784e-06,3.16252e-06,0.00996143,-0.000275681,0.000632503,0.999116,0.00179428,0.0395585,0.0141262,0.0370966,0.473149,-1.03459,30.0625,1,1422,186446
27,3,0.999116,0.00179813,0.0395452,0.0141336,-0.808036,-0.0585613,9.78478,0.127943,-0.581089,1.02582,-0.00808334,-0.000592288,0.0978475,1,3.29967e-05,-1.5311e-05,1.34949e-05,0.00659934,-0.00306221,0.00269897,0.999116,0.00179813,0.0395452,0.0141336,0.0371421,0.474079,-1.03204,30.0625,1,1423,186546
27,4,0.999116,0.00179813,0.0395452,0.0141336,-0.808036,-0.0585613,9.78478,0.127943,-0.581089,1.02582,-0.00808334,-0.000592288,0.0978475,1,3.29967e-05,-1.5311e-05,1.34949e-05,0.00659934,-0.00306221,0.00269897,0.999116,0.00179813,0.0395452,0.0141336,0.0371421,0.474079,-1.03204,30.0625,1,1423,186546
28,1,0.999117,0.00181871,0.0395396,0.0141275,-0.848043,-0.0525549,9.76983,0.0856644,-0.580863,1.01042,-0.00848217,-0.000532884,0.0976981,1,3.63774e-05,-8.99652e-06,1.33646e-05,0.00727549,-0.0017993,0.00267291,0.999117,0.00181871,0.0395396,0.0141275,0.0376479,0.474057,-1.03104,30.0625,1,1425,186746
28,2,0.999117,0.0018133,0.0395329,0.0141312,-0.847464,-0.0424379,9.76381,0.0758129,-0.574481,1.00856,-0.00847642,-0.000429244,0.0976379,1,2.38978e-05,-9.15675e-06,1.16973e-05,0.00477956,-0.00183135,0.00233947,0.999117,0.0018133,0.0395329,0.0141312,0.0371336,0.473122,-1.03307,30.0625,1,1426,186846
28,3,0.999117,0.00182398,0.0395349,0.0141268,-0.832184,-0.0371112,9.78715,0.0990117,-0.562781,1.02554,-0.00832205,-0.000379175,0.0978714,1,4.09391e-05,-1.11406e-06,2.94877e-06,0.00818781,-0.000222812,0.000589754,0.999117,0.00182398,0.0395349,0.0141268,0.0375654,0.473154,-1.0351,30.0625,1,1427,186946
28,4,0.999117,0.00182398,0.0395349,0.0141268,-0.832184,-0.0371112,9.78715,0.0990117,-0.562781,1.02554,-0.00832205,-0.000379175,0.0978714,1,4.09391e-05,-1.11406e-06,2.94877e-06,0.00818781,-0.000222812,0.000589754,0.999117,0.00182398,0.0395349,0.0141268,0.0375654,0.473154,-1.0351,30.0625,1,1427,186946
29,1,0.999116,0.00182675,0.0395397,0.0141297,-0.8282,-0.0794991,9.76641,0.0904284,-0.605075,1.00405,-0.00828134,-0.00080142,0.0976641,1,3.21679e-05,3.32671e-06,8.82331e-06,0.00643358,0.000665342,0.00176466,0.999116,0.00182675,0.0395397,0.0141297,0.0371004,0.472182,-1.03512,30.0625,1,1429,187146
29,2,0.999116,0.00183559,0.0395511,0.0141401,-0.787333,-0.0876164,9.77556,0.173864,-0.611333,1.01316,-0.00787177,-0.000883848,0.0977557,1,3.77912e-05,7.82134e-06,1.87754e-05,0.00755824,0.00156427,0.00375508,0.999116,0.00183559,0.0395511,0.0141401,0.0390538,0.472627,-1.0336,30.0625,1,1430,187246
29,3,0.999116,0.00183559,0.0395511,0.0141401,-0.787333,-0.0876164,9.77556,0.173864,-0.611333,1.01316,-0.00787177,-0.000883848,0.0977557,1,3.77912e-05,7.82134e-06,1.87754e-05,0.00755824,0.00156427,0.00375508,0.999116,0.00183559,0.0395511,0.0141401,0.0390538,0.472627,-1.0336,30.0625,1,1430,187246
29,4,0.999116,0.00183559,0.0395511,0.0141401,-0.787333,-0.0876164,9.77556,0.173864,-0.611333,1.01316,-0.00787177,-0.000883848,0.0977557,1,3.77912e-05,7.82134e-06,1.87754e-05,0.00755824,0.00156427,0.00375508,0.999116,0.00183559,0.0395511,0.0141401,0.0390538,0.472627,-1.0336,30.0625,1,1430,187246
30,1,0.999116,0.00185111,0.039557,0.0141394,-0.80645,-0.103581,9.77963,0.116706,-0.617276,1.01807,-0.00806531,-0.00104342,0.0977961,1,3.74801e-05,-4.33617e-06,1.76579e-05,0.00749603,-0.000867234,0.00353158,0.999116,0.00185111,0.039557,0.0141394,0.0384706,0.475115,-1.03607,30.0625,3,1432,187446
30,2,0.999115,0.00185105,0.0395544,0.014155,-0.785823,-0.0822622,9.78341,0.145342,-0.600183,1.01862,-0.00785936,-0.0008288,0.0978339,1,2.97017e-05,-5.96032e-06,2.32794e-05,0.00594035,-0.00119206,0.00465588,0.999115,0.00185105,0.0395544,0.014155,0.0360404,0.475153,-1.03707,30.0625,3,1433,187546
30,3,0.999115,0.00185105,0.0395544,0.014155,-0.785823,-0.0822622,9.78341,0.145342,-0.600183,1.01862,-0.00785936,-0.0008288,0.0978339,1,2.97017e-05,-5.96032e-06,2.32794e-05,0.00594035,-0.00119206,0.00465588,0.999115,0.00185105,0.0395544,0.014155,0.0360404,0.475153,-1.03707,30.0625,3,1433,187546
30,4,0.999115,0.00185105,0.0395544,0.014155,-0.785823,-0.0822622,9.78341,0.145342,-0.600183,1.01862,-0.00785936,-0.0008288,0.0978339,1,2.97017e-05,-5.96032e-06,2.32794e-05,0.00594035,-0.00119206,0.00465588,0.999115,0.00185105,0.0395544,0.014155,0.0360404,0.475153,-1.03707,30.0625,3,1433,187546
31,1,0.999116,0.00186749,0.0395417,0.0141843,-0.789725,-0.0598036,9.78126,0.139226,-0.586716,1.02282,-0.00789827,-0.000605094,0.0978125,1,3.48204e-05,-5.32382e-06,1.56013e-05,0.00696407,-0.00106476,0.00312025,0.999116,0.00186749,0.0395417,0.0141843,0.0386016,0.473092,-1.03207,30.0625,3,1435,187746
31,2,0.999116,0.00187882,0.0395266,0.0141689,-0.778349,-0.0572766,9.78867,0.152809,-0.58813,1.03001,-0.00778716,-0.000580508,0.0978864,1,3.9624e-05,-1.8755e-05,-1.01714e-06,0.0079248,-0.00375101,-0.000203429,0.999116,0.00187882,0.0395266,0.0141689,0.039597,0.474023,-1.03004,30.0625,3,1436,187846
31,3,0.999117,0.00188672,0.0395168,0.0141621,-0.779421,-0.0790966,9.77796,0.15123,-0.606545,1.01759,-0.00779681,-0.000798046,0.0977794,1,3.55504e-05,-1.3344e-05,8.18656e-06,0.00711007,-0.0026688,0.00163731,0.999117,0.00188672,0.0395168,0.0141621,0.036641,0.476025,-1.03149,30.0625,3,1437,187946
31,4,0.999117,0.00188672,0.0395168,0.0141621,-0.779421,-0.0790966,9.77796,0.15123,-0.606545,1.01759,-0.00779681,-0.000798046,0.0977794,1,3.55504e-05,-1.3344e-05,8.18656e-06,0.00711007,-0.0026688,0.00163731,0.999117,0.00188672,0.0395168,0.0141621,0.036641,0.476025,-1.03149,30.0625,3,1437,187946
32,1,0.999117,0.00190987,0.0394994,0.014179,-0.746845,-0.100665,9.78333,0.176485,-0.631815,1.01658,-0.0074708,-0.00101458,0.0978331,1,3.89796e-05,-1.22543e-05,2.05059e-05,0.00779591,-0.00245086,0.00410118,0.999117,0.00190987,0.0394994,0.014179,0.0355631,0.47419,-1.03759,30.0625,3,1439,188146
32,2,0.999118,0.00190542,0.0394809,0.01418,-0.744938,-0.0765632,9.78861,0.182851,-0.6073,1.02464,-0.00745357,-0.000770814,0.0978858,1,2.59503e-05,-2.14615e-05,6.83429e-06,0.00519005,-0.00429229,0.00136686,0.999118,0.00190542,0.0394809,0.01418,0.0361135,0.472208,-1.03612,30.0625,3,1440,188246
32,3,0.999118,0.00190542,0.0394809,0.01418,-0.744938,-0.0765632,9.78861,0.182851,-0.6073,1.02464,-0.00745357,-0.000770814,0.0978858,1,2.59503e-05,-2.14615e-05,6.83429e-06,0.00519005,-0.00429229,0.00136686,0.999118,0.00190542,0.0394809,0.01418,0.0361135,0.472208,-1.03612,30.0625,3,1440,188246
32,4,0.999118,0.00190542,0.0394809,0.01418,-0.744938,-0.0765632,9.78861,0.182851,-0.6073,1.02464,-0.00745357,-0.000770814,0.0978858,1,2.59503e-05,-2.14615e-05,6.83429e-06,0.00519005,-0.00429229,0.00136686,0.999118,0.00190542,0.0394809,0.01418,0.0361135,0.472208,-1.03612,30.0625,3,1440,188246
33,1,0.999118,0.00194125,0.0394754,0.0141884,-0.740048,-0.0702372,9.78354,0.192587,-0.59614,1.01878,-0.00740117,-0.000710709,0.0978353,1,4.14196e-05,-3.68076e-06,1.56518e-05,0.00828392,-0.000736151,0.00313036,0.999118,0.00194125,0.0394754,0.0141884,0.0376517,0.473091,-1.03156,30.0625,3,1442,188446
33,2,0.999117,0.00196332,0.0394889,0.014184,-0.729542,-0.0690439,9.78517,0.196559,-0.60054,1.01846,-0.00729327,-0.000700521,0.0978518,1,5.09379e-05,1.09261e-05,7.7984e-06,0.0101876,0.00218523,0.00155968,0.999117,0.00196332,0.0394889,0.014184,0.0390258,0.475057,-1.03304,30.0625,3,1443,188546
33,3,0.999117,0.00196332,0.0394889,0.014184,-0.729542,-0.0690439,9.78517,0.196559,-0.60054,1.01846,-0.00729327,-0.000700521,0.0978518,1,5.09379e-05,1.09261e-05,7.7984e-06,0.0101876,0.00218523,0.00155968,0.999117,0.00196332,0.0394889,0.014184,0.0390258,0.475057,-1.03304,30.0625,3,1443,188546
33,4,0.999117,0.00196332,0.0394889,0.014184,-0.729542,-0.0690439,9.78517,0.196559,-0.60054,1.01846,-0.00729327,-0.000700521,0.0978518,1,5.09379e-05,1.09261e-05,7.7984e-06,0.0101876,0.00218523,0.00155968,0.999117,0.00196332,0.0394889,0.014184,0.0390258,0.475057,-1.03304,30.0625,3,1443,188546
34,1,0.999117,0.00197225,0.0394961,0.0141726,-0.744668,-0.0422404,9.78008,0.182174,-0.572785,1.01649,-0.00744807,-0.000429325,0.0978007,1,3.5813e-05,-7.09117e-06,-5.59728e-06,0.00716261,-0.00141823,-0.00111946,0.999117,0.00197225,0.0394961,0.0141726,0.0365955,0.475095,-1.03404,30.0625,3,1445,188746
34,2,0.999117,0.00198045,0.0395022,0.0141717,-0.744771,-0.0498297,9.78543,0.189101,-0.576192,1.0186,-0.00744682,-0.000505753,0.0978543,1,3.77949e-05,4.49092e-06,3.95096e-06,0.00755897,0.000898184,0.000790191,0.999117,0.00198045,0.0395022,0.0141717,0.0380384,0.473638,-1.03509,30.0625,3,1446,188846
34,3,0.999117,0.0020054,0.0395021,0.014169,-0.758473,-0.0630935,9.78678,0.171343,-0.594447,1.0265,-0.00758513,-0.000641654,0.0978677,1,5.41508e-05,-2.10307e-06,7.86422e-06,0.0108302,-0.000420614,0.00157284,0.999117,0.0020054,0.0395021,0.014169,0.0380711,0.473132,-1.03409,30.0625,3,1447,188946
34,4,0.999117,0.0020054,0.0395021,0.014169,-0.758473,-0.0630935,9.78678,0.171343,-0.594447,1.0265,-0.00758513,-0.000641654,0.0978677,1,5.41508e-05,-2.10307e-06,7.86422e-06,0.0108302,-0.000420614,0.00157284,0.999117,0.0020054,0.0395021,0.014169,0.0380711,0.473132,-1.03409,30.0625,3,1447,188946
35,1,0.999117,0.00202666,0.0395081,0.0141669,-0.811369,-0.0554459,9.77735,0.112912,-0.58691,1.01885,-0.00811258,-0.000560705,0.0977736,1,3.10317e-05,5.63832e-06,1.09505e-05,0.00620633,0.00112766,0.00219009,0.999117,0.00202666,0.0395081,0.0141669,0.0376109,0.474084,-1.03255,30.0625,3,1449,189146
35,2,0.999117,0.00204518,0.0395133,0.0141633,-0.807654,-0.0788652,9.78765,0.125819,-0.604166,1.03221,-0.00807587,-0.000797948,0.0978765,1,4.69424e-05,3.34561e-06,6.6383e-06,0.00938848,0.000669121,0.00132766,0.999117,0.00204518,0.0395133,0.0141633,0.0385323,0.47507,-1.03354,30.0625,3,1450,189246
35,3,0.999117,0.00204518,0.0395133,0.0141633,-0.807654,-0.0788652,9.78765,0.125819,-0.604166,1.03221,-0.00807587,-0.000797948,0.0978765,1,4.69424e-05,3.34561e-06,6.6383e-06,0.00938848,0.000669121,0.00132766,0.999117,0.00204518,0.0395133,0.0141633,0.0385323,0.47507,-1.03354,30.0625,3,1450,189246
35,4,0.999117,0.00204518,0.0395133,0.0141633,-0.807654,-0.0788652,9.78765,0.125819,-0.604166,1.03221,-0.00807587,-0.000797948,0.0978765,1,4.69424e-05,3.34561e-06,6.6383e-06,0.00938848,0.000669121,0.00132766,0.999117,0.00204518,0.0395133,0.0141633,0.0385323,0.47507,-1.03354,30.0625,3,1450,189246
36,1,0.999117,0.00206479,0.0395085,0.0141718,-0.797893,-0.0694266,9.78732,0.122919,-0.608525,1.02798,-0.00797921,-0.000701352,0.0978732,1,3.54163e-05,-1.49744e-06,9.58345e-06,0.00708326,-0.000299489,0.00191669,0.999117,0.00206479,0.0395085,0.0141718,0.0375853,0.471212,-1.03564,30.0625,3,1452,189446
36,2,0.999116,0.00207983,0.0395164,0.0141634,-0.755167,-0.0569854,9.7807,0.16852,-0.602451,1.01716,-0.00755054,-0.000578386,0.0978071,1,4.39807e-05,5.78908e-06,-4.6979e-06,0.00879615,0.00115781,-0.00093958,0.999116,0.00207983,0.0395164,0.0141634,0.0370923,0.47267,-1.03511,30.0625,3,1453,189546
36,3,0.999116,0.00207983,0.0395164,0.0141634,-0.755167,-0.0569854,9.7807,0.16852,-0.602451,1.01716,-0.00755054,-0.000578386,0.0978071,1,4.39807e-05,5.78908e-06,-4.6979e-06,0.00879615,0.00115781,-0.00093958,0.999116,0.00207983,0.0395164,0.0141634,0.0370923,0.47267,-1.03511,30.0625,3,1453,189546
36,4,0.999116,0.00207983,0.0395164,0.0141634,-0.755167,-0.0569854,9.7807,0.16852,-0.602451,1.01716,-0.00755054,-0.000578386,0.0978071,1,4.39807e-05,5.78908e-06,-4.6979e-06,0.00879615,0.00115781,-0.00093958,0.999116,0.00207983,0.0395164,0.0141634,0.0370923,0.47267,-1.03511,30.0625,3,1453,189546
37,1,0.999115,0.00211078,0.0395442,0.0142085,-0.833553,-0.0483443,9.78062,0.106258,-0.583843,1.02376,-0.0083321,-0.000492002,0.0978064,1,4.14906e-05,1.74082e-05,2.65926e-05,0.00829813,0.00348165,0.00531852,0.999115,0.00211078,0.0395442,0.0142085,0.0384953,0.475097,-1.03506,30.0625,3,1455,189746
37,2,0.999114,0.00213398,0.0395474,0.0142162,-0.911028,-0.0564072,9.76717,0.0241555,-0.590891,1.01647,-0.00911004,-0.000574523,0.0976716,1,5.16325e-05,1.08633e-06,2.00365e-05,0.0103265,0.000217267,0.00400729,0.999114,0.00213398,0.0395474,0.0142162,0.0389522,0.476556,-1.03503,30.0625,3,1456,189846
37,3,0.999115,0.00212275,0.0395434,0.0142012,-0.922031,-0.0691947,9.77358,0.00474765,-0.603713,1.0279,-0.00922155,-0.000695409,0.0977357,1,1.78199e-05,-6.37027e-06,-1.13627e-06,0.00356398,-0.00127405,-0.000227254,0.999115,0.00212275,0.0395434,0.0142012,0.0379729,0.474649,-1.03709,30.0625,3,1457,189946
37,4,0.999115,0.00212275,0.0395434,0.0142012,-0.922031,-0.0691947,9.77358,0.00474765,-0.603713,1.0279,-0.00922155,-0.000695409,0.0977357,1,1.78199e-05,-6.37027e-06,-1.13627e-06,0.00356398,-0.00127405,-0.000227254,0.999115,0.00212275,0.0395434,0.0142012,0.0379729,0.474649,-1.03709,30.0625,3,1457,189946
38,1,0.999115,0.00215179,0.0395128,0.0142266,-0.855992,-0.113927,9.77446,0.0698743,-0.639167,1.02181,-0.00856339,-0.00114841,0.0977442,1,4.56291e-05,-1.78724e-05,1.25749e-05,0.00912581,-0.00357448,0.00251497,0.999115,0.00215179,0.0395128,0.0142266,0.0376223,0.471185,-1.03413,30.0625,3,1459,190146
38,2,0.999116,0.00216745,0.0395002,0.0142214,-0.793476,-0.101786,9.77922,0.139135,-0.624676,1.0181,-0.00793801,-0.0010261,0.0977919,1,4.17921e-05,-1.66633e-05,4.48167e-06,0.00835842,-0.00333266,0.000896334,0.999116,0.00216745,0.0395002,0.0142214,0.0386339,0.471141,-1.03212,30.0625,3,1460,190246
38,3,0.999116,0.00216745,0.0395002,0.0142214,-0.793476,-0.101786,9.77922,0.139135,-0.624676,1.0181,-0.00793801,-0.0010261,0.0977919,1,4.17921e-05,-1.66633e-05,4.48167e-06,0.00835842,-0.00333266,0.000896334,0.999116,0.00216745,0.0395002,0.0142214,0.0386339,0.471141,-1.03212,30.0625,3,1460,190246
38,4,0.999116,0.00216745,0.0395002,0.0142214,-0.793476,-0.101786,9.77922,0.139135,-0.624676,1.0181,-0.00793801,-0.0010261,0.0977919,1,4.17921e-05,-1.66633e-05,4.48167e-06,0.00835842,-0.00333266,0.000896334,0.999116,0.00216745,0.0395002,0.0142214,0.0386339,0.471141,-1.03212,30.0625,3,1460,190246
39,1,0.999116,0.00220067,0.0395009,0.0142409,-0.779151,-0.0709798,9.78075,0.149614,-0.60443,1.01904,-0.00779326,-0.000715438,0.0978073,1,2.77682e-05,-9.0675e-06,1.33739e-05,0.00555364,-0.0018135,0.00267479,0.999116,0.00220067,0.0395009,0.0142409,0.0370643,0.4751,-1.03455,30.0625,3,1462,190446
39,2,0.999116,0.00220655,0.0394786,0.0142584,-0.757637,-0.0444505,9.79102,0.166408,-0.58207,1.0279,-0.00758139,-0.000451553,0.0979098,1,3.41664e-05,-2.57642e-05,2.35997e-05,0.00683329,-0.00515284,0.00471994,0.999116,0.00220655,0.0394786,0.0142584,0.0370723,0.474612,-1.03456,30.0625,3,1463,190546
39,3,0.999116,0.00220655,0.0394786,0.0142584,-0.757637,-0.0444505,9.79102,0.166408,-0.58207,1.0279,-0.00758139,-0.000451553,0.0979098,1,3.41664e-05,-2.57642e-05,2.35997e-05,0.00683329,-0.00515284,0.00471994,0.999116,0.00220655,0.0394786,0.0142584,0.0370723,0.474612,-1.03456,30.0625,3,1463,190546
39,4,0.999116,0.00220655,0.0394786,0.0142584,-0.757637,-0.0444505,9.79102,0.166408,-0.58207,1.0279,-0.00758139,-0.000451553,0.0979098,1,3.41664e-05,-2.57642e-05,2.35997e-05,0.00683329,-0.00515284,0.00471994,0.999116,0.00220655,0.0394786,0.0142584,0.0370723,0.474612,-1.03456,30.0625,3,1463,190546
40,1,0.999115,0.00225123,0.0395072,0.0142756,-0.765249,-0.0524629,9.76689,0.170208,-0.588874,1.00151,-0.00764999,-0.000533601,0.097669,1,4.50779e-05,1.27387e-05,1.08628e-05,0.00901559,0.00254773,0.00217255,0.999115,0.00225123,0.0395072,0.0142756,0.0357064,0.472158,-1.03309,30.0625,3,1465,190746
40,2,0.999115,0.00227218,0.0394994,0.0142745,-0.804448,-0.0529365,9.78141,0.129551,-0.586215,1.02217,-0.00804668,-0.000538894,0.0978139,1,4.83691e-05,-1.1299e-05,4.16689e-06,0.00967382,-0.00225979,0.000833377,0.999115,0.00227218,0.0394994,0.0142745,0.0376555,0.472124,-1.03209,30.0625,3,1466,190846
40,3,0.999115,0.00228895,0.039497,0.0142834,-0.853981,-0.0673493,9.77484,0.0798066,-0.605428,1.01859,-0.00854092,-0.00068232,0.0977482,1,4.30552e-05,-5.85618e-06,2.39907e-05,0.00861103,-0.00117124,0.00479814,0.999115,0.00228895,0.039497,0.0142834,0.0376194,0.475042,-1.03152,30.0625,3,1467,190946
40,4,0.999115,0.00228895,0.039497,0.0142834,-0.853981,-0.0673493,9.77484,0.0798066,-0.605428,1.01859,-0.00854092,-0.00068232,0.0977482,1,4.30552e-05,-5.85618e-06,2.39907e-05,0.00861103,-0.00117124,0.00479814,0.999115,0.00228895,0.039497,0.0142834,0.0376194,0.475042,-1.03152,30.0625,3,1467,190946
41,1,0.999115,0.00233859,0.0394754,0.0142971,-0.812195,-0.0587253,9.78718,0.116448,-0.600517,1.02786,-0.0081234,-0.000597975,0.0978716,1,5.26607e-05,-7.58057e-06,2.54886e-05,0.0105321,-0.00151611,0.00509773,0.999115,0.00233859,0.0394754,0.0142971,0.0389432,0.474153,-1.0371,30.0625,3,1469,191146
41,2,0.999116,0.00234846,0.039457,0.0142926,-0.807869,-0.0688599,9.78674,0.126825,-0.606415,1.02705,-0.00808312,-0.000696326,0.097867,1,3.89145e-05,-2.26533e-05,6.81347e-06,0.0077829,-0.00453067,0.00136269,0.999116,0.00234846,0.039457,0.0142926,0.0381072,0.470214,-1.03466,30.0625,3,1470,191246
41,3,0.999116,0.00234846,0.039457,0.0142926,-0.807869,-0.0688599,9.78674,0.126825,-0.606415,1.02705,-0.00808312,-0.000696326,0.097867,1,3.89145e-05,-2.26533e-05,6.81347e-06,0.0077829,-0.00453067,0.00136269,0.999116,0.00234846,0.039457,0.0142926,0.0381072,0.470214,-1.03466,30.0625,3,1470,191246
41,4,0.999116,0.00234846,0.039457,0.0142926,-0.807869,-0.0688599,9.78674,0.126825,-0.606415,1.02705,-0.00808312,-0.000696326,0.097867,1,3.89145e-05,-2.26533e-05,6.81347e-06,0.0077829,-0.00453067,0.00136269,0.999116,0.00234846,0.039457,0.0142926,0.0381072,0.470214,-1.03466,30.0625,3,1470,191246
42,1,0.999117,0.00235591,0.0394325,0.0143152,-0.727348,-0.0790477,9.76982,0.195392,-0.598838,1.0008,-0.00727619,-0.000796384,0.097698,1,2.88655e-05,-1.40146e-05,1.83097e-05,0.0057731,-0.00280291,0.00366194,0.999117,0.00235591,0.0394325,0.0143152,0.037097,0.474594,-1.03355,30.0625,3,1472,191446
42,2,0.999117,0.00235678,0.0394195,0.0143256,-0.669402,-0.0722331,9.79663,0.249639,-0.600795,1.02281,-0.00669717,-0.000728072,0.0979661,1,2.81093e-05,-1.62086e-05,1.74549e-05,0.00562185,-0.00324172,0.00349097,0.999117,0.00235678,0.0394195,0.0143256,0.0375373,0.475584,-1.03454,30.0625,3,1473,191546
42,3,0.999117,0.00235678,0.0394195,0.0143256,-0.669402,-0.0722331,9.79663,0.249639,-0.600795,1.02281,-0.00669717,-0.000728072,0.0979661,1,2.81093e-05,-1.62086e-05,1.74549e-05,0.00562185,-0.00324172,0.00349097,0.999117,0.00235678,0.0394195,0.0143256,0.0375373,0.475584,-1.03454,30.0625,3,1473,191546
42,4,0.999117,0.00235678,0.0394195,0.0143256,-0.669402,-0.0722331,9.79663,0.249639,-0.600795,1.02281,-0.00669717,-0.000728072,0.0979661,1,2.81093e-05,-1.62086e-05,1.74549e-05,0.00562185,-0.00324172,0.00349097,0.999117,0.00235678,0.0394195,0.0143256,0.0375373,0.475584,-1.03454,30.0625,3,1473,191546
43,1,0.999116,0.0023812,0.0394395,0.0143377,-0.754192,-0.0685108,9.76838,0.181164,-0.619352,1.00504,-0.00754094,-0.000694103,0.0976838,1,4.42788e-05,4.84833e-06,2.28212e-05,0.00885576,0.000969665,0.00456423,0.999116,0.0023812,0.0394395,0.0143377,0.0389683,0.475581,-1.03505,30.0625,3,1475,191746
43,2,0.999116,0.00239154,0.0394507,0.0143321,-0.782034,-0.0533137,9.79957,0.145263,-0.599703,1.0396,-0.00781865,-0.000540825,0.0979958,1,3.85456e-05,8.59238e-06,8.57008e-06,0.00770911,0.00171848,0.00171402,0.999116,0.00239154,0.0394507,0.0143321,0.0390334,0.473124,-1.03409,30.0625,3,1476,191846
43,3,0.999115,0.00240816,0.0394558,0.0143455,-0.805962,-0.0498446,9.77025,0.125102,-0.594022,1.01471,-0.00805913,-0.000507185,0.0977025,1,4.26174e-05,2.343e-06,2.55051e-05,0.00852348,0.000468601,0.00510102,0.999115,0.00240816,0.0394558,0.0143455,0.0371293,0.472643,-1.03359,30.0625,3,1477,191946
43,4,0.999115,0.00240816,0.0394558,0.0143455,-0.805962,-0.0498446,9.77025,0.125102,-0.594022,1.01471,-0.00805913,-0.000507185,0.0977025,1,4.26174e-05,2.343e-06,2.55051e-05,0.00852348,0.000468601,0.00510102,0.999115,0.00240816,0.0394558,0.0143455,0.0371293,0.472643,-1.03359,30.0625,3,1477,191946
44,1,0.999116,0.00243734,0.0394384,0.0143509,-0.785537,-0.0612141,9.7958,0.13906,-0.592249,1.03451,-0.00785756,-0.000618551,0.0979578,1,3.18643e-05,-1.1215e-05,1.06618e-05,0.00637285,-0.00224301,0.00213236,0.999116,0.00243734,0.0394384,0.0143509,0.0385451,0.476506,-1.032,30.0625,3,1479,192146
44,2,0.999116,0.00245607,0.0394308,0.014347,-0.773674,-0.0649386,9.77636,0.149728,-0.597349,1.01545,-0.00773878,-0.00065845,0.0977634,1,4.562e-05,-1.04681e-05,9.31855e-06,0.00912399,-0.00209362,0.00186371,0.999116,0.00245607,0.0394308,0.014347,0.0389603,0.476068,-1.03504,30.0625,3,1480,192246
44,3,0.999116,0.00245607,0.0394308,0.014347,-0.773674,-0.0649386,9.77636,0.149728,-0.597349,1.01545,-0.00773878,-0.00065845,0.0977634,1,4.562e-05,-1.04681e-05,9.31855e-06,0.00912399,-0.00209362,0.00186371,0.999116,0.00245607,0.0394308,0.014347,0.0389603,0.476068,-1.03504,30.0625,3,1480,192246
44,4,0.999116,0.00245607,0.0394308,0.014347,-0.773674,-0.0649386,9.77636,0.149728,-0.597349,1.01545,-0.00773878,-0.00065845,0.0977634,1,4.562e-05,-1.04681e-05,9.31855e-06,0.00912399,-0.00209362,0.00186371,0.999116,0.00245607,0.0394308,0.014347,0.0389603,0.476068,-1.03504,30.0625,3,1480,192246
45,1,0.999116,0.00248771,0.0394383,0.014356,-0.787149,-0.0672023,9.78116,0.14116,-0.610749,1.0179,-0.00787038,-0.000681064,0.0978116,1,4.46215e-05,5.51304e-06,1.98059e-05,0.0089243,0.00110261,0.00396117,0.999116,0.00248771,0.0394383,0.014356,0.0366069,0.472195,-1.03562,30.0625,3,1482,192446
45,2,0.999116,0.00250396,0.0394341,0.0143567,-0.817559,-0.0723048,9.78642,0.112148,-0.621292,1.029,-0.00817697,-0.000731455,0.097864,1,4.29862e-05,-7.03875e-06,-3.49996e-07,0.00859723,-0.00140775,-6.99992e-05,0.999116,0.00250396,0.0394341,0.0143567,0.035686,0.472655,-1.03358,30.0625,3,1483,192546
45,3,0.999116,0.00250396,0.0394341,0.0143567,-0.817559,-0.0723048,9.78642,0.112148,-0.621292,1.029,-0.00817697,-0.000731455,0.097864,1,4.29862e-05,-7.03875e-06,-3.49996e-07,0.00859723,-0.00140775,-6.99992e-05,0.999116,0.00250396,0.0394341,0.0143567,0.035686,0.472655,-1.03358,30.0625,3,1483,192546
45,4,0.999116,0.00250396,0.0394341,0.0143567,-0.817559,-0.0723048,9.78642,0.112148,-0.621292,1.029,-0.00817697,-0.000731455,0.097864,1,4.29862e-05,-7.03875e-06,-3.49996e-07,0.00859723,-0.00140775,-6.99992e-05,0.999116,0.00250396,0.0394341,0.0143567,0.035686,0.472655,-1.03358,30.0625,3,1483,192546
46,1,0.999117,0.00253261,0.0394162,0.0143582,-0.80236,-0.0490623,9.78584,0.126888,-0.589049,1.02876,-0.00802615,-0.000499816,0.0978582,1,4.66629e-05,-1.30088e-05,3.75156e-06,0.00933259,-0.00260177,0.000750313,0.999117,0.00253261,0.0394162,0.0143582,0.0380384,0.473638,-1.03509,30.0625,3,1485,192746
46,2,0.999117,0.00253592,0.0393961,0.0143869,-0.789778,-0.0429944,9.77869,0.144909,-0.582691,1.01716,-0.00790226,-0.000436196,0.0977865,1,2.87478e-05,-2.30412e-05,3.98122e-05,0.00574957,-0.00460823,0.00796244,0.999117,0.00253592,0.0393961,0.0143869,0.0394775,0.473147,-1.03561,30.0625,3,1486,192846
46,3,0.999117,0.00253816,0.0393885,0.0143842,-0.829971,-0.0586778,9.77034,0.0997613,-0.596581,1.00738,-0.00830181,-0.000592596,0.0977031,1,2.86288e-05,-1.08312e-05,1.34726e-05,0.00572577,-0.00216625,0.00269452,0.999117,0.00253816,0.0393885,0.0143842,0.0380545,0.472662,-1.03511,30.0625,3,1487,192946
46,4,0.999117,0.00253816,0.0393885,0.0143842,-0.829971,-0.0586778,9.77034,0.0997613,-0.596581,1.00738,-0.00830181,-0.000592596,0.0977031,1,2.86288e-05,-1.08312e-05,1.34726e-05,0.00572577,-0.00216625,0.00269452,0.999117,0.00253816,0.0393885,0.0143842,0.0380545,0.472662,-1.03511,30.0625,3,1487,192946
47,1,0.999118,0.00258559,0.039371,0.0143894,-0.86052,-0.0803287,9.77072,0.0722625,-0.624584,1.01645,-0.00861021,-0.000812908,0.0977066,1,4.79017e-05,-2.57661e-05,1.51244e-05,0.00958034,-0.00515322,0.00302488,0.999118,0.00258559,0.039371,0.0143894,0.0375862,0.474102,-1.03356,30.0625,3,1489,193146
47,2,0.999119,0.00260429,0.0393525,0.0143801,-0.866324,-0.0828298,9.7748,0.0577352,-0.627779,1.0194,-0.00866761,-0.000837066,0.0977475,1,4.49457e-05,-2.23255e-05,-1.09344e-06,0.00898915,-0.0044651,-0.000218689,0.999119,0.00260429,0.0393525,0.0143801,0.0381328,0.473087,-1.03157,30.0625,3,1490,193246
47,3,0.999119,0.00260429,0.0393525,0.0143801,-0.866324,-0.0828298,9.7748,0.0577352,-0.627779,1.0194,-0.00866761,-0.000837066,0.0977475,1,4.49457e-05,-2.23255e-05,-1.09344e-06,0.00898915,-0.0044651,-0.000218689,0.999119,0.00260429,0.0393525,0.0143801,0.0381328,0.473087,-1.03157,30.0625,3,1490,193246
47,4,0.999119,0.00260429,0.0393525,0.0143801,-0.866324,-0.0828298,9.7748,0.0577352,-0.627779,1.0194,-0.00866761,-0.000837066,0.0977475,1,4.49457e-05,-2.23255e-05,-1.09344e-06,0.00898915,-0.0044651,-0.000218689,0.999119,0.00260429,0.0393525,0.0143801,0.0381328,0.473087,-1.03157,30.0625,3,1490,193246
48,1,0.999119,0.00262168,0.0393298,0.0143909,-0.807025,-0.0648739,9.7698,0.114727,-0.611715,1.0094,-0.00807422,-0.000655463,0.0976976,1,3.34232e-05,-2.03867e-05,1.19919e-05,0.00668464,-0.00407734,0.00239837,0.999119,0.00262168,0.0393298,0.0143909,0.0366197,0.473632,-1.03407,30.0625,3,1492,193446
48,2,0.999119,0.00263795,0.0393307,0.0144102,-0.755372,-0.0733833,9.78361,0.1663,-0.620162,1.0202,-0.00755435,-0.000742491,0.097836,1,4.27382e-05,-3.36409e-06,1.95766e-05,0.00854765,-0.000672819,0.00391533,0.999119,0.00263795,0.0393307,0.0144102,0.0380056,0.474143,-1.03609,30.0625,3,1493,193546
48,3,0.999119,0.00263795,0.0393307,0.0144102,-0.755372,-0.0733833,9.78361,0.1663,-0.620162,1.0202,-0.00755435,-0.000742491,0.097836,1,4.27382e-05,-3.36409e-06,1.95766e-05,0.00854765,-0.000672819,0.00391533,0.999119,0.00263795,0.0393307,0.0144102,0.0380056,0.474143,-1.03609,30.0625,3,1493,193546
48,4,0.999119,0.00263795,0.0393307,0.0144102,-0.755372,-0.0733833,9.78361,0.1663,-0.620162,1.0202,-0.00755435,-0.000742491,0.097836,1,4.27382e-05,-3.36409e-06,1.95766e-05,0.00854765,-0.000672819,0.00391533,0.999119,0.00263795,0.0393307,0.0144102,0.0380056,0.474143,-1.03609,30.0625,3,1493,193546
49,1,0.999118,0.00267288,0.0393349,0.0144275,-0.764205,-0.0781923,9.77685,0.157938,-0.621235,1.01267,-0.00764258,-0.00079021,0.0977684,1,4.15407e-05,-2.76071e-06,1.07736e-05,0.00830814,-0.000552142,0.00215472,0.999118,0.00267288,0.0393349,0.0144275,0.0371416,0.472634,-1.03309,30.0625,3,1495,193746
49,2,0.999118,0.0026795,0.0393351,0.0144261,-0.819238,-0.0764739,9.78028,0.110104,-0.616572,1.01927,-0.00819307,-0.000771105,0.0978027,1,3.21232e-05,-3.60242e-06,5.02534e-06,0.00642463,-0.000720483,0.00100507,0.999118,0.0026795,0.0393351,0.0144261,0.039058,0.473106,-1.03308,30.0625,3,1496,193846
49,3,0.999119,0.00269438,0.0393254,0.0144318,-0.832687,-0.0544979,9.77412,0.098476,-0.603323,1.01543,-0.00832954,-0.00055318,0.097741,1,3.95829e-05,-1.37948e-05,2.77816e-05,0.00791657,-0.00275896,0.00555631,0.999119,0.00269438,0.0393254,0.0144318,0.0395107,0.474086,-1.03357,30.0625,3,1497,193946
49,4,0.999119,0.00269438,0.0393254,0.0144318,-0.832687,-0.0544979,9.77412,0.098476,-0.603323,1.01543,-0.00832954,-0.00055318,0.097741,1,3.95829e-05,-1.37948e-05,2.77816e-05,0.00791657,-0.00275896,0.00555631,0.999119,0.00269438,0.0393254,0.0144318,0.0395107,0.474086,-1.03357,30.0625,3,1497,193946
50,1,0.99912,0.00272152,0.0392837,0.0144335,-0.908976,-0.0488145,9.7109,0.071862,-0.600907,0.977614,-0.00909253,-0.000495224,0.0971087,1,3.42968e-05,-1.43574e-05,2.29945e-05,0.00685936,-0.00287148,0.0045989,0.99912,0.00272152,0.0392837,0.0144335,0.0365585,0.475122,-1.03555,30.0625,3,1499,194146
50,2,0.999124,0.00274154,0.0391911,0.0144407,-1.00362,-0.0642141,9.54797,-0.191677,-0.628194,0.810916,-0.0100547,-0.000651126,0.0954777,1,4.66163e-05,-9.69042e-05,4.1514e-06,0.00932326,-0.0193808,0.000830281,0.999124,0.00274154,0.0391911,0.0144407,0.0365827,0.473659,-1.03559,30.0625,3,1500,194246
50,3,0.999124,0.00274154,0.0391911,0.0144407,-1.00362,-0.0642141,9.54797,-0.191677,-0.628194,0.810916,-0.0100547,-0.000651126,0.0954777,1,4.66163e-05,-9.69042e-05,4.1514e-06,0.00932326,-0.0193808,0.000830281,0.999124,0.00274154,0.0391911,0.0144407,0.0365827,0.473659,-1.03559,30.0625,3,1500,194246
50,4,0.999124,0.00274154,0.0391911,0.0144407,-1.00362,-0.0642141,9.54797,-0.191677,-0.628194,0.810916,-0.0100547,-0.000651126,0.0954777,1,4.66163e-05,-9.69042e-05,4.1514e-06,0.00932326,-0.0193808,0.000830281,0.999124,0.00274154,0.0391911,0.0144407,0.0365827,0.473659,-1.03559,30.0625,3,1500,194246
51,1,0.999132,0.00275824,0.0389646,0.0144831,-0.072726,-0.09291,9.89253,0.915438,-0.609877,1.08522,-0.000746547,-0.000935634,0.0989251,1,3.29108e-05,-9.7625e-05,1.53332e-05,0.00658215,-0.019525,0.00306665,0.999132,0.00275824,0.0389646,0.0144831,0.0385765,0.471664,-1.03412,30.0625,3,1502,194446
51,2,0.999135,0.00279568,0.0388782,0.0144711,0.013724,-0.115272,9.94199,0.917341,-0.62618,1.11246,0.000119755,-0.00116477,0.0994197,1,6.06474e-05,-8.81312e-05,1.71754e-05,0.0121295,-0.0176262,0.00343508,0.999135,0.00279568,0.0388782,0.0144711,0.0390253,0.473612,-1.03408,30.0625,3,1503,194546
51,3,0.999135,0.00279568,0.0388782,0.0144711,0.013724,-0.115272,9.94199,0.917341,-0.62618,1.11246,0.000119755,-0.00116477,0.0994197,1,6.06474e-05,-8.81312e-05,1.71754e-05,0.0121295,-0.0176262,0.00343508,0.999135,0.00279568,0.0388782,0.0144711,0.0390253,0.473612,-1.03408,30.0625,3,1503,194546
51,4,0.999135,0.00279568,0.0388782,0.0144711,0.013724,-0.115272,9.94199,0.917341,-0.62618,1.11246,0.000119755,-0.00116477,0.0994197,1,6.06474e-05,-8.81312e-05,1.71754e-05,0.0121295,-0.0176262,0.00343508,0.999135,0.00279568,0.0388782,0.0144711,0.0390253,0.473612,-1.03408,30.0625,3,1503,194546
52,1,0.999138,0.00284275,0.038828,0.0144436,-0.674037,-0.0471089,9.74463,0.235323,-0.579064,0.967499,-0.00674115,-0.000480562,0.0974462,1,4.75871e-05,-4.0477e-06,1.47868e-05,0.00951742,-0.00080954,0.00295736,0.999138,0.00284275,0.038828,0.0144436,0.0389266,0.473684,-1.03812,30.0625,3,1505,194746
52,2,0.999139,0.00286428,0.0387969,0.0144498,-0.643413,-0.0551554,9.80443,0.24147,-0.601606,1.01674,-0.00643933,-0.000561546,0.0980439,1,4.90437e-05,-2.66789e-05,2.92166e-05,0.00980874,-0.00533578,0.00584332,0.999139,0.00286428,0.0387969,0.0144498,0.0365618,0.47271,-1.03712,30.0625,3,1506,194846
52,3,0.999139,0.00288252,0.0387688,0.014478,-0.464147,-0.0482659,9.92746,0.395222,-0.596066,1.13344,-0.00464606,-0.000491759,0.0992743,1,4.48806e-05,-2.31844e-05,2.04344e-05,0.00897612,-0.00463688,0.00408688,0.999139,0.00288252,0.0387688,0.014478,0.036652,0.47168,-1.03411,30.0625,3,1507,194946
52,4,0.999139,0.00288252,0.0387688,0.014478,-0.464147,-0.0482659,9.92746,0.395222,-0.596066,1.13344,-0.00464606,-0.000491759,0.0992743,1,4.48806e-05,-2.31844e-05,2.04344e-05,0.00897612,-0.00463688,0.00408688,0.999139,0.00288252,0.0387688,0.014478,0.036652,0.47168,-1.03411,30.0625,3,1507,194946
53,1,0.999137,0.00293199,0.038822,0.0144702,-0.854163,-0.0690401,9.74389,0.0931633,-0.62369,1.01658,-0.00853151,-0.000701969,0.0974397,1,5.93417e-05,5.19122e-05,1.96183e-07,0.0118683,0.0103824,3.92365e-05,0.999137,0.00293199,0.038822,0.0144702,0.039523,0.474077,-1.03306,30.0625,3,1509,195146
53,2,0.999137,0.00293199,0.038822,0.0144702,-0.854163,-0.0690401,9.74389,0.0931633,-0.62369,1.01658,-0.00853151,-0.000701969,0.0974397,1,5.93417e-05,5.19122e-05,1.96183e-07,0.0118683,0.0103824,3.92365e-05,0.999137,0.00293199,0.038822,0.0144702,0.039523,0.474077,-1.03306,30.0625,3,1509,195146
53,3,0.999136,0.00296573,0.0388466,0.0144356,-1.12609,-0.0303542,9.62425,-0.242764,-0.585146,0.923103,-0.0112552,-0.000314884,0.0962431,1,5.81777e-05,2.97858e-05,6.34061e-06,0.0116355,0.00595717,0.00126812,0.999136,0.00296573,0.0388466,0.0144356,0.0389968,0.474596,-1.03457,30.0625,3,1510,195246
53,4,0.999136,0.00296573,0.0388466,0.0144356,-1.12609,-0.0303542,9.62425,-0.242764,-0.585146,0.923103,-0.0112552,-0.000314884,0.0962431,1,5.81777e-05,2.97858e-05,6.34061e-06,0.0116355,0.00595717,0.00126812,0.999136,0.00296573,0.0388466,0.0144356,0.0389968,0.474596,-1.03457,30.0625,3,1510,195246
54,1,0.999138,0.00298782,0.0388287,0.0143816,-0.658037,-0.0925416,9.81673,0.244038,-0.641872,1.03286,-0.00658191,-0.000930047,0.0981671,1,2.33575e-05,-7.8716e-06,3.39943e-06,0.00467151,-0.00157432,0.000679886,0.999138,0.00298782,0.0388287,0.0143816,0.0385437,0.47217,-1.03512,30.0625,3,1512,195446
54,2,0.999138,0.00300245,0.0388339,0.0143804,-0.626868,-0.113389,9.78715,0.275237,-0.677297,1.0171,-0.00626687,-0.00114188,0.0978716,1,4.03803e-05,9.12893e-06,7.31079e-06,0.00807605,0.00182579,0.00146216,0.999138,0.00300245,0.0388339,0.0143804,0.0385399,0.473137,-1.0346,30.0625,3,1513,195546
54,3,0.999138,0.00300245,0.0388339,0.0143804,-0.626868,-0.113389,9.78715,0.275237,-0.677297,1.0171,-0.00626687,-0.00114188,0.0978716,1,4.03803e-05,9.12893e-06,7.31079e-06,0.00807605,0.00182579,0.00146216,0.999138,0.00300245,0.0388339,0.0143804,0.0385399,0.473137,-1.0346,30.0625,3,1513,195546
54,4,0.999138,0.00300245,0.0388339,0.0143804,-0.626868,-0.113389,9.78715,0.275237,-0.677297,1.0171,-0.00626687,-0.00114188,0.0978716,1,4.03803e-05,9.12893e-06,7.31079e-06,0.00807605,0.00182579,0.00146216,0.999138,0.00300245,0.0388339,0.0143804,0.0385399,0.473137,-1.0346,30.0625,3,1513,195546
55,1,0.999138,0.0030229,0.0388127,0.0143852,-0.879011,-0.039674,9.66942,-0.0228734,-0.594094,0.915599,-0.00879872,-0.000403273,0.0966934,1,3.17712e-05,-4.45844e-05,2.21449e-05,0.00635424,-0.00891688,0.00442898,0.999138,0.0030229,0.0388127,0.0143852,0.0380427,0.474116,-1.03457,30.0625,3,1515,195746
55,2,0.999141,0.00303366,0.0387562,0.0143796,-0.571087,-0.0479313,9.82267,0.308964,-0.59285,1.01715,-0.00572119,-0.000486434,0.098226,1,3.52988e-05,-5.25956e-05,1.63131e-05,0.00705975,-0.0105191,0.00326262,0.999141,0.00303366,0.0387562,0.0143796,0.0394286,0.474628,-1.03659,30.0625,3,1516,195846
55,3,0.999144,0.00306214,0.0386875,0.0143545,-0.52338,-0.0619195,9.847,0.376546,-0.623911,1.04508,-0.00524636,-0.000630173,0.0984692,1,5.43486e-05,-6.39686e-05,2.61233e-05,0.0108697,-0.0127937,0.00522466,0.999144,0.00306214,0.0386875,0.0143545,0.0379971,0.473186,-1.03712,30.0625,3,1517,195946
55,4,0.999144,0.00306214,0.0386875,0.0143545,-0.52338,-0.0619195,9.847,0.376546,-0.623911,1.04508,-0.00524636,-0.000630173,0.0984692,1,5.43486e-05,-6.39686e-05,2.61233e-05,0.0108697,-0.0127937,0.00522466,0.999144,0.00306214,0.0386875,0.0143545,0.0379971,0.473186,-1.03712,30.0625,3,1517,195946
56,1,0.99915,0.00309931,0.0385337,0.0143417,-0.435854,-0.059688,9.89156,0.4864,-0.594852,1.05827,-0.00437523,-0.000604808,0.0989149,1,3.99048e-05,-8.43875e-05,3.84597e-06,0.00798096,-0.0168775,0.000769195,0.99915,0.00309931,0.0385337,0.0143417,0.037619,0.473596,-1.03256,30.0625,3,1519,196146
56,2,0.999152,0.00313496,0.0384601,0.0143325,-0.354852,-0.0483947,9.84291,0.544464,-0.59052,1.02453,-0.00356192,-0.000495187,0.0984286,1,5.67437e-05,-6.81187e-05,9.768e-06,0.0113487,-0.0136237,0.0019536,0.999152,0.00313496,0.0384601,0.0143325,0.0357562,0.473567,-1.03003,30.0625,3,1520,196246
56,3,0.999152,0.00313496,0.0384601,0.0143325,-0.354852,-0.0483947,9.84291,0.544464,-0.59052,1.02453,-0.00356192,-0.000495187,0.0984286,1,5.67437e-05,-6.81187e-05,9.768e-06,0.0113487,-0.0136237,0.0019536,0.999152,0.00313496,0.0384601,0.0143325,0.0357562,0.473567,-1.03003,30.0625,3,1520,196246
56,4,0.999152,0.00313496,0.0384601,0.0143325,-0.354852,-0.0483947,9.84291,0.544464,-0.59052,1.02453,-0.00356192,-0.000495187,0.0984286,1,5.67437e-05,-6.81187e-05,9.768e-06,0.0113487,-0.0136237,0.0019536,0.999152,0.00313496,0.0384601,0.0143325,0.0357562,0.473567,-1.03003,30.0625,3,1520,196246
57,1,0.99916,0.00312322,0.0382452,0.0143807,0.0401767,-0.122847,9.88236,0.92168,-0.636676,1.02071,0.00038107,-0.00123036,0.0988237,1,9.77299e-06,-0.000105307,4.72366e-05,0.0019546,-0.0210613,0.00944733,0.99916,0.00312322,0.0382452,0.0143807,0.0390836,0.475978,-1.02999,30.0625,3,1522,196446
57,2,0.999164,0.00311113,0.0381638,0.0143583,-0.0711464,-0.10195,9.89142,0.88371,-0.653136,1.08503,-0.000725517,-0.00102095,0.0989141,1,6.97706e-06,-7.1542e-05,4.91444e-05,0.00139541,-0.0143084,0.00982887,0.999164,0.00311113,0.0381638,0.0143583,0.0375748,0.477002,-1.03198,30.0625,3,1523,196546
57,3,0.999164,0.00311113,0.0381638,0.0143583,-0.0711464,-0.10195,9.89142,0.88371,-0.653136,1.08503,-0.000725517,-0.00102095,0.0989141,1,6.97706e-06,-7.1542e-05,4.91444e-05,0.00139541,-0.0143084,0.00982887,0.999164,0.00311113,0.0381638,0.0143583,0.0375748,0.477002,-1.03198,30.0625,3,1523,196546
57,4,0.999164,0.00311113,0.0381638,0.0143583,-0.0711464,-0.10195,9.89142,0.88371,-0.653136,1.08503,-0.000725517,-0.00102095,0.0989141,1,6.97706e-06,-7.1542e-05,4.91444e-05,0.00139541,-0.0143084,0.00982887,0.999164,0.00311113,0.0381638,0.0143583,0.0375748,0.477002,-1.03198,30.0625,3,1523,196546
58,1,0.999166,0.00312282,0.0380948,0.0143825,-0.272919,0.0567201,9.89718,0.714599,-0.509042,1.12196,-0.00272753,0.000559722,0.0989719,1,3.68725e-05,8.57215e-06,3.29265e-05,0.0073745,0.00171443,0.00658531,0.999166,0.00312282,0.0380948,0.0143825,0.0343009,0.475034,-1.02948,30.0625,3,1525,196746
58,2,0.999173,0.00313494,0.0379007,0.0143515,-1.44033,0.0358475,9.41916,-1.24337,-0.547555,0.625654,-0.0144372,0.0003531,0.0941864,1,3.48345e-05,-0.000180126,-4.11764e-05,0.0069669,-0.0360252,-0.00823527,0.999173,0.00313494,0.0379007,0.0143515,0.0334004,0.474997,-1.02696,30.0625,3,1526,196846
58,3,0.999183,0.00321819,0.0376866,0.0142596,1.17119,0.0965828,10.0118,2.06578,-0.372694,1.00311,0.0116713,0.000942097,0.100123,1,0.000107676,-0.000204035,-9.28148e-05,0.0215352,-0.040807,-0.018563,0.999183,0.00321819,0.0376866,0.0142596,0.0333961,0.474518,-1.02747,30.0625,3,1527,196946
58,4,0.999183,0.00321819,0.0376866,0.0142596,1.17119,0.0965828,10.0118,2.06578,-0.372694,1.00311,0.0116713,0.000942097,0.100123,1,0.000107676,-0.000204035,-9.28148e-05,0.0215352,-0.040807,-0.018563,0.999183,0.00321819,0.0376866,0.0142596,0.0333961,0.474518,-1.02747,30.0625,3,1527,196946
59,1,0.999189,0.00326874,0.0375511,0.0141534,-0.853547,-0.548852,9.61556,-0.413059,-1.05214,0.832226,-0.00856186,-0.00549262,0.096153,1,2.15927e-05,-0.000137043,-3.0712e-06,0.00431855,-0.0274086,-0.00061424,0.999189,0.00326874,0.0375511,0.0141534,0.0361879,0.473599,-1.03205,30.0625,3,1529,197146
59,2,0.999189,0.00326874,0.0375511,0.0141534,-0.853547,-0.548852,9.61556,-0.413059,-1.05214,0.832226,-0.00856186,-0.00549262,0.096153,1,2.15927e-05,-0.000137043,-3.0712e-06,0.00431855,-0.0274086,-0.00061424,0.999189,0.00326874,0.0375511,0.0141534,0.0361879,0.473599,-1.03205,30.0625,3,1529,197146
59,3,0.999194,0.00319903,0.0373845,0.0142595,1.25927,-0.639833,9.86239,2.14877,-1.05832,0.801426,0.0125655,-0.00638549,0.0986282,1,-5.06223e-05,-0.000145245,0.000113394,-0.0101245,-0.0290489,0.0226788,0.999194,0.00319903,0.0373845,0.0142595,0.0348224,0.472591,-1.02954,30.0625,3,1530,197246
59,4,0.999194,0.00319903,0.0373845,0.0142595,1.25927,-0.639833,9.86239,2.14877,-1.05832,0.801426,0.0125655,-0.00638549,0.0986282,1,-5.06223e-05,-0.000145245,0.000113394,-0.0101245,-0.0290489,0.0226788,0.999194,0.00319903,0.0373845,0.0142595,0.0348224,0.472591,-1.02954,30.0625,3,1530,197246
60,1,0.999201,0.00329817,0.0371418,0.0144098,0.82794,0.492094,9.67996,1.55492,-0.0151713,0.691767,0.00824888,0.00489958,0.0968032,1,0.000112204,-0.000156489,2.20127e-05,0.0224408,-0.0312977,0.00440254,0.999201,0.00329817,0.0371418,0.0144098,0.0330099,0.475416,-1.0229,30.0625,3,1532,197446
60,2,0.999206,0.00335417,0.0370112,0.0143473,0.799685,0.663527,10.272,1.92781,0.318008,1.38946,0.00797685,0.00661756,0.102723,1,8.19642e-05,-0.00010086,-5.44354e-05,0.0163929,-0.0201719,-0.0108871,0.999206,0.00335417,0.0370112,0.0143473,0.032032,0.477845,-1.02184,30.0625,3,1533,197546
60,3,0.999206,0.00335417,0.0370112,0.0143473,0.799685,0.663527,10.272,1.92781,0.318008,1.38946,0.00797685,0.00661756,0.102723,1,8.19642e-05,-0.00010086,-5.44354e-05,0.0163929,-0.0201719,-0.0108871,0.999206,0.00335417,0.0370112,0.0143473,0.032032,0.477845,-1.02184,30.0625,3,1533,197546
60,4,0.999206,0.00335417,0.0370112,0.0143473,0.799685,0.663527,10.272,1.92781,0.318008,1.38946,0.00797685,0.00661756,0.102723,1,8.19642e-05,-0.00010086,-5.44354e-05,0.0163929,-0.0201719,-0.0108871,0.999206,0.00335417,0.0370112,0.0143473,0.032032,0.477845,-1.02184,30.0625,3,1533,197546
61,1,0.999219,0.00337003,0.0367051,0.0142621,1.08033,-0.691641,9.86296,1.97271,-1.20467,1.05528,0.0107901,-0.00691287,0.0986313,1,-1.79366e-05,-6.69496e-05,-1.90085e-07,-0.00358733,-0.0133899,-3.80171e-05,0.999219,0.00337003,0.0367051,0.0142621,0.033853,0.475977,-1.02744,30.0625,3,1535,197746
61,2,0.999221,0.00334517,0.0366192,0.0142896,0.600066,-0.630272,9.87221,1.54125,-1.29919,1.02201,0.0059927,-0.00630192,0.0987226,1,-2.13233e-06,-4.23552e-05,3.16064e-05,-0.000426466,-0.00847103,0.00632129,0.999221,0.00334517,0.0366192,0.0142896,0.0343294,0.474049,-1.029,30.0625,3,1536,197846
61,3,0.999225,0.0033777,0.036506,0.0142957,0.20943,0.0127618,10.0032,1.07413,-0.688919,1.1511,0.00208079,0.000116226,0.100032,1,5.72207e-05,-6.74832e-05,1.3283e-05,0.0114441,-0.0134966,0.00265661,0.999225,0.0033777,0.036506,0.0142957,0.0347901,0.474542,-1.0295,30.0625,3,1537,197946
61,4,0.999225,0.0033777,0.036506,0.0142957,0.20943,0.0127618,10.0032,1.07413,-0.688919,1.1511,0.00208079,0.000116226,0.100032,1,5.72207e-05,-6.74832e-05,1.3283e-05,0.0114441,-0.0134966,0.00265661,0.999225,0.0033777,0.036506,0.0142957,0.0347901,0.474542,-1.0295,30.0625,3,1537,197946
62,1,0.999232,0.00340633,0.0363176,0.0143125,0.560026,0.215201,9.8339,1.49098,-0.291554,0.954143,0.00559482,0.00214929,0.0983394,1,1.5091e-05,-2.71893e-05,2.22584e-05,0.0030182,-0.00543786,0.00445169,0.999232,0.00340633,0.0363176,0.0143125,0.034216,0.479433,-1.02989,30.0625,3,1539,198146
62,2,0.999236,0.00338347,0.0361985,0.0143314,-0.133353,-0.0132895,9.72263,0.549833,-0.57064,0.933834,-0.00134625,-0.000132755,0.0972262,1,-1.07797e-06,-6.54145e-05,2.60483e-05,-0.000215595,-0.0130829,0.00520966,0.999236,0.00338347,0.0361985,0.0143314,0.0346724,0.479447,-1.0309,30.0625,3,1540,198246
62,3,0.999236,0.00338347,0.0361985,0.0143314,-0.133353,-0.0132895,9.72263,0.549833,-0.57064,0.933834,-0.00134625,-0.000132755,0.0972262,1,-1.07797e-06,-6.54145e-05,2.60483e-05,-0.000215595,-0.0130829,0.00520966,0.999236,0.00338347,0.0361985,0.0143314,0.0346724,0.479447,-1.0309,30.0625,3,1540,198246
62,4,0.999236,0.00338347,0.0361985,0.0143314,-0.133353,-0.0132895,9.72263,0.549833,-0.57064,0.933834,-0.00134625,-0.000132755,0.0972262,1,-1.07797e-06,-6.54145e-05,2.60483e-05,-0.000215595,-0.0130829,0.00520966,0.999236,0.00338347,0.0361985,0.0143314,0.0346724,0.479447,-1.0309,30.0625,3,1540,198246
63,1,0.999242,0.00334255,0.0360409,0.0143509,-0.0550582,-0.124377,9.65393,0.811675,-0.669824,0.808707,-0.00055079,-0.0012475,0.0965393,1,1.93509e-05,-1.02623e-06,-4.1578e-06,0.00387018,-0.000205246,-0.00083156,0.999242,0.00334255,0.0360409,0.0143509,0.0347659,0.476005,-1.02946,30.0625,3,1542,198446
63,2,0.999246,0.00332355,0.0359365,0.0143424,0.158152,-0.0547545,9.79154,1.01765,-0.559824,0.906604,0.00157235,-0.000548498,0.0979155,1,4.74572e-06,-4.67598e-05,-7.49374e-06,0.000949145,-0.00935196,-0.00149875,0.999246,0.00332355,0.0359365,0.0143424,0.034272,0.474573,-1.03101,30.0625,3,1543,198546
63,3,0.999246,0.00332355,0.0359365,0.0143424,0.158152,-0.0547545,9.79154,1.01765,-0.559824,0.906604,0.00157235,-0.000548498,0.0979155,1,4.74572e-06,-4.67598e-05,-7.49374e-06,0.000949145,-0.00935196,-0.00149875,0.999246,0.00332355,0.0359365,0.0143424,0.034272,0.474573,-1.03101,30.0625,3,1543,198546
63,4,0.999246,0.00332355,0.0359365,0.0143424,0.158152,-0.0547545,9.79154,1.01765,-0.559824,0.906604,0.00157235,-0.000548498,0.0979155,1,4.74572e-06,-4.67598e-05,-7.49374e-06,0.000949145,-0.00935196,-0.00149875,0.999246,0.00332355,0.0359365,0.0143424,0.034272,0.474573,-1.03101,30.0625,3,1543,198546
64,1,0.999251,0.00328979,0.0357977,0.0143441,0.114004,0.0526937,9.91797,0.992588,-0.4617,1.15011,0.00114208,0.000528276,0.0991797,1,-6.78751e-06,1.02573e-05,-3.17614e-06,-0.0013575,0.00205146,-0.000635227,0.999251,0.00328979,0.0357977,0.0143441,0.034298,0.478891,-1.02687,30.0625,3,1545,198746
64,2,0.999254,0.00324772,0.0357226,0.0143409,-0.0949604,-0.190755,9.80362,0.736128,-0.729492,0.973385,-0.000952127,-0.00190382,0.0980362,1,-1.90734e-05,-1.29136e-05,2.34552e-06,-0.00381469,-0.00258273,0.000469105,0.999254,0.00324772,0.0357226,0.0143409,0.0333111,0.478917,-1.02788,30.0625,3,1546,198846
64,3,0.999257,0.00324989,0.0356387,0.0143347,-0.04491,-0.263115,9.87358,0.901143,-0.871468,1.05501,-0.000453378,-0.00263623,0.0987357,1,2.57083e-05,-2.16251e-05,-1.45069e-06,0.00514166,-0.00432502,-0.000290139,0.999257,0.00324989,0.0356387,0.0143347,0.03285,0.476979,-1.02842,30.0625,3,1547,198946
64,4,0.999257,0.00324989,0.0356387,0.0143347,-0.04491,-0.263115,9.87358,0.901143,-0.871468,1.05501,-0.000453378,-0.00263623,0.0987357,1,2.57083e-05,-2.16251e-05,-1.45069e-06,0.00514166,-0.00432502,-0.000290139,0.999257,0.00324989,0.0356387,0.0143347,0.03285,0.476979,-1.02842,30.0625,3,1547,198946
65,1,0.999264,0.00322477,0.0354214,0.0143556,-0.00434349,-0.128983,9.74619,0.971093,-0.630752,0.897679,-4.72367e-05,-0.00129254,0.0974619,1,1.38842e-05,-1.96828e-05,1.34906e-05,0.00277683,-0.00393656,0.00269812,0.999264,0.00322477,0.0354214,0.0143556,0.0299514,0.478457,-1.02787,30.0625,3,1549,199146
65,2,0.999264,0.00322477,0.0354214,0.0143556,-0.00434349,-0.128983,9.74619,0.971093,-0.630752,0.897679,-4.72367e-05,-0.00129254,0.0974619,1,1.38842e-05,-1.96828e-05,1.34906e-05,0.00277683,-0.00393656,0.00269812,0.999264,0.00322477,0.0354214,0.0143556,0.0299514,0.478457,-1.02787,30.0625,3,1549,199146
65,3,0.99927,0.0032467,0.0352529,0.0143549,-0.0182434,-0.115757,9.69857,0.80492,-0.602258,0.856197,-0.000202567,-0.00116617,0.0969855,1,4.43304e-05,-0.000103891,8.48265e-06,0.00886607,-0.0207783,0.00169653,0.99927,0.0032467,0.0352529,0.0143549,0.0319176,0.480338,-1.02481,30.0625,3,1550,199246
65,4,0.99927,0.0032467,0.0352529,0.0143549,-0.0182434,-0.115757,9.69857,0.80492,-0.602258,0.856197,-0.000202567,-0.00116617,0.0969855,1,4.43304e-05,-0.000103891,8.48265e-06,0.00886607,-0.0207783,0.00169653,0.99927,0.0032467,0.0352529,0.0143549,0.0319176,0.480338,-1.02481,30.0625,3,1550,199246
66,1,0.999278,0.0032429,0.0350137,0.0143635,0.109882,-0.101381,9.94687,1.08585,-0.612269,1.12342,0.00108966,-0.00101889,0.0994687,1,2.5544e-05,-4.61116e-05,3.96927e-06,0.0051088,-0.00922232,0.000793854,0.999278,0.0032429,0.0350137,0.0143635,0.0356066,0.481869,-1.03035,30.0625,3,1552,199446
66,2,0.999282,0.00323292,0.0349127,0.0143498,0.313928,-0.124319,10.0013,1.22398,-0.594636,1.17286,0.00313289,-0.00124604,0.100013,1,1.40148e-05,-3.18474e-05,-8.06385e-06,0.00280296,-0.00636948,-0.00161277,0.999282,0.00323292,0.0349127,0.0143498,0.0322549,0.480921,-1.03035,30.0625,3,1553,199546
66,3,0.999282,0.00323292,0.0349127,0.0143498,0.313928,-0.124319,10.0013,1.22398,-0.594636,1.17286,0.00313289,-0.00124604,0.100013,1,1.40148e-05,-3.18474e-05,-8.06385e-06,0.00280296,-0.00636948,-0.00161277,0.999282,0.00323292,0.0349127,0.0143498,0.0322549,0.480921,-1.03035,30.0625,3,1553,199546
66,4,0.999285,0.00324363,0.0348207,0.0143503,0.133943,-0.245423,9.85183,0.981615,-0.717572,1.05118,0.0013352,-0.00246102,0.0985182,1,3.44884e-05,-2.1633e-05,5.1349e-06,0.00689769,-0.00432659,0.00102698,0.999285,0.00324363,0.0348207,0.0143503,0.0308975,0.479425,-1.02786,30.0625,3,1554,199646
67,1,0.999289,0.00325394,0.0347122,0.0143669,-0.00949558,-0.126942,9.84907,0.688349,-0.615462,1.10231,-0.000102251,-0.00127601,0.0984906,1,3.34535e-05,-3.73165e-05,2.17906e-05,0.00669071,-0.00746329,0.00435813,0.999289,0.00325394,0.0347122,0.0143669,0.0323655,0.479395,-1.02685,30.0625,3,1555,199746
67,2,0.999291,0.00329967,0.034633,0.0143726,0.151018,-0.219767,9.78408,0.955075,-0.751133,0.923518,0.00150869,-0.00221131,0.0978405,1,6.98959e-05,-7.88635e-06,1.19118e-05,0.0139792,-0.00157727,0.00238237,0.999291,0.00329967,0.034633,0.0143726,0.0328428,0.480357,-1.02633,30.0625,3,1556,199846
67,3,0.999294,0.00331406,0.0345522,0.0143724,-0.178647,0.130211,9.67528,0.538849,-0.400958,0.856235,-0.00178807,0.00129453,0.0967529,1,3.90821e-05,-8.19938e-06,5.24848e-06,0.00781643,-0.00163988,0.0010497,0.999294,0.00331406,0.0345522,0.0143724,0.0313715,0.482799,-1.02576,30.0625,3,1557,199946
67,4,0.999294,0.00331406,0.0345522,0.0143724,-0.178647,0.130211,9.67528,0.538849,-0.400958,0.856235,-0.00178807,0.00129453,0.0967529,1,3.90821e-05,-8.19938e-06,5.24848e-06,0.00781643,-0.00163988,0.0010497,0.999294,0.00331406,0.0345522,0.0143724,0.0313715,0.482799,-1.02576,30.0625,3,1557,199946
68,1,0.9993,0.00329554,0.0343647,0.0143888,0.0625299,0.0170655,9.79179,0.772562,-0.561954,0.981055,0.00062471,0.000173136,0.0979179,1,-1.26156e-05,-2.99133e-06,7.88273e-06,-0.00252312,-0.000598266,0.00157655,0.9993,0.00329554,0.0343647,0.0143888,0.0323574,0.479882,-1.02684,30.0625,3,1559,200146
68,2,0.999302,0.00329804,0.0343232,0.0143973,-0.0126366,-0.0446327,9.83625,0.838853,-0.744329,0.978376,-0.000119823,-0.000451461,0.0983625,1,2.60806e-05,3.3206e-05,1.26521e-05,0.00521612,0.00664119,0.00253041,0.999302,0.00329804,0.0343232,0.0143973,0.0304946,0.479853,-1.02431,30.0625,3,1560,200246
68,3,0.999302,0.00329804,0.0343232,0.0143973,-0.0126366,-0.0446327,9.83625,0.838853,-0.744329,0.978376,-0.000119823,-0.000451461,0.0983625,1,2.60806e-05,3.3206e-05,1.26521e-05,0.00521612,0.00664119,0.00253041,0.999302,0.00329804,0.0343232,0.0143973,0.0304946,0.479853,-1.02431,30.0625,3,1560,200246
68,4,0.999302,0.00329804,0.0343232,0.0143973,-0.0126366,-0.0446327,9.83625,0.838853,-0.744329,0.978376,-0.000119823,-0.000451461,0.0983625,1,2.60806e-05,3.3206e-05,1.26521e-05,0.00521612,0.00664119,0.00253041,0.999302,0.00329804,0.0343232,0.0143973,0.0304946,0.479853,-1.02431,30.0625,3,1560,200246
69,1,0.999304,0.00319717,0.0342612,0.0144249,-0.549475,-0.00541247,9.66337,0.214545,-0.522554,0.901531,-0.00548482,-4.96307e-05,0.0966343,1,-2.39662e-05,5.13896e-05,1.25628e-05,-0.00479325,0.0102779,0.00251256,0.999304,0.00319717,0.0342612,0.0144249,0.0327825,0.484738,-1.02573,30.0625,3,1562,200446
69,2,0.999306,0.00318782,0.0341922,0.0144642,-0.349489,-0.330148,9.80617,0.379168,-0.899466,1.00461,-0.00349352,-0.00330428,0.0980617,1,1.27442e-05,5.51649e-06,4.31685e-05,0.00254884,0.0011033,0.00863369,0.999306,0.00318782,0.0341922,0.0144642,0.0337291,0.487151,-1.02467,30.0625,3,1563,200546
69,3,0.999306,0.00318782,0.0341922,0.0144642,-0.349489,-0.330148,9.80617,0.379168,-0.899466,1.00461,-0.00349352,-0.00330428,0.0980617,1,1.27442e-05,5.51649e-06,4.31685e-05,0.00254884,0.0011033,0.00863369,0.999306,0.00318782,0.0341922,0.0144642,0.0337291,0.487151,-1.02467,30.0625,3,1563,200546
69,4,0.999308,0.00317313,0.0341222,0.0144898,-0.169891,0.12919,9.94771,0.592867,-0.302907,1.20223,-0.00169819,0.00129016,0.0994771,1,8.2272e-06,4.02712e-06,3.0927e-05,0.00164544,0.000805424,0.00618539,0.999308,0.00317313,0.0341222,0.0144898,0.0342306,0.48665,-1.02417,30.0625,3,1564,200646
70,1,0.99931,0.00320916,0.0340522,0.0144962,-0.032219,-0.258201,9.95227,0.720819,-0.830219,1.14714,-0.000321483,-0.00259378,0.0995224,1,5.90777e-05,3.21159e-06,1.30751e-05,0.0118155,0.000642318,0.00261503,0.99931,0.00320916,0.0340522,0.0144962,0.0318488,0.483761,-1.02524,30.0625,3,1565,200746
70,2,0.999311,0.00322219,0.0339937,0.0145136,-0.381173,-0.134788,9.47215,0.329566,-0.725296,0.760979,-0.00380873,-0.00135496,0.0947215,1,3.64395e-05,1.55424e-05,2.27461e-05,0.00728791,0.00310848,0.00454922,0.999311,0.00322219,0.0339937,0.0145136,0.0313999,0.481814,-1.02528,30.0625,3,1566,200846
70,3,0.999317,0.00319794,0.0338316,0.0145239,-0.18697,-0.134466,9.64122,0.560067,-0.636205,0.827318,-0.00188665,-0.00134433,0.0964119,1,-1.99063e-06,-8.81199e-05,1.4368e-05,-0.000398127,-0.017624,0.0028736,0.999317,0.00319794,0.0338316,0.0145239,0.0309278,0.484221,-1.0232,30.0625,3,1567,200946
70,4,0.999317,0.00319794,0.0338316,0.0145239,-0.18697,-0.134466,9.64122,0.560067,-0.636205,0.827318,-0.00188665,-0.00134433,0.0964119,1,-1.99063e-06,-8.81199e-05,1.4368e-05,-0.000398127,-0.017624,0.0028736,0.999317,0.00319794,0.0338316,0.0145239,0.0309278,0.484221,-1.0232,30.0625,3,1567,200946
71,1,0.999324,0.00321291,0.0335967,0.0145831,0.695735,0.00411036,10.233,1.70948,-0.608611,1.48338,0.00695923,3.55392e-05,0.10233,1,2.99086e-05,9.21018e-06,4.00001e-05,0.00598171,0.00184204,0.00800003,0.999324,0.00321291,0.0335967,0.0145831,0.0309368,0.486624,-1.02113,30.0625,3,1569,201146
71,2,0.999326,0.00320209,0.0335171,0.0146092,0.118391,0.0981174,9.87593,1.03794,-0.407937,1.08026,0.00118329,0.000978771,0.0987593,1,1.2542e-05,-2.78776e-06,3.11945e-05,0.00250841,-0.000557552,0.0062389,0.999326,0.00320209,0.0335171,0.0146092,0.0299541,0.487129,-1.02162,30.0625,3,1570,201246
71,3,0.999326,0.00320209,0.0335171,0.0146092,0.118391,0.0981174,9.87593,1.03794,-0.407937,1.08026,0.00118329,0.000978771,0.0987593,1,1.2542e-05,-2.78776e-06,3.11945e-05,0.00250841,-0.000557552,0.0062389,0.999326,0.00320209,0.0335171,0.0146092,0.0299541,0.487129,-1.02162,30.0625,3,1570,201246
71,4,0.999326,0.00320209,0.0335171,0.0146092,0.118391,0.0981174,9.87593,1.03794,-0.407937,1.08026,0.00118329,0.000978771,0.0987593,1,1.2542e-05,-2.78776e-06,3.11945e-05,0.00250841,-0.000557552,0.0062389,0.999326,0.00320209,0.0335171,0.0146092,0.0299541,0.487129,-1.02162,30.0625,3,1570,201246
72,1,0.999334,0.00322829,0.0332574,0.0146415,0.222796,-0.0672009,9.96172,1.17066,-0.83412,1.07018,0.00221557,-0.00067613,0.0996174,1,2.12028e-05,-6.23544e-05,2.3103e-05,0.00424056,-0.0124709,0.00462061,0.999334,0.00322829,0.0332574,0.0146415,0.0313643,0.486177,-1.02367,30.0625,3,1572,201446
72,2,0.999339,0.00313079,0.0331007,0.0146849,0.582597,0.168533,10.0638,1.51302,-0.300984,1.16571,0.00581018,0.00170124,0.100638,1,-7.65009e-05,-7.77124e-05,4.40316e-05,-0.0153002,-0.0155425,0.00880632,0.999339,0.00313079,0.0331007,0.0146849,0.0309861,0.486588,-1.01911,30.0625,3,1573,201546
72,3,0.999339,0.00313079,0.0331007,0.0146849,0.582597,0.168533,10.0638,1.51302,-0.300984,1.16571,0.00581018,0.00170124,0.100638,1,-7.65009e-05,-7.77124e-05,4.40316e-05,-0.0153002,-0.0155425,0.00880632,0.999339,0.00313079,0.0331007,0.0146849,0.0309861,0.486588,-1.01911,30.0625,3,1573,201546
72,4,0.999339,0.00313079,0.0331007,0.0146849,0.582597,0.168533,10.0638,1.51302,-0.300984,1.16571,0.00581018,0.00170124,0.100638,1,-7.65009e-05,-7.77124e-05,4.40316e-05,-0.0153002,-0.0155425,0.00880632,0.999339,0.00313079,0.0331007,0.0146849,0.0309861,0.486588,-1.01911,30.0625,3,1573,201546
73,1,0.999347,0.00312441,0.0328573,0.0147245,0.468163,-0.079995,9.89817,1.21493,-0.611097,1.08457,0.00467581,-0.000808805,0.0989819,1,4.56197e-05,-2.95205e-05,1.88271e-05,0.00912395,-0.0059041,0.00376542,0.999347,0.00312441,0.0328573,0.0147245,0.0305306,0.489464,-1.01601,30.0625,3,1575,201746
73,2,0.99935,0.00312533,0.0327456,0.0147301,-0.189034,0.0645304,9.77695,0.738006,-0.370981,0.885278,-0.00189622,0.000640694,0.0977694,1,2.33598e-05,-3.00096e-05,1.1185e-05,0.00467196,-0.00600192,0.002237,0.99935,0.00312533,0.0327456,0.0147301,0.0290142,0.492421,-1.01695,30.0625,3,1576,201846
73,3,0.999356,0.00311412,0.0325885,0.0147251,0.252854,0.0340284,9.87615,1.1393,-0.422984,0.974171,0.00251362,0.000338163,0.0987619,1,1.0727e-05,-7.55338e-05,-5.31064e-07,0.0021454,-0.0151068,-0.000106213,0.999356,0.00311412,0.0325885,0.0147251,0.0270323,0.492961,-1.01895,30.0625,3,1577,201946
73,4,0.999356,0.00311412,0.0325885,0.0147251,0.252854,0.0340284,9.87615,1.1393,-0.422984,0.974171,0.00251362,0.000338163,0.0987619,1,1.0727e-05,-7.55338e-05,-5.31064e-07,0.0021454,-0.0151068,-0.000106213,0.999356,0.00311412,0.0325885,0.0147251,0.0270323,0.492961,-1.01895,30.0625,3,1577,201946
74,1,0.999364,0.00302748,0.0323334,0.0147009,0.0959879,-0.317639,9.8552,0.928612,-0.862123,0.988545,0.000952501,-0.00317673,0.0985521,1,1.79523e-06,-3.76287e-05,6.05358e-06,0.000359047,-0.00752575,0.00121072,0.999364,0.00302748,0.0323334,0.0147009,0.0314682,0.489474,-1.01703,30.0625,3,1579,202146
74,2,0.99937,0.003,0.0321674,0.0146998,-0.0617202,-0.0888188,9.29637,0.388477,-0.685268,0.543482,-0.000632364,-0.00088702,0.0929636,1,-6.3101e-06,-8.15878e-05,4.11344e-06,-0.00126202,-0.0163176,0.000822688,0.99937,0.003,0.0321674,0.0146998,0.0300091,0.491907,-1.01596,30.0625,3,1580,202246
74,3,0.99937,0.003,0.0321674,0.0146998,-0.0617202,-0.0888188,9.29637,0.388477,-0.685268,0.543482,-0.000632364,-0.00088702,0.0929636,1,-6.3101e-06,-8.15878e-05,4.11344e-06,-0.00126202,-0.0163176,0.000822688,0.99937,0.003,0.0321674,0.0146998,0.0300091,0.491907,-1.01596,30.0625,3,1580,202246
74,4,0.99937,0.003,0.0321674,0.0146998,-0.0617202,-0.0888188,9.29637,0.388477,-0.685268,0.543482,-0.000632364,-0.00088702,0.0929636,1,-6.3101e-06,-8.15878e-05,4.11344e-06,-0.00126202,-0.0163176,0.000822688,0.99937,0.003,0.0321674,0.0146998,0.0300091,0.491907,-1.01596,30.0625,3,1580,202246
75,1,0.999379,0.002955,0.0318613,0.014737,0.220548,-0.106107,10.1588,0.943943,-0.764648,1.36055,0.00219857,-0.00106629,0.101589,1,2.59042e-05,-3.4138e-05,9.20441e-06,0.00518084,-0.00682761,0.00184088,0.999379,0.002955,0.0318613,0.014737,0.028069,0.494344,-1.01488,30.0625,3,1582,202446
75,2,0.999382,0.0029547,0.0317778,0.0147488,-0.387525,-0.231827,9.69161,0.566594,-0.870569,0.885046,-0.00387475,-0.00232273,0.096916,1,2.23296e-05,2.16512e-06,1.73777e-05,0.00446592,0.000433024,0.00347554,0.999382,0.0029547,0.0317778,0.0147488,0.0266014,0.495819,-1.01484,30.0625,3,1583,202546
75,3,0.999382,0.0029547,0.0317778,0.0147488,-0.387525,-0.231827,9.69161,0.566594,-0.870569,0.885046,-0.00387475,-0.00232273,0.096916,1,2.23296e-05,2.16512e-06,1.73777e-05,0.00446592,0.000433024,0.00347554,0.999382,0.0029547,0.0317778,0.0147488,0.0266014,0.495819,-1.01484,30.0625,3,1583,202546
75,4,0.999382,0.0029547,0.0317778,0.0147488,-0.387525,-0.231827,9.69161,0.566594,-0.870569,0.885046,-0.00387475,-0.00232273,0.096916,1,2.23296e-05,2.16512e-06,1.73777e-05,0.00446592,0.000433024,0.00347554,0.999382,0.0029547,0.0317778,0.0147488,0.0266014,0.495819,-1.01484,30.0625,3,1583,202546
76,1,0.999392,0.00291722,0.03145,0.0147931,0.748668,0.0524009,10.461,1.67352,-0.494014,1.51367,0.00747202,0.000526616,0.104611,1,-1.01589e-05,-6.99483e-05,3.21487e-05,-0.00203179,-0.0139897,0.00642974,0.999392,0.00291722,0.03145,0.0147931,0.0271561,0.494316,-1.01286,30.0625,3,1585,202746
76,2,0.999393,0.00290424,0.0314011,0.014808,-0.230151,-0.0292523,9.50495,0.752243,-0.515066,0.881006,-0.00229422,-0.000294539,0.0950497,1,1.01097e-05,3.82991e-05,2.0514e-05,0.00202195,0.00765982,0.0041028,0.999393,0.00290424,0.0314011,0.014808,0.0285956,0.49527,-1.01234,30.0625,3,1586,202846
76,3,0.999398,0.00292623,0.0312293,0.0148195,-0.0914935,0.0860394,9.28074,0.612903,-0.546664,0.396236,-0.000930866,0.00085234,0.0928073,1,4.32105e-05,-8.56588e-05,1.81759e-05,0.0086421,-0.0171318,0.00363519,0.999398,0.00292623,0.0312293,0.0148195,0.0280946,0.497217,-1.01179,30.0625,3,1587,202946
76,4,0.999398,0.00292623,0.0312293,0.0148195,-0.0914935,0.0860394,9.28074,0.612903,-0.546664,0.396236,-0.000930866,0.00085234,0.0928073,1,4.32105e-05,-8.56588e-05,1.81759e-05,0.0086421,-0.0171318,0.00363519,0.999398,0.00292623,0.0312293,0.0148195,0.0280946,0.497217,-1.01179,30.0625,3,1587,202946
77,1,0.999407,0.00272269,0.0309323,0.01485,0.385429,-0.144992,10.2019,1.20366,-0.561385,1.44648,0.00384918,-0.00142798,0.102019,1,-0.00010692,-2.52945e-05,1.68115e-05,-0.021384,-0.0050589,0.00336229,0.999407,0.00272269,0.0309323,0.01485,0.0237526,0.498707,-1.01123,30.0625,3,1589,203146
77,2,0.999408,0.00276201,0.0308737,0.0149042,0.163686,-1.33155,10.0762,0.974566,-1.80679,1.28151,0.00164441,-0.0133275,0.100761,1,6.04452e-05,2.93683e-05,6.13682e-05,0.012089,0.00587366,0.0122736,0.999408,0.00276201,0.0308737,0.0149042,0.0228317,0.499167,-1.0092,30.0625,3,1590,203246
77,3,0.999408,0.00276201,0.0308737,0.0149042,0.163686,-1.33155,10.0762,0.974566,-1.80679,1.28151,0.00164441,-0.0133275,0.100761,1,6.04452e-05,2.93683e-05,6.13682e-05,0.012089,0.00587366,0.0122736,0.999408,0.00276201,0.0308737,0.0149042,0.0228317,0.499167,-1.0092,30.0625,3,1590,203246
77,4,0.999408,0.00276201,0.0308737,0.0149042,0.163686,-1.33155,10.0762,0.974566,-1.80679,1.28151,0.00164441,-0.0133275,0.100761,1,6.04452e-05,2.93683e-05,6.13682e-05,0.012089,0.00587366,0.0122736,0.999408,0.00276201,0.0308737,0.0149042,0.0228317,0.499167,-1.0092,30.0625,3,1590,203246
78,1,0.99941,0.00295278,0.0307428,0.0150289,-0.191333,-0.177983,10.0165,0.525349,-0.83202,1.19155,-0.00191145,-0.00179603,0.100164,1,7.95397e-05,8.11299e-06,6.98297e-05,0.0159079,0.0016226,0.0139659,0.99941,0.00295278,0.0307428,0.0150289,0.0252662,0.499607,-1.00768,30.0625,3,1592,203446
78,2,0.999411,0.00297367,0.0306652,0.0150857,-0.263849,0.135417,9.56663,0.521988,-0.347221,0.813961,-0.00263671,0.0013453,0.0956665,1,4.45594e-05,1.02081e-05,6.53302e-05,0.00891188,0.00204163,0.013066,0.999411,0.00297367,0.0306652,0.0150857,0.0252254,0.500601,-1.00867,30.0625,3,1593,203546
78,3,0.999411,0.00297367,0.0306652,0.0150857,-0.263849,0.135417,9.56663,0.521988,-0.347221,0.813961,-0.00263671,0.0013453,0.0956665,1,4.45594e-05,1.02081e-05,6.53302e-05,0.00891188,0.00204163,0.013066,0.999411,0.00297367,0.0306652,0.0150857,0.0252254,0.500601,-1.00867,30.0625,3,1593,203546
78,4,0.999411,0.00297367,0.0306652,0.0150857,-0.263849,0.135417,9.56663,0.521988,-0.347221,0.813961,-0.00263671,0.0013453,0.0956665,1,4.45594e-05,1.02081e-05,6.53302e-05,0.00891188,0.00204163,0.013066,0.999411,0.00297367,0.0306652,0.0150857,0.0252254,0.500601,-1.00867,30.0625,3,1593,203546
79,1,0.999418,0.00303878,0.030431,0.015116,0.296268,0.0439615,10.3595,1.2315,-0.45654,1.53839,0.00295899,0.000433105,0.103595,1,3.1853e-05,-1.77322e-05,1.50933e-05,0.0063706,-0.00354644,0.00301865,0.999418,0.00303878,0.030431,0.015116,0.0242674,0.501088,-1.00815,30.0625,3,1595,203746
79,2,0.99942,0.00305516,0.0303481,0.0151266,-0.373508,0.0043494,9.60121,0.625061,-0.438374,0.835889,-0.00373429,3.5822e-05,0.0960122,1,3.92398e-05,4.12033e-06,1.83331e-05,0.00784795,0.000824066,0.00366662,0.99942,0.00305516,0.0303481,0.0151266,0.0219562,0.500557,-1.00462,30.0625,3,1596,203846
79,3,0.999424,0.00310781,0.0302065,0.0151568,-0.0123374,-0.315661,9.47902,0.883082,-0.783471,0.625398,-0.00013378,-0.00317067,0.0947897,1,7.41416e-05,-5.60662e-05,3.52747e-05,0.0148283,-0.0112132,0.00705494,0.999424,0.00310781,0.0302065,0.0151568,0.0229109,0.502482,-1.00357,30.0625,3,1597,203946
79,4,0.999424,0.00310781,0.0302065,0.0151568,-0.0123374,-0.315661,9.47902,0.883082,-0.783471,0.625398,-0.00013378,-0.00317067,0.0947897,1,7.41416e-05,-5.60662e-05,3.52747e-05,0.0148283,-0.0112132,0.00705494,0.999424,0.00310781,0.0302065,0.0151568,0.0229109,0.502482,-1.00357,30.0625,3,1597,203946
80,1,0.999433,0.0030988,0.0298822,0.0152297,0.441059,-0.498594,10.5708,1.42834,-0.995762,1.75937,0.00439186,-0.00498341,0.105709,1,-9.77354e-06,-9.1066e-05,5.22758e-05,-0.00195471,-0.0182132,0.0104552,0.999433,0.0030988,0.0298822,0.0152297,0.023327,0.504935,-1.00453,30.0625,3,1599,204146
80,2,0.999434,0.0031819,0.0297972,0.0152747,-0.123792,-0.509252,9.60039,0.646568,-1.2508,0.801853,-0.00123735,-0.00511292,0.0960028,1,0.000105545,8.11946e-08,5.40412e-05,0.021109,1.62389e-05,0.0108082,0.999434,0.0031819,0.0297972,0.0152747,0.021337,0.505962,-1.00651,30.0625,3,1600,204246
80,3,0.999434,0.0031819,0.0297972,0.0152747,-0.123792,-0.509252,9.60039,0.646568,-1.2508,0.801853,-0.00123735,-0.00511292,0.0960028,1,0.000105545,8.11946e-08,5.40412e-05,0.021109,1.62389e-05,0.0108082,0.999434,0.0031819,0.0297972,0.0152747,0.021337,0.505962,-1.00651,30.0625,3,1600,204246
80,4,0.999434,0.0031819,0.0297972,0.0152747,-0.123792,-0.509252,9.60039,0.646568,-1.2508,0.801853,-0.00123735,-0.00511292,0.0960028,1,0.000105545,8.11946e-08,5.40412e-05,0.021109,1.62389e-05,0.0108082,0.999434,0.0031819,0.0297972,0.0152747,0.021337,0.505962,-1.00651,30.0625,3,1600,204246
81,1,0.999442,0.00322461,0.0294873,0.0153687,0.915484,-0.312856,10.5912,1.52472,-1.09245,1.77162,0.00914669,-0.00312727,0.105913,1,-2.19115e-06,-3.9785e-05,4.47935e-05,-0.000438229,-0.007957,0.0089587,0.999442,0.00322461,0.0294873,0.0153687,0.0195146,0.503494,-1.00404,30.0625,3,1602,204446
81,2,0.999441,0.00319581,0.0295071,0.01539,-0.152503,0.707811,9.65434,0.63212,0.0544579,1.07051,-0.00150468,0.00707886,0.0965437,1,-4.29648e-06,0.00010736,2.62328e-05,-0.000859296,0.021472,0.00524655,0.999441,0.00319581,0.0295071,0.01539,0.0209997,0.505379,-1.00097,30.0625,3,1603,204546
81,3,0.999441,0.00319581,0.0295071,0.01539,-0.152503,0.707811,9.65434,0.63212,0.0544579,1.07051,-0.00150468,0.00707886,0.0965437,1,-4.29648e-06,0.00010736,2.62328e-05,-0.000859296,0.021472,0.00524655,0.999441,0.00319581,0.0295071,0.01539,0.0209997,0.505379,-1.00097,30.0625,3,1603,204546
81,4,0.999441,0.00319581,0.0295071,0.01539,-0.152503,0.707811,9.65434,0.63212,0.0544579,1.07051,-0.00150468,0.00707886,0.0965437,1,-4.29648e-06,0.00010736,2.62328e-05,-0.000859296,0.021472,0.00524655,0.999441,0.00319581,0.0295071,0.01539,0.0209997,0.505379,-1.00097,30.0625,3,1603,204546
82,1,0.999448,0.00302966,0.0292815,0.0154239,0.834393,-0.655029,10.7486,1.74836,-0.998415,1.95831,0.00833901,-0.00652473,0.107488,1,-0.000118697,-2.30372e-05,2.66646e-06,-0.0237394,-0.00460744,0.000533292,0.999448,0.00302966,0.0292815,0.0154239,0.0176119,0.507349,-1.00041,30.0625,3,1605,204746
82,2,0.99945,0.00310486,0.0292087,0.0154174,-0.896879,0.215683,8.78202,-0.0899383,-0.471722,0.0179145,-0.00896649,0.00213957,0.0878209,1,9.79885e-05,1.31625e-05,2.9338e-06,0.0195977,0.0026325,0.000586759,0.99945,0.00310486,0.0292087,0.0154174,0.0166829,0.508297,-0.99836,30.0625,3,1606,204846
82,3,0.999455,0.0029939,0.0290225,0.0154371,0.435367,-0.27366,10.382,0.978732,-0.714191,1.18918,0.00433318,-0.00271739,0.103821,1,-9.14554e-05,-9.93105e-05,2.51422e-05,-0.0182911,-0.0198621,0.00502845,0.999455,0.0029939,0.0290225,0.0154371,0.0167033,0.5078,-0.997866,30.0625,3,1607,204946
82,4,0.999455,0.0029939,0.0290225,0.0154371,0.435367,-0.27366,10.382,0.978732,-0.714191,1.18918,0.00433318,-0.00271739,0.103821,1,-9.14554e-05,-9.93105e-05,2.51422e-05,-0.0182911,-0.0198621,0.00502845,0.999455,0.0029939,0.0290225,0.0154371,0.0167033,0.5078,-0.997866,30.0625,3,1607,204946
83,1,0.999454,0.00300579,0.0290159,0.0155456,-0.884709,-0.471417,9.03162,-0.320698,-1.23175,0.240346,-0.00882857,-0.00472853,0.0903173,1,7.23805e-05,9.8716e-05,7.26299e-05,0.0144761,0.0197432,0.014526,0.999454,0.00300579,0.0290159,0.0155456,0.0161885,0.505419,-1.00095,30.0625,3,1609,205146
83,2,0.999454,0.00302807,0.0289569,0.0155954,-0.0975577,-0.259979,10.025,0.701173,-0.751141,1.14592,-0.000969992,-0.00260894,0.10025,1,4.50586e-05,2.63637e-05,5.75424e-05,0.00901172,0.00527273,0.0115085,0.999454,0.00302807,0.0289569,0.0155954,0.0177063,0.506799,-0.996882,30.0625,3,1610,205246
83,3,0.999454,0.00302807,0.0289569,0.0155954,-0.0975577,-0.259979,10.025,0.701173,-0.751141,1.14592,-0.000969992,-0.00260894,0.10025,1,4.50586e-05,2.63637e-05,5.75424e-05,0.00901172,0.00527273,0.0115085,0.999454,0.00302807,0.0289569,0.0155954,0.0177063,0.506799,-0.996882,30.0625,3,1610,205246
83,4,0.999454,0.00302807,0.0289569,0.0155954,-0.0975577,-0.259979,10.025,0.701173,-0.751141,1.14592,-0.000969992,-0.00260894,0.10025,1,4.50586e-05,2.63637e-05,5.75424e-05,0.00901172,0.00527273,0.0115085,0.999454,0.00302807,0.0289569,0.0155954,0.0177063,0.506799,-0.996882,30.0625,3,1610,205246
84,1,0.999458,0.00321607,0.028764,0.0156698,-0.582188,0.43615,8.98849,0.0094826,0.0780921,-0.0198097,-0.00582704,0.00434199,0.0898855,1,0.000106062,-2.68515e-05,3.84182e-05,0.0212124,-0.00537031,0.00768365,0.999458,0.00321607,0.028764,0.0156698,0.0152153,0.509772,-0.99832,30.0625,3,1612,205446
84,2,0.99946,0.00326551,0.0286754,0.0156988,0.678006,-0.232351,10.3037,1.24374,-0.768741,1.23505,0.00677918,-0.00233785,0.103037,1,7.18773e-05,-5.06883e-06,3.51969e-05,0.0143755,-0.00101377,0.00703937,0.99946,0.00326551,0.0286754,0.0156988,0.0137183,0.509341,-1.00085,30.0625,3,1613,205546
84,3,0.99946,0.00326551,0.0286754,0.0156988,0.678006,-0.232351,10.3037,1.24374,-0.768741,1.23505,0.00677918,-0.00233785,0.103037,1,7.18773e-05,-5.06883e-06,3.51969e-05,0.0143755,-0.00101377,0.00703937,0.99946,0.00326551,0.0286754,0.0156988,0.0137183,0.509341,-1.00085,30.0625,3,1613,205546
84,4,0.999459,0.00334443,0.0286774,0.0157374,-0.0453767,-0.498623,9.86488,0.614196,-1.24106,1.24976,-0.000436282,-0.00500655,0.0986479,1,0.000102774,8.62802e-05,4.62718e-05,0.0205548,0.017256,0.00925437,0.999459,0.00334443,0.0286774,0.0157374,0.0132695,0.507394,-1.00089,30.0625,3,1614,205646
85,1,0.99946,0.00343533,0.0285932,0.015798,-0.575881,0.0191663,9.1813,0.211836,-0.592292,0.372391,-0.00575888,0.000170006,0.0918131,1,0.00011348,-2.83882e-07,7.112e-05,0.0226959,-5.67764e-05,0.014224,0.99946,0.00343533,0.0285932,0.015798,0.0123694,0.508803,-0.997318,30.0625,3,1615,205746
85,2,0.999465,0.00351591,0.0284014,0.0158351,0.148179,-0.267906,10.1325,0.922244,-0.738225,1.08829,0.00145993,-0.00269954,0.101325,1,0.000101717,-0.000109129,4.73336e-05,0.0203434,-0.0218257,0.00946672,0.999465,0.00351591,0.0284014,0.0158351,0.0124396,0.509715,-0.993763,30.0625,3,1616,205846
85,3,0.999468,0.00362835,0.0282829,0.0158391,0.660682,0.635494,10.2874,1.16696,-0.107257,1.37477,0.00659917,0.00632717,0.102877,1,0.000135943,-3.62951e-05,1.49789e-05,0.0271885,-0.00725903,0.00299578,0.999468,0.00362835,0.0282829,0.0158391,0.0114162,0.511213,-0.99524,30.0625,3,1617,205946
85,4,0.999468,0.00362835,0.0282829,0.0158391,0.660682,0.635494,10.2874,1.16696,-0.107257,1.37477,0.00659917,0.00632717,0.102877,1,0.000135943,-3.62951e-05,1.49789e-05,0.0271885,-0.00725903,0.00299578,0.999468,0.00362835,0.0282829,0.0158391,0.0114162,0.511213,-0.99524,30.0625,3,1617,205946
86,1,0.999467,0.00357076,0.0283218,0.0158662,-1.21288,-0.0331235,9.19599,-0.531782,-0.518234,0.419894,-0.0121253,-0.000332479,0.0919603,1,3.97845e-06,1.90203e-05,2.11167e-05,0.00079569,0.00380407,0.00422335,0.999467,0.00357076,0.0283218,0.0158662,0.0112767,0.512279,-1.00027,30.0625,3,1619,206146
86,2,0.999472,0.00358137,0.0280885,0.0159088,0.196985,-0.486019,9.64986,0.689479,-1.12532,0.535362,0.00194134,-0.00486568,0.0964989,1,2.94e-05,-0.000150133,4.80066e-05,0.00587999,-0.0300265,0.00960132,0.999472,0.00358137,0.0280885,0.0159088,0.0089897,0.510285,-0.996765,30.0625,3,1620,206246
86,3,0.999472,0.00358137,0.0280885,0.0159088,0.196985,-0.486019,9.64986,0.689479,-1.12532,0.535362,0.00194134,-0.00486568,0.0964989,1,2.94e-05,-0.000150133,4.80066e-05,0.00587999,-0.0300265,0.00960132,0.999472,0.00358137,0.0280885,0.0159088,0.0089897,0.510285,-0.996765,30.0625,3,1620,206246
86,4,0.999472,0.00358137,0.0280885,0.0159088,0.196985,-0.486019,9.64986,0.689479,-1.12532,0.535362,0.00194134,-0.00486568,0.0964989,1,2.94e-05,-0.000150133,4.80066e-05,0.00587999,-0.0300265,0.00960132,0.999472,0.00358137,0.0280885,0.0159088,0.0089897,0.510285,-0.996765,30.0625,3,1620,206246
87,1,0.999477,0.00373262,0.0278412,0.0160325,-0.273367,-0.374951,8.56821,0.49528,-0.884036,-0.208043,-0.00274606,-0.00376954,0.0856808,1,0.000114606,-7.54928e-05,7.19845e-05,0.0229212,-0.0150986,0.0143969,0.999477,0.00373262,0.0278412,0.0160325,0.00864855,0.510669,-0.990694,30.0625,3,1622,206446
87,2,0.999483,0.0039631,0.027574,0.016065,1.22489,-0.0790294,10.2229,1.8321,-0.827863,1.07459,0.0122107,-0.000840528,0.102233,1,0.000251325,-0.000187533,4.70975e-05,0.050265,-0.0375067,0.0094195,0.999483,0.0039631,0.027574,0.016065,0.00997752,0.513149,-0.993675,30.0625,3,1623,206546
87,3,0.999483,0.0039631,0.027574,0.016065,1.22489,-0.0790294,10.2229,1.8321,-0.827863,1.07459,0.0122107,-0.000840528,0.102233,1,0.000251325,-0.000187533,4.70975e-05,0.050265,-0.0375067,0.0094195,0.999483,0.0039631,0.027574,0.016065,0.00997752,0.513149,-0.993675,30.0625,3,1623,206546
87,4,0.999483,0.0039631,0.027574,0.016065,1.22489,-0.0790294,10.2229,1.8321,-0.827863,1.07459,0.0122107,-0.000840528,0.102233,1,0.000251325,-0.000187533,4.70975e-05,0.050265,-0.0375067,0.0094195,0.999483,0.0039631,0.027574,0.016065,0.00997752,0.513149,-0.993675,30.0625,3,1623,206546
88,1,0.999488,0.00415828,0.0273586,0.0160822,-0.553755,0.364217,9.01443,0.321963,-0.121218,0.218749,-0.00553781,0.00360561,0.0901457,1,0.000202753,-1.44064e-06,2.74877e-08,0.0405505,-0.000288129,5.49753e-06,0.999488,0.00415828,0.0273586,0.0160822,0.00567595,0.512201,-0.993172,30.0625,3,1625,206746
88,2,0.999494,0.00426171,0.0271334,0.0160391,0.812916,-0.0864364,9.74065,1.29153,-0.589884,0.820262,0.00810156,-0.000889496,0.0974086,1,0.000126353,-0.000141384,-3.18502e-05,0.0252707,-0.0282769,-0.00637004,0.999494,0.00426171,0.0271334,0.0160391,0.00428529,0.509765,-0.992714,30.0625,3,1626,206846
88,3,0.999499,0.00432102,0.0269587,0.0160179,0.277476,0.387357,9.49211,1.22145,-0.217346,0.633728,0.002758,0.00385787,0.0949222,1,8.2366e-05,-8.87607e-05,-1.14586e-05,0.0164732,-0.0177521,-0.00229172,0.999499,0.00432102,0.0269587,0.0160179,0.00529641,0.508276,-0.991742,30.0625,3,1627,206946
88,4,0.999499,0.00432102,0.0269587,0.0160179,0.277476,0.387357,9.49211,1.22145,-0.217346,0.633728,0.002758,0.00385787,0.0949222,1,8.2366e-05,-8.87607e-05,-1.14586e-05,0.0164732,-0.0177521,-0.00229172,0.999499,0.00432102,0.0269587,0.0160179,0.00529641,0.508276,-0.991742,30.0625,3,1627,206946
89,1,0.999509,0.00435157,0.026568,0.0160424,1.24371,-0.697599,10.4267,2.17881,-1.39587,1.4991,0.0124393,-0.00699748,0.104265,1,0.000105507,9.56419e-06,2.02074e-05,0.0211015,0.00191284,0.00404147,0.999509,0.00435157,0.026568,0.0160424,0.00476352,0.513618,-0.990105,30.0625,3,1629,207146
89,2,0.999511,0.00437587,0.0264657,0.0160719,0.867113,0.601649,10.5264,1.24876,0.0758672,1.52369,0.00866812,0.0060072,0.105264,1,4.72034e-05,-1.21665e-05,3.76935e-05,0.00944067,-0.0024333,0.0075387,0.999511,0.00437587,0.0264657,0.0160719,0.00426153,0.512674,-0.991639,30.0625,3,1630,207246
89,3,0.999511,0.00437587,0.0264657,0.0160719,0.867113,0.601649,10.5264,1.24876,0.0758672,1.52369,0.00866812,0.0060072,0.105264,1,4.72034e-05,-1.21665e-05,3.76935e-05,0.00944067,-0.0024333,0.0075387,0.999511,0.00437587,0.0264657,0.0160719,0.00426153,0.512674,-0.991639,30.0625,3,1630,207246
89,4,0.999511,0.00437587,0.0264657,0.0160719,0.867113,0.601649,10.5264,1.24876,0.0758672,1.52369,0.00866812,0.0060072,0.105264,1,4.72034e-05,-1.21665e-05,3.76935e-05,0.00944067,-0.0024333,0.0075387,0.999511,0.00437587,0.0264657,0.0160719,0.00426153,0.512674,-0.991639,30.0625,3,1630,207246
90,1,0.999506,0.00454712,0.0266014,0.0161149,-0.383677,0.510579,9.15597,0.071066,0.0694995,0.372579,-0.00381363,0.00509303,0.0915614,1,6.86173e-05,0.00012776,2.52295e-05,0.0137235,0.0255521,0.00504591,0.999506,0.00454712,0.0266014,0.0161149,0.00426061,0.509783,-0.993724,30.0625,3,1632,207446
90,2,0.999505,0.00460171,0.0266324,0.0161245,0.0434141,-0.514652,9.55597,0.811766,-0.96769,0.753377,0.000457516,-0.00516157,0.0955588,1,7.88179e-05,0.000121292,1.88414e-05,0.0157636,0.0242584,0.00376829,0.999505,0.00460171,0.0266324,0.0161245,0.0019461,0.511664,-0.988621,30.0625,3,1633,207546
90,3,0.999505,0.00460171,0.0266324,0.0161245,0.0434141,-0.514652,9.55597,0.811766,-0.96769,0.753377,0.000457516,-0.00516157,0.0955588,1,7.88179e-05,0.000121292,1.88414e-05,0.0157636,0.0242584,0.00376829,0.999505,0.00460171,0.0266324,0.0161245,0.0019461,0.511664,-0.988621,30.0625,3,1633,207546
90,4,0.999505,0.00460171,0.0266324,0.0161245,0.0434141,-0.514652,9.55597,0.811766,-0.96769,0.753377,0.000457516,-0.00516157,0.0955588,1,7.88179e-05,0.000121292,1.88414e-05,0.0157636,0.0242584,0.00376829,0.999505,0.00460171,0.0266324,0.0161245,0.0019461,0.511664,-0.988621,30.0625,3,1633,207546
91,1,0.999503,0.00488365,0.0266469,0.0161076,0.689888,-0.181428,9.45291,1.61357,-0.781022,0.82527,0.00693938,-0.00183143,0.0945258,1,9.1147e-05,0.000214094,6.37668e-06,0.0182294,0.0428189,0.00127534,0.999503,0.00488365,0.0266469,0.0161076,0.00522757,0.511699,-0.99217,30.0625,3,1635,207746
91,2,0.999501,0.00511986,0.0266618,0.0161531,0.254524,-1.07747,9.31202,0.711745,-2.04013,0.280651,0.00256586,-0.0108228,0.093114,1,0.000260238,0.000103768,5.98734e-05,0.0520477,0.0207537,0.0119747,0.999501,0.00511986,0.0266618,0.0161531,0.00473031,0.512679,-0.992146,30.0625,3,1636,207846
91,3,0.999498,0.00517302,0.0267554,0.0161837,0.582914,1.0956,11.1689,1.33729,0.618844,2.34654,0.00586971,0.0109384,0.111689,1,8.10215e-05,0.000185498,3.95403e-05,0.0162043,0.0370997,0.00790807,0.999498,0.00517302,0.0267554,0.0161837,0.00236174,0.512672,-0.99062,30.0625,3,1637,207946
91,4,0.999498,0.00517302,0.0267554,0.0161837,0.582914,1.0956,11.1689,1.33729,0.618844,2.34654,0.00586971,0.0109384,0.111689,1,8.10215e-05,0.000185498,3.95403e-05,0.0162043,0.0370997,0.00790807,0.999498,0.00517302,0.0267554,0.0161837,0.00236174,0.512672,-0.99062,30.0625,3,1637,207946
92,1,0.9995,0.00523912,0.0266922,0.0161132,-0.53053,1.08008,9.95138,0.441301,0.665672,1.32387,-0.00530669,0.0108154,0.0995121,1,-7.1515e-05,-1.07802e-05,-3.48388e-05,-0.014303,-0.00215604,-0.00696777,0.9995,0.00523912,0.0266922,0.0161132,0.0061656,0.513154,-0.992142,30.0625,3,1639,208146
92,2,0.999511,0.00513251,0.0263361,0.0160592,-1.09686,0.306159,8.94537,-0.54399,-0.361832,0.209474,-0.011016,0.00307856,0.0894473,1,-8.92153e-05,-0.000266475,-4.59125e-05,-0.0178431,-0.053295,-0.0091825,0.999511,0.00513251,0.0263361,0.0160592,0.00670839,0.513105,-0.989621,30.0625,3,1640,208246
92,3,0.999511,0.00513251,0.0263361,0.0160592,-1.09686,0.306159,8.94537,-0.54399,-0.361832,0.209474,-0.011016,0.00307856,0.0894473,1,-8.92153e-05,-0.000266475,-4.59125e-05,-0.0178431,-0.053295,-0.0091825,0.999511,0.00513251,0.0263361,0.0160592,0.00670839,0.513105,-0.989621,30.0625,3,1640,208246
92,4,0.999511,0.00513251,0.0263361,0.0160592,-1.09686,0.306159,8.94537,-0.54399,-0.361832,0.209474,-0.011016,0.00307856,0.0894473,1,-8.92153e-05,-0.000266475,-4.59125e-05,-0.0178431,-0.053295,-0.0091825,0.999511,0.00513251,0.0263361,0.0160592,0.00670839,0.513105,-0.989621,30.0625,3,1640,208246
93,1,0.999528,0.00505411,0.0257257,0.0160167,-0.0876571,-0.97684,9.4516,1.01163,-1.80263,1.07348,-0.000892383,-0.00980528,0.0945121,1,0.000195135,-8.33323e-05,-3.05737e-06,0.0390269,-0.0166665,-0.000611475,0.999528,0.00505411,0.0257257,0.0160167,0.00421737,0.516079,-0.991058,30.0625,3,1642,208446
93,2,0.999539,0.00508482,0.0253036,0.0160175,0.827531,-0.0336022,10.1593,0.949616,-0.350848,1.00299,0.00820706,-0.000345683,0.101598,1,4.84455e-05,-0.000335938,1.10799e-05,0.00968909,-0.0671876,0.00221598,0.999539,0.00508482,0.0253036,0.0160175,0.00135108,0.515606,-0.990551,30.0625,3,1643,208546
93,3,0.999539,0.00508482,0.0253036,0.0160175,0.827531,-0.0336022,10.1593,0.949616,-0.350848,1.00299,0.00820706,-0.000345683,0.101598,1,4.84455e-05,-0.000335938,1.10799e-05,0.00968909,-0.0671876,0.00221598,0.999539,0.00508482,0.0253036,0.0160175,0.00135108,0.515606,-0.990551,30.0625,3,1643,208546
93,4,0.999539,0.00508482,0.0253036,0.0160175,0.827531,-0.0336022,10.1593,0.949616,-0.350848,1.00299,0.00820706,-0.000345683,0.101598,1,4.84455e-05,-0.000335938,1.10799e-05,0.00968909,-0.0671876,0.00221598,0.999539,0.00508482,0.0253036,0.0160175,0.00135108,0.515606,-0.990551,30.0625,3,1643,208546
94,1,0.999554,0.00524447,0.0246551,0.0160319,2.48347,-0.291214,11.2577,2.8596,-0.686932,2.00488,0.0247702,-0.00292964,0.112591,1,8.20187e-05,-0.0002871,1.95048e-05,0.0164037,-0.05742,0.00390095,0.999554,0.00524447,0.0246551,0.0160319,0.00156505,0.515932,-0.981453,30.0625,3,1645,208746
94,2,0.999553,0.0054812,0.0246385,0.0160358,0.0983119,0.359598,9.08311,0.89621,-0.576886,0.43614,0.000995861,0.00354843,0.0908328,1,0.000261935,7.08917e-05,1.91271e-05,0.0523871,0.0141783,0.00382543,0.999553,0.0054812,0.0246385,0.0160358,0.00249454,0.516429,-0.982457,30.0625,3,1646,208846
94,3,0.999556,0.00558509,0.0244848,0.0160378,0.752152,-0.774762,9.02038,1.4811,-1.27735,-0.105153,0.00751013,-0.00777013,0.0902028,1,0.000126037,-6.44247e-05,1.50056e-05,0.0252073,-0.0128849,0.00300112,0.999556,0.00558509,0.0244848,0.0160378,0.00253916,0.514469,-0.981995,30.0625,3,1647,208946
94,4,0.999556,0.00558509,0.0244848,0.0160378,0.752152,-0.774762,9.02038,1.4811,-1.27735,-0.105153,0.00751013,-0.00777013,0.0902028,1,0.000126037,-6.44247e-05,1.50056e-05,0.0252073,-0.0128849,0.00300112,0.999556,0.00558509,0.0244848,0.0160378,0.00253916,0.514469,-0.981995,30.0625,3,1647,208946
95,1,0.999569,0.0057615,0.0239483,0.0159737,2.03539,0.120848,9.87231,2.55093,-0.609564,0.930984,0.0203263,0.00122298,0.0987286,1,-7.77683e-05,-0.000139624,-2.12174e-05,-0.0155537,-0.0279248,-0.00424347,0.999569,0.0057615,0.0239483,0.0159737,0.00198022,0.515494,-0.984495,30.0625,3,1649,209146
95,2,0.999571,0.00575781,0.0238775,0.0159664,0.507667,1.19633,10.0992,0.759002,-0.112424,0.858951,0.00508146,0.0119595,0.100992,1,1.8944e-05,2.39538e-05,2.16335e-06,0.0037888,0.00479076,0.00043267,0.999571,0.00575781,0.0238775,0.0159664,0.00203764,0.51497,-0.982487,30.0625,3,1650,209246
95,3,0.999571,0.00575781,0.0238775,0.0159664,0.507667,1.19633,10.0992,0.759002,-0.112424,0.858951,0.00508146,0.0119595,0.100992,1,1.8944e-05,2.39538e-05,2.16335e-06,0.0037888,0.00479076,0.00043267,0.999571,0.00575781,0.0238775,0.0159664,0.00203764,0.51497,-0.982487,30.0625,3,1650,209246
95,4,0.999571,0.00575781,0.0238775,0.0159664,0.507667,1.19633,10.0992,0.759002,-0.112424,0.858951,0.00508146,0.0119595,0.100992,1,1.8944e-05,2.39538e-05,2.16335e-06,0.0037888,0.00479076,0.00043267,0.999571,0.00575781,0.0238775,0.0159664,0.00203764,0.51497,-0.982487,30.0625,3,1650,209246
96,1,0.999561,0.00582283,0.0242092,0.0160703,-3.19245,1.00106,6.98605,-3.49371,-0.0586379,-2.08389,-0.0319021,0.00997154,0.0698763,1,0.000248365,0.000170588,6.90531e-05,0.049673,0.0341176,0.0138106,0.999561,0.00582283,0.0242092,0.0160703,0.00259034,0.520214,-0.975807,30.0625,3,1652,209446
96,2,0.99956,0.00596832,0.0242109,0.0160804,0.0966473,-0.242473,11.233,0.931566,-1.22993,2.37117,0.000987397,-0.00246278,0.112329,1,0.000169551,9.26812e-05,2.09294e-05,0.0339102,0.0185362,0.00418587,0.99956,0.00596832,0.0242109,0.0160804,0.00345435,0.521724,-0.978808,30.0625,3,1653,209546
96,3,0.99956,0.00596832,0.0242109,0.0160804,0.0966473,-0.242473,11.233,0.931566,-1.22993,2.37117,0.000987397,-0.00246278,0.112329,1,0.000169551,9.26812e-05,2.09294e-05,0.0339102,0.0185362,0.00418587,0.99956,0.00596832,0.0242109,0.0160804,0.00345435,0.521724,-0.978808,30.0625,3,1653,209546
96,4,0.99956,0.00596832,0.0242109,0.0160804,0.0966473,-0.242473,11.233,0.931566,-1.22993,2.37117,0.000987397,-0.00246278,0.112329,1,0.000169551,9.26812e-05,2.09294e-05,0.0339102,0.0185362,0.00418587,0.99956,0.00596832,0.0242109,0.0160804,0.00345435,0.521724,-0.978808,30.0625,3,1653,209546
97,1,0.999563,0.00575732,0.0242422,0.0159409,-2.61036,-0.297611,6.67838,-2.10079,-1.43582,-1.89826,-0.0260909,-0.00298442,0.0667883,1,9.97574e-05,9.93944e-05,-9.61261e-05,0.0199515,0.0198789,-0.0192252,0.999563,0.00575732,0.0242422,0.0159409,0.00396867,0.522659,-0.976769,30.0625,3,1655,209746
97,2,0.999572,0.00548786,0.0239638,0.0158454,0.947809,-0.703716,10.945,1.42953,-0.989734,1.80114,0.00943602,-0.00698394,0.109457,1,-0.000251177,-0.000186216,-9.33425e-05,-0.0502353,-0.0372431,-0.0186685,0.999572,0.00548786,0.0239638,0.0158454,0.00447446,0.522637,-0.975762,30.0625,3,1656,209846
97,3,0.999576,0.0055502,0.0238491,0.0157723,-0.151759,0.109849,9.60798,0.274703,-0.978487,0.845164,-0.00152253,0.00108263,0.09608,1,8.35446e-05,-2.64196e-05,-6.2068e-05,0.0167089,-0.00528392,-0.0124136,0.999576,0.0055502,0.0238491,0.0157723,0.00354969,0.524063,-0.973201,30.0625,3,1657,209946
97,4,0.999576,0.0055502,0.0238491,0.0157723,-0.151759,0.109849,9.60798,0.274703,-0.978487,0.845164,-0.00152253,0.00108263,0.09608,1,8.35446e-05,-2.64196e-05,-6.2068e-05,0.0167089,-0.00528392,-0.0124136,0.999576,0.0055502,0.0238491,0.0157723,0.00354969,0.524063,-0.973201,30.0625,3,1657,209946
98,1,0.99958,0.00535055,0.0236781,0.015815,-0.218686,0.310379,9.63814,0.279411,-0.328918,0.444654,-0.00218002,0.00308973,0.096382,1,7.19428e-05,3.69109e-05,4.50291e-05,0.0143886,0.00738218,0.00900581,0.99958,0.00535055,0.0236781,0.015815,0.00399091,0.527944,-0.972106,30.0625,3,1659,210146
98,2,0.999579,0.00533786,0.0236718,0.0158761,0.317,-1.67506,9.73283,1.25714,-2.34039,1.06865,0.00318848,-0.0167517,0.0973275,1,7.86094e-06,8.26536e-05,7.11259e-05,0.00157219,0.0165307,0.0142252,0.999579,0.00533786,0.0236718,0.0158761,0.00496122,0.527448,-0.972122,30.0625,3,1660,210246
98,3,0.999579,0.00533786,0.0236718,0.0158761,0.317,-1.67506,9.73283,1.25714,-2.34039,1.06865,0.00318848,-0.0167517,0.0973275,1,7.86094e-06,8.26536e-05,7.11259e-05,0.00157219,0.0165307,0.0142252,0.999579,0.00533786,0.0236718,0.0158761,0.00496122,0.527448,-0.972122,30.0625,3,1660,210246
98,4,0.999579,0.00533786,0.0236718,0.0158761,0.317,-1.67506,9.73283,1.25714,-2.34039,1.06865,0.00318848,-0.0167517,0.0973275,1,7.86094e-06,8.26536e-05,7.11259e-05,0.00157219,0.0165307,0.0142252,0.999579,0.00533786,0.0236718,0.0158761,0.00496122,0.527448,-0.972122,30.0625,3,1660,210246
99,1,0.99958,0.00563322,0.0235203,0.0159729,-0.354595,-0.58559,9.5285,0.46299,-1.93684,0.569624,-0.00352918,-0.00591958,0.0952817,1,0.000331851,8.41846e-05,6.15038e-05,0.0663702,0.0168369,0.0123008,0.99958,0.00563322,0.0235203,0.0159729,0.00318478,0.527356,-0.966055,30.0625,3,1662,210446
99,2,0.99958,0.00543016,0.0235174,0.0160377,1.13536,1.45754,11.6666,1.99927,1.11652,3.2022,0.011372,0.014619,0.116659,1,-0.000179991,8.73037e-05,6.85881e-05,-0.0359983,0.0174607,0.0137176,0.99958,0.00543016,0.0235174,0.0160377,0.00369956,0.529736,-0.962974,30.0625,3,1663,210546
99,3,0.99958,0.00543016,0.0235174,0.0160377,1.13536,1.45754,11.6666,1.99927,1.11652,3.2022,0.011372,0.014619,0.116659,1,-0.000179991,8.73037e-05,6.85881e-05,-0.0359983,0.0174607,0.0137176,0.99958,0.00543016,0.0235174,0.0160377,0.00369956,0.529736,-0.962974,30.0625,3,1663,210546
99,4,0.99958,0.00543016,0.0235174,0.0160377,1.13536,1.45754,11.6666,1.99927,1.11652,3.2022,0.011372,0.014619,0.116659,1,-0.000179991,8.73037e-05,6.85881e-05,-0.0359983,0.0174607,0.0137176,0.99958,0.00543016,0.0235174,0.0160377,0.00369956,0.529736,-0.962974,30.0625,3,1663,210546
100,1,0.999588,0.00515805,0.0232414,0.0160315,0.117699,-0.694118,9.72704,0.778506,-1.09364,0.770349,0.00115299,-0.00690667,0.0972732,1,-0.000177496,-0.00012271,-9.44727e-06,-0.0354991,-0.024542,-0.00188945,0.999588,0.00515805,0.0232414,0.0160315,0.00364779,0.535075,-0.96134,30.0625,3,1665,210746
100,2,0.999593,0.00506131,0.0230535,0.0160252,1.53006,0.284148,11.8361,1.9139,-0.165733,2.56976,0.0152766,0.00285996,0.118364,1,-7.79795e-05,-0.00010156,5.79411e-07,-0.0155959,-0.0203121,0.000115882,0.999593,0.00506131,0.0230535,0.0160252,0.00366819,0.534578,-0.960846,30.0625,3,1666,210846
100,3,0.999588,0.00509129,0.0232556,0.0160216,-0.148997,-0.954453,9.78839,0.818687,-1.95949,1.32431,-0.00143338,-0.00955519,0.0978837,1,5.43663e-05,0.000288537,5.31529e-06,0.0108733,0.0577075,0.00106306,0.999588,0.00509129,0.0232556,0.0160216,0.000843165,0.534557,-0.958308,30.0625,3,1667,210946
100,4,0.999588,0.00509129,0.0232556,0.0160216,-0.148997,-0.954453,9.78839,0.818687,-1.95949,1.32431,-0.00143338,-0.00955519,0.0978837,1,5.43663e-05,0.000288537,5.31529e-06,0.0108733,0.0577075,0.00106306,0.999588,0.00509129,0.0232556,0.0160216,0.000843165,0.534557,-0.958308,30.0625,3,1667,210946
101,1,0.999592,0.00497123,0.0231105,0.0160455,-0.543371,-0.397186,9.45148,-0.308393,-1.2769,0.0865877,-0.00544903,-0.00398523,0.0945134,1,6.99166e-05,-8.162e-05,1.39572e-05,0.0139833,-0.016324,0.00279144,0.999592,0.00497123,0.0231105,0.0160455,0.0010576,0.536328,-0.948169,30.0625,3,1669,211146
101,2,0.999593,0.00481621,0.0230685,0.0160956,0.966809,-1.38751,10.8566,1.65179,-1.61053,1.99539,0.00967931,-0.0138449,0.108568,1,-0.000134387,4.46084e-05,5.5402e-05,-0.0268775,0.00892168,0.0110804,0.999593,0.00481621,0.0230685,0.0160956,0.00158091,0.539666,-0.944056,30.0625,3,1670,211246
101,3,0.999593,0.00481621,0.0230685,0.0160956,0.966809,-1.38751,10.8566,1.65179,-1.61053,1.99539,0.00967931,-0.0138449,0.108568,1,-0.000134387,4.46084e-05,5.5402e-05,-0.0268775,0.00892168,0.0110804,0.999593,0.00481621,0.0230685,0.0160956,0.00158091,0.539666,-0.944056,30.0625,3,1670,211246
101,4,0.999593,0.00481621,0.0230685,0.0160956,0.966809,-1.38751,10.8566,1.65179,-1.61053,1.99539,0.00967931,-0.0138449,0.108568,1,-0.000134387,4.46084e-05,5.5402e-05,-0.0268775,0.00892168,0.0110804,0.999593,0.00481621,0.0230685,0.0160956,0.00158091,0.539666,-0.944056,30.0625,3,1670,211246
102,1,0.999587,0.00524503,0.023168,0.0161705,-0.906361,-0.418974,8.62189,-0.382034,-1.55227,-0.382017,-0.00905213,-0.00422494,0.0862184,1,0.000199798,6.45752e-05,4.11813e-05,0.0399595,0.0129151,0.00823626,0.999587,0.00524503,0.023168,0.0161705,0.000488164,0.543142,-0.947004,30.0625,3,1672,211446
