frame_id,imu_idx,quat_w,quat_x,quat_y,quat_z,accel_x,accel_y,accel_z,free_accel_x,free_accel_y,free_accel_z,delta_v_x,delta_v_y,delta_v_z,delta_q_w,delta_q_x,delta_q_y,delta_q_z,rate_x,rate_y,rate_z,quat_w,quat_x,quat_y,quat_z,mag_x,mag_y,mag_z,temperature,status_byte,packet_counter,time_fine
1,1,0.9993,-0.00280104,0.0372997,-0.000100421,-0.725754,-0.0522703,9.78208,0.0748935,-0.491933,0.996473,-0.0072616,-0.000530825,0.0978204,1,4.098e-05,-2.07872e-05,7.20297e-06,0.00819599,-0.00415744,0.00144059,0.9993,-0.00280104,0.0372997,-0.000100421,0.0783432,0.505319,-0.997195,30.8125,1,8970,942701
1,2,0.999301,-0.0027353,0.0372922,-0.000118346,-0.740741,-0.0650013,9.78817,0.0665037,-0.505768,1.00207,-0.00740768,-0.000660951,0.0978816,1,5.6332e-05,-1.3447e-06,-6.00719e-06,0.0112664,-0.000268939,-0.00120144,0.999301,-0.0027353,0.0372922,-0.000118346,0.0779428,0.500445,-0.997302,30.8125,1,8971,942801
1,3,0.999301,-0.00263536,0.0372943,-8.7052e-05,-0.740546,-0.0557095,9.78078,0.06138,-0.49249,0.999643,-0.00740519,-0.000566445,0.0978078,1,4.70747e-05,1.33939e-06,9.57009e-06,0.00941494,0.000267878,0.00191402,0.999301,-0.00263536,0.0372943,-8.7052e-05,0.0767168,0.498371,-0.989766,30.8125,1,8973,943001
1,4,0.999302,-0.00254364,0.037272,-7.07761e-05,-0.746597,-0.0459408,9.78906,0.0564722,-0.483381,1.00151,-0.00746811,-0.000469453,0.0978904,1,5.01256e-05,-1.09953e-05,1.55102e-05,0.0100251,-0.00219907,0.00310204,0.999302,-0.00254364,0.037272,-7.07761e-05,0.0794607,0.501824,-0.993238,30.8125,1,8975,943201
2,1,0.999303,-0.0024525,0.037242,-2.39129e-05,-0.732202,-0.056734,9.78582,0.0723009,-0.494587,0.998958,-0.00732488,-0.000577015,0.0978579,1,4.70766e-05,-1.48079e-05,3.15065e-05,0.00941532,-0.00296158,0.00630131,0.999303,-0.0024525,0.037242,-2.39129e-05,0.0784605,0.498969,-0.996832,30.8125,1,8977,943401
2,2,0.999305,-0.00236787,0.0372091,-4.39319e-06,-0.727129,-0.0468853,9.79469,0.0775153,-0.488514,1.01343,-0.00727477,-0.000478374,0.0979466,1,4.80488e-05,-1.78309e-05,7.44703e-06,0.00960977,-0.00356618,0.00148941,0.999305,-0.00236787,0.0372091,-4.39319e-06,0.0776871,0.497875,-0.989782,30.8125,1,8979,943601
2,3,0.999305,-0.00232392,0.0371931,9.84297e-06,-0.73162,-0.0468632,9.78285,0.0735269,-0.486677,0.992447,-0.00731934,-0.000477359,0.0978282,1,4.33996e-05,-1.61269e-05,1.60541e-05,0.00867992,-0.00322538,0.00321082,0.999305,-0.00232392,0.0371931,9.84297e-06,0.0790412,0.501783,-0.990711,30.8125,1,8980,943701
2,4,0.999306,-0.00222628,0.0371781,3.71765e-05,-0.780123,-0.0735137,9.78022,0.0214576,-0.52478,0.995789,-0.00780228,-0.000745612,0.0978021,1,5.28098e-05,-5.45355e-06,9.2776e-06,0.010562,-0.00109071,0.00185552,0.999306,-0.00222628,0.0371781,3.71765e-05,0.0798388,0.501414,-0.997794,30.8125,1,8982,943901
3,1,0.999308,-0.00212815,0.0371239,6.97769e-05,-0.772844,-0.0705963,9.77648,0.0240919,-0.526765,0.99755,-0.00773355,-0.000718076,0.0977644,1,6.03423e-05,-2.62577e-05,2.03753e-05,0.0120685,-0.00525153,0.00407506,0.999308,-0.00212815,0.0371239,6.97769e-05,0.0780206,0.499425,-0.9948,30.8125,1,8984,944101
3,2,0.99931,-0.00202947,0.0370955,6.16783e-05,-0.76872,-0.0448269,9.78922,0.0283015,-0.496732,1.00592,-0.00768879,-0.000457637,0.097892,1,4.80172e-05,-8.11524e-06,-2.19804e-06,0.00960344,-0.00162305,-0.000439609,0.99931,-0.00202947,0.0370955,6.16783e-05,0.0790901,0.500302,-0.989734,30.8125,1,8986,944301
3,3,0.99931,-0.0019533,0.0370921,7.49484e-05,-0.798521,-0.0654852,9.77466,-0.00339872,-0.519401,0.991863,-0.00798732,-0.000663222,0.0977463,1,4.17568e-05,-1.08686e-05,1.29489e-05,0.00835137,-0.00217372,0.00258978,0.99931,-0.0019533,0.0370921,7.49484e-05,0.0779025,0.502884,-0.997247,30.8125,1,8988,944501
3,4,0.999311,-0.00187458,0.0370673,0.000114277,-0.77473,-0.0633299,9.77994,0.0240754,-0.523592,1.00024,-0.00775093,-0.000640718,0.0977991,1,3.61687e-05,-1.86972e-05,2.22048e-05,0.00723374,-0.00373944,0.00444097,0.999311,-0.00187458,0.0370673,0.000114277,0.0751743,0.49701,-0.99484,30.8125,1,8990,944701
4,1,0.999312,-0.00182942,0.0370503,0.000117642,-0.776616,-0.0698566,9.78702,0.0164289,-0.526102,1.00591,-0.00776971,-0.000707606,0.0978699,1,4.57651e-05,-1.82168e-05,5.28236e-06,0.00915303,-0.00364337,0.00105647,0.999312,-0.00182942,0.0370503,0.000117642,0.0767453,0.497386,-0.989283,30.8125,1,8991,944801
4,2,0.999312,-0.00172277,0.0370374,0.000124164,-0.775741,-0.0676307,9.77482,0.0246745,-0.524507,0.986363,-0.0077606,-0.000686568,0.0977478,1,5.2046e-05,-1.63485e-05,5.6029e-06,0.0104092,-0.0032697,0.00112058,0.999312,-0.00172277,0.0370374,0.000124164,0.0784785,0.503775,-0.992685,30.8125,1,8993,945001
4,3,0.999313,-0.00162529,0.0370269,0.000146037,-0.753178,-0.0527983,9.78496,0.0453831,-0.513982,0.994531,-0.00753148,-0.000538085,0.0978496,1,5.13531e-05,1.49023e-06,3.50376e-06,0.0102706,0.000298047,0.000700752,0.999313,-0.00162529,0.0370269,0.000146037,0.0779177,0.499018,-0.999354,30.8125,1,8995,945201
4,4,0.999313,-0.00152329,0.0370255,0.000175115,-0.746093,-0.049926,9.77883,0.0533192,-0.50936,0.997375,-0.00746104,-0.000510045,0.0977882,1,5.4406e-05,-6.18353e-07,9.69521e-06,0.0108812,-0.000123671,0.00193904,0.999313,-0.00152329,0.0370255,0.000175115,0.0776952,0.497387,-0.989793,30.8125,1,8997,945401
5,1,0.999314,-0.00143388,0.0370036,0.000208331,-0.73323,-0.0605546,9.79325,0.0645985,-0.525906,1.00444,-0.00733497,-0.000614268,0.0979323,1,4.31629e-05,-1.37312e-05,1.82767e-05,0.00863259,-0.00274624,0.00365534,0.999314,-0.00143388,0.0370036,0.000208331,0.0794284,0.503776,-0.993194,30.8125,1,8999,945601
5,2,0.999314,-0.00140628,0.0370044,0.000213339,-0.725653,-0.0598702,9.7742,0.0669624,-0.531859,0.984244,-0.00725674,-0.000604382,0.0977419,1,2.8586e-05,-1.10068e-06,6.31265e-06,0.00571719,-0.000220136,0.00126253,0.999314,-0.00140628,0.0370044,0.000213339,0.0797857,0.502416,-0.999287,30.8125,1,9000,945701
5,3,0.999314,-0.00133877,0.0370124,0.000228646,-0.756537,-0.0657534,9.78521,0.0416333,-0.538436,1.00649,-0.00756337,-0.000663994,0.0978522,1,3.20785e-05,1.01066e-05,1.20421e-05,0.00641569,0.00202132,0.00240841,0.999314,-0.00133877,0.0370124,0.000228646,0.0776454,0.495978,-0.992854,30.8125,1,9002,945901
5,4,0.999315,-0.00126265,0.0369909,0.000245945,-0.763379,-0.0663607,9.79137,0.0332429,-0.528218,1.00506,-0.00763578,-0.000671933,0.0979135,1,4.11739e-05,-1.02632e-05,1.72721e-05,0.00823477,-0.00205263,0.00345442,0.999315,-0.00126265,0.0369909,0.000245945,0.0800609,0.501252,-0.988708,30.8125,1,9004,946101
6,1,0.999316,-0.00117305,0.0369736,0.00023658,-0.747933,-0.0637229,9.77771,0.046719,-0.538986,0.989673,-0.00748134,-0.000646633,0.0977769,1,4.83207e-05,-1.02856e-05,-3.01552e-06,0.00966415,-0.00205712,-0.000603103,0.999316,-0.00117305,0.0369736,0.00023658,0.0793496,0.501906,-0.997781,30.8125,1,9006,946301
6,2,0.999316,-0.00108167,0.0369619,0.00027024,-0.759752,-0.0654061,9.77609,0.0328306,-0.54316,0.996358,-0.00760068,-0.000664251,0.0977606,1,5.11333e-05,-1.62236e-05,1.26288e-05,0.0102267,-0.00324472,0.00252576,0.999316,-0.00108167,0.0369619,0.00027024,0.077103,0.497473,-0.994334,30.8125,1,9008,946501
6,3,0.999317,-0.000994901,0.0369465,0.000287893,-0.761473,-0.0454255,9.79087,0.0362564,-0.518264,0.999321,-0.00761732,-0.000462262,0.0979084,1,4.02334e-05,-1.32896e-05,8.42087e-06,0.00804667,-0.00265791,0.00168417,0.999317,-0.000994901,0.0369465,0.000287893,0.0795878,0.500768,-0.988716,30.8125,1,9010,946701
6,4,0.999317,-0.000968091,0.0369428,0.000300097,-0.764914,-0.0555627,9.78638,0.0268019,-0.530825,0.993993,-0.00765044,-0.000561568,0.0978637,1,2.92734e-05,-6.70183e-06,1.38002e-05,0.00585468,-0.00134037,0.00276004,0.999317,-0.000968091,0.0369428,0.000300097,0.0818373,0.501344,-0.994775,30.8125,1,9011,946801
7,1,0.999317,-0.000875567,0.0369448,0.000317463,-0.784962,-0.0667104,9.77998,0.00516289,-0.549107,0.999354,-0.00784971,-0.000678463,0.0977997,1,5.70939e-05,-5.29503e-07,1.2228e-05,0.0114188,-0.000105901,0.0024456,0.999317,-0.000875567,0.0369448,0.000317463,0.0765356,0.49754,-0.997865,30.8125,1,9013,947001
7,2,0.999319,-0.000784309,0.036904,0.000331223,-0.757913,-0.0651047,9.77914,0.0357307,-0.54775,0.994365,-0.00758403,-0.0006601,0.097791,1,4.54839e-05,-2.51123e-05,1.03675e-05,0.00909678,-0.00502246,0.0020735,0.999319,-0.000784309,0.036904,0.000331223,0.0762234,0.498384,-0.990269,30.8125,1,9015,947201
7,3,0.999318,-0.000713275,0.0369141,0.000333609,-0.779961,-0.071988,9.77921,0.0151613,-0.552618,0.991594,-0.00779888,-0.000727091,0.0977921,1,3.62172e-05,3.62653e-06,8.14737e-06,0.00724344,0.000725306,0.00162947,0.999318,-0.000713275,0.0369141,0.000333609,0.0813239,0.503299,-0.994729,30.8125,1,9017,947401
7,4,0.999319,-0.00061451,0.0368966,0.000354236,-0.765395,-0.071018,9.78287,0.0188327,-0.56208,1.00025,-0.00765898,-0.000719744,0.0978282,1,4.88684e-05,-2.56914e-05,2.20134e-07,0.00977368,-0.00513828,4.40268e-05,0.999319,-0.00061451,0.0368966,0.000354236,0.0779139,0.499985,-0.998827,30.8125,1,9019,947601
8,1,0.99932,-0.000575974,0.036876,0.000376131,-0.751244,-0.052754,9.77377,0.0401956,-0.54533,0.992305,-0.00751748,-0.000536236,0.0977373,1,4.25652e-05,-2.59262e-05,2.49817e-05,0.00851304,-0.00518524,0.00499635,0.99932,-0.000575974,0.036876,0.000376131,0.0766015,0.497973,-0.994825,30.8125,1,9020,947701
8,2,0.99932,-0.000490214,0.036871,0.000384571,-0.758702,-0.0579647,9.79073,0.030013,-0.546935,1.00189,-0.00758894,-0.000590559,0.0979071,1,5.54211e-05,-9.85533e-06,3.89652e-06,0.0110842,-0.00197107,0.000779304,0.99932,-0.000490214,0.036871,0.000384571,0.0786213,0.500297,-0.989227,30.8125,1,9022,947901
8,3,0.99932,-0.000405264,0.0368731,0.000416007,-0.739013,-0.0626699,9.78411,0.0503064,-0.552462,0.990043,-0.00739211,-0.000635369,0.0978409,1,4.30457e-05,-1.0241e-05,1.66836e-05,0.00860914,-0.00204821,0.00333673,0.99932,-0.000405264,0.0368731,0.000416007,0.0793003,0.501942,-0.9998,30.8125,1,9024,948101
8,4,0.99932,-0.000326422,0.0368763,0.000437553,-0.771017,-0.0712681,9.78493,0.0261648,-0.564669,0.998101,-0.00771094,-0.000720308,0.0978492,1,3.82866e-05,-4.03453e-06,8.74344e-06,0.00765732,-0.000806905,0.00174869,0.99932,-0.000326422,0.0368763,0.000437553,0.0761693,0.496496,-0.993846,30.8125,1,9026,948301
9,1,0.99932,-0.000268212,0.036872,0.000447294,-0.758481,-0.0599934,9.78868,0.0332994,-0.551575,1.0031,-0.00758531,-0.0006049,0.0978867,1,2.45385e-05,-2.60596e-06,1.06674e-05,0.00490769,-0.000521192,0.00213348,0.99932,-0.000268212,0.036872,0.000447294,0.0795551,0.501274,-0.989715,30.8125,1,9028,948501
9,2,0.99932,-0.000228162,0.0368708,0.000445624,-0.743459,-0.0749377,9.78064,0.0466583,-0.566703,0.990543,-0.00743556,-0.000758271,0.0978062,1,4.49065e-05,-5.04596e-06,7.39675e-06,0.00898129,-0.00100919,0.00147935,0.99932,-0.000228162,0.0368708,0.000445624,0.079901,0.502814,-0.994228,30.8125,1,9029,948601
9,3,0.99932,-0.000171275,0.036864,0.00047037,-0.736303,-0.05752,9.78753,0.0578276,-0.554955,0.998355,-0.00736562,-0.000584622,0.097875,1,4.70243e-05,-1.33572e-05,1.47633e-05,0.00940486,-0.00267145,0.00295267,0.99932,-0.000171275,0.036864,0.00047037,0.0773996,0.499049,-1.00087,30.8125,1,9031,948801
9,4,0.99932,-9.1034e-05,0.0368652,0.000494001,-0.738495,-0.0574689,9.77906,0.0487618,-0.552347,0.9918,-0.00738527,-0.000583172,0.0977905,1,4.25838e-05,-1.67441e-06,1.04494e-05,0.00851676,-0.000334882,0.00208988,0.99932,-9.1034e-05,0.0368652,0.000494001,0.0777692,0.497333,-0.986764,30.8125,1,9033,949001
10,1,0.999321,-1.02474e-05,0.0368492,0.000476584,-0.757755,-0.0624427,9.78288,0.0301165,-0.560439,0.995981,-0.00757872,-0.00063213,0.0978287,1,3.81004e-05,-6.08145e-06,1.64043e-05,0.00762009,-0.00121629,0.00328085,0.999321,-1.02474e-05,0.0368492,0.000476584,0.0794445,0.5028,-0.993216,30.8125,1,9035,949201
10,2,0.999321,4.43723e-05,0.0368407,0.000478342,-0.775652,-0.0550081,9.77627,0.0148342,-0.557081,0.989223,-0.007757,-0.000560126,0.0977626,1,5.03342e-05,-2.52018e-06,1.31245e-05,0.0100668,-0.000504036,0.0026249,0.999321,4.43723e-05,0.0368407,0.000478342,0.0774817,0.498507,-0.997848,30.8125,1,9037,949401
10,3,0.999321,0.000118931,0.0368378,0.000507695,-0.769184,-0.035761,9.77234,0.0218781,-0.54727,0.986373,-0.00769528,-0.000365644,0.0977231,1,4.13617e-05,-1.75876e-05,-3.21666e-06,0.00827234,-0.00351751,-0.000643333,0.999321,0.000118931,0.0368378,0.000507695,0.078238,0.497338,-0.987271,30.8125,1,9039,949601
10,4,0.999322,0.000166757,0.0368084,0.000494706,-0.744523,-0.0802211,9.78571,0.0479886,-0.578913,1.00311,-0.00745047,-0.000810189,0.0978566,1,4.02424e-05,-2.68296e-05,6.85842e-06,0.00804848,-0.00536591,0.00137168,0.999322,0.000166757,0.0368084,0.000494706,0.0805705,0.500263,-0.988227,30.8125,1,9040,949701
11,1,0.999323,0.000212319,0.0367801,0.000497367,-0.765608,-0.0545777,9.77925,0.0299999,-0.554833,0.988243,-0.00765867,-0.000551399,0.0977922,1,2.69357e-05,-1.33721e-05,2.30967e-05,0.00538715,-0.00267442,0.00461934,0.999323,0.000212319,0.0367801,0.000497367,0.0788358,0.502415,-0.998777,30.875,1,9042,949901
11,2,0.999323,0.000243224,0.036777,0.000520297,-0.770286,-0.0451584,9.77659,0.0239028,-0.554708,0.987347,-0.00770475,-0.000460237,0.0977657,1,4.38317e-05,-9.6969e-06,5.4133e-06,0.00876634,-0.00193938,0.00108266,0.999323,0.000243224,0.036777,0.000520297,0.0752279,0.497452,-0.992305,30.875,1,9044,950101
11,3,0.999324,0.000327098,0.0367645,0.000554904,-0.772587,-0.0421121,9.77562,0.0194017,-0.551577,0.986417,-0.00772745,-0.000428521,0.0977561,1,3.62378e-05,-8.1994e-06,2.03903e-05,0.00724755,-0.00163988,0.00407807,0.999324,0.000327098,0.0367645,0.000554904,0.0785682,0.5013,-0.99072,30.875,1,9046,950301
11,4,0.999324,0.000359545,0.0367601,0.000567114,-0.776917,-0.0641415,9.78156,0.0154164,-0.570589,0.992157,-0.00777002,-0.00064942,0.0978155,1,3.97655e-05,-4.44063e-06,1.45475e-05,0.0079531,-0.000888127,0.0029095,0.999324,0.000359545,0.0367601,0.000567114,0.0783751,0.501923,-0.998281,30.875,1,9048,950501
12,1,0.999324,0.0003605,0.0367651,0.000591234,-0.771978,-0.0611456,9.78632,0.0197775,-0.573393,0.995547,-0.0077218,-0.000618068,0.097863,1,3.23878e-05,-1.04011e-05,1.76931e-05,0.00647756,-0.00208023,0.00353861,0.999324,0.0003605,0.0367651,0.000591234,0.0764905,0.498055,-0.999369,30.875,1,9049,950601
12,2,0.999324,0.000409346,0.0367657,0.000642711,-0.743689,-0.045999,9.7781,0.0425892,-0.557215,0.98813,-0.00743919,-0.000468726,0.0977808,1,4.31704e-05,-1.18762e-05,1.96903e-05,0.00863408,-0.00237525,0.00393806,0.999324,0.000409346,0.0367657,0.000642711,0.0772349,0.49834,-0.988254,30.875,1,9051,950801
12,3,0.999325,0.000492235,0.0367415,0.000638031,-0.730072,-0.0585532,9.76603,0.0564232,-0.564262,0.976115,-0.00730205,-0.000592939,0.0976602,1,3.66326e-05,-6.91069e-06,1.72164e-05,0.00732652,-0.00138214,0.00344328,0.999325,0.000492235,0.0367415,0.000638031,0.078478,0.502329,-0.993727,30.875,1,9053,951001
12,4,0.999324,0.000529228,0.0367505,0.000689112,-0.759462,-0.0727816,9.78476,0.0342146,-0.585543,0.995443,-0.00759536,-0.000738034,0.0978475,1,5.07254e-05,-3.90389e-06,1.91705e-05,0.0101451,-0.000780778,0.0038341,0.999324,0.000529228,0.0367505,0.000689112,0.0774409,0.499501,-0.998836,30.875,1,9055,951201
13,1,0.999324,0.000577128,0.0367647,0.000718547,-0.77995,-0.0637172,9.77345,0.00545016,-0.579769,0.984338,-0.00780156,-0.000645307,0.0977343,1,4.03096e-05,-1.06575e-05,1.63765e-05,0.00806191,-0.0021315,0.00327531,0.999324,0.000577128,0.0367647,0.000718547,0.0786868,0.499285,-0.98723,30.875,1,9057,951401
13,2,0.999325,0.000682767,0.036732,0.000703745,-0.774474,-0.0602137,9.77718,0.0172242,-0.575533,0.989558,-0.00774629,-0.000612042,0.0977716,1,4.92037e-05,-8.02776e-06,1.83171e-05,0.00984075,-0.00160555,0.00366342,0.999325,0.000682767,0.036732,0.000703745,0.0808793,0.501831,-0.994254,30.875,1,9059,951601
13,3,0.999325,0.000689183,0.0367288,0.000681537,-0.775585,-0.0735215,9.78624,0.0147283,-0.585518,0.995827,-0.00775922,-0.000742477,0.097862,1,3.64371e-05,-1.72594e-05,8.40965e-06,0.00728742,-0.00345187,0.00168193,0.999325,0.000689183,0.0367288,0.000681537,0.0803527,0.500904,-0.996798,30.875,1,9060,951701
13,4,0.999325,0.000717715,0.0367298,0.000718324,-0.756768,-0.0616416,9.78925,0.0324508,-0.578798,1.00141,-0.007569,-0.000624744,0.0978924,1,4.14345e-05,-6.86041e-06,1.42642e-05,0.00828689,-0.00137208,0.00285285,0.999325,0.000717715,0.0367298,0.000718324,0.0747672,0.49696,-0.991809,30.875,1,9062,951901
14,1,0.999326,0.000836728,0.0366949,0.000757619,-0.74747,-0.0527385,9.76552,0.0448646,-0.570474,0.973059,-0.00747684,-0.000536371,0.097655,1,4.46921e-05,-1.10421e-05,1.71609e-05,0.00893842,-0.00220841,0.00343217,0.999326,0.000836728,0.0366949,0.000757619,0.0781487,0.501259,-0.988194,30.875,1,9064,952101
14,2,0.999326,0.000887567,0.0366982,0.000761186,-0.765075,-0.0598519,9.77915,0.0252039,-0.579305,0.9875,-0.00765168,-0.000606704,0.0977913,1,4.07732e-05,-4.84862e-06,1.38025e-05,0.00815464,-0.000969724,0.00276049,0.999326,0.000887567,0.0366982,0.000761186,0.0778161,0.502947,-1.00078,30.875,1,9066,952301
14,3,0.999325,0.000875422,0.0367209,0.000833288,-0.77435,-0.0658859,9.78357,0.0136967,-0.590411,0.99077,-0.00774634,-0.000666269,0.0978355,1,3.67463e-05,-1.46197e-05,1.42269e-05,0.00734927,-0.00292394,0.00284538,0.999325,0.000875422,0.0367209,0.000833288,0.0761736,0.496975,-0.99333,30.875,1,9068,952501
14,4,0.999325,0.000910532,0.0367061,0.000825081,-0.77096,-0.0641185,9.7812,0.0192283,-0.588552,0.991779,-0.00771336,-0.000648054,0.0978116,1,3.49841e-05,-1.92506e-05,1.61876e-06,0.00699682,-0.00385012,0.000323752,0.999325,0.000910532,0.0367061,0.000825081,0.0782052,0.497844,-0.98827,30.875,1,9069,952601
15,1,0.999327,0.00100662,0.0366692,0.000778221,-0.75939,-0.0645104,9.77331,0.0300415,-0.590718,0.982229,-0.00759832,-0.000654542,0.0977327,1,4.75626e-05,-2.2674e-05,9.31516e-06,0.00951253,-0.00453479,0.00186303,0.999327,0.00100662,0.0366692,0.000778221,0.0803536,0.503795,-0.994713,30.875,1,9071,952801
15,2,0.999326,0.0010023,0.036696,0.000745733,-0.730244,-0.0658027,9.78904,0.059052,-0.589333,0.998186,-0.00730252,-0.000666933,0.0978903,1,4.54113e-05,-4.09971e-07,1.05982e-06,0.00908226,-8.19941e-05,0.000211964,0.999326,0.0010023,0.036696,0.000745733,0.0775263,0.496547,-0.997387,30.875,1,9073,953001
15,3,0.999326,0.00104368,0.0366945,0.000801474,-0.739876,-0.0576953,9.779,0.0491339,-0.583952,0.987249,-0.00740112,-0.000583392,0.0977897,1,3.26801e-05,-1.21185e-05,3.232e-06,0.00653602,-0.0024237,0.000646399,0.999326,0.00104368,0.0366945,0.000801474,0.0757057,0.49986,-0.990739,30.875,1,9075,953201
15,4,0.999326,0.00112449,0.0366777,0.000812907,-0.756602,-0.0759504,9.79117,0.0287189,-0.604056,1.0012,-0.00756796,-0.000769829,0.0979115,1,5.21168e-05,-9.98217e-06,7.84552e-06,0.0104234,-0.00199643,0.0015691,0.999326,0.00112449,0.0366777,0.000812907,0.0817969,0.503783,-0.99472,30.875,1,9077,953401
16,1,0.999326,0.00113599,0.0366881,0.000806592,-0.761062,-0.0743593,9.79019,0.0311431,-0.601398,1.00146,-0.00761202,-0.000753663,0.0979017,1,4.93712e-05,-7.34482e-06,2.64179e-05,0.00987425,-0.00146896,0.00528359,0.999326,0.00113599,0.0366881,0.000806592,0.0793288,0.500957,-0.999317,30.875,1,9078,953501
16,2,0.999325,0.00111941,0.0367123,0.000837885,-0.755488,-0.0596959,9.77468,0.0346625,-0.583655,0.983396,-0.00755605,-0.000601526,0.0977467,1,2.29999e-05,-6.05362e-06,4.68447e-06,0.00459999,-0.00121072,0.000936895,0.999325,0.00111941,0.0367123,0.000837885,0.0757579,0.495967,-0.991331,30.875,1,9080,953701
16,3,0.999326,0.00120701,0.0366739,0.000836377,-0.756382,-0.0609386,9.78757,0.029445,-0.590437,0.998913,-0.00756609,-0.000617718,0.0978754,1,4.2146e-05,-1.16455e-05,5.39986e-06,0.0084292,-0.0023291,0.00107997,0.999326,0.00120701,0.0366739,0.000836377,0.0781079,0.502252,-0.989181,30.875,1,9082,953901
16,4,0.999326,0.00123078,0.0366818,0.000815324,-0.751504,-0.0564268,9.78077,0.0345836,-0.584695,0.985166,-0.00751549,-0.00057094,0.0978077,1,3.31122e-05,-2.38778e-06,1.30127e-05,0.00662243,-0.000477557,0.00260253,0.999326,0.00123078,0.0366818,0.000815324,0.0812494,0.501908,-0.9988,30.875,1,9084,954101
17,1,0.999325,0.00122655,0.0367194,0.000828922,-0.736727,-0.0603687,9.78099,0.0525792,-0.58856,0.991514,-0.0073682,-0.000610987,0.0978098,1,3.62639e-05,-4.87628e-06,1.40405e-05,0.00725278,-0.000975256,0.00280811,0.999325,0.00122655,0.0367194,0.000828922,0.0776535,0.49549,-0.992865,30.875,1,9086,954301
17,2,0.999324,0.00131619,0.0367293,0.00082153,-0.750252,-0.0816052,9.77479,0.0375938,-0.611211,0.988078,-0.00750276,-0.000824344,0.0977479,1,4.08422e-05,-1.41566e-06,2.05114e-05,0.00816845,-0.000283131,0.00410228,0.999324,0.00131619,0.0367293,0.00082153,0.0780998,0.50274,-0.989171,30.875,1,9088,954501
17,3,0.999324,0.00132502,0.0367271,0.000808429,-0.761487,-0.0699499,9.78108,0.0232816,-0.602816,0.991074,-0.00761541,-0.000704093,0.0978107,1,2.29944e-05,-2.8256e-06,6.26214e-06,0.00459887,-0.00056512,0.00125243,0.999324,0.00132502,0.0367271,0.000808429,0.0789268,0.504276,-0.993686,30.875,1,9089,954601
17,4,0.999323,0.00134018,0.0367572,0.000822417,-0.770182,-0.0513783,9.78163,0.0199812,-0.584447,0.987361,-0.00770155,-0.000522374,0.0978163,1,4.18966e-05,1.24423e-06,2.56075e-05,0.00837932,0.000248846,0.0051215,0.999323,0.00134018,0.0367572,0.000822417,0.0765356,0.49754,-0.997865,30.875,1,9091,954801
18,1,0.999323,0.00138106,0.0367561,0.000885144,-0.745035,-0.0662473,9.78101,0.0470359,-0.597878,0.989535,-0.00745472,-0.000670114,0.0978097,1,3.84301e-05,-2.24208e-05,8.27575e-06,0.00768601,-0.00448415,0.00165515,0.999323,0.00138106,0.0367561,0.000885144,0.0786978,0.494941,-0.989852,30.875,1,9093,955001
18,2,0.999323,0.00145916,0.0367514,0.000804749,-0.739735,-0.0383864,9.77407,0.0497985,-0.573421,0.981148,-0.00739826,-0.000394244,0.0977406,1,5.26682e-05,-4.65093e-06,5.65694e-06,0.0105336,-0.000930187,0.00113139,0.999323,0.00145916,0.0367514,0.000804749,0.0803455,0.504282,-0.994702,30.875,1,9095,955201
18,3,0.999323,0.00146216,0.0367486,0.000768403,-0.788633,-0.0675759,9.78501,0.00039264,-0.605771,0.993217,-0.00788885,-0.000685836,0.0978499,1,5.08278e-05,-1.29659e-05,8.24414e-06,0.0101656,-0.00259319,0.00164883,0.999323,0.00146216,0.0367486,0.000768403,0.0789369,0.497041,-0.998392,30.875,1,9097,955401
18,4,0.999323,0.00147202,0.0367651,0.000785896,-0.772189,-0.0842415,9.78815,0.0138751,-0.618192,0.998868,-0.00772275,-0.000851468,0.0978813,1,4.5741e-05,-4.45907e-06,6.36443e-06,0.00914821,-0.000891813,0.00127289,0.999323,0.00147202,0.0367651,0.000785896,0.0791091,0.495469,-0.992367,30.875,1,9098,955501
19,1,0.999322,0.00156266,0.0367678,0.000761685,-0.751734,-0.0559534,9.77638,0.0353922,-0.594614,0.986369,-0.00751949,-0.000569504,0.0977636,1,5.01443e-05,-1.1051e-05,1.10101e-05,0.0100289,-0.00221019,0.00220202,0.999322,0.00156266,0.0367678,0.000761685,0.0795304,0.501292,-0.990725,30.875,1,9100,955701
19,2,0.999323,0.00160541,0.0367616,0.000693966,-0.754717,-0.0569024,9.77877,0.0342705,-0.595638,0.980129,-0.00755017,-0.000579852,0.0977874,1,5.39218e-05,-1.54224e-05,1.86581e-05,0.0107844,-0.00308447,0.00373163,0.999323,0.00160541,0.0367616,0.000693966,0.0802995,0.501907,-0.99829,30.875,1,9102,955901
19,3,0.999323,0.0016037,0.0367569,0.000706517,-0.736871,-0.068864,9.78703,0.0520555,-0.607923,0.999358,-0.00737167,-0.000698333,0.09787,1,4.90845e-05,-1.51636e-05,5.77231e-06,0.0098169,-0.00303272,0.00115446,0.999323,0.0016037,0.0367569,0.000706517,0.0756924,0.496979,-0.993328,30.875,1,9104,956101
19,4,0.999323,0.00170121,0.0367576,0.000783137,-0.778932,-0.0620263,9.77685,0.0151197,-0.599529,0.9844,-0.0077902,-0.000630017,0.0977684,1,4.81252e-05,-4.66636e-06,2.21095e-05,0.00962504,-0.000933272,0.0044219,0.999323,0.00170121,0.0367576,0.000783137,0.0795223,0.501779,-0.990714,30.875,1,9106,956301
20,1,0.999322,0.00173341,0.0367602,0.000776322,-0.785989,-0.0666508,9.78703,0.00557785,-0.612601,0.99661,-0.0078618,-0.000676114,0.0978701,1,4.76521e-05,-9.88074e-06,1.77438e-05,0.00953042,-0.00197615,0.00354877,0.999322,0.00173341,0.0367602,0.000776322,0.0793577,0.501418,-0.997792,30.875,1,9108,956501
20,2,0.999322,0.00174111,0.0367622,0.000778031,-0.764378,-0.0602859,9.79544,0.024369,-0.601265,0.999993,-0.00764693,-0.000613355,0.097954,1,5.30742e-05,-1.60934e-05,6.40345e-06,0.0106148,-0.00321868,0.00128069,0.999322,0.00174111,0.0367622,0.000778031,0.0775187,0.49848,-0.996333,30.875,1,9109,956601
20,3,0.999322,0.0018091,0.0367686,0.000841278,-0.770412,-0.0579686,9.76462,0.0218774,-0.60097,0.972981,-0.00770653,-0.000590783,0.097646,1,5.57807e-05,-1.24072e-05,1.3215e-05,0.0111561,-0.00248144,0.002643,0.999322,0.0018091,0.0367686,0.000841278,0.0748697,0.495921,-0.988297,30.875,1,9111,956801
20,4,0.999322,0.00187776,0.0367666,0.000846578,-0.744603,-0.0678367,9.78979,0.0450414,-0.609151,0.994925,-0.00744445,-0.000684891,0.097898,1,3.29446e-05,8.04661e-06,4.90812e-06,0.00658892,0.00160932,0.000981625,0.999322,0.00187776,0.0367666,0.000846578,0.0803863,0.503289,-0.993714,30.875,1,9113,957001
21,1,0.999321,0.00189065,0.0367976,0.00086129,-0.749759,-0.0519559,9.77606,0.0384913,-0.599608,0.980468,-0.00749868,-0.000527414,0.0977605,1,3.90094e-05,-5.66622e-06,1.51786e-05,0.00780188,-0.00113324,0.00303571,0.999321,0.00189065,0.0367976,0.00086129,0.0770371,0.497039,-0.997373,30.875,1,9115,957201
21,2,0.99932,0.00192002,0.0368147,0.000879996,-0.764671,-0.0646401,9.78283,0.0261538,-0.608298,0.989295,-0.00764686,-0.000651937,0.0978283,1,2.79397e-05,-7.82233e-07,4.54304e-06,0.00558793,-0.000156447,0.000908608,0.99932,0.00192002,0.0368147,0.000879996,0.0777118,0.497857,-0.988772,30.875,1,9117,957401
21,3,0.99932,0.00196166,0.0368137,0.000861629,-0.750354,-0.0600431,9.77973,0.0375472,-0.607252,0.985482,-0.00750482,-0.000610398,0.0977971,1,5.02374e-05,-6.60862e-06,9.41938e-06,0.0100475,-0.00132172,0.00188388,0.99932,0.00196166,0.0368137,0.000861629,0.0799869,0.501306,-0.991737,30.875,1,9118,957501
21,4,0.99932,0.00198038,0.0368175,0.000841703,-0.742733,-0.0773874,9.77749,0.0507099,-0.622733,0.979877,-0.00743014,-0.00078487,0.0977746,1,5.45101e-05,-1.45495e-05,2.26705e-05,0.010902,-0.0029099,0.00453411,0.99932,0.00198038,0.0368175,0.000841703,0.0788557,0.500473,-0.999326,30.875,1,9120,957701
22,1,0.999319,0.00198851,0.0368413,0.000900943,-0.751442,-0.0525699,9.77675,0.0387316,-0.598725,0.981241,-0.0075164,-0.000533818,0.0977673,1,4.13022e-05,-1.01199e-05,2.80896e-06,0.00826045,-0.00202398,0.000561791,0.999319,0.00198851,0.0368413,0.000900943,0.0762186,0.49646,-0.991827,30.875,1,9122,957901
22,2,0.999319,0.00207595,0.0368324,0.000893089,-0.739238,-0.0450474,9.78927,0.0540011,-0.594169,0.995674,-0.00739305,-0.000459782,0.0978927,1,4.61433e-05,-3.46642e-06,1.85129e-05,0.00922865,-0.000693283,0.00370257,0.999319,0.00207595,0.0368324,0.000893089,0.0800163,0.503212,-0.989169,30.875,1,9124,958101
22,3,0.999318,0.00210507,0.0368495,0.000837423,-0.763877,-0.0722344,9.78514,0.0257955,-0.619358,0.99179,-0.00763806,-0.000731605,0.0978514,1,4.63036e-05,3.5111e-06,1.30178e-05,0.00926071,0.000702219,0.00260356,0.999318,0.00210507,0.0368495,0.000837423,0.0788476,0.500961,-0.999315,30.875,1,9126,958301
22,4,0.999318,0.00210795,0.0368609,0.000910056,-0.760485,-0.0649648,9.77264,0.0314373,-0.618224,0.978054,-0.00760812,-0.000657584,0.0977261,1,4.00171e-05,-1.6747e-05,7.50092e-06,0.00800342,-0.0033494,0.00150018,0.999318,0.00210795,0.0368609,0.000910056,0.0751866,0.497001,-0.994335,30.875,1,9128,958501
23,1,0.999318,0.00213693,0.0368544,0.000941299,-0.749305,-0.0456668,9.77748,0.0439804,-0.5957,0.985996,-0.00749609,-0.000466289,0.0977745,1,4.81122e-05,-1.56071e-05,1.41762e-05,0.00962244,-0.00312142,0.00283525,0.999318,0.00213693,0.0368544,0.000941299,0.0776871,0.497875,-0.989782,30.875,1,9129,958601
23,2,0.999318,0.00217778,0.0368533,0.000913574,-0.772812,-0.0543248,9.78434,0.0193837,-0.603086,0.988128,-0.00772993,-0.000550424,0.0978432,1,3.52617e-05,-9.3262e-06,1.78591e-05,0.00705234,-0.00186524,0.00357182,0.999318,0.00217778,0.0368533,0.000913574,0.0799138,0.50425,-0.992681,30.875,1,9131,958801
23,3,0.999317,0.00218137,0.0368736,0.000899507,-0.744601,-0.0588532,9.78682,0.0526405,-0.609034,0.990978,-0.00744538,-0.000596642,0.0978682,1,4.08087e-05,3.1626e-06,8.27003e-06,0.00816175,0.000632519,0.00165401,0.999317,0.00218137,0.0368736,0.000899507,0.0774817,0.498507,-0.997848,30.875,1,9133,959001
23,4,0.999316,0.00222993,0.0368983,0.000923753,-0.784683,-0.0774178,9.77573,0.00936803,-0.632718,0.987703,-0.00784663,-0.000783648,0.0977572,1,4.73447e-05,9.40773e-07,1.35862e-05,0.00946894,0.000188155,0.00271724,0.999316,0.00222993,0.0368983,0.000923753,0.0772719,0.498313,-0.98674,30.875,1,9135,959201
24,1,0.999316,0.00228889,0.0368965,0.000938183,-0.779151,-0.0576138,9.78233,0.0126949,-0.610865,0.989532,-0.00779459,-0.000584834,0.097823,1,4.27515e-05,-1.5905e-05,2.13086e-05,0.0085503,-0.003181,0.00426172,0.999316,0.00228889,0.0368965,0.000938183,0.0794037,0.503794,-0.994204,30.875,1,9137,959401
24,2,0.999316,0.00228667,0.0369035,0.000928903,-0.75363,-0.0434496,9.77649,0.0404576,-0.601379,0.980296,-0.00753772,-0.000441335,0.0977648,1,3.47514e-05,-7.27167e-06,2.91899e-06,0.00695028,-0.00145433,0.000583798,0.999316,0.00228667,0.0369035,0.000928903,0.0783789,0.500956,-0.998808,30.875,1,9138,959501
24,3,0.999315,0.00230344,0.0369216,0.000947527,-0.746075,-0.0727226,9.78468,0.0464072,-0.624009,0.990583,-0.00746363,-0.000737704,0.0978465,1,5.31264e-05,-1.47167e-05,5.43703e-06,0.0106253,-0.00294335,0.00108741,0.999315,0.00230344,0.0369216,0.000947527,0.0762068,0.497914,-0.991289,30.875,1,9140,959701
24,4,0.999315,0.0023836,0.0369208,0.000954965,-0.762249,-0.0607619,9.77709,0.0323655,-0.618388,0.985289,-0.00762464,-0.000619239,0.0977707,1,5.88093e-05,-1.10623e-05,7.89576e-06,0.0117619,-0.00221245,0.00157915,0.999315,0.0023836,0.0369208,0.000954965,0.0800528,0.501739,-0.988697,30.875,1,9142,959901
25,1,0.999315,0.00241136,0.0369295,0.000943133,-0.760822,-0.05307,9.79275,0.0356223,-0.607778,0.996355,-0.00761095,-0.000539199,0.0979273,1,4.22354e-05,-1.40331e-05,1.49461e-05,0.00844709,-0.00280662,0.00298922,0.999315,0.00241136,0.0369295,0.000943133,0.0759491,0.502439,-0.998764,30.875,1,9144,960101
25,2,0.999314,0.00242658,0.0369417,0.000975735,-0.756783,-0.0644541,9.78686,0.0420613,-0.626649,0.996924,-0.0075689,-0.000651388,0.0978684,1,3.43695e-05,-5.50214e-06,7.84927e-06,0.00687391,-0.00110043,0.00156985,0.999314,0.00242658,0.0369417,0.000975735,0.0766504,0.496492,-0.993848,30.875,1,9146,960301
25,3,0.999314,0.00243988,0.0369369,0.000974428,-0.747313,-0.0508893,9.77199,0.0504828,-0.610113,0.975931,-0.00747629,-0.00051626,0.0977196,1,3.66233e-05,-1.62499e-05,1.40405e-05,0.00732467,-0.00324998,0.00280809,0.999314,0.00243988,0.0369369,0.000974428,0.0777488,0.49783,-0.987258,30.875,1,9147,960401
25,4,0.999313,0.00247372,0.0369607,0.000927113,-0.772388,-0.0816746,9.7885,0.0285528,-0.637889,0.994105,-0.00772152,-0.000823924,0.0978851,1,3.64855e-05,1.20439e-05,2.25368e-06,0.0072971,0.00240878,0.000450735,0.999313,0.00247372,0.0369607,0.000927113,0.0802962,0.504318,-0.996722,30.875,1,9149,960601
26,1,0.999313,0.00250526,0.0369591,0.000915937,-0.749457,-0.0673667,9.78713,0.0424711,-0.627796,0.986923,-0.00749893,-0.00068414,0.0978709,1,5.28692e-05,-2.23146e-05,8.24034e-06,0.0105739,-0.00446293,0.00164807,0.999313,0.00250526,0.0369591,0.000915937,0.0755899,0.498017,-0.99684,30.875,1,9151,960801
26,2,0.999314,0.00252831,0.0369481,0.000958949,-0.753152,-0.044489,9.78361,0.0454018,-0.601545,0.989541,-0.00753397,-0.000453067,0.0978358,1,4.01995e-05,-1.26176e-05,2.0668e-05,0.00803991,-0.00252351,0.0041336,0.999314,0.00252831,0.0369481,0.000958949,0.077243,0.497852,-0.988265,30.875,1,9153,961001
26,3,0.999314,0.00252831,0.0369481,0.000958949,-0.753152,-0.044489,9.78361,0.0454018,-0.601545,0.989541,-0.00753397,-0.000453067,0.0978358,1,4.01995e-05,-1.26176e-05,2.0668e-05,0.00803991,-0.00252351,0.0041336,0.999314,0.00252831,0.0369481,0.000958949,0.077243,0.497852,-0.988265,30.875,1,9153,961001
26,4,0.999313,0.00255091,0.0369495,0.000955605,-0.773503,-0.058159,9.77142,0.0245434,-0.621315,0.977823,-0.00773655,-0.000590267,0.097714,1,4.28651e-05,-7.91066e-06,1.93993e-05,0.00857302,-0.00158213,0.00387986,0.999313,0.00255091,0.0369495,0.000955605,0.079074,0.501278,-0.989713,30.875,1,9154,961101
27,1,0.999313,0.00257336,0.0369486,0.000943604,-0.756766,-0.0594005,9.77808,0.0381935,-0.61961,0.982145,-0.00756997,-0.000603946,0.0977806,1,4.99506e-05,-1.18725e-05,1.14236e-05,0.00999012,-0.00237449,0.00228471,0.999313,0.00257336,0.0369486,0.000943604,0.0813277,0.502332,-0.995255,30.875,1,9155,961201
27,2,0.999313,0.00258759,0.0369613,0.000928849,-0.744628,-0.0640181,9.76371,0.0494405,-0.628804,0.972705,-0.00744787,-0.000649072,0.0976369,1,4.58397e-05,-8.11534e-06,-4.0662e-06,0.00916794,-0.00162307,-0.000813241,0.999313,0.00258759,0.0369613,0.000928849,0.0765394,0.496573,-0.998392,30.875,1,9157,961401
27,3,0.999313,0.00258759,0.0369613,0.000928849,-0.744628,-0.0640181,9.76371,0.0494405,-0.628804,0.972705,-0.00744787,-0.000649072,0.0976369,1,4.58397e-05,-8.11534e-06,-4.0662e-06,0.00916794,-0.00162307,-0.000813241,0.999313,0.00258759,0.0369613,0.000928849,0.0765394,0.496573,-0.998392,30.875,1,9157,961401
27,4,0.999313,0.00258759,0.0369613,0.000928849,-0.744628,-0.0640181,9.76371,0.0494405,-0.628804,0.972705,-0.00744787,-0.000649072,0.0976369,1,4.58397e-05,-8.11534e-06,-4.0662e-06,0.00916794,-0.00162307,-0.000813241,0.999313,0.00258759,0.0369613,0.000928849,0.0765394,0.496573,-0.998392,30.875,1,9157,961401
28,1,0.999313,0.00261064,0.0369672,0.000967964,-0.779699,-0.0666331,9.77409,0.017656,-0.625541,0.98076,-0.00779681,-0.000673323,0.0977408,1,3.5353e-05,8.92335e-07,5.19505e-06,0.0070706,0.000178467,0.00103901,0.999313,0.00261064,0.0369672,0.000967964,0.0782342,0.498305,-0.986744,30.875,1,9159,961601
28,2,0.999313,0.00263485,0.0369622,0.000950736,-0.775021,-0.0760109,9.77738,0.018262,-0.639276,0.982858,-0.00775276,-0.000768672,0.0977736,1,4.30178e-05,-1.31073e-05,9.73989e-06,0.00860356,-0.00262146,0.00194798,0.999313,0.00263485,0.0369622,0.000950736,0.0809534,0.501776,-0.991225,30.875,1,9160,961701
28,3,0.999312,0.00265051,0.0369722,0.000941401,-0.778458,-0.0751161,9.78521,0.0147159,-0.635876,0.99203,-0.00778491,-0.000760326,0.097852,1,4.53703e-05,-1.84208e-06,1.83842e-05,0.00907407,-0.000368417,0.00367685,0.999312,0.00265051,0.0369722,0.000941401,0.0808015,0.502851,-0.996757,30.875,1,9161,961801
28,4,0.999312,0.00265051,0.0369722,0.000941401,-0.778458,-0.0751161,9.78521,0.0147159,-0.635876,0.99203,-0.00778491,-0.000760326,0.097852,1,4.53703e-05,-1.84208e-06,1.83842e-05,0.00907407,-0.000368417,0.00367685,0.999312,0.00265051,0.0369722,0.000941401,0.0808015,0.502851,-0.996757,30.875,1,9161,961801
29,1,0.999312,0.00267794,0.0369911,0.000959443,-0.756203,-0.0658006,9.77496,0.0364509,-0.627958,0.980051,-0.00756336,-0.000667644,0.0977495,1,4.80263e-05,-6.9067e-06,1.64458e-05,0.00960526,-0.00138134,0.00328916,0.999312,0.00267794,0.0369911,0.000959443,0.0755937,0.497051,-0.997366,30.875,1,9163,962001
29,2,0.999311,0.00270197,0.0369966,0.000984233,-0.774102,-0.0680106,9.77744,0.025544,-0.635177,0.986888,-0.00774219,-0.000690634,0.0977743,1,5.30686e-05,-6.02786e-06,9.66706e-06,0.0106137,-0.00120557,0.00193341,0.999311,0.00270197,0.0369966,0.000984233,0.0752687,0.496459,-0.991317,30.875,1,9164,962101
29,3,0.999311,0.00270197,0.0369966,0.000984233,-0.774102,-0.0680106,9.77744,0.025544,-0.635177,0.986888,-0.00774219,-0.000690634,0.0977743,1,5.30686e-05,-6.02786e-06,9.66706e-06,0.0106137,-0.00120557,0.00193341,0.999311,0.00270197,0.0369966,0.000984233,0.0752687,0.496459,-0.991317,30.875,1,9164,962101
29,4,0.999311,0.00270197,0.0369966,0.000984233,-0.774102,-0.0680106,9.77744,0.025544,-0.635177,0.986888,-0.00774219,-0.000690634,0.0977743,1,5.30686e-05,-6.02786e-06,9.66706e-06,0.0106137,-0.00120557,0.00193341,0.999311,0.00270197,0.0369966,0.000984233,0.0752687,0.496459,-0.991317,30.875,1,9164,962101
30,1,0.999311,0.00275225,0.0369967,0.000979673,-0.771727,-0.0578669,9.78363,0.0244986,-0.625489,0.989045,-0.00771897,-0.000588356,0.0978361,1,4.88088e-05,-8.71357e-06,8.84184e-06,0.00976176,-0.00174271,0.00176837,0.999311,0.00275225,0.0369967,0.000979673,0.0804846,0.501771,-0.990718,30.875,1,9166,962301
30,2,0.999311,0.00276744,0.036996,0.000962637,-0.76693,-0.0643204,9.7754,0.0294712,-0.626895,0.977809,-0.00767169,-0.000652092,0.0977537,1,4.47165e-05,-1.22882e-05,9.48998e-06,0.0089433,-0.00245764,0.001898,0.999311,0.00276744,0.036996,0.000962637,0.0817353,0.503828,-0.997244,30.875,1,9167,962401
30,3,0.999311,0.00276744,0.036996,0.000962637,-0.76693,-0.0643204,9.7754,0.0294712,-0.626895,0.977809,-0.00767169,-0.000652092,0.0977537,1,4.47165e-05,-1.22882e-05,9.48998e-06,0.0089433,-0.00245764,0.001898,0.999311,0.00276744,0.036996,0.000962637,0.0817353,0.503828,-0.997244,30.875,1,9167,962401
30,4,0.999311,0.00276744,0.036996,0.000962637,-0.76693,-0.0643204,9.7754,0.0294712,-0.626895,0.977809,-0.00767169,-0.000652092,0.0977537,1,4.47165e-05,-1.22882e-05,9.48998e-06,0.0089433,-0.00245764,0.001898,0.999311,0.00276744,0.036996,0.000962637,0.0817353,0.503828,-0.997244,30.875,1,9167,962401
31,1,0.999311,0.00277337,0.0369969,0.000955576,-0.770959,-0.0537888,9.77891,0.020647,-0.622172,0.982207,-0.0077144,-0.00054706,0.0977887,1,4.67393e-05,-2.45852e-05,1.95375e-06,0.00934786,-0.00491703,0.00039075,0.999311,0.00277337,0.0369969,0.000955576,0.0774731,0.49755,-0.998879,30.875,3,9169,962601
31,2,0.999311,0.00278331,0.0369979,0.000977032,-0.757152,-0.0547904,9.78423,0.0351067,-0.622375,0.993197,-0.00757369,-0.000555872,0.0978421,1,3.96203e-05,-1.11536e-05,1.41599e-05,0.00792406,-0.00223073,0.00283197,0.999311,0.00278331,0.0369979,0.000977032,0.0742572,0.496503,-0.993332,30.875,3,9170,962701
31,3,0.999311,0.00280526,0.0370031,0.00100483,-0.73954,-0.057989,9.78034,0.0561424,-0.623049,0.984008,-0.00739614,-0.000588806,0.0978033,1,4.42806e-05,-3.86326e-06,1.72128e-05,0.00885612,-0.000772651,0.00344255,0.999311,0.00280526,0.0370031,0.00100483,0.0762765,0.497381,-0.988776,30.875,3,9171,962801
31,4,0.999311,0.00280526,0.0370031,0.00100483,-0.73954,-0.057989,9.78034,0.0561424,-0.623049,0.984008,-0.00739614,-0.000588806,0.0978033,1,4.42806e-05,-3.86326e-06,1.72128e-05,0.00885612,-0.000772651,0.00344255,0.999311,0.00280526,0.0370031,0.00100483,0.0762765,0.497381,-0.988776,30.875,3,9171,962801
32,1,0.99931,0.00282957,0.0370179,0.00098878,-0.731079,-0.0491692,9.78478,0.0688745,-0.61605,0.985997,-0.00731085,-0.000498164,0.0978477,1,3.32538e-05,-3.14856e-07,-2.4308e-06,0.00665076,-6.29712e-05,-0.00048616,0.99931,0.00282957,0.0370179,0.00098878,0.0808347,0.503791,-0.994716,30.875,3,9173,963001
32,2,0.99931,0.00282957,0.0370179,0.00098878,-0.731079,-0.0491692,9.78478,0.0688745,-0.61605,0.985997,-0.00731085,-0.000498164,0.0978477,1,3.32538e-05,-3.14856e-07,-2.4308e-06,0.00665076,-6.29712e-05,-0.00048616,0.99931,0.00282957,0.0370179,0.00098878,0.0808347,0.503791,-0.994716,30.875,3,9173,963001
32,3,0.999309,0.00283165,0.0370364,0.000995468,-0.746452,-0.0608361,9.78205,0.0564887,-0.625476,0.982137,-0.00746315,-0.000615563,0.0978206,1,3.48202e-05,6.82616e-06,2.61443e-05,0.00696404,0.00136523,0.00522886,0.999309,0.00283165,0.0370364,0.000995468,0.0793539,0.502384,-0.997265,30.875,3,9174,963101
32,4,0.999309,0.00283165,0.0370364,0.000995468,-0.746452,-0.0608361,9.78205,0.0564887,-0.625476,0.982137,-0.00746315,-0.000615563,0.0978206,1,3.48202e-05,6.82616e-06,2.61443e-05,0.00696404,0.00136523,0.00522886,0.999309,0.00283165,0.0370364,0.000995468,0.0793539,0.502384,-0.997265,30.875,3,9174,963101
33,1,0.999309,0.002848,0.0370464,0.00102113,-0.772187,-0.0660745,9.76421,0.0277204,-0.634672,0.971746,-0.00772242,-0.000668724,0.097642,1,3.97842e-05,-2.90949e-06,1.35637e-05,0.00795685,-0.000581898,0.00271274,0.999309,0.002848,0.0370464,0.00102113,0.0748123,0.496445,-0.990305,30.875,3,9176,963301
33,2,0.999309,0.00286708,0.037054,0.00102526,-0.760679,-0.0574274,9.7754,0.0350271,-0.621675,0.97875,-0.00760701,-0.000582517,0.097754,1,4.19766e-05,-1.15671e-06,2.44759e-06,0.00839531,-0.000231342,0.000489518,0.999309,0.00286708,0.037054,0.00102526,0.076285,0.498339,-0.987745,30.875,3,9177,963401
33,3,0.999309,0.00286708,0.037054,0.00102526,-0.760679,-0.0574274,9.7754,0.0350271,-0.621675,0.97875,-0.00760701,-0.000582517,0.097754,1,4.19766e-05,-1.15671e-06,2.44759e-06,0.00839531,-0.000231342,0.000489518,0.999309,0.00286708,0.037054,0.00102526,0.076285,0.498339,-0.987745,30.875,3,9177,963401
33,4,0.999309,0.00286708,0.037054,0.00102526,-0.760679,-0.0574274,9.7754,0.0350271,-0.621675,0.97875,-0.00760701,-0.000582517,0.097754,1,4.19766e-05,-1.15671e-06,2.44759e-06,0.00839531,-0.000231342,0.000489518,0.999309,0.00286708,0.037054,0.00102526,0.076285,0.498339,-0.987745,30.875,3,9177,963401
34,1,0.999308,0.00288345,0.0370558,0.00102103,-0.745442,-0.0787934,9.7931,0.0538045,-0.648597,0.997383,-0.00745534,-0.000794994,0.0979309,1,3.53064e-05,-4.79066e-06,9.71948e-06,0.00706129,-0.000958132,0.0019439,0.999308,0.00288345,0.0370558,0.00102103,0.0803289,0.503813,-0.995723,30.875,3,9179,963601
34,2,0.999308,0.00288441,0.0370565,0.00102648,-0.755396,-0.0599614,9.7801,0.0394879,-0.631177,0.982943,-0.00755609,-0.000606684,0.0978008,1,3.46247e-05,-1.10551e-05,1.96489e-05,0.00692494,-0.00221101,0.00392979,0.999308,0.00288441,0.0370565,0.00102648,0.0773967,0.502906,-0.998255,30.875,3,9180,963701
34,3,0.999308,0.00289125,0.0370576,0.00105558,-0.762945,-0.0640466,9.77841,0.0331556,-0.636573,0.984678,-0.0076314,-0.000648614,0.0977839,1,3.96777e-05,-1.01502e-05,2.54402e-05,0.00793555,-0.00203004,0.00508804,0.999308,0.00289125,0.0370576,0.00105558,0.0760834,0.498004,-0.996337,30.875,3,9181,963801
34,4,0.999308,0.00289125,0.0370576,0.00105558,-0.762945,-0.0640466,9.77841,0.0331556,-0.636573,0.984678,-0.0076314,-0.000648614,0.0977839,1,3.96777e-05,-1.01502e-05,2.54402e-05,0.00793555,-0.00203004,0.00508804,0.999308,0.00289125,0.0370576,0.00105558,0.0760834,0.498004,-0.996337,30.875,3,9181,963801
35,1,0.999308,0.00291253,0.037074,0.0010762,-0.770329,-0.0383712,9.77462,0.0272396,-0.61243,0.978626,-0.00770411,-0.000391987,0.0977461,1,4.08813e-05,-4.2203e-06,1.83639e-05,0.00817627,-0.00084406,0.00367278,0.999308,0.00291253,0.037074,0.0010762,0.0777488,0.49783,-0.987258,30.875,3,9183,964001
35,2,0.999308,0.00294101,0.0370753,0.00106396,-0.770812,-0.0513252,9.78638,0.0301854,-0.620754,0.990373,-0.00770969,-0.000523445,0.0978636,1,5.14406e-05,-8.04879e-06,8.08973e-06,0.0102881,-0.00160976,0.00161795,0.999308,0.00294101,0.0370753,0.00106396,0.079082,0.50079,-0.989724,30.875,3,9184,964101
35,3,0.999308,0.00294101,0.0370753,0.00106396,-0.770812,-0.0513252,9.78638,0.0301854,-0.620754,0.990373,-0.00770969,-0.000523445,0.0978636,1,5.14406e-05,-8.04879e-06,8.08973e-06,0.0102881,-0.00160976,0.00161795,0.999308,0.00294101,0.0370753,0.00106396,0.079082,0.50079,-0.989724,30.875,3,9184,964101
35,4,0.999308,0.00294101,0.0370753,0.00106396,-0.770812,-0.0513252,9.78638,0.0301854,-0.620754,0.990373,-0.00770969,-0.000523445,0.0978636,1,5.14406e-05,-8.04879e-06,8.08973e-06,0.0102881,-0.00160976,0.00161795,0.999308,0.00294101,0.0370753,0.00106396,0.079082,0.50079,-0.989724,30.875,3,9184,964101
36,1,0.999308,0.00295413,0.0370759,0.00104016,-0.757851,-0.0740561,9.78951,0.0380963,-0.644738,0.989963,-0.00758259,-0.000746263,0.0978947,1,2.93572e-05,-2.08001e-05,-3.02857e-06,0.00587144,-0.00416002,-0.000605715,0.999308,0.00295413,0.0370759,0.00104016,0.0783542,0.500974,-0.999817,30.875,3,9186,964301
36,2,0.999308,0.00295852,0.0370743,0.00106217,-0.75758,-0.0793106,9.77793,0.0384007,-0.650186,0.981336,-0.00757827,-0.000800914,0.097779,1,3.83817e-05,-1.27852e-05,1.99524e-05,0.00767635,-0.00255704,0.00399048,0.999308,0.00295852,0.0370743,0.00106217,0.0765232,0.497549,-0.99837,30.875,3,9187,964401
36,3,0.999308,0.00295852,0.0370743,0.00106217,-0.75758,-0.0793106,9.77793,0.0384007,-0.650186,0.981336,-0.00757827,-0.000800914,0.097779,1,3.83817e-05,-1.27852e-05,1.99524e-05,0.00767635,-0.00255704,0.00399048,0.999308,0.00295852,0.0370743,0.00106217,0.0765232,0.497549,-0.99837,30.875,3,9187,964401
36,4,0.999308,0.00295852,0.0370743,0.00106217,-0.75758,-0.0793106,9.77793,0.0384007,-0.650186,0.981336,-0.00757827,-0.000800914,0.097779,1,3.83817e-05,-1.27852e-05,1.99524e-05,0.00767635,-0.00255704,0.00399048,0.999308,0.00295852,0.0370743,0.00106217,0.0765232,0.497549,-0.99837,30.875,3,9187,964401
37,1,0.999307,0.00299826,0.0370903,0.00110782,-0.762949,-0.0671083,9.7811,0.0365611,-0.638284,0.987808,-0.00762868,-0.000680067,0.097811,1,4.48041e-05,4.05496e-06,1.4413e-05,0.00896082,0.000810992,0.00288261,0.999307,0.00299826,0.0370903,0.00110782,0.0762604,0.498357,-0.988754,30.875,3,9189,964601
37,2,0.999307,0.00302576,0.0370916,0.00111496,-0.764471,-0.0684509,9.79027,0.0339465,-0.641704,0.994995,-0.00764602,-0.000694608,0.0979026,1,5.02337e-05,-6.80611e-06,1.71735e-05,0.0100467,-0.00136122,0.0034347,0.999307,0.00302576,0.0370916,0.00111496,0.0775936,0.501317,-0.99122,30.875,3,9190,964701
37,3,0.999306,0.00303171,0.0370984,0.0011216,-0.767008,-0.0606986,9.78526,0.0367092,-0.630398,0.993047,-0.00767059,-0.000613777,0.0978525,1,3.33712e-05,-2.72685e-06,1.69407e-05,0.00667424,-0.000545369,0.00338815,0.999306,0.00303171,0.0370984,0.0011216,0.0798763,0.502832,-0.995237,30.875,3,9191,964801
37,4,0.999306,0.00303171,0.0370984,0.0011216,-0.767008,-0.0606986,9.78526,0.0367092,-0.630398,0.993047,-0.00767059,-0.000613777,0.0978525,1,3.33712e-05,-2.72685e-06,1.69407e-05,0.00667424,-0.000545369,0.00338815,0.999306,0.00303171,0.0370984,0.0011216,0.0798763,0.502832,-0.995237,30.875,3,9191,964801
38,1,0.999306,0.00305173,0.037102,0.00112332,-0.777586,-0.0504774,9.78237,0.0200602,-0.627461,0.985698,-0.00777776,-0.00051207,0.0978235,1,3.61874e-05,-9.80146e-06,1.38525e-05,0.00723748,-0.00196029,0.0027705,0.999306,0.00305173,0.037102,0.00112332,0.0755615,0.499002,-0.997323,30.875,3,9193,965001
38,2,0.999306,0.00306804,0.0371056,0.0011431,-0.770135,-0.0558069,9.78329,0.0282495,-0.629244,0.991759,-0.00770264,-0.000567227,0.0978327,1,4.63407e-05,-6.62748e-06,5.83402e-06,0.00926814,-0.0013255,0.0011668,0.999306,0.00306804,0.0371056,0.0011431,0.0747634,0.497926,-0.991282,30.875,3,9194,965101
38,3,0.999306,0.00306804,0.0371056,0.0011431,-0.770135,-0.0558069,9.78329,0.0282495,-0.629244,0.991759,-0.00770264,-0.000567227,0.0978327,1,4.63407e-05,-6.62748e-06,5.83402e-06,0.00926814,-0.0013255,0.0011668,0.999306,0.00306804,0.0371056,0.0011431,0.0747634,0.497926,-0.991282,30.875,3,9194,965101
38,4,0.999306,0.00306804,0.0371056,0.0011431,-0.770135,-0.0558069,9.78329,0.0282495,-0.629244,0.991759,-0.00770264,-0.000567227,0.0978327,1,4.63407e-05,-6.62748e-06,5.83402e-06,0.00926814,-0.0013255,0.0011668,0.999306,0.00306804,0.0371056,0.0011431,0.0747634,0.497926,-0.991282,30.875,3,9194,965101
39,1,0.999306,0.00311536,0.0370956,0.00115915,-0.741943,-0.0731091,9.77856,0.0600415,-0.646944,0.979282,-0.00742366,-0.000737284,0.0977852,1,3.04617e-05,-2.17817e-05,1.59015e-05,0.00609234,-0.00435634,0.0031803,0.999306,0.00311536,0.0370956,0.00115915,0.0800243,0.502724,-0.98918,30.875,3,9196,965301
39,2,0.999306,0.0031327,0.0370956,0.0011429,-0.745017,-0.0768994,9.78973,0.0505107,-0.652562,0.991294,-0.00745204,-0.000777919,0.0978971,1,4.486e-05,-9.63167e-06,9.49392e-06,0.008972,-0.00192633,0.00189878,0.999306,0.0031327,0.0370956,0.0011429,0.0822819,0.502812,-0.995249,30.875,3,9197,965401
39,3,0.999306,0.0031327,0.0370956,0.0011429,-0.745017,-0.0768994,9.78973,0.0505107,-0.652562,0.991294,-0.00745204,-0.000777919,0.0978971,1,4.486e-05,-9.63167e-06,9.49392e-06,0.008972,-0.00192633,0.00189878,0.999306,0.0031327,0.0370956,0.0011429,0.0822819,0.502812,-0.995249,30.875,3,9197,965401
39,4,0.999306,0.0031327,0.0370956,0.0011429,-0.745017,-0.0768994,9.78973,0.0505107,-0.652562,0.991294,-0.00745204,-0.000777919,0.0978971,1,4.486e-05,-9.63167e-06,9.49392e-06,0.008972,-0.00192633,0.00189878,0.999306,0.0031327,0.0370956,0.0011429,0.0822819,0.502812,-0.995249,30.875,3,9197,965401
40,1,0.999306,0.00315405,0.0371115,0.00113769,-0.742512,-0.0572803,9.78072,0.0549784,-0.633675,0.988207,-0.00742692,-0.00058201,0.097807,1,4.56032e-05,-9.35048e-06,1.9297e-05,0.00912063,-0.0018701,0.00385939,0.999306,0.00315405,0.0371115,0.00113769,0.0774779,0.499474,-0.997321,30.875,3,9199,965601
40,2,0.999306,0.00316707,0.0371105,0.00115501,-0.738177,-0.0538813,9.77393,0.0590516,-0.630678,0.978241,-0.0073838,-0.000547076,0.0977391,1,4.15854e-05,-1.04623e-05,9.08227e-06,0.00831709,-0.00209247,0.00181645,0.999306,0.00316707,0.0371105,0.00115501,0.075738,0.497909,-0.990782,30.875,3,9200,965701
40,3,0.999305,0.00319074,0.0371111,0.00116576,-0.749669,-0.0574683,9.79229,0.0545672,-0.633375,0.994308,-0.00749811,-0.000584096,0.0979228,1,4.73353e-05,-7.27746e-06,9.49604e-06,0.00946706,-0.00145549,0.00189921,0.999305,0.00319074,0.0371111,0.00116576,0.0787072,0.498789,-0.986736,30.875,3,9201,965801
40,4,0.999305,0.00319074,0.0371111,0.00116576,-0.749669,-0.0574683,9.79229,0.0545672,-0.633375,0.994308,-0.00749811,-0.000584096,0.0979228,1,4.73353e-05,-7.27746e-06,9.49604e-06,0.00946706,-0.00145549,0.00189921,0.999305,0.00319074,0.0371111,0.00116576,0.0787072,0.498789,-0.986736,30.875,3,9201,965801
41,1,0.999304,0.00322527,0.0371363,0.00115391,-0.771177,-0.0677899,9.78488,0.0308309,-0.641964,0.984714,-0.00771001,-0.000686472,0.0978489,1,4.36753e-05,8.94829e-06,1.70434e-06,0.00873506,0.00178966,0.000340867,0.999304,0.00322527,0.0371363,0.00115391,0.080337,0.503325,-0.995734,30.875,3,9203,966001
41,2,0.999304,0.00323048,0.0371343,0.00115424,-0.766528,-0.0706456,9.78484,0.032942,-0.651789,0.989293,-0.00766755,-0.000713736,0.0978481,1,3.63998e-05,-1.17013e-05,1.02483e-05,0.00727995,-0.00234026,0.00204966,0.999304,0.00323048,0.0371343,0.00115424,0.0787902,0.501485,-1.00132,30.875,3,9204,966101
41,3,0.999304,0.00323048,0.0371343,0.00115424,-0.766528,-0.0706456,9.78484,0.032942,-0.651789,0.989293,-0.00766755,-0.000713736,0.0978481,1,3.63998e-05,-1.17013e-05,1.02483e-05,0.00727995,-0.00234026,0.00204966,0.999304,0.00323048,0.0371343,0.00115424,0.0787902,0.501485,-1.00132,30.875,3,9204,966101
41,4,0.999304,0.00323048,0.0371343,0.00115424,-0.766528,-0.0706456,9.78484,0.032942,-0.651789,0.989293,-0.00766755,-0.000713736,0.0978481,1,3.63998e-05,-1.17013e-05,1.02483e-05,0.00727995,-0.00234026,0.00204966,0.999304,0.00323048,0.0371343,0.00115424,0.0787902,0.501485,-1.00132,30.875,3,9204,966101
42,1,0.999304,0.00325068,0.0371559,0.00119152,-0.776903,-0.0712078,9.77064,0.0208219,-0.64856,0.975342,-0.00776868,-0.000720608,0.0977064,1,4.14905e-05,1.55166e-06,2.71554e-05,0.0082981,0.000310332,0.00543108,0.999304,0.00325068,0.0371559,0.00119152,0.0776254,0.49792,-0.992306,30.875,3,9206,966301
42,2,0.999304,0.00326772,0.0371516,0.00119926,-0.783127,-0.0713518,9.77986,0.0120994,-0.647816,0.987135,-0.00783372,-0.00072192,0.0977983,1,4.15482e-05,-1.26737e-05,1.75868e-05,0.00830965,-0.00253473,0.00351736,0.999304,0.00326772,0.0371516,0.00119926,0.0777161,0.498336,-0.988257,30.875,3,9207,966401
42,3,0.999304,0.00326772,0.0371516,0.00119926,-0.783127,-0.0713518,9.77986,0.0120994,-0.647816,0.987135,-0.00783372,-0.00072192,0.0977983,1,4.15482e-05,-1.26737e-05,1.75868e-05,0.00830965,-0.00253473,0.00351736,0.999304,0.00326772,0.0371516,0.00119926,0.0777161,0.498336,-0.988257,30.875,3,9207,966401
42,4,0.999304,0.00326772,0.0371516,0.00119926,-0.783127,-0.0713518,9.77986,0.0120994,-0.647816,0.987135,-0.00783372,-0.00072192,0.0977983,1,4.15482e-05,-1.26737e-05,1.75868e-05,0.00830965,-0.00253473,0.00351736,0.999304,0.00326772,0.0371516,0.00119926,0.0777161,0.498336,-0.988257,30.875,3,9207,966401
43,1,0.999304,0.00331621,0.0371397,0.0011841,-0.769315,-0.0582166,9.78157,0.0330797,-0.640538,0.987708,-0.00769541,-0.000590652,0.0978155,1,4.29433e-05,-1.15634e-05,5.48166e-06,0.00858866,-0.00231268,0.00109633,0.999304,0.00331621,0.0371397,0.0011841,0.0807854,0.503827,-0.996735,30.875,3,9209,966601
43,2,0.999303,0.00334101,0.0371542,0.00118478,-0.775749,-0.0556575,9.77788,0.0216009,-0.6377,0.981674,-0.00775649,-0.000567685,0.0977789,1,5.56315e-05,5.01063e-06,1.48847e-05,0.0111263,0.00100213,0.00297694,0.999303,0.00334101,0.0371542,0.00118478,0.0778527,0.501475,-1.00031,30.875,3,9210,966701
43,3,0.999303,0.00335317,0.0371516,0.00120955,-0.76282,-0.0633638,9.77979,0.03699,-0.648145,0.985107,-0.00763056,-0.000642292,0.0977976,1,4.27366e-05,-1.21894e-05,1.93639e-05,0.00854731,-0.00243789,0.00387277,0.999303,0.00335317,0.0371516,0.00120955,0.076482,0.497097,-1.0004,30.875,3,9211,966801
43,4,0.999303,0.00335317,0.0371516,0.00120955,-0.76282,-0.0633638,9.77979,0.03699,-0.648145,0.985107,-0.00763056,-0.000642292,0.0977976,1,4.27366e-05,-1.21894e-05,1.93639e-05,0.00854731,-0.00243789,0.00387277,0.999303,0.00335317,0.0371516,0.00120955,0.076482,0.497097,-1.0004,30.875,3,9211,966801
44,1,0.999303,0.00338159,0.0371509,0.0012225,-0.689267,-0.0791716,9.77814,0.111044,-0.660864,0.98057,-0.00689466,-0.00079873,0.0977812,1,3.5394e-05,-1.02688e-05,6.72026e-06,0.0070788,-0.00205376,0.00134405,0.999303,0.00338159,0.0371509,0.0012225,0.0777365,0.497839,-0.987763,30.875,3,9213,967001
44,2,0.999303,0.00338159,0.0371509,0.0012225,-0.689267,-0.0791716,9.77814,0.111044,-0.660864,0.98057,-0.00689466,-0.00079873,0.0977812,1,3.5394e-05,-1.02688e-05,6.72026e-06,0.0070788,-0.00205376,0.00134405,0.999303,0.00338159,0.0371509,0.0012225,0.0777365,0.497839,-0.987763,30.875,3,9213,967001
44,3,0.999303,0.00341385,0.0371537,0.00121318,-0.707375,-0.0774648,9.77623,0.0939531,-0.663625,0.979356,-0.00707461,-0.000785553,0.0977622,1,5.50188e-05,-4.4986e-06,1.03804e-05,0.0110038,-0.000899721,0.00207607,0.999303,0.00341385,0.0371537,0.00121318,0.0795921,0.501247,-0.988201,30.875,3,9214,967101
44,4,0.999303,0.00341385,0.0371537,0.00121318,-0.707375,-0.0774648,9.77623,0.0939531,-0.663625,0.979356,-0.00707461,-0.000785553,0.0977622,1,5.50188e-05,-4.4986e-06,1.03804e-05,0.0110038,-0.000899721,0.00207607,0.999303,0.00341385,0.0371537,0.00121318,0.0795921,0.501247,-0.988201,30.875,3,9214,967101
45,1,0.999302,0.00344275,0.0371764,0.00118991,-0.700155,-0.0480953,9.78831,0.0989204,-0.631122,0.981527,-0.00700068,-0.000490173,0.0978831,1,4.67263e-05,4.41839e-06,5.23391e-06,0.00934527,0.000883677,0.00104678,0.999302,0.00344275,0.0371764,0.00118991,0.0788476,0.500961,-0.999315,30.875,3,9216,967301
45,2,0.999302,0.00345896,0.037185,0.00121268,-0.720835,-0.0496896,9.79624,0.0845251,-0.634843,0.998152,-0.00720823,-0.000506345,0.0979623,1,4.63705e-05,4.52966e-07,2.52259e-05,0.00927409,9.05933e-05,0.00504518,0.999302,0.00345896,0.037185,0.00121268,0.0761157,0.496053,-0.996381,30.875,3,9217,967401
45,3,0.999302,0.00345896,0.037185,0.00121268,-0.720835,-0.0496896,9.79624,0.0845251,-0.634843,0.998152,-0.00720823,-0.000506345,0.0979623,1,4.63705e-05,4.52966e-07,2.52259e-05,0.00927409,9.05933e-05,0.00504518,0.999302,0.00345896,0.037185,0.00121268,0.0761157,0.496053,-0.996381,30.875,3,9217,967401
45,4,0.999302,0.00345896,0.037185,0.00121268,-0.720835,-0.0496896,9.79624,0.0845251,-0.634843,0.998152,-0.00720823,-0.000506345,0.0979623,1,4.63705e-05,4.52966e-07,2.52259e-05,0.00927409,9.05933e-05,0.00504518,0.999302,0.00345896,0.037185,0.00121268,0.0761157,0.496053,-0.996381,30.875,3,9217,967401
46,1,0.999301,0.00350942,0.0371854,0.00124291,-0.752963,-0.0474758,9.7914,0.050544,-0.627311,0.996505,-0.00753217,-0.000485906,0.0979137,1,5.64494e-05,-1.30085e-05,6.15933e-06,0.0112899,-0.0026017,0.00123187,0.999301,0.00350942,0.0371854,0.00124291,0.0772757,0.497346,-0.987266,30.875,3,9219,967601
46,2,0.999302,0.00352821,0.037169,0.00123757,-0.782851,-0.0654852,9.77109,0.0247708,-0.644357,0.983979,-0.00783301,-0.000663285,0.0977105,1,4.23138e-05,-2.31135e-05,1.0494e-05,0.00846276,-0.0046227,0.0020988,0.999302,0.00352821,0.037169,0.00123757,0.0805173,0.501266,-0.98972,30.875,3,9220,967701
46,3,0.999302,0.00354598,0.0371616,0.00123315,-0.807223,-0.0696308,9.75831,-0.00801761,-0.6534,0.962597,-0.00807514,-0.000705321,0.0975828,1,4.47424e-05,-1.50576e-05,1.73341e-05,0.00894849,-0.00301152,0.00346682,0.999302,0.00354598,0.0371616,0.00123315,0.0803821,0.50281,-0.99423,30.875,3,9221,967801
46,4,0.999302,0.00354598,0.0371616,0.00123315,-0.807223,-0.0696308,9.75831,-0.00801761,-0.6534,0.962597,-0.00807514,-0.000705321,0.0975828,1,4.47424e-05,-1.50576e-05,1.73341e-05,0.00894849,-0.00301152,0.00346682,0.999302,0.00354598,0.0371616,0.00123315,0.0803821,0.50281,-0.99423,30.875,3,9221,967801
47,1,0.999304,0.00356785,0.0371185,0.00123292,-0.874245,-0.0600712,9.65676,-0.0826947,-0.654668,0.88233,-0.00875119,-0.000609857,0.0965667,1,4.62886e-05,-4.53144e-05,1.17457e-05,0.00925773,-0.00906288,0.00234914,0.999304,0.00356785,0.0371185,0.00123292,0.0775837,0.496023,-0.995378,30.875,3,9223,968001
47,2,0.999304,0.00356785,0.0371185,0.00123292,-0.874245,-0.0600712,9.65676,-0.0826947,-0.654668,0.88233,-0.00875119,-0.000609857,0.0965667,1,4.62886e-05,-4.53144e-05,1.17457e-05,0.00925773,-0.00906288,0.00234914,0.999304,0.00356785,0.0371185,0.00123292,0.0775837,0.496023,-0.995378,30.875,3,9223,968001
47,3,0.999307,0.00359696,0.0370268,0.00124127,-0.740344,-0.0754577,9.63814,0.0025168,-0.639632,0.811713,-0.00742272,-0.00076552,0.0963798,1,5.58777e-05,-0.000100119,1.16111e-05,0.0111755,-0.0200238,0.00232221,0.999307,0.00359696,0.0370268,0.00124127,0.0772136,0.495946,-0.990833,30.875,3,9224,968101
47,4,0.999307,0.00359696,0.0370268,0.00124127,-0.740344,-0.0754577,9.63814,0.0025168,-0.639632,0.811713,-0.00742272,-0.00076552,0.0963798,1,5.58777e-05,-0.000100119,1.16111e-05,0.0111755,-0.0200238,0.00232221,0.999307,0.00359696,0.0370268,0.00124127,0.0772136,0.495946,-0.990833,30.875,3,9224,968101
48,1,0.999314,0.00362208,0.0368399,0.00125284,-0.288727,-0.0879884,9.85886,0.525304,-0.677695,1.02756,-0.00290353,-0.00088899,0.098588,1,4.55024e-05,-8.26327e-05,2.31801e-05,0.00910049,-0.0165265,0.00463602,0.999314,0.00362208,0.0368399,0.00125284,0.080514,0.503677,-0.988151,30.875,3,9226,968301
48,2,0.999317,0.00363304,0.0367529,0.00123798,-0.159963,-0.101909,9.85175,0.617024,-0.676414,1.00316,-0.00161754,-0.00102657,0.0985171,1,3.78805e-05,-9.09475e-05,6.35494e-06,0.00757609,-0.0181895,0.00127099,0.999317,0.00363304,0.0367529,0.00123798,0.0808798,0.503276,-0.993212,30.875,3,9227,968401
48,3,0.999317,0.00363304,0.0367529,0.00123798,-0.159963,-0.101909,9.85175,0.617024,-0.676414,1.00316,-0.00161754,-0.00102657,0.0985171,1,3.78805e-05,-9.09475e-05,6.35494e-06,0.00757609,-0.0181895,0.00127099,0.999317,0.00363304,0.0367529,0.00123798,0.0808798,0.503276,-0.993212,30.875,3,9227,968401
48,4,0.999317,0.00363304,0.0367529,0.00123798,-0.159963,-0.101909,9.85175,0.617024,-0.676414,1.00316,-0.00161754,-0.00102657,0.0985171,1,3.78805e-05,-9.09475e-05,6.35494e-06,0.00757609,-0.0181895,0.00127099,0.999317,0.00363304,0.0367529,0.00123798,0.0808798,0.503276,-0.993212,30.875,3,9227,968401
49,1,0.999321,0.00365633,0.0366347,0.00125147,-0.171343,-0.0514052,9.98321,0.678203,-0.618982,1.1622,-0.00172106,-0.000522022,0.099832,1,3.97956e-05,-3.82046e-05,7.11013e-06,0.00795912,-0.00764091,0.00142203,0.999321,0.00365633,0.0366347,0.00125147,0.0760179,0.499016,-0.998335,30.875,3,9229,968601
49,2,0.999322,0.00366803,0.0366264,0.00127223,-0.433082,-0.0435646,9.85237,0.383772,-0.629409,1.04606,-0.00433195,-0.000443632,0.0985236,1,3.97972e-05,-5.84285e-06,1.66802e-05,0.00795944,-0.00116857,0.00333604,0.999322,0.00366803,0.0366264,0.00127223,0.0751914,0.498925,-0.992777,30.875,3,9230,968701
49,3,0.999323,0.00368096,0.0365908,0.00125938,-0.510869,-0.0160589,9.74764,0.224019,-0.616782,0.916148,-0.00511496,-0.000168189,0.0974761,1,3.97396e-05,-3.21194e-05,-1.44431e-05,0.00794791,-0.00642388,-0.00288861,0.999323,0.00368096,0.0365908,0.00125938,0.0762404,0.500299,-0.988206,30.875,3,9231,968801
49,4,0.999323,0.00368096,0.0365908,0.00125938,-0.510869,-0.0160589,9.74764,0.224019,-0.616782,0.916148,-0.00511496,-0.000168189,0.0974761,1,3.97396e-05,-3.21194e-05,-1.44431e-05,0.00794791,-0.00642388,-0.00288861,0.999323,0.00368096,0.0365908,0.00125938,0.0762404,0.500299,-0.988206,30.875,3,9231,968801
50,1,0.999325,0.00371092,0.0365267,0.00124027,-0.494152,-0.0742403,9.76703,0.306129,-0.640883,0.973549,-0.00494439,-0.000751751,0.0976701,1,4.73187e-05,-1.47802e-05,1.06671e-05,0.00946373,-0.00295604,0.00213343,0.999325,0.00371092,0.0365267,0.00124027,0.0803166,0.503822,-0.996228,30.875,3,9233,969001
50,2,0.999325,0.00371092,0.0365267,0.00124027,-0.494152,-0.0742403,9.76703,0.306129,-0.640883,0.973549,-0.00494439,-0.000751751,0.0976701,1,4.73187e-05,-1.47802e-05,1.06671e-05,0.00946373,-0.00295604,0.00213343,0.999325,0.00371092,0.0365267,0.00124027,0.0803166,0.503822,-0.996228,30.875,3,9233,969001
50,3,0.999327,0.00371722,0.0364692,0.00122425,-0.649151,-0.147143,9.67418,0.0995046,-0.706828,0.851501,-0.00650148,-0.00147819,0.0967411,1,3.48801e-05,-5.15375e-05,8.03599e-07,0.00697602,-0.0103075,0.00016072,0.999327,0.00371722,0.0364692,0.00122425,0.0778735,0.502423,-0.998773,30.875,3,9234,969101
50,4,0.999327,0.00371722,0.0364692,0.00122425,-0.649151,-0.147143,9.67418,0.0995046,-0.706828,0.851501,-0.00650148,-0.00147819,0.0967411,1,3.48801e-05,-5.15375e-05,8.03599e-07,0.00697602,-0.0103075,0.00016072,0.999327,0.00371722,0.0364692,0.00122425,0.0778735,0.502423,-0.998773,30.875,3,9234,969101
51,1,0.999332,0.00376862,0.0363382,0.00121926,-0.303739,-0.0281325,9.69592,0.410478,-0.62836,0.945356,-0.00304863,-0.000291313,0.0969588,1,5.1532e-05,-5.79505e-05,-8.44388e-07,0.0103064,-0.0115901,-0.000168878,0.999332,0.00376862,0.0363382,0.00121926,0.07425,0.499881,-0.991237,30.875,3,9236,969301
51,2,0.999335,0.00377732,0.0362361,0.00124449,0.0191679,-0.0552728,9.84314,0.722496,-0.639888,1.0334,0.000173214,-0.000559462,0.0984314,1,3.42462e-05,-9.39019e-05,1.87575e-05,0.00684924,-0.0187804,0.00375149,0.999335,0.00377732,0.0362361,0.00124449,0.0752706,0.50224,-0.987148,30.875,3,9237,969401
51,3,0.999335,0.00377732,0.0362361,0.00124449,0.0191679,-0.0552728,9.84314,0.722496,-0.639888,1.0334,0.000173214,-0.000559462,0.0984314,1,3.42462e-05,-9.39019e-05,1.87575e-05,0.00684924,-0.0187804,0.00375149,0.999335,0.00377732,0.0362361,0.00124449,0.0752706,0.50224,-0.987148,30.875,3,9237,969401
51,4,0.999335,0.00377732,0.0362361,0.00124449,0.0191679,-0.0552728,9.84314,0.722496,-0.639888,1.0334,0.000173214,-0.000559462,0.0984314,1,3.42462e-05,-9.39019e-05,1.87575e-05,0.00684924,-0.0187804,0.00375149,0.999335,0.00377732,0.0362361,0.00124449,0.0752706,0.50224,-0.987148,30.875,3,9237,969401
52,1,0.999341,0.00380066,0.0360752,0.00129925,0.00371428,-0.103392,9.88965,0.756089,-0.700352,1.07421,2.25843e-05,-0.00104399,0.0988964,1,5.08934e-05,-7.39057e-05,2.86756e-05,0.0101787,-0.0147811,0.00573512,0.999341,0.00380066,0.0360752,0.00129925,0.0774227,0.507224,-0.994118,30.875,3,9239,969601
52,2,0.999343,0.00383228,0.0360174,0.00132482,0.113151,0.058702,9.96799,0.864332,-0.554165,1.12955,0.00112311,0.000575376,0.0996801,1,5.88167e-05,-4.1921e-05,3.62096e-05,0.0117633,-0.0083842,0.00724192,0.999343,0.00383228,0.0360174,0.00132482,0.0773397,0.504875,-0.999221,30.875,3,9240,969701
52,3,0.999346,0.00389383,0.0359346,0.00131603,-0.486662,-0.0219358,9.81158,0.260195,-0.620591,0.978711,-0.00487931,-0.000236898,0.0981151,1,8.93909e-05,-6.46739e-05,-1.26584e-07,0.0178782,-0.0129348,-2.53169e-05,0.999346,0.00389383,0.0359346,0.00131603,0.0755538,0.500935,-0.99627,30.875,3,9241,969801
52,4,0.999346,0.00389383,0.0359346,0.00131603,-0.486662,-0.0219358,9.81158,0.260195,-0.620591,0.978711,-0.00487931,-0.000236898,0.0981151,1,8.93909e-05,-6.46739e-05,-1.26584e-07,0.0178782,-0.0129348,-2.53169e-05,0.999346,0.00389383,0.0359346,0.00131603,0.0755538,0.500935,-0.99627,30.875,3,9241,969801
53,1,0.999353,0.00398647,0.0357227,0.00123349,0.122864,-0.00197362,9.9226,1.08562,-0.623122,1.1922,0.00121597,-3.47832e-05,0.0992261,1,7.51309e-05,-6.38262e-05,-5.60927e-05,0.0150262,-0.0127652,-0.0112185,0.999353,0.00398647,0.0357227,0.00123349,0.0767785,0.498326,-0.987242,30.875,3,9243,970001
53,2,0.999353,0.00398647,0.0357227,0.00123349,0.122864,-0.00197362,9.9226,1.08562,-0.623122,1.1922,0.00121597,-3.47832e-05,0.0992261,1,7.51309e-05,-6.38262e-05,-5.60927e-05,0.0150262,-0.0127652,-0.0112185,0.999353,0.00398647,0.0357227,0.00123349,0.0767785,0.498326,-0.987242,30.875,3,9243,970001
53,3,0.99936,0.00403218,0.0355291,0.0012271,-0.135563,-0.0959685,9.8664,0.314117,-0.776037,1.19979,-0.00138931,-0.000973814,0.0986634,1,7.1606e-05,-0.000170638,-5.92147e-07,0.0143212,-0.0341275,-0.00011843,0.99936,0.00403218,0.0355291,0.0012271,0.0795798,0.501256,-0.988705,30.875,3,9244,970101
53,4,0.99936,0.00403218,0.0355291,0.0012271,-0.135563,-0.0959685,9.8664,0.314117,-0.776037,1.19979,-0.00138931,-0.000973814,0.0986634,1,7.1606e-05,-0.000170638,-5.92147e-07,0.0143212,-0.0341275,-0.00011843,0.99936,0.00403218,0.0355291,0.0012271,0.0795798,0.501256,-0.988705,30.875,3,9244,970101
54,1,0.999369,0.00392552,0.0352708,0.00134572,0.12335,-0.333762,9.87938,1.11292,-0.983758,1.03001,0.00122703,-0.00333464,0.098794,1,-1.42044e-05,-3.51659e-05,7.14438e-05,-0.00284088,-0.00703317,0.0142888,0.999369,0.00392552,0.0352708,0.00134572,0.0764302,0.502435,-0.998766,30.875,3,9246,970301
54,2,0.999375,0.00399248,0.0350941,0.00133632,0.910897,0.219862,9.79259,1.5506,-0.473843,0.892635,0.00908095,0.00217976,0.0979289,1,9.62926e-05,-0.000143084,-3.72034e-07,0.0192585,-0.0286168,-7.44067e-05,0.999375,0.00399248,0.0350941,0.00133632,0.071257,0.501911,-0.994208,30.875,3,9247,970401
54,3,0.999375,0.00399248,0.0350941,0.00133632,0.910897,0.219862,9.79259,1.5506,-0.473843,0.892635,0.00908095,0.00217976,0.0979289,1,9.62926e-05,-0.000143084,-3.72034e-07,0.0192585,-0.0286168,-7.44067e-05,0.999375,0.00399248,0.0350941,0.00133632,0.071257,0.501911,-0.994208,30.875,3,9247,970401
54,4,0.999375,0.00399248,0.0350941,0.00133632,0.910897,0.219862,9.79259,1.5506,-0.473843,0.892635,0.00908095,0.00217976,0.0979289,1,9.62926e-05,-0.000143084,-3.72034e-07,0.0192585,-0.0286168,-7.44067e-05,0.999375,0.00399248,0.0350941,0.00133632,0.071257,0.501911,-0.994208,30.875,3,9247,970401
55,1,0.999382,0.00405247,0.034889,0.0012821,0.503487,0.126991,9.51094,1.13917,-0.318858,0.587158,0.0050168,0.00126779,0.0951103,1,1.04839e-05,-9.51695e-05,-1.29681e-05,0.00209677,-0.0190339,-0.00259361,0.999382,0.00405247,0.034889,0.0012821,0.0739876,0.502135,-0.980579,30.875,3,9249,970601
55,2,0.999385,0.00398063,0.0348113,0.00132187,0.504239,-0.658056,10.0003,1.4653,-1.21586,1.14327,0.00503602,-0.00657051,0.100004,1,-4.82191e-05,-3.44684e-05,4.01128e-05,-0.00964382,-0.00689369,0.00802257,0.999385,0.00398063,0.0348113,0.00132187,0.0758024,0.506536,-0.982005,30.875,3,9250,970701
55,3,0.999389,0.00396118,0.0346878,0.00133716,0.125661,-0.457467,9.7338,0.832613,-1.13603,0.839285,0.0012418,-0.00457598,0.0973381,1,6.97777e-06,-7.7042e-05,2.04045e-05,0.00139555,-0.0154084,0.00408091,0.999389,0.00396118,0.0346878,0.00133716,0.076144,0.507598,-0.987033,30.875,3,9251,970801
55,4,0.999389,0.00396118,0.0346878,0.00133716,0.125661,-0.457467,9.7338,0.832613,-1.13603,0.839285,0.0012418,-0.00457598,0.0973381,1,6.97777e-06,-7.7042e-05,2.04045e-05,0.00139555,-0.0154084,0.00408091,0.999389,0.00396118,0.0346878,0.00133716,0.076144,0.507598,-0.987033,30.875,3,9251,970801
56,1,0.999393,0.00403659,0.034584,0.00138528,0.0990637,0.0915337,9.93005,1.0927,-0.461947,1.11543,0.00100097,0.000905363,0.0993005,1,5.05278e-05,5.23156e-05,3.06437e-05,0.0101056,0.0104631,0.00612874,0.999393,0.00403659,0.034584,0.00138528,0.0728475,0.4989,-0.990242,30.875,3,9253,971001
56,2,0.999393,0.00403659,0.034584,0.00138528,0.0990637,0.0915337,9.93005,1.0927,-0.461947,1.11543,0.00100097,0.000905363,0.0993005,1,5.05278e-05,5.23156e-05,3.06437e-05,0.0101056,0.0104631,0.00612874,0.999393,0.00403659,0.034584,0.00138528,0.0728475,0.4989,-0.990242,30.875,3,9253,971001
56,3,0.999397,0.00401491,0.0344699,0.00140363,-0.0638622,-0.138099,9.63399,0.594921,-0.648586,0.759924,-0.000650137,-0.00138187,0.0963398,1,4.41265e-06,-6.00746e-05,2.16459e-05,0.00088253,-0.0120149,0.00432918,0.999397,0.00401491,0.0344699,0.00140363,0.0700798,0.498355,-0.985696,30.875,3,9254,971101
56,4,0.999397,0.00401491,0.0344699,0.00140363,-0.0638622,-0.138099,9.63399,0.594921,-0.648586,0.759924,-0.000650137,-0.00138187,0.0963398,1,4.41265e-06,-6.00746e-05,2.16459e-05,0.00088253,-0.0120149,0.00432918,0.999397,0.00401491,0.0344699,0.00140363,0.0700798,0.498355,-0.985696,30.875,3,9254,971101
57,1,0.999402,0.00405112,0.0343163,0.00144054,0.3071,0.0417418,10.0259,1.16546,-0.477317,1.15818,0.00307439,0.000410481,0.100259,1,3.55313e-05,1.69996e-05,3.06074e-05,0.00710626,0.00339992,0.00612148,0.999402,0.00405112,0.0343163,0.00144054,0.0742689,0.507577,-0.985005,30.875,3,9256,971301
57,2,0.999404,0.0040412,0.034258,0.00145787,-0.128574,0.0623575,9.74267,0.607401,-0.424024,0.928221,-0.00128528,0.000620271,0.0974267,1,1.66485e-05,2.512e-06,2.31547e-05,0.0033297,0.000502401,0.00463094,0.999404,0.0040412,0.034258,0.00145787,0.0774393,0.507694,-0.993098,30.875,3,9257,971401
57,3,0.999404,0.0040412,0.034258,0.00145787,-0.128574,0.0623575,9.74267,0.607401,-0.424024,0.928221,-0.00128528,0.000620271,0.0974267,1,1.66485e-05,2.512e-06,2.31547e-05,0.0033297,0.000502401,0.00463094,0.999404,0.0040412,0.034258,0.00145787,0.0774393,0.507694,-0.993098,30.875,3,9257,971401
57,4,0.999404,0.0040412,0.034258,0.00145787,-0.128574,0.0623575,9.74267,0.607401,-0.424024,0.928221,-0.00128528,0.000620271,0.0974267,1,1.66485e-05,2.512e-06,2.31547e-05,0.0033297,0.000502401,0.00463094,0.999404,0.0040412,0.034258,0.00145787,0.0774393,0.507694,-0.993098,30.875,3,9257,971401
58,1,0.999409,0.00405418,0.0341006,0.00149004,0.216718,-0.00421988,9.87312,1.13063,-0.651237,1.01388,0.00217143,-4.94034e-05,0.0987311,1,3.69825e-05,2.15069e-05,2.2616e-05,0.0073965,0.00430138,0.0045232,0.999409,0.00405418,0.0341006,0.00149004,0.07266,0.504337,-0.994161,30.875,3,9259,971601
58,2,0.999414,0.00404244,0.0339562,0.00148994,0.165152,0.06893,9.71904,0.758262,-0.573224,0.867758,0.00163613,0.000686415,0.0971907,1,1.48707e-05,-7.91664e-05,1.62186e-06,0.00297413,-0.0158333,0.000324373,0.999414,0.00404244,0.0339562,0.00148994,0.0733057,0.504695,-0.987085,30.875,3,9260,971701
58,3,0.999417,0.0040179,0.033873,0.00151842,0.761319,-0.244154,10.0116,1.57538,-0.88141,1.10039,0.00760998,-0.00244123,0.100116,1,5.73319e-07,-1.67358e-05,2.82753e-05,0.000114664,-0.00334717,0.00565506,0.999417,0.0040179,0.033873,0.00151842,0.0758015,0.503645,-0.984089,30.875,3,9261,971801
58,4,0.999417,0.0040179,0.033873,0.00151842,0.761319,-0.244154,10.0116,1.57538,-0.88141,1.10039,0.00760998,-0.00244123,0.100116,1,5.73319e-07,-1.67358e-05,2.82753e-05,0.000114664,-0.00334717,0.00565506,0.999417,0.0040179,0.033873,0.00151842,0.0758015,0.503645,-0.984089,30.875,3,9261,971801
59,1,0.999423,0.0040026,0.0336806,0.00154285,0.750323,0.0601413,10.1001,1.59861,-0.503773,1.16922,0.00749697,0.00059789,0.101002,1,1.90783e-05,-3.08626e-05,2.20517e-05,0.00381566,-0.00617252,0.00441034,0.999423,0.0040026,0.0336806,0.00154285,0.0765796,0.506663,-0.989581,30.875,3,9263,972001
59,2,0.999423,0.0040026,0.0336806,0.00154285,0.750323,0.0601413,10.1001,1.59861,-0.503773,1.16922,0.00749697,0.00059789,0.101002,1,1.90783e-05,-3.08626e-05,2.20517e-05,0.00381566,-0.00617252,0.00441034,0.999423,0.0040026,0.0336806,0.00154285,0.0765796,0.506663,-0.989581,30.875,3,9263,972001
59,3,0.999425,0.0039881,0.0336319,0.00155945,0.0639689,0.0352253,9.78186,0.682953,-0.601615,0.984998,0.00064465,0.000350069,0.0978186,1,1.12958e-05,2.54309e-05,2.0241e-05,0.00225917,0.00508618,0.00404819,0.999425,0.0039881,0.0336319,0.00155945,0.0736189,0.506741,-0.992596,30.875,3,9264,972101
59,4,0.999425,0.0039881,0.0336319,0.00155945,0.0639689,0.0352253,9.78186,0.682953,-0.601615,0.984998,0.00064465,0.000350069,0.0978186,1,1.12958e-05,2.54309e-05,2.0241e-05,0.00225917,0.00508618,0.00404819,0.999425,0.0039881,0.0336319,0.00155945,0.0736189,0.506741,-0.992596,30.875,3,9264,972101
60,1,0.999433,0.00391104,0.0334116,0.00163936,0.234287,-0.195937,9.90935,0.774927,-0.814031,1.06552,0.0023362,-0.00195854,0.0990936,1,-3.50706e-06,-3.42058e-05,2.85185e-05,-0.000701413,-0.00684116,0.00570371,0.999433,0.00391104,0.0334116,0.00163936,0.0724664,0.503167,-0.983074,30.875,3,9266,972301
60,2,0.999435,0.00390007,0.0333431,0.00168351,0.507286,-0.325018,9.83414,1.34764,-0.942331,0.905664,0.00507504,-0.00325241,0.0983412,1,1.37018e-05,9.55929e-06,4.56479e-05,0.00274035,0.00191186,0.00912958,0.999435,0.00390007,0.0333431,0.00168351,0.0730263,0.505033,-0.97849,30.875,3,9267,972401
60,3,0.999435,0.00390007,0.0333431,0.00168351,0.507286,-0.325018,9.83414,1.34764,-0.942331,0.905664,0.00507504,-0.00325241,0.0983412,1,1.37018e-05,9.55929e-06,4.56479e-05,0.00274035,0.00191186,0.00912958,0.999435,0.00390007,0.0333431,0.00168351,0.0730263,0.505033,-0.97849,30.875,3,9267,972401
60,4,0.999435,0.00390007,0.0333431,0.00168351,0.507286,-0.325018,9.83414,1.34764,-0.942331,0.905664,0.00507504,-0.00325241,0.0983412,1,1.37018e-05,9.55929e-06,4.56479e-05,0.00274035,0.00191186,0.00912958,0.999435,0.00390007,0.0333431,0.00168351,0.0730263,0.505033,-0.97849,30.875,3,9267,972401
61,1,0.99944,0.00398874,0.0331784,0.00176511,0.485408,-0.205487,9.9792,1.28232,-0.8383,1.06805,0.00485716,-0.00207614,0.0997914,1,0.000109229,1.42718e-05,5.44204e-05,0.0218458,0.00285436,0.0108841,0.99944,0.00398874,0.0331784,0.00176511,0.0785216,0.510007,-0.986486,30.875,3,9269,972601
61,2,0.999441,0.00402575,0.0331288,0.00181624,0.301696,-0.1321,9.99054,1.02773,-0.734352,1.11227,0.00302401,-0.00133341,0.0999051,1,6.38008e-05,3.4568e-05,5.60367e-05,0.0127602,0.0069136,0.0112073,0.999441,0.00402575,0.0331288,0.00181624,0.0774313,0.508181,-0.993087,30.875,3,9270,972701
61,3,0.999442,0.00404543,0.0330942,0.00187006,-0.160155,0.169773,9.84252,0.577688,-0.371434,1.01354,-0.00159173,0.00168843,0.0984255,1,4.62792e-05,5.08647e-05,5.74241e-05,0.00925584,0.0101729,0.0114848,0.999442,0.00404543,0.0330942,0.00187006,0.0736559,0.506714,-0.991082,30.875,3,9271,972801
61,4,0.999442,0.00404543,0.0330942,0.00187006,-0.160155,0.169773,9.84252,0.577688,-0.371434,1.01354,-0.00159173,0.00168843,0.0984255,1,4.62792e-05,5.08647e-05,5.74241e-05,0.00925584,0.0101729,0.0114848,0.999442,0.00404543,0.0330942,0.00187006,0.0736559,0.506714,-0.991082,30.875,3,9271,972801
62,1,0.999448,0.00407378,0.0329302,0.00193242,0.162927,0.0808462,9.79447,0.786826,-0.483418,0.8922,0.0016248,0.000802838,0.0979448,1,2.90498e-05,-2.26314e-05,2.02767e-05,0.00580996,-0.00452628,0.00405533,0.999448,0.00407378,0.0329302,0.00193242,0.0768505,0.505019,-0.979518,30.875,3,9273,973001
62,2,0.999448,0.00407378,0.0329302,0.00193242,0.162927,0.0808462,9.79447,0.786826,-0.483418,0.8922,0.0016248,0.000802838,0.0979448,1,2.90498e-05,-2.26314e-05,2.02767e-05,0.00580996,-0.00452628,0.00405533,0.999448,0.00407378,0.0329302,0.00193242,0.0768505,0.505019,-0.979518,30.875,3,9273,973001
62,3,0.99945,0.00412868,0.0328581,0.0019386,0.158078,-0.0816912,9.7775,0.834867,-0.730185,0.914301,0.00158373,-0.000832796,0.0977748,1,8.14201e-05,1.50216e-05,1.18641e-05,0.016284,0.00300431,0.00237283,0.99945,0.00412868,0.0328581,0.0019386,0.0777155,0.509419,-0.980434,30.875,3,9274,973101
62,4,0.99945,0.00412868,0.0328581,0.0019386,0.158078,-0.0816912,9.7775,0.834867,-0.730185,0.914301,0.00158373,-0.000832796,0.0977748,1,8.14201e-05,1.50216e-05,1.18641e-05,0.016284,0.00300431,0.00237283,0.99945,0.00412868,0.0328581,0.0019386,0.0777155,0.509419,-0.980434,30.875,3,9274,973101
63,1,0.999453,0.00413109,0.0327642,0.00201082,-0.122174,0.045784,9.75503,0.410142,-0.518298,0.982829,-0.00121368,0.000455916,0.0975505,1,9.33995e-06,4.14872e-05,4.16686e-05,0.00186799,0.00829744,0.00833372,0.999453,0.00413109,0.0327642,0.00201082,0.0760714,0.511987,-0.986935,30.875,3,9276,973301
63,2,0.999455,0.00414368,0.0326965,0.00202775,-0.0268162,0.0250784,9.61815,0.635071,-0.599671,0.717055,-0.00026377,0.000243388,0.0961816,1,3.83914e-05,2.28881e-05,2.10866e-05,0.00767829,0.00457762,0.00421731,0.999455,0.00414368,0.0326965,0.00202775,0.0742936,0.507559,-0.983995,30.875,3,9277,973401
63,3,0.999455,0.00414368,0.0326965,0.00202775,-0.0268162,0.0250784,9.61815,0.635071,-0.599671,0.717055,-0.00026377,0.000243388,0.0961816,1,3.83914e-05,2.28881e-05,2.10866e-05,0.00767829,0.00457762,0.00421731,0.999455,0.00414368,0.0326965,0.00202775,0.0742936,0.507559,-0.983995,30.875,3,9277,973401
63,4,0.999455,0.00414368,0.0326965,0.00202775,-0.0268162,0.0250784,9.61815,0.635071,-0.599671,0.717055,-0.00026377,0.000243388,0.0961816,1,3.83914e-05,2.28881e-05,2.10866e-05,0.00767829,0.00457762,0.00421731,0.999455,0.00414368,0.0326965,0.00202775,0.0742936,0.507559,-0.983995,30.875,3,9277,973401
64,1,0.99946,0.0041476,0.032519,0.0020537,0.108949,0.125863,9.86004,0.66576,-0.47739,1.01649,0.00108409,0.00125289,0.0986005,1,2.93234e-05,-2.71318e-05,1.94361e-05,0.00586468,-0.00542636,0.00388722,0.99946,0.0041476,0.032519,0.0020537,0.07633,0.510353,-0.977377,30.875,3,9279,973601
64,2,0.999464,0.00415793,0.0324095,0.00208191,0.060839,-0.116583,9.78295,0.736492,-0.708411,0.865863,0.000605176,-0.00117267,0.0978294,1,3.51711e-05,-1.68071e-05,3.2106e-05,0.00703422,-0.00336142,0.0064212,0.999464,0.00415793,0.0324095,0.00208191,0.0796128,0.514724,-0.9778,30.875,3,9280,973701
64,3,0.999466,0.00411408,0.0323421,0.00212809,0.522489,-0.183502,9.76504,1.28429,-0.719476,0.82525,0.0052301,-0.0018307,0.0976502,1,-1.95632e-05,2.57768e-05,4.75985e-05,-0.00391264,0.00515536,0.0095197,0.999466,0.00411408,0.0323421,0.00212809,0.0809001,0.515308,-0.983854,30.875,3,9281,973801
64,4,0.999466,0.00411408,0.0323421,0.00212809,0.522489,-0.183502,9.76504,1.28429,-0.719476,0.82525,0.0052301,-0.0018307,0.0976502,1,-1.95632e-05,2.57768e-05,4.75985e-05,-0.00391264,0.00515536,0.0095197,0.999466,0.00411408,0.0323421,0.00212809,0.0809001,0.515308,-0.983854,30.875,3,9281,973801
65,1,0.999471,0.00415934,0.0321761,0.00218855,0.166147,-0.254572,10.1394,0.713664,-0.830434,1.28953,0.00166178,-0.00255238,0.101393,1,3.34215e-05,6.9832e-07,3.44791e-05,0.00668431,0.000139664,0.00689582,0.999471,0.00415934,0.0321761,0.00218855,0.0752155,0.50999,-0.983945,30.875,3,9283,974001
65,2,0.999471,0.00415934,0.0321761,0.00218855,0.166147,-0.254572,10.1394,0.713664,-0.830434,1.28953,0.00166178,-0.00255238,0.101393,1,3.34215e-05,6.9832e-07,3.44791e-05,0.00668431,0.000139664,0.00689582,0.999471,0.00415934,0.0321761,0.00218855,0.0752155,0.50999,-0.983945,30.875,3,9283,974001
65,3,0.999472,0.00424456,0.0321316,0.00222948,-0.203941,-0.195656,9.94423,0.446838,-0.903244,1.14708,-0.00202904,-0.00197882,0.0994421,1,0.000110963,5.11934e-05,4.69929e-05,0.0221925,0.0102387,0.00939859,0.999472,0.00424456,0.0321316,0.00222948,0.0734841,0.509383,-0.976375,30.875,3,9284,974101
65,4,0.999472,0.00424456,0.0321316,0.00222948,-0.203941,-0.195656,9.94423,0.446838,-0.903244,1.14708,-0.00202904,-0.00197882,0.0994421,1,0.000110963,5.11934e-05,4.69929e-05,0.0221925,0.0102387,0.00939859,0.999472,0.00424456,0.0321316,0.00222948,0.0734841,0.509383,-0.976375,30.875,3,9284,974101
66,1,0.999479,0.00420116,0.0319311,0.00226923,0.286407,0.00558356,9.97725,1.05408,-0.499922,1.02538,0.00285738,6.41915e-05,0.0997726,1,-4.12039e-05,-3.35035e-05,2.33995e-05,-0.00824078,-0.00670071,0.00467989,0.999479,0.00420116,0.0319311,0.00226923,0.0786966,0.517108,-0.974207,30.875,3,9286,974301
66,2,0.999481,0.00426022,0.0318472,0.00229083,0.2816,-0.469232,10.1405,1.12889,-1.16435,1.28443,0.00281855,-0.00470928,0.101405,1,8.43597e-05,1.12957e-05,2.7496e-05,0.0168719,0.00225913,0.0054992,0.999481,0.00426022,0.0318472,0.00229083,0.0804488,0.518663,-0.980241,30.875,3,9287,974401
66,3,0.999481,0.00426022,0.0318472,0.00229083,0.2816,-0.469232,10.1405,1.12889,-1.16435,1.28443,0.00281855,-0.00470928,0.101405,1,8.43597e-05,1.12957e-05,2.7496e-05,0.0168719,0.00225913,0.0054992,0.999481,0.00426022,0.0318472,0.00229083,0.0804488,0.518663,-0.980241,30.875,3,9287,974401
66,4,0.999481,0.00426022,0.0318472,0.00229083,0.2816,-0.469232,10.1405,1.12889,-1.16435,1.28443,0.00281855,-0.00470928,0.101405,1,8.43597e-05,1.12957e-05,2.7496e-05,0.0168719,0.00225913,0.0054992,0.999481,0.00426022,0.0318472,0.00229083,0.0804488,0.518663,-0.980241,30.875,3,9287,974401
67,1,0.999485,0.00422454,0.0317233,0.00234957,-0.751817,-0.307363,9.74305,-0.309052,-0.976469,0.931854,-0.00750874,-0.00307307,0.0974313,1,-5.57239e-06,4.73102e-05,3.50677e-05,-0.00111448,0.00946204,0.00701353,0.999485,0.00422454,0.0317233,0.00234957,0.0756818,0.515298,-0.980799,30.875,3,9289,974601
67,2,0.999489,0.00423166,0.0315962,0.00237725,-0.356772,0.0338795,9.69991,0.150909,-0.656743,0.764231,-0.00357405,0.000332343,0.0969989,1,3.20463e-05,-3.25235e-05,3.29039e-05,0.00640927,-0.0065047,0.00658077,0.999489,0.00423166,0.0315962,0.00237725,0.0739338,0.514221,-0.974249,30.875,3,9290,974701
67,3,0.999492,0.0042125,0.0314972,0.00240034,-0.0215459,0.130403,9.99973,0.773484,-0.525309,1.02753,-0.000216583,0.00130282,0.0999973,1,5.99946e-06,-5.27655e-06,2.62946e-05,0.00119989,-0.00105531,0.00525891,0.999492,0.0042125,0.0314972,0.00240034,0.0768746,0.516085,-0.970686,30.875,3,9291,974801
67,4,0.999492,0.0042125,0.0314972,0.00240034,-0.0215459,0.130403,9.99973,0.773484,-0.525309,1.02753,-0.000216583,0.00130282,0.0999973,1,5.99946e-06,-5.27655e-06,2.62946e-05,0.00119989,-0.00105531,0.00525891,0.999492,0.0042125,0.0314972,0.00240034,0.0768746,0.516085,-0.970686,30.875,3,9291,974801
68,1,0.999496,0.00417491,0.0313643,0.00244022,-0.427573,-0.239722,9.2284,0.384898,-0.892327,0.4728,-0.00427522,-0.00240701,0.0922837,1,5.25971e-05,2.52966e-06,1.03052e-05,0.0105194,0.000505932,0.00206103,0.999496,0.00417491,0.0313643,0.00244022,0.078966,0.524004,-0.978096,30.875,3,9293,975001
68,2,0.999504,0.00416877,0.0311266,0.0024655,0.00842184,-0.122742,9.35751,0.554233,-0.677341,0.323572,5.72719e-05,-0.00123079,0.0935751,1,1.79979e-05,-0.000144366,2.91819e-05,0.00359958,-0.0288733,0.00583638,0.999504,0.00416877,0.0311266,0.0024655,0.0779659,0.521149,-0.98169,30.875,3,9294,975101
68,3,0.999504,0.00416877,0.0311266,0.0024655,0.00842184,-0.122742,9.35751,0.554233,-0.677341,0.323572,5.72719e-05,-0.00123079,0.0935751,1,1.79979e-05,-0.000144366,2.91819e-05,0.00359958,-0.0288733,0.00583638,0.999504,0.00416877,0.0311266,0.0024655,0.0779659,0.521149,-0.98169,30.875,3,9294,975101
68,4,0.999504,0.00416877,0.0311266,0.0024655,0.00842184,-0.122742,9.35751,0.554233,-0.677341,0.323572,5.72719e-05,-0.00123079,0.0935751,1,1.79979e-05,-0.000144366,2.91819e-05,0.00359958,-0.0288733,0.00583638,0.999504,0.00416877,0.0311266,0.0024655,0.0779659,0.521149,-0.98169,30.875,3,9294,975101
69,1,0.999514,0.00414747,0.0308036,0.00256205,-0.203718,-0.407397,9.46199,0.342209,-0.981772,0.751645,-0.00204756,-0.00407911,0.0946195,1,2.61287e-05,-5.69367e-05,4.92175e-05,0.00522575,-0.0113873,0.0098435,0.999514,0.00414747,0.0308036,0.00256205,0.0725365,0.516609,-0.970654,30.875,3,9296,975301
69,2,0.99952,0.00420542,0.0305878,0.00259059,0.573562,0.53155,10.0487,0.976345,-0.105854,1.12833,0.00571094,0.00529915,0.100489,1,8.33091e-05,-0.000120913,3.48635e-05,0.0166618,-0.0241826,0.00697271,0.99952,0.00420542,0.0305878,0.00259059,0.0755394,0.519873,-0.963525,30.875,3,9297,975401
69,3,0.99952,0.00420542,0.0305878,0.00259059,0.573562,0.53155,10.0487,0.976345,-0.105854,1.12833,0.00571094,0.00529915,0.100489,1,8.33091e-05,-0.000120913,3.48635e-05,0.0166618,-0.0241826,0.00697271,0.99952,0.00420542,0.0305878,0.00259059,0.0755394,0.519873,-0.963525,30.875,3,9297,975401
69,4,0.99952,0.00420542,0.0305878,0.00259059,0.573562,0.53155,10.0487,0.976345,-0.105854,1.12833,0.00571094,0.00529915,0.100489,1,8.33091e-05,-0.000120913,3.48635e-05,0.0166618,-0.0241826,0.00697271,0.99952,0.00420542,0.0305878,0.00259059,0.0755394,0.519873,-0.963525,30.875,3,9297,975401
70,1,0.99953,0.00409975,0.0302631,0.00260503,0.647614,0.534267,10.2634,1.27133,-0.205108,1.29097,0.00646767,0.00534991,0.102634,1,-3.4485e-05,-4.06094e-05,1.25973e-05,-0.006897,-0.00812188,0.00251945,0.99953,0.00409975,0.0302631,0.00260503,0.0767502,0.525813,-0.968954,30.875,3,9299,975601
70,2,0.999532,0.00398652,0.0302352,0.00259896,-0.0392085,-0.0176964,9.88322,0.540472,-0.657467,1.13394,-0.000378193,-0.000159281,0.0988323,1,-8.94347e-05,7.02968e-05,-7.04146e-06,-0.0178869,0.0140594,-0.00140829,0.999532,0.00398652,0.0302352,0.00259896,0.0756769,0.525902,-0.973493,30.875,3,9300,975701
70,3,0.999536,0.00390566,0.0300935,0.00262175,-0.531242,-0.202602,9.46841,-0.311467,-0.705301,0.455137,-0.0053206,-0.00201528,0.0946839,1,-5.80445e-05,-4.36761e-05,2.3206e-05,-0.0116089,-0.00873522,0.0046412,0.999536,0.00390566,0.0300935,0.00262175,0.074311,0.523448,-0.972026,30.875,3,9301,975801
70,4,0.999536,0.00390566,0.0300935,0.00262175,-0.531242,-0.202602,9.46841,-0.311467,-0.705301,0.455137,-0.0053206,-0.00201528,0.0946839,1,-5.80445e-05,-4.36761e-05,2.3206e-05,-0.0116089,-0.00873522,0.0046412,0.999536,0.00390566,0.0300935,0.00262175,0.074311,0.523448,-0.972026,30.875,3,9301,975801
71,1,0.999544,0.00381679,0.0298258,0.00271319,0.276855,-0.405725,10.1845,0.692806,-0.946636,1.45608,0.0027703,-0.00405769,0.101845,1,3.44645e-06,6.69198e-06,4.76834e-05,0.000689289,0.0013384,0.00953669,0.999544,0.00381679,0.0298258,0.00271319,0.0735959,0.524721,-0.960883,30.875,3,9303,976001
71,2,0.999544,0.00381679,0.0298258,0.00271319,0.276855,-0.405725,10.1845,0.692806,-0.946636,1.45608,0.0027703,-0.00405769,0.101845,1,3.44645e-06,6.69198e-06,4.76834e-05,0.000689289,0.0013384,0.00953669,0.999544,0.00381679,0.0298258,0.00271319,0.0735959,0.524721,-0.960883,30.875,3,9303,976001
71,3,0.999545,0.00387365,0.0297705,0.00277211,-0.183012,-0.361576,9.46763,0.169488,-1.00233,0.584456,-0.00182176,-0.00363127,0.0946759,1,8.06619e-05,4.16543e-05,6.50861e-05,0.0161324,0.00833086,0.0130172,0.999545,0.00387365,0.0297705,0.00277211,0.075415,0.529601,-0.961793,30.875,3,9304,976101
71,4,0.999545,0.00387365,0.0297705,0.00277211,-0.183012,-0.361576,9.46763,0.169488,-1.00233,0.584456,-0.00182176,-0.00363127,0.0946759,1,8.06619e-05,4.16543e-05,6.50861e-05,0.0161324,0.00833086,0.0130172,0.999545,0.00387365,0.0297705,0.00277211,0.075415,0.529601,-0.961793,30.875,3,9304,976101
72,1,0.999551,0.00390179,0.0295722,0.00290577,0.187995,0.125444,10.1276,0.704456,-0.646445,1.3214,0.00188536,0.00124291,0.101276,1,5.83742e-05,2.76721e-05,7.8247e-05,0.0116748,0.00553441,0.0156494,0.999551,0.00390179,0.0295722,0.00290577,0.075201,0.529276,-0.97089,30.875,3,9306,976301
72,2,0.999552,0.00380832,0.0295222,0.00299398,-0.410243,0.110159,9.45287,0.110151,-0.24901,0.684148,-0.00409374,0.00111409,0.0945289,1,-6.99154e-05,4.69652e-05,8.77924e-05,-0.0139831,0.00939304,0.0175585,0.999552,0.00380832,0.0295222,0.00299398,0.0743365,0.526321,-0.968932,30.875,3,9307,976401
72,3,0.999552,0.00380832,0.0295222,0.00299398,-0.410243,0.110159,9.45287,0.110151,-0.24901,0.684148,-0.00409374,0.00111409,0.0945289,1,-6.99154e-05,4.69652e-05,8.77924e-05,-0.0139831,0.00939304,0.0175585,0.999552,0.00380832,0.0295222,0.00299398,0.0743365,0.526321,-0.968932,30.875,3,9307,976401
72,4,0.999552,0.00380832,0.0295222,0.00299398,-0.410243,0.110159,9.45287,0.110151,-0.24901,0.684148,-0.00409374,0.00111409,0.0945289,1,-6.99154e-05,4.69652e-05,8.77924e-05,-0.0139831,0.00939304,0.0175585,0.999552,0.00380832,0.0295222,0.00299398,0.0743365,0.526321,-0.968932,30.875,3,9307,976401
73,1,0.999561,0.0039508,0.02921,0.00313379,0.322734,0.245353,9.88648,1.01794,-0.296303,1.02693,0.00320912,0.00244249,0.0988656,1,5.82486e-05,-9.03111e-05,7.46383e-05,0.0116497,-0.0180622,0.0149277,0.999561,0.0039508,0.02921,0.00313379,0.0735688,0.530042,-0.958239,30.875,3,9309,976601
73,2,0.999565,0.00397815,0.0290408,0.00321148,-0.0791432,-0.0428108,9.73301,0.699971,-0.594911,1.01838,-0.000805762,-0.000438188,0.0973299,1,5.11077e-05,-7.39764e-05,8.17466e-05,0.0102215,-0.0147953,0.0163493,0.999565,0.00397815,0.0290408,0.00321148,0.073973,0.533949,-0.958659,30.875,3,9310,976701
73,3,0.99957,0.00403917,0.0288594,0.00326429,0.541763,-0.0170674,10.0761,1.2856,-0.677943,1.06974,0.00540016,-0.000187254,0.100762,1,8.54151e-05,-8.68205e-05,5.85703e-05,0.017083,-0.0173641,0.0117141,0.99957,0.00403917,0.0288594,0.00326429,0.0758116,0.535441,-0.96116,30.875,3,9311,976801
73,4,0.99957,0.00403917,0.0288594,0.00326429,0.541763,-0.0170674,10.0761,1.2856,-0.677943,1.06974,0.00540016,-0.000187254,0.100762,1,8.54151e-05,-8.68205e-05,5.85703e-05,0.017083,-0.0173641,0.0117141,0.99957,0.00403917,0.0288594,0.00326429,0.0758116,0.535441,-0.96116,30.875,3,9311,976801
74,1,0.999576,0.00402764,0.0286501,0.00338458,-0.507676,-0.555629,9.23815,0.271156,-1.15106,0.336434,-0.00508067,-0.00555699,0.0923812,1,-7.81202e-07,-2.61284e-05,8.28583e-05,-0.00015624,-0.00522568,0.0165717,0.999576,0.00402764,0.0286501,0.00338458,0.0710232,0.529682,-0.964296,30.875,3,9313,977001
74,2,0.999582,0.00410771,0.0284059,0.00346445,0.297523,-0.144945,10.109,0.627967,-0.853236,0.921445,0.00294524,-0.0014699,0.10109,1,0.000103676,-0.000149588,8.72801e-05,0.0207351,-0.0299177,0.017456,0.999582,0.00410771,0.0284059,0.00346445,0.0683012,0.530068,-0.957204,30.875,3,9314,977101
74,3,0.999582,0.00410771,0.0284059,0.00346445,0.297523,-0.144945,10.109,0.627967,-0.853236,0.921445,0.00294524,-0.0014699,0.10109,1,0.000103676,-0.000149588,8.72801e-05,0.0207351,-0.0299177,0.017456,0.999582,0.00410771,0.0284059,0.00346445,0.0683012,0.530068,-0.957204,30.875,3,9314,977101
74,4,0.999582,0.00410771,0.0284059,0.00346445,0.297523,-0.144945,10.109,0.627967,-0.853236,0.921445,0.00294524,-0.0014699,0.10109,1,0.000103676,-0.000149588,8.72801e-05,0.0207351,-0.0299177,0.017456,0.999582,0.00410771,0.0284059,0.00346445,0.0683012,0.530068,-0.957204,30.875,3,9314,977101
75,1,0.999586,0.004165,0.0282311,0.00358941,-0.574697,0.30732,8.80495,-0.192026,-0.0101649,0.0966072,-0.00574222,0.00306562,0.0880501,1,3.94267e-05,2.89001e-05,5.57902e-05,0.00788534,0.00578002,0.011158,0.999586,0.004165,0.0282311,0.00358941,0.0726369,0.534846,-0.953583,30.875,3,9316,977301
75,2,0.999589,0.00429564,0.0281127,0.00362964,-0.227858,-0.32148,9.69907,0.591631,-1.02739,0.754331,-0.00228287,-0.00324509,0.0969896,1,0.000154993,-2.37346e-05,4.90937e-05,0.0309985,-0.00474693,0.00981874,0.999589,0.00429564,0.0281127,0.00362964,0.0748375,0.536904,-0.960618,30.875,3,9317,977401
75,3,0.999589,0.00429564,0.0281127,0.00362964,-0.227858,-0.32148,9.69907,0.591631,-1.02739,0.754331,-0.00228287,-0.00324509,0.0969896,1,0.000154993,-2.37346e-05,4.90937e-05,0.0309985,-0.00474693,0.00981874,0.999589,0.00429564,0.0281127,0.00362964,0.0748375,0.536904,-0.960618,30.875,3,9317,977401
75,4,0.999589,0.00429564,0.0281127,0.00362964,-0.227858,-0.32148,9.69907,0.591631,-1.02739,0.754331,-0.00228287,-0.00324509,0.0969896,1,0.000154993,-2.37346e-05,4.90937e-05,0.0309985,-0.00474693,0.00981874,0.999589,0.00429564,0.0281127,0.00362964,0.0748375,0.536904,-0.960618,30.875,3,9317,977401
76,1,0.999599,0.00413912,0.027764,0.00371594,-0.13485,-0.015658,9.38223,0.231115,-0.639901,0.227625,-0.00137108,-0.000140954,0.093822,1,-8.39895e-05,-0.000120433,4.92743e-05,-0.0167979,-0.0240867,0.00985487,0.999599,0.00413912,0.027764,0.00371594,0.0686428,0.53113,-0.962233,30.875,3,9319,977601
76,2,0.999601,0.00416633,0.0276902,0.00376128,0.524758,-0.126112,10.4769,0.930881,-1.14434,1.4455,0.00525179,-0.0012711,0.104768,1,5.01702e-05,1.95041e-05,5.05814e-05,0.010034,0.00390083,0.0101163,0.999601,0.00416633,0.0276902,0.00376128,0.0654894,0.532928,-0.952077,30.875,3,9320,977701
76,3,0.999602,0.00407878,0.0276554,0.00379534,0.0446448,-0.507704,10.0587,0.432953,-1.32399,1.33853,0.000458849,-0.00506419,0.100588,1,-6.37227e-05,5.98321e-05,3.59816e-05,-0.0127445,0.0119664,0.00719632,0.999602,0.00407878,0.0276554,0.00379534,0.067913,0.537714,-0.947941,30.875,3,9321,977801
76,4,0.999602,0.00407878,0.0276554,0.00379534,0.0446448,-0.507704,10.0587,0.432953,-1.32399,1.33853,0.000458849,-0.00506419,0.100588,1,-6.37227e-05,5.98321e-05,3.59816e-05,-0.0127445,0.0119664,0.00719632,0.999602,0.00407878,0.0276554,0.00379534,0.067913,0.537714,-0.947941,30.875,3,9321,977801
77,1,0.999607,0.0042034,0.02745,0.00392199,-0.542814,-0.195447,9.47063,0.24503,-1.05032,0.594539,-0.00543379,-0.00198306,0.0947053,1,0.000147203,-3.11883e-05,6.54488e-05,0.0294405,-0.00623767,0.0130898,0.999607,0.0042034,0.02745,0.00392199,0.0719844,0.539312,-0.957521,30.875,3,9323,978001
77,2,0.999607,0.0042034,0.02745,0.00392199,-0.542814,-0.195447,9.47063,0.24503,-1.05032,0.594539,-0.00543379,-0.00198306,0.0947053,1,0.000147203,-3.11883e-05,6.54488e-05,0.0294405,-0.00623767,0.0130898,0.999607,0.0042034,0.02745,0.00392199,0.0719844,0.539312,-0.957521,30.875,3,9323,978001
77,3,0.999612,0.00407178,0.0272791,0.00399652,0.34955,0.415433,10.5821,0.990387,0.211283,1.52064,0.00347812,0.0041776,0.105821,1,-0.000107408,-7.90793e-05,7.62316e-05,-0.0214816,-0.0158159,0.0152463,0.999612,0.00407178,0.0272791,0.00399652,0.0671604,0.537916,-0.959045,30.875,3,9324,978101
77,4,0.999612,0.00407178,0.0272791,0.00399652,0.34955,0.415433,10.5821,0.990387,0.211283,1.52064,0.00347812,0.0041776,0.105821,1,-0.000107408,-7.90793e-05,7.62316e-05,-0.0214816,-0.0158159,0.0152463,0.999612,0.00407178,0.0272791,0.00399652,0.0671604,0.537916,-0.959045,30.875,3,9324,978101
78,1,0.999614,0.00421882,0.0271643,0.0040816,-0.19134,0.364488,9.24937,0.282436,-0.178569,0.352675,-0.00190903,0.00363553,0.0924941,1,4.94922e-05,2.57032e-05,5.25258e-05,0.00989844,0.00514065,0.0105052,0.999614,0.00421882,0.0271643,0.0040816,0.0659833,0.53436,-0.950532,30.875,3,9326,978301
78,2,0.999617,0.00426689,0.0270205,0.00411996,-0.634796,0.144691,9.50906,0.441467,-0.567956,0.789685,-0.00635824,0.00143267,0.0950901,1,7.18918e-05,-5.3354e-05,4.45841e-05,0.0143784,-0.0106708,0.00891682,0.999617,0.00426689,0.0270205,0.00411996,0.0689568,0.535719,-0.94597,30.875,3,9327,978401
78,3,0.999617,0.00426689,0.0270205,0.00411996,-0.634796,0.144691,9.50906,0.441467,-0.567956,0.789685,-0.00635824,0.00143267,0.0950901,1,7.18918e-05,-5.3354e-05,4.45841e-05,0.0143784,-0.0106708,0.00891682,0.999617,0.00426689,0.0270205,0.00411996,0.0689568,0.535719,-0.94597,30.875,3,9327,978401
78,4,0.999617,0.00426689,0.0270205,0.00411996,-0.634796,0.144691,9.50906,0.441467,-0.567956,0.789685,-0.00635824,0.00143267,0.0950901,1,7.18918e-05,-5.3354e-05,4.45841e-05,0.0143784,-0.0106708,0.00891682,0.999617,0.00426689,0.0270205,0.00411996,0.0689568,0.535719,-0.94597,30.875,3,9327,978401
79,1,0.999623,0.00432335,0.0267592,0.00430096,0.343845,-0.423168,10.2312,0.539598,-1.13418,1.38309,0.00345336,-0.00425887,0.102311,1,0.000136547,6.83421e-05,0.000108963,0.0273095,0.0136684,0.0217925,0.999623,0.00432335,0.0267592,0.00430096,0.0686094,0.542719,-0.955409,30.875,3,9329,978601
79,2,0.999623,0.00447081,0.0267187,0.00437547,-0.758277,-0.377015,9.47354,-0.229469,-1.07827,0.667798,-0.00757284,-0.00380415,0.0947348,1,0.000172794,4.90443e-05,8.29867e-05,0.0345587,0.00980886,0.0165973,0.999623,0.00447081,0.0267187,0.00437547,0.0676833,0.539809,-0.955975,30.875,3,9330,978701
79,3,0.999626,0.00455444,0.026603,0.00441766,-0.241688,0.960027,10.6473,0.727921,0.278933,1.8992,-0.00242378,0.0095766,0.106475,1,0.000110037,-2.79816e-05,4.9017e-05,0.0220073,-0.00559632,0.0098034,0.999626,0.00455444,0.026603,0.00441766,0.0654206,0.536352,-0.952506,30.875,3,9331,978801
79,4,0.999626,0.00455444,0.026603,0.00441766,-0.241688,0.960027,10.6473,0.727921,0.278933,1.8992,-0.00242378,0.0095766,0.106475,1,0.000110037,-2.79816e-05,4.9017e-05,0.0220073,-0.00559632,0.0098034,0.999626,0.00455444,0.026603,0.00441766,0.0654206,0.536352,-0.952506,30.875,3,9331,978801
80,1,0.99963,0.00450283,0.0264541,0.00447447,0.0551265,0.26609,9.77146,0.456978,-0.221873,0.868131,0.000555601,0.00267118,0.0977143,1,-5.23306e-05,2.34213e-05,4.52534e-05,-0.0104661,0.00468425,0.00905067,0.99963,0.00450283,0.0264541,0.00447447,0.066071,0.538633,-0.943872,30.875,3,9333,979001
80,2,0.99963,0.00450283,0.0264541,0.00447447,0.0551265,0.26609,9.77146,0.456978,-0.221873,0.868131,0.000555601,0.00267118,0.0977143,1,-5.23306e-05,2.34213e-05,4.52534e-05,-0.0104661,0.00468425,0.00905067,0.99963,0.00450283,0.0264541,0.00447447,0.066071,0.538633,-0.943872,30.875,3,9333,979001
80,3,0.999632,0.00464155,0.0263329,0.00446509,-0.644983,-0.481735,9.58029,0.382791,-1.46455,0.749076,-0.00645678,-0.00484849,0.0958009,1,0.000162779,-3.60663e-05,-3.63062e-06,0.0325559,-0.00721325,-0.000726124,0.999632,0.00464155,0.0263329,0.00446509,0.0664548,0.543037,-0.944786,30.875,3,9334,979101
80,4,0.999632,0.00464155,0.0263329,0.00446509,-0.644983,-0.481735,9.58029,0.382791,-1.46455,0.749076,-0.00645678,-0.00484849,0.0958009,1,0.000162779,-3.60663e-05,-3.63062e-06,0.0325559,-0.00721325,-0.000726124,0.999632,0.00464155,0.0263329,0.00446509,0.0664548,0.543037,-0.944786,30.875,3,9334,979101
81,1,0.999639,0.00467767,0.0260622,0.00452741,0.0770647,-0.407106,9.53303,0.32401,-1.37502,0.423367,0.000777017,-0.00410792,0.0953287,1,0.00019377,3.12911e-05,4.93939e-05,0.0387541,0.00625822,0.00987878,0.999639,0.00467767,0.0260622,0.00452741,0.0643278,0.539828,-0.955454,30.875,3,9336,979301
81,2,0.99964,0.00473026,0.0260158,0.00458006,-0.563204,-0.793555,10.4395,0.767414,-1.3808,1.83322,-0.00562316,-0.00795227,0.104394,1,7.69985e-05,3.81664e-05,5.78245e-05,0.0153997,0.00763329,0.0115649,0.99964,0.00473026,0.0260158,0.00458006,0.0620978,0.535865,-0.950986,30.875,3,9337,979401
81,3,0.99964,0.00473026,0.0260158,0.00458006,-0.563204,-0.793555,10.4395,0.767414,-1.3808,1.83322,-0.00562316,-0.00795227,0.104394,1,7.69985e-05,3.81664e-05,5.78245e-05,0.0153997,0.00763329,0.0115649,0.99964,0.00473026,0.0260158,0.00458006,0.0620978,0.535865,-0.950986,30.875,3,9337,979401
81,4,0.99964,0.00473026,0.0260158,0.00458006,-0.563204,-0.793555,10.4395,0.767414,-1.3808,1.83322,-0.00562316,-0.00795227,0.104394,1,7.69985e-05,3.81664e-05,5.78245e-05,0.0153997,0.00763329,0.0115649,0.99964,0.00473026,0.0260158,0.00458006,0.0620978,0.535865,-0.950986,30.875,3,9337,979401
82,1,0.999646,0.00499198,0.0256999,0.0046717,-0.236559,0.189166,9.12355,-0.0574102,-0.671432,0.24907,-0.00236473,0.00186079,0.0912362,1,0.000167624,5.93075e-06,5.80691e-05,0.0335249,0.00118615,0.0116138,0.999646,0.00499198,0.0256999,0.0046717,0.062773,0.538128,-0.941343,30.875,3,9339,979601
82,2,0.999652,0.00497139,0.0254741,0.00469468,-0.581588,-0.186045,10.1497,0.451665,-0.463635,1.33536,-0.00584499,-0.00186169,0.101496,1,4.46138e-06,-0.000143941,2.82325e-05,0.000892276,-0.0287882,0.00564651,0.999652,0.00497139,0.0254741,0.00469468,0.0650196,0.542561,-0.94479,30.875,3,9340,979701
82,3,0.999657,0.00515571,0.0252548,0.00471832,0.469661,0.0367392,10.4789,0.690718,-0.743634,1.56218,0.00466732,0.000323808,0.104791,1,0.000209532,-0.000139668,3.52596e-05,0.0419064,-0.0279336,0.00705191,0.999657,0.00515571,0.0252548,0.00471832,0.0672971,0.540708,-0.951407,30.875,3,9341,979801
82,4,0.999657,0.00515571,0.0252548,0.00471832,0.469661,0.0367392,10.4789,0.690718,-0.743634,1.56218,0.00466732,0.000323808,0.104791,1,0.000209532,-0.000139668,3.52596e-05,0.0419064,-0.0279336,0.00705191,0.999657,0.00515571,0.0252548,0.00471832,0.0672971,0.540708,-0.951407,30.875,3,9341,979801
83,1,0.999664,0.0053024,0.0249353,0.00476815,-0.169666,-0.189107,10.4778,0.631768,-0.637085,1.37706,-0.00174074,-0.00191761,0.104777,1,0.000126125,-0.000210885,2.98751e-05,0.0252251,-0.042177,0.00597502,0.999664,0.0053024,0.0249353,0.00476815,0.0577635,0.535422,-0.951481,30.875,3,9343,980001
83,2,0.999664,0.0053024,0.0249353,0.00476815,-0.169666,-0.189107,10.4778,0.631768,-0.637085,1.37706,-0.00174074,-0.00191761,0.104777,1,0.000126125,-0.000210885,2.98751e-05,0.0252251,-0.042177,0.00597502,0.999664,0.0053024,0.0249353,0.00476815,0.0577635,0.535422,-0.951481,30.875,3,9343,980001
83,3,0.999665,0.00535737,0.0248632,0.00484252,1.01582,0.303839,10.437,1.179,-0.55925,1.73581,0.0101591,0.0030236,0.10437,1,7.87399e-05,6.93152e-06,8.09098e-05,0.015748,0.0013863,0.016182,0.999665,0.00535737,0.0248632,0.00484252,0.0589227,0.533825,-0.944451,30.875,3,9344,980101
83,4,0.999665,0.00535737,0.0248632,0.00484252,1.01582,0.303839,10.437,1.179,-0.55925,1.73581,0.0101591,0.0030236,0.10437,1,7.87399e-05,6.93152e-06,8.09098e-05,0.015748,0.0013863,0.016182,0.999665,0.00535737,0.0248632,0.00484252,0.0589227,0.533825,-0.944451,30.875,3,9344,980101
84,1,0.999667,0.00549634,0.0247284,0.00498625,0.672285,-0.257685,10.4729,1.05457,-1.09529,1.69916,0.0067148,-0.00261657,0.104728,1,0.000193708,-4.0018e-05,6.33791e-05,0.0387416,-0.0080036,0.0126758,0.999667,0.00549634,0.0247284,0.00498625,0.0645707,0.540614,-0.944831,30.875,3,9346,980301
84,2,0.999663,0.00551547,0.0248497,0.00501808,-0.523422,0.0340703,8.89221,0.136868,-0.473167,0.128762,-0.00519848,0.000332225,0.0889242,1,4.54778e-05,0.000201109,3.74211e-05,0.00909557,0.0402219,0.00748422,0.999663,0.00551547,0.0248497,0.00501808,0.0639705,0.541187,-0.949361,30.875,3,9347,980401
84,3,0.999663,0.00551547,0.0248497,0.00501808,-0.523422,0.0340703,8.89221,0.136868,-0.473167,0.128762,-0.00519848,0.000332225,0.0889242,1,4.54778e-05,0.000201109,3.74211e-05,0.00909557,0.0402219,0.00748422,0.999663,0.00551547,0.0248497,0.00501808,0.0639705,0.541187,-0.949361,30.875,3,9347,980401
84,4,0.999663,0.00551547,0.0248497,0.00501808,-0.523422,0.0340703,8.89221,0.136868,-0.473167,0.128762,-0.00519848,0.000332225,0.0889242,1,4.54778e-05,0.000201109,3.74211e-05,0.00909557,0.0402219,0.00748422,0.999663,0.00551547,0.0248497,0.00501808,0.0639705,0.541187,-0.949361,30.875,3,9347,980401
85,1,0.999662,0.00582338,0.0248355,0.00500228,0.0180412,0.97468,9.36698,0.235318,0.399099,0.540828,0.000220521,0.00972467,0.093672,1,0.000118112,0.000213934,-1.55039e-06,0.0236223,0.0427868,-0.000310078,0.999662,0.00582338,0.0248355,0.00500228,0.0616903,0.534369,-0.948997,30.875,3,9349,980601
85,2,0.999663,0.00595233,0.0247935,0.00495978,-1.60521,-0.434305,9.525,-0.727083,-1.18612,0.444133,-0.0160457,-0.00437147,0.0952497,1,0.00015511,3.52615e-05,-3.53038e-05,0.031022,0.00705229,-0.00706077,0.999663,0.00595233,0.0247935,0.00495978,0.0599176,0.533311,-0.943457,30.875,3,9350,980701
85,3,0.999665,0.00597177,0.0246937,0.00491887,0.13049,0.895209,10.4557,0.233719,0.172873,1.49498,0.00130028,0.00894243,0.104558,1,4.5723e-05,-2.51806e-05,-3.55333e-05,0.00914459,-0.00503612,-0.00710666,0.999665,0.00597177,0.0246937,0.00491887,0.0633438,0.535649,-0.93938,30.875,3,9351,980801
85,4,0.999665,0.00597177,0.0246937,0.00491887,0.13049,0.895209,10.4557,0.233719,0.172873,1.49498,0.00130028,0.00894243,0.104558,1,4.5723e-05,-2.51806e-05,-3.55333e-05,0.00914459,-0.00503612,-0.00710666,0.999665,0.00597177,0.0246937,0.00491887,0.0633438,0.535649,-0.93938,30.875,3,9351,980801
86,1,0.99967,0.00588288,0.0245434,0.00480724,-0.412264,0.0546921,10.4637,0.026129,-0.743491,1.55626,-0.00415505,0.000544557,0.104635,1,1.45534e-05,-0.000155269,-8.23458e-05,0.00291069,-0.0310539,-0.0164692,0.99967,0.00588288,0.0245434,0.00480724,0.0659154,0.540674,-0.948876,30.875,3,9353,981001
86,2,0.99967,0.00588288,0.0245434,0.00480724,-0.412264,0.0546921,10.4637,0.026129,-0.743491,1.55626,-0.00415505,0.000544557,0.104635,1,1.45534e-05,-0.000155269,-8.23458e-05,0.00291069,-0.0310539,-0.0164692,0.99967,0.00588288,0.0245434,0.00480724,0.0659154,0.540674,-0.948876,30.875,3,9353,981001
86,3,0.999674,0.00572273,0.0244312,0.00470168,-1.45238,0.481517,8.51103,-1.02494,0.059058,-0.154571,-0.0145297,0.00484121,0.0851078,1,-0.000135235,-4.07828e-05,-0.000104019,-0.027047,-0.00815657,-0.0208038,0.999674,0.00572273,0.0244312,0.00470168,0.0634804,0.538788,-0.951432,30.875,3,9354,981101
86,4,0.999674,0.00572273,0.0244312,0.00470168,-1.45238,0.481517,8.51103,-1.02494,0.059058,-0.154571,-0.0145297,0.00484121,0.0851078,1,-0.000135235,-4.07828e-05,-0.000104019,-0.027047,-0.00815657,-0.0208038,0.999674,0.00572273,0.0244312,0.00470168,0.0634804,0.538788,-0.951432,30.875,3,9354,981101
87,1,0.999687,0.00562253,0.0239501,0.00449043,1.06739,-0.358907,10.7886,1.16953,-1.07532,1.77106,0.0106578,-0.00356997,0.107888,1,-9.84545e-05,-7.14397e-05,-0.00010055,-0.0196909,-0.0142879,-0.0201101,0.999687,0.00562253,0.0239501,0.00449043,0.059511,0.534706,-0.939383,30.875,3,9356,981301
87,2,0.99969,0.00557685,0.0238744,0.00441659,-0.259312,-1.29607,9.96822,0.629482,-1.65139,1.15955,-0.002596,-0.0129562,0.0996827,1,-2.10227e-05,-5.32928e-06,-7.01029e-05,-0.00420455,-0.00106586,-0.0140206,0.99969,0.00557685,0.0238744,0.00441659,0.0619792,0.537531,-0.934786,30.875,3,9357,981401
87,3,0.99969,0.00557685,0.0238744,0.00441659,-0.259312,-1.29607,9.96822,0.629482,-1.65139,1.15955,-0.002596,-0.0129562,0.0996827,1,-2.10227e-05,-5.32928e-06,-7.01029e-05,-0.00420455,-0.00106586,-0.0140206,0.99969,0.00557685,0.0238744,0.00441659,0.0619792,0.537531,-0.934786,30.875,3,9357,981401
87,4,0.99969,0.00557685,0.0238744,0.00441659,-0.259312,-1.29607,9.96822,0.629482,-1.65139,1.15955,-0.002596,-0.0129562,0.0996827,1,-2.10227e-05,-5.32928e-06,-7.01029e-05,-0.00420455,-0.00106586,-0.0140206,0.99969,0.00557685,0.0238744,0.00441659,0.0619792,0.537531,-0.934786,30.875,3,9357,981401
88,1,0.999694,0.00584298,0.0236675,0.00426792,-0.618981,-0.414008,8.81997,-0.35658,-0.776356,-0.35225,-0.00621518,-0.00414545,0.0881977,1,3.48954e-05,-0.000140863,-6.3854e-05,0.00697908,-0.0281726,-0.0127708,0.999694,0.00584298,0.0236675,0.00426792,0.0650765,0.540592,-0.943824,30.875,3,9359,981601
88,2,0.999698,0.00603563,0.0234471,0.00415932,0.521556,0.75458,9.37733,0.871838,-0.0820103,0.540791,0.00518838,0.00750329,0.0937783,1,0.000221222,-0.000152753,-9.74686e-05,0.0442445,-0.0305505,-0.0194937,0.999698,0.00603563,0.0234471,0.00415932,0.061211,0.540155,-0.944826,30.875,3,9360,981701
88,3,0.999703,0.00610436,0.0232433,0.0040125,0.829457,0.518631,9.33925,1.3263,-0.256159,0.479575,0.00827077,0.00516593,0.0933958,1,9.67689e-05,-0.000135113,-0.00013914,0.0193538,-0.0270225,-0.0278279,0.999703,0.00610436,0.0232433,0.0040125,0.059483,0.537136,-0.938824,30.875,3,9361,981801
88,4,0.999703,0.00610436,0.0232433,0.0040125,0.829457,0.518631,9.33925,1.3263,-0.256159,0.479575,0.00827077,0.00516593,0.0933958,1,9.67689e-05,-0.000135113,-0.00013914,0.0193538,-0.0270225,-0.0278279,0.999703,0.00610436,0.0232433,0.0040125,0.059483,0.537136,-0.938824,30.875,3,9361,981801
89,1,0.999715,0.00595724,0.0228417,0.00362653,1.48712,-1.51546,11.145,1.85941,-2.16215,1.98485,0.014841,-0.0151538,0.111454,1,-3.09634e-05,-0.00010758,-0.000204396,-0.00619268,-0.021516,-0.0408791,0.999715,0.00595724,0.0228417,0.00362653,0.0606924,0.538393,-0.92769,30.875,3,9363,982001
89,2,0.999712,0.00612973,0.0229365,0.00343949,0.788102,-0.801001,11.4644,1.70344,-1.61479,2.80657,0.00791677,-0.00805909,0.114638,1,0.000201769,0.000168388,-0.00017831,0.0403539,0.0336777,-0.035662,0.999712,0.00612973,0.0229365,0.00343949,0.0639387,0.544236,-0.928586,30.875,3,9364,982101
89,3,0.999712,0.00612973,0.0229365,0.00343949,0.788102,-0.801001,11.4644,1.70344,-1.61479,2.80657,0.00791677,-0.00805909,0.114638,1,0.000201769,0.000168388,-0.00017831,0.0403539,0.0336777,-0.035662,0.999712,0.00612973,0.0229365,0.00343949,0.0639387,0.544236,-0.928586,30.875,3,9364,982101
89,4,0.999712,0.00612973,0.0229365,0.00343949,0.788102,-0.801001,11.4644,1.70344,-1.61479,2.80657,0.00791677,-0.00805909,0.114638,1,0.000201769,0.000168388,-0.00017831,0.0403539,0.0336777,-0.035662,0.999712,0.00612973,0.0229365,0.00343949,0.0639387,0.544236,-0.928586,30.875,3,9364,982101
90,1,0.999708,0.00638756,0.0230967,0.00298412,0.0685913,0.898129,10.3847,0.649487,0.081563,1.54983,0.000724567,0.00894845,0.10385,1,0.000156556,0.00016647,-0.000227489,0.0313112,0.033294,-0.0454979,0.999708,0.00638756,0.0230967,0.00298412,0.0613144,0.542006,-0.939229,30.875,3,9366,982301
90,2,0.99971,0.00624054,0.023095,0.00272906,-0.743162,0.511587,8.90934,-0.160576,0.210202,-0.0432243,-0.007416,0.00514041,0.0890933,1,-0.000116613,7.31182e-05,-0.00025299,-0.0233226,0.0146236,-0.050598,0.99971,0.00624054,0.023095,0.00272906,0.0581639,0.539948,-0.931685,30.875,3,9367,982401
90,3,0.99971,0.00624054,0.023095,0.00272906,-0.743162,0.511587,8.90934,-0.160576,0.210202,-0.0432243,-0.007416,0.00514041,0.0890933,1,-0.000116613,7.31182e-05,-0.00025299,-0.0233226,0.0146236,-0.050598,0.99971,0.00624054,0.023095,0.00272906,0.0581639,0.539948,-0.931685,30.875,3,9367,982401
90,4,0.99971,0.00624054,0.023095,0.00272906,-0.743162,0.511587,8.90934,-0.160576,0.210202,-0.0432243,-0.007416,0.00514041,0.0890933,1,-0.000116613,7.31182e-05,-0.00025299,-0.0233226,0.0146236,-0.050598,0.99971,0.00624054,0.023095,0.00272906,0.0581639,0.539948,-0.931685,30.875,3,9367,982401
91,1,0.99971,0.00636567,0.0231431,0.0021885,-0.116078,0.383125,9.93334,0.677264,-0.178917,1.36699,-0.00112079,0.0038252,0.0993341,1,3.36215e-05,0.00019075,-0.000273982,0.0067243,0.0381499,-0.0547963,0.99971,0.00636567,0.0231431,0.0021885,0.0646035,0.539761,-0.924143,30.875,3,9369,982601
91,2,0.999711,0.00635549,0.0230945,0.00186307,-0.595637,0.16336,9.03585,-0.209241,-0.454761,-0.0693398,-0.00595096,0.00163374,0.0903588,1,2.032e-05,2.41616e-05,-0.000320276,0.004064,0.00483232,-0.0640552,0.999711,0.00635549,0.0230945,0.00186307,0.0668667,0.544664,-0.926569,30.875,3,9370,982701
91,3,0.999713,0.00636274,0.0230471,0.00151367,0.438567,-1.30062,10.2617,1.16269,-1.93393,1.35386,0.00438163,-0.0130169,0.102616,1,3.77177e-05,2.37577e-05,-0.000342566,0.00754353,0.00475153,-0.0685132,0.999713,0.00636274,0.0230471,0.00151367,0.0667162,0.550074,-0.928974,30.875,3,9371,982801
91,4,0.999713,0.00636274,0.0230471,0.00151367,0.438567,-1.30062,10.2617,1.16269,-1.93393,1.35386,0.00438163,-0.0130169,0.102616,1,3.77177e-05,2.37577e-05,-0.000342566,0.00754353,0.00475153,-0.0685132,0.999713,0.00636274,0.0230471,0.00151367,0.0667162,0.550074,-0.928974,30.875,3,9371,982801
92,1,0.999709,0.00651554,0.0232107,0.000750904,-0.482085,-0.00455472,9.59613,0.141159,-0.488798,0.863215,-0.00478044,-4.09039e-05,0.0959633,1,-5.85249e-06,0.000210705,-0.000366624,-0.0011705,0.0421411,-0.0733247,0.999709,0.00651554,0.0232107,0.000750904,0.0610724,0.543763,-0.928078,30.875,3,9373,983001
92,2,0.999709,0.00651554,0.0232107,0.000750904,-0.482085,-0.00455472,9.59613,0.141159,-0.488798,0.863215,-0.00478044,-4.09039e-05,0.0959633,1,-5.85249e-06,0.000210705,-0.000366624,-0.0011705,0.0421411,-0.0733247,0.999709,0.00651554,0.0232107,0.000750904,0.0610724,0.543763,-0.928078,30.875,3,9373,983001
92,3,0.99971,0.00666678,0.0231607,0.000371659,-1.0235,0.0902938,8.51673,-0.85753,-0.89526,-0.544878,-0.0102308,0.000879034,0.085168,1,0.000184805,2.08047e-05,-0.000370146,0.036961,0.00416094,-0.0740292,0.99971,0.00666678,0.0231607,0.000371659,0.0612451,0.543637,-0.921011,30.875,3,9374,983101
92,4,0.99971,0.00666678,0.0231607,0.000371659,-1.0235,0.0902938,8.51673,-0.85753,-0.89526,-0.544878,-0.0102308,0.000879034,0.085168,1,0.000184805,2.08047e-05,-0.000370146,0.036961,0.00416094,-0.0740292,0.99971,0.00666678,0.0231607,0.000371659,0.0612451,0.543637,-0.921011,30.875,3,9374,983101
93,1,0.999712,0.00651068,0.0230817,-0.000388046,-0.0530718,0.114666,9.78333,0.611499,-0.667533,0.997874,-0.000519627,0.00114865,0.0978333,1,-8.05824e-06,5.2125e-05,-0.000388807,-0.00161165,0.010425,-0.0777615,0.999712,0.00651068,0.0230817,-0.000388046,0.0674075,0.551362,-0.919352,30.875,3,9376,983301
93,2,0.999717,0.00633325,0.0229441,-0.000779905,-0.24497,-0.283202,9.12781,-0.195237,-0.659059,-0.128156,-0.00246457,-0.00280352,0.0912786,1,-0.000145643,-6.94546e-05,-0.000389555,-0.0291287,-0.0138909,-0.0779109,0.999717,0.00633325,0.0229441,-0.000779905,0.066347,0.552888,-0.922344,30.875,3,9377,983401
93,3,0.999717,0.00633325,0.0229441,-0.000779905,-0.24497,-0.283202,9.12781,-0.195237,-0.659059,-0.128156,-0.00246457,-0.00280352,0.0912786,1,-0.000145643,-6.94546e-05,-0.000389555,-0.0291287,-0.0138909,-0.0779109,0.999717,0.00633325,0.0229441,-0.000779905,0.066347,0.552888,-0.922344,30.875,3,9377,983401
93,4,0.999717,0.00633325,0.0229441,-0.000779905,-0.24497,-0.283202,9.12781,-0.195237,-0.659059,-0.128156,-0.00246457,-0.00280352,0.0912786,1,-0.000145643,-6.94546e-05,-0.000389555,-0.0291287,-0.0138909,-0.0779109,0.999717,0.00633325,0.0229441,-0.000779905,0.066347,0.552888,-0.922344,30.875,3,9377,983401
94,1,0.999717,0.0066259,0.0228181,-0.00157215,0.180957,-0.318692,9.61963,0.827043,-1.04043,0.918362,0.00181147,-0.00320978,0.0961955,1,0.000111665,2.25209e-05,-0.00038126,0.022333,0.00450418,-0.0762521,0.999717,0.0066259,0.0228181,-0.00157215,0.0597993,0.548951,-0.91735,30.875,3,9379,983601
94,2,0.999717,0.00673674,0.0227104,-0.00197172,-0.143457,0.632183,10.4471,0.302349,-0.278657,1.33206,-0.00143794,0.0062925,0.104472,1,0.000145746,-3.96439e-05,-0.000389599,0.0291492,-0.00792879,-0.0779198,0.999717,0.00673674,0.0227104,-0.00197172,0.0590098,0.548833,-0.910279,30.875,3,9380,983701
94,3,0.99972,0.00659692,0.0226199,-0.00242925,0.415999,0.282753,10.4108,0.946248,-0.145129,1.36236,0.00415761,0.00284554,0.104107,1,-0.000104721,-2.3832e-05,-0.000455176,-0.0209442,-0.0047664,-0.0910352,0.99972,0.00659692,0.0226199,-0.00242925,0.061022,0.55309,-0.903627,30.875,3,9381,983801
94,4,0.99972,0.00659692,0.0226199,-0.00242925,0.415999,0.282753,10.4108,0.946248,-0.145129,1.36236,0.00415761,0.00284554,0.104107,1,-0.000104721,-2.3832e-05,-0.000455176,-0.0209442,-0.0047664,-0.0910352,0.99972,0.00659692,0.0226199,-0.00242925,0.061022,0.55309,-0.903627,30.875,3,9381,983801
95,1,0.999719,0.00659936,0.0225189,-0.00337829,0.3916,-2.2868,10.6004,1.12159,-3.27874,1.54068,0.00388993,-0.0228974,0.105998,1,0.000121417,-2.19576e-05,-0.000467943,0.0242835,-0.00439151,-0.0935887,0.999719,0.00659936,0.0225189,-0.00337829,0.0635979,0.558594,-0.912608,30.875,3,9383,984001
95,2,0.999719,0.00659936,0.0225189,-0.00337829,0.3916,-2.2868,10.6004,1.12159,-3.27874,1.54068,0.00388993,-0.0228974,0.105998,1,0.000121417,-2.19576e-05,-0.000467943,0.0242835,-0.00439151,-0.0935887,0.999719,0.00659936,0.0225189,-0.00337829,0.0635979,0.558594,-0.912608,30.875,3,9383,984001
95,3,0.99972,0.00645432,0.0224254,-0.0038714,-0.173536,2.28333,9.60195,0.240082,2.01239,0.687515,-0.00171806,0.0228558,0.0960144,1,-0.000108238,-2.65372e-05,-0.000490225,-0.0216477,-0.00530745,-0.0980451,0.99972,0.00645432,0.0224254,-0.0038714,0.0602538,0.555713,-0.913667,30.875,3,9384,984101
95,4,0.99972,0.00645432,0.0224254,-0.0038714,-0.173536,2.28333,9.60195,0.240082,2.01239,0.687515,-0.00171806,0.0228558,0.0960144,1,-0.000108238,-2.65372e-05,-0.000490225,-0.0216477,-0.00530745,-0.0980451,0.99972,0.00645432,0.0224254,-0.0038714,0.0602538,0.555713,-0.913667,30.875,3,9384,984101
96,1,0.999721,0.00613982,0.0222645,-0.00486751,0.486381,1.00485,10.3892,1.05415,0.73768,1.49405,0.00487198,0.0100908,0.103887,1,-0.000226834,-8.2508e-06,-0.000490433,-0.0453668,-0.00165016,-0.0980866,0.999721,0.00613982,0.0222645,-0.00486751,0.0578027,0.554455,-0.896511,30.875,3,9386,984301
96,2,0.999719,0.00615323,0.0222501,-0.00534937,-0.250571,-1.56987,9.82299,0.284588,-2.48417,0.924568,-0.00251031,-0.0157053,0.0982288,1,4.58639e-05,5.25151e-05,-0.000474984,0.00917278,0.010503,-0.0949968,0.999719,0.00615323,0.0222501,-0.00534937,0.0587705,0.559262,-0.892874,30.875,3,9387,984401
96,3,0.999719,0.00615323,0.0222501,-0.00534937,-0.250571,-1.56987,9.82299,0.284588,-2.48417,0.924568,-0.00251031,-0.0157053,0.0982288,1,4.58639e-05,5.25151e-05,-0.000474984,0.00917278,0.010503,-0.0949968,0.999719,0.00615323,0.0222501,-0.00534937,0.0587705,0.559262,-0.892874,30.875,3,9387,984401
96,4,0.999719,0.00615323,0.0222501,-0.00534937,-0.250571,-1.56987,9.82299,0.284588,-2.48417,0.924568,-0.00251031,-0.0157053,0.0982288,1,4.58639e-05,5.25151e-05,-0.000474984,0.00917278,0.010503,-0.0949968,0.999719,0.00615323,0.0222501,-0.00534937,0.0587705,0.559262,-0.892874,30.875,3,9387,984401
97,1,0.999716,0.00608246,0.0221765,-0.00626859,-1.08647,-0.642205,8.4217,-0.818805,-1.49241,-0.777316,-0.01087,-0.00643339,0.0842154,1,0.000125989,3.14237e-06,-0.000454593,0.0251977,0.000628474,-0.0909186,0.999716,0.00608246,0.0221765,-0.00626859,0.0613791,0.56426,-0.900856,30.875,3,9389,984601
97,2,0.999716,0.00602319,0.0220714,-0.00670981,0.167365,-0.719878,10.5257,0.492817,-1.4812,1.80593,0.00165868,-0.00719525,0.105257,1,-2.37063e-05,-4.1258e-05,-0.000436588,-0.00474126,-0.0082516,-0.0873175,0.999716,0.00602319,0.0220714,-0.00670981,0.05852,0.560408,-0.902443,30.875,3,9390,984701
97,3,0.999714,0.00618256,0.0219732,-0.00717745,-0.552424,0.759737,8.71485,-0.235853,-0.463508,-0.369967,-0.00552304,0.0075682,0.0871511,1,0.000196429,-3.29705e-05,-0.000458393,0.0392857,-0.00659411,-0.0916785,0.999714,0.00618256,0.0219732,-0.00717745,0.0534531,0.557878,-0.8949,30.875,3,9391,984801
97,4,0.999714,0.00618256,0.0219732,-0.00717745,-0.552424,0.759737,8.71485,-0.235853,-0.463508,-0.369967,-0.00552304,0.0075682,0.0871511,1,0.000196429,-3.29705e-05,-0.000458393,0.0392857,-0.00659411,-0.0916785,0.999714,0.00618256,0.0219732,-0.00717745,0.0534531,0.557878,-0.8949,30.875,3,9391,984801
98,1,0.999708,0.0061245,0.0219229,-0.0081519,-0.503687,0.131809,10.2148,0.0117929,-0.851967,1.23138,-0.00502493,0.00129607,0.102149,1,0.000131942,5.21967e-05,-0.000489963,0.0263883,0.0104393,-0.0979926,0.999708,0.0061245,0.0219229,-0.0081519,0.0550705,0.562076,-0.884713,30.875,3,9393,985001
98,2,0.999708,0.0061245,0.0219229,-0.0081519,-0.503687,0.131809,10.2148,0.0117929,-0.851967,1.23138,-0.00502493,0.00129607,0.102149,1,0.000131942,5.21967e-05,-0.000489963,0.0263883,0.0104393,-0.0979926,0.999708,0.0061245,0.0219229,-0.0081519,0.0550705,0.562076,-0.884713,30.875,3,9393,985001
98,3,0.999701,0.00614098,0.0220103,-0.00865616,-0.0510482,-1.72168,9.64222,0.521914,-2.42717,0.96032,-0.000498604,-0.0172262,0.0964206,1,5.15273e-05,0.000150762,-0.000499255,0.0103055,0.0301524,-0.099851,0.999701,0.00614098,0.0220103,-0.00865616,0.0568816,0.567443,-0.885612,30.875,3,9394,985101
98,4,0.999701,0.00614098,0.0220103,-0.00865616,-0.0510482,-1.72168,9.64222,0.521914,-2.42717,0.96032,-0.000498604,-0.0172262,0.0964206,1,5.15273e-05,0.000150762,-0.000499255,0.0103055,0.0301524,-0.099851,0.999701,0.00614098,0.0220103,-0.00865616,0.0568816,0.567443,-0.885612,30.875,3,9394,985101
99,1,0.999693,0.00616669,0.0219802,-0.00960387,-0.379068,-0.729141,10.1876,0.278669,-1.63156,1.31859,-0.00378479,-0.00729067,0.101876,1,1.39682e-05,6.28539e-05,-0.000474099,0.00279364,0.0125708,-0.0948198,0.999693,0.00616669,0.0219802,-0.00960387,0.0519708,0.564665,-0.891712,30.875,3,9396,985301
99,2,0.999691,0.00601388,0.0219405,-0.0100738,0.00691318,0.0577396,10.749,0.442968,-0.0872612,1.49837,7.39456e-05,0.000602316,0.107489,1,-0.000116231,1.98224e-05,-0.000468282,-0.0232462,0.00396449,-0.0936564,0.999691,0.00601388,0.0219405,-0.0100738,0.0503206,0.560626,-0.883208,30.875,3,9397,985401
99,3,0.999691,0.00601388,0.0219405,-0.0100738,0.00691318,0.0577396,10.749,0.442968,-0.0872612,1.49837,7.39456e-05,0.000602316,0.107489,1,-0.000116231,1.98224e-05,-0.000468282,-0.0232462,0.00396449,-0.0936564,0.999691,0.00601388,0.0219405,-0.0100738,0.0503206,0.560626,-0.883208,30.875,3,9397,985401
99,4,0.999691,0.00601388,0.0219405,-0.0100738,0.00691318,0.0577396,10.749,0.442968,-0.0872612,1.49837,7.39456e-05,0.000602316,0.107489,1,-0.000116231,1.98224e-05,-0.000468282,-0.0232462,0.00396449,-0.0936564,0.999691,0.00601388,0.0219405,-0.0100738,0.0503206,0.560626,-0.883208,30.875,3,9397,985401
100,1,0.999674,0.00622228,0.022128,-0.0111115,-1.16675,1.2405,9.29759,-0.323806,0.98291,0.928456,-0.0116261,0.0124245,0.0929785,1,-4.06585e-05,0.000153877,-0.00051407,-0.0081317,0.0307754,-0.102814,0.999674,0.00622228,0.022128,-0.0111115,0.0500468,0.565779,-0.870971,30.875,3,9399,985601
100,2,0.999673,0.00623701,0.0219,-0.0116557,-0.632093,-0.511894,9.38885,-0.315184,-1.08555,0.0585229,-0.00635844,-0.00512237,0.0938858,1,5.46399e-05,-0.000170369,-0.000538852,0.010928,-0.0340738,-0.10777,0.999673,0.00623701,0.0219,-0.0116557,0.0523057,0.570203,-0.873913,30.875,3,9400,985701
100,3,0.999671,0.00614581,0.0217447,-0.012158,-0.119523,0.141908,9.61258,0.292912,-0.13164,0.738552,-0.00121299,0.00143039,0.0961255,1,-5.25849e-05,-9.97212e-05,-0.000497609,-0.010517,-0.0199442,-0.0995217,0.999671,0.00614581,0.0217447,-0.012158,0.0531735,0.570746,-0.877441,30.875,3,9401,985801
100,4,0.999671,0.00614581,0.0217447,-0.012158,-0.119523,0.141908,9.61258,0.292912,-0.13164,0.738552,-0.00121299,0.00143039,0.0961255,1,-5.25849e-05,-9.97212e-05,-0.000497609,-0.010517,-0.0199442,-0.0995217,0.999671,0.00614581,0.0217447,-0.012158,0.0531735,0.570746,-0.877441,30.875,3,9401,985801
101,1,0.99966,0.00635175,0.0215778,-0.0131489,-0.650203,-2.23759,8.89575,-0.353582,-2.91984,0.108347,-0.00652802,-0.0223875,0.0889527,1,9.87325e-05,-3.09842e-05,-0.000457362,0.0197465,-0.00619683,-0.0914725,0.99966,0.00635175,0.0215778,-0.0131489,0.044309,0.561464,-0.872555,30.875,3,9403,986001
