frame_id,imu_idx,quat_w,quat_x,quat_y,quat_z,accel_x,accel_y,accel_z,free_accel_x,free_accel_y,free_accel_z,delta_v_x,delta_v_y,delta_v_z,delta_q_w,delta_q_x,delta_q_y,delta_q_z,rate_x,rate_y,rate_z,quat_w,quat_x,quat_y,quat_z,mag_x,mag_y,mag_z,temperature,status_byte,packet_counter,time_fine
1,1,0.99919,-0.003466,0.0401025,-0.000118481,-0.777983,-0.0680628,9.78954,0.100805,-0.465801,1.04117,-0.00778263,-0.000690682,0.0978951,1,4.93899e-05,-1.44891e-05,2.46486e-05,0.00987798,-0.00289782,0.00492973,0.99919,-0.003466,0.0401025,-0.000118481,0.0732282,0.481006,-1.02701,32.1875,1,30405,3092192
1,2,0.99919,-0.00342906,0.0400903,-0.000111204,-0.735119,-0.0661013,9.78995,0.138759,-0.468616,1.03981,-0.00735319,-0.000670041,0.0978993,1,4.50165e-05,-1.03545e-05,1.45471e-05,0.00900329,-0.00207089,0.00290942,0.99919,-0.00342906,0.0400903,-0.000111204,0.0717682,0.480548,-1.02802,32.1875,1,30406,3092292
1,3,0.999191,-0.00333672,0.0400726,-0.000103243,-0.758669,-0.0608913,9.78608,0.122936,-0.462612,1.03272,-0.00758892,-0.00061607,0.0978606,1,3.65787e-05,-1.13825e-05,-1.41607e-07,0.00731573,-0.0022765,-2.83214e-05,0.999191,-0.00333672,0.0400726,-0.000103243,0.0737501,0.480008,-1.02602,32.1875,1,30408,3092492
1,4,0.999192,-0.00325488,0.0400658,-8.66723e-05,-0.73447,-0.0652132,9.793,0.145282,-0.46883,1.03718,-0.00734626,-0.000660188,0.0979298,1,4.00842e-05,-8.05403e-06,1.39977e-05,0.00801683,-0.00161081,0.00279954,0.999192,-0.00325488,0.0400658,-8.66723e-05,0.0717848,0.481018,-1.027,32.1875,1,30410,3092692
2,1,0.999192,-0.00318347,0.0400558,-8.75666e-05,-0.723483,-0.0637046,9.78547,0.156589,-0.467491,1.03393,-0.00723403,-0.000642121,0.0978547,1,2.69246e-05,4.18341e-06,-1.34128e-05,0.00538491,0.000836682,-0.00268256,0.999192,-0.00318347,0.0400558,-8.75666e-05,0.0751731,0.480493,-1.02652,32.1875,1,30412,3092892
2,2,0.999193,-0.00309766,0.0400442,-7.57895e-05,-0.762415,-0.0806587,9.77881,0.111451,-0.484294,1.02748,-0.00762486,-0.000813601,0.097788,1,3.51444e-05,-3.68054e-06,9.16431e-06,0.00702888,-0.000736107,0.00183286,0.999193,-0.00309766,0.0400442,-7.57895e-05,0.0737625,0.479999,-1.02552,32.1875,1,30414,3093092
2,3,0.999194,-0.00305108,0.0400251,-5.99698e-05,-0.74665,-0.075926,9.78214,0.122983,-0.481949,1.02663,-0.00747017,-0.000768425,0.0978211,1,4.55024e-05,-1.89133e-05,1.7606e-05,0.00910049,-0.00378267,0.00352121,0.999194,-0.00305108,0.0400251,-5.99698e-05,0.0751693,0.481459,-1.02599,32.1875,1,30415,3093192
2,4,0.999195,-0.00295503,0.0400163,-3.8782e-05,-0.753536,-0.0548917,9.78371,0.12166,-0.469469,1.0332,-0.00753324,-0.000558697,0.0978372,1,4.90974e-05,1.07718e-05,1.15019e-05,0.00981949,0.00215437,0.00230038,0.999195,-0.00295503,0.0400163,-3.8782e-05,0.0761349,0.47904,-1.02757,32.1875,1,30417,3093392
3,1,0.999194,-0.00285684,0.0400288,-3.18481e-05,-0.771125,-0.0682777,9.77523,0.106374,-0.475596,1.0256,-0.00770991,-0.000693907,0.0977524,1,5.63375e-05,6.80059e-06,7.45068e-06,0.0112675,0.00136012,0.00149014,0.999194,-0.00285684,0.0400288,-3.18481e-05,0.0742355,0.480483,-1.02551,32.1875,1,30419,3093592
3,2,0.999195,-0.00276455,0.0400173,-1.80957e-05,-0.768165,-0.0816116,9.78087,0.109264,-0.500806,1.02818,-0.00768208,-0.000825543,0.0978086,1,4.78644e-05,-2.19408e-06,4.15559e-06,0.00957288,-0.000438816,0.000831119,0.999195,-0.00276455,0.0400173,-1.80957e-05,0.0727471,0.48101,-1.027,32.1875,1,30421,3093792
3,3,0.999196,-0.00266433,0.040005,6.29642e-06,-0.785025,-0.0561107,9.77917,0.0942529,-0.472571,1.02839,-0.00785044,-0.000570242,0.0977916,1,4.51674e-05,-1.07472e-06,1.91963e-05,0.00903347,-0.000214943,0.00383927,0.999196,-0.00266433,0.040005,6.29642e-06,0.0756789,0.480471,-1.02551,32.1875,1,30423,3093992
3,4,0.999196,-0.0025733,0.0400007,2.0328e-05,-0.774413,-0.0788991,9.76805,0.0972511,-0.500284,1.01659,-0.00774452,-0.000797114,0.0976804,1,4.06206e-05,-2.12721e-06,1.20961e-05,0.00812412,-0.000425443,0.00241922,0.999196,-0.0025733,0.0400007,2.0328e-05,0.0752224,0.480457,-1.0245,32.1875,1,30425,3094192
4,1,0.999197,-0.00253259,0.039997,1.75756e-05,-0.775651,-0.0807862,9.78195,0.0938187,-0.500157,1.02921,-0.00775707,-0.000815825,0.0978194,1,4.07901e-05,-2.86645e-06,-1.07092e-06,0.00815802,-0.00057329,-0.000214184,0.999197,-0.00253259,0.039997,1.75756e-05,0.074737,0.479982,-1.02502,32.1875,1,30426,3094292
4,2,0.999198,-0.00244784,0.0399739,2.41913e-05,-0.762,-0.043001,9.78523,0.113974,-0.462518,1.03115,-0.00761988,-0.000438621,0.0978523,1,4.37126e-05,5.9595e-07,3.6694e-06,0.00874251,0.00011919,0.000733881,0.999198,-0.00244784,0.0399739,2.41913e-05,0.0728088,0.480965,-1.02448,32.1875,1,30428,3094492
4,3,0.999199,-0.00236474,0.0399404,3.64449e-05,-0.783931,-0.0801885,9.78135,0.0892048,-0.501568,1.0297,-0.00784345,-0.0008095,0.0978131,1,3.81713e-05,-2.12638e-05,9.44157e-06,0.00763426,-0.00425276,0.00188831,0.999199,-0.00236474,0.0399404,3.64449e-05,0.0742355,0.480483,-1.02551,32.1875,1,30430,3094692
4,4,0.9992,-0.00228564,0.0399184,6.89513e-05,-0.786893,-0.0770731,9.77833,0.0893361,-0.504498,1.02254,-0.00786919,-0.000778291,0.0977832,1,3.7333e-05,-1.44163e-06,1.64471e-05,0.00746661,-0.000288326,0.00328942,0.9992,-0.00228564,0.0399184,6.89513e-05,0.0733179,0.478531,-1.02504,32.1875,1,30432,3094892
5,1,0.999201,-0.00219549,0.0399018,7.90323e-05,-0.807786,-0.0594023,9.77387,0.0638607,-0.481572,1.02473,-0.00807883,-0.00060256,0.0977386,1,4.3016e-05,-4.98603e-06,7.91615e-06,0.00860319,-0.000997205,0.00158323,0.999201,-0.00219549,0.0399018,7.90323e-05,0.0742232,0.480492,-1.02601,32.1875,1,30434,3095092
5,2,0.999201,-0.0021627,0.0398984,8.07515e-05,-0.788261,-0.0452925,9.7708,0.079201,-0.469681,1.02056,-0.00788305,-0.000459518,0.0977079,1,3.34475e-05,-2.29144e-06,3.60987e-06,0.0066895,-0.000458289,0.000721975,0.999201,-0.0021627,0.0398984,8.07515e-05,0.0746512,0.48149,-1.02751,32.1875,1,30435,3095192
5,3,0.999202,-0.00206876,0.0398783,8.54414e-05,-0.74899,-0.0794901,9.7862,0.125798,-0.512506,1.03385,-0.00749231,-0.000803223,0.0978617,1,4.22969e-05,-1.23476e-05,2.86474e-06,0.00845938,-0.00246952,0.000572947,0.999202,-0.00206876,0.0398783,8.54414e-05,0.0732567,0.480021,-1.02652,32.1875,1,30437,3095392
5,4,0.999203,-0.00200722,0.0398628,0.000109099,-0.759915,-0.0737904,9.7792,0.112651,-0.510008,1.02516,-0.00760194,-0.000745073,0.0977917,1,3.55877e-05,-1.43741e-05,1.37425e-05,0.00711754,-0.00287481,0.00274849,0.999203,-0.00200722,0.0398628,0.000109099,0.0737587,0.480966,-1.02499,32.1875,1,30439,3095592
6,1,0.999204,-0.0019408,0.0398462,0.000134391,-0.790907,-0.0739526,9.78856,0.0824898,-0.511501,1.04183,-0.00791038,-0.000745563,0.0978855,1,2.96496e-05,-6.80795e-06,1.47167e-05,0.00592992,-0.00136159,0.00294335,0.999204,-0.0019408,0.0398462,0.000134391,0.0736766,0.481507,-1.02801,32.1875,1,30441,3095792
6,2,0.999205,-0.00185403,0.0398157,0.000151797,-0.778135,-0.063005,9.77703,0.0920716,-0.500218,1.02499,-0.00778398,-0.000638886,0.0977701,1,4.50406e-05,-1.34353e-05,1.8738e-06,0.00900813,-0.00268705,0.00037476,0.999205,-0.00185403,0.0398157,0.000151797,0.0718461,0.479527,-1.02552,32.1875,1,30443,3095992
6,3,0.999206,-0.00175851,0.0397968,0.000169625,-0.7624,-0.0697273,9.79078,0.103864,-0.507303,1.03749,-0.00762521,-0.000705413,0.0979076,1,4.10712e-05,-6.21779e-06,6.4189e-06,0.00821425,-0.00124356,0.00128378,0.999206,-0.00175851,0.0397968,0.000169625,0.0747413,0.480461,-1.0245,32.1875,1,30445,3096192
6,4,0.999206,-0.00173525,0.039793,0.00017675,-0.736909,-0.0693567,9.78925,0.133076,-0.50823,1.03035,-0.00736961,-0.000698632,0.0978924,1,2.52333e-05,-2.70998e-06,8.44152e-06,0.00504665,-0.000541996,0.0016883,0.999206,-0.00173525,0.039793,0.00017675,0.0747171,0.481924,-1.02447,32.1875,1,30446,3096292
7,1,0.999207,-0.00164887,0.0397795,0.000177415,-0.758048,-0.0767099,9.77745,0.112936,-0.522002,1.0205,-0.00758078,-0.000776305,0.0977744,1,4.67021e-05,-1.57218e-06,4.88397e-06,0.00934042,-0.000314436,0.000976794,0.999207,-0.00164887,0.0397795,0.000177415,0.0732078,0.481502,-1.0275,32.1875,1,30448,3096492
7,2,0.999208,-0.00154516,0.0397662,0.000201957,-0.745054,-0.0691641,9.78795,0.124334,-0.510326,1.03222,-0.00745246,-0.000702303,0.0978793,1,5.275e-05,-9.93717e-06,2.2542e-05,0.01055,-0.00198744,0.0045084,0.999208,-0.00154516,0.0397662,0.000201957,0.0737791,0.480469,-1.02449,32.1875,1,30450,3096692
7,3,0.99921,-0.00146549,0.0397229,0.000211097,-0.763713,-0.0639236,9.78169,0.108364,-0.513287,1.02796,-0.00764067,-0.000646442,0.0978165,1,3.66531e-05,-1.80901e-05,2.35625e-06,0.00733062,-0.00361802,0.00047125,0.99921,-0.00146549,0.0397229,0.000211097,0.0732363,0.480518,-1.02702,32.1875,1,30452,3096892
7,4,0.99921,-0.00135826,0.0397081,0.000229919,-0.788116,-0.0560481,9.77241,0.082679,-0.503805,1.01795,-0.00788256,-0.000571506,0.0977239,1,5.53504e-05,-7.19916e-06,1.30851e-05,0.0110701,-0.00143983,0.00261702,0.99921,-0.00135826,0.0397081,0.000229919,0.072796,0.479528,-1.02603,32.1875,1,30454,3097092
8,1,0.999211,-0.00131775,0.0396805,0.00023431,-0.760314,-0.0576182,9.77867,0.105338,-0.507695,1.02129,-0.00760821,-0.000584853,0.0977862,1,4.37891e-05,-2.59761e-05,7.00927e-06,0.00875781,-0.00519523,0.00140185,0.999211,-0.00131775,0.0396805,0.00023431,0.0732813,0.480003,-1.02551,32.1875,1,30455,3097192
8,2,0.999212,-0.00124148,0.0396712,0.000250153,-0.742046,-0.0709403,9.78689,0.127989,-0.52224,1.02898,-0.00742007,-0.000718291,0.0978689,1,4.50407e-05,1.97103e-06,4.83901e-06,0.00900813,0.000394205,0.000967801,0.999212,-0.00124148,0.0396712,0.000250153,0.0728045,0.480486,-1.02499,32.1875,1,30457,3097392
8,3,0.999212,-0.00115813,0.0396677,0.000276151,-0.774432,-0.0683597,9.78102,0.0946771,-0.526147,1.02632,-0.00774453,-0.000693871,0.0978101,1,5.11333e-05,-1.19217e-06,1.75648e-05,0.0102267,-0.000238434,0.00351297,0.999212,-0.00115813,0.0396677,0.000276151,0.0732975,0.479027,-1.02553,32.1875,1,30459,3097592
8,4,0.999213,-0.00109248,0.0396548,0.000307217,-0.752629,-0.0685953,9.78359,0.116261,-0.522041,1.02505,-0.00752749,-0.00069397,0.0978358,1,4.01139e-05,-6.1765e-06,1.10885e-05,0.00802277,-0.0012353,0.00221771,0.999213,-0.00109248,0.0396548,0.000307217,0.0747328,0.479503,-1.02553,32.1875,1,30461,3097792
9,1,0.999214,-0.00101274,0.0396334,0.000327889,-0.790473,-0.0767303,9.77973,0.0748344,-0.53139,1.02519,-0.0079069,-0.00077647,0.097797,1,4.53184e-05,-1.12445e-05,1.91364e-05,0.00906368,-0.00224889,0.00382728,0.999214,-0.00101274,0.0396334,0.000327889,0.0747247,0.479991,-1.02552,32.1875,1,30463,3097992
9,2,0.999214,-0.000968266,0.0396236,0.000322436,-0.77465,-0.0751844,9.77724,0.0928917,-0.532238,1.02057,-0.00774798,-0.000761728,0.0977722,1,5.03864e-05,-7.57547e-06,2.06196e-06,0.0100773,-0.00151509,0.000412391,0.999214,-0.000968266,0.0396236,0.000322436,0.0747166,0.480479,-1.02551,32.1875,1,30464,3098092
9,3,0.999215,-0.000890973,0.039595,0.000320293,-0.744306,-0.0626746,9.78666,0.12546,-0.520126,1.02553,-0.00744601,-0.000635994,0.0978663,1,4.60092e-05,-1.51973e-05,1.6313e-05,0.00920185,-0.00303945,0.00326259,0.999215,-0.000890973,0.039595,0.000320293,0.0737705,0.479511,-1.02553,32.1875,1,30466,3098292
9,4,0.999216,-0.000823211,0.0395824,0.000336095,-0.782955,-0.0588623,9.77608,0.0852082,-0.519221,1.02062,-0.00783146,-0.000597367,0.0977606,1,4.4141e-05,-9.82706e-06,7.30541e-06,0.00882819,-0.00196541,0.00146108,0.999216,-0.000823211,0.0395824,0.000336095,0.0742559,0.479986,-1.02501,32.1875,1,30468,3098492
10,1,0.999217,-0.000749764,0.0395563,0.000323958,-0.763794,-0.0672878,9.77589,0.101133,-0.534744,1.01547,-0.00764009,-0.000679637,0.0977586,1,3.4418e-05,-1.10101e-05,1.98561e-06,0.00688359,-0.00220202,0.000397122,0.999217,-0.000749764,0.0395563,0.000323958,0.0737178,0.481959,-1.02598,32.1875,1,30470,3098692
10,2,0.999218,-0.000688741,0.0395263,0.000331275,-0.764167,-0.0577689,9.78411,0.100632,-0.523116,1.03057,-0.00764328,-0.000586094,0.0978409,1,4.21517e-05,-8.33325e-06,1.02445e-05,0.00843035,-0.00166665,0.00204889,0.999218,-0.000688741,0.0395263,0.000331275,0.0732239,0.480527,-1.02752,32.1875,1,30472,3098892
10,3,0.999219,-0.000632182,0.0395012,0.000349705,-0.783479,-0.0725606,9.7736,0.0755176,-0.53498,1.01728,-0.0078363,-0.000732573,0.0977358,1,3.46006e-05,-7.82674e-06,1.29862e-05,0.00692011,-0.00156535,0.00259724,0.999219,-0.000632182,0.0395012,0.000349705,0.072311,0.480499,-1.0255,32.1875,1,30474,3099092
10,4,0.99922,-0.000596568,0.039484,0.000368146,-0.755773,-0.0793818,9.78896,0.108638,-0.543329,1.02769,-0.00756036,-0.000802382,0.0978894,1,4.22821e-05,-1.36235e-05,1.89523e-05,0.00845641,-0.00272469,0.00379047,0.99922,-0.000596568,0.039484,0.000368146,0.0723234,0.48049,-1.02499,32.1875,1,30475,3099192
11,1,0.999221,-0.000540424,0.0394692,0.000374753,-0.761953,-0.0486608,9.78688,0.101088,-0.521003,1.03244,-0.00761984,-0.000492571,0.0978688,1,2.93571e-05,-1.65599e-06,1.42493e-05,0.00587142,-0.000331199,0.00284986,0.999221,-0.000540424,0.0394692,0.000374753,0.0741947,0.481476,-1.02649,32.1875,1,30477,3099392
11,2,0.999222,-0.000464751,0.0394357,0.000364844,-0.758741,-0.0607029,9.78099,0.104786,-0.529697,1.0231,-0.00758932,-0.000616167,0.0978097,1,4.60911e-05,-9.83497e-06,8.01688e-06,0.00921822,-0.00196699,0.00160338,0.999222,-0.000464751,0.0394357,0.000364844,0.0727594,0.481001,-1.0265,32.1875,1,30479,3099592
11,3,0.999223,-0.000379742,0.0394113,0.000386762,-0.755492,-0.0829383,9.7801,0.103313,-0.553228,1.02359,-0.00755717,-0.00083829,0.0978008,1,4.42582e-05,-1.16548e-05,1.65198e-05,0.00885164,-0.00233095,0.00330397,0.999223,-0.000379742,0.0394113,0.000386762,0.0728045,0.480486,-1.02499,32.1875,1,30481,3099792
11,4,0.999224,-0.000331134,0.0393841,0.000398786,-0.796475,-0.05996,9.77787,0.0683347,-0.532092,1.02541,-0.00796791,-0.000604915,0.0977784,1,2.54884e-05,-1.63189e-05,2.07125e-05,0.00509767,-0.00326378,0.0041425,0.999224,-0.000331134,0.0393841,0.000398786,0.0742389,0.478071,-1.02708,32.1875,1,30483,3099992
12,1,0.999225,-0.000312892,0.0393698,0.00040907,-0.789724,-0.0644836,9.77235,0.0729409,-0.53671,1.02029,-0.00789971,-0.000650902,0.0977232,1,2.98974e-05,-1.27085e-05,1.40948e-05,0.00597948,-0.0025417,0.00281896,0.999225,-0.000312892,0.0393698,0.00040907,0.0732852,0.479037,-1.02604,32.1875,1,30484,3100092
12,2,0.999226,-0.000246969,0.0393409,0.000434632,-0.784792,-0.0647686,9.78216,0.0769567,-0.539333,1.024,-0.00785103,-0.000656668,0.0978213,1,4.49586e-05,-1.59838e-05,1.18295e-05,0.00899171,-0.00319677,0.00236589,0.999226,-0.000246969,0.0393409,0.000434632,0.0718299,0.480503,-1.0255,32.1875,1,30486,3100292
12,3,0.999227,-0.000175262,0.039311,0.000461803,-0.750779,-0.0682379,9.78088,0.106247,-0.539684,1.02125,-0.00751138,-0.000691178,0.0978085,1,4.37647e-05,-1.84382e-05,1.58064e-05,0.00875294,-0.00368764,0.00316128,0.999227,-0.000175262,0.039311,0.000461803,0.0751731,0.480493,-1.02652,32.1875,1,30488,3100492
12,4,0.999228,-0.000113308,0.0392904,0.000423899,-0.734172,-0.0782401,9.77525,0.119962,-0.556344,1.01238,-0.00734309,-0.00079304,0.0977523,1,5.31282e-05,-7.1584e-06,1.71679e-05,0.0106256,-0.00143168,0.00343359,0.999228,-0.000113308,0.0392904,0.000423899,0.0737459,0.479529,-1.02654,32.1875,1,30490,3100692
13,1,0.999229,-3.33262e-05,0.0392505,0.000461688,-0.738871,-0.0680845,9.78521,0.124794,-0.549735,1.02533,-0.00739181,-0.0006903,0.0978518,1,4.71806e-05,-1.59873e-05,1.49814e-05,0.00943612,-0.00319747,0.00299629,0.999229,-3.33262e-05,0.0392505,0.000461688,0.0723519,0.479505,-1.02451,32.1875,1,30492,3100892
13,2,0.99923,4.41643e-05,0.0392427,0.000490014,-0.784326,-0.0666249,9.77093,0.0738315,-0.54801,1.01571,-0.00784327,-0.000676057,0.0977093,1,4.89876e-05,-1.45463e-07,1.49587e-05,0.00979753,-2.90927e-05,0.00299175,0.99923,4.41643e-05,0.0392427,0.000490014,0.0742194,0.481458,-1.02549,32.1875,1,30494,3101092
13,3,0.99923,6.82232e-05,0.039232,0.000468772,-0.807675,-0.0775154,9.76931,0.0510621,-0.558896,1.01179,-0.00807817,-0.000783449,0.0976929,1,4.18592e-05,-7.3258e-06,7.1749e-06,0.00837185,-0.00146516,0.00143498,0.99923,6.82232e-05,0.039232,0.000468772,0.0751655,0.482426,-1.02547,32.1875,1,30495,3101192
13,4,0.999231,0.000124706,0.0391959,0.000427682,-0.763429,-0.0577703,9.78852,0.0938882,-0.541195,1.02758,-0.00763668,-0.000587143,0.0978849,1,4.76763e-05,-1.22376e-05,6.92897e-06,0.00953526,-0.00244752,0.00138579,0.999231,0.000124706,0.0391959,0.000427682,0.0713445,0.480028,-1.02601,32.1875,1,30497,3101392
14,1,0.999232,0.000162988,0.0391793,0.000458934,-0.770898,-0.0516423,9.773,0.0841417,-0.534489,1.01519,-0.00770911,-0.000522826,0.09773,1,3.22833e-05,-7.05955e-07,6.00717e-06,0.00645667,-0.000141191,0.00120143,0.999232,0.000162988,0.0391793,0.000458934,0.0737587,0.480966,-1.02499,32.1875,1,30499,3101592
14,2,0.999233,0.00021752,0.0391676,0.000456888,-0.726949,-0.0776127,9.79691,0.132384,-0.567341,1.03734,-0.00726983,-0.000786269,0.097969,1,5.13941e-05,-1.79008e-06,4.9379e-06,0.0102788,-0.000358017,0.000987579,0.999233,0.00021752,0.0391676,0.000456888,0.0756869,0.479983,-1.02552,32.1875,1,30501,3101792
14,3,0.999233,0.000259406,0.0391607,0.000439591,-0.737064,-0.065029,9.77572,0.123358,-0.55072,1.01655,-0.00737209,-0.000657275,0.097757,1,3.4224e-05,-7.54737e-06,1.99101e-05,0.00684481,-0.00150947,0.00398202,0.999233,0.000259406,0.0391607,0.000439591,0.0723357,0.480481,-1.02449,32.1875,1,30503,3101992
14,4,0.999233,0.000291673,0.0391556,0.000464432,-0.776902,-0.0887033,9.78189,0.0779119,-0.576979,1.02584,-0.00776941,-0.000895856,0.0978188,1,4.34016e-05,-2.1609e-06,2.13383e-05,0.00868031,-0.00043218,0.00426766,0.999233,0.000291673,0.0391556,0.000464432,0.0733307,0.479967,-1.02349,32.1875,1,30504,3102092
15,1,0.999234,0.000339475,0.0391325,0.000485175,-0.781623,-0.0617453,9.78147,0.0725663,-0.548848,1.02419,-0.00781614,-0.00062481,0.0978146,1,3.61055e-05,3.20363e-07,1.88388e-05,0.0072211,6.40726e-05,0.00376777,0.999234,0.000339475,0.0391325,0.000485175,0.073212,0.481981,-1.02698,32.1875,1,30506,3102292
15,2,0.999235,0.00038339,0.0390955,0.000502008,-0.775063,-0.0549423,9.77471,0.0759679,-0.545094,1.01784,-0.0077545,-0.00055963,0.0977467,1,5.1083e-05,-1.99155e-05,1.42251e-05,0.0102166,-0.0039831,0.00284503,0.999235,0.00038339,0.0390955,0.000502008,0.0742678,0.478532,-1.02555,32.1875,1,30508,3102492
15,3,0.999236,0.000458332,0.0390749,0.000492521,-0.769419,-0.0840556,9.78019,0.0826495,-0.575323,1.02184,-0.0076957,-0.000851133,0.0978017,1,5.3009e-05,-7.86437e-06,1.35021e-05,0.0106018,-0.00157287,0.00270042,0.999236,0.000458332,0.0390749,0.000492521,0.0722949,0.481474,-1.02548,32.1875,1,30510,3102692
15,4,0.999236,0.000512772,0.0390658,0.000491087,-0.745265,-0.0630122,9.78426,0.106741,-0.559557,1.02198,-0.00745329,-0.000639416,0.0978425,1,4.59028e-05,-3.41982e-06,2.08938e-05,0.00918055,-0.000683963,0.00417876,0.999236,0.000512772,0.0390658,0.000491087,0.0766169,0.481926,-1.02549,32.1875,1,30512,3102892
16,1,0.999236,0.000533152,0.0390702,0.000465577,-0.742164,-0.0698678,9.77876,0.107319,-0.56347,1.01883,-0.00742046,-0.000707202,0.0977876,1,4.30792e-05,5.97535e-06,6.66083e-06,0.00861585,0.00119507,0.00133217,0.999236,0.000533152,0.0390702,0.000465577,0.074692,0.480497,-1.02652,32.1875,1,30513,3102992
16,2,0.999237,0.000580891,0.0390587,0.000490749,-0.778217,-0.0694689,9.77968,0.0741369,-0.559877,1.01796,-0.00778205,-0.000702315,0.0977967,1,3.8648e-05,5.6979e-07,4.27688e-06,0.00772961,0.000113958,0.000855377,0.999237,0.000580891,0.0390587,0.000490749,0.0733269,0.480934,-1.02297,32.1875,1,30515,3103192
16,3,0.999237,0.000627288,0.0390584,0.000511961,-0.786179,-0.0531862,9.78293,0.0646441,-0.550474,1.02735,-0.00786103,-0.000540966,0.0978293,1,4.48971e-05,3.76062e-06,2.0305e-05,0.00897942,0.000752124,0.004061,0.999237,0.000627288,0.0390584,0.000511961,0.0727964,0.480974,-1.02498,32.1875,1,30517,3103392
16,4,0.999238,0.000669799,0.0390335,0.000532138,-0.772392,-0.0526891,9.77335,0.0789325,-0.548332,1.0134,-0.00772551,-0.000534375,0.0977334,1,3.78639e-05,-8.16952e-06,5.35473e-06,0.00757277,-0.0016339,0.00107095,0.999238,0.000669799,0.0390335,0.000532138,0.0718418,0.479049,-1.02603,32.1875,1,30519,3103592
17,1,0.999239,0.000706307,0.0389963,0.000567751,-0.756391,-0.067912,9.76836,0.0981406,-0.568606,1.00766,-0.00756669,-0.000687303,0.0976833,1,4.06782e-05,-1.43444e-05,1.56053e-05,0.00813564,-0.00286888,0.00312107,0.999239,0.000706307,0.0389963,0.000567751,0.0728534,0.479004,-1.02402,32.1875,1,30521,3103792
17,2,0.999239,0.000728821,0.0389836,0.000558932,-0.74647,-0.0791526,9.78312,0.107654,-0.580136,1.02302,-0.00746555,-0.000800498,0.097831,1,4.54672e-05,-4.41645e-06,5.11526e-06,0.00909344,-0.000883289,0.00102305,0.999239,0.000728821,0.0389836,0.000558932,0.0742559,0.479986,-1.02501,32.1875,1,30523,3103992
17,3,0.99924,0.000748537,0.0389686,0.000559325,-0.753458,-0.0757292,9.77201,0.0971403,-0.578892,1.00822,-0.00753718,-0.000765876,0.0977199,1,4.25858e-05,-1.3439e-05,1.73184e-05,0.00851717,-0.00268779,0.00346369,0.99924,0.000748537,0.0389686,0.000559325,0.0723068,0.48002,-1.02601,32.1875,1,30524,3104092
17,4,0.999241,0.000790814,0.0389464,0.00057838,-0.777819,-0.0650108,9.78142,0.0765996,-0.566162,1.01889,-0.00777847,-0.000659418,0.0978141,1,4.67841e-05,-1.51444e-06,1.01179e-05,0.00935681,-0.000302888,0.00202357,0.999241,0.000790814,0.0389464,0.00057838,0.0727594,0.481001,-1.0265,32.1875,1,30526,3104292
18,1,0.999242,0.000818856,0.038926,0.000587167,-0.776773,-0.0634441,9.78516,0.0720278,-0.563563,1.02543,-0.00776771,-0.000641509,0.0978515,1,3.53679e-05,3.72489e-08,9.43048e-06,0.00707359,7.44979e-06,0.0018861,0.999242,0.000818856,0.038926,0.000587167,0.0713241,0.480525,-1.0265,32.1875,1,30528,3104492
18,2,0.999243,0.000828073,0.0388816,0.000612268,-0.783576,-0.066097,9.77229,0.0639789,-0.568368,1.01291,-0.00783879,-0.000667668,0.0977227,1,3.26577e-05,-1.56164e-05,2.01205e-05,0.00653153,-0.00312328,0.0040241,0.999243,0.000828073,0.0388816,0.000612268,0.0727803,0.481949,-1.02496,32.1875,1,30530,3104692
18,3,0.999244,0.000864864,0.0388706,0.000621123,-0.771856,-0.0873164,9.78322,0.0789626,-0.588994,1.02166,-0.00771872,-0.000880033,0.0978322,1,3.31383e-05,-1.02826e-06,2.49762e-05,0.00662766,-0.000205652,0.00499524,0.999244,0.000864864,0.0388706,0.000621123,0.0737743,0.478545,-1.02605,32.1875,1,30532,3104892
18,4,0.999244,0.000887781,0.0388563,0.000620011,-0.773203,-0.0796508,9.77855,0.0733776,-0.584361,1.02099,-0.00773479,-0.000805515,0.0977852,1,4.55528e-05,-1.41897e-05,6.36667e-06,0.00911056,-0.00283794,0.00127333,0.999244,0.000887781,0.0388563,0.000620011,0.07523,0.478524,-1.02555,32.1875,1,30533,3104992
19,1,0.999245,0.000932627,0.038843,0.000621459,-0.791188,-0.0509434,9.76603,0.0559963,-0.552745,1.01176,-0.0079134,-0.000520067,0.0976602,1,5.29216e-05,-7.88474e-06,1.87249e-05,0.0105843,-0.00157695,0.00374497,0.999245,0.000932627,0.038843,0.000621459,0.0742806,0.479968,-1.024,32.1875,1,30535,3105192
19,2,0.999246,0.000945613,0.0388189,0.00061978,-0.752848,-0.0659962,9.78871,0.0921765,-0.570579,1.02739,-0.0075306,-0.000666148,0.0978869,1,3.07766e-05,-1.09168e-05,1.06674e-05,0.00615531,-0.00218335,0.00213347,0.999246,0.000945613,0.0388189,0.00061978,0.0737012,0.481489,-1.027,32.1875,1,30537,3105392
19,3,0.999247,0.000971057,0.0387912,0.000623405,-0.757984,-0.0647275,9.77655,0.0878944,-0.569894,1.01769,-0.00758188,-0.000655219,0.0977653,1,3.93466e-05,-1.05572e-05,1.65383e-05,0.00786933,-0.00211145,0.00330765,0.999247,0.000971057,0.0387912,0.000623405,0.0723765,0.479487,-1.0235,32.1875,1,30539,3105592
19,4,0.999247,0.000994957,0.038777,0.000650374,-0.74986,-0.0673447,9.78223,0.0953024,-0.575973,1.01893,-0.00749907,-0.000679275,0.0978223,1,2.92696e-05,-2.43269e-06,6.80968e-06,0.00585393,-0.000486537,0.00136194,0.999247,0.000994957,0.038777,0.000650374,0.0742768,0.480935,-1.02348,32.1875,1,30541,3105792
20,1,0.999248,0.00103295,0.0387595,0.000654853,-0.761659,-0.0754846,9.78021,0.0869542,-0.579596,1.01735,-0.00761851,-0.000763728,0.0978019,1,4.40349e-05,-9.965e-06,1.75963e-05,0.00880697,-0.001993,0.00351926,0.999248,0.00103295,0.0387595,0.000654853,0.0742146,0.479534,-1.02704,32.1875,1,30543,3105992
20,2,0.999248,0.00104376,0.0387556,0.000663215,-0.790704,-0.0716387,9.77636,0.0596257,-0.571541,1.02012,-0.00790756,-0.000724269,0.0977635,1,3.89144e-05,-2.79965e-06,1.72629e-05,0.00778288,-0.00055993,0.00345259,0.999248,0.00104376,0.0387556,0.000663215,0.073232,0.480039,-1.02753,32.1875,1,30544,3106092
20,3,0.999249,0.00106777,0.0387344,0.000671656,-0.778475,-0.0592722,9.7808,0.0607663,-0.558083,1.02442,-0.00778521,-0.000600375,0.0978079,1,3.78118e-05,-2.49229e-06,1.6432e-05,0.00756236,-0.000498458,0.00328641,0.999249,0.00106777,0.0387344,0.000671656,0.0713939,0.479992,-1.02399,32.1875,1,30546,3106292
20,4,0.99925,0.00108755,0.0387118,0.000693509,-0.747041,-0.0675464,9.78392,0.0903138,-0.591632,1.02081,-0.00747291,-0.000681472,0.0978389,1,2.97372e-05,-1.28762e-05,1.26959e-05,0.00594744,-0.00257524,0.00253917,0.99925,0.00108755,0.0387118,0.000693509,0.0737999,0.481417,-1.02296,32.1875,1,30548,3106492
21,1,0.99925,0.00109242,0.0387049,0.000660642,-0.735302,-0.113913,9.7702,0.118779,-0.61598,1.0051,-0.00735468,-0.00114649,0.0977018,1,3.77726e-05,-8.46966e-06,-1.40993e-06,0.00755451,-0.00169393,-0.000281986,0.99925,0.00109242,0.0387049,0.000660642,0.0737212,0.479547,-1.02755,32.1875,1,30550,3106692
21,2,0.99925,0.00112923,0.0387009,0.000662026,-0.737607,-0.0695073,9.78587,0.103657,-0.55697,1.02335,-0.00737569,-0.000704622,0.0978586,1,4.77825e-05,1.85149e-06,1.33997e-05,0.0095565,0.000370299,0.00267994,0.99925,0.00112923,0.0387009,0.000662026,0.0732979,0.480473,-1.02449,32.1875,1,30552,3106892
21,3,0.999251,0.00115213,0.0386862,0.000663716,-0.753207,-0.0267597,9.78226,0.0946617,-0.54046,1.02075,-0.00753481,-0.000277119,0.0978224,1,4.7816e-05,-1.40255e-05,1.10773e-05,0.0095632,-0.00280509,0.00221547,0.999251,0.00115213,0.0386862,0.000663716,0.0747375,0.481427,-1.02397,32.1875,1,30553,3106992
21,4,0.999251,0.00117353,0.0386792,0.000635149,-0.786141,-0.0773499,9.78715,0.0585805,-0.589817,1.02914,-0.0078616,-0.000782281,0.0978714,1,4.40982e-05,-1.04298e-06,9.56446e-06,0.00881963,-0.000208596,0.00191289,0.999251,0.00117353,0.0386792,0.000635149,0.0742436,0.479995,-1.02552,32.1875,1,30555,3107192
22,1,0.999251,0.00120814,0.0386786,0.00064894,-0.788178,-0.0811728,9.77763,0.0542375,-0.586391,1.01497,-0.0078827,-0.000819934,0.0977761,1,4.11701e-05,-4.7776e-06,9.87373e-06,0.00823402,-0.00095552,0.00197475,0.999251,0.00120814,0.0386786,0.00064894,0.0718091,0.479554,-1.02703,32.1875,1,30557,3107392
22,2,0.999252,0.00126295,0.0386426,0.000698023,-0.766824,-0.0627015,9.78172,0.0772979,-0.580918,1.01794,-0.00767124,-0.000637938,0.0978168,1,5.41825e-05,-1.54765e-05,2.10295e-05,0.0108365,-0.00309531,0.00420589,0.999252,0.00126295,0.0386426,0.000698023,0.0733098,0.479018,-1.02503,32.1875,1,30559,3107592
22,3,0.999252,0.00129577,0.0386324,0.000699924,-0.739059,-0.0533772,9.77855,0.106045,-0.565676,1.01654,-0.0073936,-0.00054203,0.0977853,1,4.05553e-05,-1.55026e-05,2.20409e-05,0.00811107,-0.00310053,0.00440817,0.999252,0.00129577,0.0386324,0.000699924,0.0751446,0.481477,-1.027,32.1875,1,30561,3107792
22,4,0.999253,0.0013016,0.0386209,0.000667311,-0.738582,-0.0757354,9.7848,0.103013,-0.591195,1.02406,-0.00738631,-0.000764429,0.0978479,1,3.5448e-05,-2.55535e-06,9.3187e-06,0.0070896,-0.00051107,0.00186374,0.999253,0.0013016,0.0386209,0.000667311,0.0737867,0.478536,-1.02555,32.1875,1,30563,3107992
23,1,0.999253,0.00132036,0.038622,0.00067537,-0.76242,-0.0693613,9.78298,0.0847481,-0.578648,1.02337,-0.00762415,-0.000701846,0.0978297,1,4.14402e-05,2.27622e-07,8.18238e-06,0.00828804,4.55244e-05,0.00163648,0.999253,0.00132036,0.038622,0.00067537,0.0733056,0.47854,-1.02555,32.1875,1,30564,3108092
23,2,0.999254,0.00133876,0.0386022,0.000683529,-0.803072,-0.0825187,9.79128,0.0426937,-0.59181,1.03011,-0.00803346,-0.000831676,0.0979125,1,3.18176e-05,-1.41486e-05,1.606e-05,0.00636352,-0.00282972,0.00321201,0.999254,0.00133876,0.0386022,0.000683529,0.073204,0.482469,-1.02697,32.1875,1,30566,3108292
23,3,0.999254,0.00136939,0.0385784,0.000679759,-0.793049,-0.0695521,9.77674,0.04544,-0.580585,1.0172,-0.00793266,-0.000704302,0.0977671,1,4.43719e-05,-1.11907e-05,6.63856e-06,0.00887439,-0.00223813,0.00132771,0.999254,0.00136939,0.0385784,0.000679759,0.0742194,0.481458,-1.02549,32.1875,1,30568,3108492
23,4,0.999255,0.0014011,0.0385531,0.000676566,-0.766234,-0.0591822,9.78445,0.0763768,-0.571616,1.0203,-0.00766457,-0.000600432,0.0978442,1,4.30438e-05,-1.1474e-05,1.21856e-05,0.00860876,-0.0022948,0.00243711,0.999255,0.0014011,0.0385531,0.000676566,0.0747332,0.480949,-1.02449,32.1875,1,30570,3108692
24,1,0.999256,0.00144003,0.038529,0.000682065,-0.7587,-0.064766,9.78265,0.0837775,-0.580071,1.02236,-0.00758868,-0.000656751,0.0978264,1,4.532e-05,-8.65021e-06,1.47355e-05,0.00906399,-0.00173004,0.0029471,0.999256,0.00144003,0.038529,0.000682065,0.0722498,0.481989,-1.02698,32.1875,1,30572,3108892
24,2,0.999257,0.00145475,0.0385185,0.000691214,-0.76112,-0.0740237,9.7697,0.0823149,-0.589049,1.00683,-0.00761317,-0.000748818,0.0976967,1,4.33549e-05,-1.01664e-05,7.21231e-06,0.00867098,-0.00203328,0.00144246,0.999257,0.00145475,0.0385185,0.000691214,0.0746962,0.480976,-1.026,32.1875,1,30573,3108992
24,3,0.999257,0.00147273,0.0385062,0.00070486,-0.774765,-0.0684399,9.78069,0.0678732,-0.587281,1.02146,-0.00774828,-0.000691848,0.0978068,1,3.66586e-05,-3.30225e-06,1.79822e-05,0.00733172,-0.000660451,0.00359644,0.999257,0.00147273,0.0385062,0.00070486,0.0742521,0.480953,-1.02449,32.1875,1,30575,3109192
24,4,0.999257,0.00150849,0.0385045,0.000720538,-0.77142,-0.0542526,9.7852,0.070667,-0.573393,1.02715,-0.0077143,-0.000552702,0.0978519,1,5.07329e-05,-6.21941e-07,1.60802e-05,0.0101466,-0.000124388,0.00321603,0.999257,0.00150849,0.0385045,0.000720538,0.0728211,0.480956,-1.02397,32.1875,1,30577,3109392
25,1,0.999258,0.00154988,0.0384899,0.000736509,-0.775684,-0.0724043,9.7749,0.0630614,-0.590615,1.01006,-0.00775935,-0.000733221,0.0977487,1,4.57373e-05,-1.29321e-05,1.52905e-05,0.00914745,-0.00258642,0.00305811,0.999258,0.00154988,0.0384899,0.000736509,0.073232,0.480039,-1.02753,32.1875,1,30579,3109592
25,2,0.999258,0.0015912,0.0384698,0.000732052,-0.750775,-0.0685258,9.79478,0.0882404,-0.58952,1.03489,-0.00750874,-0.000697154,0.0979477,1,6.0223e-05,-5.11121e-06,6.54147e-06,0.0120446,-0.00102224,0.00130829,0.999258,0.0015912,0.0384698,0.000732052,0.0756789,0.480471,-1.02551,32.1875,1,30581,3109792
25,3,0.999258,0.00160823,0.0384652,0.000719915,-0.735077,-0.0852037,9.78503,0.102203,-0.60559,1.02327,-0.00735212,-0.00086064,0.0978501,1,4.30122e-05,-7.02581e-06,1.26269e-05,0.00860244,-0.00140516,0.00252538,0.999258,0.00160823,0.0384652,0.000719915,0.0752305,0.479969,-1.02451,32.1875,1,30582,3109892
25,4,0.999259,0.00165407,0.0384557,0.000716081,-0.771504,-0.0760989,9.77959,0.0748057,-0.596937,1.01826,-0.00771725,-0.000770899,0.0977957,1,5.06211e-05,-1.1347e-05,5.58746e-07,0.0101242,-0.00226941,0.000111749,0.999259,0.00165407,0.0384557,0.000716081,0.0727803,0.481949,-1.02496,32.1875,1,30584,3110092
26,1,0.999259,0.00169552,0.0384595,0.000746153,-0.762591,-0.0586316,9.78612,0.076499,-0.583348,1.02585,-0.00762493,-0.00059658,0.0978612,1,5.00958e-05,4.82243e-06,3.00985e-05,0.0100192,0.000964486,0.0060197,0.999259,0.00169552,0.0384595,0.000746153,0.073269,0.480012,-1.02602,32.1875,1,30586,3110292
26,2,0.999259,0.00172083,0.038448,0.000776017,-0.763549,-0.0574452,9.78173,0.0779318,-0.578905,1.02003,-0.00763712,-0.000580794,0.0978171,1,3.14209e-05,-8.4004e-06,1.28114e-05,0.00628419,-0.00168008,0.00256228,0.999259,0.00172083,0.038448,0.000776017,0.0723149,0.479532,-1.02602,32.1875,1,30588,3110492
26,3,0.999259,0.00175168,0.0384503,0.00077402,-0.752547,-0.0747219,9.78659,0.0860213,-0.596147,1.02672,-0.00752504,-0.000756701,0.0978659,1,4.71994e-05,2.03601e-06,1.619e-05,0.00943989,0.000407202,0.00323801,0.999259,0.00175168,0.0384503,0.00077402,0.0751897,0.480963,-1.0255,32.1875,1,30590,3110692
26,4,0.999258,0.00180007,0.0384599,0.000765987,-0.77,-0.0641473,9.78409,0.0726982,-0.585856,1.0202,-0.00770012,-0.000652771,0.0978408,1,5.69057e-05,-6.89189e-07,1.0578e-05,0.0113811,-0.000137838,0.0021156,0.999258,0.00180007,0.0384599,0.000765987,0.0737378,0.480017,-1.02652,32.1875,1,30592,3110892
27,1,0.999258,0.00181442,0.0384663,0.00076538,-0.769801,-0.0682853,9.77081,0.0680749,-0.589764,1.00996,-0.00769703,-0.000691191,0.0977081,1,4.22839e-05,4.96923e-06,4.87649e-06,0.00845679,0.000993847,0.000975298,0.999258,0.00181442,0.0384663,0.00076538,0.0747124,0.48,-1.02602,32.1875,1,30593,3110992
27,2,0.999259,0.00183955,0.0384497,0.000769278,-0.74647,-0.0647955,9.77986,0.0898666,-0.589302,1.01792,-0.00746718,-0.000656044,0.0977984,1,4.10769e-05,-1.27201e-05,3.68255e-06,0.00821538,-0.00254402,0.00073651,0.999259,0.00183955,0.0384497,0.000769278,0.0733511,0.47947,-1.023,32.1875,1,30595,3111192
27,3,0.999259,0.00183955,0.0384497,0.000769278,-0.74647,-0.0647955,9.77986,0.0898666,-0.589302,1.01792,-0.00746718,-0.000656044,0.0977984,1,4.10769e-05,-1.27201e-05,3.68255e-06,0.00821538,-0.00254402,0.00073651,0.999259,0.00183955,0.0384497,0.000769278,0.0733511,0.47947,-1.023,32.1875,1,30595,3111192
27,4,0.999259,0.00183955,0.0384497,0.000769278,-0.74647,-0.0647955,9.77986,0.0898666,-0.589302,1.01792,-0.00746718,-0.000656044,0.0977984,1,4.10769e-05,-1.27201e-05,3.68255e-06,0.00821538,-0.00254402,0.00073651,0.999259,0.00183955,0.0384497,0.000769278,0.0733511,0.47947,-1.023,32.1875,1,30595,3111192
28,1,0.999259,0.00187463,0.0384483,0.000778994,-0.759483,-0.0642018,9.77723,0.0822833,-0.587736,1.01241,-0.00759556,-0.0006498,0.0977722,1,3.98588e-05,-3.74204e-06,-7.59912e-07,0.00797175,-0.000748408,-0.000151982,0.999259,0.00187463,0.0384483,0.000778994,0.0737587,0.480966,-1.02499,32.1875,1,30597,3111392
28,2,0.999259,0.00189177,0.0384349,0.00077496,-0.771903,-0.0663285,9.7807,0.069207,-0.589685,1.01661,-0.00772192,-0.00067217,0.0978067,1,4.48748e-05,-1.48063e-05,6.92716e-06,0.00897496,-0.00296125,0.00138543,0.999259,0.00189177,0.0384349,0.00077496,0.0746877,0.480018,-1.02703,32.1875,1,30598,3111492
28,3,0.99926,0.00189883,0.0384132,0.000774661,-0.783672,-0.0792219,9.77898,0.0531359,-0.603439,1.02063,-0.0078413,-0.000799524,0.0977893,1,3.6152e-05,-2.3531e-05,1.49086e-05,0.0072304,-0.0047062,0.00298171,0.99926,0.00189883,0.0384132,0.000774661,0.0747574,0.479485,-1.02452,32.1875,1,30599,3111592
28,4,0.99926,0.00189883,0.0384132,0.000774661,-0.783672,-0.0792219,9.77898,0.0531359,-0.603439,1.02063,-0.0078413,-0.000799524,0.0977893,1,3.6152e-05,-2.3531e-05,1.49086e-05,0.0072304,-0.0047062,0.00298171,0.99926,0.00189883,0.0384132,0.000774661,0.0747574,0.479485,-1.02452,32.1875,1,30599,3111592
29,1,0.99926,0.00193632,0.0384003,0.000800635,-0.80838,-0.0709134,9.7731,0.0309878,-0.59875,1.01705,-0.00808472,-0.000719442,0.0977308,1,5.03027e-05,-4.93584e-06,2.94781e-05,0.0100605,-0.000987167,0.00589563,0.99926,0.00193632,0.0384003,0.000800635,0.0738446,0.479457,-1.0225,32.1875,1,30601,3111792
29,2,0.99926,0.00194766,0.0384131,0.000800985,-0.826292,-0.0634326,9.7753,0.014022,-0.588035,1.01689,-0.00826083,-0.000641428,0.0977532,1,3.5651e-05,1.06468e-05,7.97028e-06,0.00713021,0.00212936,0.00159406,0.99926,0.00194766,0.0384131,0.000800985,0.0747086,0.480967,-1.0255,32.1875,1,30602,3111892
29,3,0.99926,0.00194766,0.0384131,0.000800985,-0.826292,-0.0634326,9.7753,0.014022,-0.588035,1.01689,-0.00826083,-0.000641428,0.0977532,1,3.5651e-05,1.06468e-05,7.97028e-06,0.00713021,0.00212936,0.00159406,0.99926,0.00194766,0.0384131,0.000800985,0.0747086,0.480967,-1.0255,32.1875,1,30602,3111892
29,4,0.99926,0.00194766,0.0384131,0.000800985,-0.826292,-0.0634326,9.7753,0.014022,-0.588035,1.01689,-0.00826083,-0.000641428,0.0977532,1,3.5651e-05,1.06468e-05,7.97028e-06,0.00713021,0.00212936,0.00159406,0.99926,0.00194766,0.0384131,0.000800985,0.0747086,0.480967,-1.0255,32.1875,1,30602,3111892
30,1,0.99926,0.00197285,0.0384029,0.00079174,-0.792333,-0.063191,9.79172,0.0415891,-0.589685,1.03284,-0.00792404,-0.00064145,0.097917,1,4.76763e-05,-3.75317e-06,1.28111e-05,0.00953526,-0.000750635,0.00256222,0.99926,0.00197285,0.0384029,0.00079174,0.0732159,0.481015,-1.02751,32.1875,3,30604,3112092
30,2,0.99926,0.00197968,0.0384143,0.000800998,-0.790874,-0.0662148,9.77742,0.0521548,-0.591975,1.01696,-0.00790696,-0.000669284,0.0977743,1,3.5692e-05,9.02812e-06,9.91118e-06,0.00713841,0.00180562,0.00198224,0.99926,0.00197968,0.0384143,0.000800998,0.0732486,0.480509,-1.02651,32.1875,3,30605,3112192
30,3,0.99926,0.00197968,0.0384143,0.000800998,-0.790874,-0.0662148,9.77742,0.0521548,-0.591975,1.01696,-0.00790696,-0.000669284,0.0977743,1,3.5692e-05,9.02812e-06,9.91118e-06,0.00713841,0.00180562,0.00198224,0.99926,0.00197968,0.0384143,0.000800998,0.0732486,0.480509,-1.02651,32.1875,3,30605,3112192
30,4,0.99926,0.00197968,0.0384143,0.000800998,-0.790874,-0.0662148,9.77742,0.0521548,-0.591975,1.01696,-0.00790696,-0.000669284,0.0977743,1,3.5692e-05,9.02812e-06,9.91118e-06,0.00713841,0.00180562,0.00198224,0.99926,0.00197968,0.0384143,0.000800998,0.0732486,0.480509,-1.02651,32.1875,3,30605,3112192
31,1,0.999259,0.00201751,0.0384223,0.000816366,-0.759271,-0.0865868,9.78077,0.0733395,-0.615636,1.02119,-0.0075925,-0.000876714,0.0978076,1,5.40913e-05,9.48228e-07,1.74752e-05,0.0108183,0.000189646,0.00349504,0.999259,0.00201751,0.0384223,0.000816366,0.0751693,0.481459,-1.02599,32.1875,3,30607,3112392
31,2,0.999259,0.00203171,0.0384299,0.000814712,-0.730064,-0.0879551,9.79243,0.110018,-0.617639,1.02528,-0.00729973,-0.000887726,0.0979243,1,4.04286e-05,4.46859e-06,1.76096e-05,0.00808571,0.000893718,0.00352193,0.999259,0.00203171,0.0384299,0.000814712,0.0756869,0.479983,-1.02552,32.1875,3,30608,3112492
31,3,0.999259,0.00205558,0.0384293,0.000823226,-0.701506,-0.0697555,9.78461,0.132096,-0.60555,1.01605,-0.00701578,-0.000707483,0.0978459,1,4.87288e-05,-3.90943e-06,2.79693e-05,0.00974576,-0.000781886,0.00559386,0.999259,0.00205558,0.0384293,0.000823226,0.0742716,0.477565,-1.02608,32.1875,3,30609,3112592
31,4,0.999259,0.00205558,0.0384293,0.000823226,-0.701506,-0.0697555,9.78461,0.132096,-0.60555,1.01605,-0.00701578,-0.000707483,0.0978459,1,4.87288e-05,-3.90943e-06,2.79693e-05,0.00974576,-0.000781886,0.00559386,0.999259,0.00205558,0.0384293,0.000823226,0.0742716,0.477565,-1.02608,32.1875,3,30609,3112592
32,1,0.999259,0.00209194,0.0384186,0.000837664,-0.689931,-0.040473,9.76882,0.13844,-0.570462,1.00491,-0.00690158,-0.00041449,0.097688,1,4.95892e-05,-1.16395e-05,5.18005e-06,0.00991785,-0.0023279,0.00103601,0.999259,0.00209194,0.0384186,0.000837664,0.0747574,0.479485,-1.02452,32.1875,3,30611,3112792
32,2,0.99926,0.0021178,0.0384094,0.000830371,-0.697959,-0.0508226,9.76405,0.149441,-0.577508,1.00973,-0.00698178,-0.000518231,0.0976403,1,5.08316e-05,-1.12299e-05,5.59493e-06,0.0101663,-0.00224598,0.00111899,0.99926,0.0021178,0.0384094,0.000830371,0.0737952,0.479493,-1.02452,32.1875,3,30612,3112892
32,3,0.99926,0.0021178,0.0384094,0.000830371,-0.697959,-0.0508226,9.76405,0.149441,-0.577508,1.00973,-0.00698178,-0.000518231,0.0976403,1,5.08316e-05,-1.12299e-05,5.59493e-06,0.0101663,-0.00224598,0.00111899,0.99926,0.0021178,0.0384094,0.000830371,0.0737952,0.479493,-1.02452,32.1875,3,30612,3112892
32,4,0.99926,0.0021178,0.0384094,0.000830371,-0.697959,-0.0508226,9.76405,0.149441,-0.577508,1.00973,-0.00698178,-0.000518231,0.0976403,1,5.08316e-05,-1.12299e-05,5.59493e-06,0.0101663,-0.00224598,0.00111899,0.99926,0.0021178,0.0384094,0.000830371,0.0737952,0.479493,-1.02452,32.1875,3,30612,3112892
33,1,0.999264,0.00215617,0.0383037,0.000868056,-0.596681,-0.0577846,9.70602,0.167693,-0.605719,0.920892,-0.00598211,-0.00058449,0.0970592,1,3.28271e-05,-7.89484e-05,2.2711e-05,0.00656541,-0.0157897,0.0045422,0.999264,0.00215617,0.0383037,0.000868056,0.074729,0.48047,-1.025,32.1875,3,30614,3113092
33,2,0.999267,0.00217167,0.0382162,0.000854359,-0.419133,-0.0905352,9.81107,0.404166,-0.627322,1.03094,-0.00420876,-0.000913598,0.0981099,1,4.1887e-05,-8.8852e-05,3.2548e-06,0.0083774,-0.0177704,0.000650961,0.999267,0.00217167,0.0382162,0.000854359,0.07616,0.480467,-1.02552,32.1875,3,30615,3113192
33,3,0.999267,0.00217167,0.0382162,0.000854359,-0.419133,-0.0905352,9.81107,0.404166,-0.627322,1.03094,-0.00420876,-0.000913598,0.0981099,1,4.1887e-05,-8.8852e-05,3.2548e-06,0.0083774,-0.0177704,0.000650961,0.999267,0.00217167,0.0382162,0.000854359,0.07616,0.480467,-1.02552,32.1875,3,30615,3113192
33,4,0.999267,0.00217167,0.0382162,0.000854359,-0.419133,-0.0905352,9.81107,0.404166,-0.627322,1.03094,-0.00420876,-0.000913598,0.0981099,1,4.1887e-05,-8.8852e-05,3.2548e-06,0.0083774,-0.0177704,0.000650961,0.999267,0.00217167,0.0382162,0.000854359,0.07616,0.480467,-1.02552,32.1875,3,30615,3113192
34,1,0.999274,0.00218724,0.0380257,0.000849463,-0.16841,-0.0892247,9.88027,0.658783,-0.608227,1.09096,-0.00170149,-0.000899343,0.0988023,1,3.56022e-05,-8.81556e-05,1.80555e-05,0.00712044,-0.0176311,0.0036111,0.999274,0.00218724,0.0380257,0.000849463,0.0728653,0.47755,-1.02456,32.1875,3,30617,3113392
34,2,0.999277,0.00219918,0.0379396,0.000879534,-0.227033,-0.0765659,9.87093,0.610122,-0.599006,1.09881,-0.00228628,-0.000772729,0.0987089,1,3.52394e-05,-8.09842e-05,2.4756e-05,0.00704787,-0.0161968,0.0049512,0.999277,0.00219918,0.0379396,0.000879534,0.0719035,0.479003,-1.02351,32.1875,3,30618,3113492
34,3,0.99928,0.00223842,0.0378568,0.000901075,-0.178636,-0.0804475,9.90924,0.629929,-0.622684,1.13171,-0.00180119,-0.00081705,0.0990921,1,6.31569e-05,-7.49598e-05,1.61116e-05,0.0126314,-0.014992,0.00322232,0.99928,0.00223842,0.0378568,0.000901075,0.0728173,0.481922,-1.02345,32.1875,3,30619,3113592
34,4,0.99928,0.00223842,0.0378568,0.000901075,-0.178636,-0.0804475,9.90924,0.629929,-0.622684,1.13171,-0.00180119,-0.00081705,0.0990921,1,6.31569e-05,-7.49598e-05,1.61116e-05,0.0126314,-0.014992,0.00322232,0.99928,0.00223842,0.0378568,0.000901075,0.0728173,0.481922,-1.02345,32.1875,3,30619,3113592
35,1,0.999289,0.00228992,0.0376249,0.000862573,-0.0179718,-0.0498125,9.77239,0.741158,-0.60924,0.983125,-0.000205636,-0.000506946,0.0977238,1,4.51272e-05,-0.000132611,8.23142e-07,0.00902545,-0.0265223,0.000164628,0.999289,0.00228992,0.0376249,0.000862573,0.0718389,0.482906,-1.02342,32.1875,3,30621,3113792
35,2,0.999293,0.00228318,0.0375091,0.000871482,0.178604,-0.100849,9.93311,0.992324,-0.625443,1.11746,0.00176602,-0.00101217,0.0993314,1,1.88942e-05,-0.000100961,1.96801e-05,0.00377885,-0.0201922,0.00393603,0.999293,0.00228318,0.0375091,0.000871482,0.0713948,0.482883,-1.0219,32.1875,3,30622,3113892
35,3,0.999293,0.00228318,0.0375091,0.000871482,0.178604,-0.100849,9.93311,0.992324,-0.625443,1.11746,0.00176602,-0.00101217,0.0993314,1,1.88942e-05,-0.000100961,1.96801e-05,0.00377885,-0.0201922,0.00393603,0.999293,0.00228318,0.0375091,0.000871482,0.0713948,0.482883,-1.0219,32.1875,3,30622,3113892
35,4,0.999293,0.00228318,0.0375091,0.000871482,0.178604,-0.100849,9.93311,0.992324,-0.625443,1.11746,0.00176602,-0.00101217,0.0993314,1,1.88942e-05,-0.000100961,1.96801e-05,0.00377885,-0.0201922,0.00393603,0.999293,0.00228318,0.0375091,0.000871482,0.0713948,0.482883,-1.0219,32.1875,3,30622,3113892
36,1,0.999302,0.00231732,0.0372735,0.000874388,0.18641,0.0141156,9.91741,0.98128,-0.48763,1.06387,0.00184694,0.000132602,0.0991745,1,4.33438e-05,-8.65331e-05,1.16662e-05,0.00866876,-0.0173066,0.00233323,0.999302,0.00231732,0.0372735,0.000874388,0.0704696,0.482863,-1.02039,32.1875,3,30624,3114092
36,2,0.999305,0.00233396,0.037201,0.000867684,0.143919,0.00566859,9.88405,1.01895,-0.524769,1.02304,0.0014299,4.81926e-05,0.0988406,1,4.29806e-05,-4.70038e-05,1.10114e-06,0.00859611,-0.00940075,0.000220228,0.999305,0.00233396,0.037201,0.000867684,0.0709958,0.482345,-1.01888,32.1875,3,30625,3114192
36,3,0.999305,0.00233396,0.037201,0.000867684,0.143919,0.00566859,9.88405,1.01895,-0.524769,1.02304,0.0014299,4.81926e-05,0.0988406,1,4.29806e-05,-4.70038e-05,1.10114e-06,0.00859611,-0.00940075,0.000220228,0.999305,0.00233396,0.037201,0.000867684,0.0709958,0.482345,-1.01888,32.1875,3,30625,3114192
36,4,0.999305,0.00233396,0.037201,0.000867684,0.143919,0.00566859,9.88405,1.01895,-0.524769,1.02304,0.0014299,4.81926e-05,0.0988406,1,4.29806e-05,-4.70038e-05,1.10114e-06,0.00859611,-0.00940075,0.000220228,0.999305,0.00233396,0.037201,0.000867684,0.0709958,0.482345,-1.01888,32.1875,3,30625,3114192
37,1,0.999313,0.00237273,0.0369689,0.000835262,0.436275,-0.0544155,9.82557,1.18539,-0.607001,0.966023,0.0043438,-0.0005549,0.0982565,1,5.39237e-05,-9.63306e-05,-1.70976e-05,0.0107847,-0.0192661,-0.00341951,0.999313,0.00237273,0.0369689,0.000835262,0.070564,0.482313,-1.01686,32.1875,3,30627,3114392
37,2,0.999316,0.00241907,0.0368863,0.000782979,0.523305,0.071249,9.94412,1.34795,-0.47716,1.06804,0.00522364,0.000697242,0.0994418,1,7.44169e-05,-4.75773e-05,-4.28087e-05,0.0148834,-0.00951546,-0.00856174,0.999316,0.00241907,0.0368863,0.000782979,0.0710366,0.481351,-1.0179,32.1875,3,30628,3114492
37,3,0.99932,0.00242629,0.0367775,0.000767345,-0.426783,-0.138036,9.74361,0.0493352,-0.675679,1.01463,-0.00428125,-0.00138679,0.0974354,1,3.33617e-05,-6.87508e-05,-7.98648e-06,0.00667234,-0.0137502,-0.0015973,0.99932,0.00242629,0.0367775,0.000767345,0.0705878,0.479404,-1.01794,32.1875,3,30629,3114592
37,4,0.99932,0.00242629,0.0367775,0.000767345,-0.426783,-0.138036,9.74361,0.0493352,-0.675679,1.01463,-0.00428125,-0.00138679,0.0974354,1,3.33617e-05,-6.87508e-05,-7.98648e-06,0.00667234,-0.0137502,-0.0015973,0.99932,0.00242629,0.0367775,0.000767345,0.0705878,0.479404,-1.01794,32.1875,3,30629,3114592
38,1,0.999323,0.00236105,0.0367078,0.000893109,0.0152541,-0.314179,9.82112,0.840079,-0.933912,1.03409,0.000163618,-0.00314181,0.0982112,1,2.04605e-07,5.37715e-05,8.204e-05,4.09209e-05,0.0107543,0.016408,0.999323,0.00236105,0.0367078,0.000893109,0.0701313,0.47939,-1.01693,32.1875,3,30631,3114792
38,2,0.999322,0.00241418,0.0367345,0.000952682,-0.757809,0.0263029,9.71858,0.320764,-0.614638,1.00072,-0.0075635,0.000246474,0.097187,1,7.9688e-05,7.52385e-05,7.04467e-05,0.0159376,0.0150477,0.0140893,0.999322,0.00241418,0.0367345,0.000952682,0.0715338,0.480372,-1.01792,32.1875,3,30632,3114892
38,3,0.999322,0.00241418,0.0367345,0.000952682,-0.757809,0.0263029,9.71858,0.320764,-0.614638,1.00072,-0.0075635,0.000246474,0.097187,1,7.9688e-05,7.52385e-05,7.04467e-05,0.0159376,0.0150477,0.0140893,0.999322,0.00241418,0.0367345,0.000952682,0.0715338,0.480372,-1.01792,32.1875,3,30632,3114892
38,4,0.999322,0.00241418,0.0367345,0.000952682,-0.757809,0.0263029,9.71858,0.320764,-0.614638,1.00072,-0.0075635,0.000246474,0.097187,1,7.9688e-05,7.52385e-05,7.04467e-05,0.0159376,0.0150477,0.0140893,0.999322,0.00241418,0.0367345,0.000952682,0.0715338,0.480372,-1.01792,32.1875,3,30632,3114892
39,1,0.999334,0.00250798,0.0363906,0.000865513,0.037995,0.486584,9.94658,0.728838,-0.0104043,1.07253,0.000361719,0.00485836,0.0994663,1,3.74743e-05,-9.35749e-05,-3.94775e-05,0.00749487,-0.018715,-0.0078955,0.999334,0.00250798,0.0363906,0.000865513,0.0685418,0.485291,-1.01881,32.1875,3,30634,3115092
39,2,0.999336,0.00243957,0.0363424,0.000845419,0.28237,-0.366282,9.95659,1.16931,-0.76633,1.07419,0.00282411,-0.00365393,0.0995662,1,-4.50333e-05,2.56244e-06,-1.39297e-05,-0.00900666,0.000512488,-0.00278593,0.999336,0.00243957,0.0363424,0.000845419,0.0694997,0.484805,-1.01933,32.1875,3,30635,3115192
39,3,0.999336,0.00243957,0.0363424,0.000845419,0.28237,-0.366282,9.95659,1.16931,-0.76633,1.07419,0.00282411,-0.00365393,0.0995662,1,-4.50333e-05,2.56244e-06,-1.39297e-05,-0.00900666,0.000512488,-0.00278593,0.999336,0.00243957,0.0363424,0.000845419,0.0694997,0.484805,-1.01933,32.1875,3,30635,3115192
39,4,0.999336,0.00243957,0.0363424,0.000845419,0.28237,-0.366282,9.95659,1.16931,-0.76633,1.07419,0.00282411,-0.00365393,0.0995662,1,-4.50333e-05,2.56244e-06,-1.39297e-05,-0.00900666,0.000512488,-0.00278593,0.999336,0.00243957,0.0363424,0.000845419,0.0694997,0.484805,-1.01933,32.1875,3,30635,3115192
40,1,0.999337,0.00245974,0.0363198,0.000867919,-0.729297,-0.368782,9.73001,0.151288,-0.85328,1.01163,-0.00727669,-0.00370564,0.0973007,1,9.05291e-05,8.31533e-05,1.40477e-05,0.0181058,0.0166307,0.00280954,0.999337,0.00245974,0.0363198,0.000867919,0.0719049,0.483339,-1.02038,32.1875,3,30637,3115392
40,2,0.999339,0.0025568,0.036265,0.00084927,-0.46018,0.410982,9.64863,0.321593,-0.10191,0.802862,-0.0046015,0.00408543,0.0964873,1,0.00012665,1.31555e-06,-6.05033e-06,0.0253301,0.00026311,-0.00121007,0.999339,0.0025568,0.036265,0.00084927,0.0724017,0.480914,-1.02145,32.1875,3,30638,3115492
40,3,0.999341,0.00257606,0.03619,0.000839552,-0.0496824,0.515406,9.91854,0.747233,0.0321713,1.09596,-0.000500552,0.00514485,0.0991859,1,4.6432e-05,-1.88351e-05,-7.74832e-07,0.00928639,-0.00376703,-0.000154966,0.999341,0.00257606,0.03619,0.000839552,0.0738816,0.47943,-1.02098,32.1875,3,30639,3115592
40,4,0.999341,0.00257606,0.03619,0.000839552,-0.0496824,0.515406,9.91854,0.747233,0.0321713,1.09596,-0.000500552,0.00514485,0.0991859,1,4.6432e-05,-1.88351e-05,-7.74832e-07,0.00928639,-0.00376703,-0.000154966,0.999341,0.00257606,0.03619,0.000839552,0.0738816,0.47943,-1.02098,32.1875,3,30639,3115592
41,1,0.999347,0.002509,0.0360477,0.000863205,-0.0597016,-0.355377,9.80464,0.708227,-0.97047,0.950259,-0.000599541,-0.00355333,0.0980464,1,-2.3767e-06,-1.36914e-05,2.24494e-05,-0.000475341,-0.00273827,0.00448987,0.999347,0.002509,0.0360477,0.000863205,0.0710077,0.48089,-1.01942,32.1875,3,30641,3115792
41,2,0.999348,0.002527,0.0360001,0.0008637,-0.043315,-0.100261,9.90951,0.759944,-0.715909,1.09534,-0.000430747,-0.00101125,0.0990951,1,4.35654e-05,1.20198e-05,1.01998e-05,0.00871307,0.00240397,0.00203996,0.999348,0.002527,0.0360001,0.0008637,0.0705355,0.483297,-1.01735,32.1875,3,30642,3115892
41,3,0.999348,0.002527,0.0360001,0.0008637,-0.043315,-0.100261,9.90951,0.759944,-0.715909,1.09534,-0.000430747,-0.00101125,0.0990951,1,4.35654e-05,1.20198e-05,1.01998e-05,0.00871307,0.00240397,0.00203996,0.999348,0.002527,0.0360001,0.0008637,0.0705355,0.483297,-1.01735,32.1875,3,30642,3115892
41,4,0.999348,0.002527,0.0360001,0.0008637,-0.043315,-0.100261,9.90951,0.759944,-0.715909,1.09534,-0.000430747,-0.00101125,0.0990951,1,4.35654e-05,1.20198e-05,1.01998e-05,0.00871307,0.00240397,0.00203996,0.999348,0.002527,0.0360001,0.0008637,0.0705355,0.483297,-1.01735,32.1875,3,30642,3115892
42,1,0.999352,0.00250749,0.0358998,0.000886764,-0.219682,-0.197577,9.84846,0.590594,-0.65516,1.02334,-0.00219589,-0.00197833,0.0984845,1,1.23566e-05,4.10137e-06,2.98902e-05,0.00247132,0.000820273,0.00597804,0.999352,0.00250749,0.0358998,0.000886764,0.0714442,0.482846,-1.01989,32.1875,3,30644,3116092
42,2,0.999354,0.00251595,0.0358443,0.000896765,-0.198159,-0.212985,9.85462,0.559748,-0.810888,1.03397,-0.00198006,-0.00213657,0.0985461,1,3.37008e-05,7.35026e-06,1.90592e-05,0.00674016,0.00147005,0.00381184,0.999354,0.00251595,0.0358443,0.000896765,0.0714314,0.48141,-1.02143,32.1875,3,30645,3116192
42,3,0.999354,0.00251595,0.0358443,0.000896765,-0.198159,-0.212985,9.85462,0.559748,-0.810888,1.03397,-0.00198006,-0.00213657,0.0985461,1,3.37008e-05,7.35026e-06,1.90592e-05,0.00674016,0.00147005,0.00381184,0.999354,0.00251595,0.0358443,0.000896765,0.0714314,0.48141,-1.02143,32.1875,3,30645,3116192
42,4,0.999354,0.00251595,0.0358443,0.000896765,-0.198159,-0.212985,9.85462,0.559748,-0.810888,1.03397,-0.00198006,-0.00213657,0.0985461,1,3.37008e-05,7.35026e-06,1.90592e-05,0.00674016,0.00147005,0.00381184,0.999354,0.00251595,0.0358443,0.000896765,0.0714314,0.48141,-1.02143,32.1875,3,30645,3116192
43,1,0.999358,0.00254905,0.0357378,0.000904166,-0.10524,0.00692528,9.82805,0.60329,-0.538692,1.03738,-0.00105021,6.08776e-05,0.0982806,1,4.24963e-05,1.11402e-05,1.05241e-05,0.00849925,0.00222804,0.00210482,0.999358,0.00254905,0.0357378,0.000904166,0.070062,0.481368,-1.0184,32.1875,3,30647,3116392
43,2,0.999359,0.002521,0.0356982,0.000937666,-0.511554,-0.247065,9.78485,0.325493,-0.733306,0.967946,-0.00511049,-0.00247043,0.0978487,1,-3.21643e-06,2.47689e-05,3.98499e-05,-0.000643286,0.00495378,0.00796998,0.999359,0.002521,0.0356982,0.000937666,0.0714527,0.483804,-1.01885,32.1875,3,30648,3116492
43,3,0.999362,0.00259307,0.0356052,0.000951989,-0.472863,-0.22129,9.66851,0.116589,-0.825155,0.865208,-0.00473411,-0.00223207,0.0966844,1,9.77878e-05,-2.89878e-05,2.74846e-05,0.0195576,-0.00579757,0.00549693,0.999362,0.00259307,0.0356052,0.000951989,0.0709639,0.485741,-1.0178,32.1875,3,30649,3116592
43,4,0.999362,0.00259307,0.0356052,0.000951989,-0.472863,-0.22129,9.66851,0.116589,-0.825155,0.865208,-0.00473411,-0.00223207,0.0966844,1,9.77878e-05,-2.89878e-05,2.74846e-05,0.0195576,-0.00579757,0.00549693,0.999362,0.00259307,0.0356052,0.000951989,0.0709639,0.485741,-1.0178,32.1875,3,30649,3116592
44,1,0.999368,0.00261893,0.0354464,0.000965394,-0.156128,-0.0773643,9.89555,0.539963,-0.628015,1.09976,-0.00156454,-0.000780687,0.0989554,1,3.53941e-05,-1.65922e-05,1.25248e-05,0.00707883,-0.00331844,0.00250496,0.999368,0.00261893,0.0354464,0.000965394,0.0723456,0.485774,-1.02033,32.1875,3,30651,3116792
44,2,0.99937,0.00261555,0.0353834,0.000954878,-0.691378,-0.173549,9.77689,0.0791462,-0.755168,0.999366,-0.00691342,-0.00173998,0.0977688,1,2.30352e-05,1.85509e-06,-1.45423e-06,0.00460704,0.000371018,-0.000290845,0.99937,0.00261555,0.0353834,0.000954878,0.071354,0.483876,-1.02289,32.1875,3,30652,3116892
44,3,0.99937,0.00261555,0.0353834,0.000954878,-0.691378,-0.173549,9.77689,0.0791462,-0.755168,0.999366,-0.00691342,-0.00173998,0.0977688,1,2.30352e-05,1.85509e-06,-1.45423e-06,0.00460704,0.000371018,-0.000290845,0.99937,0.00261555,0.0353834,0.000954878,0.071354,0.483876,-1.02289,32.1875,3,30652,3116892
44,4,0.99937,0.00261555,0.0353834,0.000954878,-0.691378,-0.173549,9.77689,0.0791462,-0.755168,0.999366,-0.00691342,-0.00173998,0.0977688,1,2.30352e-05,1.85509e-06,-1.45423e-06,0.00460704,0.000371018,-0.000290845,0.99937,0.00261555,0.0353834,0.000954878,0.071354,0.483876,-1.02289,32.1875,3,30652,3116892
45,1,0.999375,0.00267718,0.0352464,0.000977161,-0.405593,-0.0597831,9.83019,0.339186,-0.61907,1.03416,-0.00405232,-0.000606312,0.098302,1,4.23602e-05,1.82821e-05,1.88048e-05,0.00847205,0.00365641,0.00376096,0.999375,0.00267718,0.0352464,0.000977161,0.0719219,0.485254,-1.01832,32.1875,3,30654,3117092
45,2,0.999378,0.00269546,0.035153,0.000975359,-0.755853,-0.0676866,9.6819,-0.165965,-0.629087,0.914351,-0.00756423,-0.000685592,0.0968185,1,4.45639e-05,-2.94968e-05,6.41555e-06,0.00891279,-0.00589935,0.00128311,0.999378,0.00269546,0.035153,0.000975359,0.072403,0.48525,-1.01832,32.1875,3,30655,3117192
45,3,0.999378,0.00269546,0.035153,0.000975359,-0.755853,-0.0676866,9.6819,-0.165965,-0.629087,0.914351,-0.00756423,-0.000685592,0.0968185,1,4.45639e-05,-2.94968e-05,6.41555e-06,0.00891279,-0.00589935,0.00128311,0.999378,0.00269546,0.035153,0.000975359,0.072403,0.48525,-1.01832,32.1875,3,30655,3117192
45,4,0.999378,0.00269546,0.035153,0.000975359,-0.755853,-0.0676866,9.6819,-0.165965,-0.629087,0.914351,-0.00756423,-0.000685592,0.0968185,1,4.45639e-05,-2.94968e-05,6.41555e-06,0.00891279,-0.00589935,0.00128311,0.999378,0.00269546,0.035153,0.000975359,0.072403,0.48525,-1.01832,32.1875,3,30655,3117192
46,1,0.999381,0.00273952,0.0350612,0.000982752,-0.605088,0.0505077,9.83585,0.19185,-0.531887,1.09343,-0.00604291,0.000500372,0.098359,1,2.30051e-05,4.05859e-05,1.47934e-05,0.00460102,0.00811718,0.00295868,0.999381,0.00273952,0.0350612,0.000982752,0.0709678,0.484775,-1.01833,32.1875,3,30657,3117392
46,2,0.999384,0.00275689,0.0349684,0.000953473,-0.842726,-0.0243441,9.6167,-0.209954,-0.582713,0.846195,-0.00843312,-0.000251502,0.0961665,1,4.36729e-05,-3.04034e-05,-2.00534e-05,0.00873457,-0.00608069,-0.00401068,0.999384,0.00275689,0.0349684,0.000953473,0.0710285,0.481839,-1.01789,32.1875,3,30658,3117492
46,3,0.999386,0.0027562,0.0349095,0.000947331,-0.0971768,-0.0429863,9.96464,0.712697,-0.583006,1.15139,-0.000971366,-0.000434765,0.0996464,1,2.45663e-05,2.00206e-06,2.98631e-06,0.00491326,0.000400412,0.000597261,0.999386,0.0027562,0.0349095,0.000947331,0.0719746,0.482806,-1.01787,32.1875,3,30659,3117592
46,4,0.999386,0.0027562,0.0349095,0.000947331,-0.0971768,-0.0429863,9.96464,0.712697,-0.583006,1.15139,-0.000971366,-0.000434765,0.0996464,1,2.45663e-05,2.00206e-06,2.98631e-06,0.00491326,0.000400412,0.000597261,0.999386,0.0027562,0.0349095,0.000947331,0.0719746,0.482806,-1.01787,32.1875,3,30659,3117592
47,1,0.99939,0.0027535,0.0348042,0.000923324,-0.627233,-0.100994,9.61455,0.121306,-0.67362,0.806983,-0.00627506,-0.00101629,0.0961452,1,3.36207e-05,-1.4102e-05,-9.08248e-06,0.00672414,-0.0028204,-0.0018165,0.99939,0.0027535,0.0348042,0.000923324,0.0704582,0.485763,-1.01881,32.1875,3,30661,3117792
47,2,0.999393,0.00274533,0.0347293,0.000942402,-0.411163,-0.156529,9.80939,0.312368,-0.723984,0.978037,-0.00411455,-0.00156873,0.0980938,1,1.63615e-05,-1.53567e-05,2.76697e-05,0.0032723,-0.00307135,0.00553394,0.999393,0.00274533,0.0347293,0.000942402,0.0709355,0.486726,-1.01828,32.1875,3,30662,3117892
47,3,0.999393,0.00274533,0.0347293,0.000942402,-0.411163,-0.156529,9.80939,0.312368,-0.723984,0.978037,-0.00411455,-0.00156873,0.0980938,1,1.63615e-05,-1.53567e-05,2.76697e-05,0.0032723,-0.00307135,0.00553394,0.999393,0.00274533,0.0347293,0.000942402,0.0709355,0.486726,-1.01828,32.1875,3,30662,3117892
47,4,0.999393,0.00274533,0.0347293,0.000942402,-0.411163,-0.156529,9.80939,0.312368,-0.723984,0.978037,-0.00411455,-0.00156873,0.0980938,1,1.63615e-05,-1.53567e-05,2.76697e-05,0.0032723,-0.00307135,0.00553394,0.999393,0.00274533,0.0347293,0.000942402,0.0709355,0.486726,-1.01828,32.1875,3,30662,3117892
48,1,0.999399,0.00275965,0.0345492,0.000946579,-0.19834,-0.147983,9.77751,0.452991,-0.71974,0.962336,-0.0019906,-0.00148896,0.0977748,1,4.64171e-05,-3.70147e-05,1.27155e-05,0.00928342,-0.00740294,0.00254311,0.999399,0.00275965,0.0345492,0.000946579,0.0709958,0.482345,-1.01888,32.1875,3,30664,3118092
48,2,0.999401,0.00277972,0.0344914,0.000949705,-0.530225,-0.0410309,9.77826,0.290089,-0.550561,1.03562,-0.00530204,-0.000419378,0.0977826,1,4.57465e-05,1.02995e-06,1.15038e-05,0.0091493,0.000205991,0.00230076,0.999401,0.00277972,0.0344914,0.000949705,0.0710005,0.484269,-1.01733,32.1875,3,30665,3118192
48,3,0.999401,0.00277972,0.0344914,0.000949705,-0.530225,-0.0410309,9.77826,0.290089,-0.550561,1.03562,-0.00530204,-0.000419378,0.0977826,1,4.57465e-05,1.02995e-06,1.15038e-05,0.0091493,0.000205991,0.00230076,0.999401,0.00277972,0.0344914,0.000949705,0.0710005,0.484269,-1.01733,32.1875,3,30665,3118192
48,4,0.999401,0.00277972,0.0344914,0.000949705,-0.530225,-0.0410309,9.77826,0.290089,-0.550561,1.03562,-0.00530204,-0.000419378,0.0977826,1,4.57465e-05,1.02995e-06,1.15038e-05,0.0091493,0.000205991,0.00230076,0.999401,0.00277972,0.0344914,0.000949705,0.0710005,0.484269,-1.01733,32.1875,3,30665,3118192
49,1,0.999407,0.0028385,0.034308,0.000924466,-0.587694,-0.0361052,9.88524,0.25348,-0.571912,1.07693,-0.0058818,-0.000371994,0.0988521,1,5.50728e-05,-2.4557e-05,4.53178e-06,0.0110146,-0.0049114,0.000906356,0.999407,0.0028385,0.034308,0.000924466,0.0704667,0.486721,-1.01777,32.1875,3,30667,3118392
49,2,0.999409,0.00283229,0.0342357,0.000919024,-0.692847,0.0278046,9.78474,-0.0415907,-0.526925,0.972893,-0.00693148,0.00027415,0.0978472,1,1.96846e-05,-1.53872e-05,3.0893e-06,0.00393692,-0.00307744,0.000617861,0.999409,0.00283229,0.0342357,0.000919024,0.0708857,0.485316,-1.02134,32.1875,3,30668,3118492
49,3,0.999411,0.00283871,0.0341814,0.000917642,-0.266725,-0.026666,9.90961,0.419631,-0.59787,1.0857,-0.00266695,-0.000273011,0.0990961,1,3.18455e-05,1.50864e-06,7.28398e-06,0.00636909,0.000301728,0.0014568,0.999411,0.00283871,0.0341814,0.000917642,0.0728429,0.484795,-1.02035,32.1875,3,30669,3118592
49,4,0.999411,0.00283871,0.0341814,0.000917642,-0.266725,-0.026666,9.90961,0.419631,-0.59787,1.0857,-0.00266695,-0.000273011,0.0990961,1,3.18455e-05,1.50864e-06,7.28398e-06,0.00636909,0.000301728,0.0014568,0.999411,0.00283871,0.0341814,0.000917642,0.0728429,0.484795,-1.02035,32.1875,3,30669,3118592
50,1,0.999414,0.00286372,0.0340853,0.00091106,-0.932836,-0.0836366,9.65611,-0.199919,-0.620565,0.934671,-0.00933122,-0.000843587,0.0965607,1,3.83071e-05,-1.4726e-05,-9.49418e-06,0.00766143,-0.00294519,-0.00189884,0.999414,0.00286372,0.0340853,0.00091106,0.0699614,0.488188,-1.01774,32.1875,3,30671,3118792
50,2,0.999417,0.00287897,0.0340102,0.000907468,-0.708701,-0.221088,9.85905,0.0506574,-0.782786,1.05055,-0.00709144,-0.00221896,0.09859,1,4.05481e-05,-2.26015e-05,6.18202e-06,0.00810961,-0.0045203,0.0012364,0.999417,0.00287897,0.0340102,0.000907468,0.0700268,0.487176,-1.01574,32.1875,3,30672,3118892
50,3,0.999417,0.00287897,0.0340102,0.000907468,-0.708701,-0.221088,9.85905,0.0506574,-0.782786,1.05055,-0.00709144,-0.00221896,0.09859,1,4.05481e-05,-2.26015e-05,6.18202e-06,0.00810961,-0.0045203,0.0012364,0.999417,0.00287897,0.0340102,0.000907468,0.0700268,0.487176,-1.01574,32.1875,3,30672,3118892
50,4,0.999417,0.00287897,0.0340102,0.000907468,-0.708701,-0.221088,9.85905,0.0506574,-0.782786,1.05055,-0.00709144,-0.00221896,0.09859,1,4.05481e-05,-2.26015e-05,6.18202e-06,0.00810961,-0.0045203,0.0012364,0.999417,0.00287897,0.0340102,0.000907468,0.0700268,0.487176,-1.01574,32.1875,3,30672,3118892
51,1,0.999423,0.00288071,0.0338387,0.000944705,-0.171183,-0.11496,9.82476,0.504325,-0.698061,1.03734,-0.00172006,-0.0011574,0.0982474,1,3.91442e-05,-4.2247e-05,3.0978e-05,0.00782885,-0.00844941,0.0061956,0.999423,0.00288071,0.0338387,0.000944705,0.0714702,0.487164,-1.01575,32.1875,3,30674,3119092
51,2,0.999425,0.00285965,0.0337797,0.00098406,-0.66067,-0.104872,9.80475,0.231515,-0.516876,1.08452,-0.00660813,-0.00105005,0.0980474,1,3.55205e-06,-7.79825e-06,4.77091e-05,0.00071041,-0.00155965,0.00954183,0.999425,0.00285965,0.0337797,0.00098406,0.0699775,0.487212,-1.01776,32.1875,3,30675,3119192
51,3,0.999425,0.00285965,0.0337797,0.00098406,-0.66067,-0.104872,9.80475,0.231515,-0.516876,1.08452,-0.00660813,-0.00105005,0.0980474,1,3.55205e-06,-7.79825e-06,4.77091e-05,0.00071041,-0.00155965,0.00954183,0.999425,0.00285965,0.0337797,0.00098406,0.0699775,0.487212,-1.01776,32.1875,3,30675,3119192
51,4,0.999425,0.00285965,0.0337797,0.00098406,-0.66067,-0.104872,9.80475,0.231515,-0.516876,1.08452,-0.00660813,-0.00105005,0.0980474,1,3.55205e-06,-7.79825e-06,4.77091e-05,0.00071041,-0.00155965,0.00954183,0.999425,0.00285965,0.0337797,0.00098406,0.0699775,0.487212,-1.01776,32.1875,3,30675,3119192
52,1,0.999431,0.00294519,0.0335775,0.00097954,-0.378746,0.0222911,9.81314,0.162959,-0.466981,0.975233,-0.00379873,0.000213484,0.098131,1,4.76138e-05,-5.7371e-05,1.07779e-05,0.00952276,-0.0114742,0.00215558,0.999431,0.00294519,0.0335775,0.00097954,0.0695457,0.48718,-1.01574,32.1875,3,30677,3119392
52,2,0.999436,0.00295807,0.0334502,0.000958038,-0.766147,0.118674,9.60669,-0.220155,-0.486825,0.869019,-0.00767634,0.00117944,0.0960658,1,3.90155e-05,-7.75589e-05,-1.32294e-05,0.0078031,-0.0155118,-0.00264588,0.999436,0.00295807,0.0334502,0.000958038,0.0715319,0.487119,-1.01323,32.1875,3,30678,3119492
52,3,0.999442,0.00294122,0.0332706,0.000957958,0.0140469,-0.0441924,9.95509,0.874244,-0.64906,1.13044,0.000114365,-0.000443468,0.099551,1,7.76711e-06,-0.000131145,7.77534e-06,0.00155342,-0.026229,0.00155507,0.999442,0.00294122,0.0332706,0.000957958,0.0710099,0.488117,-1.01421,32.1875,3,30679,3119592
52,4,0.999442,0.00294122,0.0332706,0.000957958,0.0140469,-0.0441924,9.95509,0.874244,-0.64906,1.13044,0.000114365,-0.000443468,0.099551,1,7.76711e-06,-0.000131145,7.77534e-06,0.00155342,-0.026229,0.00155507,0.999442,0.00294122,0.0332706,0.000957958,0.0710099,0.488117,-1.01421,32.1875,3,30679,3119592
53,1,0.999451,0.00299105,0.0329744,0.000909152,0.0408887,-0.0998708,9.67931,0.749441,-0.665732,0.85268,0.000389144,-0.00101113,0.0967931,1,6.41271e-05,-0.000101929,-5.47323e-06,0.0128254,-0.0203859,-0.00109465,0.999451,0.00299105,0.0329744,0.000909152,0.0685683,0.491054,-1.01363,32.1875,3,30681,3119792
53,2,0.999457,0.00298852,0.0327893,0.000873412,0.0197968,-0.00494131,9.93231,0.716462,-0.524912,1.08656,0.000171496,-5.41427e-05,0.0993231,1,2.37588e-05,-0.000133249,-2.70283e-05,0.00475176,-0.0266497,-0.00540567,0.999457,0.00298852,0.0327893,0.000873412,0.0686086,0.488616,-1.01368,32.1875,3,30682,3119892
53,3,0.999457,0.00298852,0.0327893,0.000873412,0.0197968,-0.00494131,9.93231,0.716462,-0.524912,1.08656,0.000171496,-5.41427e-05,0.0993231,1,2.37588e-05,-0.000133249,-2.70283e-05,0.00475176,-0.0266497,-0.00540567,0.999457,0.00298852,0.0327893,0.000873412,0.0686086,0.488616,-1.01368,32.1875,3,30682,3119892
53,4,0.999457,0.00298852,0.0327893,0.000873412,0.0197968,-0.00494131,9.93231,0.716462,-0.524912,1.08656,0.000171496,-5.41427e-05,0.0993231,1,2.37588e-05,-0.000133249,-2.70283e-05,0.00475176,-0.0266497,-0.00540567,0.999457,0.00298852,0.0327893,0.000873412,0.0686086,0.488616,-1.01368,32.1875,3,30682,3119892
54,1,0.999467,0.00299392,0.0324832,0.000793833,-0.0886085,-0.00815438,9.77287,0.684075,-0.508316,0.986494,-0.000906797,-8.8123e-05,0.0977285,1,3.39712e-05,-0.000105938,-3.38447e-05,0.00679424,-0.0211876,-0.00676895,0.999467,0.00299392,0.0324832,0.000793833,0.0695794,0.489565,-1.01266,32.1875,3,30684,3120092
54,2,0.999474,0.0030212,0.0322851,0.000751779,0.646862,0.00602869,9.7059,1.22798,-0.607027,0.809281,0.00644101,4.96242e-05,0.0970608,1,5.28134e-05,-0.000142264,-3.18025e-05,0.0105627,-0.0284528,-0.0063605,0.999474,0.0030212,0.0322851,0.000751779,0.069531,0.492492,-1.01259,32.1875,3,30685,3120192
54,3,0.999474,0.0030212,0.0322851,0.000751779,0.646862,0.00602869,9.7059,1.22798,-0.607027,0.809281,0.00644101,4.96242e-05,0.0970608,1,5.28134e-05,-0.000142264,-3.18025e-05,0.0105627,-0.0284528,-0.0063605,0.999474,0.0030212,0.0322851,0.000751779,0.069531,0.492492,-1.01259,32.1875,3,30685,3120192
54,4,0.999474,0.0030212,0.0322851,0.000751779,0.646862,0.00602869,9.7059,1.22798,-0.607027,0.809281,0.00644101,4.96242e-05,0.0970608,1,5.28134e-05,-0.000142264,-3.18025e-05,0.0105627,-0.0284528,-0.0063605,0.999474,0.0030212,0.0322851,0.000751779,0.069531,0.492492,-1.01259,32.1875,3,30685,3120192
55,1,0.999485,0.0030433,0.0319462,0.000644373,0.290883,-0.442497,9.68755,0.955422,-1.07208,0.880274,0.00288563,-0.00443698,0.0968756,1,6.07264e-05,-0.000117763,-4.32128e-05,0.0121453,-0.0235525,-0.00864257,0.999485,0.0030433,0.0319462,0.000644373,0.0676392,0.492002,-1.01158,32.1875,3,30687,3120392
55,2,0.999491,0.00308715,0.0317448,0.000575666,0.493918,-0.172884,9.78004,1.10293,-0.737088,0.959956,0.00491182,-0.00174329,0.0978015,1,7.10088e-05,-0.000138846,-5.6816e-05,0.0142018,-0.0277692,-0.0113632,0.999491,0.00308715,0.0317448,0.000575666,0.065756,0.49247,-1.00954,32.1875,3,30688,3120492
55,3,0.999497,0.00311452,0.0315718,0.000486793,0.736489,-0.0954568,9.94629,1.53338,-0.64673,1.01382,0.00734326,-0.000966778,0.0994644,1,5.55973e-05,-0.000108006,-7.81823e-05,0.0111195,-0.0216011,-0.0156365,0.999497,0.00311452,0.0315718,0.000486793,0.0673465,0.489459,-1.00558,32.1875,3,30689,3120592
55,4,0.999497,0.00311452,0.0315718,0.000486793,0.736489,-0.0954568,9.94629,1.53338,-0.64673,1.01382,0.00734326,-0.000966778,0.0994644,1,5.55973e-05,-0.000108006,-7.81823e-05,0.0111195,-0.0216011,-0.0156365,0.999497,0.00311452,0.0315718,0.000486793,0.0673465,0.489459,-1.00558,32.1875,3,30689,3120592
56,1,0.999506,0.00315823,0.0312789,0.000299926,0.678912,0.253957,10.04,1.30646,-0.342459,1.13264,0.00678192,0.00252614,0.1004,1,6.09667e-05,-3.80783e-05,-8.80253e-05,0.0121933,-0.00761566,-0.0176051,0.999506,0.00315823,0.0312789,0.000299926,0.0663767,0.4914,-1.00452,32.1875,3,30691,3120792
56,2,0.999506,0.00316167,0.0312547,0.000194299,0.168221,-0.302783,10.059,0.936244,-0.889827,1.17859,0.00169167,-0.00303431,0.10059,1,3.06366e-05,4.98822e-05,-9.51089e-05,0.00612733,0.00997644,-0.0190218,0.999506,0.00316167,0.0312547,0.000194299,0.065263,0.493928,-1.009,32.1875,3,30692,3120892
56,3,0.999506,0.00316167,0.0312547,0.000194299,0.168221,-0.302783,10.059,0.936244,-0.889827,1.17859,0.00169167,-0.00303431,0.10059,1,3.06366e-05,4.98822e-05,-9.51089e-05,0.00612733,0.00997644,-0.0190218,0.999506,0.00316167,0.0312547,0.000194299,0.065263,0.493928,-1.009,32.1875,3,30692,3120892
56,4,0.999506,0.00316167,0.0312547,0.000194299,0.168221,-0.302783,10.059,0.936244,-0.889827,1.17859,0.00169167,-0.00303431,0.10059,1,3.06366e-05,4.98822e-05,-9.51089e-05,0.00612733,0.00997644,-0.0190218,0.999506,0.00316167,0.0312547,0.000194299,0.065263,0.493928,-1.009,32.1875,3,30692,3120892
57,1,0.999508,0.00325732,0.0311918,-4.7271e-05,-0.308289,-0.305747,9.6612,0.454175,-0.847493,0.844245,-0.00307108,-0.00307076,0.0966119,1,7.19977e-05,6.43078e-05,-9.98892e-05,0.0143995,0.0128616,-0.0199778,0.999508,0.00325732,0.0311918,-4.7271e-05,0.0652498,0.491046,-1.01159,32.1875,3,30694,3121092
57,2,0.99951,0.00331285,0.0311121,-0.00017461,-0.239104,0.0137486,9.52742,0.367045,-0.552711,0.661387,-0.00239182,0.000121779,0.0952742,1,8.53535e-05,-4.24918e-06,-0.000116582,0.0170707,-0.000849835,-0.0233164,0.99951,0.00331285,0.0311121,-0.00017461,0.065756,0.49247,-1.00954,32.1875,3,30695,3121192
57,3,0.99951,0.00331285,0.0311121,-0.00017461,-0.239104,0.0137486,9.52742,0.367045,-0.552711,0.661387,-0.00239182,0.000121779,0.0952742,1,8.53535e-05,-4.24918e-06,-0.000116582,0.0170707,-0.000849835,-0.0233164,0.99951,0.00331285,0.0311121,-0.00017461,0.065756,0.49247,-1.00954,32.1875,3,30695,3121192
57,4,0.99951,0.00331285,0.0311121,-0.00017461,-0.239104,0.0137486,9.52742,0.367045,-0.552711,0.661387,-0.00239182,0.000121779,0.0952742,1,8.53535e-05,-4.24918e-06,-0.000116582,0.0170707,-0.000849835,-0.0233164,0.99951,0.00331285,0.0311121,-0.00017461,0.065756,0.49247,-1.00954,32.1875,3,30695,3121192
58,1,0.999515,0.00339175,0.0309579,-0.000519967,0.146613,0.232928,9.88903,0.830483,-0.351218,1.10768,0.00147385,0.00231214,0.0988905,1,8.40185e-05,3.4819e-05,-0.000178983,0.0168037,0.00696379,-0.0357965,0.999515,0.00339175,0.0309579,-0.000519967,0.0653167,0.494371,-1.00647,32.1875,3,30697,3121392
58,2,0.999516,0.0034082,0.0309054,-0.000711367,0.186552,-0.148041,9.61409,0.774682,-0.710001,0.826177,0.0018698,-0.00148991,0.0961406,1,4.58716e-05,2.50508e-05,-0.000181584,0.00917433,0.00501015,-0.0363168,0.999516,0.0034082,0.0309054,-0.000711367,0.0647947,0.495368,-1.00746,32.1875,3,30698,3121492
58,3,0.99952,0.00340004,0.0307916,-0.000916432,0.185482,-0.0181367,9.77568,0.839469,-0.522006,0.909819,0.00184782,-0.000186388,0.0977569,1,2.19778e-05,-3.54409e-05,-0.000195476,0.00439557,-0.00708819,-0.0390952,0.99952,0.00340004,0.0307916,-0.000916432,0.0648194,0.49535,-1.00645,32.1875,3,30699,3121592
58,4,0.99952,0.00340004,0.0307916,-0.000916432,0.185482,-0.0181367,9.77568,0.839469,-0.522006,0.909819,0.00184782,-0.000186388,0.0977569,1,2.19778e-05,-3.54409e-05,-0.000195476,0.00439557,-0.00708819,-0.0390952,0.99952,0.00340004,0.0307916,-0.000916432,0.0648194,0.49535,-1.00645,32.1875,3,30699,3121592
59,1,0.999521,0.00333645,0.0307302,-0.00137448,-0.123253,-0.188963,9.76033,0.529247,-0.65406,0.916864,-0.00122048,-0.0018863,0.0976035,1,-1.40114e-05,6.64103e-05,-0.000240669,-0.00280228,0.0132821,-0.0481339,0.999521,0.00333645,0.0307302,-0.00137448,0.0619702,0.496792,-1.00388,32.1875,3,30701,3121792
59,2,0.999523,0.0033716,0.0306625,-0.00160435,0.188645,-0.31692,9.80569,0.751912,-0.893376,0.950056,0.00188788,-0.00318292,0.0980564,1,6.57538e-05,1.43787e-05,-0.000218781,0.0131508,0.00287574,-0.0437562,0.999523,0.0033716,0.0306625,-0.00160435,0.061917,0.497795,-1.00537,32.1875,3,30702,3121892
59,3,0.999523,0.0033716,0.0306625,-0.00160435,0.188645,-0.31692,9.80569,0.751912,-0.893376,0.950056,0.00188788,-0.00318292,0.0980564,1,6.57538e-05,1.43787e-05,-0.000218781,0.0131508,0.00287574,-0.0437562,0.999523,0.0033716,0.0306625,-0.00160435,0.061917,0.497795,-1.00537,32.1875,3,30702,3121892
59,4,0.999524,0.00338762,0.0306112,-0.00184139,0.0923162,-0.135964,9.80788,0.808458,-0.718305,0.940649,0.000928742,-0.00136938,0.0980786,1,4.74918e-05,3.15859e-05,-0.000225743,0.00949835,0.00631718,-0.0451487,0.999524,0.00338762,0.0306112,-0.00184139,0.0628261,0.49879,-1.00687,32.1875,3,30703,3121992
60,1,0.999526,0.00339888,0.0305175,-0.00209298,0.504357,0.114532,9.68647,1.19793,-0.469796,0.810402,0.00504213,0.00113449,0.0968649,1,4.33826e-05,-1.02193e-05,-0.000239811,0.00867651,-0.00204387,-0.0479622,0.999526,0.00339888,0.0305175,-0.00209298,0.0642813,0.497323,-1.00741,32.1875,3,30704,3122092
60,2,0.999527,0.00341922,0.0304785,-0.00237593,0.220601,0.24019,9.78003,0.81752,-0.440621,0.977351,0.00221631,0.0023904,0.0978003,1,5.26459e-05,4.59963e-05,-0.000272339,0.0105292,0.00919925,-0.0544679,0.999527,0.00341922,0.0304785,-0.00237593,0.062875,0.497308,-1.00589,32.1875,3,30705,3122192
60,3,0.999527,0.00341922,0.0304785,-0.00237593,0.220601,0.24019,9.78003,0.81752,-0.440621,0.977351,0.00221631,0.0023904,0.0978003,1,5.26459e-05,4.59963e-05,-0.000272339,0.0105292,0.00919925,-0.0544679,0.999527,0.00341922,0.0304785,-0.00237593,0.062875,0.497308,-1.00589,32.1875,3,30705,3122192
60,4,0.999527,0.00341922,0.0304785,-0.00237593,0.220601,0.24019,9.78003,0.81752,-0.440621,0.977351,0.00221631,0.0023904,0.0978003,1,5.26459e-05,4.59963e-05,-0.000272339,0.0105292,0.00919925,-0.0544679,0.999527,0.00341922,0.0304785,-0.00237593,0.062875,0.497308,-1.00589,32.1875,3,30705,3122192
61,1,0.999529,0.00333015,0.0303503,-0.00297314,0.131965,-0.41055,9.96675,0.752074,-0.989426,1.16284,0.00132506,-0.00411109,0.0996672,1,2.41165e-05,3.93e-05,-0.000294954,0.0048233,0.00785999,-0.0589908,0.999529,0.00333015,0.0303503,-0.00297314,0.0600789,0.497748,-1.00182,32.1875,3,30707,3122392
61,2,0.999529,0.0033342,0.0303312,-0.00328174,-0.18137,-0.304579,9.47409,0.550697,-0.866932,0.565407,-0.00180265,-0.00305161,0.0947409,1,3.64503e-05,6.79394e-05,-0.000298584,0.00729006,0.0135879,-0.0597168,0.999529,0.0033342,0.0303312,-0.00328174,0.0590758,0.498749,-1.00281,32.1875,3,30708,3122492
61,3,0.99953,0.00331376,0.0302769,-0.00356433,0.0869863,-0.186255,10.4124,0.86528,-0.76132,1.55555,0.000875561,-0.00186555,0.104124,1,1.21259e-05,3.2242e-05,-0.000272675,0.00242519,0.0064484,-0.0545351,0.99953,0.00331376,0.0302769,-0.00356433,0.0599731,0.501198,-1.00377,32.1875,3,30709,3122592
61,4,0.99953,0.00331376,0.0302769,-0.00356433,0.0869863,-0.186255,10.4124,0.86528,-0.76132,1.55555,0.000875561,-0.00186555,0.104124,1,1.21259e-05,3.2242e-05,-0.000272675,0.00242519,0.0064484,-0.0545351,0.99953,0.00331376,0.0302769,-0.00356433,0.0599731,0.501198,-1.00377,32.1875,3,30709,3122592
62,1,0.999531,0.003313,0.030168,-0.0041935,-0.545696,0.0243281,9.31178,-0.100106,-0.507225,0.510733,-0.00545678,0.000240223,0.0931178,1,3.36205e-05,1.93964e-07,-0.000293535,0.0067241,3.87927e-05,-0.058707,0.999531,0.003313,0.030168,-0.0041935,0.0599654,0.503131,-1.00271,32.1875,3,30711,3122792
62,2,0.999534,0.00331282,0.0300187,-0.00452435,0.121604,-0.110009,10.0274,0.586036,-0.772099,1.19476,0.00120237,-0.00110767,0.100274,1,3.39123e-05,-6.46523e-05,-0.000320021,0.00678246,-0.0129305,-0.0640042,0.999534,0.00331282,0.0300187,-0.00452435,0.0585591,0.503116,-1.00119,32.1875,3,30712,3122892
62,3,0.999534,0.00331282,0.0300187,-0.00452435,0.121604,-0.110009,10.0274,0.586036,-0.772099,1.19476,0.00120237,-0.00110767,0.100274,1,3.39123e-05,-6.46523e-05,-0.000320021,0.00678246,-0.0129305,-0.0640042,0.999534,0.00331282,0.0300187,-0.00452435,0.0585591,0.503116,-1.00119,32.1875,3,30712,3122892
62,4,0.999534,0.00331282,0.0300187,-0.00452435,0.121604,-0.110009,10.0274,0.586036,-0.772099,1.19476,0.00120237,-0.00110767,0.100274,1,3.39123e-05,-6.46523e-05,-0.000320021,0.00678246,-0.0129305,-0.0640042,0.999534,0.00331282,0.0300187,-0.00452435,0.0585591,0.503116,-1.00119,32.1875,3,30712,3122892
63,1,0.999535,0.00331475,0.0298584,-0.0051798,-0.161676,-0.315202,9.6507,0.516714,-0.92541,0.858334,-0.00161426,-0.00316748,0.0965066,1,8.53986e-05,2.32734e-05,-0.000315732,0.0170797,0.00465467,-0.0631463,0.999535,0.00331475,0.0298584,-0.0051798,0.0566432,0.50409,-1.00015,32.1875,3,30714,3123092
63,2,0.999536,0.00334603,0.0297548,-0.00551821,0.23339,-0.371767,9.49516,0.813215,-1.00426,0.515415,0.002328,-0.00373181,0.0949512,1,6.64306e-05,-1.82229e-05,-0.000327042,0.0132861,-0.00364458,-0.0654084,0.999536,0.00334603,0.0297548,-0.00551821,0.0552164,0.504571,-0.999125,32.1875,3,30715,3123192
63,3,0.999536,0.00334603,0.0297548,-0.00551821,0.23339,-0.371767,9.49516,0.813215,-1.00426,0.515415,0.002328,-0.00373181,0.0949512,1,6.64306e-05,-1.82229e-05,-0.000327042,0.0132861,-0.00364458,-0.0654084,0.999536,0.00334603,0.0297548,-0.00551821,0.0552164,0.504571,-0.999125,32.1875,3,30715,3123192
63,4,0.999536,0.00334603,0.0297548,-0.00551821,0.23339,-0.371767,9.49516,0.813215,-1.00426,0.515415,0.002328,-0.00373181,0.0949512,1,6.64306e-05,-1.82229e-05,-0.000327042,0.0132861,-0.00364458,-0.0654084,0.999536,0.00334603,0.0297548,-0.00551821,0.0552164,0.504571,-0.999125,32.1875,3,30715,3123192
64,1,0.999537,0.00338987,0.0295988,-0.00621178,-0.259332,-0.19161,9.57569,0.520453,-0.86178,0.783789,-0.00259095,-0.00192793,0.0957568,1,7.11138e-05,1.93015e-05,-0.000346213,0.0142228,0.0038603,-0.0692426,0.999537,0.00338987,0.0295988,-0.00621178,0.0551633,0.505574,-1.00062,32.1875,3,30717,3123392
64,2,0.999537,0.00344497,0.0294954,-0.00657889,0.0368388,-0.0962373,9.73839,0.810478,-0.839975,0.958306,0.000364383,-0.000980445,0.0973838,1,9.1453e-05,-1.70227e-05,-0.000354762,0.0182906,-0.00340454,-0.0709524,0.999537,0.00344497,0.0294954,-0.00657889,0.0537977,0.504565,-0.998109,32.1875,3,30718,3123492
64,3,0.999539,0.00343647,0.0293666,-0.00694087,-0.0835907,-0.025756,9.72654,0.609303,-0.606363,0.897373,-0.000844394,-0.00026239,0.0972653,1,2.78633e-05,-4.26917e-05,-0.000350979,0.00557267,-0.00853833,-0.0701957,0.999539,0.00343647,0.0293666,-0.00694087,0.054797,0.50453,-0.996599,32.1875,3,30719,3123592
64,4,0.999539,0.00343647,0.0293666,-0.00694087,-0.0835907,-0.025756,9.72654,0.609303,-0.606363,0.897373,-0.000844394,-0.00026239,0.0972653,1,2.78633e-05,-4.26917e-05,-0.000350979,0.00557267,-0.00853833,-0.0701957,0.999539,0.00343647,0.0293666,-0.00694087,0.054797,0.50453,-0.996599,32.1875,3,30719,3123592
65,1,0.999541,0.00346424,0.0291187,-0.0076715,0.0982138,-0.575354,10.1189,0.594518,-1.04294,1.24382,0.000976165,-0.00576737,0.101189,1,6.4821e-05,-8.77526e-06,-0.000364255,0.0129642,-0.00175505,-0.072851,0.999541,0.00346424,0.0291187,-0.0076715,0.0528079,0.508449,-0.996503,32.1875,3,30721,3123792
65,2,0.99954,0.00355794,0.0290234,-0.00804968,-0.559402,0.119785,8.96565,0.0254167,-0.398658,0.146719,-0.0055946,0.00117842,0.0896567,1,0.000131087,-8.0667e-06,-0.00036376,0.0262175,-0.00161334,-0.072752,0.99954,0.00355794,0.0290234,-0.00804968,0.0517802,0.509468,-0.998496,32.1875,3,30722,3123892
65,3,0.99954,0.00355794,0.0290234,-0.00804968,-0.559402,0.119785,8.96565,0.0254167,-0.398658,0.146719,-0.0055946,0.00117842,0.0896567,1,0.000131087,-8.0667e-06,-0.00036376,0.0262175,-0.00161334,-0.072752,0.99954,0.00355794,0.0290234,-0.00804968,0.0517802,0.509468,-0.998496,32.1875,3,30722,3123892
65,4,0.99954,0.00355794,0.0290234,-0.00804968,-0.559402,0.119785,8.96565,0.0254167,-0.398658,0.146719,-0.0055946,0.00117842,0.0896567,1,0.000131087,-8.0667e-06,-0.00036376,0.0262175,-0.00161334,-0.072752,0.99954,0.00355794,0.0290234,-0.00804968,0.0517802,0.509468,-0.998496,32.1875,3,30722,3123892
66,1,0.999545,0.00353343,0.0286293,-0.0087798,0.380347,-0.0171506,10.422,0.819619,-0.552504,1.50424,0.00378679,-0.000180844,0.104221,1,3.15696e-05,-7.94141e-05,-0.000363182,0.00631393,-0.0158828,-0.0726365,0.999545,0.00353343,0.0286293,-0.0087798,0.0498894,0.511869,-0.995403,32.1875,3,30724,3124092
66,2,0.999543,0.00358061,0.0285756,-0.00915556,-0.273399,0.0576762,9.55247,0.387915,-0.535872,0.836362,-0.00272722,0.000562816,0.0955249,1,8.33768e-05,3.32956e-05,-0.000362974,0.0166754,0.00665912,-0.0725948,0.999543,0.00358061,0.0285756,-0.00915556,0.0499221,0.511363,-0.994404,32.1875,3,30725,3124192
66,3,0.999543,0.00358061,0.0285756,-0.00915556,-0.273399,0.0576762,9.55247,0.387915,-0.535872,0.836362,-0.00272722,0.000562816,0.0955249,1,8.33768e-05,3.32956e-05,-0.000362974,0.0166754,0.00665912,-0.0725948,0.999543,0.00358061,0.0285756,-0.00915556,0.0499221,0.511363,-0.994404,32.1875,3,30725,3124192
66,4,0.999543,0.00358061,0.0285756,-0.00915556,-0.273399,0.0576762,9.55247,0.387915,-0.535872,0.836362,-0.00272722,0.000562816,0.0955249,1,8.33768e-05,3.32956e-05,-0.000362974,0.0166754,0.00665912,-0.0725948,0.999543,0.00358061,0.0285756,-0.00915556,0.0499221,0.511363,-0.994404,32.1875,3,30725,3124192
67,1,0.999546,0.00358715,0.0282388,-0.00993193,0.934053,-0.453987,11.0819,1.41989,-1.13621,2.14746,0.0093264,-0.00455568,0.110819,1,3.92909e-05,-4.81633e-05,-0.000380348,0.00785818,-0.00963266,-0.0760696,0.999546,0.00358715,0.0282388,-0.00993193,0.0450787,0.513354,-0.994338,32.1875,3,30727,3124392
67,2,0.999541,0.00367905,0.0282633,-0.0103093,-0.159946,-0.535991,9.94974,0.447916,-1.19977,1.34915,-0.00158079,-0.0053842,0.0994964,1,0.000127874,0.000113443,-0.00036348,0.0255748,0.0226886,-0.0726959,0.999541,0.00367905,0.0282633,-0.0103093,0.0445606,0.513385,-0.99585,32.1875,3,30728,3124492
67,3,0.999538,0.00382993,0.0281859,-0.010732,-0.623885,0.355724,9.10104,-0.45896,-0.396596,0.268325,-0.00623385,0.00352767,0.0910119,1,0.000190342,1.16283e-05,-0.000407022,0.0380684,0.00232567,-0.0814044,0.999538,0.00382993,0.0281859,-0.010732,0.044581,0.512888,-0.995356,32.1875,3,30729,3124592
67,4,0.999538,0.00382993,0.0281859,-0.010732,-0.623885,0.355724,9.10104,-0.45896,-0.396596,0.268325,-0.00623385,0.00352767,0.0910119,1,0.000190342,1.16283e-05,-0.000407022,0.0380684,0.00232567,-0.0814044,0.999538,0.00382993,0.0281859,-0.010732,0.044581,0.512888,-0.995356,32.1875,3,30729,3124592
68,1,0.999534,0.00382695,0.028016,-0.0115419,-0.0126805,-0.274825,10.0779,0.504552,-1.15323,1.39609,-0.000120333,-0.00276478,0.100778,1,8.24693e-05,4.26264e-05,-0.000384355,0.0164939,0.00852528,-0.076871,0.999534,0.00382695,0.028016,-0.0115419,0.0451238,0.512839,-0.992834,32.1875,3,30731,3124792
68,2,0.999531,0.00383675,0.0279228,-0.0119754,-0.397365,-0.245893,8.67543,-0.14697,-0.822905,-0.22201,-0.0039769,-0.00246391,0.086754,1,4.8053e-05,-6.71986e-06,-0.000422013,0.0096106,-0.00134397,-0.0844027,0.999531,0.00383675,0.0279228,-0.0119754,0.0446592,0.513313,-0.991812,32.1875,3,30732,3124892
68,3,0.999531,0.00383675,0.0279228,-0.0119754,-0.397365,-0.245893,8.67543,-0.14697,-0.822905,-0.22201,-0.0039769,-0.00246391,0.086754,1,4.8053e-05,-6.71986e-06,-0.000422013,0.0096106,-0.00134397,-0.0844027,0.999531,0.00383675,0.0279228,-0.0119754,0.0446592,0.513313,-0.991812,32.1875,3,30732,3124892
68,4,0.999531,0.00383675,0.0279228,-0.0119754,-0.397365,-0.245893,8.67543,-0.14697,-0.822905,-0.22201,-0.0039769,-0.00246391,0.086754,1,4.8053e-05,-6.71986e-06,-0.000422013,0.0096106,-0.00134397,-0.0844027,0.999531,0.00383675,0.0279228,-0.0119754,0.0446592,0.513313,-0.991812,32.1875,3,30732,3124892
69,1,0.999526,0.0038821,0.0277048,-0.0128228,0.450819,-0.132091,10.7368,1.16925,-0.770235,1.88751,0.00451137,-0.00132651,0.107368,1,8.75382e-06,1.99116e-05,-0.000412289,0.00175076,0.00398231,-0.0824578,0.999526,0.0038821,0.0277048,-0.0128228,0.0392326,0.517792,-0.994212,32.1875,3,30734,3125092
69,2,0.999521,0.00393172,0.0276977,-0.0132637,-0.936502,-0.0906226,9.12438,-0.3038,-0.65744,0.344761,-0.00935104,-0.000914104,0.0912452,1,8.69917e-05,8.08953e-05,-0.000427279,0.0173983,0.0161791,-0.0854557,0.999521,0.00393172,0.0276977,-0.0132637,0.0392288,0.518759,-0.993686,32.1875,3,30735,3125192
69,3,0.999521,0.00393172,0.0276977,-0.0132637,-0.936502,-0.0906226,9.12438,-0.3038,-0.65744,0.344761,-0.00935104,-0.000914104,0.0912452,1,8.69917e-05,8.08953e-05,-0.000427279,0.0173983,0.0161791,-0.0854557,0.999521,0.00393172,0.0276977,-0.0132637,0.0392288,0.518759,-0.993686,32.1875,3,30735,3125192
69,4,0.999521,0.00393172,0.0276977,-0.0132637,-0.936502,-0.0906226,9.12438,-0.3038,-0.65744,0.344761,-0.00935104,-0.000914104,0.0912452,1,8.69917e-05,8.08953e-05,-0.000427279,0.0173983,0.0161791,-0.0854557,0.999521,0.00393172,0.0276977,-0.0132637,0.0392288,0.518759,-0.993686,32.1875,3,30735,3125192
70,1,0.999513,0.00411345,0.027505,-0.0141537,-0.35934,0.370349,9.90861,0.267744,-0.388142,1.13421,-0.00358829,0.00368197,0.0990871,1,0.000124232,9.68149e-06,-0.000431381,0.0248463,0.0019363,-0.0862762,0.999513,0.00411345,0.027505,-0.0141537,0.0392658,0.518732,-0.992171,32.1875,3,30737,3125392
70,2,0.99951,0.00406133,0.0273735,-0.0145973,-0.726011,-0.0235693,9.40387,-0.0472816,-0.53194,0.639764,-0.0072695,-0.000226997,0.094038,1,-1.29354e-05,-4.88559e-05,-0.000431057,-0.00258709,-0.00977119,-0.0862114,0.99951,0.00406133,0.0273735,-0.0145973,0.0373452,0.517781,-0.992689,32.1875,3,30738,3125492
70,3,0.999508,0.00412709,0.027209,-0.0150462,0.541087,-0.612945,10.4081,1.15248,-1.28466,1.55282,0.00538845,-0.00615606,0.104081,1,0.000105252,-8.20298e-05,-0.000435438,0.0210503,-0.016406,-0.0870876,0.999508,0.00412709,0.027209,-0.0150462,0.0364081,0.519216,-0.990632,32.1875,3,30739,3125592
70,4,0.999508,0.00412709,0.027209,-0.0150462,0.541087,-0.612945,10.4081,1.15248,-1.28466,1.55282,0.00538845,-0.00615606,0.104081,1,0.000105252,-8.20298e-05,-0.000435438,0.0210503,-0.016406,-0.0870876,0.999508,0.00412709,0.027209,-0.0150462,0.0364081,0.519216,-0.990632,32.1875,3,30739,3125592
71,1,0.999504,0.0041332,0.0268219,-0.0159897,-0.512956,-0.152251,8.94862,-0.297142,-0.49528,-0.0964639,-0.00516472,-0.00151672,0.0894843,1,-5.74766e-06,-0.000188602,-0.000462952,-0.00114953,-0.0377203,-0.0925904,0.999504,0.0041332,0.0268219,-0.0159897,0.0334725,0.520722,-0.991595,32.1875,3,30741,3125792
71,2,0.999502,0.00421635,0.0265939,-0.0164395,0.856722,-0.588547,11.1589,1.23948,-1.36779,2.10135,0.00852936,-0.00592066,0.11159,1,0.000124284,-0.000146604,-0.000435507,0.0248568,-0.0293208,-0.0871013,0.999502,0.00421635,0.0265939,-0.0164395,0.0334891,0.521191,-0.990575,32.1875,3,30742,3125892
71,3,0.999502,0.00421635,0.0265939,-0.0164395,0.856722,-0.588547,11.1589,1.23948,-1.36779,2.10135,0.00852936,-0.00592066,0.11159,1,0.000124284,-0.000146604,-0.000435507,0.0248568,-0.0293208,-0.0871013,0.999502,0.00421635,0.0265939,-0.0164395,0.0334891,0.521191,-0.990575,32.1875,3,30742,3125892
71,4,0.999502,0.00421635,0.0265939,-0.0164395,0.856722,-0.588547,11.1589,1.23948,-1.36779,2.10135,0.00852936,-0.00592066,0.11159,1,0.000124284,-0.000146604,-0.000435507,0.0248568,-0.0293208,-0.0871013,0.999502,0.00421635,0.0265939,-0.0164395,0.0334891,0.521191,-0.990575,32.1875,3,30742,3125892
72,1,0.999493,0.00430355,0.0263672,-0.0173093,-0.864394,-0.0521355,9.0505,-0.355829,-0.662038,0.0127752,-0.00866059,-0.000539643,0.0905033,1,0.000141269,-8.95399e-05,-0.000420845,0.0282539,-0.017908,-0.0841691,0.999493,0.00430355,0.0263672,-0.0173093,0.029689,0.519742,-0.989579,32.1875,3,30744,3126092
72,2,0.99949,0.00430278,0.0261853,-0.0177682,0.687995,0.281275,10.9724,1.42672,-0.454618,1.97309,0.00686017,0.00279754,0.109726,1,4.13382e-05,-0.000101527,-0.000446456,0.00826764,-0.0203054,-0.0892912,0.99949,0.00430278,0.0261853,-0.0177682,0.0296691,0.521684,-0.989031,32.1875,3,30745,3126192
72,3,0.99949,0.00430278,0.0261853,-0.0177682,0.687995,0.281275,10.9724,1.42672,-0.454618,1.97309,0.00686017,0.00279754,0.109726,1,4.13382e-05,-0.000101527,-0.000446456,0.00826764,-0.0203054,-0.0892912,0.99949,0.00430278,0.0261853,-0.0177682,0.0296691,0.521684,-0.989031,32.1875,3,30745,3126192
72,4,0.99949,0.00430278,0.0261853,-0.0177682,0.687995,0.281275,10.9724,1.42672,-0.454618,1.97309,0.00686017,0.00279754,0.109726,1,4.13382e-05,-0.000101527,-0.000446456,0.00826764,-0.0203054,-0.0892912,0.99949,0.00430278,0.0261853,-0.0177682,0.0296691,0.521684,-0.989031,32.1875,3,30745,3126192
73,1,0.999474,0.00435774,0.0261265,-0.0186939,0.210285,-1.15876,9.83609,0.432931,-1.70321,0.887789,0.00210082,-0.0116008,0.0983594,1,5.83554e-05,3.98719e-05,-0.000425838,0.0116711,0.00797437,-0.0851677,0.999474,0.00435774,0.0261265,-0.0186939,0.0301791,0.522141,-0.987508,32.1875,3,30747,3126392
73,2,0.999467,0.00453889,0.0260464,-0.0191388,-0.472287,-0.0969629,9.06204,0.0957367,-0.565888,0.287166,-0.00472283,-0.00100587,0.09062,1,0.000222306,4.86666e-06,-0.000428481,0.0444612,0.000973332,-0.0856962,0.999467,0.00453889,0.0260464,-0.0191388,0.0296648,0.521205,-0.989547,32.1875,3,30748,3126492
73,3,0.999462,0.00462028,0.0258871,-0.0195956,0.0807132,-0.359393,9.94659,0.857643,-0.905997,1.13119,0.000788489,-0.00361937,0.0994652,1,0.000124319,-7.76846e-05,-0.00044214,0.0248638,-0.0155369,-0.088428,0.999462,0.00462028,0.0258871,-0.0195956,0.0282129,0.52026,-0.990571,32.1875,3,30749,3126592
73,4,0.999462,0.00462028,0.0258871,-0.0195956,0.0807132,-0.359393,9.94659,0.857643,-0.905997,1.13119,0.000788489,-0.00361937,0.0994652,1,0.000124319,-7.76846e-05,-0.00044214,0.0248638,-0.0155369,-0.088428,0.999462,0.00462028,0.0258871,-0.0195956,0.0282129,0.52026,-0.990571,32.1875,3,30749,3126592
74,1,0.999447,0.00486717,0.0257108,-0.0205136,0.0935538,0.712506,10.0371,0.493368,-0.154229,1.07768,0.000949625,0.00709202,0.100373,1,0.000160436,3.87494e-05,-0.000443681,0.0320871,0.00774989,-0.0887363,0.999447,0.00486717,0.0257108,-0.0205136,0.0253518,0.523156,-0.987463,32.1875,3,30751,3126792
74,2,0.999438,0.00486769,0.0256484,-0.0210091,0.0237739,-0.355317,9.53979,0.548478,-0.900185,0.794126,0.000237782,-0.00356127,0.0953976,1,4.12571e-05,1.82955e-05,-0.000484555,0.00825143,0.00365911,-0.0969111,0.999438,0.00486769,0.0256484,-0.0210091,0.0271937,0.522237,-0.991533,32.1875,3,30752,3126892
74,3,0.999438,0.00486769,0.0256484,-0.0210091,0.0237739,-0.355317,9.53979,0.548478,-0.900185,0.794126,0.000237782,-0.00356127,0.0953976,1,4.12571e-05,1.82955e-05,-0.000484555,0.00825143,0.00365911,-0.0969111,0.999438,0.00486769,0.0256484,-0.0210091,0.0271937,0.522237,-0.991533,32.1875,3,30752,3126892
74,4,0.999438,0.00486769,0.0256484,-0.0210091,0.0237739,-0.355317,9.53979,0.548478,-0.900185,0.794126,0.000237782,-0.00356127,0.0953976,1,4.12571e-05,1.82955e-05,-0.000484555,0.00825143,0.00365911,-0.0969111,0.999438,0.00486769,0.0256484,-0.0210091,0.0271937,0.522237,-0.991533,32.1875,3,30752,3126892
75,1,0.999423,0.00501834,0.0254237,-0.0219689,-0.164909,-0.226907,9.59144,0.164204,-0.91277,0.61896,-0.00166381,-0.00228626,0.0959138,1,9.75794e-05,-6.58333e-05,-0.000460268,0.0195159,-0.0131667,-0.0920536,0.999423,0.00501834,0.0254237,-0.0219689,0.023406,0.520779,-0.990032,32.1875,3,30754,3127092
75,2,0.999413,0.00500037,0.0253721,-0.0224462,0.679771,-0.482708,10.9406,1.39352,-1.04159,2.12157,0.00679914,-0.00483829,0.109405,1,2.22693e-05,2.71333e-05,-0.000466043,0.00445387,0.00542665,-0.0932085,0.999413,0.00500037,0.0253721,-0.0224462,0.0244181,0.52218,-0.986975,32.1875,3,30755,3127192
75,3,0.999413,0.00500037,0.0253721,-0.0224462,0.679771,-0.482708,10.9406,1.39352,-1.04159,2.12157,0.00679914,-0.00483829,0.109405,1,2.22693e-05,2.71333e-05,-0.000466043,0.00445387,0.00542665,-0.0932085,0.999413,0.00500037,0.0253721,-0.0224462,0.0244181,0.52218,-0.986975,32.1875,3,30755,3127192
75,4,0.999413,0.00500037,0.0253721,-0.0224462,0.679771,-0.482708,10.9406,1.39352,-1.04159,2.12157,0.00679914,-0.00483829,0.109405,1,2.22693e-05,2.71333e-05,-0.000466043,0.00445387,0.00542665,-0.0932085,0.999413,0.00500037,0.0253721,-0.0224462,0.0244181,0.52218,-0.986975,32.1875,3,30755,3127192
76,1,0.999389,0.00518171,0.025404,-0.0234241,0.0163016,-0.41805,10.1755,0.856745,-0.971864,1.38876,0.000184153,-0.00419565,0.101754,1,7.36305e-05,0.000123201,-0.000469878,0.0147261,0.0246403,-0.0939755,0.999389,0.00518171,0.025404,-0.0234241,0.0243236,0.522731,-0.990498,32.1875,3,30757,3127392
76,2,0.999378,0.00531912,0.0253633,-0.0238956,-0.485608,0.289292,10.1935,0.238971,-0.557239,1.44673,-0.00484502,0.002861,0.101936,1,0.000178308,4.13339e-05,-0.000457247,0.0356616,0.00826678,-0.0914494,0.999378,0.00531912,0.0253633,-0.0238956,0.0219347,0.52322,-0.989466,32.1875,3,30758,3127492
76,3,0.999368,0.0052251,0.0253671,-0.0243546,0.486847,-0.200406,10.0796,0.565016,-0.671268,1.03828,0.00488263,-0.00199727,0.100795,1,-5.53939e-05,7.91712e-05,-0.000449612,-0.0110788,0.0158342,-0.0899225,0.999368,0.0052251,0.0253671,-0.0243546,0.0191211,0.5203,-0.988508,32.1875,3,30759,3127592
76,4,0.999368,0.0052251,0.0253671,-0.0243546,0.486847,-0.200406,10.0796,0.565016,-0.671268,1.03828,0.00488263,-0.00199727,0.100795,1,-5.53939e-05,7.91712e-05,-0.000449612,-0.0110788,0.0158342,-0.0899225,0.999368,0.0052251,0.0253671,-0.0243546,0.0191211,0.5203,-0.988508,32.1875,3,30759,3127592
77,1,0.999345,0.00539995,0.0253781,-0.0252322,-0.458284,-0.510222,9.46489,0.0520113,-1.16555,0.562233,-0.00459265,-0.0051238,0.0946473,1,0.000134971,-2.84072e-05,-0.000433263,0.0269941,-0.00568144,-0.0866527,0.999345,0.00539995,0.0253781,-0.0252322,0.0220656,0.521197,-0.985471,32.1875,3,30761,3127792
77,2,0.999335,0.00545043,0.0253278,-0.0256657,-0.0182328,-0.145104,9.89143,0.120897,-0.736339,0.942518,-0.000178249,-0.0014688,0.0989141,1,9.05313e-05,2.68217e-05,-0.000420084,0.0181063,0.00536434,-0.0840167,0.999335,0.00545043,0.0253278,-0.0256657,0.0215105,0.521255,-0.988498,32.1875,3,30762,3127892
77,3,0.999335,0.00545043,0.0253278,-0.0256657,-0.0182328,-0.145104,9.89143,0.120897,-0.736339,0.942518,-0.000178249,-0.0014688,0.0989141,1,9.05313e-05,2.68217e-05,-0.000420084,0.0181063,0.00536434,-0.0840167,0.999335,0.00545043,0.0253278,-0.0256657,0.0215105,0.521255,-0.988498,32.1875,3,30762,3127892
77,4,0.999335,0.00545043,0.0253278,-0.0256657,-0.0182328,-0.145104,9.89143,0.120897,-0.736339,0.942518,-0.000178249,-0.0014688,0.0989141,1,9.05313e-05,2.68217e-05,-0.000420084,0.0181063,0.00536434,-0.0840167,0.999335,0.00545043,0.0253278,-0.0256657,0.0215105,0.521255,-0.988498,32.1875,3,30762,3127892
78,1,0.999321,0.00563557,0.0249016,-0.0265769,-0.213645,-0.169597,9.47904,0.0811724,-0.776155,0.49096,-0.00218377,-0.00171829,0.0947889,1,0.000128488,-0.00024113,-0.000473048,0.0256975,-0.0482261,-0.0946097,0.999321,0.00563557,0.0249016,-0.0265769,0.0167487,0.521259,-0.986456,32.1875,3,30764,3128092
78,2,0.999312,0.00571554,0.0247231,-0.0270482,0.638167,0.198695,9.97476,1.00565,-0.589548,1.23992,0.00636273,0.00195625,0.0997495,1,0.000124669,-0.000103969,-0.000457366,0.0249339,-0.0207938,-0.0914733,0.999312,0.00571554,0.0247231,-0.0270482,0.0172459,0.52028,-0.98648,32.1875,3,30765,3128192
78,3,0.999312,0.00571554,0.0247231,-0.0270482,0.638167,0.198695,9.97476,1.00565,-0.589548,1.23992,0.00636273,0.00195625,0.0997495,1,0.000124669,-0.000103969,-0.000457366,0.0249339,-0.0207938,-0.0914733,0.999312,0.00571554,0.0247231,-0.0270482,0.0172459,0.52028,-0.98648,32.1875,3,30765,3128192
78,4,0.999312,0.00571554,0.0247231,-0.0270482,0.638167,0.198695,9.97476,1.00565,-0.589548,1.23992,0.00636273,0.00195625,0.0997495,1,0.000124669,-0.000103969,-0.000457366,0.0249339,-0.0207938,-0.0914733,0.999312,0.00571554,0.0247231,-0.0270482,0.0172459,0.52028,-0.98648,32.1875,3,30765,3128192
79,1,0.999297,0.00579255,0.0242728,-0.0279756,0.468923,-0.00808517,10.657,0.859338,-0.708014,1.94362,0.00466529,-9.36766e-05,0.106571,1,4.08874e-05,-0.000111978,-0.000439372,0.00817747,-0.0223956,-0.0878745,0.999297,0.00579255,0.0242728,-0.0279756,0.017291,0.519765,-0.984976,32.1875,3,30767,3128392
79,2,0.999287,0.0058403,0.0241588,-0.0284214,-0.374267,0.133784,9.22578,0.258195,-0.484399,0.377158,-0.00374855,0.00132457,0.0922577,1,8.94486e-05,-3.81376e-05,-0.000432615,0.0178897,-0.00762753,-0.0865231,0.999287,0.0058403,0.0241588,-0.0284214,0.0144707,0.521668,-0.98088,32.1875,3,30768,3128492
79,3,0.99928,0.00582186,0.0238829,-0.0288883,0.140533,-0.0593356,10.0026,0.640721,-0.659948,1.10049,0.00136419,-0.000600227,0.100027,1,2.8024e-05,-0.000202925,-0.000456682,0.00560481,-0.0405851,-0.0913365,0.99928,0.00582186,0.0238829,-0.0288883,0.0139606,0.521211,-0.982403,32.1875,3,30769,3128592
79,4,0.99928,0.00582186,0.0238829,-0.0288883,0.140533,-0.0593356,10.0026,0.640721,-0.659948,1.10049,0.00136419,-0.000600227,0.100027,1,2.8024e-05,-0.000202925,-0.000456682,0.00560481,-0.0405851,-0.0913365,0.99928,0.00582186,0.0238829,-0.0288883,0.0139606,0.521211,-0.982403,32.1875,3,30769,3128592
80,1,0.999263,0.00590744,0.0235538,-0.0297343,1.06051,-0.518347,11.006,1.62651,-1.40505,2.13607,0.0105924,-0.00521165,0.11006,1,8.95715e-05,-3.89029e-05,-0.00039932,0.0179143,-0.00778057,-0.079864,0.999263,0.00590744,0.0235538,-0.0297343,0.0149803,0.520679,-0.980399,32.1875,3,30771,3128792
80,2,0.99925,0.00597828,0.023538,-0.0301638,0.0429385,0.151338,8.64598,0.500828,-0.450626,-0.0440855,0.000441686,0.001494,0.0864601,1,0.000110021,6.3892e-05,-0.000416506,0.0220043,0.0127784,-0.0833012,0.99925,0.00597828,0.023538,-0.0301638,0.01401,0.521175,-0.980384,32.1875,3,30772,3128892
80,3,0.99925,0.00597828,0.023538,-0.0301638,0.0429385,0.151338,8.64598,0.500828,-0.450626,-0.0440855,0.000441686,0.001494,0.0864601,1,0.000110021,6.3892e-05,-0.000416506,0.0220043,0.0127784,-0.0833012,0.99925,0.00597828,0.023538,-0.0301638,0.01401,0.521175,-0.980384,32.1875,3,30772,3128892
80,4,0.99925,0.00597828,0.023538,-0.0301638,0.0429385,0.151338,8.64598,0.500828,-0.450626,-0.0440855,0.000441686,0.001494,0.0864601,1,0.000110021,6.3892e-05,-0.000416506,0.0220043,0.0127784,-0.0833012,0.99925,0.00597828,0.023538,-0.0301638,0.01401,0.521175,-0.980384,32.1875,3,30772,3128892
81,1,0.999227,0.00605466,0.0234168,-0.0309807,0.0972637,-0.511857,9.78684,0.93623,-1.3395,1.30378,0.000985106,-0.00514708,0.0978668,1,0.000141707,8.44141e-05,-0.000394948,0.0283415,0.0168828,-0.0789896,0.999227,0.00605466,0.0234168,-0.0309807,0.0145158,0.521153,-0.979377,32.1875,3,30774,3129092
81,2,0.999218,0.0060674,0.0233063,-0.0313518,-0.470661,-0.414334,9.66923,-0.138544,-0.883864,0.614124,-0.0047159,-0.0041503,0.0966915,1,5.35359e-05,-3.25936e-05,-0.000359865,0.0107072,-0.00651872,-0.0719729,0.999218,0.0060674,0.0233063,-0.0313518,0.011185,0.521154,-0.977846,32.1875,3,30775,3129192
81,3,0.999218,0.0060674,0.0233063,-0.0313518,-0.470661,-0.414334,9.66923,-0.138544,-0.883864,0.614124,-0.0047159,-0.0041503,0.0966915,1,5.35359e-05,-3.25936e-05,-0.000359865,0.0107072,-0.00651872,-0.0719729,0.999218,0.0060674,0.0233063,-0.0313518,0.011185,0.521154,-0.977846,32.1875,3,30775,3129192
81,4,0.999218,0.0060674,0.0233063,-0.0313518,-0.470661,-0.414334,9.66923,-0.138544,-0.883864,0.614124,-0.0047159,-0.0041503,0.0966915,1,5.35359e-05,-3.25936e-05,-0.000359865,0.0107072,-0.00651872,-0.0719729,0.999218,0.0060674,0.0233063,-0.0313518,0.011185,0.521154,-0.977846,32.1875,3,30775,3129192
82,1,0.999194,0.00639756,0.0232717,-0.0320674,-1.26676,-0.675801,9.15268,-0.891538,-1.35941,0.307496,-0.0126613,-0.00678303,0.0915258,1,0.000182547,5.87139e-05,-0.000331382,0.0365094,0.0117428,-0.0662765,0.999194,0.00639756,0.0232717,-0.0320674,0.0130482,0.522628,-0.979337,32.1875,3,30777,3129392
82,2,0.999183,0.00658651,0.0232311,-0.0323962,0.0873947,0.35333,10.3067,0.718584,-0.499578,1.63114,0.000884282,0.00348558,0.103069,1,0.000228821,3.94687e-05,-0.000313307,0.0457642,0.00789374,-0.0626613,0.999183,0.00658651,0.0232311,-0.0323962,0.015005,0.520661,-0.97939,32.1875,3,30778,3129492
82,3,0.999175,0.00664693,0.0230995,-0.0327459,-1.24266,-0.0694653,9.27039,-1.14587,-0.546151,0.0431771,-0.0124374,-0.000705375,0.0927024,1,0.000102903,-5.58086e-05,-0.000336101,0.0205806,-0.0111617,-0.0672201,0.999175,0.00664693,0.0230995,-0.0327459,0.0116784,0.521141,-0.977344,32.1875,3,30779,3129592
82,4,0.999175,0.00664693,0.0230995,-0.0327459,-1.24266,-0.0694653,9.27039,-1.14587,-0.546151,0.0431771,-0.0124374,-0.000705375,0.0927024,1,0.000102903,-5.58086e-05,-0.000336101,0.0205806,-0.0111617,-0.0672201,0.999175,0.00664693,0.0230995,-0.0327459,0.0116784,0.521141,-0.977344,32.1875,3,30779,3129592
83,1,0.99915,0.00674193,0.0232013,-0.0334149,-0.736159,-0.29293,9.72999,-0.290844,-0.785399,0.93902,-0.00734523,-0.00292624,0.0973012,1,1.01907e-05,9.43776e-05,-0.000342612,0.00203814,0.0188755,-0.0685224,0.99915,0.00674193,0.0232013,-0.0334149,0.0121643,0.523061,-0.975788,32.1875,3,30781,3129792
83,2,0.99915,0.00674193,0.0232013,-0.0334149,-0.736159,-0.29293,9.72999,-0.290844,-0.785399,0.93902,-0.00734523,-0.00292624,0.0973012,1,1.01907e-05,9.43776e-05,-0.000342612,0.00203814,0.0188755,-0.0685224,0.99915,0.00674193,0.0232013,-0.0334149,0.0121643,0.523061,-0.975788,32.1875,3,30781,3129792
83,3,0.999137,0.00675043,0.0232547,-0.0337449,-0.518219,0.498643,9.0524,-0.123645,-0.14727,0.116393,-0.00515639,0.00498188,0.0905257,1,4.33691e-05,0.000124881,-0.000319943,0.00867382,0.0249763,-0.0639886,0.999137,0.00675043,0.0232547,-0.0337449,0.0130895,0.52308,-0.977307,32.1875,3,30782,3129892
83,4,0.999137,0.00675043,0.0232547,-0.0337449,-0.518219,0.498643,9.0524,-0.123645,-0.14727,0.116393,-0.00515639,0.00498188,0.0905257,1,4.33691e-05,0.000124881,-0.000319943,0.00867382,0.0249763,-0.0639886,0.999137,0.00675043,0.0232547,-0.0337449,0.0130895,0.52308,-0.977307,32.1875,3,30782,3129892
84,1,0.999115,0.00683727,0.0231582,-0.034451,0.382497,-0.231453,10.1329,0.71905,-0.940047,1.10313,0.00382418,-0.00232404,0.101329,1,3.44839e-05,3.67736e-06,-0.000330707,0.00689679,0.000735472,-0.0661414,0.999115,0.00683727,0.0231582,-0.034451,0.0113373,0.521525,-0.971273,32.1875,3,30784,3130092
84,2,0.999102,0.00689324,0.0231579,-0.0348083,-0.354833,0.692513,8.9522,0.273368,0.108094,0.254702,-0.00353089,0.00691094,0.0895238,1,9.29356e-05,7.07295e-05,-0.000345369,0.0185871,0.0141459,-0.0690739,0.999102,0.00689324,0.0231579,-0.0348083,0.0122753,0.52298,-0.971245,32.1875,3,30785,3130192
84,3,0.999102,0.00689324,0.0231579,-0.0348083,-0.354833,0.692513,8.9522,0.273368,0.108094,0.254702,-0.00353089,0.00691094,0.0895238,1,9.29356e-05,7.07295e-05,-0.000345369,0.0185871,0.0141459,-0.0690739,0.999102,0.00689324,0.0231579,-0.0348083,0.0122753,0.52298,-0.971245,32.1875,3,30785,3130192
84,4,0.999102,0.00689324,0.0231579,-0.0348083,-0.354833,0.692513,8.9522,0.273368,0.108094,0.254702,-0.00353089,0.00691094,0.0895238,1,9.29356e-05,7.07295e-05,-0.000345369,0.0185871,0.0141459,-0.0690739,0.999102,0.00689324,0.0231579,-0.0348083,0.0122753,0.52298,-0.971245,32.1875,3,30785,3130192
85,1,0.999079,0.00689715,0.0230174,-0.0355462,-0.334745,-0.880198,9.36028,0.255832,-1.41053,0.685141,-0.00335684,-0.00879715,0.0936029,1,-1.2532e-05,-1.52613e-05,-0.000371484,-0.00250639,-0.00305226,-0.0742968,0.999079,0.00689715,0.0230174,-0.0355462,0.00990763,0.525863,-0.967634,32.1875,3,30787,3130392
85,2,0.99907,0.00699995,0.0228403,-0.0358872,0.011471,-0.467604,9.60246,0.122671,-1.02882,0.442156,9.15306e-05,-0.0047041,0.0960233,1,0.000145772,-0.000104724,-0.000327038,0.0291544,-0.0209449,-0.0654076,0.99907,0.00699995,0.0228403,-0.0358872,0.00898667,0.526323,-0.9656,32.1875,3,30788,3130492
85,3,0.99906,0.00710266,0.0227322,-0.036227,-0.599178,0.641489,9.54614,-0.0454959,-0.106472,0.932394,-0.00599447,0.00639136,0.0954628,1,0.000143746,-3.59622e-05,-0.00032637,0.0287493,-0.00719243,-0.0652741,0.99906,0.00710266,0.0227322,-0.036227,0.00803677,0.526322,-0.96509,32.1875,3,30789,3130592
85,4,0.99906,0.00710266,0.0227322,-0.036227,-0.599178,0.641489,9.54614,-0.0454959,-0.106472,0.932394,-0.00599447,0.00639136,0.0954628,1,0.000143746,-3.59622e-05,-0.00032637,0.0287493,-0.00719243,-0.0652741,0.99906,0.00710266,0.0227322,-0.036227,0.00803677,0.526322,-0.96509,32.1875,3,30789,3130592
86,1,0.999046,0.00706635,0.0223026,-0.0368835,-0.390295,0.175404,9.41046,0.0237831,-0.443281,0.651431,-0.00392028,0.00174108,0.0941041,1,8.21388e-05,-9.79713e-05,-0.000318687,0.0164278,-0.0195943,-0.0637375,0.999046,0.00706635,0.0223026,-0.0368835,0.00762114,0.525314,-0.96309,32.1875,3,30791,3130792
86,2,0.999037,0.00711789,0.0220797,-0.0372369,0.44131,-1.22324,10.1488,0.761177,-1.89008,1.23702,0.00437332,-0.0122547,0.101487,1,9.52738e-05,-0.000154842,-0.00034108,0.0190548,-0.0309683,-0.0682159,0.999037,0.00711789,0.0220797,-0.0372369,0.0076216,0.52676,-0.962048,32.1875,3,30792,3130892
86,3,0.999037,0.00711789,0.0220797,-0.0372369,0.44131,-1.22324,10.1488,0.761177,-1.89008,1.23702,0.00437332,-0.0122547,0.101487,1,9.52738e-05,-0.000154842,-0.00034108,0.0190548,-0.0309683,-0.0682159,0.999037,0.00711789,0.0220797,-0.0372369,0.0076216,0.52676,-0.962048,32.1875,3,30792,3130892
86,4,0.999037,0.00711789,0.0220797,-0.0372369,0.44131,-1.22324,10.1488,0.761177,-1.89008,1.23702,0.00437332,-0.0122547,0.101487,1,9.52738e-05,-0.000154842,-0.00034108,0.0190548,-0.0309683,-0.0682159,0.999037,0.00711789,0.0220797,-0.0372369,0.0076216,0.52676,-0.962048,32.1875,3,30792,3130892
87,1,0.999012,0.00750726,0.0219606,-0.0379074,0.238327,-0.341787,10.4676,0.686434,-1.405,1.51708,0.00238893,-0.00347458,0.104674,1,0.000263412,3.78465e-05,-0.000328447,0.0526824,0.0075693,-0.0656894,0.999012,0.00750726,0.0219606,-0.0379074,0.00570185,0.5287,-0.960481,32.1875,3,30794,3131092
87,2,0.998998,0.00758555,0.0219733,-0.0382389,-0.705181,0.874999,10.1522,-0.132978,0.10006,1.51787,-0.00702937,0.00873086,0.101526,1,0.000116413,8.2958e-05,-0.000319823,0.0232827,0.0165916,-0.0639646,0.998998,0.00758555,0.0219733,-0.0382389,0.00570231,0.530145,-0.959439,32.1875,3,30795,3131192
87,3,0.998998,0.00758555,0.0219733,-0.0382389,-0.705181,0.874999,10.1522,-0.132978,0.10006,1.51787,-0.00702937,0.00873086,0.101526,1,0.000116413,8.2958e-05,-0.000319823,0.0232827,0.0165916,-0.0639646,0.998998,0.00758555,0.0219733,-0.0382389,0.00570231,0.530145,-0.959439,32.1875,3,30795,3131192
87,4,0.998998,0.00758555,0.0219733,-0.0382389,-0.705181,0.874999,10.1522,-0.132978,0.10006,1.51787,-0.00702937,0.00873086,0.101526,1,0.000116413,8.2958e-05,-0.000319823,0.0232827,0.0165916,-0.0639646,0.998998,0.00758555,0.0219733,-0.0382389,0.00570231,0.530145,-0.959439,32.1875,3,30795,3131192
88,1,0.998975,0.00740567,0.0219382,-0.0389115,-1.05891,1.10515,8.60723,-0.473069,0.673209,-0.0223632,-0.0105758,0.011083,0.0860699,1,-0.000141578,3.45812e-05,-0.000333568,-0.0283156,0.00691623,-0.0667136,0.998975,0.00740567,0.0219382,-0.0389115,0.00430876,0.531566,-0.95637,32.1875,3,30797,3131392
88,2,0.998967,0.00726515,0.0216478,-0.0392932,-0.220592,0.536063,9.41167,-0.226204,-0.0592956,0.0772991,-0.00224598,0.00538024,0.0941147,1,-9.53281e-05,-0.000234108,-0.000373338,-0.0190656,-0.0468216,-0.0746675,0.998967,0.00726515,0.0216478,-0.0392932,0.00285018,0.535444,-0.954257,32.1875,3,30798,3131492
88,3,0.998955,0.00693926,0.0216017,-0.0396627,1.28982,-1.34626,11.4429,1.83594,-1.64553,2.45324,0.0128888,-0.0134054,0.114436,1,-0.000291427,2.33196e-06,-0.00036951,-0.0582854,0.000466392,-0.073902,0.998955,0.00693926,0.0216017,-0.0396627,0.00432293,0.537338,-0.951697,32.1875,3,30799,3131592
88,4,0.998955,0.00693926,0.0216017,-0.0396627,1.28982,-1.34626,11.4429,1.83594,-1.64553,2.45324,0.0128888,-0.0134054,0.114436,1,-0.000291427,2.33196e-06,-0.00036951,-0.0582854,0.000466392,-0.073902,0.998955,0.00693926,0.0216017,-0.0396627,0.00432293,0.537338,-0.951697,32.1875,3,30799,3131592
89,1,0.99892,0.00730525,0.0219119,-0.0403266,-0.884534,-0.743758,8.7462,-0.650712,-0.890696,-0.0896747,-0.00881898,-0.00744166,0.0874643,1,5.47237e-05,0.000177095,-0.000310602,0.0109447,0.0354191,-0.0621203,0.99892,0.00730525,0.0219119,-0.0403266,0.0019909,0.535859,-0.949699,32.1875,3,30801,3131792
89,2,0.998905,0.00762787,0.0218729,-0.0406452,-1.04605,1.07208,9.04363,-0.792375,0.142206,-0.00280738,-0.0104475,0.0106615,0.0904448,1,0.00036246,3.62826e-05,-0.0003002,0.072492,0.00725652,-0.0600399,0.998905,0.00762787,0.0218729,-0.0406452,0.000593089,0.536801,-0.947146,32.1875,3,30802,3131892
89,3,0.998905,0.00762787,0.0218729,-0.0406452,-1.04605,1.07208,9.04363,-0.792375,0.142206,-0.00280738,-0.0104475,0.0106615,0.0904448,1,0.00036246,3.62826e-05,-0.0003002,0.072492,0.00725652,-0.0600399,0.998905,0.00762787,0.0218729,-0.0406452,0.000593089,0.536801,-0.947146,32.1875,3,30802,3131892
89,4,0.998905,0.00762787,0.0218729,-0.0406452,-1.04605,1.07208,9.04363,-0.792375,0.142206,-0.00280738,-0.0104475,0.0106615,0.0904448,1,0.00036246,3.62826e-05,-0.0003002,0.072492,0.00725652,-0.0600399,0.998905,0.00762787,0.0218729,-0.0406452,0.000593089,0.536801,-0.947146,32.1875,3,30802,3131892
90,1,0.998881,0.00756624,0.021744,-0.041308,0.0202278,0.616757,9.99796,0.367118,-0.27547,1.11962,0.000199093,0.0061476,0.0999809,1,9.92189e-05,-3.56256e-05,-0.000319793,0.0198438,-0.00712511,-0.0639586,0.998881,0.00756624,0.021744,-0.041308,0.00061533,0.542086,-0.942483,32.1875,3,30804,3132092
90,2,0.998865,0.0075752,0.0217689,-0.0416781,-0.443825,-0.600055,9.51005,-0.000424283,-1.3647,0.901868,-0.00442663,-0.00600569,0.0951007,1,4.3922e-05,8.39797e-05,-0.000362704,0.0087844,0.0167959,-0.0725408,0.998865,0.0075752,0.0217689,-0.0416781,-0.00032177,0.543521,-0.940426,32.1875,3,30805,3132192
90,3,0.998865,0.0075752,0.0217689,-0.0416781,-0.443825,-0.600055,9.51005,-0.000424283,-1.3647,0.901868,-0.00442663,-0.00600569,0.0951007,1,4.3922e-05,8.39797e-05,-0.000362704,0.0087844,0.0167959,-0.0725408,0.998865,0.0075752,0.0217689,-0.0416781,-0.00032177,0.543521,-0.940426,32.1875,3,30805,3132192
90,4,0.998865,0.0075752,0.0217689,-0.0416781,-0.443825,-0.600055,9.51005,-0.000424283,-1.3647,0.901868,-0.00442663,-0.00600569,0.0951007,1,4.3922e-05,8.39797e-05,-0.000362704,0.0087844,0.0167959,-0.0725408,0.998865,0.0075752,0.0217689,-0.0416781,-0.00032177,0.543521,-0.940426,32.1875,3,30805,3132192
91,1,0.998842,0.00753619,0.0214453,-0.0424005,-0.699668,-0.558422,9.39527,-0.463066,-0.743944,0.309563,-0.00702968,-0.00555961,0.0939517,1,-0.000105097,-0.000155074,-0.000347004,-0.0210195,-0.0310148,-0.0694008,0.998842,0.00753619,0.0214453,-0.0424005,-0.00229513,0.545018,-0.941394,32.1875,3,30807,3132392
91,2,0.998832,0.00760657,0.0213061,-0.0427036,0.14243,0.318922,10.4036,0.682626,-0.53506,1.63113,0.00140946,0.0031651,0.104037,1,0.000111931,-8.02383e-05,-0.000292519,0.0223863,-0.0160477,-0.0585038,0.998832,0.00760657,0.0213061,-0.0427036,-0.00317908,0.545451,-0.937845,32.1875,3,30808,3132492
91,3,0.99882,0.00759371,0.0211672,-0.0430484,0.212421,-0.867317,10.1391,0.483474,-1.53589,1.19402,0.00210144,-0.00868046,0.101391,1,2.89423e-05,-8.35466e-05,-0.000335599,0.00578845,-0.0167093,-0.0671199,0.99882,0.00759371,0.0211672,-0.0430484,-0.00456456,0.546384,-0.934788,32.1875,3,30809,3132592
91,4,0.99882,0.00759371,0.0211672,-0.0430484,0.212421,-0.867317,10.1391,0.483474,-1.53589,1.19402,0.00210144,-0.00868046,0.101391,1,2.89423e-05,-8.35466e-05,-0.000335599,0.00578845,-0.0167093,-0.0671199,0.99882,0.00759371,0.0211672,-0.0430484,-0.00456456,0.546384,-0.934788,32.1875,3,30809,3132592
92,1,0.998792,0.00777391,0.0210946,-0.0436923,0.268034,-0.408079,9.90488,0.672675,-1.2961,1.15904,0.00268796,-0.00409547,0.099048,1,6.57243e-05,5.12145e-05,-0.000309085,0.0131449,0.0102429,-0.061817,0.998792,0.00777391,0.0210946,-0.0436923,-0.00546846,0.548759,-0.93069,32.1875,3,30811,3132792
92,2,0.998779,0.00776442,0.0210823,-0.044004,-0.458802,1.14895,9.92281,0.113042,0.481032,1.20682,-0.00457247,0.0114868,0.0992291,1,2.79492e-05,4.28812e-05,-0.000306508,0.00558983,0.00857624,-0.0613015,0.998779,0.00776442,0.0210823,-0.044004,-0.00693176,0.550713,-0.930135,32.1875,3,30812,3132892
92,3,0.998779,0.00776442,0.0210823,-0.044004,-0.458802,1.14895,9.92281,0.113042,0.481032,1.20682,-0.00457247,0.0114868,0.0992291,1,2.79492e-05,4.28812e-05,-0.000306508,0.00558983,0.00857624,-0.0613015,0.998779,0.00776442,0.0210823,-0.044004,-0.00693176,0.550713,-0.930135,32.1875,3,30812,3132892
92,4,0.998779,0.00776442,0.0210823,-0.044004,-0.458802,1.14895,9.92281,0.113042,0.481032,1.20682,-0.00457247,0.0114868,0.0992291,1,2.79492e-05,4.28812e-05,-0.000306508,0.00558983,0.00857624,-0.0613015,0.998779,0.00776442,0.0210823,-0.044004,-0.00693176,0.550713,-0.930135,32.1875,3,30812,3132892
93,1,0.998753,0.00769664,0.0209554,-0.0446534,-0.214412,0.922625,9.95239,0.0916863,0.613716,0.994097,-0.00214886,0.0092358,0.0995229,1,-4.12797e-05,-5.26445e-05,-0.000311031,-0.00825594,-0.0105289,-0.0622062,0.998753,0.00769664,0.0209554,-0.0446534,-0.0102094,0.549712,-0.927112,32.1875,3,30814,3133092
93,2,0.998734,0.00791789,0.0209928,-0.0450281,0.189618,-0.938775,9.78233,0.760341,-2.29806,0.95893,0.00190906,-0.00943905,0.0978181,1,0.000255189,0.000100797,-0.000363188,0.0510378,0.0201595,-0.0726375,0.998734,0.00791789,0.0209928,-0.0450281,-0.0110976,0.549666,-0.924078,32.1875,3,30815,3133192
93,3,0.998734,0.00791789,0.0209928,-0.0450281,0.189618,-0.938775,9.78233,0.760341,-2.29806,0.95893,0.00190906,-0.00943905,0.0978181,1,0.000255189,0.000100797,-0.000363188,0.0510378,0.0201595,-0.0726375,0.998734,0.00791789,0.0209928,-0.0450281,-0.0110976,0.549666,-0.924078,32.1875,3,30815,3133192
93,4,0.998734,0.00791789,0.0209928,-0.0450281,0.189618,-0.938775,9.78233,0.760341,-2.29806,0.95893,0.00190906,-0.00943905,0.0978181,1,0.000255189,0.000100797,-0.000363188,0.0510378,0.0201595,-0.0726375,0.998734,0.00791789,0.0209928,-0.0450281,-0.0110976,0.549666,-0.924078,32.1875,3,30815,3133192
94,1,0.9987,0.00782321,0.021016,-0.0457749,-0.689841,0.0513225,9.54041,-0.571576,-0.920162,0.497817,-0.00688645,0.000493777,0.095405,1,0.000129224,6.06838e-05,-0.000377899,0.0258448,0.0121368,-0.0755798,0.9987,0.00782321,0.021016,-0.0457749,-0.0131194,0.554089,-0.924981,32.1875,3,30817,3133392
94,2,0.998685,0.00754533,0.0210397,-0.0461344,-0.0174748,-0.679763,10.4385,0.276815,-0.805385,1.30806,-0.000166348,-0.0067468,0.104388,1,-0.000242915,6.34919e-05,-0.000358532,-0.048583,0.0126984,-0.0717064,0.998685,0.00754533,0.0210397,-0.0461344,-0.0130824,0.554062,-0.923466,32.1875,3,30818,3133492
94,3,0.998663,0.00776168,0.0212412,-0.0464796,-0.52926,-0.113917,9.8624,-0.0196539,-1.10345,1.16971,-0.00524128,-0.00118358,0.0986262,1,0.000243043,0.000264094,-0.000334594,0.0486087,0.0528187,-0.0669187,0.998663,0.00776168,0.0212412,-0.0464796,-0.0130497,0.553557,-0.922467,32.1875,3,30819,3133592
94,4,0.998663,0.00776168,0.0212412,-0.0464796,-0.52926,-0.113917,9.8624,-0.0196539,-1.10345,1.16971,-0.00524128,-0.00118358,0.0986262,1,0.000243043,0.000264094,-0.000334594,0.0486087,0.0528187,-0.0669187,0.998663,0.00776168,0.0212412,-0.0464796,-0.0130497,0.553557,-0.922467,32.1875,3,30819,3133592
95,1,0.998633,0.00807328,0.0211862,-0.047094,-0.572216,0.0936339,9.68517,-0.318827,-1.16365,0.512448,-0.00574403,0.000866593,0.096851,1,0.000377592,-0.000115679,-0.000296123,0.0755183,-0.0231358,-0.0592246,0.998633,0.00807328,0.0211862,-0.047094,-0.0152953,0.552014,-0.916936,32.1875,3,30821,3133792
95,2,0.99862,0.00805579,0.0211488,-0.0473915,0.662707,-1.31211,11.9763,1.21074,-2.17889,3.19788,0.00662179,-0.01313,0.119762,1,2.11297e-05,9.88381e-06,-0.000291158,0.00422594,0.00197676,-0.0582317,0.99862,0.00805579,0.0211488,-0.0473915,-0.0162652,0.553955,-0.915878,32.1875,3,30822,3133892
95,3,0.99862,0.00805579,0.0211488,-0.0473915,0.662707,-1.31211,11.9763,1.21074,-2.17889,3.19788,0.00662179,-0.01313,0.119762,1,2.11297e-05,9.88381e-06,-0.000291158,0.00422594,0.00197676,-0.0582317,0.99862,0.00805579,0.0211488,-0.0473915,-0.0162652,0.553955,-0.915878,32.1875,3,30822,3133892
95,4,0.99862,0.00805579,0.0211488,-0.0473915,0.662707,-1.31211,11.9763,1.21074,-2.17889,3.19788,0.00662179,-0.01313,0.119762,1,2.11297e-05,9.88381e-06,-0.000291158,0.00422594,0.00197676,-0.0582317,0.99862,0.00805579,0.0211488,-0.0473915,-0.0162652,0.553955,-0.915878,32.1875,3,30822,3133892
96,1,0.998581,0.00838955,0.0211848,-0.0481303,-0.850917,-0.806924,9.17884,-0.567318,-1.77208,0.475684,-0.00850707,-0.00809527,0.0917863,1,0.000177822,4.56272e-05,-0.000388381,0.0355644,0.00912545,-0.0776762,0.998581,0.00838955,0.0211848,-0.0481303,-0.0186831,0.553984,-0.916371,32.1875,3,30824,3134092
96,2,0.998567,0.00832385,0.0209748,-0.0485227,-0.91452,1.58188,9.48188,-0.512458,1.12053,0.586107,-0.00916491,0.0158291,0.0948152,1,-1.67823e-05,-0.000168407,-0.000386318,-0.00335645,-0.0336815,-0.0772636,0.998567,0.00832385,0.0209748,-0.0485227,-0.0195713,0.553938,-0.913338,32.1875,3,30825,3134192
96,3,0.998567,0.00832385,0.0209748,-0.0485227,-0.91452,1.58188,9.48188,-0.512458,1.12053,0.586107,-0.00916491,0.0158291,0.0948152,1,-1.67823e-05,-0.000168407,-0.000386318,-0.00335645,-0.0336815,-0.0772636,0.998567,0.00832385,0.0209748,-0.0485227,-0.0195713,0.553938,-0.913338,32.1875,3,30825,3134192
96,4,0.998567,0.00832385,0.0209748,-0.0485227,-0.91452,1.58188,9.48188,-0.512458,1.12053,0.586107,-0.00916491,0.0158291,0.0948152,1,-1.67823e-05,-0.000168407,-0.000386318,-0.00335645,-0.0336815,-0.0772636,0.998567,0.00832385,0.0209748,-0.0485227,-0.0195713,0.553938,-0.913338,32.1875,3,30825,3134192
97,1,0.998545,0.00801186,0.0204286,-0.0492666,0.551232,-0.0947938,10.3581,0.618196,-0.178733,1.19058,0.00546603,-0.000912157,0.103584,1,-0.000190904,-0.000220354,-0.000343243,-0.0381808,-0.0440708,-0.0686485,0.998545,0.00801186,0.0204286,-0.0492666,-0.0223508,0.554848,-0.908254,32.1875,3,30827,3134392
97,2,0.998527,0.00827645,0.0204257,-0.0495732,0.244237,-1.089,10.2295,0.904382,-2.42952,1.56305,0.00244717,-0.0109528,0.102288,1,0.000299458,5.51023e-05,-0.00029613,0.0598916,0.0110205,-0.059226,0.998527,0.00827645,0.0204257,-0.0495732,-0.0223219,0.555308,-0.906729,32.1875,3,30828,3134492
97,3,0.998516,0.00826048,0.020285,-0.0498518,0.0496325,-1.35901,9.4248,0.265097,-1.89257,0.471539,0.000470782,-0.0135955,0.0942474,1,2.72009e-05,-9.59573e-05,-0.000274241,0.00544018,-0.0191915,-0.0548481,0.998516,0.00826048,0.020285,-0.0498518,-0.023231,0.554314,-0.905232,32.1875,3,30829,3134592
97,4,0.998516,0.00826048,0.020285,-0.0498518,0.0496325,-1.35901,9.4248,0.265097,-1.89257,0.471539,0.000470782,-0.0135955,0.0942474,1,2.72009e-05,-9.59573e-05,-0.000274241,0.00544018,-0.0191915,-0.0548481,0.998516,0.00826048,0.020285,-0.0498518,-0.023231,0.554314,-0.905232,32.1875,3,30829,3134592
98,1,0.998489,0.00849344,0.020104,-0.0504392,1.22843,-1.39756,11.4213,1.85444,-2.52415,2.78356,0.0122874,-0.0139807,0.114212,1,-9.06918e-06,4.91753e-05,-0.000289127,-0.00181384,0.00983505,-0.0578254,0.998489,0.00849344,0.020104,-0.0504392,-0.0231128,0.550854,-0.902784,32.1875,3,30831,3134792
98,2,0.998489,0.00849344,0.020104,-0.0504392,1.22843,-1.39756,11.4213,1.85444,-2.52415,2.78356,0.0122874,-0.0139807,0.114212,1,-9.06918e-06,4.91753e-05,-0.000289127,-0.00181384,0.00983505,-0.0578254,0.998489,0.00849344,0.020104,-0.0504392,-0.0231128,0.550854,-0.902784,32.1875,3,30831,3134792
98,3,0.998471,0.00856491,0.0201361,-0.050754,-0.294093,1.84582,10.2833,0.00887531,1.16964,1.24815,-0.00291272,0.0184379,0.102838,1,0.000107912,8.18829e-05,-0.000308355,0.0215824,0.0163766,-0.0616709,0.998471,0.00856491,0.0201361,-0.050754,-0.0245319,0.549403,-0.902809,32.1875,3,30832,3134892
98,4,0.998471,0.00856491,0.0201361,-0.050754,-0.294093,1.84582,10.2833,0.00887531,1.16964,1.24815,-0.00291272,0.0184379,0.102838,1,0.000107912,8.18829e-05,-0.000308355,0.0215824,0.0163766,-0.0616709,0.998471,0.00856491,0.0201361,-0.050754,-0.0245319,0.549403,-0.902809,32.1875,3,30832,3134892
99,1,0.99843,0.00845775,0.0204454,-0.0514639,-1.23695,1.12841,8.70504,-0.772933,1.03131,0.105027,-0.0123421,0.0113159,0.0870502,1,-0.000131935,0.000110995,-0.000354177,-0.0263869,0.0221991,-0.0708354,0.99843,0.00845775,0.0204454,-0.0514639,-0.0225083,0.55076,-0.897738,32.1875,3,30834,3135092
99,2,0.998414,0.00849462,0.0202578,-0.0518365,-1.23121,-1.01266,8.74515,-1.37457,-1.74499,-0.531616,-0.0123446,-0.0101318,0.0874463,1,8.17625e-05,-0.000143718,-0.000366672,0.0163525,-0.0287436,-0.0733344,0.998414,0.00849462,0.0202578,-0.0518365,-0.0215385,0.548819,-0.898796,32.1875,3,30835,3135192
99,3,0.998414,0.00849462,0.0202578,-0.0518365,-1.23121,-1.01266,8.74515,-1.37457,-1.74499,-0.531616,-0.0123446,-0.0101318,0.0874463,1,8.17625e-05,-0.000143718,-0.000366672,0.0163525,-0.0287436,-0.0733344,0.998414,0.00849462,0.0202578,-0.0518365,-0.0215385,0.548819,-0.898796,32.1875,3,30835,3135192
99,4,0.998414,0.00849462,0.0202578,-0.0518365,-1.23121,-1.01266,8.74515,-1.37457,-1.74499,-0.531616,-0.0123446,-0.0101318,0.0874463,1,8.17625e-05,-0.000143718,-0.000366672,0.0163525,-0.0287436,-0.0733344,0.998414,0.00849462,0.0202578,-0.0518365,-0.0215385,0.548819,-0.898796,32.1875,3,30835,3135192
100,1,0.998374,0.00856185,0.0203383,-0.0525633,-0.329739,-1.18811,9.38826,0.0381494,-2.27822,0.42569,-0.00327353,-0.0119298,0.0938773,1,0.000271675,0.00017203,-0.00035472,0.054335,0.034406,-0.070944,0.998374,0.00856185,0.0203383,-0.0525633,-0.0215015,0.548792,-0.897281,32.1875,3,30837,3135392
100,2,0.998353,0.00861367,0.0205186,-0.0528868,-0.365511,0.119056,10.0173,0.281325,-0.525291,1.32234,-0.00360947,0.00117681,0.100175,1,8.02407e-05,0.000224001,-0.000320369,0.0160482,0.0448001,-0.0640739,0.998353,0.00861367,0.0205186,-0.0528868,-0.0214108,0.549208,-0.893232,32.1875,3,30838,3135492
