frame_id,imu_idx,quat_w,quat_x,quat_y,quat_z,accel_x,accel_y,accel_z,free_accel_x,free_accel_y,free_accel_z,delta_v_x,delta_v_y,delta_v_z,delta_q_w,delta_q_x,delta_q_y,delta_q_z,rate_x,rate_y,rate_z,quat_w,quat_x,quat_y,quat_z,mag_x,mag_y,mag_z,temperature,status_byte,packet_counter,time_fine
1,1,0.999081,-0.00488647,0.0425824,-0.000203982,-0.781437,-0.060891,9.79517,0.179549,-0.437662,1.04543,-0.007816,-0.000617791,0.0979515,1,4.46886e-05,-8.38189e-06,8.11547e-06,0.00893772,-0.00167638,0.00162309,0.999081,-0.00488647,0.0425824,-0.000203982,0.0488183,0.493029,-1.03319,31.5,1,17314,1780083
1,2,0.999082,-0.00483163,0.0425609,-0.000214876,-0.755538,-0.0585149,9.79434,0.193168,-0.438795,1.04256,-0.00755736,-0.000594289,0.0979432,1,4.58137e-05,-1.01755e-05,1.09502e-05,0.00916275,-0.0020351,0.00219004,0.999082,-0.00483163,0.0425609,-0.000214876,0.0464815,0.489626,-1.03275,31.5,1,17315,1780183
1,3,0.999083,-0.00477026,0.0425387,-0.00020682,-0.798568,-0.0652995,9.76743,0.170331,-0.455416,1.01745,-0.00798885,-0.000658346,0.097674,1,2.61943e-05,-1.63447e-05,1.46556e-05,0.00523887,-0.00326893,0.00293112,0.999083,-0.00477026,0.0425387,-0.00020682,0.0453091,0.487994,-1.02268,31.5,1,17317,1780383
1,4,0.999084,-0.00469448,0.0425298,-0.000176801,-0.822053,-0.0710652,9.77499,0.139082,-0.459619,1.02482,-0.00822021,-0.000717113,0.0977499,1,3.15626e-05,1.51643e-06,1.77136e-05,0.00631252,0.000303286,0.00354273,0.999084,-0.00469448,0.0425298,-0.000176801,0.0494678,0.49242,-1.02664,31.5,1,17319,1780583
2,1,0.999085,-0.00460726,0.042522,-0.000155734,-0.788393,-0.0611961,9.78401,0.170793,-0.445536,1.0337,-0.00788349,-0.000621066,0.0978401,1,4.63165e-05,2.23715e-06,2.62983e-06,0.00926331,0.00044743,0.000525966,0.999085,-0.00460726,0.042522,-0.000155734,0.0475296,0.488109,-1.03026,31.5,1,17321,1780783
2,2,0.999085,-0.00451948,0.042524,-0.000138686,-0.823532,-0.0328781,9.75802,0.136696,-0.413116,1.0126,-0.0082342,-0.000337022,0.0975803,1,4.14048e-05,5.72798e-06,9.71717e-06,0.00828096,0.0011456,0.00194343,0.999085,-0.00451948,0.042524,-0.000138686,0.0462832,0.486532,-1.02322,31.5,1,17323,1780983
2,3,0.999085,-0.00447683,0.0425253,-0.000137929,-0.825097,-0.0473592,9.76164,0.132425,-0.425835,1.0077,-0.00825064,-0.000481866,0.0976164,1,4.21889e-05,1.66138e-06,2.24452e-06,0.00843778,0.000332277,0.000448904,0.999085,-0.00447683,0.0425253,-0.000137929,0.0476212,0.491416,-1.02413,31.5,1,17324,1781083
2,4,0.999086,-0.00439118,0.0425288,-0.000142775,-0.822981,-0.0801197,9.76238,0.139261,-0.468669,1.01077,-0.00823149,-0.000808846,0.0976236,1,3.89162e-05,-8.62047e-06,3.08253e-06,0.00778325,-0.00172409,0.000616505,0.999086,-0.00439118,0.0425288,-0.000142775,0.0474485,0.491542,-1.0312,31.5,1,17326,1781283
3,1,0.999087,-0.00430846,0.0424938,-0.000136219,-0.811984,-0.081596,9.78366,0.131997,-0.474669,1.0272,-0.00812208,-0.000824157,0.0978364,1,4.13972e-05,-1.15206e-05,5.99968e-06,0.00827945,-0.00230411,0.00119994,0.999087,-0.00430846,0.0424938,-0.000136219,0.0437993,0.486127,-1.02676,31.5,1,17328,1781483
3,2,0.999088,-0.00423149,0.042486,-9.44309e-05,-0.756727,-0.0553038,9.79708,0.234692,-0.441817,1.04963,-0.00756973,-0.000561347,0.0979705,1,4.04825e-05,-1.26808e-05,2.48425e-05,0.00809651,-0.00253617,0.0049685,0.999088,-0.00423149,0.042486,-9.44309e-05,0.0491015,0.491377,-1.02262,31.5,1,17330,1781683
3,3,0.99909,-0.00414751,0.0424581,-5.31511e-05,-0.687549,-0.0418538,9.81032,0.243029,-0.445208,1.0407,-0.00687852,-0.000423879,0.0981029,1,2.5347e-05,-1.55566e-05,2.67904e-05,0.00506939,-0.00311133,0.00535809,0.99909,-0.00414751,0.0424581,-5.31511e-05,0.0483898,0.490585,-1.03274,31.5,1,17332,1781883
3,4,0.99909,-0.00405918,0.0424484,-3.98716e-05,-0.722376,-0.0757408,9.7709,0.26052,-0.464691,1.02731,-0.00722454,-0.000763594,0.0977089,1,3.06889e-05,-4.06998e-06,1.30757e-05,0.00613779,-0.000813996,0.00261515,0.99909,-0.00405918,0.0424484,-3.98716e-05,0.0457162,0.488044,-1.02571,31.5,1,17334,1782083
4,1,0.999092,-0.00400863,0.042423,-3.73544e-05,-0.695679,-0.0671772,9.77792,0.274121,-0.450104,1.0168,-0.00696138,-0.000681633,0.0977788,1,5.01163e-05,-2.35066e-05,4.36595e-06,0.0100233,-0.00470131,0.00087319,0.999092,-0.00400863,0.042423,-3.73544e-05,0.0453053,0.488961,-1.02215,31.5,1,17335,1782183
4,2,0.999093,-0.00392907,0.0424031,-6.5057e-06,-0.718696,-0.0581846,9.77678,0.231206,-0.466292,1.01572,-0.00718906,-0.000589168,0.0977677,1,3.60329e-05,-1.08348e-05,1.92153e-05,0.00720658,-0.00216696,0.00384307,0.999093,-0.00392907,0.0424031,-6.5057e-06,0.048432,0.493928,-1.02862,31.5,1,17337,1782383
4,3,0.999094,-0.00385346,0.0423751,1.42673e-05,-0.711927,-0.0510023,9.78223,0.242433,-0.447073,1.0244,-0.00712133,-0.00051798,0.0978221,1,3.93688e-05,-1.06487e-05,1.78983e-05,0.00787376,-0.00212973,0.00357966,0.999094,-0.00385346,0.0423751,1.42673e-05,0.0456502,0.487611,-1.02875,31.5,1,17339,1782583
4,4,0.999096,-0.00377477,0.042352,3.72745e-05,-0.718523,-0.0607635,9.76454,0.24992,-0.462099,1.01193,-0.00718471,-0.000616194,0.0976454,1,4.25913e-05,2.53513e-06,1.68513e-05,0.00851825,0.000507026,0.00337025,0.999096,-0.00377477,0.042352,3.72745e-05,0.045358,0.486513,-1.0217,31.5,1,17341,1782783
5,1,0.999097,-0.00366432,0.0423245,3.31814e-05,-0.656466,-0.0934817,9.792,0.278704,-0.492362,1.01607,-0.00656567,-0.000945874,0.0979199,1,5.64605e-05,-5.15245e-06,-1.48027e-08,0.0112921,-0.00103049,-2.96054e-06,0.999097,-0.00366432,0.0423245,3.31814e-05,0.0479798,0.494392,-1.0271,31.5,1,17343,1782983
5,2,0.999097,-0.00362452,0.0423328,3.86174e-05,-0.693194,-0.0779042,9.78288,0.259803,-0.488327,1.01645,-0.00692928,-0.00078664,0.0978289,1,3.83425e-05,1.35158e-05,6.87498e-06,0.0076685,0.00270315,0.001375,0.999097,-0.00362452,0.0423328,3.86174e-05,0.0474076,0.492535,-1.03219,31.5,1,17344,1783083
5,3,0.999098,-0.00352828,0.0423143,4.89707e-05,-0.758695,-0.0633583,9.78481,0.191562,-0.459327,1.02556,-0.00758861,-0.000643041,0.097848,1,4.72404e-05,-8.54599e-06,1.40647e-05,0.00944809,-0.0017092,0.00281293,0.999098,-0.00352828,0.0423143,4.89707e-05,0.0466941,0.485616,-1.02678,31.5,1,17346,1783283
5,4,0.999099,-0.00344125,0.042301,7.09842e-05,-0.768338,-0.058718,9.77983,0.205157,-0.46631,1.02667,-0.00768514,-0.000593229,0.0977981,1,2.94111e-05,-9.09719e-06,1.93381e-05,0.00588221,-0.00181944,0.00386763,0.999099,-0.00344125,0.042301,7.09842e-05,0.0476344,0.494297,-1.02154,31.5,1,17348,1783483
6,1,0.9991,-0.00334924,0.0422784,9.89947e-05,-0.751538,-0.067359,9.78914,0.205257,-0.481098,1.02839,-0.00751664,-0.000682156,0.0978912,1,4.25782e-05,-6.57677e-06,1.53166e-05,0.00851565,-0.00131535,0.00306331,0.9991,-0.00334924,0.0422784,9.89947e-05,0.0469308,0.493018,-1.03167,31.5,1,17350,1783683
6,2,0.999103,-0.00325434,0.0422297,0.000131678,-0.770268,-0.0660349,9.77572,0.177395,-0.483277,1.02243,-0.00770553,-0.000670423,0.0977569,1,5.01386e-05,-1.4676e-05,1.76243e-05,0.0100277,-0.0029352,0.00352486,0.999103,-0.00325434,0.0422297,0.000131678,0.0438036,0.486606,-1.02624,31.5,1,17352,1783883
6,3,0.999105,-0.00315007,0.0421773,0.000170772,-0.792801,-0.0723284,9.79414,0.159824,-0.482562,1.03473,-0.00793164,-0.000732099,0.097941,1,4.32099e-05,-1.86897e-05,2.21186e-05,0.00864197,-0.00373793,0.00442372,0.999105,-0.00315007,0.0421773,0.000170772,0.0471979,0.492341,-1.02108,31.5,1,17354,1784083
6,4,0.999107,-0.00309858,0.04215,0.000186924,-0.801101,-0.068376,9.77964,0.146407,-0.485908,1.02348,-0.00801483,-0.000693802,0.097796,1,4.98723e-05,-1.96826e-05,1.79279e-05,0.00997446,-0.00393652,0.00358558,0.999107,-0.00309858,0.04215,0.000186924,0.0494887,0.493369,-1.02511,31.5,1,17355,1784183
7,1,0.999109,-0.00301831,0.0420952,0.000199254,-0.764722,-0.043888,9.77213,0.17758,-0.471301,1.01626,-0.00765018,-0.000446702,0.097721,1,3.93595e-05,-1.519e-05,8.49176e-06,0.0078719,-0.00303801,0.00169835,0.999109,-0.00301831,0.0420952,0.000199254,0.0451444,0.487633,-1.02976,31.5,1,17357,1784383
7,2,0.999111,-0.00292147,0.0420519,0.000210441,-0.776684,-0.0535339,9.78333,0.170755,-0.47259,1.02838,-0.00777104,-0.000544799,0.097833,1,4.74677e-05,-2.1521e-05,1.10267e-05,0.00949353,-0.00430421,0.00220535,0.999111,-0.00292147,0.0420519,0.000210441,0.0467448,0.489915,-1.02163,31.5,1,17359,1784583
7,3,0.999113,-0.00283054,0.0420093,0.000241428,-0.826205,-0.0575692,9.76733,0.131498,-0.483515,1.01415,-0.00826488,-0.00058369,0.0976731,1,3.93967e-05,-1.45752e-05,1.82448e-05,0.00787934,-0.00291504,0.00364897,0.999113,-0.00283054,0.0420093,0.000241428,0.0480245,0.492432,-1.02664,31.5,1,17361,1784783
7,4,0.999115,-0.00274594,0.0419608,0.00028847,-0.753624,-0.0587968,9.77431,0.191854,-0.486513,1.0165,-0.00753962,-0.000596756,0.0977428,1,4.2541e-05,-1.74568e-05,3.12587e-05,0.00850821,-0.00349137,0.00625175,0.999115,-0.00274594,0.0419608,0.00028847,0.0456825,0.48566,-1.0288,31.5,1,17363,1784983
8,1,0.999117,-0.00269943,0.0419359,0.00030165,-0.703129,-0.0686489,9.7905,0.242299,-0.494877,1.02699,-0.00703446,-0.000695583,0.0979048,1,4.54299e-05,-1.6244e-05,1.40872e-05,0.00908599,-0.00324881,0.00281744,0.999117,-0.00269943,0.0419359,0.00030165,0.0453494,0.485555,-1.02274,31.5,1,17364,1785083
8,2,0.999117,-0.0026313,0.0419206,0.000337581,-0.701973,-0.0549921,9.77193,0.251021,-0.48086,1.00606,-0.0070177,-0.000556553,0.0977194,1,3.26539e-05,1.02819e-05,1.78256e-05,0.00653079,0.00205639,0.00356513,0.999117,-0.0026313,0.0419206,0.000337581,0.0476833,0.492816,-1.02056,31.5,1,17366,1785283
8,3,0.999118,-0.0025358,0.0419064,0.000357447,-0.74448,-0.0635934,9.78675,0.204652,-0.496657,1.02238,-0.00744507,-0.000644092,0.0978674,1,4.052e-05,-1.50316e-06,1.5188e-05,0.008104,-0.000300632,0.00303759,0.999118,-0.0025358,0.0419064,0.000357447,0.0455933,0.48958,-1.02972,31.5,1,17368,1785483
8,4,0.99912,-0.00244358,0.0418747,0.000386431,-0.740998,-0.0650023,9.79723,0.207528,-0.494984,1.03715,-0.00741071,-0.000658622,0.0979722,1,4.21144e-05,-3.87229e-06,2.3421e-05,0.00842288,-0.000774458,0.00468419,0.99912,-0.00244358,0.0418747,0.000386431,0.0433756,0.485607,-1.02475,31.5,1,17370,1785683
9,1,0.999122,-0.00234383,0.0418367,0.000416583,-0.72321,-0.0712027,9.77977,0.226156,-0.505257,1.01945,-0.00723492,-0.000722252,0.0977974,1,5.10664e-05,-1.45083e-05,1.63723e-05,0.0102133,-0.00290167,0.00327445,0.999122,-0.00234383,0.0418367,0.000416583,0.0475889,0.493367,-1.02409,31.5,1,17372,1785883
9,2,0.999123,-0.00230445,0.041815,0.000408366,-0.707511,-0.055983,9.77706,0.215509,-0.498729,1.00425,-0.00707685,-0.000567325,0.0977705,1,3.83407e-05,-8.89232e-06,-1.4143e-07,0.00766814,-0.00177846,-2.82861e-05,0.999123,-0.00230445,0.041815,0.000408366,0.0474413,0.49492,-1.0291,31.5,1,17373,1785983
9,3,0.999124,-0.00221858,0.041777,0.000421765,-0.704383,-0.0783635,9.78804,0.259835,-0.515279,1.03096,-0.0070415,-0.000791542,0.0978805,1,3.90503e-05,1.17756e-05,1.86321e-05,0.00781007,0.00235511,0.00372643,0.999124,-0.00221858,0.041777,0.000421765,0.0446757,0.487628,-1.02925,31.5,1,17375,1786183
9,4,0.999125,-0.00213774,0.0417579,0.000483476,-0.736642,-0.0560342,9.80101,0.20252,-0.492085,1.04328,-0.00736605,-0.000570176,0.09801,1,4.88535e-05,1.76951e-06,1.74752e-05,0.0097707,0.000353903,0.00349504,0.999125,-0.00213774,0.0417579,0.000483476,0.0458557,0.486979,-1.02069,31.5,1,17377,1786383
10,1,0.999126,-0.00205626,0.0417444,0.000526982,-0.779414,-0.049055,9.76231,0.177371,-0.490887,1.01322,-0.00779051,-0.000496783,0.0976234,1,2.96159e-05,1.84643e-05,2.89514e-05,0.00592318,0.00369286,0.00579027,0.999126,-0.00205626,0.0417444,0.000526982,0.0480245,0.492432,-1.02664,31.5,1,17379,1786583
10,2,0.999129,-0.00198068,0.0416713,0.000534108,-0.751516,-0.0513194,9.78386,0.165977,-0.495388,1.01731,-0.00751933,-0.000520034,0.0978383,1,3.40064e-05,-2.13794e-05,1.23642e-05,0.00680127,-0.00427588,0.00247285,0.999129,-0.00198068,0.0416713,0.000534108,0.0475743,0.486149,-1.0298,31.5,1,17381,1786783
10,3,0.999132,-0.0018962,0.0416068,0.00058432,-0.811001,-0.0815094,9.77585,0.14712,-0.523409,1.01965,-0.00811205,-0.000823177,0.0977583,1,4.08478e-05,-1.04718e-05,5.92509e-06,0.00816956,-0.00209436,0.00118502,0.999132,-0.0018962,0.0416068,0.00058432,0.0472948,0.486488,-1.02121,31.5,1,17383,1786983
10,4,0.999133,-0.00184863,0.0415914,0.000619091,-0.730334,-0.0716438,9.78965,0.172099,-0.520384,1.01544,-0.00730539,-0.000725807,0.0978962,1,4.64619e-05,-1.06002e-05,1.863e-05,0.00929239,-0.00212004,0.00372599,0.999133,-0.00184863,0.0415914,0.000619091,0.0467078,0.489942,-1.02315,31.5,1,17384,1787083
11,1,0.999135,-0.00177527,0.0415464,0.000628746,-0.749515,-0.0779467,9.77309,0.182975,-0.519801,1.00661,-0.00749682,-0.000786321,0.0977307,1,3.46024e-05,-8.59619e-06,6.01078e-06,0.00692048,-0.00171924,0.00120216,0.999135,-0.00177527,0.0415464,0.000628746,0.0474485,0.491542,-1.0312,31.5,1,17386,1787283
11,2,0.999137,-0.00171207,0.0414886,0.000641101,-0.808008,-0.0537239,9.7591,0.16048,-0.4977,1.00601,-0.00808008,-0.000543297,0.0975909,1,3.00221e-05,-9.8789e-08,1.23102e-05,0.00600442,-1.97578e-05,0.00246204,0.999137,-0.00171207,0.0414886,0.000641101,0.0434449,0.483629,-1.02327,31.5,1,17388,1787483
11,3,0.999138,-0.00165343,0.0414747,0.000742752,-0.782701,-0.0554829,9.77758,0.13992,-0.504286,1.01538,-0.00782704,-0.000559843,0.0977757,1,2.44566e-05,-2.33013e-07,1.47651e-05,0.00489131,-4.66026e-05,0.00295302,0.999138,-0.00165343,0.0414747,0.000742752,0.0472098,0.490887,-1.02162,31.5,1,17390,1787683
11,4,0.99914,-0.00159013,0.0414376,0.000773668,-0.754669,-0.0682381,9.77795,0.178682,-0.519338,1.02153,-0.00754875,-0.000687026,0.0977793,1,2.27131e-05,-1.06525e-05,1.348e-05,0.00454261,-0.00213051,0.002696,0.99914,-0.00159013,0.0414376,0.000773668,0.0479215,0.492026,-1.03119,31.5,1,17392,1787883
12,1,0.999141,-0.00155956,0.0414024,0.000773147,-0.768679,-0.0658112,9.77197,0.165026,-0.517788,1.01166,-0.00768872,-0.000664878,0.0977195,1,3.31307e-05,-1.00306e-05,1.89246e-05,0.00662614,-0.00200612,0.00378492,0.999141,-0.00155956,0.0414024,0.000773147,0.04755,0.487613,-1.02977,31.5,1,17393,1787983
12,2,0.999144,-0.00148835,0.0413314,0.000853523,-0.684418,-0.0817445,9.79399,0.245961,-0.539938,1.0312,-0.00684594,-0.000824892,0.0979397,1,3.65748e-05,-9.15327e-06,2.06196e-05,0.00731496,-0.00183065,0.00412391,0.999144,-0.00148835,0.0413314,0.000853523,0.0458395,0.487954,-1.02066,31.5,1,17395,1788183
12,3,0.999145,-0.00139996,0.0413156,0.000872482,-0.713615,-0.0928107,9.79985,0.222602,-0.549033,1.03475,-0.0071352,-0.000937195,0.0979985,1,4.57541e-05,4.75857e-06,8.42289e-06,0.00915082,0.000951713,0.00168458,0.999145,-0.00139996,0.0413156,0.000872482,0.0479917,0.492938,-1.02763,31.5,1,17397,1788383
12,4,0.999146,-0.00130763,0.0412797,0.000866523,-0.707521,-0.0652241,9.78986,0.232526,-0.523167,1.02293,-0.00707276,-0.000663583,0.0978987,1,5.67698e-05,1.23936e-05,1.60467e-05,0.011354,0.00247873,0.00320933,0.999146,-0.00130763,0.0412797,0.000866523,0.0446633,0.487637,-1.02976,31.5,1,17399,1788583
13,1,0.999148,-0.00124124,0.0412395,0.000919329,-0.719237,-0.0631328,9.80049,0.237208,-0.527627,1.04077,-0.00719136,-0.000639879,0.0980049,1,4.21052e-05,5.00675e-06,2.06919e-05,0.00842104,0.00100135,0.00413838,0.999148,-0.00124124,0.0412395,0.000919329,0.0472786,0.487463,-1.02119,31.5,1,17401,1788783
13,2,0.999149,-0.00115018,0.0412131,0.000937996,-0.745381,-0.0525474,9.75937,0.1899,-0.511538,0.996269,-0.00745481,-0.000532673,0.0975936,1,3.65172e-05,-5.11852e-06,4.80347e-06,0.00730345,-0.0010237,0.000960694,0.999149,-0.00115018,0.0412131,0.000937996,0.0480159,0.491475,-1.02767,31.5,1,17403,1788983
13,3,0.999151,-0.0011135,0.0411842,0.000933542,-0.687602,-0.0655238,9.79551,0.238846,-0.524836,1.01875,-0.00687676,-0.000663663,0.097955,1,4.21982e-05,-3.8298e-06,1.14795e-05,0.00843965,-0.00076596,0.00229589,0.999151,-0.0011135,0.0411842,0.000933542,0.0474727,0.490079,-1.03123,31.5,1,17404,1789083
13,4,0.999153,-0.00105411,0.0411207,0.000949674,-0.732568,-0.0828068,9.77225,0.223186,-0.547736,1.01283,-0.00732518,-0.000836672,0.0977224,1,4.34332e-05,2.50122e-06,7.85291e-06,0.00868664,0.000500245,0.00157058,0.999153,-0.00105411,0.0411207,0.000949674,0.0457978,0.486057,-1.02374,31.5,1,17406,1789283
14,1,0.999154,-0.000973544,0.0410961,0.00102081,-0.711775,-0.0683611,9.78412,0.208888,-0.538005,1.01704,-0.00711838,-0.000691885,0.0978411,1,4.17531e-05,-3.24838e-06,7.32569e-06,0.00835062,-0.000649676,0.00146514,0.999154,-0.000973544,0.0410961,0.00102081,0.0481436,0.491863,-1.0221,31.5,1,17408,1789483
14,2,0.999156,-0.000885777,0.0410444,0.00100534,-0.712214,-0.0548958,9.7822,0.219159,-0.520204,1.02304,-0.00712346,-0.000560974,0.0978218,1,6.13314e-05,-6.79457e-06,1.19378e-06,0.0122663,-0.00135891,0.000238755,0.999156,-0.000885777,0.0410444,0.00100534,0.0469631,0.491067,-1.03171,31.5,1,17410,1789683
14,3,0.99916,-0.000811773,0.0409723,0.000991513,-0.743904,-0.0549358,9.77526,0.179886,-0.527361,1.00894,-0.00744039,-0.000559867,0.0977524,1,5.37858e-05,-6.88041e-06,-4.02424e-07,0.0107572,-0.00137608,-8.04847e-05,0.99916,-0.000811773,0.0409723,0.000991513,0.0433395,0.488525,-1.02418,31.5625,1,17412,1789883
14,4,0.999161,-0.00076966,0.0409482,0.00104135,-0.732549,-0.0819196,9.8085,0.194456,-0.555084,1.0493,-0.00732761,-0.000828554,0.0980847,1,4.61396e-05,-1.09541e-05,2.09323e-05,0.00922793,-0.00219082,0.00418647,0.999161,-0.00076966,0.0409482,0.00104135,0.0439274,0.487961,-1.02015,31.5625,1,17413,1789983
15,1,0.999161,-0.000687208,0.0409215,0.00107205,-0.751014,-0.0588457,9.79185,0.176494,-0.531387,1.02327,-0.00750928,-0.000595099,0.0979185,1,3.3984e-05,4.39941e-06,-9.03482e-07,0.0067968,0.000879881,-0.000180696,0.999161,-0.000687208,0.0409215,0.00107205,0.0475182,0.491009,-1.02868,31.5625,1,17415,1790183
15,2,0.999164,-0.000644553,0.0408545,0.00106705,-0.793568,-0.064913,9.77444,0.1311,-0.543123,1.01621,-0.00793655,-0.000654354,0.0977443,1,2.67196e-05,-4.44627e-06,5.22518e-08,0.00534393,-0.000889255,1.04504e-05,0.999164,-0.000644553,0.0408545,0.00106705,0.0475662,0.486637,-1.02979,31.5625,1,17417,1790383
15,3,0.999167,-0.000572748,0.040792,0.00112652,-0.778151,-0.0635412,9.773,0.147302,-0.530731,1.00514,-0.00778434,-0.000643989,0.0977297,1,4.27254e-05,-1.45639e-05,1.45547e-05,0.00854508,-0.00291279,0.00291093,0.999167,-0.000572748,0.040792,0.00112652,0.0472459,0.487969,-1.02219,31.5625,1,17419,1790583
15,4,0.999169,-0.000514185,0.040737,0.00115378,-0.80405,-0.075334,9.75882,0.120802,-0.556931,1.0018,-0.00804292,-0.000761689,0.0975879,1,4.14047e-05,-1.25619e-05,1.66353e-05,0.00828093,-0.00251237,0.00332706,0.999169,-0.000514185,0.040737,0.00115378,0.0489948,0.491937,-1.02665,31.5625,1,17421,1790783
16,1,0.999171,-0.000477391,0.0407,0.00115933,-0.81327,-0.0568225,9.76414,0.108515,-0.530806,1.00461,-0.00813515,-0.000577876,0.0976411,1,4.74175e-05,-1.27104e-05,2.40466e-05,0.00948351,-0.00254207,0.00480931,0.999171,-0.000477391,0.0407,0.00115933,0.0455686,0.489598,-1.03073,31.5625,1,17422,1790883
16,2,0.999173,-0.000419514,0.0406516,0.00117021,-0.725769,-0.0316158,9.78309,0.197655,-0.513626,1.02717,-0.00725698,-0.000326039,0.0978309,1,5.05894e-05,3.61939e-06,-1.22032e-06,0.0101179,0.000723878,-0.000244064,0.999173,-0.000419514,0.0406516,0.00117021,0.0481749,0.487022,-1.02423,31.5625,1,17424,1791083
16,3,0.999172,-0.00036806,0.0406659,0.00119494,-0.741714,-0.0380116,9.77634,0.179365,-0.534064,1.01413,-0.00741239,-0.000386837,0.0977637,1,3.43212e-05,2.4326e-05,7.02308e-07,0.00686424,0.0048652,0.000140462,0.999172,-0.00036806,0.0406659,0.00119494,0.0486285,0.490893,-1.02263,31.5625,1,17426,1791283
16,4,0.999172,-0.000320343,0.0406651,0.00116551,-0.896902,-0.0682933,9.79851,0.03891,-0.53225,1.04299,-0.00896612,-0.000691634,0.0979853,1,4.45619e-05,1.47688e-05,-1.79367e-06,0.00891239,0.00295377,-0.000358734,0.999172,-0.000320343,0.0406651,0.00116551,0.0469631,0.491067,-1.03171,31.5625,1,17428,1791483
17,1,0.999175,-0.000267801,0.040605,0.00115186,-0.840313,-0.0591844,9.80704,0.081761,-0.554717,1.05426,-0.00840329,-0.000599087,0.0980704,1,3.69921e-05,-7.98938e-07,-7.58131e-07,0.00739843,-0.000159788,-0.000151626,0.999175,-0.000267801,0.040605,0.00115186,0.0442724,0.486611,-1.02675,31.5625,1,17430,1791683
17,2,0.999179,-0.000215042,0.0405038,0.00121016,-0.853338,-0.0358124,9.76122,0.0550923,-0.530899,1.00944,-0.00854099,-0.000364783,0.0976115,1,3.2108e-05,-3.90991e-05,2.28469e-05,0.0064216,-0.00781983,0.00456939,0.999179,-0.000215042,0.0405038,0.00121016,0.0480207,0.493399,-1.02611,31.5625,1,17432,1791883
17,3,0.99918,-0.000196928,0.040463,0.00123761,-0.843084,-0.0699434,9.75982,0.069326,-0.559393,1.00131,-0.00843557,-0.000705643,0.0975978,1,2.79133e-05,-2.45462e-05,4.50295e-05,0.00558266,-0.00490923,0.00900591,0.99918,-0.000196928,0.040463,0.00123761,0.0469763,0.493949,-1.02912,31.5625,1,17433,1791983
17,4,0.999186,-0.000177287,0.0403264,0.00124081,-0.80979,-0.0815433,9.75375,0.107985,-0.561943,0.998519,-0.00810755,-0.000822458,0.0975367,1,3.45317e-05,-4.96338e-05,1.78609e-05,0.00690635,-0.00992675,0.00357218,0.999186,-0.000177287,0.0403264,0.00124081,0.0465755,0.48763,-1.03027,31.5625,1,17435,1792183
18,1,0.999189,-0.000122018,0.0402522,0.00132142,-0.853129,-0.108551,9.75175,0.0511146,-0.617163,1.00358,-0.00853408,-0.00109211,0.0975172,1,3.14842e-05,-1.45938e-05,2.70514e-05,0.00629684,-0.00291876,0.00541027,0.999189,-0.000122018,0.0402522,0.00132142,0.0477474,0.487468,-1.02169,31.5625,1,17437,1792383
18,2,0.999191,-7.85272e-05,0.0402071,0.0013648,-0.830371,-0.0633805,9.78897,0.0724498,-0.525635,1.02887,-0.00830818,-0.000639549,0.0978893,1,2.74591e-05,-2.29945e-05,2.21616e-05,0.00549183,-0.00459891,0.00443232,0.999191,-7.85272e-05,0.0402071,0.0013648,0.0479381,0.492495,-1.03017,31.5625,1,17439,1792583
18,3,0.999192,-1.62077e-05,0.0401642,0.0013506,-0.747861,-0.0648744,9.78941,0.166867,-0.532387,1.02332,-0.00748004,-0.000658483,0.0978939,1,4.99971e-05,-7.25678e-06,-3.32683e-06,0.00999943,-0.00145136,-0.000665366,0.999192,-1.62077e-05,0.0401642,0.0013506,0.0441818,0.486195,-1.0308,31.5625,1,17441,1792783
18,4,0.999193,1.51081e-05,0.0401468,0.00135936,-0.742827,-0.0663968,9.78257,0.159976,-0.556902,1.0259,-0.00742869,-0.000672831,0.0978256,1,4.60501e-05,-2.103e-06,-9.88132e-06,0.00921003,-0.000420601,-0.00197626,0.999193,1.51081e-05,0.0401468,0.00135936,0.0433472,0.486592,-1.02523,31.5625,1,17442,1792883
19,1,0.999195,8.47785e-05,0.0400816,0.00138244,-0.68208,-0.0810498,9.80716,0.227744,-0.581517,1.03655,-0.00682619,-0.000820745,0.0980712,1,5.20871e-05,-2.74607e-05,2.23511e-06,0.0104174,-0.00549215,0.000447021,0.999195,8.47785e-05,0.0400816,0.00138244,0.0485426,0.492401,-1.02512,31.5625,1,17444,1793083
19,2,0.999198,0.000146478,0.04001,0.00134937,-0.676635,-0.0655427,9.78689,0.234969,-0.552699,1.01989,-0.00677105,-0.000665012,0.0978685,1,4.88069e-05,-2.40169e-05,2.33566e-06,0.00976139,-0.00480338,0.000467132,0.999198,0.000146478,0.04001,0.00134937,0.0469958,0.490561,-1.03071,31.5625,1,17446,1793283
19,3,0.999201,0.000181109,0.0399406,0.00137595,-0.751909,-0.0674742,9.76194,0.152848,-0.559628,0.996727,-0.0075239,-0.000680988,0.097619,1,3.13522e-05,-2.46986e-05,8.28681e-06,0.00627043,-0.00493971,0.00165736,0.999201,0.000181109,0.0399406,0.00137595,0.0438164,0.488042,-1.02469,31.5625,1,17448,1793483
19,4,0.999204,0.000261541,0.0398691,0.00139745,-0.743838,-0.0407545,9.78823,0.157108,-0.547219,1.02397,-0.0074428,-0.000417684,0.0978819,1,5.13344e-05,-2.26275e-05,6.03695e-06,0.0102669,-0.0045255,0.00120739,0.999204,0.000261541,0.0398691,0.00139745,0.0475931,0.493846,-1.02357,31.5625,1,17450,1793683
20,1,0.999207,0.000332676,0.0397958,0.00139983,-0.761854,-0.0405665,9.78599,0.137164,-0.538408,1.02312,-0.00762359,-0.000415956,0.0978594,1,5.16624e-05,-2.58719e-05,1.17404e-05,0.0103325,-0.00517438,0.00234808,0.999207,0.000332676,0.0397958,0.00139983,0.045524,0.491558,-1.03119,31.5625,1,17452,1793883
20,2,0.999208,0.000364159,0.0397675,0.00141649,-0.75614,-0.0497212,9.78552,0.147141,-0.548058,1.02097,-0.0075636,-0.000506979,0.097855,1,4.83189e-05,-1.1334e-05,2.0519e-05,0.00966377,-0.0022668,0.0041038,0.999208,0.000364159,0.0397675,0.00141649,0.0451981,0.488075,-1.02722,31.5625,1,17453,1793983
20,3,0.99921,0.000412916,0.0397251,0.00143801,-0.700399,-0.0609205,9.77317,0.197946,-0.56661,1.00624,-0.00700571,-0.000617391,0.0977315,1,4.15425e-05,-8.81782e-06,4.69027e-06,0.0083085,-0.00176356,0.000938054,0.99921,0.000412916,0.0397251,0.00143801,0.0463577,0.487923,-1.01915,31.5625,1,17455,1794183
20,4,0.999211,0.000454102,0.0396817,0.00143746,-0.682494,-0.0795864,9.79087,0.214572,-0.579498,1.01259,-0.00682564,-0.000804877,0.0979085,1,4.5456e-05,-3.64856e-06,8.13436e-06,0.00909119,-0.000729713,0.00162687,0.999211,0.000454102,0.0396817,0.00143746,0.0475391,0.491958,-1.02715,31.5625,1,17457,1794383
21,1,0.999212,0.000516376,0.0396605,0.00144241,-0.668483,-0.0856451,9.78937,0.230412,-0.588238,1.01912,-0.00668484,-0.000866176,0.0978936,1,4.89541e-05,-1.56449e-07,1.05127e-05,0.00979081,-3.12898e-05,0.00210254,0.999212,0.000516376,0.0396605,0.00144241,0.0451777,0.488572,-1.02772,31.5625,1,17459,1794583
21,2,0.999214,0.00057204,0.0396232,0.00146571,-0.703389,-0.0886279,9.78755,0.195499,-0.592734,1.01944,-0.00703588,-0.000895714,0.0978752,1,4.68046e-05,-1.03094e-05,1.94515e-05,0.00936093,-0.00206189,0.0038903,0.999214,0.00057204,0.0396232,0.00146571,0.0467814,0.488443,-1.02116,31.5625,1,17461,1794783
21,3,0.999214,0.000601098,0.0396006,0.0014652,-0.709974,-0.0750833,9.79348,0.195295,-0.579693,1.021,-0.00710106,-0.000759946,0.0979346,1,4.61452e-05,-6.76894e-06,5.24891e-06,0.00922903,-0.00135379,0.00104978,0.999214,0.000601098,0.0396006,0.0014652,0.0476539,0.49091,-1.02313,31.5625,1,17462,1794883
21,4,0.999216,0.000674958,0.0395468,0.00146326,-0.744407,-0.0595231,9.79181,0.14687,-0.567552,1.02416,-0.00744653,-0.000606595,0.0979178,1,5.6237e-05,-1.26658e-05,2.35848e-05,0.0112474,-0.00253316,0.00471695,0.999216,0.000674958,0.0395468,0.00146326,0.0464654,0.490601,-1.03273,31.5625,1,17464,1795083
22,1,0.999218,0.000731885,0.039499,0.00150471,-0.745593,-0.0483164,9.77698,0.145497,-0.558651,1.01555,-0.00745857,-0.000491466,0.0977696,1,4.01252e-05,-1.3616e-05,3.05677e-05,0.00802504,-0.0027232,0.00611354,0.999218,0.000731885,0.039499,0.00150471,0.044391,0.484597,-1.02326,31.5625,1,17466,1795283
22,2,0.99922,0.00077855,0.0394504,0.0015353,-0.738419,-0.0480614,9.78881,0.153362,-0.556443,1.01985,-0.00738612,-0.000487655,0.0978879,1,3.49618e-05,-9.93373e-06,1.32806e-05,0.00699237,-0.00198675,0.00265611,0.99922,0.00077855,0.0394504,0.0015353,0.0471362,0.492386,-1.0236,31.5625,1,17468,1795483
22,3,0.999222,0.00082554,0.0393987,0.00152963,-0.766293,-0.0523552,9.78218,0.124667,-0.561718,1.01412,-0.00766522,-0.000531792,0.0978215,1,4.10583e-05,-1.1746e-05,1.35133e-05,0.00821166,-0.00234919,0.00270266,0.999222,0.00082554,0.0393987,0.00152963,0.0469588,0.490588,-1.03223,31.5625,1,17470,1795683
22,4,0.999224,0.000889354,0.0393433,0.00153705,-0.75975,-0.0760268,9.78633,0.132261,-0.590187,1.02723,-0.00759852,-0.000771422,0.0978631,1,5.66411e-05,-5.23599e-06,4.43526e-06,0.0113282,-0.0010472,0.000887053,0.999224,0.000889354,0.0393433,0.00153705,0.0462457,0.485114,-1.02578,31.5625,1,17472,1795883
23,1,0.999225,0.000908922,0.0393163,0.00154633,-0.752101,-0.073921,9.79615,0.138014,-0.585923,1.03266,-0.00752363,-0.000746384,0.0979612,1,3.60254e-05,-1.34484e-05,7.71697e-06,0.00720507,-0.00268968,0.00154339,0.999225,0.000908922,0.0393163,0.00154633,0.048257,0.48648,-1.02121,31.5625,1,17473,1795983
23,2,0.999227,0.000944648,0.0392787,0.00155045,-0.784296,-0.0661535,9.78082,0.102575,-0.573987,1.01577,-0.00784417,-0.000668465,0.097808,1,3.43118e-05,-6.30662e-06,1.39028e-05,0.00686236,-0.00126132,0.00278056,0.999227,0.000944648,0.0392787,0.00155045,0.0464948,0.492507,-1.03016,31.5625,1,17475,1796183
23,3,0.999228,0.000962956,0.0392361,0.00156668,-0.795202,-0.0648002,9.76292,0.0937444,-0.580351,1.00097,-0.00795422,-0.00065332,0.097629,1,2.54196e-05,-1.13994e-05,2.23275e-05,0.00508393,-0.00227987,0.00446549,0.999228,0.000962956,0.0392361,0.00156668,0.0466163,0.486636,-1.02928,31.5625,1,17477,1796383
23,4,0.99923,0.00100995,0.0392012,0.00159017,-0.800832,-0.0732963,9.7924,0.0867064,-0.589706,1.03142,-0.00800911,-0.000739817,0.0979239,1,3.43863e-05,-4.09043e-06,7.46174e-06,0.00687726,-0.000818087,0.00149235,0.99923,0.00100995,0.0392012,0.00159017,0.0467809,0.486998,-1.0222,31.5625,1,17479,1796583
24,1,0.999231,0.00105964,0.0391665,0.00157407,-0.76501,-0.0642742,9.78206,0.12271,-0.579274,1.01529,-0.00764941,-0.000651726,0.0978206,1,4.56516e-05,3.50555e-06,3.47386e-06,0.00913031,0.000701109,0.000694771,0.999231,0.00105964,0.0391665,0.00157407,0.0484766,0.491968,-1.02816,31.5625,1,17481,1796783
24,2,0.999232,0.00108325,0.0391286,0.00155901,-0.764965,-0.0723397,9.77929,0.116826,-0.589359,1.01595,-0.00765445,-0.000732436,0.0977925,1,4.59906e-05,-2.45812e-05,2.87198e-06,0.00919813,-0.00491625,0.000574396,0.999232,0.00108325,0.0391286,0.00155901,0.0479291,0.490093,-1.03224,31.5625,1,17482,1796883
24,3,0.999234,0.00111956,0.0390895,0.0015777,-0.786552,-0.0713953,9.77198,0.0985234,-0.586282,1.01301,-0.00786879,-0.000724393,0.0977194,1,5.23142e-05,-1.68291e-05,1.37089e-05,0.0104629,-0.00336582,0.00274178,0.999234,0.00111956,0.0390895,0.0015777,0.04336,0.488028,-1.02368,31.5625,1,17484,1797083
24,4,0.999235,0.00118292,0.0390446,0.00160219,-0.782949,-0.0500044,9.77655,0.0966188,-0.570341,1.0102,-0.00783286,-0.000508513,0.0977652,1,4.20642e-05,-1.73114e-05,1.55994e-05,0.00841284,-0.00346229,0.00311988,0.999235,0.00118292,0.0390446,0.00160219,0.047597,0.492879,-1.0241,31.5625,1,17486,1797283
25,1,0.999238,0.00121209,0.0389893,0.00159209,-0.763431,-0.0591177,9.78923,0.119435,-0.582995,1.0174,-0.00763829,-0.000598829,0.0978919,1,3.87523e-05,-2.0355e-05,4.21909e-06,0.00775047,-0.004071,0.000843817,0.999238,0.00121209,0.0389893,0.00159209,0.0464654,0.490601,-1.03273,31.5625,1,17488,1797483
25,2,0.999239,0.00127257,0.0389534,0.00162306,-0.743467,-0.0619783,9.78601,0.139082,-0.581281,1.0269,-0.00743651,-0.000628209,0.0978599,1,4.18387e-05,-9.50137e-06,1.59723e-05,0.00836774,-0.00190027,0.00319446,0.999239,0.00127257,0.0389534,0.00162306,0.0438648,0.485116,-1.02476,31.5625,1,17490,1797683
25,3,0.99924,0.00130607,0.0389288,0.00162632,-0.720682,-0.0466463,9.7843,0.164425,-0.565819,1.01938,-0.00720979,-0.000476873,0.0978427,1,5.2819e-05,-1.51992e-05,5.09965e-06,0.0105638,-0.00303985,0.00101993,0.99924,0.00130607,0.0389288,0.00162632,0.0448161,0.489453,-1.02214,31.5625,1,17491,1797783
25,4,0.999241,0.00135808,0.0388978,0.00163304,-0.723391,-0.0610201,9.78079,0.155824,-0.588851,1.0106,-0.00723579,-0.000619849,0.0978077,1,4.78291e-05,-9.72662e-06,2.01929e-05,0.00956582,-0.00194532,0.00403857,0.999241,0.00135808,0.0388978,0.00163304,0.0484686,0.492455,-1.02815,31.5625,1,17493,1797983
26,1,0.999242,0.0013945,0.0388635,0.00165203,-0.734673,-0.0558105,9.78159,0.152327,-0.578326,1.01739,-0.00734844,-0.000567073,0.0978157,1,4.43868e-05,-8.84801e-06,1.939e-05,0.00887736,-0.0017696,0.003878,0.999242,0.0013945,0.0388635,0.00165203,0.0456541,0.486644,-1.02928,31.5625,1,17495,1798183
26,2,0.999243,0.00143856,0.0388459,0.00168291,-0.752882,-0.0755356,9.78901,0.12286,-0.595732,1.02113,-0.00752933,-0.000762777,0.09789,1,3.62713e-05,-2.7847e-06,2.12676e-05,0.00725426,-0.00055694,0.00425352,0.999243,0.00143856,0.0388459,0.00168291,0.0467448,0.489915,-1.02163,31.5625,1,17497,1798383
26,3,0.999244,0.00149035,0.038806,0.00169125,-0.745034,-0.0506039,9.78,0.127099,-0.576794,1.00645,-0.00745094,-0.000515722,0.0977999,1,4.85498e-05,-3.1423e-06,1.25562e-05,0.00970997,-0.000628461,0.00251125,0.999244,0.00149035,0.038806,0.00169125,0.0484116,0.494424,-1.02912,31.5625,1,17499,1798583
26,4,0.999245,0.00151996,0.038785,0.00169,-0.709535,-0.071571,9.78026,0.164758,-0.600348,1.0151,-0.00709496,-0.000723342,0.0978025,1,3.82084e-05,1.95226e-06,1.1148e-05,0.00764169,0.000390452,0.00222961,0.999245,0.00151996,0.038785,0.00169,0.0442273,0.487126,-1.02825,31.5625,1,17501,1798783
27,1,0.999245,0.00155055,0.0387869,0.00170352,-0.732907,-0.06301,9.76827,0.145355,-0.586365,1.00633,-0.00732685,-0.000640231,0.0976828,1,5.07849e-05,1.13099e-05,1.42885e-05,0.010157,0.00226198,0.0028577,0.999245,0.00155055,0.0387869,0.00170352,0.0428992,0.487536,-1.02319,31.5625,1,17502,1798883
27,2,0.999245,0.00157285,0.0387717,0.00171211,-0.750221,-0.0662234,9.78602,0.130545,-0.59178,1.01511,-0.00750327,-0.0006684,0.0978601,1,3.0689e-05,-5.5247e-06,1.06356e-05,0.0061378,-0.00110494,0.00212713,0.999245,0.00157285,0.0387717,0.00171211,0.0490484,0.492379,-1.02412,31.5625,1,17504,1799083
27,3,0.999245,0.00157285,0.0387717,0.00171211,-0.750221,-0.0662234,9.78602,0.130545,-0.59178,1.01511,-0.00750327,-0.0006684,0.0978601,1,3.0689e-05,-5.5247e-06,1.06356e-05,0.0061378,-0.00110494,0.00212713,0.999245,0.00157285,0.0387717,0.00171211,0.0490484,0.492379,-1.02412,31.5625,1,17504,1799083
27,4,0.999246,0.00159002,0.0387632,0.00172292,-0.75025,-0.0735119,9.79849,0.126784,-0.601876,1.02933,-0.00750225,-0.000743077,0.0979849,1,3.88844e-05,1.10652e-06,2.25215e-05,0.00777688,0.000221304,0.0045043,0.999246,0.00159002,0.0387632,0.00172292,0.0489084,0.492,-1.03018,31.5625,1,17505,1799183
28,1,0.999246,0.00161282,0.0387414,0.00173624,-0.747557,-0.0572703,9.78743,0.127261,-0.589329,1.019,-0.00747791,-0.000581824,0.0978741,1,4.49064e-05,-1.20832e-05,2.20668e-05,0.00898128,-0.00241663,0.00441337,0.999246,0.00161282,0.0387414,0.00173624,0.0455193,0.489634,-1.03275,31.5625,1,17506,1799283
28,2,0.999247,0.00167191,0.0387144,0.00176574,-0.76706,-0.0767352,9.78401,0.107238,-0.607305,1.02348,-0.0076717,-0.000778713,0.0978399,1,5.66563e-05,-5.76836e-06,1.79254e-05,0.0113313,-0.00115367,0.00358509,0.999247,0.00167191,0.0387144,0.00176574,0.0443791,0.486051,-1.02272,31.5625,1,17508,1799483
28,3,0.999247,0.00167191,0.0387144,0.00176574,-0.76706,-0.0767352,9.78401,0.107238,-0.607305,1.02348,-0.0076717,-0.000778713,0.0978399,1,5.66563e-05,-5.76836e-06,1.79254e-05,0.0113313,-0.00115367,0.00358509,0.999247,0.00167191,0.0387144,0.00176574,0.0443791,0.486051,-1.02272,31.5625,1,17508,1799483
28,4,0.999247,0.00167191,0.0387144,0.00176574,-0.76706,-0.0767352,9.78401,0.107238,-0.607305,1.02348,-0.0076717,-0.000778713,0.0978399,1,5.66563e-05,-5.76836e-06,1.79254e-05,0.0113313,-0.00115367,0.00358509,0.999247,0.00167191,0.0387144,0.00176574,0.0443791,0.486051,-1.02272,31.5625,1,17508,1799483
29,1,0.999248,0.00170044,0.0386894,0.00176379,-0.750963,-0.0712733,9.78394,0.12363,-0.599585,1.01277,-0.00750945,-0.000720583,0.0978393,1,3.93558e-05,8.40113e-07,9.92417e-06,0.00787117,0.000168023,0.00198483,0.999248,0.00170044,0.0386894,0.00176379,0.0481189,0.491881,-1.02311,31.5625,1,17510,1799683
29,2,0.999249,0.00173826,0.0386759,0.00176481,-0.745443,-0.0724817,9.78186,0.130638,-0.61044,1.01113,-0.00745538,-0.000736816,0.0978184,1,6.03312e-05,-4.92628e-06,1.30886e-05,0.0120662,-0.000985256,0.00261772,0.999249,0.00173826,0.0386759,0.00176481,0.048432,0.493928,-1.02862,31.5625,1,17511,1799783
29,3,0.999249,0.00175299,0.0386583,0.00176609,-0.767993,-0.0581102,9.77569,0.106754,-0.592308,1.00887,-0.00768166,-0.00058861,0.0977568,1,3.75119e-05,-8.92416e-06,1.1334e-05,0.00750237,-0.00178483,0.0022668,0.999249,0.00175299,0.0386583,0.00176609,0.0455359,0.490104,-1.03173,31.5625,1,17512,1799883
29,4,0.999249,0.00175299,0.0386583,0.00176609,-0.767993,-0.0581102,9.77569,0.106754,-0.592308,1.00887,-0.00768166,-0.00058861,0.0977568,1,3.75119e-05,-8.92416e-06,1.1334e-05,0.00750237,-0.00178483,0.0022668,0.999249,0.00175299,0.0386583,0.00176609,0.0455359,0.490104,-1.03173,31.5625,1,17512,1799883
30,1,0.999251,0.00182076,0.038617,0.00177656,-0.785234,-0.069369,9.77774,0.0862039,-0.603024,1.01762,-0.0078555,-0.000705154,0.0977771,1,5.77941e-05,-1.61903e-05,1.03378e-05,0.0115588,-0.00323805,0.00206756,0.999251,0.00182076,0.038617,0.00177656,0.0453172,0.487507,-1.02269,31.5625,3,17514,1800083
30,2,0.999251,0.00182076,0.038617,0.00177656,-0.785234,-0.069369,9.77774,0.0862039,-0.603024,1.01762,-0.0078555,-0.000705154,0.0977771,1,5.77941e-05,-1.61903e-05,1.03378e-05,0.0115588,-0.00323805,0.00206756,0.999251,0.00182076,0.038617,0.00177656,0.0453172,0.487507,-1.02269,31.5625,3,17514,1800083
30,3,0.999252,0.00185563,0.0385917,0.00177397,-0.773556,-0.0690386,9.7926,0.0988309,-0.603409,1.02989,-0.00773914,-0.000701498,0.0979256,1,5.64195e-05,-1.82744e-05,4.03464e-06,0.0112839,-0.00365489,0.000806927,0.999252,0.00185563,0.0385917,0.00177397,0.0453423,0.488934,-1.02064,31.5625,3,17515,1800183
30,4,0.999252,0.00185563,0.0385917,0.00177397,-0.773556,-0.0690386,9.7926,0.0988309,-0.603409,1.02989,-0.00773914,-0.000701498,0.0979256,1,5.64195e-05,-1.82744e-05,4.03464e-06,0.0112839,-0.00365489,0.000806927,0.999252,0.00185563,0.0385917,0.00177397,0.0453423,0.488934,-1.02064,31.5625,3,17515,1800183
31,1,0.999253,0.00188597,0.0385721,0.00176665,-0.762323,-0.0552598,9.77737,0.107327,-0.593528,1.01076,-0.00762291,-0.000560088,0.0977737,1,3.74225e-05,1.57793e-06,1.13173e-05,0.00748449,0.000315586,0.00226345,0.999253,0.00188597,0.0385721,0.00176665,0.0474983,0.492951,-1.02814,31.5625,3,17517,1800383
31,2,0.999253,0.00189791,0.0385575,0.00177311,-0.762585,-0.0574681,9.78922,0.110233,-0.595734,1.02275,-0.00762727,-0.00058173,0.097892,1,3.48146e-05,-7.34814e-06,1.52795e-05,0.00696292,-0.00146963,0.0030559,0.999253,0.00189791,0.0385575,0.00177311,0.0455031,0.490609,-1.03272,31.5625,3,17518,1800483
31,3,0.999253,0.00189791,0.0385575,0.00177311,-0.762585,-0.0574681,9.78922,0.110233,-0.595734,1.02275,-0.00762727,-0.00058173,0.097892,1,3.48146e-05,-7.34814e-06,1.52795e-05,0.00696292,-0.00146963,0.0030559,0.999253,0.00189791,0.0385575,0.00177311,0.0455031,0.490609,-1.03272,31.5625,3,17518,1800483
31,4,0.999253,0.00189791,0.0385575,0.00177311,-0.762585,-0.0574681,9.78922,0.110233,-0.595734,1.02275,-0.00762727,-0.00058173,0.097892,1,3.48146e-05,-7.34814e-06,1.52795e-05,0.00696292,-0.00146963,0.0030559,0.999253,0.00189791,0.0385575,0.00177311,0.0455031,0.490609,-1.03272,31.5625,3,17518,1800483
32,1,0.999254,0.00192421,0.0385266,0.00178734,-0.73591,-0.0572289,9.78431,0.13855,-0.591441,1.0197,-0.00736316,-0.000577964,0.0978428,1,2.9173e-05,-2.06937e-05,-2.29464e-06,0.0058346,-0.00413874,-0.000458928,0.999254,0.00192421,0.0385266,0.00178734,0.0439184,0.485558,-1.02222,31.5625,3,17520,1800683
32,2,0.999255,0.00194229,0.0385072,0.00179444,-0.741253,-0.0723266,9.7876,0.133978,-0.604159,1.01967,-0.0074151,-0.000731101,0.0978758,1,3.91733e-05,-1.31894e-05,1.13024e-05,0.00783467,-0.00263788,0.00226048,0.999255,0.00194229,0.0385072,0.00179444,0.0458191,0.488451,-1.02116,31.5625,3,17521,1800783
32,3,0.999255,0.00194229,0.0385072,0.00179444,-0.741253,-0.0723266,9.7876,0.133978,-0.604159,1.01967,-0.0074151,-0.000731101,0.0978758,1,3.91733e-05,-1.31894e-05,1.13024e-05,0.00783467,-0.00263788,0.00226048,0.999255,0.00194229,0.0385072,0.00179444,0.0458191,0.488451,-1.02116,31.5625,3,17521,1800783
32,4,0.999255,0.00194229,0.0385072,0.00179444,-0.741253,-0.0723266,9.7876,0.133978,-0.604159,1.01967,-0.0074151,-0.000731101,0.0978758,1,3.91733e-05,-1.31894e-05,1.13024e-05,0.00783467,-0.00263788,0.00226048,0.999255,0.00194229,0.0385072,0.00179444,0.0458191,0.488451,-1.02116,31.5625,3,17521,1800783
33,1,0.999256,0.00196836,0.0384701,0.00180675,-0.756071,-0.064369,9.7803,0.114376,-0.599139,1.01076,-0.00756144,-0.000653984,0.0978029,1,5.12582e-05,-3.85739e-06,1.7708e-05,0.0102516,-0.000771477,0.00354159,0.999256,0.00196836,0.0384701,0.00180675,0.0493777,0.49345,-1.02965,31.5625,3,17523,1800983
33,2,0.999257,0.00198043,0.0384604,0.00180769,-0.752163,-0.0491337,9.77837,0.11463,-0.587436,1.00674,-0.00752224,-0.000498434,0.0977836,1,3.55672e-05,-3.19455e-06,9.41565e-06,0.00711344,-0.000638911,0.00188313,0.999257,0.00198043,0.0384604,0.00180769,0.0474276,0.490593,-1.03273,31.5625,3,17524,1801083
33,3,0.999257,0.0019944,0.0384494,0.00182013,-0.759121,-0.0675986,9.78029,0.103773,-0.612759,1.0202,-0.0075921,-0.000683423,0.0978028,1,3.6614e-05,-4.66795e-06,1.80806e-05,0.00732281,-0.00093359,0.00361612,0.999257,0.0019944,0.0384494,0.00182013,0.0442235,0.488092,-1.02772,31.5625,3,17525,1801183
33,4,0.999257,0.0019944,0.0384494,0.00182013,-0.759121,-0.0675986,9.78029,0.103773,-0.612759,1.0202,-0.0075921,-0.000683423,0.0978028,1,3.6614e-05,-4.66795e-06,1.80806e-05,0.00732281,-0.00093359,0.00361612,0.999257,0.0019944,0.0384494,0.00182013,0.0442235,0.488092,-1.02772,31.5625,3,17525,1801183
34,1,0.999258,0.00201016,0.038428,0.00185639,-0.758264,-0.0520085,9.77703,0.108785,-0.594807,1.01194,-0.00758249,-0.000524896,0.0977703,1,2.31844e-05,6.36934e-07,1.83097e-05,0.00463689,0.000127387,0.00366194,0.999258,0.00201016,0.038428,0.00185639,0.0463501,0.489856,-1.0181,31.5625,3,17527,1801383
34,2,0.999258,0.00203078,0.0384125,0.00185528,-0.755977,-0.0641924,9.79218,0.114705,-0.600625,1.01808,-0.00756168,-0.000650528,0.0979216,1,4.33922e-05,-9.81604e-06,6.98123e-06,0.00867844,-0.00196321,0.00139625,0.999258,0.00203078,0.0384125,0.00185528,0.0475765,0.493376,-1.02459,31.5625,3,17528,1801483
34,3,0.999258,0.00203078,0.0384125,0.00185528,-0.755977,-0.0641924,9.79218,0.114705,-0.600625,1.01808,-0.00756168,-0.000650528,0.0979216,1,4.33922e-05,-9.81604e-06,6.98123e-06,0.00867844,-0.00196321,0.00139625,0.999258,0.00203078,0.0384125,0.00185528,0.0475765,0.493376,-1.02459,31.5625,3,17528,1801483
34,4,0.999258,0.00203078,0.0384125,0.00185528,-0.755977,-0.0641924,9.79218,0.114705,-0.600625,1.01808,-0.00756168,-0.000650528,0.0979216,1,4.33922e-05,-9.81604e-06,6.98123e-06,0.00867844,-0.00196321,0.00139625,0.999258,0.00203078,0.0384125,0.00185528,0.0475765,0.493376,-1.02459,31.5625,3,17528,1801483
35,1,0.999259,0.00204305,0.0383835,0.00185689,-0.746579,-0.0575983,9.78233,0.119744,-0.600572,1.0113,-0.00746701,-0.00058425,0.0978232,1,4.18518e-05,-6.27741e-06,5.27119e-06,0.00837035,-0.00125548,0.00105424,0.999259,0.00204305,0.0383835,0.00185689,0.0455112,0.490122,-1.03274,31.5625,3,17530,1801683
35,2,0.99926,0.0020574,0.0383693,0.00186315,-0.742239,-0.0798345,9.78552,0.125933,-0.623061,1.02526,-0.00742409,-0.000805804,0.097855,1,3.71896e-05,-8.76365e-06,1.21592e-05,0.00743793,-0.00175273,0.00243183,0.99926,0.0020574,0.0383693,0.00186315,0.0447122,0.486155,-1.02878,31.5625,3,17531,1801783
35,3,0.99926,0.0020574,0.0383693,0.00186315,-0.742239,-0.0798345,9.78552,0.125933,-0.623061,1.02526,-0.00742409,-0.000805804,0.097855,1,3.71896e-05,-8.76365e-06,1.21592e-05,0.00743793,-0.00175273,0.00243183,0.99926,0.0020574,0.0383693,0.00186315,0.0447122,0.486155,-1.02878,31.5625,3,17531,1801783
35,4,0.99926,0.0020574,0.0383693,0.00186315,-0.742239,-0.0798345,9.78552,0.125933,-0.623061,1.02526,-0.00742409,-0.000805804,0.097855,1,3.71896e-05,-8.76365e-06,1.21592e-05,0.00743793,-0.00175273,0.00243183,0.99926,0.0020574,0.0383693,0.00186315,0.0447122,0.486155,-1.02878,31.5625,3,17531,1801783
36,1,0.999261,0.00209441,0.0383447,0.0018743,-0.748645,-0.0645178,9.77753,0.119849,-0.599641,1.00953,-0.00748688,-0.000651221,0.0977753,1,3.05828e-05,-2.23905e-06,4.12201e-06,0.00611655,-0.000447811,0.000824401,0.999261,0.00209441,0.0383447,0.0018743,0.0453423,0.488934,-1.02064,31.5625,3,17533,1801983
36,2,0.999261,0.0020985,0.0383346,0.00187607,-0.73663,-0.0658874,9.79135,0.132358,-0.606522,1.02222,-0.00736729,-0.000664236,0.0979134,1,2.66228e-05,-5.11659e-06,1.00844e-05,0.00532456,-0.00102332,0.00201688,0.999261,0.0020985,0.0383346,0.00187607,0.0480577,0.493372,-1.02459,31.5625,3,17534,1802083
36,3,0.999261,0.00211387,0.0383265,0.00187206,-0.751272,-0.0672515,9.78703,0.119429,-0.605759,1.01966,-0.0075133,-0.000680201,0.0978702,1,3.873e-05,-2.99676e-06,6.9588e-06,0.007746,-0.000599353,0.00139176,0.999261,0.00211387,0.0383265,0.00187206,0.0479462,0.492008,-1.03018,31.5625,3,17535,1802183
36,4,0.999261,0.00211387,0.0383265,0.00187206,-0.751272,-0.0672515,9.78703,0.119429,-0.605759,1.01966,-0.0075133,-0.000680201,0.0978702,1,3.873e-05,-2.99676e-06,6.9588e-06,0.007746,-0.000599353,0.00139176,0.999261,0.00211387,0.0383265,0.00187206,0.0479462,0.492008,-1.03018,31.5625,3,17535,1802183
37,1,0.999262,0.00214517,0.0382974,0.00190745,-0.746462,-0.0715639,9.77679,0.119547,-0.612895,1.01237,-0.00746652,-0.000725025,0.0977677,1,4.64824e-05,-9.86261e-06,1.98873e-05,0.00929647,-0.00197252,0.00397745,0.999262,0.00214517,0.0382974,0.00190745,0.0432565,0.486176,-1.02928,31.5625,3,17537,1802383
37,2,0.999263,0.00216753,0.0382788,0.00191096,-0.746092,-0.0678152,9.78496,0.123241,-0.610393,1.01989,-0.00746365,-0.000686954,0.0978493,1,4.46178e-05,-1.40034e-05,4.66227e-06,0.00892355,-0.00280068,0.000932454,0.999263,0.00216753,0.0382788,0.00191096,0.0448318,0.487032,-1.02321,31.5625,3,17538,1802483
37,3,0.999263,0.00216753,0.0382788,0.00191096,-0.746092,-0.0678152,9.78496,0.123241,-0.610393,1.01989,-0.00746365,-0.000686954,0.0978493,1,4.46178e-05,-1.40034e-05,4.66227e-06,0.00892355,-0.00280068,0.000932454,0.999263,0.00216753,0.0382788,0.00191096,0.0448318,0.487032,-1.02321,31.5625,3,17538,1802483
37,4,0.999263,0.00216753,0.0382788,0.00191096,-0.746092,-0.0678152,9.78496,0.123241,-0.610393,1.01989,-0.00746365,-0.000686954,0.0978493,1,4.46178e-05,-1.40034e-05,4.66227e-06,0.00892355,-0.00280068,0.000932454,0.999263,0.00216753,0.0382788,0.00191096,0.0448318,0.487032,-1.02321,31.5625,3,17538,1802483
38,1,0.999263,0.00221673,0.0382619,0.00191279,-0.733815,-0.0761918,9.78243,0.128819,-0.62078,1.01614,-0.00733977,-0.000771399,0.0978241,1,4.6894e-05,-8.41728e-06,2.08615e-05,0.0093788,-0.00168346,0.00417231,0.999263,0.00221673,0.0382619,0.00191279,0.0485796,0.492374,-1.02361,31.5625,3,17540,1802683
38,2,0.999263,0.00223611,0.0382584,0.00192218,-0.752236,-0.0754982,9.79171,0.111647,-0.621895,1.02038,-0.00752209,-0.000763539,0.0979171,1,4.2269e-05,1.25907e-06,1.8591e-05,0.00845381,0.000251813,0.0037182,0.999263,0.00223611,0.0382584,0.00192218,0.0484354,0.491516,-1.03019,31.5625,3,17541,1802783
38,3,0.999264,0.00226757,0.0382523,0.00191811,-0.75947,-0.0746394,9.78227,0.105041,-0.621657,1.01626,-0.00759497,-0.000757242,0.0978226,1,5.51213e-05,-1.41352e-06,4.15575e-06,0.0110243,-0.000282704,0.00083115,0.999264,0.00226757,0.0382523,0.00191811,0.0469256,0.489649,-1.03427,31.5625,3,17542,1802883
38,4,0.999264,0.00226757,0.0382523,0.00191811,-0.75947,-0.0746394,9.78227,0.105041,-0.621657,1.01626,-0.00759497,-0.000757242,0.0978226,1,5.51213e-05,-1.41352e-06,4.15575e-06,0.0110243,-0.000282704,0.00083115,0.999264,0.00226757,0.0382523,0.00191811,0.0469256,0.489649,-1.03427,31.5625,3,17542,1802883
39,1,0.999264,0.00230761,0.0382418,0.001928,-0.729206,-0.0645182,9.79436,0.135071,-0.607969,1.02771,-0.0072911,-0.000651779,0.0979437,1,3.32165e-05,4.86907e-06,6.19511e-06,0.00664331,0.000973814,0.00123902,0.999264,0.00230761,0.0382418,0.001928,0.0448318,0.487032,-1.02321,31.5625,3,17544,1803083
39,2,0.999264,0.00230761,0.0382418,0.001928,-0.729206,-0.0645182,9.79436,0.135071,-0.607969,1.02771,-0.0072911,-0.000651779,0.0979437,1,3.32165e-05,4.86907e-06,6.19511e-06,0.00664331,0.000973814,0.00123902,0.999264,0.00230761,0.0382418,0.001928,0.0448318,0.487032,-1.02321,31.5625,3,17544,1803083
39,3,0.999264,0.00233054,0.0382392,0.00191939,-0.736792,-0.0686801,9.78013,0.128357,-0.614047,1.01744,-0.00736765,-0.000695631,0.0978012,1,4.53517e-05,1.44157e-06,-2.7621e-06,0.00907034,0.000288315,-0.00055242,0.999264,0.00233054,0.0382392,0.00191939,0.0467818,0.489888,-1.02012,31.5625,3,17545,1803183
39,4,0.999264,0.00233054,0.0382392,0.00191939,-0.736792,-0.0686801,9.78013,0.128357,-0.614047,1.01744,-0.00736765,-0.000695631,0.0978012,1,4.53517e-05,1.44157e-06,-2.7621e-06,0.00907034,0.000288315,-0.00055242,0.999264,0.00233054,0.0382392,0.00191939,0.0467818,0.489888,-1.02012,31.5625,3,17545,1803183
40,1,0.999264,0.0023772,0.0382309,0.00191691,-0.755776,-0.0643957,9.77623,0.110974,-0.615987,1.00721,-0.007559,-0.000653359,0.0977621,1,4.72963e-05,-6.41701e-06,1.01793e-05,0.00945925,-0.0012834,0.00203587,0.999264,0.0023772,0.0382309,0.00191691,0.0469393,0.493976,-1.03064,31.5625,3,17547,1803383
40,2,0.999264,0.00239981,0.0382275,0.00192421,-0.77555,-0.0665205,9.776,0.0836857,-0.623909,1.01323,-0.00775533,-0.000674365,0.0977599,1,4.55826e-05,7.99213e-07,1.59647e-05,0.00911653,0.000159843,0.00319294,0.999264,0.00239981,0.0382275,0.00192421,0.0455558,0.488162,-1.03227,31.5625,3,17548,1803483
40,3,0.999264,0.00239981,0.0382275,0.00192421,-0.77555,-0.0665205,9.776,0.0836857,-0.623909,1.01323,-0.00775533,-0.000674365,0.0977599,1,4.55826e-05,7.99213e-07,1.59647e-05,0.00911653,0.000159843,0.00319294,0.999264,0.00239981,0.0382275,0.00192421,0.0455558,0.488162,-1.03227,31.5625,3,17548,1803483
40,4,0.999264,0.00239981,0.0382275,0.00192421,-0.77555,-0.0665205,9.776,0.0836857,-0.623909,1.01323,-0.00775533,-0.000674365,0.0977599,1,4.55826e-05,7.99213e-07,1.59647e-05,0.00911653,0.000159843,0.00319294,0.999264,0.00239981,0.0382275,0.00192421,0.0455558,0.488162,-1.03227,31.5625,3,17548,1803483
41,1,0.999264,0.00246193,0.0382199,0.00193567,-0.740462,-0.0660851,9.79307,0.124801,-0.615457,1.03133,-0.00740412,-0.000671333,0.0979306,1,5.28302e-05,2.48848e-06,9.06951e-06,0.010566,0.000497697,0.0018139,0.999264,0.00246193,0.0382199,0.00193567,0.0458102,0.486048,-1.02323,31.5625,3,17550,1803683
41,2,0.999264,0.0024821,0.0382189,0.00193881,-0.725058,-0.0677308,9.79398,0.143608,-0.617436,1.02824,-0.00725006,-0.000685819,0.0979397,1,4.26435e-05,2.56829e-06,1.08908e-05,0.00852869,0.000513657,0.00217815,0.999264,0.0024821,0.0382189,0.00193881,0.0472625,0.488439,-1.02116,31.5625,3,17551,1803783
41,3,0.999264,0.00250115,0.0382216,0.00193894,-0.723636,-0.0526764,9.79103,0.142477,-0.596452,1.01757,-0.00723509,-0.000535178,0.0979103,1,4.22093e-05,6.44132e-06,1.02672e-05,0.00844186,0.00128826,0.00205344,0.999264,0.00250115,0.0382216,0.00193894,0.047132,0.491907,-1.02412,31.5625,3,17552,1803883
41,4,0.999264,0.00250115,0.0382216,0.00193894,-0.723636,-0.0526764,9.79103,0.142477,-0.596452,1.01757,-0.00723509,-0.000535178,0.0979103,1,4.22093e-05,6.44132e-06,1.02672e-05,0.00844186,0.00128826,0.00205344,0.999264,0.00250115,0.0382216,0.00193894,0.047132,0.491907,-1.02412,31.5625,3,17552,1803883
42,1,0.999264,0.00254644,0.0382306,0.00194676,-0.741885,-0.061177,9.77888,0.125398,-0.612089,1.004,-0.00741818,-0.000621804,0.0977887,1,5.00959e-05,3.32856e-06,1.5959e-05,0.0100192,0.000665713,0.0031918,0.999264,0.00254644,0.0382306,0.00194676,0.0465024,0.490574,-1.03122,31.5625,3,17554,1804083
42,2,0.999264,0.00254644,0.0382306,0.00194676,-0.741885,-0.061177,9.77888,0.125398,-0.612089,1.004,-0.00741818,-0.000621804,0.0977887,1,5.00959e-05,3.32856e-06,1.5959e-05,0.0100192,0.000665713,0.0031918,0.999264,0.00254644,0.0382306,0.00194676,0.0465024,0.490574,-1.03122,31.5625,3,17554,1804083
42,3,0.999264,0.0025608,0.0382369,0.00194233,-0.733069,-0.0725421,9.77973,0.135584,-0.625814,1.01181,-0.00732871,-0.000732973,0.0977973,1,3.85474e-05,1.01013e-05,8.34544e-07,0.00770948,0.00202026,0.000166909,0.999264,0.0025608,0.0382369,0.00194233,0.0456991,0.486129,-1.02777,31.5625,3,17555,1804183
42,4,0.999264,0.0025608,0.0382369,0.00194233,-0.733069,-0.0725421,9.77973,0.135584,-0.625814,1.01181,-0.00732871,-0.000732973,0.0977973,1,3.85474e-05,1.01013e-05,8.34544e-07,0.00770948,0.00202026,0.000166909,0.999264,0.0025608,0.0382369,0.00194233,0.0456991,0.486129,-1.02777,31.5625,3,17555,1804183
43,1,0.999263,0.00260714,0.0382354,0.00193895,-0.754222,-0.0620077,9.78335,0.113274,-0.613455,1.01495,-0.00754021,-0.000629347,0.0978336,1,4.72144e-05,1.02387e-05,2.13088e-06,0.00944288,0.00204774,0.000426175,0.999263,0.00260714,0.0382354,0.00193895,0.0482579,0.48937,-1.01913,31.5625,3,17557,1804383
43,2,0.999264,0.00264238,0.0382314,0.00193515,-0.77877,-0.0791948,9.78101,0.0885804,-0.63037,1.01322,-0.0077878,-0.000803455,0.09781,1,5.83306e-05,-5.29429e-07,6.19498e-06,0.0116661,-0.000105886,0.001239,0.999264,0.00264238,0.0382314,0.00193515,0.047132,0.491907,-1.02412,31.5625,3,17558,1804483
43,3,0.999264,0.00264238,0.0382314,0.00193515,-0.77877,-0.0791948,9.78101,0.0885804,-0.63037,1.01322,-0.0077878,-0.000803455,0.09781,1,5.83306e-05,-5.29429e-07,6.19498e-06,0.0116661,-0.000105886,0.001239,0.999264,0.00264238,0.0382314,0.00193515,0.047132,0.491907,-1.02412,31.5625,3,17558,1804483
43,4,0.999264,0.00264238,0.0382314,0.00193515,-0.77877,-0.0791948,9.78101,0.0885804,-0.63037,1.01322,-0.0077878,-0.000803455,0.09781,1,5.83306e-05,-5.29429e-07,6.19498e-06,0.0116661,-0.000105886,0.001239,0.999264,0.00264238,0.0382314,0.00193515,0.047132,0.491907,-1.02412,31.5625,3,17558,1804483
44,1,0.999264,0.00268149,0.0382148,0.00193959,-0.767195,-0.0652729,9.7892,0.0925653,-0.618738,1.01998,-0.00767394,-0.000662281,0.0978918,1,4.80079e-05,-1.02108e-05,9.99493e-06,0.00960158,-0.00204217,0.00199899,0.999264,0.00268149,0.0382148,0.00193959,0.047448,0.490097,-1.03224,31.5625,3,17560,1804683
44,2,0.999264,0.00269603,0.0382124,0.00193074,-0.727884,-0.0586212,9.79135,0.132576,-0.617704,1.02103,-0.00727873,-0.000593739,0.0979135,1,3.85139e-05,5.74204e-07,-1.04499e-06,0.00770279,0.000114841,-0.000208998,0.999264,0.00269603,0.0382124,0.00193074,0.0461518,0.48711,-1.02826,31.5625,3,17561,1804783
44,3,0.999264,0.00269603,0.0382124,0.00193074,-0.727884,-0.0586212,9.79135,0.132576,-0.617704,1.02103,-0.00727873,-0.000593739,0.0979135,1,3.85139e-05,5.74204e-07,-1.04499e-06,0.00770279,0.000114841,-0.000208998,0.999264,0.00269603,0.0382124,0.00193074,0.0461518,0.48711,-1.02826,31.5625,3,17561,1804783
44,4,0.999264,0.00271111,0.038211,0.00194785,-0.713117,-0.044964,9.78458,0.148347,-0.601039,1.02088,-0.00713082,-0.000457262,0.0978458,1,3.73385e-05,1.66935e-06,2.20966e-05,0.00746771,0.000333869,0.00441932,0.999264,0.00271111,0.038211,0.00194785,0.0443919,0.487487,-1.02117,31.5625,3,17562,1804883
45,1,0.999264,0.00272573,0.0382228,0.00195502,-0.689792,-0.0482291,9.7793,0.177133,-0.603146,1.00649,-0.00689502,-0.000489664,0.0977931,1,3.68095e-05,1.47783e-05,1.26103e-05,0.0073619,0.00295565,0.00252206,0.999264,0.00272573,0.0382228,0.00195502,0.0467861,0.490367,-1.0196,31.5625,3,17563,1804983
45,2,0.999263,0.00274371,0.038236,0.00196827,-0.689741,-0.0611077,9.77783,0.172329,-0.618452,0.999981,-0.00689416,-0.00061927,0.0977785,1,4.03224e-05,1.64566e-05,2.23556e-05,0.00806448,0.00329131,0.00447112,0.999263,0.00274371,0.038236,0.00196827,0.0480904,0.492866,-1.0236,31.5625,3,17564,1805083
45,3,0.999262,0.00275394,0.0382518,0.00198563,-0.722325,-0.0607102,9.77365,0.138013,-0.622741,0.992141,-0.00721943,-0.000613901,0.0977367,1,3.28797e-05,1.93808e-05,2.57563e-05,0.00657593,0.00387616,0.00515126,0.999262,0.00275394,0.0382518,0.00198563,0.0474817,0.492481,-1.02916,31.5625,3,17565,1805183
45,4,0.999262,0.00275394,0.0382518,0.00198563,-0.722325,-0.0607102,9.77365,0.138013,-0.622741,0.992141,-0.00721943,-0.000613901,0.0977367,1,3.28797e-05,1.93808e-05,2.57563e-05,0.00657593,0.00387616,0.00515126,0.999262,0.00275394,0.0382518,0.00198563,0.0474817,0.492481,-1.02916,31.5625,3,17565,1805183
46,1,0.999261,0.00277473,0.0382867,0.00202095,-0.777974,-0.0716157,9.79191,0.101775,-0.627033,1.02679,-0.00777564,-0.000724372,0.0979193,1,3.98196e-05,2.07293e-05,2.68278e-05,0.00796392,0.00414587,0.00536555,0.999261,0.00277473,0.0382867,0.00202095,0.0456953,0.487096,-1.02725,31.5625,3,17567,1805383
46,2,0.999261,0.00279462,0.0382907,0.00202239,-0.759496,-0.0775712,9.78122,0.0949142,-0.641449,1.02147,-0.00759356,-0.000784144,0.0978123,1,4.25409e-05,7.11364e-06,7.1842e-06,0.00850818,0.00142273,0.00143684,0.999261,0.00279462,0.0382907,0.00202239,0.0462955,0.486523,-1.02272,31.5625,3,17568,1805483
46,3,0.999261,0.00279462,0.0382907,0.00202239,-0.759496,-0.0775712,9.78122,0.0949142,-0.641449,1.02147,-0.00759356,-0.000784144,0.0978123,1,4.25409e-05,7.11364e-06,7.1842e-06,0.00850818,0.00142273,0.00143684,0.999261,0.00279462,0.0382907,0.00202239,0.0462955,0.486523,-1.02272,31.5625,3,17568,1805483
46,4,0.999261,0.00279462,0.0382907,0.00202239,-0.759496,-0.0775712,9.78122,0.0949142,-0.641449,1.02147,-0.00759356,-0.000784144,0.0978123,1,4.25409e-05,7.11364e-06,7.1842e-06,0.00850818,0.00142273,0.00143684,0.999261,0.00279462,0.0382907,0.00202239,0.0462955,0.486523,-1.02272,31.5625,3,17568,1805483
47,1,0.999262,0.00280904,0.0382427,0.00203222,-0.769929,-0.0568392,9.78149,0.0926057,-0.609701,1.00768,-0.00770421,-0.000574081,0.0978145,1,2.72522e-05,-2.52557e-05,2.31826e-05,0.00545043,-0.00505114,0.00463652,0.999262,0.00280904,0.0382427,0.00203222,0.0495257,0.493342,-1.02359,31.5625,3,17570,1805683
47,2,0.999263,0.00283449,0.0382226,0.00203942,-0.721679,-0.0820885,9.8013,0.137653,-0.637372,1.02156,-0.00722017,-0.000830595,0.0980127,1,4.83152e-05,-1.73504e-05,1.65441e-05,0.00966303,-0.00347008,0.00330881,0.999263,0.00283449,0.0382226,0.00203942,0.0503399,0.493442,-1.02965,31.5625,3,17571,1805783
47,3,0.999263,0.00283449,0.0382226,0.00203942,-0.721679,-0.0820885,9.8013,0.137653,-0.637372,1.02156,-0.00722017,-0.000830595,0.0980127,1,4.83152e-05,-1.73504e-05,1.65441e-05,0.00966303,-0.00347008,0.00330881,0.999263,0.00283449,0.0382226,0.00203942,0.0503399,0.493442,-1.02965,31.5625,3,17571,1805783
47,4,0.999263,0.00283449,0.0382226,0.00203942,-0.721679,-0.0820885,9.8013,0.137653,-0.637372,1.02156,-0.00722017,-0.000830595,0.0980127,1,4.83152e-05,-1.73504e-05,1.65441e-05,0.00966303,-0.00347008,0.00330881,0.999263,0.00283449,0.0382226,0.00203942,0.0503399,0.493442,-1.02965,31.5625,3,17571,1805783
48,1,0.999264,0.00286582,0.0381957,0.00202879,-0.7656,-0.056667,9.78247,0.0916166,-0.61833,1.03027,-0.00765686,-0.000576491,0.0978246,1,4.97103e-05,-4.44064e-06,6.18554e-06,0.00994207,-0.000888129,0.00123711,0.999264,0.00286582,0.0381957,0.00202879,0.0452261,0.485646,-1.02778,31.5625,3,17573,1805983
48,2,0.999265,0.00288776,0.0381778,0.00203648,-0.796139,-0.059014,9.78164,0.0654992,-0.619078,1.01506,-0.0079644,-0.000599104,0.0978161,1,4.48749e-05,-1.54748e-05,1.16079e-05,0.00897498,-0.00309496,0.00232157,0.999265,0.00288776,0.0381778,0.00203648,0.0439023,0.486534,-1.0222,31.5625,3,17574,1806083
48,3,0.999266,0.0029026,0.0381553,0.0020314,-0.799747,-0.035485,9.77712,0.0604468,-0.590389,1.00649,-0.00800143,-0.000362251,0.0977708,1,3.77745e-05,-2.02375e-05,8.73571e-07,0.0075549,-0.0040475,0.000174714,0.999266,0.0029026,0.0381553,0.0020314,0.0472587,0.489406,-1.02064,31.5625,3,17575,1806183
48,4,0.999266,0.0029026,0.0381553,0.0020314,-0.799747,-0.035485,9.77712,0.0604468,-0.590389,1.00649,-0.00800143,-0.000362251,0.0977708,1,3.77745e-05,-2.02375e-05,8.73571e-07,0.0075549,-0.0040475,0.000174714,0.999266,0.0029026,0.0381553,0.0020314,0.0472587,0.489406,-1.02064,31.5625,3,17575,1806183
49,1,0.999266,0.00290729,0.0381415,0.00203007,-0.803422,-0.0708843,9.76462,0.0607588,-0.630776,0.995915,-0.00803561,-0.000712216,0.0976461,1,1.62832e-05,-7.20293e-06,1.20066e-05,0.00325664,-0.00144059,0.00240132,0.999266,0.00290729,0.0381415,0.00203007,0.0484197,0.493937,-1.02913,31.5625,3,17577,1806383
49,2,0.999266,0.00290698,0.0381408,0.0020343,-0.840404,-0.0810062,9.76411,0.0180053,-0.648978,1.0004,-0.00840382,-0.000814725,0.097641,1,2.29199e-05,1.01333e-06,1.11571e-05,0.00458399,0.000202665,0.00223142,0.999266,0.00290698,0.0381408,0.0020343,0.0469958,0.490561,-1.03071,31.5625,3,17578,1806483
49,3,0.999266,0.00290698,0.0381408,0.0020343,-0.840404,-0.0810062,9.76411,0.0180053,-0.648978,1.0004,-0.00840382,-0.000814725,0.097641,1,2.29199e-05,1.01333e-06,1.11571e-05,0.00458399,0.000202665,0.00223142,0.999266,0.00290698,0.0381408,0.0020343,0.0469958,0.490561,-1.03071,31.5625,3,17578,1806483
49,4,0.999266,0.00290698,0.0381408,0.0020343,-0.840404,-0.0810062,9.76411,0.0180053,-0.648978,1.0004,-0.00840382,-0.000814725,0.097641,1,2.29199e-05,1.01333e-06,1.11571e-05,0.00458399,0.000202665,0.00223142,0.999266,0.00290698,0.0381408,0.0020343,0.0469958,0.490561,-1.03071,31.5625,3,17578,1806483
50,1,0.999266,0.00293804,0.038131,0.00206123,-0.872063,-0.0764046,9.77148,-0.0123183,-0.640227,1.01508,-0.00872105,-0.000771299,0.0977147,1,3.46769e-05,-2.35979e-06,2.73027e-05,0.00693537,-0.000471958,0.00546053,0.999266,0.00293804,0.038131,0.00206123,0.0453494,0.485555,-1.02274,31.5625,3,17580,1806683
50,2,0.999267,0.00296759,0.0381207,0.00207788,-0.827919,-0.0591079,9.76896,0.0294164,-0.616772,1.00569,-0.00828112,-0.000601606,0.0976893,1,5.18411e-05,-9.99139e-06,2.40672e-05,0.0103682,-0.00199828,0.00481343,0.999267,0.00296759,0.0381207,0.00207788,0.0486816,0.48989,-1.02114,31.5625,3,17581,1806783
50,3,0.999267,0.00296759,0.0381207,0.00207788,-0.827919,-0.0591079,9.76896,0.0294164,-0.616772,1.00569,-0.00828112,-0.000601606,0.0976893,1,5.18411e-05,-9.99139e-06,2.40672e-05,0.0103682,-0.00199828,0.00481343,0.999267,0.00296759,0.0381207,0.00207788,0.0486816,0.48989,-1.02114,31.5625,3,17581,1806783
50,4,0.999267,0.00296759,0.0381207,0.00207788,-0.827919,-0.0591079,9.76896,0.0294164,-0.616772,1.00569,-0.00828112,-0.000601606,0.0976893,1,5.18411e-05,-9.99139e-06,2.40672e-05,0.0103682,-0.00199828,0.00481343,0.999267,0.00296759,0.0381207,0.00207788,0.0486816,0.48989,-1.02114,31.5625,3,17581,1806783
51,1,0.999267,0.00300049,0.0380982,0.00207822,-0.791297,-0.0746452,9.7808,0.0674387,-0.638589,1.01167,-0.00791574,-0.000755384,0.0978077,1,4.47873e-05,-1.42584e-05,1.0796e-05,0.00895746,-0.00285169,0.0021592,0.999267,0.00300049,0.0380982,0.00207822,0.0498137,0.493961,-1.03116,31.5625,3,17583,1806983
51,2,0.999267,0.0030281,0.0380917,0.00207569,-0.778715,-0.0783127,9.78373,0.0786537,-0.647624,1.01646,-0.00778845,-0.000793209,0.0978371,1,5.11129e-05,-6.70163e-06,5.17812e-06,0.0102226,-0.00134033,0.00103562,0.999267,0.0030281,0.0380917,0.00207569,0.0464977,0.48865,-1.03277,31.5625,3,17584,1807083
51,3,0.999268,0.00305126,0.038083,0.00208195,-0.795474,-0.0817726,9.76651,0.0680992,-0.650394,1.00571,-0.00795646,-0.000826975,0.0976648,1,4.63277e-05,-8.92944e-06,1.25655e-05,0.00926554,-0.00178589,0.00251309,0.999268,0.00305126,0.038083,0.00208195,0.044745,0.48565,-1.02778,31.5625,3,17585,1807183
51,4,0.999268,0.00305126,0.038083,0.00208195,-0.795474,-0.0817726,9.76651,0.0680992,-0.650394,1.00571,-0.00795646,-0.000826975,0.0976648,1,4.63277e-05,-8.92944e-06,1.25655e-05,0.00926554,-0.00178589,0.00251309,0.999268,0.00305126,0.038083,0.00208195,0.044745,0.48565,-1.02778,31.5625,3,17585,1807183
52,1,0.999268,0.00309213,0.0380645,0.00210493,-0.783148,-0.0610162,9.78833,0.0752263,-0.621215,1.01963,-0.0078352,-0.000619197,0.0978829,1,4.4277e-05,-1.91666e-05,2.34301e-05,0.00885539,-0.00383332,0.00468602,0.999268,0.00309213,0.0380645,0.00210493,0.0486532,0.490875,-1.02162,31.5625,3,17587,1807383
52,2,0.999268,0.0031145,0.0380632,0.0020997,-0.740327,-0.0648362,9.79512,0.117319,-0.63373,1.02657,-0.00740367,-0.000657364,0.0979511,1,4.56348e-05,-2.05641e-06,4.16467e-06,0.00912697,-0.000411282,0.000832934,0.999268,0.0031145,0.0380632,0.0020997,0.0475519,0.493394,-1.0256,31.5625,3,17588,1807483
52,3,0.999268,0.0031145,0.0380632,0.0020997,-0.740327,-0.0648362,9.79512,0.117319,-0.63373,1.02657,-0.00740367,-0.000657364,0.0979511,1,4.56348e-05,-2.05641e-06,4.16467e-06,0.00912697,-0.000411282,0.000832934,0.999268,0.0031145,0.0380632,0.0020997,0.0475519,0.493394,-1.0256,31.5625,3,17588,1807483
52,4,0.999268,0.0031145,0.0380632,0.0020997,-0.740327,-0.0648362,9.79512,0.117319,-0.63373,1.02657,-0.00740367,-0.000657364,0.0979511,1,4.56348e-05,-2.05641e-06,4.16467e-06,0.00912697,-0.000411282,0.000832934,0.999268,0.0031145,0.0380632,0.0020997,0.0475519,0.493394,-1.0256,31.5625,3,17588,1807483
53,1,0.999268,0.0031344,0.038064,0.00211302,-0.772831,-0.0940168,9.78081,0.191335,-0.652968,1.04097,-0.00772567,-0.000947507,0.0978083,1,3.62916e-05,1.33368e-05,1.55255e-05,0.00725831,0.00266736,0.0031051,0.999268,0.0031344,0.038064,0.00211302,0.0455686,0.489598,-1.03073,31.5625,3,17590,1807683
53,2,0.999268,0.00315002,0.0380569,0.00212852,-0.789696,-0.0535764,9.77451,0.101193,-0.632923,1.02281,-0.00789847,-0.000543609,0.0977449,1,3.83329e-05,-7.8233e-06,2.22219e-05,0.00766659,-0.00156466,0.00444438,0.999268,0.00315002,0.0380569,0.00212852,0.0448147,0.485117,-1.02527,31.5625,3,17591,1807783
53,3,0.999269,0.0031748,0.0380298,0.00213341,-0.762056,-0.0717013,9.81865,0.00191782,-0.642565,1.05493,-0.00762605,-0.000726476,0.098186,1,4.73112e-05,-2.80571e-05,1.13322e-05,0.00946223,-0.00561141,0.00226645,0.999269,0.0031748,0.0380298,0.00213341,0.0454149,0.484544,-1.02074,31.5625,3,17592,1807883
53,4,0.999269,0.0031748,0.0380298,0.00213341,-0.762056,-0.0717013,9.81865,0.00191782,-0.642565,1.05493,-0.00762605,-0.000726476,0.098186,1,4.73112e-05,-2.80571e-05,1.13322e-05,0.00946223,-0.00561141,0.00226645,0.999269,0.0031748,0.0380298,0.00213341,0.0454149,0.484544,-1.02074,31.5625,3,17592,1807883
54,1,0.999269,0.00319928,0.0380283,0.00214839,-0.692563,-0.127368,9.81156,0.204622,-0.671,1.04726,-0.00692335,-0.00128115,0.0981157,1,3.69959e-05,1.13916e-05,1.49792e-05,0.00739918,0.00227833,0.00299583,0.999269,0.00319928,0.0380283,0.00214839,0.0489667,0.494366,-1.02609,31.5625,3,17594,1808083
54,2,0.999269,0.00319928,0.0380283,0.00214839,-0.692563,-0.127368,9.81156,0.204622,-0.671,1.04726,-0.00692335,-0.00128115,0.0981157,1,3.69959e-05,1.13916e-05,1.49792e-05,0.00739918,0.00227833,0.00299583,0.999269,0.00319928,0.0380283,0.00214839,0.0489667,0.494366,-1.02609,31.5625,3,17594,1808083
54,3,0.999269,0.00323028,0.0380421,0.00215733,-0.886137,-0.089572,9.74568,0.00458605,-0.641905,0.990868,-0.00885874,-0.000906673,0.0974569,1,5.45458e-05,1.33196e-05,1.81214e-05,0.0109092,0.00266393,0.00362428,0.999269,0.00323028,0.0380421,0.00215733,0.0478892,0.493977,-1.03115,31.5625,3,17595,1808183
54,4,0.999269,0.00323028,0.0380421,0.00215733,-0.886137,-0.089572,9.74568,0.00458605,-0.641905,0.990868,-0.00885874,-0.000906673,0.0974569,1,5.45458e-05,1.33196e-05,1.81214e-05,0.0109092,0.00266393,0.00362428,0.999269,0.00323028,0.0380421,0.00215733,0.0478892,0.493977,-1.03115,31.5625,3,17595,1808183
55,1,0.999272,0.0032919,0.0379611,0.00216097,-0.677307,-0.0502178,9.80267,0.133021,-0.610302,1.02489,-0.00678314,-0.000513426,0.0980259,1,5.64722e-05,-5.14161e-05,1.30714e-05,0.0112944,-0.0102832,0.00261428,0.999272,0.0032919,0.0379611,0.00216097,0.0447416,0.488061,-1.02621,31.5625,3,17597,1808383
55,2,0.999273,0.0033102,0.0379319,0.00216437,-0.524827,-0.0838287,9.82507,0.351803,-0.658985,1.03748,-0.00525436,-0.000846485,0.0982503,1,4.11627e-05,-3.10595e-05,1.04307e-05,0.00823255,-0.00621189,0.00208614,0.999273,0.0033102,0.0379319,0.00216437,0.0448692,0.48845,-1.02065,31.5625,3,17598,1808483
55,3,0.999273,0.0033102,0.0379319,0.00216437,-0.524827,-0.0838287,9.82507,0.351803,-0.658985,1.03748,-0.00525436,-0.000846485,0.0982503,1,4.11627e-05,-3.10595e-05,1.04307e-05,0.00823255,-0.00621189,0.00208614,0.999273,0.0033102,0.0379319,0.00216437,0.0448692,0.48845,-1.02065,31.5625,3,17598,1808483
55,4,0.999273,0.0033102,0.0379319,0.00216437,-0.524827,-0.0838287,9.82507,0.351803,-0.658985,1.03748,-0.00525436,-0.000846485,0.0982503,1,4.11627e-05,-3.10595e-05,1.04307e-05,0.00823255,-0.00621189,0.00208614,0.999273,0.0033102,0.0379319,0.00216437,0.0448692,0.48845,-1.02065,31.5625,3,17598,1808483
56,1,0.999272,0.00333176,0.0379418,0.00218299,-0.761812,-0.0202261,9.75154,0.105426,-0.581957,0.977352,-0.00761786,-0.000209225,0.0975154,1,3.49264e-05,1.32998e-06,1.00118e-05,0.00698529,0.000265996,0.00200235,0.999272,0.00333176,0.0379418,0.00218299,0.0475851,0.494333,-1.02356,31.5625,3,17600,1808683
56,2,0.999273,0.00335043,0.0379278,0.00218176,-0.751851,-0.0481906,9.76447,0.110407,-0.619781,0.982003,-0.0075214,-0.00049024,0.0976444,1,4.2159e-05,-1.48417e-05,6.69074e-06,0.00843181,-0.00296834,0.00133815,0.999273,0.00335043,0.0379278,0.00218176,0.0474617,0.494423,-1.02861,31.5625,3,17601,1808783
56,3,0.999273,0.00335043,0.0379278,0.00218176,-0.751851,-0.0481906,9.76447,0.110407,-0.619781,0.982003,-0.0075214,-0.00049024,0.0976444,1,4.2159e-05,-1.48417e-05,6.69074e-06,0.00843181,-0.00296834,0.00133815,0.999273,0.00335043,0.0379278,0.00218176,0.0474617,0.494423,-1.02861,31.5625,3,17601,1808783
56,4,0.999273,0.00335043,0.0379278,0.00218176,-0.751851,-0.0481906,9.76447,0.110407,-0.619781,0.982003,-0.0075214,-0.00049024,0.0976444,1,4.2159e-05,-1.48417e-05,6.69074e-06,0.00843181,-0.00296834,0.00133815,0.999273,0.00335043,0.0379278,0.00218176,0.0474617,0.494423,-1.02861,31.5625,3,17601,1808783
57,1,0.999272,0.00340074,0.0379331,0.00219293,-0.708839,-0.0731117,9.76701,0.149028,-0.649154,0.99378,-0.00708849,-0.000742006,0.09767,1,5.46873e-05,-5.96366e-07,1.45191e-05,0.0109375,-0.000119273,0.00290382,0.999272,0.00340074,0.0379331,0.00219293,0.0462908,0.484599,-1.02428,31.5625,3,17603,1808983
57,2,0.999272,0.00342945,0.0379256,0.00218983,-0.732841,-0.105736,9.79607,0.124767,-0.687443,1.02459,-0.00733002,-0.00106753,0.0979605,1,5.16586e-05,-8.23292e-06,3.70303e-06,0.0103317,-0.00164658,0.000740606,0.999272,0.00342945,0.0379256,0.00218983,0.046826,0.486483,-1.0207,31.5625,3,17604,1809083
57,3,0.999273,0.00345,0.0379115,0.00219103,-0.711281,-0.0747763,9.79383,0.147762,-0.661189,1.02156,-0.00711569,-0.00075643,0.097938,1,4.35934e-05,-1.47689e-05,8.97803e-06,0.00871867,-0.00295377,0.00179561,0.999273,0.00345,0.0379115,0.00219103,0.0477194,0.489898,-1.02113,31.5625,3,17605,1809183
57,4,0.999273,0.00345,0.0379115,0.00219103,-0.711281,-0.0747763,9.79383,0.147762,-0.661189,1.02156,-0.00711569,-0.00075643,0.097938,1,4.35934e-05,-1.47689e-05,8.97803e-06,0.00871867,-0.00295377,0.00179561,0.999273,0.00345,0.0379115,0.00219103,0.0477194,0.489898,-1.02113,31.5625,3,17605,1809183
58,1,0.999273,0.00350056,0.0379104,0.00218003,-0.6943,-0.0430453,9.79397,0.15867,-0.614065,1.02076,-0.00694335,-0.000441782,0.0979397,1,5.7267e-05,-1.84749e-06,8.02235e-06,0.0114534,-0.000369498,0.00160447,0.999273,0.00350056,0.0379104,0.00218003,0.0480159,0.491475,-1.02767,31.5625,3,17607,1809383
58,2,0.999273,0.00352663,0.0378952,0.00218967,-0.704042,-0.0876398,9.79197,0.148411,-0.65415,1.01265,-0.00704341,-0.000886217,0.0979194,1,4.89132e-05,-1.5413e-05,1.70563e-05,0.00978263,-0.0030826,0.00341126,0.999273,0.00352663,0.0378952,0.00218967,0.0450918,0.490081,-1.03021,31.5625,3,17608,1809483
58,3,0.999273,0.00352663,0.0378952,0.00218967,-0.704042,-0.0876398,9.79197,0.148411,-0.65415,1.01265,-0.00704341,-0.000886217,0.0979194,1,4.89132e-05,-1.5413e-05,1.70563e-05,0.00978263,-0.0030826,0.00341126,0.999273,0.00352663,0.0378952,0.00218967,0.0450918,0.490081,-1.03021,31.5625,3,17608,1809483
58,4,0.999273,0.00352663,0.0378952,0.00218967,-0.704042,-0.0876398,9.79197,0.148411,-0.65415,1.01265,-0.00704341,-0.000886217,0.0979194,1,4.89132e-05,-1.5413e-05,1.70563e-05,0.00978263,-0.0030826,0.00341126,0.999273,0.00352663,0.0378952,0.00218967,0.0450918,0.490081,-1.03021,31.5625,3,17608,1809483
59,1,0.999273,0.003585,0.0378826,0.00219074,-0.703212,-0.0708775,9.79177,0.156632,-0.648476,1.02622,-0.00703326,-0.000718253,0.0979175,1,4.81307e-05,-5.84519e-06,3.6991e-06,0.00962615,-0.00116904,0.000739821,0.999273,0.003585,0.0378826,0.00219074,0.046324,0.485538,-1.02224,31.5625,3,17610,1809683
59,2,0.999273,0.00362091,0.0378882,0.0021871,-0.734931,-0.0507517,9.77247,0.120808,-0.625769,1.00251,-0.00734819,-0.000519128,0.0977247,1,5.899e-05,5.69017e-06,5.56185e-06,0.011798,0.00113803,0.00111237,0.999273,0.00362091,0.0378882,0.0021871,0.049224,0.488396,-1.01966,31.5625,3,17611,1809783
59,3,0.999273,0.00365409,0.0378979,0.00218165,-0.75483,-0.0643774,9.783,0.105768,-0.642617,1.01044,-0.00754637,-0.000654859,0.0978301,1,5.62649e-05,9.81438e-06,5.04387e-06,0.011253,0.00196288,0.00100877,0.999273,0.00365409,0.0378979,0.00218165,0.050031,0.491874,-1.02363,31.5625,3,17612,1809883
59,4,0.999273,0.00365409,0.0378979,0.00218165,-0.75483,-0.0643774,9.783,0.105768,-0.642617,1.01044,-0.00754637,-0.000654859,0.0978301,1,5.62649e-05,9.81438e-06,5.04387e-06,0.011253,0.00196288,0.00100877,0.999273,0.00365409,0.0378979,0.00218165,0.050031,0.491874,-1.02363,31.5625,3,17612,1809883
60,1,0.999273,0.00370507,0.0378803,0.00218907,-0.75533,-0.0654021,9.77622,0.0973739,-0.646862,1.00372,-0.00755642,-0.000664056,0.0977619,1,5.0176e-05,-1.6041e-05,1.48397e-05,0.0100352,-0.0032082,0.00296794,0.999273,0.00370507,0.0378803,0.00218907,0.0455724,0.488631,-1.03125,31.5625,3,17614,1810083
60,2,0.999273,0.00370507,0.0378803,0.00218907,-0.75533,-0.0654021,9.77622,0.0973739,-0.646862,1.00372,-0.00755642,-0.000664056,0.0977619,1,5.0176e-05,-1.6041e-05,1.48397e-05,0.0100352,-0.0032082,0.00296794,0.999273,0.00370507,0.0378803,0.00218907,0.0455724,0.488631,-1.03125,31.5625,3,17614,1810083
60,3,0.999273,0.00372914,0.0378659,0.00218982,-0.76185,-0.064348,9.77526,0.094969,-0.644757,1.00838,-0.00762131,-0.00065287,0.0977523,1,4.75589e-05,-1.44021e-05,6.03893e-06,0.00951177,-0.00288042,0.00120779,0.999273,0.00372914,0.0378659,0.00218982,0.0442558,0.486141,-1.02777,31.5625,3,17615,1810183
60,4,0.999273,0.00372914,0.0378659,0.00218982,-0.76185,-0.064348,9.77526,0.094969,-0.644757,1.00838,-0.00762131,-0.00065287,0.0977523,1,4.75589e-05,-1.44021e-05,6.03893e-06,0.00951177,-0.00288042,0.00120779,0.999273,0.00372914,0.0378659,0.00218982,0.0442558,0.486141,-1.02777,31.5625,3,17615,1810183
61,1,0.999274,0.00377198,0.0378561,0.00219633,-0.761633,-0.0519064,9.77943,0.0915958,-0.631334,1.00906,-0.00761641,-0.000527061,0.0977942,1,3.97731e-05,-5.34784e-07,1.43347e-05,0.00795463,-0.000106957,0.00286693,0.999274,0.00377198,0.0378561,0.00219633,0.0482499,0.489858,-1.01912,31.5625,3,17617,1810383
61,2,0.999273,0.00379581,0.0378577,0.00217982,-0.761554,-0.0702075,9.77655,0.0950079,-0.648219,1.00157,-0.00761529,-0.000711272,0.0977655,1,4.75719e-05,1.3059e-06,-6.92358e-06,0.00951439,0.00026118,-0.00138472,0.999273,0.00379581,0.0378577,0.00217982,0.0490488,0.493825,-1.02307,31.5625,3,17618,1810483
61,3,0.999273,0.00379581,0.0378577,0.00217982,-0.761554,-0.0702075,9.77655,0.0950079,-0.648219,1.00157,-0.00761529,-0.000711272,0.0977655,1,4.75719e-05,1.3059e-06,-6.92358e-06,0.00951439,0.00026118,-0.00138472,0.999273,0.00379581,0.0378577,0.00217982,0.0490488,0.493825,-1.02307,31.5625,3,17618,1810483
61,4,0.999273,0.00379581,0.0378577,0.00217982,-0.761554,-0.0702075,9.77655,0.0950079,-0.648219,1.00157,-0.00761529,-0.000711272,0.0977655,1,4.75719e-05,1.3059e-06,-6.92358e-06,0.00951439,0.00026118,-0.00138472,0.999273,0.00379581,0.0378577,0.00217982,0.0490488,0.493825,-1.02307,31.5625,3,17618,1810483
62,1,0.999273,0.00384249,0.0378538,0.0021812,-0.79568,-0.059581,9.77314,0.053901,-0.644563,1.00343,-0.00795656,-0.000604395,0.0977314,1,4.33996e-05,1.23685e-06,6.41671e-06,0.00867993,0.000247369,0.00128334,0.999273,0.00384249,0.0378538,0.0021812,0.0479823,0.48909,-1.03075,31.5625,3,17620,1810683
62,2,0.999274,0.00386368,0.0378504,0.00218165,-0.774666,-0.0816533,9.78265,0.076035,-0.667812,1.01358,-0.00774739,-0.000825343,0.0978264,1,4.44464e-05,-3.77931e-06,7.35945e-06,0.00888928,-0.000755863,0.00147189,0.999274,0.00386368,0.0378504,0.00218165,0.0433306,0.486122,-1.02625,31.5625,3,17621,1810783
62,3,0.999274,0.00388817,0.0378445,0.00217867,-0.781504,-0.0699797,9.79738,0.0741312,-0.656767,1.03556,-0.00781634,-0.00070915,0.0979736,1,4.77359e-05,-6.61434e-06,-2.20166e-08,0.00954718,-0.00132287,-4.40332e-06,0.999274,0.00388817,0.0378445,0.00217867,0.0448612,0.488938,-1.02064,31.5625,3,17622,1810883
62,4,0.999274,0.00388817,0.0378445,0.00217867,-0.781504,-0.0699797,9.79738,0.0741312,-0.656767,1.03556,-0.00781634,-0.00070915,0.0979736,1,4.77359e-05,-6.61434e-06,-2.20166e-08,0.00954718,-0.00132287,-4.40332e-06,0.999274,0.00388817,0.0378445,0.00217867,0.0448612,0.488938,-1.02064,31.5625,3,17622,1810883
63,1,0.999274,0.00392957,0.0378485,0.00215978,-0.774972,-0.0570431,9.78218,0.0844047,-0.636789,1.00871,-0.00774913,-0.000580693,0.0978217,1,5.2562e-05,3.01757e-06,-1.36883e-06,0.0105124,0.000603513,-0.000273766,0.999274,0.00392957,0.0378485,0.00215978,0.0475931,0.493846,-1.02357,31.5625,3,17624,1811083
63,2,0.999274,0.00392957,0.0378485,0.00215978,-0.774972,-0.0570431,9.78218,0.0844047,-0.636789,1.00871,-0.00774913,-0.000580693,0.0978217,1,5.2562e-05,3.01757e-06,-1.36883e-06,0.0105124,0.000603513,-0.000273766,0.999274,0.00392957,0.0378485,0.00215978,0.0475931,0.493846,-1.02357,31.5625,3,17624,1811083
63,3,0.999274,0.00395294,0.0378384,0.0021666,-0.771082,-0.0634369,9.77092,0.0797399,-0.654379,0.997514,-0.00771293,-0.000643635,0.097709,1,4.63053e-05,-1.08969e-05,1.40779e-05,0.00926106,-0.00217938,0.00281558,0.999274,0.00395294,0.0378384,0.0021666,0.0479419,0.491529,-1.0307,31.5625,3,17625,1811183
63,4,0.999274,0.00395294,0.0378384,0.0021666,-0.771082,-0.0634369,9.77092,0.0797399,-0.654379,0.997514,-0.00771293,-0.000643635,0.097709,1,4.63053e-05,-1.08969e-05,1.40779e-05,0.00926106,-0.00217938,0.00281558,0.999274,0.00395294,0.0378384,0.0021666,0.0479419,0.491529,-1.0307,31.5625,3,17625,1811183
64,1,0.999274,0.00400791,0.0378309,0.00218749,-0.774515,-0.0648754,9.77499,0.0779665,-0.650812,1.01112,-0.00774591,-0.000656485,0.0977498,1,3.85176e-05,-3.99531e-06,1.29362e-05,0.00770352,-0.000799062,0.00258724,0.999274,0.00400791,0.0378309,0.00218749,0.0452057,0.486142,-1.02828,31.5625,3,17627,1811383
64,2,0.999274,0.00402304,0.037815,0.00219314,-0.767531,-0.0536624,9.78523,0.0908455,-0.638125,1.01716,-0.00767861,-0.000544226,0.097852,1,3.79124e-05,-1.69239e-05,1.18481e-05,0.00758247,-0.00338479,0.00236963,0.999274,0.00402304,0.037815,0.00219314,0.0457693,0.487042,-1.02422,31.5625,3,17628,1811483
64,3,0.999274,0.00402304,0.037815,0.00219314,-0.767531,-0.0536624,9.78523,0.0908455,-0.638125,1.01716,-0.00767861,-0.000544226,0.097852,1,3.79124e-05,-1.69239e-05,1.18481e-05,0.00758247,-0.00338479,0.00236963,0.999274,0.00402304,0.037815,0.00219314,0.0457693,0.487042,-1.02422,31.5625,3,17628,1811483
64,4,0.999274,0.00402304,0.037815,0.00219314,-0.767531,-0.0536624,9.78523,0.0908455,-0.638125,1.01716,-0.00767861,-0.000544226,0.097852,1,3.79124e-05,-1.69239e-05,1.18481e-05,0.00758247,-0.00338479,0.00236963,0.999274,0.00402304,0.037815,0.00219314,0.0457693,0.487042,-1.02422,31.5625,3,17628,1811483
65,1,0.999275,0.00405849,0.0377853,0.00217992,-0.769,-0.0714838,9.78238,0.0892887,-0.65855,1.00897,-0.00769591,-0.000723381,0.0978233,1,4.32878e-05,-3.02383e-05,4.80158e-06,0.00865757,-0.00604767,0.000960315,0.999275,0.00405849,0.0377853,0.00217992,0.0480904,0.492866,-1.0236,31.5625,3,17630,1811683
65,2,0.999275,0.00407265,0.0377782,0.00219726,-0.759454,-0.0604658,9.78443,0.0962371,-0.646496,1.00763,-0.00759611,-0.000612181,0.0978441,1,3.65265e-05,-8.1935e-06,2.4667e-05,0.00730531,-0.0016387,0.00493339,0.999275,0.00407265,0.0377782,0.00219726,0.0474978,0.491506,-1.02918,31.5625,3,17631,1811783
65,3,0.999275,0.00407265,0.0377782,0.00219726,-0.759454,-0.0604658,9.78443,0.0962371,-0.646496,1.00763,-0.00759611,-0.000612181,0.0978441,1,3.65265e-05,-8.1935e-06,2.4667e-05,0.00730531,-0.0016387,0.00493339,0.999275,0.00407265,0.0377782,0.00219726,0.0474978,0.491506,-1.02918,31.5625,3,17631,1811783
65,4,0.999275,0.00407265,0.0377782,0.00219726,-0.759454,-0.0604658,9.78443,0.0962371,-0.646496,1.00763,-0.00759611,-0.000612181,0.0978441,1,3.65265e-05,-8.1935e-06,2.4667e-05,0.00730531,-0.0016387,0.00493339,0.999275,0.00407265,0.0377782,0.00219726,0.0474978,0.491506,-1.02918,31.5625,3,17631,1811783
66,1,0.999276,0.00410311,0.0377648,0.00221092,-0.75168,-0.061777,9.77894,0.103057,-0.651768,1.00798,-0.00751773,-0.00062551,0.0977893,1,3.90094e-05,-4.78879e-06,7.34433e-06,0.00780188,-0.000957758,0.00146887,0.999276,0.00410311,0.0377648,0.00221092,0.0452185,0.487579,-1.02673,31.5625,3,17633,1811983
66,2,0.999276,0.00411875,0.0377468,0.0022045,-0.76406,-0.0636311,9.78513,0.0885048,-0.651623,1.01605,-0.00764436,-0.000643877,0.0978509,1,3.86332e-05,-1.92073e-05,3.94682e-07,0.00772664,-0.00384147,7.89364e-05,0.999276,0.00411875,0.0377468,0.0022045,0.0449101,0.487456,-1.01966,31.5625,3,17634,1812083
66,3,0.999277,0.00412997,0.0377328,0.00221097,-0.734002,-0.0685785,9.79709,0.115115,-0.65926,1.02101,-0.00734299,-0.000692566,0.0979706,1,3.35631e-05,-1.52701e-05,1.39119e-05,0.00671261,-0.00305401,0.00278238,0.999277,0.00412997,0.0377328,0.00221097,0.0458932,0.488397,-1.01813,31.5625,3,17635,1812183
66,4,0.999277,0.00412997,0.0377328,0.00221097,-0.734002,-0.0685785,9.79709,0.115115,-0.65926,1.02101,-0.00734299,-0.000692566,0.0979706,1,3.35631e-05,-1.52701e-05,1.39119e-05,0.00671261,-0.00305401,0.00278238,0.999277,0.00412997,0.0377328,0.00221097,0.0458932,0.488397,-1.01813,31.5625,3,17635,1812183
67,1,0.999277,0.0041539,0.0377239,0.00222002,-0.727326,-0.0603916,9.77538,0.128614,-0.64702,0.99429,-0.00727477,-0.000611643,0.0977537,1,3.90186e-05,-7.77281e-06,6.75063e-06,0.00780373,-0.00155456,0.00135013,0.999277,0.0041539,0.0377239,0.00222002,0.0484192,0.492491,-1.03017,31.5625,3,17637,1812383
67,2,0.999277,0.00416236,0.0377324,0.00223178,-0.760944,-0.0591961,9.7875,0.0898185,-0.655068,1.0153,-0.00760796,-0.000598339,0.0978751,1,3.1177e-05,7.45982e-06,1.80806e-05,0.0062354,0.00149196,0.00361613,0.999277,0.00416236,0.0377324,0.00223178,0.0460701,0.489097,-1.03024,31.5625,3,17638,1812483
67,3,0.999277,0.00416236,0.0377324,0.00223178,-0.760944,-0.0591961,9.7875,0.0898185,-0.655068,1.0153,-0.00760796,-0.000598339,0.0978751,1,3.1177e-05,7.45982e-06,1.80806e-05,0.0062354,0.00149196,0.00361613,0.999277,0.00416236,0.0377324,0.00223178,0.0460701,0.489097,-1.03024,31.5625,3,17638,1812483
67,4,0.999277,0.00416236,0.0377324,0.00223178,-0.760944,-0.0591961,9.7875,0.0898185,-0.655068,1.0153,-0.00760796,-0.000598339,0.0978751,1,3.1177e-05,7.45982e-06,1.80806e-05,0.0062354,0.00149196,0.00361613,0.999277,0.00416236,0.0377324,0.00223178,0.0460701,0.489097,-1.03024,31.5625,3,17638,1812483
68,1,0.999277,0.00418729,0.0377257,0.00224716,-0.80828,-0.0849102,9.78115,0.0430179,-0.673143,1.01245,-0.00808392,-0.000855556,0.0978114,1,3.15048e-05,-5.91959e-06,1.80248e-05,0.00630096,-0.00118392,0.00360495,0.999277,0.00418729,0.0377257,0.00224716,0.0463121,0.486993,-1.0217,31.5625,3,17640,1812683
68,2,0.999277,0.00420265,0.0377217,0.00225075,-0.788736,-0.0686147,9.78727,0.0580109,-0.656063,1.01755,-0.0078884,-0.000693742,0.0978725,1,3.79029e-05,-5.36265e-06,1.11259e-05,0.00758057,-0.00107253,0.00222517,0.999277,0.00420265,0.0377217,0.00225075,0.0472914,0.4889,-1.01964,31.5625,3,17641,1812783
68,3,0.999278,0.00421813,0.0377047,0.00224001,-0.773583,-0.0660047,9.78754,0.0742743,-0.652903,1.01399,-0.00773947,-0.000667558,0.0978751,1,3.85922e-05,-1.86227e-05,-2.78632e-06,0.00771844,-0.00372455,-0.000557264,0.999278,0.00421813,0.0377047,0.00224001,0.0495006,0.491915,-1.02564,31.5625,3,17642,1812883
68,4,0.999278,0.00421813,0.0377047,0.00224001,-0.773583,-0.0660047,9.78754,0.0742743,-0.652903,1.01399,-0.00773947,-0.000667558,0.0978751,1,3.85922e-05,-1.86227e-05,-2.78632e-06,0.00771844,-0.00372455,-0.000557264,0.999278,0.00421813,0.0377047,0.00224001,0.0495006,0.491915,-1.02564,31.5625,3,17642,1812883
69,1,0.999278,0.00423163,0.0376866,0.00225268,-0.75585,-0.0635416,9.77657,0.0881816,-0.658521,1.00103,-0.00755949,-0.000640916,0.0977656,1,2.70828e-05,-5.13898e-06,1.35099e-05,0.00541656,-0.0010278,0.00270199,0.999278,0.00423163,0.0376866,0.00225268,0.0441661,0.488616,-1.02973,31.5625,3,17644,1813083
69,2,0.999278,0.00423163,0.0376866,0.00225268,-0.75585,-0.0635416,9.77657,0.0881816,-0.658521,1.00103,-0.00755949,-0.000640916,0.0977656,1,2.70828e-05,-5.13898e-06,1.35099e-05,0.00541656,-0.0010278,0.00270199,0.999278,0.00423163,0.0376866,0.00225268,0.0441661,0.488616,-1.02973,31.5625,3,17644,1813083
69,3,0.999278,0.00424779,0.0376783,0.00224275,-0.734719,-0.0527019,9.78162,0.111601,-0.64738,1.01491,-0.00734914,-0.000534673,0.097816,1,3.95775e-05,-9.90183e-06,-6.02372e-06,0.0079155,-0.00198037,-0.00120474,0.999278,0.00424779,0.0376783,0.00224275,0.0428575,0.485639,-1.02626,31.5625,3,17645,1813183
69,4,0.999278,0.00424779,0.0376783,0.00224275,-0.734719,-0.0527019,9.78162,0.111601,-0.64738,1.01491,-0.00734914,-0.000534673,0.097816,1,3.95775e-05,-9.90183e-06,-6.02372e-06,0.0079155,-0.00198037,-0.00120474,0.999278,0.00424779,0.0376783,0.00224275,0.0428575,0.485639,-1.02626,31.5625,3,17645,1813183
70,1,0.999279,0.00427684,0.0376655,0.00225149,-0.758231,-0.0592496,9.78002,0.0965914,-0.653316,1.01014,-0.00758302,-0.000601204,0.0978001,1,4.29749e-05,-3.76965e-06,1.99343e-05,0.00859498,-0.00075393,0.00398686,0.999279,0.00427684,0.0376655,0.00225149,0.0477113,0.490386,-1.02112,31.5625,3,17647,1813383
70,2,0.999279,0.00429548,0.0376619,0.00226132,-0.74014,-0.0673875,9.77846,0.108063,-0.655609,1.00067,-0.00740237,-0.000682175,0.0977845,1,4.08291e-05,-5.08326e-06,2.13126e-05,0.00816581,-0.00101665,0.00426252,0.999279,0.00429548,0.0376619,0.00226132,0.0485469,0.49288,-1.02461,31.5625,3,17648,1813483
70,3,0.999279,0.00429548,0.0376619,0.00226132,-0.74014,-0.0673875,9.77846,0.108063,-0.655609,1.00067,-0.00740237,-0.000682175,0.0977845,1,4.08291e-05,-5.08326e-06,2.13126e-05,0.00816581,-0.00101665,0.00426252,0.999279,0.00429548,0.0376619,0.00226132,0.0485469,0.49288,-1.02461,31.5625,3,17648,1813483
70,4,0.999279,0.00429548,0.0376619,0.00226132,-0.74014,-0.0673875,9.77846,0.108063,-0.655609,1.00067,-0.00740237,-0.000682175,0.0977845,1,4.08291e-05,-5.08326e-06,2.13126e-05,0.00816581,-0.00101665,0.00426252,0.999279,0.00429548,0.0376619,0.00226132,0.0485469,0.49288,-1.02461,31.5625,3,17648,1813483
71,1,0.999278,0.00431857,0.0376773,0.00226535,-0.767219,-0.0670609,9.78748,0.0841361,-0.664416,1.01394,-0.00767353,-0.00067801,0.0978746,1,3.69679e-05,-6.91613e-06,1.07009e-05,0.00739358,-0.00138323,0.00214018,0.999278,0.00431857,0.0376773,0.00226535,0.0466082,0.487124,-1.02927,31.5625,3,17650,1813683
71,2,0.999278,0.00433803,0.0376742,0.0022824,-0.77033,-0.0616369,9.78992,0.0775904,-0.653577,1.02177,-0.00770418,-0.000624877,0.0978991,1,4.17587e-05,-4.66033e-06,2.15656e-05,0.00835173,-0.000932067,0.00431313,0.999278,0.00433803,0.0376742,0.0022824,0.0457651,0.486563,-1.02474,31.5625,3,17651,1813783
71,3,0.999278,0.00435607,0.0376656,0.00228536,-0.75362,-0.0664772,9.78434,0.0988812,-0.656539,1.01102,-0.0075382,-0.000672789,0.0978432,1,4.03113e-05,-1.02671e-05,8.54398e-06,0.00806226,-0.00205342,0.0017088,0.999278,0.00435607,0.0376656,0.00228536,0.0458804,0.486961,-1.01968,31.5625,3,17652,1813883
71,4,0.999278,0.00435607,0.0376656,0.00228536,-0.75362,-0.0664772,9.78434,0.0988812,-0.656539,1.01102,-0.0075382,-0.000672789,0.0978432,1,4.03113e-05,-1.02671e-05,8.54398e-06,0.00806226,-0.00205342,0.0017088,0.999278,0.00435607,0.0376656,0.00228536,0.0458804,0.486961,-1.01968,31.5625,3,17652,1813883
72,1,0.999277,0.00439131,0.0376856,0.00229316,-0.752258,-0.067151,9.77819,0.0990147,-0.664867,1.00378,-0.00752045,-0.000679595,0.097782,1,4.00895e-05,1.07513e-05,1.6291e-05,0.00801791,0.00215025,0.00325821,0.999277,0.00439131,0.0376856,0.00229316,0.0504428,0.493849,-1.0251,31.5625,3,17654,1814083
72,2,0.999277,0.00439131,0.0376856,0.00229316,-0.752258,-0.067151,9.77819,0.0990147,-0.664867,1.00378,-0.00752045,-0.000679595,0.097782,1,4.00895e-05,1.07513e-05,1.6291e-05,0.00801791,0.00215025,0.00325821,0.999277,0.00439131,0.0376856,0.00229316,0.0504428,0.493849,-1.0251,31.5625,3,17654,1814083
72,3,0.999277,0.00439634,0.037694,0.00229325,-0.755142,-0.0703879,9.7765,0.0939086,-0.666452,1.00154,-0.00755009,-0.000709449,0.0977651,1,2.79341e-05,6.75583e-06,7.14693e-06,0.00558682,0.00135117,0.00142939,0.999277,0.00439634,0.037694,0.00229325,0.0499153,0.490032,-1.02973,31.5625,3,17655,1814183
72,4,0.999277,0.00439634,0.037694,0.00229325,-0.755142,-0.0703879,9.7765,0.0939086,-0.666452,1.00154,-0.00755009,-0.000709449,0.0977651,1,2.79341e-05,6.75583e-06,7.14693e-06,0.00558682,0.00135117,0.00142939,0.999277,0.00439634,0.037694,0.00229325,0.0499153,0.490032,-1.02973,31.5625,3,17655,1814183
73,1,0.999277,0.00444857,0.0376894,0.00229181,-0.734917,-0.0693684,9.78588,0.113732,-0.673594,1.01517,-0.0073509,-0.00070413,0.0978586,1,5.29568e-05,-8.88118e-06,5.4893e-06,0.0105914,-0.00177624,0.00109786,0.999277,0.00444857,0.0376894,0.00229181,0.0451938,0.487597,-1.02774,31.5625,3,17657,1814383
73,2,0.999277,0.00446585,0.0376842,0.00230175,-0.739173,-0.0558085,9.77687,0.109383,-0.654153,1.00889,-0.00739303,-0.000566031,0.0977686,1,3.94452e-05,-6.75586e-06,1.57468e-05,0.00788905,-0.00135117,0.00314936,0.999277,0.00446585,0.0376842,0.00230175,0.0453095,0.48944,-1.02164,31.5625,3,17658,1814483
73,3,0.999277,0.00446585,0.0376842,0.00230175,-0.739173,-0.0558085,9.77687,0.109383,-0.654153,1.00889,-0.00739303,-0.000566031,0.0977686,1,3.94452e-05,-6.75586e-06,1.57468e-05,0.00788905,-0.00135117,0.00314936,0.999277,0.00446585,0.0376842,0.00230175,0.0453095,0.48944,-1.02164,31.5625,3,17658,1814483
73,4,0.999277,0.00446585,0.0376842,0.00230175,-0.739173,-0.0558085,9.77687,0.109383,-0.654153,1.00889,-0.00739303,-0.000566031,0.0977686,1,3.94452e-05,-6.75586e-06,1.57468e-05,0.00788905,-0.00135117,0.00314936,0.999277,0.00446585,0.0376842,0.00230175,0.0453095,0.48944,-1.02164,31.5625,3,17658,1814483
74,1,0.999278,0.00449345,0.0376677,0.00230903,-0.754922,-0.0636758,9.77964,0.0983034,-0.660034,1.00366,-0.00755262,-0.000640686,0.0977961,1,1.90047e-05,-1.7466e-05,1.39362e-05,0.00380093,-0.0034932,0.00278724,0.999278,0.00449345,0.0376677,0.00230903,0.0480904,0.492866,-1.0236,31.5625,3,17660,1814683
74,2,0.999278,0.00451445,0.0376542,0.00230842,-0.782679,-0.0519953,9.78398,0.066268,-0.653194,1.00972,-0.00782975,-0.000528613,0.0978395,1,4.36864e-05,-1.51584e-05,7.11202e-06,0.00873727,-0.00303168,0.0014224,0.999278,0.00451445,0.0376542,0.00230842,0.0489288,0.491503,-1.02969,31.5625,3,17661,1814783
74,3,0.999278,0.00451445,0.0376542,0.00230842,-0.782679,-0.0519953,9.78398,0.066268,-0.653194,1.00972,-0.00782975,-0.000528613,0.0978395,1,4.36864e-05,-1.51584e-05,7.11202e-06,0.00873727,-0.00303168,0.0014224,0.999278,0.00451445,0.0376542,0.00230842,0.0489288,0.491503,-1.02969,31.5625,3,17661,1814783
74,4,0.999279,0.00453726,0.0376361,0.00231185,-0.769013,-0.0562486,9.77198,0.0744282,-0.657433,0.999766,-0.00769399,-0.000571529,0.0977195,1,4.53945e-05,-1.9854e-05,1.1081e-05,0.0090789,-0.00397079,0.0022162,0.999279,0.00453726,0.0376361,0.00231185,0.0470243,0.489577,-1.03023,31.5625,3,17662,1814883
75,1,0.999279,0.00455047,0.0376193,0.00232721,-0.756789,-0.0504854,9.78213,0.0933103,-0.653875,1.01484,-0.00757149,-0.000512074,0.097821,1,3.53007e-05,-1.85055e-05,2.06699e-05,0.00706014,-0.00370109,0.00413399,0.999279,0.00455047,0.0376193,0.00232721,0.0452635,0.487064,-1.02523,31.5625,3,17663,1814983
75,2,0.999279,0.00457999,0.0376232,0.00233432,-0.759883,-0.0750016,9.77717,0.0948648,-0.674204,1.00602,-0.0075984,-0.000760329,0.0977717,1,5.17331e-05,2.13691e-06,1.29233e-05,0.0103466,0.000427381,0.00258465,0.999279,0.00457999,0.0376232,0.00233432,0.0468222,0.487449,-1.02017,31.5625,3,17664,1815083
75,3,0.999279,0.00459699,0.0376074,0.00233015,-0.775614,-0.0770299,9.77694,0.0735113,-0.670319,1.00572,-0.00775958,-0.000778089,0.0977691,1,3.9516e-05,-1.75964e-05,4.07906e-06,0.00790321,-0.00351928,0.000815812,0.999279,0.00459699,0.0376074,0.00233015,0.0482214,0.490843,-1.0196,31.5625,3,17665,1815183
75,4,0.999279,0.00459699,0.0376074,0.00233015,-0.775614,-0.0770299,9.77694,0.0735113,-0.670319,1.00572,-0.00775958,-0.000778089,0.0977691,1,3.9516e-05,-1.75964e-05,4.07906e-06,0.00790321,-0.00351928,0.000815812,0.999279,0.00459699,0.0376074,0.00233015,0.0482214,0.490843,-1.0196,31.5625,3,17665,1815183
76,1,0.999281,0.00461057,0.0375626,0.00233876,-0.761538,-0.0681562,9.79423,0.0887344,-0.671607,1.01752,-0.00761962,-0.000687975,0.0979419,1,3.20635e-05,-2.17111e-05,8.7375e-06,0.0064127,-0.00434223,0.0017475,0.999281,0.00461057,0.0375626,0.00233876,0.0489288,0.491503,-1.02969,31.5625,3,17667,1815383
76,2,0.999281,0.0046256,0.0375485,0.00235903,-0.74671,-0.0581115,9.80303,0.104433,-0.661767,1.02726,-0.00747019,-0.000588742,0.09803,1,3.67871e-05,-1.59518e-05,2.77851e-05,0.00735743,-0.00319036,0.00555703,0.999281,0.0046256,0.0375485,0.00235903,0.0465185,0.489599,-1.03124,31.5625,3,17668,1815483
76,3,0.999281,0.0046256,0.0375485,0.00235903,-0.74671,-0.0581115,9.80303,0.104433,-0.661767,1.02726,-0.00747019,-0.000588742,0.09803,1,3.67871e-05,-1.59518e-05,2.77851e-05,0.00735743,-0.00319036,0.00555703,0.999281,0.0046256,0.0375485,0.00235903,0.0465185,0.489599,-1.03124,31.5625,3,17668,1815483
76,4,0.999281,0.0046256,0.0375485,0.00235903,-0.74671,-0.0581115,9.80303,0.104433,-0.661767,1.02726,-0.00747019,-0.000588742,0.09803,1,3.67871e-05,-1.59518e-05,2.77851e-05,0.00735743,-0.00319036,0.00555703,0.999281,0.0046256,0.0375485,0.00235903,0.0465185,0.489599,-1.03124,31.5625,3,17668,1815483
77,1,0.999281,0.00464995,0.0375432,0.00236631,-0.782012,-0.0656159,9.77436,0.0678648,-0.665606,1.00557,-0.00782066,-0.000664964,0.0977435,1,4.45693e-05,-2.79931e-06,5.89905e-06,0.00891387,-0.000559861,0.00117981,0.999281,0.00464995,0.0375432,0.00236631,0.044893,0.485541,-1.02172,31.5625,3,17670,1815683
77,2,0.999281,0.00466241,0.0375491,0.00236622,-0.717841,-0.0821223,9.7921,0.124774,-0.682439,1.01682,-0.00717765,-0.000828142,0.097921,1,3.48799e-05,3.8242e-06,6.11686e-06,0.00697598,0.00076484,0.00122337,0.999281,0.00466241,0.0375491,0.00236622,0.0463088,0.489404,-1.02013,31.5625,3,17671,1815783
77,3,0.999281,0.00466241,0.0375491,0.00236622,-0.717841,-0.0821223,9.7921,0.124774,-0.682439,1.01682,-0.00717765,-0.000828142,0.097921,1,3.48799e-05,3.8242e-06,6.11686e-06,0.00697598,0.00076484,0.00122337,0.999281,0.00466241,0.0375491,0.00236622,0.0463088,0.489404,-1.02013,31.5625,3,17671,1815783
77,4,0.999281,0.00466241,0.0375491,0.00236622,-0.717841,-0.0821223,9.7921,0.124774,-0.682439,1.01682,-0.00717765,-0.000828142,0.097921,1,3.48799e-05,3.8242e-06,6.11686e-06,0.00697598,0.00076484,0.00122337,0.999281,0.00466241,0.0375491,0.00236622,0.0463088,0.489404,-1.02013,31.5625,3,17671,1815783
78,1,0.999279,0.00466977,0.037605,0.00236976,-0.565641,-0.0714738,9.76978,0.285444,-0.671158,0.986144,-0.00565049,-0.000719416,0.0976981,1,2.31023e-05,3.02084e-05,1.45324e-05,0.00462046,0.00604169,0.00290647,0.999279,0.00466977,0.037605,0.00236976,0.0489412,0.491494,-1.02919,31.5625,3,17673,1815983
78,2,0.999277,0.00469314,0.0376578,0.00238622,-0.526113,-0.0729256,9.77525,0.32399,-0.675917,0.988221,-0.00525102,-0.000738397,0.097753,1,4.55471e-05,5.15377e-05,2.24523e-05,0.00910941,0.0103075,0.00449045,0.999277,0.00469314,0.0376578,0.00238622,0.0460986,0.488112,-1.02975,31.5625,3,17674,1816083
78,3,0.999274,0.00471926,0.0377171,0.00239872,-0.545196,-0.0853403,9.79936,0.301885,-0.695206,1.00991,-0.00544048,-0.000863108,0.0979942,1,4.86132e-05,5.84442e-05,1.62833e-05,0.00972263,0.0116888,0.00325667,0.999274,0.00471926,0.0377171,0.00239872,0.0453162,0.484616,-1.02478,31.5625,3,17675,1816183
78,4,0.999274,0.00471926,0.0377171,0.00239872,-0.545196,-0.0853403,9.79936,0.301885,-0.695206,1.00991,-0.00544048,-0.000863108,0.0979942,1,4.86132e-05,5.84442e-05,1.62833e-05,0.00972263,0.0116888,0.00325667,0.999274,0.00471926,0.0377171,0.00239872,0.0453162,0.484616,-1.02478,31.5625,3,17675,1816183
79,1,0.99927,0.0047686,0.0378256,0.00241683,-0.842868,-0.0818213,9.79835,0.0189913,-0.692861,1.02738,-0.00842219,-0.000826242,0.097984,1,3.91344e-05,3.29407e-05,2.13867e-05,0.00782688,0.00658814,0.00427733,0.99927,0.0047686,0.0378256,0.00241683,0.0501577,0.489372,-1.02015,31.5625,3,17677,1816383
79,2,0.99927,0.00476809,0.0378314,0.00241871,-0.95139,-0.0822818,9.80046,-0.0909185,-0.693331,1.0388,-0.00951284,-0.000827317,0.0980047,1,2.19141e-05,5.30093e-06,1.07399e-05,0.00438282,0.00106019,0.00214797,0.99927,0.00476809,0.0378314,0.00241871,0.0495129,0.491906,-1.02514,31.5625,3,17678,1816483
79,3,0.99927,0.00476809,0.0378314,0.00241871,-0.95139,-0.0822818,9.80046,-0.0909185,-0.693331,1.0388,-0.00951284,-0.000827317,0.0980047,1,2.19141e-05,5.30093e-06,1.07399e-05,0.00438282,0.00106019,0.00214797,0.99927,0.00476809,0.0378314,0.00241871,0.0495129,0.491906,-1.02514,31.5625,3,17678,1816483
79,4,0.99927,0.00476809,0.0378314,0.00241871,-0.95139,-0.0822818,9.80046,-0.0909185,-0.693331,1.0388,-0.00951284,-0.000827317,0.0980047,1,2.19141e-05,5.30093e-06,1.07399e-05,0.00438282,0.00106019,0.00214797,0.99927,0.00476809,0.0378314,0.00241871,0.0495129,0.491906,-1.02514,31.5625,3,17678,1816483
80,1,0.999272,0.0048,0.0377719,0.00241277,-0.943956,-0.030987,9.79377,-0.0860684,-0.63331,1.0391,-0.00944695,-0.000318983,0.0979369,1,4.59478e-05,-3.77594e-05,5.93407e-06,0.00918957,-0.00755189,0.00118681,0.999272,0.0048,0.0377719,0.00241277,0.0460986,0.488112,-1.02975,31.5625,3,17680,1816683
80,2,0.999274,0.00481532,0.037723,0.00240468,-0.873407,-0.0547514,9.78902,-0.0227429,-0.64972,1.02504,-0.008744,-0.000554891,0.0978892,1,3.81096e-05,-5.06956e-05,-4.77797e-06,0.00762192,-0.0101391,-0.000955595,0.999274,0.00481532,0.037723,0.00240468,0.0462747,0.485574,-1.02425,31.5625,3,17681,1816783
80,3,0.999274,0.00481532,0.037723,0.00240468,-0.873407,-0.0547514,9.78902,-0.0227429,-0.64972,1.02504,-0.008744,-0.000554891,0.0978892,1,3.81096e-05,-5.06956e-05,-4.77797e-06,0.00762192,-0.0101391,-0.000955595,0.999274,0.00481532,0.037723,0.00240468,0.0462747,0.485574,-1.02425,31.5625,3,17681,1816783
80,4,0.999274,0.00481532,0.037723,0.00240468,-0.873407,-0.0547514,9.78902,-0.0227429,-0.64972,1.02504,-0.008744,-0.000554891,0.0978892,1,3.81096e-05,-5.06956e-05,-4.77797e-06,0.00762192,-0.0101391,-0.000955595,0.999274,0.00481532,0.037723,0.00240468,0.0462747,0.485574,-1.02425,31.5625,3,17681,1816783
81,1,0.999275,0.0048547,0.0376842,0.00240016,-0.769248,-0.0927155,9.7503,0.0867209,-0.687426,0.985918,-0.00769564,-0.000936403,0.0975026,1,4.71304e-05,-1.62481e-05,3.66939e-06,0.00942608,-0.00324961,0.000733879,0.999275,0.0048547,0.0376842,0.00240016,0.0462884,0.489901,-1.02062,31.5625,3,17683,1816983
81,2,0.999274,0.00487279,0.0377008,0.00240353,-0.820721,-0.110953,9.74131,0.0345762,-0.682916,0.97151,-0.00820435,-0.00111759,0.0974132,1,4.04436e-05,1.4512e-05,1.08051e-05,0.00808872,0.0029024,0.00216101,0.999274,0.00487279,0.0377008,0.00240353,0.0485549,0.492392,-1.02462,31.5625,3,17684,1817083
81,3,0.999275,0.00490443,0.037689,0.00240744,-0.8993,-0.0758731,9.74115,-0.0515471,-0.664145,0.973639,-0.00899571,-0.000769496,0.0974111,1,5.4095e-05,-1.40313e-05,1.26191e-05,0.010819,-0.00280627,0.00252383,0.999275,0.00490443,0.037689,0.00240744,0.0489654,0.490031,-1.02922,31.5625,3,17685,1817183
81,4,0.999275,0.00490443,0.037689,0.00240744,-0.8993,-0.0758731,9.74115,-0.0515471,-0.664145,0.973639,-0.00899571,-0.000769496,0.0974111,1,5.4095e-05,-1.40313e-05,1.26191e-05,0.010819,-0.00280627,0.00252383,0.999275,0.00490443,0.037689,0.00240744,0.0489654,0.490031,-1.02922,31.5625,3,17685,1817183
82,1,0.999275,0.00499346,0.0376535,0.00240379,-0.854617,-0.080175,9.77574,0.03751,-0.653452,1.02387,-0.00854988,-0.000816742,0.097757,1,7.61131e-05,-1.90229e-05,6.45678e-06,0.0152226,-0.00380458,0.00129136,0.999275,0.00499346,0.0376535,0.00240379,0.0462049,0.486107,-1.02677,31.5625,3,17687,1817383
82,2,0.999275,0.0051177,0.0376375,0.00238661,-0.930257,-0.0982766,9.85187,-0.0404968,-0.756744,0.943418,-0.0093064,-0.00101166,0.098518,1,0.000147309,-1.93568e-05,-7.05504e-06,0.0294619,-0.00387136,-0.00141101,0.999275,0.0051177,0.0376375,0.00238661,0.0467852,0.487476,-1.02169,31.5625,3,17688,1817483
82,3,0.999275,0.0051177,0.0376375,0.00238661,-0.930257,-0.0982766,9.85187,-0.0404968,-0.756744,0.943418,-0.0093064,-0.00101166,0.098518,1,0.000147309,-1.93568e-05,-7.05504e-06,0.0294619,-0.00387136,-0.00141101,0.999275,0.0051177,0.0376375,0.00238661,0.0467852,0.487476,-1.02169,31.5625,3,17688,1817483
82,4,0.999275,0.0051177,0.0376375,0.00238661,-0.930257,-0.0982766,9.85187,-0.0404968,-0.756744,0.943418,-0.0093064,-0.00101166,0.098518,1,0.000147309,-1.93568e-05,-7.05504e-06,0.0294619,-0.00387136,-0.00141101,0.999275,0.0051177,0.0376375,0.00238661,0.0467852,0.487476,-1.02169,31.5625,3,17688,1817483
83,1,0.999276,0.0051314,0.0376267,0.00239698,-1.06367,0.0657977,9.73699,-0.255331,-1.09309,1.05308,-0.0106396,0.000658732,0.0973695,1,-6.21277e-06,-1.4503e-05,2.13925e-05,-0.00124255,-0.00290059,0.0042785,0.999276,0.0051314,0.0376267,0.00239698,0.0485749,0.49045,-1.02517,31.5625,3,17690,1817683
83,2,0.999277,0.00510108,0.0376029,0.00242546,-1.00776,-0.156154,9.71536,-0.200025,-1.21072,1.03143,-0.010083,-0.0015604,0.0971531,1,-9.30161e-06,-2.81534e-05,3.30411e-05,-0.00186032,-0.00563067,0.00660822,0.999277,0.00510108,0.0376029,0.00242546,0.0465555,0.489572,-1.02972,31.5625,3,17691,1817783
83,3,0.999277,0.00510108,0.0376029,0.00242546,-1.00776,-0.156154,9.71536,-0.200025,-1.21072,1.03143,-0.010083,-0.0015604,0.0971531,1,-9.30161e-06,-2.81534e-05,3.30411e-05,-0.00186032,-0.00563067,0.00660822,0.999277,0.00510108,0.0376029,0.00242546,0.0465555,0.489572,-1.02972,31.5625,3,17691,1817783
83,4,0.999277,0.00510108,0.0376029,0.00242546,-1.00776,-0.156154,9.71536,-0.200025,-1.21072,1.03143,-0.010083,-0.0015604,0.0971531,1,-9.30161e-06,-2.81534e-05,3.30411e-05,-0.00186032,-0.00563067,0.00660822,0.999277,0.00510108,0.0376029,0.00242546,0.0465555,0.489572,-1.02972,31.5625,3,17691,1817783
84,1,0.999279,0.00510662,0.0375518,0.00246619,-0.894905,-0.182741,9.77589,-0.00889387,-0.752638,1.03252,-0.00895488,-0.00183882,0.0977582,1,5.70261e-05,-3.0085e-05,1.44887e-05,0.0114052,-0.006017,0.00289773,0.999279,0.00510662,0.0375518,0.00246619,0.0457731,0.486075,-1.02475,31.5625,3,17693,1817983
84,2,0.99928,0.00512848,0.037519,0.00247743,-0.901039,-0.172202,9.82961,0.016033,-0.569078,1.07744,-0.00901787,-0.0017309,0.0982953,1,4.33783e-05,-3.83408e-05,1.94562e-05,0.00867567,-0.00766815,0.00389125,0.99928,0.00512848,0.037519,0.00247743,0.0473194,0.48647,-1.0202,31.5625,3,17694,1818083
84,3,0.99928,0.00519872,0.0374972,0.00248005,-0.829023,-0.156791,9.78414,0.0504215,-0.557483,1.00772,-0.00829559,-0.0015862,0.0978407,1,9.21035e-05,-2.76857e-05,1.64032e-05,0.0184207,-0.00553714,0.00328063,0.99928,0.00519872,0.0374972,0.00248005,0.0472834,0.489388,-1.01963,31.5625,3,17695,1818183
84,4,0.99928,0.00519872,0.0374972,0.00248005,-0.829023,-0.156791,9.78414,0.0504215,-0.557483,1.00772,-0.00829559,-0.0015862,0.0978407,1,9.21035e-05,-2.76857e-05,1.64032e-05,0.0184207,-0.00553714,0.00328063,0.99928,0.00519872,0.0374972,0.00248005,0.0472834,0.489388,-1.01963,31.5625,3,17695,1818183
85,1,0.999281,0.00529099,0.037472,0.00248355,-0.873696,0.0223922,9.77406,-0.0322225,-0.605993,1.01682,-0.0087393,0.000212322,0.0977404,1,5.79528e-05,-1.19292e-05,1.55222e-05,0.0115905,-0.00238583,0.00310444,0.999281,0.00529099,0.037472,0.00248355,0.048452,0.491986,-1.02917,31.5625,3,17697,1818383
85,2,0.99928,0.00531358,0.0374755,0.00247511,-0.940782,-0.0153467,9.77351,-0.0987557,-0.719444,1.02155,-0.00940837,-0.000162334,0.097735,1,4.55156e-05,-2.79372e-06,-1.57401e-06,0.00910313,-0.000558745,-0.000314802,0.99928,0.00531358,0.0374755,0.00247511,0.0465512,0.489093,-1.03024,31.5625,3,17698,1818483
85,3,0.99928,0.00531358,0.0374755,0.00247511,-0.940782,-0.0153467,9.77351,-0.0987557,-0.719444,1.02155,-0.00940837,-0.000162334,0.097735,1,4.55156e-05,-2.79372e-06,-1.57401e-06,0.00910313,-0.000558745,-0.000314802,0.99928,0.00531358,0.0374755,0.00247511,0.0465512,0.489093,-1.03024,31.5625,3,17698,1818483
85,4,0.99928,0.00531358,0.0374755,0.00247511,-0.940782,-0.0153467,9.77351,-0.0987557,-0.719444,1.02155,-0.00940837,-0.000162334,0.097735,1,4.55156e-05,-2.79372e-06,-1.57401e-06,0.00910313,-0.000558745,-0.000314802,0.99928,0.00531358,0.0374755,0.00247511,0.0465512,0.489093,-1.03024,31.5625,3,17698,1818483
86,1,0.999281,0.00533069,0.0374449,0.00248667,-0.957938,-0.12848,9.77946,-0.118793,-0.748645,1.02409,-0.00958688,-0.0012933,0.0977938,1,4.26192e-05,-3.84469e-05,8.42642e-06,0.00852385,-0.00768937,0.00168529,0.999281,0.00533069,0.0374449,0.00248667,0.0458595,0.486012,-1.02121,31.5625,3,17700,1818683
86,2,0.999282,0.00537223,0.037424,0.00249087,-0.871825,-0.0807555,9.80608,-0.0225751,-0.666437,1.03754,-0.00872375,-0.000820218,0.0980602,1,6.34101e-05,-2.81e-05,1.30525e-05,0.012682,-0.00562001,0.0026105,0.999282,0.00537223,0.037424,0.00249087,0.0457907,0.489436,-1.02164,31.5625,3,17701,1818783
86,3,0.999282,0.0054215,0.0374064,0.00251188,-0.7462,-0.031147,9.80055,0.0925441,-0.623441,1.01806,-0.00746687,-0.000325816,0.0980051,1,7.10652e-05,-2.49229e-05,2.79398e-05,0.014213,-0.00498458,0.00558796,0.999282,0.0054215,0.0374064,0.00251188,0.0475723,0.492897,-1.02511,31.5625,3,17702,1818883
86,4,0.999282,0.0054215,0.0374064,0.00251188,-0.7462,-0.031147,9.80055,0.0925441,-0.623441,1.01806,-0.00746687,-0.000325816,0.0980051,1,7.10652e-05,-2.49229e-05,2.79398e-05,0.014213,-0.00498458,0.00558796,0.999282,0.0054215,0.0374064,0.00251188,0.0475723,0.492897,-1.02511,31.5625,3,17702,1818883
87,1,0.999283,0.00546341,0.0373769,0.00254581,-0.47813,0.0372073,9.81187,0.348204,-0.590217,1.01507,-0.00478288,0.000363852,0.0981187,1,4.0561e-05,-7.92906e-06,2.72859e-05,0.0081122,-0.00158581,0.00545718,0.999283,0.00546341,0.0373769,0.00254581,0.0460829,0.490533,-1.02869,31.5625,3,17704,1819083
87,2,0.999283,0.00546341,0.0373769,0.00254581,-0.47813,0.0372073,9.81187,0.348204,-0.590217,1.01507,-0.00478288,0.000363852,0.0981187,1,4.0561e-05,-7.92906e-06,2.72859e-05,0.0081122,-0.00158581,0.00545718,0.999283,0.00546341,0.0373769,0.00254581,0.0460829,0.490533,-1.02869,31.5625,3,17704,1819083
87,3,0.999282,0.00547753,0.0373926,0.00257159,-0.436892,0.00942629,9.81983,0.406403,-0.621135,1.02333,-0.00436709,8.70331e-05,0.0981984,1,3.54759e-05,9.35795e-06,3.00408e-05,0.00709519,0.00187159,0.00600815,0.999282,0.00547753,0.0373926,0.00257159,0.0457817,0.487033,-1.02371,31.5625,3,17705,1819183
87,4,0.999282,0.00547753,0.0373926,0.00257159,-0.436892,0.00942629,9.81983,0.406403,-0.621135,1.02333,-0.00436709,8.70331e-05,0.0981984,1,3.54759e-05,9.35795e-06,3.00408e-05,0.00709519,0.00187159,0.00600815,0.999282,0.00547753,0.0373926,0.00257159,0.0457817,0.487033,-1.02371,31.5625,3,17705,1819183
88,1,0.999286,0.00547151,0.0372992,0.00245575,2.1976,0.493985,10.3587,3.21826,0.363997,1.55507,0.0219592,0.0049428,0.103591,1,-3.22684e-05,-8.51981e-05,-8.50794e-05,-0.00645369,-0.0170396,-0.0170159,0.999286,0.00547151,0.0372992,0.00245575,0.0477607,0.49035,-1.0191,31.5625,3,17707,1819383
88,2,0.999288,0.00553283,0.0372419,0.00241241,1.15525,-0.197087,9.46188,1.48856,-1.05928,0.303223,0.0115413,-0.00198743,0.0946198,1,8.33347e-05,-5.84992e-05,-3.43382e-05,0.0166669,-0.0116998,-0.00686763,0.999288,0.00553283,0.0372419,0.00241241,0.0485469,0.49288,-1.02461,31.5625,3,17708,1819483
88,3,0.999288,0.00553283,0.0372419,0.00241241,1.15525,-0.197087,9.46188,1.48856,-1.05928,0.303223,0.0115413,-0.00198743,0.0946198,1,8.33347e-05,-5.84992e-05,-3.43382e-05,0.0166669,-0.0116998,-0.00686763,0.999288,0.00553283,0.0372419,0.00241241,0.0485469,0.49288,-1.02461,31.5625,3,17708,1819483
88,4,0.999288,0.00553283,0.0372419,0.00241241,1.15525,-0.197087,9.46188,1.48856,-1.05928,0.303223,0.0115413,-0.00198743,0.0946198,1,8.33347e-05,-5.84992e-05,-3.43382e-05,0.0166669,-0.0116998,-0.00686763,0.999288,0.00553283,0.0372419,0.00241241,0.0485469,0.49288,-1.02461,31.5625,3,17708,1819483
89,1,0.999274,0.00548132,0.0376168,0.00236034,0.298679,-1.2818,9.81511,1.57299,-1.86133,1.04426,0.00303656,-0.0128344,0.0981475,1,8.35862e-05,0.000253946,-3.09888e-06,0.0167172,0.0507892,-0.000619777,0.999274,0.00548132,0.0376168,0.00236034,0.0460901,0.487155,-1.03078,31.5625,3,17710,1819683
89,2,0.999268,0.00555937,0.0377798,0.00233288,-1.7885,-0.560701,9.73547,-0.86843,-0.82274,0.987888,-0.0178521,-0.00562616,0.0973597,1,0.000102267,0.000170173,-2.13239e-05,0.0204534,0.0340346,-0.00426478,0.999268,0.00555937,0.0377798,0.00233288,0.0457893,0.4851,-1.02477,31.5625,3,17711,1819783
89,3,0.999268,0.00571925,0.0377569,0.00233819,-1.86349,-0.108578,9.86831,-1.10866,-0.598067,1.14345,-0.0186384,-0.0011225,0.098682,1,0.000183197,-1.78973e-05,1.53389e-05,0.0366394,-0.00357945,0.00306778,0.999268,0.00571925,0.0377569,0.00233819,0.0454035,0.487443,-1.01916,31.5625,3,17712,1819883
89,4,0.999268,0.00571925,0.0377569,0.00233819,-1.86349,-0.108578,9.86831,-1.10866,-0.598067,1.14345,-0.0186384,-0.0011225,0.098682,1,0.000183197,-1.78973e-05,1.53389e-05,0.0366394,-0.00357945,0.00306778,0.999268,0.00571925,0.0377569,0.00233819,0.0454035,0.487443,-1.01916,31.5625,3,17712,1819883
90,1,0.999272,0.00586985,0.0376169,0.00237078,-1.09767,0.301498,9.80961,-0.353843,-0.558128,1.05707,-0.0109905,0.00299626,0.0980951,1,9.24142e-05,-6.99284e-05,2.685e-05,0.0184828,-0.0139857,0.00537,0.999272,0.00586985,0.0376169,0.00237078,0.0481023,0.491412,-1.02413,31.5625,3,17714,1820083
90,2,0.999272,0.00586985,0.0376169,0.00237078,-1.09767,0.301498,9.80961,-0.353843,-0.558128,1.05707,-0.0109905,0.00299626,0.0980951,1,9.24142e-05,-6.99284e-05,2.685e-05,0.0184828,-0.0139857,0.00537,0.999272,0.00586985,0.0376169,0.00237078,0.0481023,0.491412,-1.02413,31.5625,3,17714,1820083
90,3,0.999273,0.00582825,0.0376106,0.00240845,-0.744076,0.30173,9.78005,0.00141877,-0.57877,1.02507,-0.00744188,0.00302075,0.0978004,1,-2.09299e-05,-4.37835e-06,4.31325e-05,-0.00418599,-0.000875669,0.00862651,0.999273,0.00582825,0.0376106,0.00240845,0.0480197,0.490508,-1.02819,31.5625,3,17715,1820183
90,4,0.999273,0.00582825,0.0376106,0.00240845,-0.744076,0.30173,9.78005,0.00141877,-0.57877,1.02507,-0.00744188,0.00302075,0.0978004,1,-2.09299e-05,-4.37835e-06,4.31325e-05,-0.00418599,-0.000875669,0.00862651,0.999273,0.00582825,0.0376106,0.00240845,0.0480197,0.490508,-1.02819,31.5625,3,17715,1820183
91,1,0.999266,0.00575172,0.0378059,0.00246196,-0.549466,-0.300175,9.68692,0.313134,-0.930398,0.898248,-0.00547058,-0.00300296,0.0968705,1,4.97152e-06,0.000123586,2.27674e-05,0.000994305,0.0247172,0.00455348,0.999266,0.00575172,0.0378059,0.00246196,0.0458059,0.485569,-1.02375,31.5625,3,17717,1820383
91,2,0.999259,0.00576109,0.0379731,0.00249275,-0.591435,-0.0883547,9.77142,0.253617,-0.676458,0.97097,-0.00588114,-0.000889888,0.0977161,1,3.03927e-05,0.000169615,3.40755e-05,0.00607854,0.033923,0.00681509,0.999259,0.00576109,0.0379731,0.00249275,0.0468018,0.487946,-1.02067,31.5625,3,17718,1820483
91,3,0.999259,0.00576109,0.0379731,0.00249275,-0.591435,-0.0883547,9.77142,0.253617,-0.676458,0.97097,-0.00588114,-0.000889888,0.0977161,1,3.03927e-05,0.000169615,3.40755e-05,0.00607854,0.033923,0.00681509,0.999259,0.00576109,0.0379731,0.00249275,0.0468018,0.487946,-1.02067,31.5625,3,17718,1820483
91,4,0.999253,0.00577723,0.0381347,0.00249809,-0.702887,-0.160341,9.77494,0.182372,-0.745159,0.97349,-0.00699676,-0.00161101,0.0977516,1,3.79973e-05,0.000164073,1.17555e-05,0.00759945,0.0328146,0.0023511,0.999253,0.00577723,0.0381347,0.00249809,0.0501046,0.490375,-1.02164,31.5625,3,17719,1820583
92,1,0.999247,0.00580317,0.0382729,0.00250269,-0.752539,-0.0116884,9.76807,0.136302,-0.613969,0.962253,-0.00749792,-0.000126441,0.0976828,1,4.78885e-05,0.000140579,1.34143e-05,0.00957771,0.0281158,0.00268286,0.999247,0.00580317,0.0382729,0.00250269,0.0519389,0.491389,-1.02466,31.5625,3,17720,1820683
92,2,0.999243,0.00581663,0.0383796,0.00248596,-0.819504,0.00627038,9.79786,0.051895,-0.610502,1.017,-0.00817367,5.57593e-05,0.0979804,1,3.61757e-05,0.000109067,-8.82904e-06,0.00723515,0.0218135,-0.00176581,0.999243,0.00581663,0.0383796,0.00248596,0.051844,0.490494,-1.02922,31.5625,3,17721,1820783
92,3,0.999243,0.00581663,0.0383796,0.00248596,-0.819504,0.00627038,9.79786,0.051895,-0.610502,1.017,-0.00817367,5.57593e-05,0.0979804,1,3.61757e-05,0.000109067,-8.82904e-06,0.00723515,0.0218135,-0.00176581,0.999243,0.00581663,0.0383796,0.00248596,0.051844,0.490494,-1.02922,31.5625,3,17721,1820783
92,4,0.999243,0.00581663,0.0383796,0.00248596,-0.819504,0.00627038,9.79786,0.051895,-0.610502,1.017,-0.00817367,5.57593e-05,0.0979804,1,3.61757e-05,0.000109067,-8.82904e-06,0.00723515,0.0218135,-0.00176581,0.999243,0.00581663,0.0383796,0.00248596,0.051844,0.490494,-1.02922,31.5625,3,17721,1820783
93,1,0.99924,0.00582372,0.0384652,0.00247118,-1.1344,-0.135361,9.76394,-0.266657,-0.758704,1.01688,-0.0113434,-0.00136052,0.0976393,1,3.61017e-05,3.43848e-06,-6.21992e-06,0.00722034,0.000687696,-0.00124398,0.99924,0.00582372,0.0384652,0.00247118,0.0472042,0.486072,-1.02526,31.5625,3,17723,1820983
93,2,0.999241,0.00583426,0.038447,0.00246517,-1.05181,-0.0810122,9.80253,-0.188275,-0.718858,1.04727,-0.0105216,-0.000816482,0.0980249,1,3.27303e-05,-1.73692e-05,-2.71974e-06,0.00654607,-0.00347384,-0.000543948,0.999241,0.00583426,0.038447,0.00246517,0.0482774,0.485983,-1.02072,31.5625,3,17724,1821083
93,3,0.999242,0.00584477,0.0384039,0.00244284,-1.12656,0.00197627,9.78613,-0.249197,-0.637513,1.04624,-0.011274,1.36508e-05,0.0978604,1,3.30117e-05,-4.2865e-05,-1.54934e-05,0.00660235,-0.008573,-0.00309868,0.999242,0.00584477,0.0384039,0.00244284,0.0515641,0.489388,-1.02167,31.5625,3,17725,1821183
93,4,0.999242,0.00584477,0.0384039,0.00244284,-1.12656,0.00197627,9.78613,-0.249197,-0.637513,1.04624,-0.011274,1.36508e-05,0.0978604,1,3.30117e-05,-4.2865e-05,-1.54934e-05,0.00660235,-0.008573,-0.00309868,0.999242,0.00584477,0.0384039,0.00244284,0.0515641,0.489388,-1.02167,31.5625,3,17725,1821183
94,1,0.999245,0.00585979,0.0383219,0.00241269,-1.16478,-0.0237124,9.74646,-0.288906,-0.642136,0.998665,-0.0116548,-0.000243292,0.0974638,1,3.23692e-05,-3.56322e-05,-6.10591e-06,0.00647384,-0.00712644,-0.00122118,0.999245,0.00585979,0.0383219,0.00241269,0.0498668,0.492958,-1.02966,31.5625,3,17727,1821383
94,2,0.999247,0.00587054,0.0382739,0.00239397,-1.34036,-0.100213,9.72632,-0.467,-0.72989,0.997792,-0.0134133,-0.00100821,0.0972618,1,3.31312e-05,-4.96673e-05,-1.331e-05,0.00662625,-0.00993346,-0.00266199,0.999247,0.00587054,0.0382739,0.00239397,0.047542,0.4881,-1.02976,31.5625,3,17728,1821483
94,3,0.999247,0.00587054,0.0382739,0.00239397,-1.34036,-0.100213,9.72632,-0.467,-0.72989,0.997792,-0.0134133,-0.00100821,0.0972618,1,3.31312e-05,-4.96673e-05,-1.331e-05,0.00662625,-0.00993346,-0.00266199,0.999247,0.00587054,0.0382739,0.00239397,0.047542,0.4881,-1.02976,31.5625,3,17728,1821483
94,4,0.999247,0.00587054,0.0382739,0.00239397,-1.34036,-0.100213,9.72632,-0.467,-0.72989,0.997792,-0.0134133,-0.00100821,0.0972618,1,3.31312e-05,-4.96673e-05,-1.331e-05,0.00662625,-0.00993346,-0.00266199,0.999247,0.00587054,0.0382739,0.00239397,0.047542,0.4881,-1.02976,31.5625,3,17728,1821483
95,1,0.999252,0.0058777,0.0381508,0.00243753,-1.3264,-0.0687293,9.72958,-0.47408,-0.727104,1.00646,-0.0132779,-0.000693648,0.0972939,1,2.84199e-05,-7.1781e-05,3.1078e-05,0.00568398,-0.0143562,0.00621561,0.999252,0.0058777,0.0381508,0.00243753,0.0477147,0.487974,-1.02269,31.5625,3,17730,1821683
95,2,0.999254,0.00586995,0.0380906,0.00246162,-1.17424,0.00920152,9.7163,-0.32346,-0.642543,0.981896,-0.0117549,8.88027e-05,0.0971615,1,1.28002e-05,-6.43281e-05,3.08588e-05,0.00256005,-0.0128656,0.00617176,0.999254,0.00586995,0.0380906,0.00246162,0.0505776,0.490859,-1.02163,31.5625,3,17731,1821783
95,3,0.999254,0.00586995,0.0380906,0.00246162,-1.17424,0.00920152,9.7163,-0.32346,-0.642543,0.981896,-0.0117549,8.88027e-05,0.0971615,1,1.28002e-05,-6.43281e-05,3.08588e-05,0.00256005,-0.0128656,0.00617176,0.999254,0.00586995,0.0380906,0.00246162,0.0505776,0.490859,-1.02163,31.5625,3,17731,1821783
95,4,0.999254,0.00586995,0.0380906,0.00246162,-1.17424,0.00920152,9.7163,-0.32346,-0.642543,0.981896,-0.0117549,8.88027e-05,0.0971615,1,1.28002e-05,-6.43281e-05,3.08588e-05,0.00256005,-0.0128656,0.00617176,0.999254,0.00586995,0.0380906,0.00246162,0.0505776,0.490859,-1.02163,31.5625,3,17731,1821783
96,1,0.999257,0.00583179,0.038024,0.00251208,-0.954299,-0.047224,9.78724,-0.0593261,-0.674342,0.989216,-0.00954762,-0.000470999,0.097872,1,-9.87784e-06,-2.38244e-05,3.62781e-05,-0.00197557,-0.00476489,0.00725562,0.999257,0.00583179,0.038024,0.00251208,0.0503802,0.491003,-1.02971,31.5625,3,17733,1821983
96,2,0.999257,0.00577498,0.0380223,0.00257326,-0.979308,-0.395396,9.66536,-0.136686,-0.735974,0.836949,-0.00979394,-0.00394799,0.0966537,1,-3.7214e-05,-7.00779e-06,6.24381e-05,-0.00744279,-0.00140156,0.0124876,0.999257,0.00577498,0.0380223,0.00257326,0.0475458,0.487134,-1.03029,31.5625,3,17734,1822083
96,3,0.999256,0.00586713,0.0380341,0.00258,-0.96823,-0.11123,9.80218,-0.0171655,-0.458999,0.983227,-0.00968119,-0.00113495,0.0980217,1,0.000114186,5.51311e-06,1.38464e-05,0.0228371,0.00110262,0.00276928,0.999256,0.00586713,0.0380341,0.00258,0.0482233,0.484095,-1.0243,31.5625,3,17735,1822183
96,4,0.999256,0.00586713,0.0380341,0.00258,-0.96823,-0.11123,9.80218,-0.0171655,-0.458999,0.983227,-0.00968119,-0.00113495,0.0980217,1,0.000114186,5.51311e-06,1.38464e-05,0.0228371,0.00110262,0.00276928,0.999256,0.00586713,0.0380341,0.00258,0.0482233,0.484095,-1.0243,31.5625,3,17735,1822183
97,1,0.999253,0.00591934,0.0380962,0.00261423,-1.10252,0.0489991,9.70088,-0.240582,-0.702578,0.928286,-0.0110188,0.000483127,0.0970096,1,3.31162e-05,3.27368e-05,1.99247e-05,0.00662325,0.00654736,0.00398494,0.999253,0.00591934,0.0380962,0.00261423,0.0505449,0.491365,-1.02263,31.5625,3,17737,1822383
97,2,0.999253,0.00589509,0.0380965,0.00262916,-0.941977,9.74439e-05,9.71633,-0.0701422,-0.724127,0.947007,-0.00942097,1.17079e-06,0.0971632,1,-3.04712e-06,-6.19799e-06,2.10069e-05,-0.000609424,-0.0012396,0.00420138,0.999253,0.00589509,0.0380965,0.00262916,0.0509358,0.49239,-1.02564,31.5625,3,17738,1822483
97,3,0.999253,0.00589509,0.0380965,0.00262916,-0.941977,9.74439e-05,9.71633,-0.0701422,-0.724127,0.947007,-0.00942097,1.17079e-06,0.0971632,1,-3.04712e-06,-6.19799e-06,2.10069e-05,-0.000609424,-0.0012396,0.00420138,0.999253,0.00589509,0.0380965,0.00262916,0.0509358,0.49239,-1.02564,31.5625,3,17738,1822483
97,4,0.999253,0.00589509,0.0380965,0.00262916,-0.941977,9.74439e-05,9.71633,-0.0701422,-0.724127,0.947007,-0.00942097,1.17079e-06,0.0971632,1,-3.04712e-06,-6.19799e-06,2.10069e-05,-0.000609424,-0.0012396,0.00420138,0.999253,0.00589509,0.0380965,0.00262916,0.0509358,0.49239,-1.02564,31.5625,3,17738,1822483
98,1,0.999255,0.00593038,0.0380464,0.00264504,-0.708373,-0.101973,9.82141,0.138748,-0.766684,1.02229,-0.00708894,-0.00102851,0.0982137,1,4.42266e-05,-2.65484e-05,6.8492e-06,0.00884532,-0.00530967,0.00136984,0.999255,0.00593038,0.0380464,0.00264504,0.048015,0.488584,-1.02975,31.5625,3,17740,1822683
98,2,0.999255,0.00595263,0.0380442,0.00264695,-0.690755,-0.136381,9.80131,0.182731,-0.736692,1.0302,-0.00690929,-0.00137256,0.0980128,1,4.41633e-05,-8.94091e-06,6.33314e-06,0.00883265,-0.00178818,0.00126663,0.999255,0.00595263,0.0380442,0.00264695,0.0472208,0.486542,-1.02424,31.5625,3,17741,1822783
98,3,0.999255,0.00595263,0.0380442,0.00264695,-0.690755,-0.136381,9.80131,0.182731,-0.736692,1.0302,-0.00690929,-0.00137256,0.0980128,1,4.41633e-05,-8.94091e-06,6.33314e-06,0.00883265,-0.00178818,0.00126663,0.999255,0.00595263,0.0380442,0.00264695,0.0472208,0.486542,-1.02424,31.5625,3,17741,1822783
98,4,0.999255,0.00595263,0.0380442,0.00264695,-0.690755,-0.136381,9.80131,0.182731,-0.736692,1.0302,-0.00690929,-0.00137256,0.0980128,1,4.41633e-05,-8.94091e-06,6.33314e-06,0.00883265,-0.00178818,0.00126663,0.999255,0.00595263,0.0380442,0.00264695,0.0472208,0.486542,-1.02424,31.5625,3,17741,1822783
99,1,0.999255,0.00602032,0.0380239,0.00264612,-0.711984,-0.0206577,9.7804,0.131327,-0.684029,1.00395,-0.00712357,-0.000217749,0.0978037,1,5.68461e-05,-1.90865e-05,3.66582e-06,0.0113692,-0.00381729,0.000733164,0.999255,0.00602032,0.0380239,0.00264612,0.0501136,0.492778,-1.01957,31.5625,3,17743,1822983
99,2,0.999259,0.0060546,0.037927,0.00265817,-0.708967,-0.132876,9.78217,0.126216,-0.764894,0.998644,-0.00710247,-0.00133738,0.0978206,1,4.29116e-05,-6.5638e-05,1.64074e-05,0.00858232,-0.0131276,0.00328149,0.999259,0.0060546,0.037927,0.00265817,0.0489412,0.491494,-1.02919,31.5625,3,17745,1823183
99,3,0.999259,0.0060546,0.037927,0.00265817,-0.708967,-0.132876,9.78217,0.126216,-0.764894,0.998644,-0.00710247,-0.00133738,0.0978206,1,4.29116e-05,-6.5638e-05,1.64074e-05,0.00858232,-0.0131276,0.00328149,0.999259,0.0060546,0.037927,0.00265817,0.0489412,0.491494,-1.02919,31.5625,3,17745,1823183
99,4,0.999259,0.0060546,0.037927,0.00265817,-0.708967,-0.132876,9.78217,0.126216,-0.764894,0.998644,-0.00710247,-0.00133738,0.0978206,1,4.29116e-05,-6.5638e-05,1.64074e-05,0.00858232,-0.0131276,0.00328149,0.999259,0.0060546,0.037927,0.00265817,0.0489412,0.491494,-1.02919,31.5625,3,17745,1823183
100,1,0.999262,0.00610038,0.0378202,0.00271116,-0.566324,-0.0431684,9.79247,0.289031,-0.663469,1.0084,-0.00567279,-0.000440397,0.0979241,1,4.24944e-05,-4.88985e-05,3.44231e-05,0.00849887,-0.0097797,0.00688463,0.999262,0.00610038,0.0378202,0.00271116,0.0462547,0.487517,-1.02371,31.5625,3,17747,1823383
100,2,0.999264,0.00613731,0.0377766,0.00272089,-0.544577,0.00946091,9.80362,0.31118,-0.620695,1.00947,-0.00545539,8.30481e-05,0.0980357,1,5.80306e-05,-4.90399e-05,1.67731e-05,0.0116061,-0.00980797,0.00335462,0.999264,0.00613731,0.0377766,0.00272089,0.0468103,0.488904,-1.01964,31.5625,3,17748,1823483
