frame_id,imu_idx,quat_w,quat_x,quat_y,quat_z,accel_x,accel_y,accel_z,free_accel_x,free_accel_y,free_accel_z,delta_v_x,delta_v_y,delta_v_z,delta_q_w,delta_q_x,delta_q_y,delta_q_z,rate_x,rate_y,rate_z,quat_w,quat_x,quat_y,quat_z,mag_x,mag_y,mag_z,temperature,status_byte,packet_counter,time_fine
1,1,0.999479,-0.0022633,0.0321797,-6.15891e-05,-0.685545,0.00840431,9.77826,0.37056,0.0754473,0.801137,-0.00685522,7.47316e-05,0.0977826,1,4.66109e-05,1.16777e-06,1.43031e-05,0.00932218,0.000233553,0.00286061,0.999479,-0.0022633,0.0321797,-6.15891e-05,-0.315478,-0.0168177,-0.86001,32.875,1,24025,2448157
1,2,0.999479,-0.00220483,0.03219,-4.24735e-05,-0.717642,0.0151866,9.76835,0.326911,0.102791,0.795582,-0.00717652,0.000141288,0.0976836,1,5.1899e-05,-4.76992e-07,3.05473e-05,0.0103798,-9.53985e-05,0.00610945,0.999479,-0.00220483,0.03219,-4.24735e-05,-0.314532,-0.0172954,-0.861035,32.875,1,24026,2448257
1,3,0.99948,-0.00209921,0.0321747,-1.33635e-05,-0.684557,0.0275935,9.7964,0.364114,0.104207,0.81927,-0.00684638,0.000264501,0.097964,1,5.75967e-05,-4.07936e-06,1.08685e-05,0.0115193,-0.000815872,0.00217371,0.99948,-0.00209921,0.0321747,-1.33635e-05,-0.313615,-0.0182339,-0.863586,32.875,1,24028,2448457
1,4,0.999482,-0.00199897,0.0321251,8.15589e-06,-0.670604,0.0492393,9.79277,0.380198,0.12344,0.820239,-0.00671073,0.000482455,0.0979274,1,4.99095e-05,-2.38475e-05,1.21257e-05,0.00998191,-0.0047695,0.00242515,0.999482,-0.00199897,0.0321251,8.15589e-06,-0.315441,-0.0168447,-0.858496,32.875,1,24030,2448657
2,1,0.999483,-0.00190477,0.0321021,3.7811e-05,-0.683584,0.026529,9.78417,0.370604,0.0836956,0.804285,-0.00683719,0.000258379,0.0978416,1,3.39542e-05,-6.85817e-06,1.95019e-05,0.00679083,-0.00137163,0.00390038,0.999483,-0.00190477,0.0321021,3.7811e-05,-0.31501,-0.0197032,-0.862602,32.875,1,24032,2448857
2,2,0.999483,-0.00181572,0.032089,6.42131e-05,-0.715033,-0.00273929,9.77463,0.333097,0.0468925,0.801542,-0.0071508,-3.35477e-05,0.0977463,1,3.03444e-05,-2.42511e-06,1.55697e-05,0.00606889,-0.000485022,0.00311394,0.999483,-0.00181572,0.032089,6.42131e-05,-0.316069,-0.0152873,-0.863509,32.875,1,24034,2449057
2,3,0.999484,-0.0017773,0.0320774,7.93438e-05,-0.701616,0.00241892,9.79291,0.353132,0.0579268,0.819349,-0.00701867,1.66391e-05,0.097929,1,3.73833e-05,-1.28e-05,1.62647e-05,0.00747666,-0.00256001,0.00325294,0.999484,-0.0017773,0.0320774,7.93438e-05,-0.314557,-0.0172774,-0.862045,32.875,1,24035,2449157
2,4,0.999484,-0.00167267,0.0320836,8.51461e-05,-0.716825,0.0323676,9.76578,0.331443,0.0863855,0.791618,-0.00716867,0.000313047,0.0976578,1,5.38901e-05,-2.12707e-06,7.21609e-06,0.010778,-0.000425413,0.00144322,0.999484,-0.00167267,0.0320836,8.51461e-05,-0.314972,-0.0168397,-0.859003,32.875,1,24037,2449357
3,1,0.999484,-0.00156222,0.0320777,9.57492e-05,-0.738371,0.0296246,9.78796,0.312527,0.076556,0.815525,-0.00738413,0.000285217,0.0978796,1,5.63115e-05,-2.16602e-06,3.5209e-07,0.0112623,-0.000433204,7.04179e-05,0.999484,-0.00156222,0.0320777,9.57492e-05,-0.315519,-0.0172694,-0.862041,32.875,1,24039,2449557
3,2,0.999485,-0.00146811,0.0320703,0.000101198,-0.712965,0.00566086,9.80251,0.340311,0.0576987,0.83247,-0.00712987,4.81704e-05,0.0980251,1,4.31668e-05,-1.11761e-06,-1.72649e-06,0.00863336,-0.000223523,-0.000345298,0.999485,-0.00146811,0.0320703,0.000101198,-0.314055,-0.0177782,-0.861553,32.875,1,24041,2449757
3,3,0.999486,-0.00137186,0.0320351,0.000129912,-0.73245,0.00621254,9.7891,0.316437,0.0518691,0.818489,-0.00732854,5.38796e-05,0.0978907,1,4.14849e-05,-2.06307e-05,8.44844e-06,0.00829698,-0.00412615,0.00168969,0.999486,-0.00137186,0.0320351,0.000129912,-0.314931,-0.0178333,-0.858015,32.875,1,24043,2449957
3,4,0.999487,-0.00126194,0.032014,0.000157638,-0.71354,0.0364814,9.76887,0.334689,0.0815644,0.794708,-0.00713908,0.000354589,0.0976884,1,5.14985e-05,-1.88088e-05,1.14402e-05,0.0102997,-0.00376175,0.00228805,0.999487,-0.00126194,0.032014,0.000157638,-0.313558,-0.0173124,-0.860535,32.875,1,24045,2450157
4,1,0.999488,-0.00120727,0.0319766,0.000159453,-0.698247,0.0366795,9.79286,0.35144,0.0775089,0.821422,-0.00699036,0.000356382,0.0979281,1,5.29512e-05,-4.02649e-05,3.01538e-06,0.0105902,-0.00805298,0.000603076,0.999488,-0.00120727,0.0319766,0.000159453,-0.314536,-0.0177742,-0.861551,32.875,1,24046,2450257
4,2,0.999488,-0.00112243,0.0319745,0.000180803,-0.698335,-0.0090618,9.78633,0.34826,0.0328875,0.811649,-0.0069834,-0.000100537,0.0978633,1,4.91961e-05,-2.86773e-07,2.07426e-05,0.00983923,-5.73546e-05,0.00414852,0.999488,-0.00112243,0.0319745,0.000180803,-0.315478,-0.018263,-0.861053,32.875,1,24048,2450457
4,3,0.999488,-0.00100691,0.0319774,0.000217871,-0.688902,0.0189794,9.79636,0.360367,0.0551247,0.819816,-0.00689017,0.000179748,0.0979636,1,4.99934e-05,-5.86157e-06,1.82391e-05,0.00999867,-0.00117231,0.00364783,0.999488,-0.00100691,0.0319774,0.000217871,-0.315918,-0.0178073,-0.85902,32.875,1,24050,2450657
4,4,0.999488,-0.000883859,0.031975,0.00024665,-0.661189,0.0408035,9.79466,0.373738,0.065949,0.810168,-0.00661165,0.000397273,0.0979467,1,5.42199e-05,1.22598e-06,1.06539e-05,0.010844,0.000245197,0.00213079,0.999488,-0.000883859,0.031975,0.00024665,-0.317452,-0.0167656,-0.86202,32.875,1,24052,2450857
5,1,0.999488,-0.000783243,0.0319726,0.00026002,-0.701597,0.0204491,9.78526,0.357133,0.0737677,0.816188,-0.00701686,0.000197127,0.0978526,1,3.68636e-05,-4.52455e-06,1.06841e-05,0.00737271,-0.000904911,0.00213682,0.999488,-0.000783243,0.0319726,0.00026002,-0.316379,-0.0183,-0.858524,32.875,1,24054,2451057
5,2,0.999489,-0.000731805,0.0319578,0.000272444,-0.689362,0.00469523,9.80099,0.38099,0.0836453,0.823197,-0.00689739,3.73154e-05,0.0980097,1,4.82311e-05,-1.92658e-05,1.32396e-05,0.00964622,-0.00385316,0.00264791,0.999489,-0.000731805,0.0319578,0.000272444,-0.315396,-0.0173596,-0.856992,32.875,1,24055,2451157
5,3,0.999489,-0.00061939,0.0319454,0.000316275,-0.673384,0.00202472,9.79916,0.39442,0.0773359,0.816324,-0.00673646,8.56424e-06,0.0979914,1,5.78537e-05,-1.33645e-05,2.5587e-05,0.0115707,-0.00267291,0.00511741,0.999489,-0.00061939,0.0319454,0.000316275,-0.315955,-0.0177802,-0.860535,32.875,1,24057,2451357
5,4,0.99949,-0.000528712,0.0319411,0.000337565,-0.671953,0.04662,9.77747,0.385613,0.0818415,0.802618,-0.00672063,0.000459321,0.0977747,1,3.4118e-05,-5.55054e-06,1.54118e-05,0.0068236,-0.00111011,0.00308235,0.99949,-0.000528712,0.0319411,0.000337565,-0.315054,-0.0162979,-0.862021,32.875,1,24059,2451557
6,1,0.999489,-0.00042923,0.0319509,0.000343315,-0.716492,0.0431425,9.78521,0.337834,0.055708,0.815088,-0.00716482,0.000423411,0.0978521,1,4.09968e-05,4.76812e-07,-6.59173e-07,0.00819936,9.53624e-05,-0.000131835,0.999489,-0.00042923,0.0319509,0.000343315,-0.314886,-0.0183481,-0.856512,32.875,1,24061,2451757
6,2,0.999488,-0.000334307,0.0319753,0.000374736,-0.733116,-0.00281011,9.78764,0.324353,0.00879577,0.81528,-0.00732984,-3.84355e-05,0.0978765,1,5.08557e-05,6.72987e-06,2.58666e-05,0.0101711,0.00134597,0.00517333,0.999488,-0.000334307,0.0319753,0.000374736,-0.316437,-0.0192215,-0.861575,32.875,1,24063,2451957
6,3,0.999489,-0.000218962,0.0319696,0.000404625,-0.729176,0.0199634,9.77153,0.32625,0.0359533,0.797298,-0.00729354,0.000187988,0.0977152,1,5.78053e-05,-9.04675e-06,2.39351e-05,0.0115611,-0.00180935,0.00478702,0.999489,-0.000218962,0.0319696,0.000404625,-0.316444,-0.0172884,-0.860521,32.875,1,24065,2452157
6,4,0.999488,-0.000172642,0.031984,0.000404273,-0.713369,0.0264607,9.77554,0.31592,0.0330375,0.791569,-0.0071323,0.000256331,0.0977555,1,4.23417e-05,7.11349e-06,-1.17438e-07,0.00846833,0.0014227,-2.34876e-05,0.999488,-0.000172642,0.031984,0.000404273,-0.317859,-0.0168157,-0.858989,32.875,1,24066,2452257
7,1,0.999488,-7.44165e-05,0.0319888,0.000423841,-0.686465,0.0179435,9.79396,0.345628,0.0200724,0.8228,-0.00686554,0.000170025,0.0979396,1,4.80376e-05,-4.57274e-06,1.81675e-08,0.00960753,-0.000914548,3.6335e-06,0.999488,-7.44165e-05,0.0319888,0.000423841,-0.314915,-0.0188088,-0.858037,32.875,1,24068,2452457
7,2,0.999488,2.81713e-05,0.0319981,0.00043706,-0.683319,0.0313518,9.78591,0.358465,0.0637619,0.805976,-0.00683377,0.000304159,0.0978591,1,4.68082e-05,-2.95995e-06,1.44093e-05,0.00936163,-0.00059199,0.00288187,0.999488,2.81713e-05,0.0319981,0.00043706,-0.315984,-0.0167957,-0.861018,32.875,1,24070,2452657
7,3,0.999488,0.000138009,0.0319801,0.000447781,-0.722185,0.0179545,9.78267,0.313995,0.0691522,0.802237,-0.00722545,0.000169318,0.0978265,1,5.19455e-05,-1.83656e-05,4.41395e-06,0.0103891,-0.00367313,0.000882789,0.999488,0.000138009,0.0319801,0.000447781,-0.315897,-0.0168588,-0.857484,32.875,1,24072,2452857
7,4,0.999489,0.000258718,0.0319709,0.000451372,-0.741066,0.020997,9.77264,0.312145,0.076048,0.792794,-0.00741351,0.00020141,0.0977262,1,4.39453e-05,-1.45882e-05,-1.99497e-06,0.00878906,-0.00291765,-0.000398994,0.999489,0.000258718,0.0319709,0.000451372,-0.315453,-0.0168357,-0.859001,32.875,1,24074,2453057
8,1,0.999489,0.000295088,0.0319639,0.000467962,-0.72014,0.016745,9.79452,0.323861,0.0639603,0.809323,-0.00720487,0.000161172,0.097945,1,3.08674e-05,-1.76824e-05,1.60988e-05,0.00617349,-0.00353647,0.00321975,0.999489,0.000295088,0.0319639,0.000467962,-0.314956,-0.0178153,-0.859025,32.875,1,24075,2453157
8,2,0.999489,0.000397161,0.0319433,0.000497862,-0.766163,0.012105,9.75951,0.27444,0.0577018,0.779856,-0.00766535,0.00011182,0.0975948,1,4.62065e-05,-1.90885e-05,1.37725e-05,0.0092413,-0.0038177,0.0027545,0.999489,0.000397161,0.0319433,0.000497862,-0.315474,-0.0177842,-0.860537,32.875,1,24077,2453357
8,3,0.999489,0.000491639,0.0319423,0.000513215,-0.783565,0.020217,9.75902,0.265419,0.0474613,0.788229,-0.00783941,0.000193718,0.0975899,1,4.31724e-05,-1.92821e-05,1.68768e-06,0.00863447,-0.00385641,0.000337535,0.999489,0.000491639,0.0319423,0.000513215,-0.314919,-0.0178423,-0.85751,32.875,1,24079,2453557
8,4,0.99949,0.000602684,0.0319381,0.000539681,-0.734436,0.0374507,9.80124,0.309941,0.0416945,0.828688,-0.00734764,0.000364622,0.0980122,1,4.9336e-05,-1.66517e-05,1.45772e-05,0.0098672,-0.00333033,0.00291544,0.99949,0.000602684,0.0319381,0.000539681,-0.316,-0.0172654,-0.862038,32.875,1,24081,2453757
9,1,0.999489,0.00068797,0.0319618,0.000570314,-0.723261,0.0167004,9.78673,0.323182,0.0106337,0.813657,-0.00723432,0.000159459,0.0978672,1,3.74298e-05,-8.7355e-06,1.51546e-05,0.00748597,-0.0017471,0.00303093,0.999489,0.00068797,0.0319618,0.000570314,-0.315906,-0.0192616,-0.859558,32.875,1,24083,2453957
9,2,0.999489,0.000729485,0.0319645,0.000572912,-0.703434,0.01819,9.78763,0.350008,0.0113223,0.809833,-0.00703673,0.000174447,0.0978762,1,3.73163e-05,-1.22095e-05,1.05593e-05,0.00746326,-0.0024419,0.00211185,0.999489,0.000729485,0.0319645,0.000572912,-0.315927,-0.0187648,-0.860052,32.875,1,24084,2454057
9,3,0.999488,0.000824104,0.0319969,0.000583017,-0.692778,0.0200411,9.78926,0.360812,0.00554974,0.81761,-0.00692699,0.00019234,0.0978927,1,4.06094e-05,4.0475e-06,8.68546e-06,0.00812188,0.000809501,0.00173709,0.999488,0.000824104,0.0319969,0.000583017,-0.314442,-0.0197703,-0.859071,32.875,1,24086,2454257
9,4,0.999487,0.000906239,0.0319997,0.000588749,-0.690796,0.0244006,9.78321,0.356556,0.0180662,0.806554,-0.00691276,0.000236748,0.0978318,1,3.66439e-05,-2.45497e-05,6.37735e-06,0.00732877,-0.00490993,0.00127547,0.999487,0.000906239,0.0319997,0.000588749,-0.315935,-0.018277,-0.860041,32.875,1,24088,2454457
10,1,0.999487,0.00101431,0.0319923,0.000592886,-0.667114,0.0321647,9.79803,0.386567,0.0284487,0.823597,-0.00667495,0.00031205,0.09798,1,4.84065e-05,-1.9416e-05,8.32801e-06,0.00968129,-0.0038832,0.0016656,0.999487,0.00101431,0.0319923,0.000592886,-0.315454,-0.018281,-0.860043,32.875,1,24090,2454657
10,2,0.999487,0.00110255,0.0319978,0.000624941,-0.673109,0.0328371,9.7889,0.375747,0.0273081,0.812563,-0.00673117,0.000319854,0.0978891,1,4.25112e-05,-3.26044e-07,1.44448e-05,0.00850223,-6.52088e-05,0.00288895,0.999487,0.00110255,0.0319978,0.000624941,-0.315417,-0.018308,-0.858529,32.875,1,24092,2454857
10,3,0.999487,0.00120542,0.0319925,0.00066939,-0.671299,-0.00304049,9.78723,0.38032,-0.0105544,0.808628,-0.00671659,-4.10427e-05,0.0978721,1,5.2657e-05,-1.83937e-05,2.46054e-05,0.0105314,-0.00367873,0.00492109,0.999487,0.00120542,0.0319925,0.00066939,-0.315988,-0.0172744,-0.861533,32.875,1,24094,2455057
10,4,0.999487,0.00126526,0.0320128,0.000694144,-0.678221,0.00340902,9.78598,0.37354,-0.00397297,0.805817,-0.00678452,2.45829e-05,0.0978597,1,4.78979e-05,-1.18055e-05,9.78811e-06,0.00957959,-0.00236109,0.00195762,0.999487,0.00126526,0.0320128,0.000694144,-0.315005,-0.0177792,-0.861044,32.875,1,24095,2455157
11,1,0.999486,0.00136955,0.0320288,0.000764908,-0.682189,0.0320018,9.79541,0.364954,0.0221154,0.817329,-0.00682398,0.000310741,0.097954,1,4.5795e-05,-1.05888e-05,2.23854e-05,0.009159,-0.00211775,0.00447708,0.999486,0.00136955,0.0320288,0.000764908,-0.314915,-0.0173636,-0.856995,32.875,1,24097,2455357
11,2,0.999486,0.00148401,0.0320222,0.000860612,-0.669159,0.0227781,9.79049,0.379561,0.0102326,0.814472,-0.00669489,0.000215642,0.0979047,1,6.10835e-05,-1.68385e-05,1.33033e-05,0.0122167,-0.00336769,0.00266066,0.999486,0.00148401,0.0320222,0.000860612,-0.317402,-0.0168017,-0.860001,32.875,1,24099,2455557
11,3,0.999484,0.0015785,0.0320617,0.000933891,-0.710499,0.0145647,9.76865,0.342281,-0.0101773,0.789967,-0.00710521,0.000136266,0.0976865,1,4.77508e-05,-1.11911e-06,3.66186e-06,0.00955016,-0.000223821,0.000732373,0.999484,0.0015785,0.0320617,0.000933891,-0.315421,-0.0202321,-0.860087,32.875,1,24101,2455757
11,4,0.999484,0.0016988,0.0320621,0.000914053,-0.72957,0.036294,9.7666,0.328174,0.0162028,0.794124,-0.0072973,0.000353761,0.0976659,1,4.68512e-05,-8.21783e-06,1.88821e-06,0.00937023,-0.00164357,0.000377641,0.999484,0.0016988,0.0320621,0.000914053,-0.315391,-0.0168808,-0.856477,32.875,1,24103,2455957
12,1,0.999484,0.00174461,0.0320523,0.000982438,-0.707939,0.0215067,9.78973,0.341871,-0.00439925,0.816733,-0.00708099,0.000207084,0.0978972,1,4.00842e-05,-8.15453e-06,9.50864e-06,0.00801683,-0.00163091,0.00190173,0.999484,0.00174461,0.0320523,0.000982438,-0.317382,-0.0172985,-0.859507,32.875,1,24104,2456057
12,2,0.999483,0.00183507,0.0320913,0.00108347,-0.719468,0.00784673,9.79613,0.31688,-0.0411089,0.819943,-0.00719579,6.96011e-05,0.0979612,1,4.45116e-05,-5.68064e-06,1.01052e-05,0.00890233,-0.00113613,0.00202105,0.999483,0.00183507,0.0320913,0.00108347,-0.316444,-0.0172884,-0.860521,32.875,1,24106,2456257
12,3,0.99948,0.00193895,0.0321549,0.0011747,-0.746062,0.0209307,9.77879,0.321753,-0.00446109,0.806868,-0.007464,0.000199527,0.0977876,1,4.89352e-05,-1.72896e-05,1.40144e-05,0.00978705,-0.00345791,0.00280289,0.99948,0.00193895,0.0321549,0.0011747,-0.315417,-0.018308,-0.858529,32.875,1,24108,2456457
12,4,0.999482,0.00205533,0.0321069,0.00122395,-0.720692,0.0113219,9.78633,0.341035,0.00346014,0.811266,-0.00721117,0.000102317,0.097863,1,5.51939e-05,-2.16682e-05,6.91975e-06,0.0110388,-0.00433364,0.00138395,0.999482,0.00205533,0.0321069,0.00122395,-0.315906,-0.0178163,-0.858515,32.875,1,24110,2456657
13,1,0.999481,0.00218587,0.0321172,0.00131197,-0.729399,0.0392129,9.79443,0.304964,-0.0107772,0.815877,-0.00729791,0.000382353,0.0979441,1,4.88758e-05,-1.99711e-05,1.38228e-05,0.00977516,-0.00399423,0.00276456,0.999481,0.00218587,0.0321172,0.00131197,-0.314467,-0.018307,-0.859038,32.875,1,24112,2456857
13,2,0.99948,0.00231657,0.0321256,0.0013186,-0.750852,0.0367962,9.78371,0.275525,-0.0258584,0.80828,-0.00751241,0.000358759,0.0978368,1,4.673e-05,-1.98484e-05,3.94539e-06,0.00934601,-0.00396967,0.000789078,0.99948,0.00231657,0.0321256,0.0013186,-0.314903,-0.0188178,-0.857532,32.875,1,24114,2457057
13,3,0.99948,0.00236549,0.0321206,0.00134401,-0.750345,0.00302477,9.78138,0.285761,-0.0472879,0.817283,-0.00750532,2.15168e-05,0.0978137,1,4.41018e-05,-9.53321e-06,6.88766e-06,0.00882036,-0.00190664,0.00137753,0.99948,0.00236549,0.0321206,0.00134401,-0.315363,-0.0178654,-0.855994,32.875,1,24115,2457157
13,4,0.99948,0.00247829,0.0321093,0.00148916,-0.748973,0.0132721,9.7818,0.313942,0.0213413,0.806975,-0.00749487,0.000121816,0.0978176,1,5.38172e-05,-2.62064e-05,2.51395e-05,0.0107634,-0.00524128,0.0050279,0.99948,0.00247829,0.0321093,0.00148916,-0.315022,-0.0182489,-0.862065,32.875,1,24117,2457357
14,1,0.999475,0.00261651,0.0322541,0.00155144,-0.702474,0.00436297,9.77393,0.37402,0.0159335,0.78828,-0.00702692,3.18083e-05,0.0977391,1,5.98841e-05,-1.11497e-05,8.20676e-06,0.0119768,-0.00222995,0.00164135,0.999475,0.00261651,0.0322541,0.00155144,-0.314043,-0.0177872,-0.861049,32.875,1,24119,2457557
14,2,0.999473,0.00275762,0.0323065,0.00170684,-0.688814,0.0334446,9.79785,0.358895,-0.0217387,0.82658,-0.00689199,0.000325129,0.0979782,1,4.63427e-05,-1.96114e-05,1.70769e-05,0.00926855,-0.00392228,0.00341537,0.999473,0.00275762,0.0323065,0.00170684,-0.314956,-0.0178153,-0.859025,32.875,1,24121,2457757
14,3,0.99947,0.00287706,0.0323858,0.00188326,-0.691098,0.0514814,9.79157,0.349487,-0.0398002,0.815893,-0.0069131,0.000506491,0.0979156,1,4.08964e-05,-1.07046e-05,2.2709e-05,0.00817927,-0.00214092,0.0045418,0.99947,0.00287706,0.0323858,0.00188326,-0.315397,-0.0202501,-0.859077,32.875,1,24123,2457957
14,4,0.999469,0.00293082,0.0323927,0.00185884,-0.667959,0.0276126,9.77865,0.386159,-0.0448463,0.813817,-0.00668087,0.000265965,0.0977865,1,5.07683e-05,-6.48924e-06,1.7317e-05,0.0101537,-0.00129785,0.00346339,0.999469,0.00293082,0.0323927,0.00185884,-0.315886,-0.0197583,-0.859064,32.875,1,24124,2458057
15,1,0.999467,0.00303569,0.0324376,0.00201098,-0.68613,-0.00356067,9.78461,0.402319,-0.0139113,0.801037,-0.00686288,-4.67392e-05,0.097846,1,5.55476e-05,-8.08264e-06,1.9111e-05,0.0111095,-0.00161653,0.00382221,0.999467,0.00303569,0.0324376,0.00201098,-0.315856,-0.0178523,-0.856496,32.875,1,24126,2458257
15,2,0.999468,0.00316182,0.0323832,0.00221714,-0.676979,0.0531647,9.7796,0.394017,0.0161646,0.806427,-0.00677193,0.000521019,0.097796,1,5.34673e-05,-1.08963e-05,1.25281e-05,0.0106935,-0.00217927,0.00250561,0.999468,0.00316182,0.0323832,0.00221714,-0.315392,-0.0183261,-0.857519,32.875,1,24128,2458457
15,3,0.999463,0.00329421,0.0324946,0.00246437,-0.659206,0.0280136,9.7976,0.3853,-0.0745646,0.812969,-0.00659379,0.000269937,0.097976,1,4.96866e-05,-8.76815e-06,3.51329e-05,0.00993731,-0.00175363,0.00702659,0.999463,0.00329421,0.0324946,0.00246437,-0.316489,-0.0167736,-0.862025,32.875,1,24130,2458657
15,4,0.999455,0.00339504,0.032707,0.00277265,-0.673495,0.0478789,9.79141,0.379381,-0.0523959,0.812585,-0.00673585,0.000469604,0.0979141,1,4.53536e-05,-4.45729e-06,2.24913e-05,0.00907073,-0.000891459,0.00449825,0.999455,0.00339504,0.032707,0.00277265,-0.316334,-0.0188149,-0.85702,32.875,1,24132,2458857
16,1,0.999455,0.00344902,0.0327017,0.00291125,-0.675802,0.0409629,9.79476,0.382123,-0.0390396,0.816187,-0.00675828,0.000398779,0.0979477,1,5.46202e-05,-1.28174e-06,1.10414e-05,0.010924,-0.000256347,0.00220827,0.999455,0.00344902,0.0327017,0.00291125,-0.316786,-0.0183501,-0.855493,32.875,1,24133,2458957
16,2,0.999453,0.003514,0.0327161,0.0032288,-0.693792,-0.00725211,9.78769,0.366328,-0.0658271,0.811698,-0.00693997,-7.88305e-05,0.0978767,1,3.13184e-05,-1.04833e-05,1.28727e-05,0.00626369,-0.00209666,0.00257453,0.999453,0.003514,0.0327161,0.0032288,-0.315454,-0.018281,-0.860043,32.875,1,24135,2459157
16,3,0.999445,0.00365592,0.032918,0.00344909,-0.69342,0.0206769,9.78216,0.368609,-0.0315691,0.80015,-0.00693503,0.000196455,0.0978215,1,5.18579e-05,-4.19075e-06,1.21126e-05,0.0103716,-0.00083815,0.00242253,0.999445,0.00365592,0.032918,0.00344909,-0.313969,-0.0192866,-0.859062,32.875,1,24137,2459357
16,4,0.999444,0.00383508,0.0329559,0.00344047,-0.729054,0.0295092,9.78417,0.342898,-0.0179475,0.807491,-0.00729338,0.000286428,0.0978415,1,4.28205e-05,-1.44598e-05,1.95238e-05,0.00856411,-0.00289195,0.00390477,0.999444,0.00383508,0.0329559,0.00344047,-0.314939,-0.0173455,-0.858004,32.875,1,24139,2459557
17,1,0.999436,0.0040104,0.0331261,0.00379973,-0.758432,0.0134329,9.76625,0.333804,-0.0375477,0.800999,-0.00758412,0.000124285,0.0976625,1,5.01462e-05,1.03015e-06,1.64394e-05,0.0100292,0.00020603,0.00328788,0.999436,0.0040104,0.0331261,0.00379973,-0.315483,-0.0187417,-0.861568,32.875,1,24141,2459757
17,2,0.999425,0.00411653,0.0333991,0.00413378,-0.690951,0.0402147,9.79588,0.362752,-0.0325354,0.814729,-0.00691289,0.000392145,0.0979586,1,4.97755e-05,-1.71756e-05,1.8144e-05,0.00995509,-0.00343511,0.0036288,0.999425,0.00411653,0.0333991,0.00413378,-0.314487,-0.0178102,-0.859532,32.875,1,24143,2459957
17,3,0.999421,0.0042041,0.0334835,0.00427805,-0.766213,0.0435104,9.75536,0.340005,-0.0342975,0.794914,-0.00766475,0.000427988,0.0975534,1,3.45277e-05,-1.33384e-05,2.47921e-05,0.00690554,-0.00266768,0.00495842,0.999421,0.0042041,0.0334835,0.00427805,-0.314919,-0.0192876,-0.858553,32.875,1,24144,2460057
17,4,0.999423,0.00435778,0.0334131,0.00434742,-0.681576,0.00899404,9.81454,0.389389,-0.0668599,0.823823,-0.00681642,8.04189e-05,0.0981454,1,4.77787e-05,-3.33977e-06,1.04868e-05,0.00955573,-0.000667955,0.00209737,0.999423,0.00435778,0.0334131,0.00434742,-0.315877,-0.0188008,-0.858032,32.875,1,24146,2460257
18,1,0.999417,0.00445461,0.0335189,0.00472651,-0.760859,0.011687,9.78221,0.322201,-0.069034,0.805509,-0.00761157,0.00010532,0.0978218,1,5.72225e-05,-1.51969e-05,2.33311e-05,0.0114445,-0.00303938,0.00466623,0.999417,0.00445461,0.0335189,0.00472651,-0.316432,-0.0187427,-0.861059,32.875,1,24148,2460457
18,2,0.999409,0.00457524,0.0336812,0.00512644,-0.734793,0.0315166,9.78424,0.351982,-0.053827,0.812652,-0.00735181,0.000308692,0.0978421,1,3.1559e-05,-1.97234e-05,2.03287e-05,0.0063118,-0.00394468,0.00406574,0.999409,0.00457524,0.0336812,0.00512644,-0.314413,-0.0178643,-0.856503,32.875,1,24150,2460657
18,3,0.999405,0.00480881,0.0337283,0.00540481,-0.709907,0.00487024,9.78315,0.378672,-0.0818305,0.803847,-0.00710129,4.06855e-05,0.0978313,1,3.95253e-05,-1.13582e-05,1.99473e-05,0.00790507,-0.00227164,0.00398946,0.999405,0.00480881,0.0337283,0.00540481,-0.315429,-0.018299,-0.859033,32.875,1,24152,2460857
18,4,0.9994,0.00487278,0.0338287,0.00562556,-0.71179,0.0255312,9.78199,0.376404,-0.0584199,0.804123,-0.00711904,0.000247641,0.0978198,1,3.76944e-05,-5.78743e-06,2.08112e-05,0.00753888,-0.00115749,0.00416223,0.9994,0.00487278,0.0338287,0.00562556,-0.315922,-0.018286,-0.859536,32.875,1,24153,2460957
19,1,0.999381,0.00496387,0.0342302,0.00639733,-0.679114,0.0324452,9.78827,0.418063,-0.0550551,0.805465,-0.00679297,0.000315063,0.0978826,1,4.78066e-05,-9.37856e-06,2.25925e-06,0.00956133,-0.00187571,0.000451849,0.999381,0.00496387,0.0342302,0.00639733,-0.315519,-0.0172694,-0.862041,32.875,1,24155,2461157
19,2,0.99936,0.00515745,0.0346802,0.00706291,-0.687162,0.0138325,9.78884,0.426273,-0.0760902,0.812257,-0.00687419,0.000129275,0.0978882,1,4.58303e-05,-1.31056e-05,5.6085e-06,0.00916607,-0.00262112,0.0011217,0.99936,0.00515745,0.0346802,0.00706291,-0.314923,-0.0168758,-0.856984,32.875,1,24157,2461357
19,3,0.999344,0.00542943,0.0348442,0.00825229,-0.667551,0.0199507,9.78197,0.439105,-0.0756686,0.79633,-0.00667753,0.00018898,0.0978196,1,5.30537e-05,-1.03397e-05,1.10698e-05,0.0106107,-0.00206793,0.00221395,0.999344,0.00542943,0.0348442,0.00825229,-0.315454,-0.018281,-0.860043,32.875,1,24159,2461557
19,4,0.999315,0.00552712,0.0353943,0.0092844,-0.716163,0.0154256,9.79006,0.407473,-0.0836205,0.797934,-0.00716118,0.000142768,0.0979006,1,5.81462e-05,2.32639e-06,7.23997e-06,0.0116292,0.000465278,0.00144799,0.999315,0.00552712,0.0353943,0.0092844,-0.316897,-0.018269,-0.860036,32.875,1,24161,2461757
20,1,0.999285,0.00565021,0.0358488,0.0105969,-0.701634,0.0325608,9.78401,0.428705,-0.0736689,0.817851,-0.00701773,0.000317235,0.09784,1,4.25018e-05,-7.05597e-06,4.0121e-06,0.00850035,-0.00141119,0.00080242,0.999285,0.00565021,0.0358488,0.0105969,-0.31542,-0.0158962,-0.85696,32.875,1,24163,2461957
20,2,0.999267,0.00581697,0.0360475,0.011517,-0.689516,0.0111093,9.78849,0.447835,-0.0922921,0.811748,-0.00689697,0.000103082,0.0978848,1,3.97805e-05,-9.25001e-06,1.61864e-05,0.00795609,-0.00185,0.00323729,0.999267,0.00581697,0.0360475,0.011517,-0.315437,-0.016366,-0.85798,32.875,1,24164,2462057
20,3,0.999234,0.00609149,0.0366132,0.0124143,-0.68871,0.0227172,9.7818,0.457076,-0.085678,0.800275,-0.00688876,0.000219506,0.0978179,1,3.85101e-05,-8.4939e-06,9.57605e-06,0.00770202,-0.00169878,0.00191521,0.999234,0.00609149,0.0366132,0.0124143,-0.315515,-0.0182359,-0.862567,32.875,1,24166,2462257
20,4,0.99923,0.00628499,0.0368908,0.0118118,-0.661082,0.0223531,9.78602,0.503979,-0.0908084,0.803214,-0.00661201,0.000213466,0.0978602,1,5.08819e-05,-6.07066e-06,8.00184e-06,0.0101764,-0.00121413,0.00160037,0.99923,0.00628499,0.0368908,0.0118118,-0.314862,-0.0198114,-0.856544,32.875,1,24168,2462457
21,1,0.999234,0.00650234,0.0366055,0.0121779,-0.716015,0.0336697,9.77868,0.439708,-0.0823941,0.790147,-0.00716143,0.00032564,0.0977868,1,5.42197e-05,-6.46539e-06,3.16316e-05,0.0108439,-0.00129308,0.00632631,0.999234,0.00650234,0.0366055,0.0121779,-0.317316,-0.0183101,-0.85751,32.875,1,24170,2462657
21,2,0.999206,0.00638448,0.0368766,0.0136849,-0.711992,0.0171637,9.79548,0.445429,-0.10365,0.812665,-0.00712195,0.000160115,0.0979547,1,5.83753e-05,-1.03544e-05,6.00911e-06,0.0116751,-0.00207087,0.00120182,0.999206,0.00638448,0.0368766,0.0136849,-0.316938,-0.0187207,-0.862066,32.875,1,24172,2462857
21,3,0.999193,0.0063384,0.037079,0.0140839,-0.698824,0.00100475,9.79865,0.466601,-0.116359,0.813269,-0.00699172,6.07615e-07,0.0979863,1,4.78067e-05,-1.77806e-05,5.08311e-06,0.00956134,-0.00355613,0.00101662,0.999193,0.0063384,0.037079,0.0140839,-0.315457,-0.0173145,-0.859517,32.875,1,24173,2462957
21,4,0.999183,0.00646749,0.037164,0.0144974,-0.706372,0.0259787,9.78874,0.46511,-0.0935755,0.807178,-0.00706353,0.000252554,0.0978874,1,3.54723e-05,1.05457e-06,2.04406e-05,0.00709446,0.000210914,0.00408811,0.999183,0.00646749,0.037164,0.0144974,-0.315861,-0.0183311,-0.857012,32.875,1,24175,2463157
22,1,0.999184,0.00655645,0.0371401,0.0144682,-0.706145,0.041674,9.79124,0.462244,-0.0692225,0.809244,-0.00706256,0.000407641,0.0979123,1,4.48897e-05,-5.58978e-06,2.18396e-05,0.00897794,-0.00111796,0.00436793,0.999184,0.00655645,0.0371401,0.0144682,-0.314944,-0.0207148,-0.860605,32.875,1,24177,2463357
22,2,0.99919,0.00659881,0.0371019,0.0141089,-0.74477,0.0209685,9.78284,0.421381,-0.0999753,0.800511,-0.00744829,0.000201227,0.0978284,1,4.21908e-05,-2.97824e-06,1.36382e-05,0.00843816,-0.000595648,0.00272763,0.99919,0.00659881,0.0371019,0.0141089,-0.314459,-0.0187948,-0.859049,32.875,1,24179,2463557
22,3,0.999191,0.00663564,0.0370577,0.0141047,-0.73105,0.0256097,9.79874,0.436796,-0.0987951,0.818449,-0.00731246,0.000248829,0.0979872,1,3.65674e-05,-1.00099e-05,6.96631e-06,0.00731349,-0.00200198,0.00139326,0.999191,0.00663564,0.0370577,0.0141047,-0.315425,-0.0178203,-0.858518,32.875,1,24181,2463757
22,4,0.999191,0.0066501,0.0370489,0.0141919,-0.72362,0.0278301,9.76884,0.437842,-0.0956588,0.784004,-0.00723546,0.000268959,0.0976885,1,4.65512e-05,3.82025e-06,1.70117e-05,0.00931024,0.000764051,0.00340233,0.999191,0.0066501,0.0370489,0.0141919,-0.316465,-0.0182369,-0.862058,32.875,1,24183,2463957
23,1,0.99919,0.00662883,0.0370368,0.0142728,-0.692098,0.0129475,9.79634,0.467494,-0.108352,0.809314,-0.00692439,0.000123869,0.0979631,1,2.73734e-05,-1.7412e-05,1.74809e-05,0.00547469,-0.0034824,0.00349618,0.99919,0.00662883,0.0370368,0.0142728,-0.317427,-0.0167837,-0.861011,32.875,1,24184,2464057
23,2,0.999189,0.0066494,0.0370096,0.0144216,-0.707814,0.0222888,9.79008,0.459534,-0.104108,0.806462,-0.0070821,0.000213682,0.0979006,1,4.6663e-05,-2.02079e-05,4.89865e-06,0.0093326,-0.00404158,0.00097973,0.999189,0.0066494,0.0370096,0.0144216,-0.314935,-0.018312,-0.858531,32.875,1,24186,2464257
23,3,0.999192,0.00669427,0.0369441,0.0143282,-0.722516,0.0139287,9.78671,0.44314,-0.11053,0.802337,-0.00722789,0.000130439,0.0978669,1,4.36884e-05,-1.39027e-05,2.04985e-05,0.00873767,-0.00278053,0.00409969,0.999192,0.00669427,0.0369441,0.0143282,-0.314988,-0.0158642,-0.858981,32.875,1,24188,2464457
23,4,0.999194,0.00672125,0.0368971,0.0143112,-0.746049,0.0184158,9.78249,0.416183,-0.107622,0.801181,-0.00746234,0.000175826,0.0978248,1,4.17475e-05,-9.42124e-06,1.09782e-05,0.0083495,-0.00188425,0.00219564,0.999194,0.00672125,0.0368971,0.0143112,-0.315987,-0.0158291,-0.860491,32.875,1,24190,2464657
24,1,0.999195,0.00673743,0.0368379,0.0143819,-0.718717,0.0204688,9.79149,0.442111,-0.112275,0.811067,-0.00719161,0.000193352,0.0979146,1,5.59185e-05,-2.25865e-05,2.67736e-05,0.0111837,-0.00451729,0.00535472,0.999195,0.00673743,0.0368379,0.0143819,-0.315959,-0.0168137,-0.860008,32.875,1,24192,2464857
24,2,0.999196,0.00674389,0.0368084,0.0143813,-0.702,0.0167951,9.78457,0.457775,-0.110795,0.797681,-0.00702345,0.00015943,0.0978455,1,4.35879e-05,-1.76146e-05,-6.2445e-07,0.00871758,-0.00352292,-0.00012489,0.999196,0.00674389,0.0368084,0.0143813,-0.314952,-0.0173365,-0.858509,32.875,1,24193,2464957
24,3,0.999199,0.00678308,0.0367393,0.0143498,-0.717902,0.00439979,9.78864,0.444662,-0.123866,0.805824,-0.00718297,3.36336e-05,0.0978861,1,5.23777e-05,-2.01758e-05,7.66837e-06,0.0104755,-0.00403516,0.00153367,0.999199,0.00678308,0.0367393,0.0143498,-0.314492,-0.0197343,-0.86109,32.875,1,24195,2465157
24,4,0.999202,0.00680066,0.0366691,0.014337,-0.72463,0.0246492,9.77901,0.431479,-0.10285,0.796552,-0.00725102,0.000235848,0.0977898,1,5.34969e-05,-2.41401e-05,1.24594e-05,0.0106994,-0.00482802,0.00249189,0.999202,0.00680066,0.0366691,0.014337,-0.314479,-0.018298,-0.859543,32.875,1,24197,2465357
25,1,0.999205,0.00683909,0.0366077,0.0142614,-0.731953,0.00839258,9.78707,0.423935,-0.12422,0.807618,-0.00732239,7.39136e-05,0.0978705,1,5.08242e-05,-1.45862e-05,4.35297e-06,0.0101648,-0.00291724,0.000870594,0.999205,0.00683909,0.0366077,0.0142614,-0.3154,-0.0178383,-0.857508,32.875,1,24199,2465557
25,2,0.999207,0.0069081,0.0365425,0.0142289,-0.718177,0.0301748,9.7875,0.436887,-0.102035,0.807169,-0.00718566,0.000289421,0.0978747,1,6.19645e-05,-1.98242e-05,1.37688e-05,0.0123929,-0.00396485,0.00275376,0.999207,0.0069081,0.0365425,0.0142289,-0.315441,-0.01829,-0.859538,32.875,1,24201,2465757
25,3,0.999208,0.0069211,0.0365019,0.0142191,-0.708839,0.0270909,9.78504,0.441384,-0.101494,0.806185,-0.00709423,0.000261288,0.09785,1,4.90992e-05,-2.98584e-05,8.93942e-07,0.00981985,-0.00597167,0.000178788,0.999208,0.0069211,0.0365019,0.0142191,-0.316436,-0.0177762,-0.860532,32.875,1,24202,2465857
25,4,0.999209,0.00693415,0.03646,0.0142633,-0.684546,0.000993537,9.80262,0.472309,-0.128337,0.817264,-0.00684832,3.4219e-06,0.098026,1,3.22982e-05,-1.46032e-05,1.32416e-05,0.00645965,-0.00292064,0.00264831,0.999209,0.00693415,0.03646,0.0142633,-0.315951,-0.0173015,-0.860019,32.875,1,24204,2466057
26,1,0.999211,0.00696258,0.0364091,0.01425,-0.685895,0.0417382,9.78196,0.462309,-0.0884335,0.799394,-0.00686326,0.000407616,0.0978193,1,4.90993e-05,-2.20017e-05,1.1729e-05,0.00981986,-0.00440034,0.0023458,0.999211,0.00696258,0.0364091,0.01425,-0.315894,-0.0192706,-0.859053,32.875,1,24206,2466257
26,2,0.999212,0.00699211,0.0363698,0.0142788,-0.692338,0.020222,9.78418,0.458804,-0.110269,0.799396,-0.00692555,0.00018977,0.0978417,1,6.22198e-05,-1.104e-05,1.98801e-05,0.012444,-0.002208,0.00397602,0.999212,0.00699211,0.0363698,0.0142788,-0.315466,-0.018272,-0.860548,32.875,1,24208,2466457
26,3,0.999214,0.00703248,0.0363193,0.0142436,-0.713506,0.0125571,9.7897,0.435673,-0.12385,0.806177,-0.00713898,0.00011535,0.0978967,1,5.17407e-05,-2.00067e-05,6.27848e-06,0.0103481,-0.00400133,0.0012557,0.999214,0.00703248,0.0363193,0.0142436,-0.315893,-0.0178253,-0.858011,32.875,1,24210,2466657
26,4,0.999216,0.00705981,0.0362795,0.014161,-0.691415,0.0312536,9.78902,0.458254,-0.104505,0.806856,-0.0069147,0.000304287,0.0978902,1,4.11794e-05,-2.76451e-06,1.35301e-05,0.00823587,-0.000552903,0.00270603,0.999216,0.00705981,0.0362795,0.014161,-0.314956,-0.0192605,-0.860067,32.875,1,24212,2466857
27,1,0.999217,0.00706631,0.0362572,0.0141486,-0.676543,0.015573,9.80066,0.474317,-0.11524,0.818824,-0.00676789,0.000146701,0.0980064,1,4.6203e-05,-1.25932e-05,-2.00965e-06,0.00924059,-0.00251865,-0.000401931,0.999217,0.00706631,0.0362572,0.0141486,-0.316946,-0.0167877,-0.861013,32.875,1,24213,2466957
27,2,0.999219,0.00709087,0.0361899,0.0141749,-0.67088,0.0162009,9.77688,0.474099,-0.116701,0.793565,-0.00671328,0.000152737,0.0977685,1,4.73224e-05,-2.2944e-05,1.34522e-06,0.00946447,-0.0045888,0.000269043,0.999219,0.00709087,0.0361899,0.0141749,-0.314956,-0.0192605,-0.860067,32.875,1,24215,2467157
27,3,0.999219,0.00709087,0.0361899,0.0141749,-0.67088,0.0162009,9.77688,0.474099,-0.116701,0.793565,-0.00671328,0.000152737,0.0977685,1,4.73224e-05,-2.2944e-05,1.34522e-06,0.00946447,-0.0045888,0.000269043,0.999219,0.00709087,0.0361899,0.0141749,-0.314956,-0.0192605,-0.860067,32.875,1,24215,2467157
27,4,0.99922,0.00709758,0.0361692,0.0141625,-0.680076,0.0232346,9.79023,0.467554,-0.109614,0.805093,-0.00680296,0.000223318,0.0979021,1,4.56031e-05,-1.1187e-05,7.24763e-06,0.00912063,-0.00223741,0.00144953,0.99922,0.00709758,0.0361692,0.0141625,-0.315491,-0.0182539,-0.861557,32.875,1,24216,2467257
28,1,0.999221,0.007104,0.0361422,0.0141892,-0.671215,0.0342322,9.79705,0.472665,-0.106026,0.810601,-0.00671459,0.000331808,0.0979704,1,5.23404e-05,-1.24125e-05,1.93024e-05,0.0104681,-0.00248251,0.00386048,0.999221,0.007104,0.0361422,0.0141892,-0.315458,-0.0187598,-0.860559,32.875,1,24217,2467357
28,2,0.999222,0.00710787,0.0361058,0.0142094,-0.704062,0.0272657,9.79415,0.442039,-0.106728,0.811688,-0.00704015,0.000264336,0.0979415,1,4.06596e-05,2.44532e-06,2.52745e-05,0.00813192,0.000489063,0.00505489,0.999222,0.00710787,0.0361058,0.0142094,-0.31598,-0.0177622,-0.861544,32.875,1,24219,2467557
28,3,0.999222,0.00710787,0.0361058,0.0142094,-0.704062,0.0272657,9.79415,0.442039,-0.106728,0.811688,-0.00704015,0.000264336,0.0979415,1,4.06596e-05,2.44532e-06,2.52745e-05,0.00813192,0.000489063,0.00505489,0.999222,0.00710787,0.0361058,0.0142094,-0.31598,-0.0177622,-0.861544,32.875,1,24219,2467557
28,4,0.999222,0.00710787,0.0361058,0.0142094,-0.704062,0.0272657,9.79415,0.442039,-0.106728,0.811688,-0.00704015,0.000264336,0.0979415,1,4.06596e-05,2.44532e-06,2.52745e-05,0.00813192,0.000489063,0.00505489,0.999222,0.00710787,0.0361058,0.0142094,-0.31598,-0.0177622,-0.861544,32.875,1,24219,2467557
29,1,0.999223,0.00710178,0.0360606,0.0142146,-0.732129,0.0274474,9.78553,0.409166,-0.10302,0.804442,-0.00732397,0.000267682,0.0978552,1,3.43733e-05,-1.3653e-05,4.41634e-06,0.00687466,-0.0027306,0.000883267,0.999223,0.00710178,0.0360606,0.0142146,-0.315412,-0.0178293,-0.858013,32.875,1,24221,2467757
29,2,0.999225,0.00711275,0.03604,0.0141404,-0.705356,0.0286687,9.78128,0.439201,-0.0995919,0.802476,-0.0070561,0.000280052,0.0978127,1,3.34512e-05,-1.29584e-05,6.45221e-06,0.00669025,-0.00259169,0.00129044,0.999225,0.00711275,0.03604,0.0141404,-0.314894,-0.0178603,-0.856501,32.875,1,24222,2467857
29,3,0.999225,0.00711275,0.03604,0.0141404,-0.705356,0.0286687,9.78128,0.439201,-0.0995919,0.802476,-0.0070561,0.000280052,0.0978127,1,3.34512e-05,-1.29584e-05,6.45221e-06,0.00669025,-0.00259169,0.00129044,0.999225,0.00711275,0.03604,0.0141404,-0.314894,-0.0178603,-0.856501,32.875,1,24222,2467857
29,4,0.999225,0.00711275,0.03604,0.0141404,-0.705356,0.0286687,9.78128,0.439201,-0.0995919,0.802476,-0.0070561,0.000280052,0.0978127,1,3.34512e-05,-1.29584e-05,6.45221e-06,0.00669025,-0.00259169,0.00129044,0.999225,0.00711275,0.03604,0.0141404,-0.314894,-0.0178603,-0.856501,32.875,1,24222,2467857
30,1,0.999228,0.0071676,0.0360322,0.0139089,-0.690986,0.00932126,9.79153,0.448159,-0.122857,0.808821,-0.00690982,8.34419e-05,0.0979154,1,4.90248e-05,2.17557e-07,1.23161e-05,0.00980496,4.35114e-05,0.00246321,0.999228,0.0071676,0.0360322,0.0139089,-0.314483,-0.0187768,-0.860059,32.875,3,24224,2468057
30,2,0.999229,0.00717977,0.0360135,0.0139079,-0.681227,0.0351396,9.79203,0.461682,-0.0996282,0.808618,-0.00681396,0.000340915,0.0979202,1,5.20143e-05,-8.53651e-06,2.16291e-05,0.0104029,-0.0017073,0.00432582,0.999229,0.00717977,0.0360135,0.0139079,-0.315462,-0.0192385,-0.861074,32.875,3,24225,2468157
30,3,0.999229,0.00718225,0.0359972,0.0139308,-0.690352,0.0266028,9.78456,0.44938,-0.104318,0.799831,-0.00690446,0.00025693,0.0978456,1,4.62067e-05,-4.77767e-06,4.01751e-06,0.00924133,-0.000955535,0.000803502,0.999229,0.00718225,0.0359972,0.0139308,-0.315462,-0.0192385,-0.861074,32.875,3,24226,2468257
30,4,0.999229,0.00718225,0.0359972,0.0139308,-0.690352,0.0266028,9.78456,0.44938,-0.104318,0.799831,-0.00690446,0.00025693,0.0978456,1,4.62067e-05,-4.77767e-06,4.01751e-06,0.00924133,-0.000955535,0.000803502,0.999229,0.00718225,0.0359972,0.0139308,-0.315462,-0.0192385,-0.861074,32.875,3,24226,2468257
31,1,0.99923,0.00721812,0.0359656,0.0139457,-0.692981,0.0111583,9.79292,0.44947,-0.123693,0.808428,-0.00693029,0.000100016,0.0979292,1,5.86919e-05,-2.44367e-06,5.15405e-06,0.0117384,-0.000488734,0.00103081,0.99923,0.00721812,0.0359656,0.0139457,-0.313488,-0.0192906,-0.859064,32.875,3,24228,2468457
31,2,0.99923,0.00721812,0.0359656,0.0139457,-0.692981,0.0111583,9.79292,0.44947,-0.123693,0.808428,-0.00693029,0.000100016,0.0979292,1,5.86919e-05,-2.44367e-06,5.15405e-06,0.0117384,-0.000488734,0.00103081,0.99923,0.00721812,0.0359656,0.0139457,-0.313488,-0.0192906,-0.859064,32.875,3,24228,2468457
31,3,0.999231,0.00722831,0.035963,0.0138864,-0.69716,0.00354165,9.78643,0.44372,-0.131687,0.808119,-0.00697093,2.6479e-05,0.0978644,1,4.39788e-05,3.44206e-06,2.36429e-05,0.00879575,0.000688412,0.00472857,0.999231,0.00722831,0.035963,0.0138864,-0.313447,-0.0188389,-0.857034,32.875,3,24229,2468557
31,4,0.999231,0.00722831,0.035963,0.0138864,-0.69716,0.00354165,9.78643,0.44372,-0.131687,0.808119,-0.00697093,2.6479e-05,0.0978644,1,4.39788e-05,3.44206e-06,2.36429e-05,0.00879575,0.000688412,0.00472857,0.999231,0.00722831,0.035963,0.0138864,-0.313447,-0.0188389,-0.857034,32.875,3,24229,2468557
32,1,0.999233,0.00726277,0.035943,0.0137416,-0.731954,0.0412254,9.78599,0.407327,-0.0956943,0.803633,-0.00732095,0.000403093,0.0978598,1,4.58844e-05,-7.15069e-06,1.2353e-05,0.00917689,-0.00143014,0.00247059,0.999233,0.00726277,0.035943,0.0137416,-0.314553,-0.0182439,-0.862572,32.875,3,24231,2468757
32,2,0.999234,0.00725436,0.0359077,0.0137749,-0.75654,0.02664,9.79146,0.389468,-0.11221,0.811138,-0.0075684,0.000257093,0.0979144,1,4.69014e-05,-1.52663e-05,8.05957e-06,0.00938028,-0.00305326,0.00161191,0.999234,0.00725436,0.0359077,0.0137749,-0.315548,-0.0177301,-0.863566,32.875,3,24232,2468857
32,3,0.999234,0.00725436,0.0359077,0.0137749,-0.75654,0.02664,9.79146,0.389468,-0.11221,0.811138,-0.0075684,0.000257093,0.0979144,1,4.69014e-05,-1.52663e-05,8.05957e-06,0.00938028,-0.00305326,0.00161191,0.999234,0.00725436,0.0359077,0.0137749,-0.315548,-0.0177301,-0.863566,32.875,3,24232,2468857
32,4,0.999234,0.00725436,0.0359077,0.0137749,-0.75654,0.02664,9.79146,0.389468,-0.11221,0.811138,-0.0075684,0.000257093,0.0979144,1,4.69014e-05,-1.52663e-05,8.05957e-06,0.00938028,-0.00305326,0.00161191,0.999234,0.00725436,0.0359077,0.0137749,-0.315548,-0.0177301,-0.863566,32.875,3,24232,2468857
33,1,0.999234,0.00725827,0.0358564,0.0138973,-0.736092,-0.00356842,9.78698,0.40641,-0.140055,0.807306,-0.00736225,-4.62041e-05,0.0978697,1,5.28153e-05,-6.77791e-06,1.23516e-05,0.0105631,-0.00135558,0.00247031,0.999234,0.00725827,0.0358564,0.0138973,-0.314924,-0.0197663,-0.859068,32.875,3,24234,2469057
33,2,0.999235,0.00728085,0.0358485,0.0138612,-0.703229,0.0110962,9.7879,0.434112,-0.126754,0.806701,-0.00703299,0.000100683,0.0978789,1,5.16157e-05,-3.5557e-06,1.23756e-05,0.0103231,-0.000711141,0.00247512,0.999235,0.00728085,0.0358485,0.0138612,-0.313961,-0.0183291,-0.858031,32.875,3,24235,2469157
33,3,0.999237,0.00730807,0.0358254,0.013748,-0.695437,0.0394656,9.79455,0.441018,-0.099927,0.813796,-0.00695745,0.000384468,0.0979453,1,5.06361e-05,-1.56366e-05,1.9379e-05,0.0101272,-0.00312733,0.00387581,0.999237,0.00730807,0.0358254,0.013748,-0.315005,-0.0163339,-0.860002,32.875,3,24236,2469257
33,4,0.999237,0.00730807,0.0358254,0.013748,-0.695437,0.0394656,9.79455,0.441018,-0.099927,0.813796,-0.00695745,0.000384468,0.0979453,1,5.06361e-05,-1.56366e-05,1.9379e-05,0.0101272,-0.00312733,0.00387581,0.999237,0.00730807,0.0358254,0.013748,-0.315005,-0.0163339,-0.860002,32.875,3,24236,2469257
34,1,0.99924,0.00731021,0.0357597,0.0137226,-0.701078,0.0192648,9.79136,0.437364,-0.115523,0.811931,-0.0070135,0.000183313,0.0979134,1,4.66518e-05,-1.38655e-05,1.41803e-05,0.00933036,-0.00277311,0.00283607,0.99924,0.00731021,0.0357597,0.0137226,-0.316942,-0.0191995,-0.862582,32.875,3,24238,2469457
34,2,0.99924,0.00731021,0.0357597,0.0137226,-0.701078,0.0192648,9.79136,0.437364,-0.115523,0.811931,-0.0070135,0.000183313,0.0979134,1,4.66518e-05,-1.38655e-05,1.41803e-05,0.00933036,-0.00277311,0.00283607,0.99924,0.00731021,0.0357597,0.0137226,-0.316942,-0.0191995,-0.862582,32.875,3,24238,2469457
34,3,0.999239,0.00730007,0.0357345,0.0138308,-0.708345,0.0198471,9.77818,0.425847,-0.116996,0.799335,-0.00708514,0.00019051,0.0977817,1,4.00711e-05,-8.63686e-06,8.84183e-06,0.00801423,-0.00172737,0.00176837,0.999239,0.00730007,0.0357345,0.0138308,-0.316416,-0.0197183,-0.861081,32.875,3,24239,2469557
34,4,0.999239,0.00730007,0.0357345,0.0138308,-0.708345,0.0198471,9.77818,0.425847,-0.116996,0.799335,-0.00708514,0.00019051,0.0977817,1,4.00711e-05,-8.63686e-06,8.84183e-06,0.00801423,-0.00172737,0.00176837,0.999239,0.00730007,0.0357345,0.0138308,-0.316416,-0.0197183,-0.861081,32.875,3,24239,2469557
35,1,0.99924,0.00730001,0.0356929,0.0138724,-0.738383,0.0193621,9.77939,0.395629,-0.123437,0.798831,-0.00738467,0.000184857,0.0977939,1,4.38317e-05,-4.25978e-06,1.28822e-05,0.00876634,-0.000851956,0.00257645,0.99924,0.00730001,0.0356929,0.0138724,-0.315454,-0.018281,-0.860043,32.875,3,24241,2469757
35,2,0.999241,0.00732174,0.0356665,0.0138359,-0.721579,0.0321382,9.78856,0.416144,-0.107864,0.807363,-0.00721878,0.000310267,0.0978854,1,5.59055e-05,-1.52272e-05,1.17866e-05,0.0111811,-0.00304544,0.00235733,0.999241,0.00732174,0.0356665,0.0138359,-0.316897,-0.018269,-0.860036,32.875,3,24242,2469857
35,3,0.999241,0.00732174,0.0356665,0.0138359,-0.721579,0.0321382,9.78856,0.416144,-0.107864,0.807363,-0.00721878,0.000310267,0.0978854,1,5.59055e-05,-1.52272e-05,1.17866e-05,0.0111811,-0.00304544,0.00235733,0.999241,0.00732174,0.0356665,0.0138359,-0.316897,-0.018269,-0.860036,32.875,3,24242,2469857
35,4,0.999241,0.00732174,0.0356665,0.0138359,-0.721579,0.0321382,9.78856,0.416144,-0.107864,0.807363,-0.00721878,0.000310267,0.0978854,1,5.59055e-05,-1.52272e-05,1.17866e-05,0.0111811,-0.00304544,0.00235733,0.999241,0.00732174,0.0356665,0.0138359,-0.316897,-0.018269,-0.860036,32.875,3,24242,2469857
36,1,0.999242,0.00735066,0.035603,0.0139327,-0.699844,0.0113566,9.79842,0.432377,-0.129574,0.818016,-0.00700258,0.000101978,0.0979839,1,5.80233e-05,-2.10721e-05,1.54951e-05,0.0116047,-0.00421442,0.00309902,0.999242,0.00735066,0.035603,0.0139327,-0.316963,-0.0201479,-0.864118,32.875,3,24244,2470057
36,2,0.99924,0.00732961,0.0355685,0.0141452,-0.700984,0.0367179,9.77387,0.427934,-0.105675,0.797054,-0.00701359,0.000357927,0.0977385,1,4.63016e-05,-1.91259e-05,1.43124e-05,0.00926031,-0.00382519,0.00286249,0.99924,0.00732961,0.0355685,0.0141452,-0.315454,-0.0197263,-0.861085,32.875,3,24245,2470157
36,3,0.999241,0.00732849,0.0355406,0.0141509,-0.695384,0.0380577,9.79318,0.440602,-0.0985245,0.809632,-0.00695783,0.000372352,0.0979316,1,4.14625e-05,-2.03418e-05,7.44511e-06,0.00829251,-0.00406836,0.00148902,0.999241,0.00732849,0.0355406,0.0141509,-0.315372,-0.0188229,-0.857025,32.875,3,24246,2470257
36,4,0.999241,0.00732849,0.0355406,0.0141509,-0.695384,0.0380577,9.79318,0.440602,-0.0985245,0.809632,-0.00695783,0.000372352,0.0979316,1,4.14625e-05,-2.03418e-05,7.44511e-06,0.00829251,-0.00406836,0.00148902,0.999241,0.00732849,0.0355406,0.0141509,-0.315372,-0.0188229,-0.857025,32.875,3,24246,2470257
37,1,0.999243,0.00739918,0.0355178,0.0140365,-0.674736,0.00863082,9.77717,0.463658,-0.126552,0.792685,-0.00674806,7.76805e-05,0.0977716,1,4.29339e-05,-3.56459e-06,1.72111e-05,0.00858677,-0.000712918,0.00344222,0.999243,0.00739918,0.0355178,0.0140365,-0.317908,-0.0167797,-0.861008,32.875,3,24248,2470457
37,2,0.999243,0.00741169,0.0354875,0.0141076,-0.689612,0.0128602,9.78647,0.442553,-0.132308,0.805685,-0.00689829,0.000118087,0.0978645,1,5.30443e-05,-1.1068e-05,9.61343e-06,0.0106089,-0.0022136,0.00192269,0.999243,0.00741169,0.0354875,0.0141076,-0.316436,-0.0177762,-0.860532,32.875,3,24249,2470557
37,3,0.999243,0.00741169,0.0354875,0.0141076,-0.689612,0.0128602,9.78647,0.442553,-0.132308,0.805685,-0.00689829,0.000118087,0.0978645,1,5.30443e-05,-1.1068e-05,9.61343e-06,0.0106089,-0.0022136,0.00192269,0.999243,0.00741169,0.0354875,0.0141076,-0.316436,-0.0177762,-0.860532,32.875,3,24249,2470557
37,4,0.999243,0.00741169,0.0354875,0.0141076,-0.689612,0.0128602,9.78647,0.442553,-0.132308,0.805685,-0.00689829,0.000118087,0.0978645,1,5.30443e-05,-1.1068e-05,9.61343e-06,0.0106089,-0.0022136,0.00192269,0.999243,0.00741169,0.0354875,0.0141076,-0.316436,-0.0177762,-0.860532,32.875,3,24249,2470557
38,1,0.999244,0.00742904,0.0354562,0.0140796,-0.753171,0.0436617,9.78071,0.372179,-0.104108,0.803777,-0.00753155,0.000425709,0.0978072,1,5.43762e-05,8.82803e-07,1.79688e-05,0.0108753,0.000176561,0.00359376,0.999244,0.00742904,0.0354562,0.0140796,-0.314438,-0.0192916,-0.858555,32.875,3,24251,2470757
38,2,0.999247,0.00744699,0.0354464,0.0139055,-0.740395,0.0413068,9.79385,0.384205,-0.103149,0.817074,-0.00740555,0.000405576,0.0979384,1,3.79141e-05,-8.12862e-06,4.44791e-06,0.00758283,-0.00162572,0.000889583,0.999247,0.00744699,0.0354464,0.0139055,-0.316366,-0.0183091,-0.858019,32.875,3,24252,2470857
38,3,0.999247,0.00744699,0.0354464,0.0139055,-0.740395,0.0413068,9.79385,0.384205,-0.103149,0.817074,-0.00740555,0.000405576,0.0979384,1,3.79141e-05,-8.12862e-06,4.44791e-06,0.00758283,-0.00162572,0.000889583,0.999247,0.00744699,0.0354464,0.0139055,-0.316366,-0.0183091,-0.858019,32.875,3,24252,2470857
38,4,0.999247,0.00744699,0.0354464,0.0139055,-0.740395,0.0413068,9.79385,0.384205,-0.103149,0.817074,-0.00740555,0.000405576,0.0979384,1,3.79141e-05,-8.12862e-06,4.44791e-06,0.00758283,-0.00162572,0.000889583,0.999247,0.00744699,0.0354464,0.0139055,-0.316366,-0.0183091,-0.858019,32.875,3,24252,2470857
39,1,0.999251,0.00747951,0.0354011,0.0136952,-0.692074,0.000948257,9.79758,0.439477,-0.141136,0.818367,-0.00692326,3.10903e-06,0.0979756,1,3.27044e-05,-1.28296e-05,-2.52385e-06,0.00654089,-0.00256592,-0.000504769,0.999251,0.00747951,0.0354011,0.0136952,-0.315491,-0.0182539,-0.861557,32.875,3,24254,2471057
39,2,0.999252,0.00747277,0.0353712,0.0136984,-0.687924,0.0180713,9.78007,0.441679,-0.124524,0.79985,-0.00688195,0.000172592,0.0978005,1,4.03561e-05,-1.38468e-05,1.65014e-05,0.00807121,-0.00276936,0.00330027,0.999252,0.00747277,0.0353712,0.0136984,-0.315507,-0.0187237,-0.862578,32.875,3,24255,2471157
39,3,0.999252,0.00746677,0.0353482,0.0137517,-0.687553,0.0201694,9.78212,0.440712,-0.117145,0.798935,-0.00687675,0.000191698,0.0978211,1,4.97029e-05,-6.20581e-06,1.97847e-05,0.00994059,-0.00124116,0.00395694,0.999252,0.00746677,0.0353482,0.0137517,-0.315992,-0.0177532,-0.862049,32.875,3,24256,2471257
39,4,0.999252,0.00746677,0.0353482,0.0137517,-0.687553,0.0201694,9.78212,0.440712,-0.117145,0.798935,-0.00687675,0.000191698,0.0978211,1,4.97029e-05,-6.20581e-06,1.97847e-05,0.00994059,-0.00124116,0.00395694,0.999252,0.00746677,0.0353482,0.0137517,-0.315992,-0.0177532,-0.862049,32.875,3,24256,2471257
40,1,0.999255,0.00749036,0.0352945,0.0137047,-0.666973,0.0118886,9.80429,0.465777,-0.126786,0.819457,-0.00667251,0.000109365,0.0980427,1,4.84511e-05,-1.42009e-05,1.49591e-06,0.00969021,-0.00284019,0.000299181,0.999255,0.00749036,0.0352945,0.0137047,-0.315433,-0.0173325,-0.858507,32.875,3,24258,2471457
40,2,0.999255,0.00749036,0.0352945,0.0137047,-0.666973,0.0118886,9.80429,0.465777,-0.126786,0.819457,-0.00667251,0.000109365,0.0980427,1,4.84511e-05,-1.42009e-05,1.49591e-06,0.00969021,-0.00284019,0.000299181,0.999255,0.00749036,0.0352945,0.0137047,-0.315433,-0.0173325,-0.858507,32.875,3,24258,2471457
40,3,0.999258,0.00751705,0.0352747,0.0135395,-0.701359,0.0391044,9.78949,0.424685,-0.108955,0.814468,-0.00701505,0.000381756,0.0978948,1,4.59831e-05,-7.36081e-06,2.03552e-05,0.00919662,-0.00147216,0.00407104,0.999258,0.00751705,0.0352747,0.0135395,-0.314944,-0.0178243,-0.85852,32.875,3,24259,2471557
40,4,0.999258,0.00751705,0.0352747,0.0135395,-0.701359,0.0391044,9.78949,0.424685,-0.108955,0.814468,-0.00701505,0.000381756,0.0978948,1,4.59831e-05,-7.36081e-06,2.03552e-05,0.00919662,-0.00147216,0.00407104,0.999258,0.00751705,0.0352747,0.0135395,-0.314944,-0.0178243,-0.85852,32.875,3,24259,2471557
41,1,0.999262,0.00756404,0.0352338,0.0133282,-0.732926,0.0359671,9.77475,0.388415,-0.107182,0.794837,-0.00733247,0.000348682,0.0977473,1,5.47058e-05,-1.63357e-05,2.0042e-05,0.0109412,-0.00326713,0.0040084,0.999262,0.00756404,0.0352338,0.0133282,-0.316016,-0.0162899,-0.862016,32.875,3,24261,2471757
41,2,0.999264,0.00756638,0.035183,0.0132959,-0.701821,0.0120828,9.78248,0.415821,-0.126518,0.80145,-0.00702167,0.000110888,0.0978245,1,5.01181e-05,-1.77008e-05,9.57617e-06,0.0100236,-0.00354017,0.00191523,0.999264,0.00756638,0.035183,0.0132959,-0.316053,-0.0162628,-0.863531,32.875,3,24262,2471857
41,3,0.999264,0.00756638,0.035183,0.0132959,-0.701821,0.0120828,9.78248,0.415821,-0.126518,0.80145,-0.00702167,0.000110888,0.0978245,1,5.01181e-05,-1.77008e-05,9.57617e-06,0.0100236,-0.00354017,0.00191523,0.999264,0.00756638,0.035183,0.0132959,-0.316053,-0.0162628,-0.863531,32.875,3,24262,2471857
41,4,0.999264,0.00756638,0.035183,0.0132959,-0.701821,0.0120828,9.78248,0.415821,-0.126518,0.80145,-0.00702167,0.000110888,0.0978245,1,5.01181e-05,-1.77008e-05,9.57617e-06,0.0100236,-0.00354017,0.00191523,0.999264,0.00756638,0.035183,0.0132959,-0.316053,-0.0162628,-0.863531,32.875,3,24262,2471857
42,1,0.999268,0.00752505,0.0350921,0.0132788,-0.684161,-0.00984209,9.79371,0.44415,-0.150843,0.809827,-0.00684474,-0.00010565,0.0979369,1,3.63699e-05,-1.60042e-05,7.67034e-06,0.00727397,-0.00320084,0.00153407,0.999268,0.00752505,0.0350921,0.0132788,-0.315922,-0.018286,-0.859536,32.875,3,24264,2472057
42,2,0.999269,0.00755919,0.0350775,0.0131818,-0.693654,0.0160297,9.78958,0.43168,-0.126666,0.810261,-0.00693701,0.000148176,0.0978958,1,6.11787e-05,-2.36352e-06,1.03038e-05,0.0122357,-0.000472704,0.00206077,0.999269,0.00755919,0.0350775,0.0131818,-0.316424,-0.0177852,-0.860028,32.875,3,24265,2472157
42,3,0.999271,0.00758698,0.035049,0.0131066,-0.712634,0.0439022,9.78045,0.411054,-0.0996463,0.800897,-0.00712824,0.00042775,0.0978044,1,5.614e-05,-9.63416e-06,2.03196e-05,0.011228,-0.00192683,0.00406392,0.999271,0.00758698,0.035049,0.0131066,-0.316987,-0.0157941,-0.862001,32.875,3,24266,2472257
42,4,0.999271,0.00758698,0.035049,0.0131066,-0.712634,0.0439022,9.78045,0.411054,-0.0996463,0.800897,-0.00712824,0.00042775,0.0978044,1,5.614e-05,-9.63416e-06,2.03196e-05,0.011228,-0.00192683,0.00406392,0.999271,0.00758698,0.035049,0.0131066,-0.316987,-0.0157941,-0.862001,32.875,3,24266,2472257
43,1,0.999275,0.00759149,0.0349588,0.013021,-0.707202,0.0186718,9.79547,0.411022,-0.126833,0.816402,-0.00707382,0.000178366,0.0979546,1,4.18257e-05,-9.19227e-06,1.12167e-05,0.00836514,-0.00183845,0.00224333,0.999275,0.00759149,0.0349588,0.013021,-0.314582,-0.0172594,-0.863055,32.875,3,24268,2472457
43,2,0.999275,0.00759149,0.0349588,0.013021,-0.707202,0.0186718,9.79547,0.411022,-0.126833,0.816402,-0.00707382,0.000178366,0.0979546,1,4.18257e-05,-9.19227e-06,1.12167e-05,0.00836514,-0.00183845,0.00224333,0.999275,0.00759149,0.0349588,0.013021,-0.314582,-0.0172594,-0.863055,32.875,3,24268,2472457
43,3,0.999277,0.00756588,0.0349283,0.0130092,-0.715102,0.00765553,9.79507,0.408196,-0.135598,0.812623,-0.00715078,6.9175e-05,0.0979507,1,3.63047e-05,1.23311e-06,1.87514e-05,0.00726094,0.000246622,0.00375029,0.999277,0.00756588,0.0349283,0.0130092,-0.314528,-0.018262,-0.861562,32.875,3,24269,2472557
43,4,0.999277,0.00756588,0.0349283,0.0130092,-0.715102,0.00765553,9.79507,0.408196,-0.135598,0.812623,-0.00715078,6.9175e-05,0.0979507,1,3.63047e-05,1.23311e-06,1.87514e-05,0.00726094,0.000246622,0.00375029,0.999277,0.00756588,0.0349283,0.0130092,-0.314528,-0.018262,-0.861562,32.875,3,24269,2472557
44,1,0.999281,0.00756678,0.0348857,0.0127523,-0.735766,0.0119517,9.78746,0.379833,-0.135281,0.810874,-0.00735899,0.000111551,0.0978745,1,3.99166e-05,-6.77819e-06,1.03356e-05,0.00798331,-0.00135564,0.00206713,0.999281,0.00756678,0.0348857,0.0127523,-0.312522,-0.0188198,-0.858553,32.875,3,24271,2472757
44,2,0.999284,0.00757029,0.0348816,0.0125786,-0.70882,0.0407671,9.79396,0.410944,-0.104945,0.813137,-0.00708891,0.000399752,0.0979396,1,3.93502e-05,-3.58176e-06,1.49273e-05,0.00787005,-0.000716352,0.00298546,0.999284,0.00757029,0.0348816,0.0125786,-0.314972,-0.018285,-0.860045,32.875,3,24272,2472857
44,3,0.999284,0.00757029,0.0348816,0.0125786,-0.70882,0.0407671,9.79396,0.410944,-0.104945,0.813137,-0.00708891,0.000399752,0.0979396,1,3.93502e-05,-3.58176e-06,1.49273e-05,0.00787005,-0.000716352,0.00298546,0.999284,0.00757029,0.0348816,0.0125786,-0.314972,-0.018285,-0.860045,32.875,3,24272,2472857
44,4,0.999284,0.00757029,0.0348816,0.0125786,-0.70882,0.0407671,9.79396,0.410944,-0.104945,0.813137,-0.00708891,0.000399752,0.0979396,1,3.93502e-05,-3.58176e-06,1.49273e-05,0.00787005,-0.000716352,0.00298546,0.999284,0.00757029,0.0348816,0.0125786,-0.314972,-0.018285,-0.860045,32.875,3,24272,2472857
45,1,0.999287,0.00760199,0.03482,0.0124508,-0.717367,0.00359239,9.76963,0.396114,-0.14022,0.791427,-0.00717514,2.5348e-05,0.0976962,1,5.34059e-05,-7.49524e-06,9.80991e-06,0.0106812,-0.00149905,0.00196198,0.999287,0.00760199,0.03482,0.0124508,-0.315499,-0.0177662,-0.861547,32.875,3,24274,2473057
45,2,0.999289,0.00761869,0.034777,0.0124079,-0.694617,0.00449524,9.77728,0.416127,-0.143338,0.795176,-0.00694929,3.29883e-05,0.0977725,1,6.05565e-05,-1.59365e-05,8.82175e-06,0.0121113,-0.00318729,0.00176435,0.999289,0.00761869,0.034777,0.0124079,-0.314952,-0.0187818,-0.859551,32.875,3,24275,2473157
45,3,0.999291,0.00762235,0.0347503,0.0123092,-0.687248,0.0223716,9.78824,0.427688,-0.12152,0.805681,-0.00687567,0.000216578,0.0978822,1,3.56416e-05,-1.62777e-05,1.16698e-05,0.00712831,-0.00325554,0.00233396,0.999291,0.00762235,0.0347503,0.0123092,-0.314891,-0.0202721,-0.85807,32.875,3,24276,2473257
45,4,0.999291,0.00762235,0.0347503,0.0123092,-0.687248,0.0223716,9.78824,0.427688,-0.12152,0.805681,-0.00687567,0.000216578,0.0978822,1,3.56416e-05,-1.62777e-05,1.16698e-05,0.00712831,-0.00325554,0.00233396,0.999291,0.00762235,0.0347503,0.0123092,-0.314891,-0.0202721,-0.85807,32.875,3,24276,2473257
46,1,0.999293,0.00766878,0.0347485,0.0121112,-0.725874,0.0355614,9.77538,0.395497,-0.111809,0.797881,-0.00725966,0.000346265,0.0977537,1,4.67544e-05,-4.65638e-06,1.43404e-05,0.00935088,-0.000931277,0.00286808,0.999293,0.00766878,0.0347485,0.0121112,-0.314512,-0.0177922,-0.860542,32.875,3,24278,2473457
46,2,0.999293,0.00766878,0.0347485,0.0121112,-0.725874,0.0355614,9.77538,0.395497,-0.111809,0.797881,-0.00725966,0.000346265,0.0977537,1,4.67544e-05,-4.65638e-06,1.43404e-05,0.00935088,-0.000931277,0.00286808,0.999293,0.00766878,0.0347485,0.0121112,-0.314512,-0.0177922,-0.860542,32.875,3,24278,2473457
46,3,0.999295,0.00768923,0.0347118,0.0120395,-0.743659,0.0250596,9.79305,0.377534,-0.122439,0.815334,-0.00743872,0.000237914,0.0979304,1,6.36409e-05,-1.08411e-05,1.45751e-05,0.0127282,-0.00216822,0.00291502,0.999295,0.00768923,0.0347118,0.0120395,-0.314068,-0.0177692,-0.862058,32.875,3,24279,2473557
46,4,0.999295,0.00768923,0.0347118,0.0120395,-0.743659,0.0250596,9.79305,0.377534,-0.122439,0.815334,-0.00743872,0.000237914,0.0979304,1,6.36409e-05,-1.08411e-05,1.45751e-05,0.0127282,-0.00216822,0.00291502,0.999295,0.00768923,0.0347118,0.0120395,-0.314068,-0.0177692,-0.862058,32.875,3,24279,2473557
47,1,0.999297,0.00765616,0.0346273,0.0121366,-0.741368,0.0203644,9.77942,0.362914,-0.129607,0.800988,-0.00741687,0.000194549,0.097794,1,4.54837e-05,-1.6289e-05,1.34599e-05,0.00909674,-0.00325781,0.00269198,0.999297,0.00765616,0.0346273,0.0121366,-0.314952,-0.0187818,-0.859551,32.875,3,24281,2473757
47,2,0.9993,0.00768937,0.0345854,0.0120293,-0.703973,0.0189786,9.79308,0.404993,-0.122246,0.813009,-0.00704568,0.000177329,0.0979304,1,6.26091e-05,-3.03202e-05,1.37836e-05,0.0125218,-0.00606404,0.00275671,0.9993,0.00768937,0.0345854,0.0120293,-0.314931,-0.0178333,-0.858015,32.875,3,24282,2473857
47,3,0.9993,0.00768937,0.0345854,0.0120293,-0.703973,0.0189786,9.79308,0.404993,-0.122246,0.813009,-0.00704568,0.000177329,0.0979304,1,6.26091e-05,-3.03202e-05,1.37836e-05,0.0125218,-0.00606404,0.00275671,0.9993,0.00768937,0.0345854,0.0120293,-0.314931,-0.0178333,-0.858015,32.875,3,24282,2473857
47,4,0.9993,0.00768937,0.0345854,0.0120293,-0.703973,0.0189786,9.79308,0.404993,-0.122246,0.813009,-0.00704568,0.000177329,0.0979304,1,6.26091e-05,-3.03202e-05,1.37836e-05,0.0125218,-0.00606404,0.00275671,0.9993,0.00768937,0.0345854,0.0120293,-0.314931,-0.0178333,-0.858015,32.875,3,24282,2473857
48,1,0.999307,0.00774446,0.0345098,0.0115794,-0.667771,0.00456039,9.82018,0.438055,-0.145154,0.834803,-0.0066826,3.6492e-05,0.0982015,1,4.58733e-05,-2.49237e-05,7.64485e-06,0.00917467,-0.00498474,0.00152897,0.999307,0.00774446,0.0345098,0.0115794,-0.316925,-0.0172844,-0.860519,32.875,3,24284,2474057
48,2,0.999311,0.00777918,0.0344556,0.0114133,-0.721094,0.0124137,9.78431,0.396937,-0.139965,0.811917,-0.00721423,0.000112702,0.0978429,1,5.78816e-05,-1.67567e-05,7.52696e-06,0.0115763,-0.00335134,0.00150539,0.999311,0.00777918,0.0344556,0.0114133,-0.316523,-0.0177131,-0.864066,32.875,3,24285,2474157
48,3,0.999312,0.00776521,0.0343946,0.0114747,-0.775045,0.0449573,9.73679,0.327666,-0.106907,0.760645,-0.00775335,0.000441862,0.0973677,1,3.86668e-05,-1.48507e-05,1.16897e-05,0.00773336,-0.00297015,0.00233793,0.999312,0.00776521,0.0343946,0.0114747,-0.315071,-0.0182129,-0.864084,32.875,3,24286,2474257
48,4,0.999312,0.00776521,0.0343946,0.0114747,-0.775045,0.0449573,9.73679,0.327666,-0.106907,0.760645,-0.00775335,0.000441862,0.0973677,1,3.86668e-05,-1.48507e-05,1.16897e-05,0.00773336,-0.00297015,0.00233793,0.999312,0.00776521,0.0343946,0.0114747,-0.315071,-0.0182129,-0.864084,32.875,3,24286,2474257
49,1,0.999316,0.00777474,0.0342928,0.0114253,-0.686747,0.0176019,9.80176,0.411428,-0.133612,0.818878,-0.00687021,0.000165262,0.0980175,1,5.52181e-05,-1.3981e-05,-4.96945e-06,0.0110436,-0.00279621,-0.000993891,0.999316,0.00777474,0.0342928,0.0114253,-0.314952,-0.0173365,-0.858509,32.875,3,24288,2474457
49,2,0.99932,0.00779403,0.0342555,0.0112016,-0.677815,0.0107642,9.79995,0.428934,-0.131714,0.815456,-0.00678069,9.89011e-05,0.0979994,1,4.30756e-05,-1.2962e-05,2.19698e-05,0.00861513,-0.0025924,0.00439396,0.99932,0.00779403,0.0342555,0.0112016,-0.314981,-0.0177972,-0.860034,32.875,3,24289,2474557
49,3,0.99932,0.00779403,0.0342555,0.0112016,-0.677815,0.0107642,9.79995,0.428934,-0.131714,0.815456,-0.00678069,9.89011e-05,0.0979994,1,4.30756e-05,-1.2962e-05,2.19698e-05,0.00861513,-0.0025924,0.00439396,0.99932,0.00779403,0.0342555,0.0112016,-0.314981,-0.0177972,-0.860034,32.875,3,24289,2474557
49,4,0.99932,0.00779403,0.0342555,0.0112016,-0.677815,0.0107642,9.79995,0.428934,-0.131714,0.815456,-0.00678069,9.89011e-05,0.0979994,1,4.30756e-05,-1.2962e-05,2.19698e-05,0.00861513,-0.0025924,0.00439396,0.99932,0.00779403,0.0342555,0.0112016,-0.314981,-0.0177972,-0.860034,32.875,3,24289,2474557
50,1,0.999324,0.00780954,0.0341971,0.0110393,-0.711769,0.0238724,9.78129,0.389611,-0.128765,0.8042,-0.00711919,0.000231673,0.0978128,1,3.53288e-05,-7.62772e-06,9.77313e-06,0.00706577,-0.00152554,0.00195463,0.999324,0.00780954,0.0341971,0.0110393,-0.315523,-0.0177481,-0.862556,32.875,3,24291,2474757
50,2,0.999325,0.00780856,0.0341576,0.0110335,-0.722835,0.0458113,9.78495,0.378769,-0.105656,0.80713,-0.00722865,0.000448112,0.0978495,1,5.07497e-05,-1.51409e-06,4.85009e-06,0.0101499,-0.000302819,0.000970017,0.999325,0.00780856,0.0341576,0.0110335,-0.316975,-0.0172484,-0.862538,32.875,3,24292,2474857
50,3,0.999325,0.00780856,0.0341576,0.0110335,-0.722835,0.0458113,9.78495,0.378769,-0.105656,0.80713,-0.00722865,0.000448112,0.0978495,1,5.07497e-05,-1.51409e-06,4.85009e-06,0.0101499,-0.000302819,0.000970017,0.999325,0.00780856,0.0341576,0.0110335,-0.316975,-0.0172484,-0.862538,32.875,3,24292,2474857
50,4,0.999325,0.00780856,0.0341576,0.0110335,-0.722835,0.0458113,9.78495,0.378769,-0.105656,0.80713,-0.00722865,0.000448112,0.0978495,1,5.07497e-05,-1.51409e-06,4.85009e-06,0.0101499,-0.000302819,0.000970017,0.999325,0.00780856,0.0341576,0.0110335,-0.316975,-0.0172484,-0.862538,32.875,3,24292,2474857
51,1,0.999332,0.00784078,0.0340391,0.0107624,-0.677264,0.0196978,9.77561,0.415262,-0.133858,0.794743,-0.00677724,0.000186068,0.0977558,1,5.49668e-05,-2.34971e-05,1.20475e-05,0.0109934,-0.00469942,0.00240951,0.999332,0.00784078,0.0340391,0.0107624,-0.3154,-0.0192836,-0.85855,32.875,3,24294,2475057
51,2,0.999334,0.00786002,0.034013,0.0106072,-0.652118,0.0267763,9.79313,0.438286,-0.125054,0.808514,-0.00652538,0.000259498,0.0979311,1,4.13842e-05,-2.14261e-05,1.22507e-05,0.00827684,-0.00428522,0.00245014,0.999334,0.00786002,0.034013,0.0106072,-0.31536,-0.0202772,-0.857563,32.875,3,24295,2475157
51,3,0.999336,0.00788261,0.0340087,0.0104855,-0.644874,0.0164379,9.80826,0.459719,-0.134173,0.826467,-0.00645144,0.000156356,0.0980824,1,4.02108e-05,-1.37425e-05,1.04309e-05,0.00804215,-0.00274851,0.00208619,0.999336,0.00788261,0.0340087,0.0104855,-0.314504,-0.01828,-0.860552,32.875,3,24296,2475257
51,4,0.999336,0.00788261,0.0340087,0.0104855,-0.644874,0.0164379,9.80826,0.459719,-0.134173,0.826467,-0.00645144,0.000156356,0.0980824,1,4.02108e-05,-1.37425e-05,1.04309e-05,0.00804215,-0.00274851,0.00208619,0.999336,0.00788261,0.0340087,0.0104855,-0.314504,-0.01828,-0.860552,32.875,3,24296,2475257
52,1,0.99934,0.00786354,0.0339093,0.0103858,-0.652926,0.0128508,9.78319,0.438654,-0.139696,0.800503,-0.00653445,0.00011945,0.0978316,1,4.5402e-05,-2.64814e-05,1.33473e-05,0.00908041,-0.00529628,0.00266945,0.99934,0.00786354,0.0339093,0.0103858,-0.315058,-0.0153313,-0.861494,32.875,3,24298,2475457
52,2,0.999344,0.00786592,0.0338426,0.0102199,-0.664424,0.0161196,9.78158,0.433886,-0.132781,0.804359,-0.00664554,0.000151699,0.0978158,1,4.71418e-05,-6.63105e-06,2.06844e-05,0.00942836,-0.00132621,0.00413689,0.999344,0.00786592,0.0338426,0.0102199,-0.315955,-0.0177802,-0.860535,32.875,3,24299,2475557
52,3,0.999344,0.00786592,0.0338426,0.0102199,-0.664424,0.0161196,9.78158,0.433886,-0.132781,0.804359,-0.00664554,0.000151699,0.0978158,1,4.71418e-05,-6.63105e-06,2.06844e-05,0.00942836,-0.00132621,0.00413689,0.999344,0.00786592,0.0338426,0.0102199,-0.315955,-0.0177802,-0.860535,32.875,3,24299,2475557
52,4,0.999344,0.00786592,0.0338426,0.0102199,-0.664424,0.0161196,9.78158,0.433886,-0.132781,0.804359,-0.00664554,0.000151699,0.0978158,1,4.71418e-05,-6.63105e-06,2.06844e-05,0.00942836,-0.00132621,0.00413689,0.999344,0.00786592,0.0338426,0.0102199,-0.315955,-0.0177802,-0.860535,32.875,3,24299,2475557
53,1,0.999349,0.00794335,0.033778,0.00984361,-0.670127,0.0202329,9.79319,0.427899,-0.126637,0.811257,-0.00670381,0.000190495,0.0979317,1,6.04971e-05,-1.29798e-05,-1.14757e-06,0.0120994,-0.00259596,-0.000229515,0.999349,0.00794335,0.033778,0.00984361,-0.315368,-0.0197894,-0.857552,32.875,3,24301,2475757
53,2,0.99935,0.00797213,0.0337723,0.009738,-0.66513,0.0257314,9.78914,0.422987,-0.124921,0.797325,-0.00665329,0.000247325,0.0978913,1,5.02635e-05,-1.01179e-05,1.11572e-05,0.0100527,-0.00202359,0.00223144,0.99935,0.00797213,0.0337723,0.009738,-0.315442,-0.0197353,-0.86058,32.875,3,24302,2475857
53,3,0.99935,0.00797213,0.0337723,0.009738,-0.66513,0.0257314,9.78914,0.422987,-0.124921,0.797325,-0.00665329,0.000247325,0.0978913,1,5.02635e-05,-1.01179e-05,1.11572e-05,0.0100527,-0.00202359,0.00223144,0.99935,0.00797213,0.0337723,0.009738,-0.315442,-0.0197353,-0.86058,32.875,3,24302,2475857
53,4,0.99935,0.00797213,0.0337723,0.009738,-0.66513,0.0257314,9.78914,0.422987,-0.124921,0.797325,-0.00665329,0.000247325,0.0978913,1,5.02635e-05,-1.01179e-05,1.11572e-05,0.0100527,-0.00202359,0.00223144,0.99935,0.00797213,0.0337723,0.009738,-0.315442,-0.0197353,-0.86058,32.875,3,24302,2475857
54,1,0.999351,0.00796915,0.0337271,0.00980428,-0.668117,0.0229175,9.78778,0.420996,-0.128877,0.803466,-0.00668484,0.000220058,0.0978775,1,4.56703e-05,-1.87194e-05,1.32509e-05,0.00913406,-0.00374388,0.00265017,0.999351,0.00796915,0.0337271,0.00980428,-0.315511,-0.0177572,-0.862051,32.875,3,24304,2476057
54,2,0.999353,0.00797418,0.0336895,0.0097794,-0.680106,0.0242596,9.79227,0.407929,-0.141187,0.816859,-0.00680172,0.000232983,0.0979227,1,4.83227e-05,-3.34695e-06,1.09037e-05,0.00966453,-0.00066939,0.00218074,0.999353,0.00797418,0.0336895,0.0097794,-0.316473,-0.0177492,-0.862047,32.875,3,24305,2476157
54,3,0.999355,0.00797551,0.0336588,0.0096768,-0.713428,0.0434186,9.78282,0.382012,-0.122507,0.813085,-0.00713336,0.000427302,0.0978283,1,3.43844e-05,4.72734e-06,1.09207e-05,0.00687689,0.000945468,0.00218413,0.999355,0.00797551,0.0336588,0.0096768,-0.317855,-0.0177822,-0.859516,32.875,3,24306,2476257
54,4,0.999355,0.00797551,0.0336588,0.0096768,-0.713428,0.0434186,9.78282,0.382012,-0.122507,0.813085,-0.00713336,0.000427302,0.0978283,1,3.43844e-05,4.72734e-06,1.09207e-05,0.00687689,0.000945468,0.00218413,0.999355,0.00797551,0.0336588,0.0096768,-0.317855,-0.0177822,-0.859516,32.875,3,24306,2476257
55,1,0.99936,0.0080411,0.0336198,0.00919764,-0.737115,0.0293191,9.77471,0.363701,-0.116045,0.803071,-0.00737253,0.000282762,0.097747,1,5.21577e-05,-7.04095e-06,1.57936e-05,0.0104315,-0.00140819,0.00315873,0.99936,0.0080411,0.0336198,0.00919764,-0.315996,-0.0167866,-0.861522,32.875,3,24308,2476457
55,2,0.999362,0.00805462,0.0335823,0.00907564,-0.757162,0.0320791,9.79285,0.342386,-0.118809,0.815221,-0.00757096,0.000311346,0.0979286,1,4.69423e-05,3.4312e-06,1.66112e-05,0.00938846,0.000686241,0.00332225,0.999362,0.00805462,0.0335823,0.00907564,-0.316037,-0.0172384,-0.863553,32.875,3,24309,2476557
55,3,0.999362,0.00805462,0.0335823,0.00907564,-0.757162,0.0320791,9.79285,0.342386,-0.118809,0.815221,-0.00757096,0.000311346,0.0979286,1,4.69423e-05,3.4312e-06,1.66112e-05,0.00938846,0.000686241,0.00332225,0.999362,0.00805462,0.0335823,0.00907564,-0.316037,-0.0172384,-0.863553,32.875,3,24309,2476557
55,4,0.999362,0.00805462,0.0335823,0.00907564,-0.757162,0.0320791,9.79285,0.342386,-0.118809,0.815221,-0.00757096,0.000311346,0.0979286,1,4.69423e-05,3.4312e-06,1.66112e-05,0.00938846,0.000686241,0.00332225,0.999362,0.00805462,0.0335823,0.00907564,-0.316037,-0.0172384,-0.863553,32.875,3,24309,2476557
56,1,0.999364,0.00805345,0.0335081,0.0091074,-0.764597,0.0134505,9.77645,0.329658,-0.147389,0.804448,-0.00764545,0.000125542,0.0977646,1,4.52678e-05,2.65262e-06,7.29242e-06,0.00905357,0.000530523,0.00145848,0.999364,0.00805345,0.0335081,0.0091074,-0.316868,-0.0192536,-0.859553,32.875,3,24311,2476757
56,2,0.999366,0.00808693,0.0334883,0.00893706,-0.761773,0.0284598,9.7742,0.324273,-0.143987,0.798311,-0.00762118,0.000275265,0.0977418,1,4.71416e-05,-1.76152e-05,7.72264e-06,0.00942832,-0.00352305,0.00154453,0.999366,0.00808693,0.0334883,0.00893706,-0.316868,-0.0178083,-0.858511,32.875,3,24312,2476857
56,3,0.999366,0.00808693,0.0334883,0.00893706,-0.761773,0.0284598,9.7742,0.324273,-0.143987,0.798311,-0.00762118,0.000275265,0.0977418,1,4.71416e-05,-1.76152e-05,7.72264e-06,0.00942832,-0.00352305,0.00154453,0.999366,0.00808693,0.0334883,0.00893706,-0.316868,-0.0178083,-0.858511,32.875,3,24312,2476857
56,4,0.999366,0.00808693,0.0334883,0.00893706,-0.761773,0.0284598,9.7742,0.324273,-0.143987,0.798311,-0.00762118,0.000275265,0.0977418,1,4.71416e-05,-1.76152e-05,7.72264e-06,0.00942832,-0.00352305,0.00154453,0.999366,0.00808693,0.0334883,0.00893706,-0.316868,-0.0178083,-0.858511,32.875,3,24312,2476857
57,1,0.999371,0.00813781,0.0334231,0.00860645,-0.774413,0.0160887,9.77759,0.312457,-0.154876,0.809833,-0.00774995,0.000150627,0.0977755,1,5.21652e-05,-2.97708e-05,3.79232e-06,0.010433,-0.00595416,0.000758463,0.999371,0.00813781,0.0334231,0.00860645,-0.316901,-0.0173025,-0.85951,32.875,3,24314,2477057
57,2,0.999373,0.00817515,0.0334011,0.00839272,-0.751654,0.00275698,9.79359,0.341257,-0.166865,0.820636,-0.00751757,1.71295e-05,0.0979358,1,5.24075e-05,-5.23799e-06,1.16506e-05,0.0104815,-0.0010476,0.00233012,0.999373,0.00817515,0.0334011,0.00839272,-0.31505,-0.0172644,-0.862548,32.875,3,24315,2477157
57,3,0.999373,0.00818869,0.0333748,0.00845511,-0.746212,0.0256876,9.76729,0.339706,-0.144401,0.794948,-0.00746327,0.000245632,0.0976728,1,5.64904e-05,-5.871e-06,1.399e-05,0.0112981,-0.0011742,0.00279799,0.999373,0.00818869,0.0333748,0.00845511,-0.315071,-0.0167676,-0.863042,32.875,3,24316,2477257
57,4,0.999373,0.00818869,0.0333748,0.00845511,-0.746212,0.0256876,9.76729,0.339706,-0.144401,0.794948,-0.00746327,0.000245632,0.0976728,1,5.64904e-05,-5.871e-06,1.399e-05,0.0112981,-0.0011742,0.00279799,0.999373,0.00818869,0.0333748,0.00845511,-0.315071,-0.0167676,-0.863042,32.875,3,24316,2477257
58,1,0.999375,0.00821115,0.0333322,0.00839381,-0.698578,0.0251669,9.78426,0.382081,-0.144775,0.812097,-0.00698673,0.000243481,0.0978426,1,3.96147e-05,-4.78122e-06,3.12013e-05,0.00792294,-0.000956245,0.00624025,0.999375,0.00821115,0.0333322,0.00839381,-0.316432,-0.0187427,-0.861059,32.875,3,24318,2477457
58,2,0.999375,0.00823095,0.0333353,0.00836086,-0.702979,0.0240458,9.78326,0.373598,-0.152958,0.824788,-0.00702987,0.000231794,0.0978326,1,4.31967e-05,-4.04102e-07,1.51208e-05,0.00863933,-8.08204e-05,0.00302416,0.999375,0.00823095,0.0333353,0.00836086,-0.315446,-0.0187688,-0.860054,32.875,3,24319,2477557
58,3,0.999375,0.00823095,0.0333353,0.00836086,-0.702979,0.0240458,9.78326,0.373598,-0.152958,0.824788,-0.00702987,0.000231794,0.0978326,1,4.31967e-05,-4.04102e-07,1.51208e-05,0.00863933,-8.08204e-05,0.00302416,0.999375,0.00823095,0.0333353,0.00836086,-0.315446,-0.0187688,-0.860054,32.875,3,24319,2477557
58,4,0.999375,0.00823095,0.0333353,0.00836086,-0.702979,0.0240458,9.78326,0.373598,-0.152958,0.824788,-0.00702987,0.000231794,0.0978326,1,4.31967e-05,-4.04102e-07,1.51208e-05,0.00863933,-8.08204e-05,0.00302416,0.999375,0.00823095,0.0333353,0.00836086,-0.315446,-0.0187688,-0.860054,32.875,3,24319,2477557
59,1,0.999374,0.00822899,0.0333428,0.00848884,-0.724235,0.0062439,9.7819,0.358948,-0.161411,0.807324,-0.0072436,5.69044e-05,0.0978189,1,2.62503e-05,-6.37939e-06,2.75504e-05,0.00525006,-0.00127588,0.00551008,0.999374,0.00822899,0.0333428,0.00848884,-0.315026,-0.0187277,-0.86258,32.875,3,24321,2477757
59,2,0.999373,0.0082454,0.0333453,0.00856675,-0.729767,0.0235424,9.78616,0.351653,-0.141116,0.808789,-0.00729859,0.000225533,0.0978616,1,4.86673e-05,-4.61364e-06,2.50543e-05,0.00973346,-0.000922727,0.00501085,0.999373,0.0082454,0.0333453,0.00856675,-0.316013,-0.0172564,-0.862543,32.875,3,24322,2477857
59,3,0.999373,0.0082454,0.0333453,0.00856675,-0.729767,0.0235424,9.78616,0.351653,-0.141116,0.808789,-0.00729859,0.000225533,0.0978616,1,4.86673e-05,-4.61364e-06,2.50543e-05,0.00973346,-0.000922727,0.00501085,0.999373,0.0082454,0.0333453,0.00856675,-0.316013,-0.0172564,-0.862543,32.875,3,24322,2477857
59,4,0.999373,0.0082454,0.0333453,0.00856675,-0.729767,0.0235424,9.78616,0.351653,-0.141116,0.808789,-0.00729859,0.000225533,0.0978616,1,4.86673e-05,-4.61364e-06,2.50543e-05,0.00973346,-0.000922727,0.00501085,0.999373,0.0082454,0.0333453,0.00856675,-0.316013,-0.0172564,-0.862543,32.875,3,24322,2477857
60,1,0.999374,0.00829302,0.0333283,0.00853188,-0.695042,0.0271417,9.78325,0.385682,-0.137987,0.807406,-0.00695337,0.000262391,0.0978323,1,4.5374e-05,-1.50727e-05,1.0656e-05,0.00907481,-0.00301454,0.00213119,0.999374,0.00829302,0.0333283,0.00853188,-0.315881,-0.0178343,-0.857506,32.875,3,24324,2478057
60,2,0.999374,0.00832394,0.0333158,0.00845906,-0.693333,0.0344487,9.7772,0.384711,-0.129159,0.800601,-0.00693828,0.000335044,0.0977717,1,4.7151e-05,-2.52576e-05,1.60614e-05,0.0094302,-0.00505152,0.00321227,0.999374,0.00832394,0.0333158,0.00845906,-0.315412,-0.0178293,-0.858013,32.875,3,24325,2478157
60,3,0.999375,0.00835239,0.0333074,0.00841191,-0.666691,0.019544,9.78673,0.412959,-0.14486,0.804674,-0.00667096,0.000185788,0.097867,1,4.90714e-05,-2.06716e-05,3.56496e-06,0.00981428,-0.00413432,0.000712992,0.999375,0.00835239,0.0333074,0.00841191,-0.314541,-0.0182529,-0.862067,32.875,3,24326,2478257
60,4,0.999375,0.00835239,0.0333074,0.00841191,-0.666691,0.019544,9.78673,0.412959,-0.14486,0.804674,-0.00667096,0.000185788,0.097867,1,4.90714e-05,-2.06716e-05,3.56496e-06,0.00981428,-0.00413432,0.000712992,0.999375,0.00835239,0.0333074,0.00841191,-0.314541,-0.0182529,-0.862067,32.875,3,24326,2478257
61,1,0.999374,0.00837341,0.0333003,0.00851239,-0.678494,0.0129072,9.79455,0.405784,-0.14933,0.814995,-0.00678815,0.000119527,0.0979453,1,4.83505e-05,-1.64026e-05,5.41263e-06,0.0096701,-0.00328052,0.00108253,0.999374,0.00837341,0.0333003,0.00851239,-0.316001,-0.0187107,-0.86308,32.875,3,24328,2478457
61,2,0.999374,0.00839876,0.0332992,0.00854508,-0.683287,0.00268304,9.79313,0.40363,-0.16055,0.814217,-0.00683546,1.65492e-05,0.0979311,1,5.12171e-05,-1.32154e-05,1.8269e-05,0.0102434,-0.00264308,0.0036538,0.999374,0.00839876,0.0332992,0.00854508,-0.314997,-0.018267,-0.861055,32.875,3,24329,2478557
61,3,0.999374,0.00839876,0.0332992,0.00854508,-0.683287,0.00268304,9.79313,0.40363,-0.16055,0.814217,-0.00683546,1.65492e-05,0.0979311,1,5.12171e-05,-1.32154e-05,1.8269e-05,0.0102434,-0.00264308,0.0036538,0.999374,0.00839876,0.0332992,0.00854508,-0.314997,-0.018267,-0.861055,32.875,3,24329,2478557
61,4,0.999374,0.00839876,0.0332992,0.00854508,-0.683287,0.00268304,9.79313,0.40363,-0.16055,0.814217,-0.00683546,1.65492e-05,0.0979311,1,5.12171e-05,-1.32154e-05,1.8269e-05,0.0102434,-0.00264308,0.0036538,0.999374,0.00839876,0.0332992,0.00854508,-0.314997,-0.018267,-0.861055,32.875,3,24329,2478557
62,1,0.999373,0.0084485,0.033302,0.00850703,-0.706562,0.0140238,9.78524,0.36647,-0.154866,0.806026,-0.00706755,0.000130563,0.0978523,1,4.88833e-05,-9.86072e-06,7.66837e-06,0.00977666,-0.00197214,0.00153367,0.999373,0.0084485,0.033302,0.00850703,-0.314433,-0.0173676,-0.856997,32.875,3,24331,2478757
62,2,0.999373,0.00846891,0.0333126,0.00847804,-0.699147,0.0161952,9.78893,0.381015,-0.151884,0.811059,-0.00699184,0.000153818,0.0978893,1,4.04846e-05,-1.88119e-06,1.4862e-05,0.00809692,-0.000376238,0.0029724,0.999373,0.00846891,0.0333126,0.00847804,-0.314981,-0.0177972,-0.860034,32.875,3,24332,2478857
62,3,0.999373,0.00846891,0.0333126,0.00847804,-0.699147,0.0161952,9.78893,0.381015,-0.151884,0.811059,-0.00699184,0.000153818,0.0978893,1,4.04846e-05,-1.88119e-06,1.4862e-05,0.00809692,-0.000376238,0.0029724,0.999373,0.00846891,0.0333126,0.00847804,-0.314981,-0.0177972,-0.860034,32.875,3,24332,2478857
62,4,0.999373,0.00846891,0.0333126,0.00847804,-0.699147,0.0161952,9.78893,0.381015,-0.151884,0.811059,-0.00699184,0.000153818,0.0978893,1,4.04846e-05,-1.88119e-06,1.4862e-05,0.00809692,-0.000376238,0.0029724,0.999373,0.00846891,0.0333126,0.00847804,-0.314981,-0.0177972,-0.860034,32.875,3,24332,2478857
63,1,0.999372,0.00852166,0.0333243,0.00849735,-0.696053,0.0264166,9.79546,0.388564,-0.142751,0.822267,-0.00696329,0.000255049,0.0979544,1,4.54858e-05,-1.40479e-05,1.47672e-05,0.00909717,-0.00280958,0.00295344,0.999372,0.00852166,0.0333243,0.00849735,-0.316457,-0.0187247,-0.862069,32.875,3,24334,2479057
63,2,0.999372,0.00854822,0.0333272,0.00852057,-0.720386,0.0304777,9.7753,0.354645,-0.14542,0.801121,-0.00720598,0.000294631,0.0977528,1,5.03715e-05,-1.07961e-05,2.06717e-05,0.0100743,-0.00215921,0.00413433,0.999372,0.00854822,0.0333272,0.00852057,-0.315935,-0.0197223,-0.861083,32.875,3,24335,2479157
63,3,0.999371,0.00855364,0.0333363,0.00852671,-0.709455,0.0360769,9.79054,0.370548,-0.135716,0.81236,-0.00709565,0.000354927,0.0979053,1,2.89455e-05,-5.57302e-06,1.23325e-05,0.0057891,-0.0011146,0.00246651,0.999371,0.00855364,0.0333363,0.00852671,-0.315429,-0.018299,-0.859033,32.875,3,24336,2479257
63,4,0.999371,0.00855364,0.0333363,0.00852671,-0.709455,0.0360769,9.79054,0.370548,-0.135716,0.81236,-0.00709565,0.000354927,0.0979053,1,2.89455e-05,-5.57302e-06,1.23325e-05,0.0057891,-0.0011146,0.00246651,0.999371,0.00855364,0.0333363,0.00852671,-0.315429,-0.018299,-0.859033,32.875,3,24336,2479257
64,1,0.999371,0.00859788,0.0333283,0.00852358,-0.721959,0.0249102,9.78408,0.360529,-0.145952,0.805589,-0.00722222,0.000240127,0.0978406,1,4.55155e-05,-1.34131e-05,4.71818e-06,0.00910311,-0.00268261,0.000943635,0.999371,0.00859788,0.0333283,0.00852358,-0.315511,-0.0177572,-0.862051,32.875,3,24338,2479457
64,2,0.999371,0.00859788,0.0333283,0.00852358,-0.721959,0.0249102,9.78408,0.360529,-0.145952,0.805589,-0.00722222,0.000240127,0.0978406,1,4.55155e-05,-1.34131e-05,4.71818e-06,0.00910311,-0.00268261,0.000943635,0.999371,0.00859788,0.0333283,0.00852358,-0.315511,-0.0177572,-0.862051,32.875,3,24338,2479457
64,3,0.999371,0.00864539,0.0333271,0.00854074,-0.720566,0.034049,9.79026,0.360638,-0.139933,0.814044,-0.00720847,0.000326128,0.0979025,1,7.2388e-05,-1.43293e-05,1.30421e-05,0.0144776,-0.00286586,0.00260842,0.999371,0.00864539,0.0333271,0.00854074,-0.31552,-0.0187147,-0.863083,32.875,3,24339,2479557
64,4,0.999371,0.00864539,0.0333271,0.00854074,-0.720566,0.034049,9.79026,0.360638,-0.139933,0.814044,-0.00720847,0.000326128,0.0979025,1,7.2388e-05,-1.43293e-05,1.30421e-05,0.0144776,-0.00286586,0.00260842,0.999371,0.00864539,0.0333271,0.00854074,-0.31552,-0.0187147,-0.863083,32.875,3,24339,2479557
65,1,0.999369,0.00870797,0.0333384,0.00859554,-0.666183,0.0314471,9.80513,0.418775,-0.142511,0.818477,-0.00666371,0.000303982,0.0980512,1,5.26197e-05,-9.55313e-06,1.26962e-05,0.0105239,-0.00191063,0.00253925,0.999369,0.00870797,0.0333384,0.00859554,-0.315474,-0.0177842,-0.860537,32.875,3,24341,2479757
65,2,0.999368,0.00874607,0.0333511,0.00858578,-0.71679,0.0170456,9.79788,0.375545,-0.165094,0.825593,-0.00716792,0.000158456,0.0979788,1,6.10035e-05,-6.7417e-08,3.21668e-06,0.0122007,-1.34834e-05,0.000643336,0.999368,0.00874607,0.0333511,0.00858578,-0.315417,-0.018308,-0.858529,32.875,3,24342,2479857
65,3,0.999368,0.00874607,0.0333511,0.00858578,-0.71679,0.0170456,9.79788,0.375545,-0.165094,0.825593,-0.00716792,0.000158456,0.0979788,1,6.10035e-05,-6.7417e-08,3.21668e-06,0.0122007,-1.34834e-05,0.000643336,0.999368,0.00874607,0.0333511,0.00858578,-0.315417,-0.018308,-0.858529,32.875,3,24342,2479857
65,4,0.999368,0.00874607,0.0333511,0.00858578,-0.71679,0.0170456,9.79788,0.375545,-0.165094,0.825593,-0.00716792,0.000158456,0.0979788,1,6.10035e-05,-6.7417e-08,3.21668e-06,0.0122007,-1.34834e-05,0.000643336,0.999368,0.00874607,0.0333511,0.00858578,-0.315417,-0.018308,-0.858529,32.875,3,24342,2479857
66,1,0.999369,0.00880838,0.0333378,0.0085657,-0.734836,0.0368962,9.77886,0.344673,-0.14427,0.809153,-0.00735485,0.000358409,0.0977881,1,5.1921e-05,-3.30863e-05,2.71223e-05,0.0103842,-0.00661727,0.00542446,0.999369,0.00880838,0.0333378,0.0085657,-0.314981,-0.0177972,-0.860034,32.875,3,24344,2480057
66,2,0.999368,0.00882882,0.0333399,0.0085705,-0.711318,0.00319432,9.77398,0.367416,-0.179129,0.791013,-0.00711523,2.3243e-05,0.0977397,1,4.33345e-05,-1.04827e-05,1.61082e-05,0.00866689,-0.00209655,0.00322165,0.999368,0.00882882,0.0333399,0.0085705,-0.315474,-0.0177842,-0.860537,32.875,3,24345,2480157
66,3,0.999368,0.00884545,0.0333517,0.00858519,-0.70324,0.0129745,9.79334,0.382528,-0.162706,0.8152,-0.00703256,0.000121661,0.0979334,1,3.9868e-05,-7.65561e-07,1.95412e-05,0.00797359,-0.000153112,0.00390823,0.999368,0.00884545,0.0333517,0.00858519,-0.316469,-0.0172704,-0.861531,32.875,3,24346,2480257
66,4,0.999368,0.00884545,0.0333517,0.00858519,-0.70324,0.0129745,9.79334,0.382528,-0.162706,0.8152,-0.00703256,0.000121661,0.0979334,1,3.9868e-05,-7.65561e-07,1.95412e-05,0.00797359,-0.000153112,0.00390823,0.999368,0.00884545,0.0333517,0.00858519,-0.316469,-0.0172704,-0.861531,32.875,3,24346,2480257
67,1,0.999367,0.0088926,0.0333489,0.00861701,-0.718414,0.015649,9.78636,0.358089,-0.16505,0.809818,-0.00718768,0.000148481,0.0978633,1,3.9665e-05,-1.80267e-05,1.71291e-05,0.00793299,-0.00360534,0.00342581,0.999367,0.0088926,0.0333489,0.00861701,-0.313989,-0.0173445,-0.858514,32.875,3,24348,2480457
67,2,0.999367,0.0089177,0.0333494,0.00859633,-0.718209,0.0265828,9.7878,0.360738,-0.154114,0.811098,-0.00718432,0.000256482,0.0978779,1,4.71529e-05,-1.13956e-05,7.99076e-06,0.00943058,-0.00227912,0.00159815,0.999367,0.0089177,0.0333494,0.00859633,-0.313989,-0.0173445,-0.858514,32.875,3,24349,2480557
67,3,0.999367,0.0089177,0.0333494,0.00859633,-0.718209,0.0265828,9.7878,0.360738,-0.154114,0.811098,-0.00718432,0.000256482,0.0978779,1,4.71529e-05,-1.13956e-05,7.99076e-06,0.00943058,-0.00227912,0.00159815,0.999367,0.0089177,0.0333494,0.00859633,-0.313989,-0.0173445,-0.858514,32.875,3,24349,2480557
67,4,0.999367,0.0089177,0.0333494,0.00859633,-0.718209,0.0265828,9.7878,0.360738,-0.154114,0.811098,-0.00718432,0.000256482,0.0978779,1,4.71529e-05,-1.13956e-05,7.99076e-06,0.00943058,-0.00227912,0.00159815,0.999367,0.0089177,0.0333494,0.00859633,-0.313989,-0.0173445,-0.858514,32.875,3,24349,2480557
68,1,0.999366,0.008976,0.0333491,0.00859982,-0.696651,0.0220953,9.79034,0.384246,-0.160194,0.810889,-0.00697035,0.000210585,0.0979031,1,5.16324e-05,-1.95728e-05,1.84645e-05,0.0103265,-0.00391456,0.00369291,0.999366,0.008976,0.0333491,0.00859982,-0.314598,-0.0177291,-0.864075,32.875,3,24351,2480757
68,2,0.999366,0.00900294,0.033355,0.00862956,-0.709018,0.0175189,9.78732,0.374741,-0.163847,0.806236,-0.00709176,0.000164605,0.0978731,1,5.26513e-05,-8.01503e-06,1.96083e-05,0.0105303,-0.00160301,0.00392166,0.999366,0.00900294,0.033355,0.00862956,-0.31651,-0.0177221,-0.863561,32.875,3,24352,2480857
68,3,0.999366,0.00900294,0.033355,0.00862956,-0.709018,0.0175189,9.78732,0.374741,-0.163847,0.806236,-0.00709176,0.000164605,0.0978731,1,5.26513e-05,-8.01503e-06,1.96083e-05,0.0105303,-0.00160301,0.00392166,0.999366,0.00900294,0.033355,0.00862956,-0.31651,-0.0177221,-0.863561,32.875,3,24352,2480857
68,4,0.999366,0.00900294,0.033355,0.00862956,-0.709018,0.0175189,9.78732,0.374741,-0.163847,0.806236,-0.00709176,0.000164605,0.0978731,1,5.26513e-05,-8.01503e-06,1.96083e-05,0.0105303,-0.00160301,0.00392166,0.999366,0.00900294,0.033355,0.00862956,-0.31651,-0.0177221,-0.863561,32.875,3,24352,2480857
69,1,0.999365,0.00904904,0.0333636,0.00865805,-0.700644,0.0128588,9.80046,0.378684,-0.169131,0.822266,-0.00700772,0.00012074,0.0980045,1,3.94044e-05,-6.53404e-06,8.86592e-06,0.00788087,-0.00130681,0.00177318,0.999365,0.00904904,0.0333636,0.00865805,-0.315898,-0.018304,-0.858526,32.875,3,24354,2481057
69,2,0.999365,0.00907501,0.0333581,0.00864487,-0.687703,0.00913472,9.79016,0.395493,-0.174533,0.811685,-0.00688044,8.18946e-05,0.0979014,1,4.79873e-05,-1.73711e-05,4.10899e-06,0.00959746,-0.00347422,0.000821799,0.999365,0.00907501,0.0333581,0.00864487,-0.316876,-0.0173205,-0.8585,32.875,3,24355,2481157
69,3,0.999364,0.0091153,0.0333674,0.00865272,-0.699126,0.00434201,9.78442,0.381771,-0.180361,0.807657,-0.00699178,3.09847e-05,0.0978442,1,6.26407e-05,-2.66922e-06,1.26792e-05,0.0125281,-0.000533845,0.00253585,0.999364,0.0091153,0.0333674,0.00865272,-0.315507,-0.0172784,-0.861536,32.875,3,24356,2481257
69,4,0.999364,0.0091153,0.0333674,0.00865272,-0.699126,0.00434201,9.78442,0.381771,-0.180361,0.807657,-0.00699178,3.09847e-05,0.0978442,1,6.26407e-05,-2.66922e-06,1.26792e-05,0.0125281,-0.000533845,0.00253585,0.999364,0.0091153,0.0333674,0.00865272,-0.315507,-0.0172784,-0.861536,32.875,3,24356,2481257
70,1,0.999363,0.00918665,0.0333647,0.00867922,-0.678589,0.0228678,9.80006,0.404971,-0.169203,0.823436,-0.00678915,0.00021636,0.0980004,1,6.23763e-05,-1.66353e-05,6.83212e-06,0.0124753,-0.00332706,0.00136642,0.999363,0.00918665,0.0333647,0.00867922,-0.31651,-0.0177221,-0.863561,32.875,3,24358,2481457
70,2,0.999363,0.00920317,0.0333563,0.00870013,-0.69149,0.0307226,9.80361,0.391466,-0.158509,0.828287,-0.0069191,0.000298945,0.0980359,1,4.16208e-05,-2.13796e-05,8.74503e-06,0.00832416,-0.00427592,0.00174901,0.999363,0.00920317,0.0333563,0.00870013,-0.314985,-0.018276,-0.86055,32.875,3,24359,2481557
70,3,0.999363,0.00920317,0.0333563,0.00870013,-0.69149,0.0307226,9.80361,0.391466,-0.158509,0.828287,-0.0069191,0.000298945,0.0980359,1,4.16208e-05,-2.13796e-05,8.74503e-06,0.00832416,-0.00427592,0.00174901,0.999363,0.00920317,0.0333563,0.00870013,-0.314985,-0.018276,-0.86055,32.875,3,24359,2481557
70,4,0.999363,0.00920317,0.0333563,0.00870013,-0.69149,0.0307226,9.80361,0.391466,-0.158509,0.828287,-0.0069191,0.000298945,0.0980359,1,4.16208e-05,-2.13796e-05,8.74503e-06,0.00832416,-0.00427592,0.00174901,0.999363,0.00920317,0.0333563,0.00870013,-0.314985,-0.018276,-0.86055,32.875,3,24359,2481557
71,1,0.999362,0.0092568,0.0333714,0.00868496,-0.709359,0.0205551,9.78497,0.377203,-0.165218,0.800108,-0.00709606,0.000195427,0.0978496,1,5.04645e-05,-1.25508e-05,1.7455e-05,0.0100929,-0.00251016,0.003491,0.999362,0.0092568,0.0333714,0.00868496,-0.31591,-0.0168497,-0.857989,32.875,3,24361,2481757
71,2,0.999362,0.00927937,0.033371,0.00867769,-0.691018,0.034548,9.7938,0.392173,-0.15312,0.80927,-0.00691244,0.00033658,0.0979378,1,4.49493e-05,-1.14983e-05,6.92146e-06,0.00898987,-0.00229966,0.00138429,0.999362,0.00927937,0.033371,0.00867769,-0.314516,-0.0168257,-0.860015,32.875,3,24362,2481857
71,3,0.999362,0.00927937,0.033371,0.00867769,-0.691018,0.034548,9.7938,0.392173,-0.15312,0.80927,-0.00691244,0.00033658,0.0979378,1,4.49493e-05,-1.14983e-05,6.92146e-06,0.00898987,-0.00229966,0.00138429,0.999362,0.00927937,0.033371,0.00867769,-0.314516,-0.0168257,-0.860015,32.875,3,24362,2481857
71,4,0.999362,0.00927937,0.033371,0.00867769,-0.691018,0.034548,9.7938,0.392173,-0.15312,0.80927,-0.00691244,0.00033658,0.0979378,1,4.49493e-05,-1.14983e-05,6.92146e-06,0.00898987,-0.00229966,0.00138429,0.999362,0.00927937,0.033371,0.00867769,-0.314516,-0.0168257,-0.860015,32.875,3,24362,2481857
72,1,0.999362,0.00933041,0.0333519,0.00869596,-0.668552,0.0298793,9.78614,0.410306,-0.160386,0.81,-0.006689,0.000287719,0.0978612,1,5.58105e-05,-1.77564e-05,1.12636e-05,0.0111621,-0.00355127,0.00225271,0.999362,0.00933041,0.0333519,0.00869596,-0.316013,-0.0187017,-0.863585,32.875,3,24364,2482057
72,2,0.999362,0.00936716,0.0333581,0.00871114,-0.683494,0.0181778,9.78715,0.402141,-0.173557,0.81361,-0.00683618,0.000169525,0.0978715,1,6.16741e-05,-6.32179e-06,1.32173e-05,0.0123348,-0.00126436,0.00264346,0.999362,0.00936716,0.0333581,0.00871114,-0.314997,-0.018267,-0.861055,32.875,3,24365,2482157
72,3,0.999361,0.0093938,0.033366,0.00871304,-0.699839,0.0261525,9.78767,0.380516,-0.166639,0.814194,-0.00699907,0.000251496,0.0978767,1,5.00773e-05,-3.41741e-06,1.61227e-05,0.0100155,-0.000683483,0.00322455,0.999361,0.0093938,0.033366,0.00871304,-0.315404,-0.0183171,-0.858024,32.875,3,24366,2482257
72,4,0.999361,0.0093938,0.033366,0.00871304,-0.699839,0.0261525,9.78767,0.380516,-0.166639,0.814194,-0.00699907,0.000251496,0.0978767,1,5.00773e-05,-3.41741e-06,1.61227e-05,0.0100155,-0.000683483,0.00322455,0.999361,0.0093938,0.033366,0.00871304,-0.315404,-0.0183171,-0.858024,32.875,3,24366,2482257
73,1,0.999362,0.00942893,0.0333483,0.00868846,-0.686433,0.0206844,9.78992,0.397049,-0.172112,0.81419,-0.00686842,0.000197887,0.0978989,1,4.49922e-05,-2.08783e-05,1.07065e-05,0.00899844,-0.00417567,0.0021413,0.999362,0.00942893,0.0333483,0.00868846,-0.315466,-0.018272,-0.860548,32.875,3,24368,2482457
73,2,0.999361,0.00944903,0.0333518,0.00870542,-0.687235,0.020136,9.78347,0.396285,-0.168456,0.801958,-0.0068739,0.000192516,0.0978346,1,4.3437e-05,-7.86561e-06,2.51121e-05,0.0086874,-0.00157312,0.00502242,0.999361,0.00944903,0.0333518,0.00870542,-0.315951,-0.0187467,-0.861061,32.875,3,24369,2482557
73,3,0.999361,0.00944903,0.0333518,0.00870542,-0.687235,0.020136,9.78347,0.396285,-0.168456,0.801958,-0.0068739,0.000192516,0.0978346,1,4.3437e-05,-7.86561e-06,2.51121e-05,0.0086874,-0.00157312,0.00502242,0.999361,0.00944903,0.0333518,0.00870542,-0.315951,-0.0187467,-0.861061,32.875,3,24369,2482557
73,4,0.999361,0.00944903,0.0333518,0.00870542,-0.687235,0.020136,9.78347,0.396285,-0.168456,0.801958,-0.0068739,0.000192516,0.0978346,1,4.3437e-05,-7.86561e-06,2.51121e-05,0.0086874,-0.00157312,0.00502242,0.999361,0.00944903,0.0333518,0.00870542,-0.315951,-0.0187467,-0.861061,32.875,3,24369,2482557
74,1,0.99936,0.00950536,0.0333504,0.00873567,-0.728063,0.0165045,9.77523,0.356985,-0.173717,0.793977,-0.00728299,0.00015326,0.0977521,1,5.88335e-05,-1.20887e-05,1.94107e-05,0.0117667,-0.00241774,0.00388213,0.99936,0.00950536,0.0333504,0.00873567,-0.315926,-0.0173195,-0.859009,32.875,3,24371,2482757
74,2,0.99936,0.00953642,0.0333512,0.00873107,-0.715342,0.0412958,9.76959,0.364409,-0.154219,0.799146,-0.00715539,0.000402273,0.0976958,1,5.42198e-05,-1.00395e-05,6.34401e-06,0.010844,-0.0020079,0.0012688,0.99936,0.00953642,0.0333512,0.00873107,-0.315869,-0.0178433,-0.857001,32.875,3,24372,2482857
74,3,0.99936,0.00953642,0.0333512,0.00873107,-0.715342,0.0412958,9.76959,0.364409,-0.154219,0.799146,-0.00715539,0.000402273,0.0976958,1,5.42198e-05,-1.00395e-05,6.34401e-06,0.010844,-0.0020079,0.0012688,0.99936,0.00953642,0.0333512,0.00873107,-0.315869,-0.0178433,-0.857001,32.875,3,24372,2482857
74,4,0.99936,0.00953642,0.0333512,0.00873107,-0.715342,0.0412958,9.76959,0.364409,-0.154219,0.799146,-0.00715539,0.000402273,0.0976958,1,5.42198e-05,-1.00395e-05,6.34401e-06,0.010844,-0.0020079,0.0012688,0.99936,0.00953642,0.0333512,0.00873107,-0.315869,-0.0178433,-0.857001,32.875,3,24372,2482857
75,1,0.99936,0.00959327,0.0333462,0.00871,-0.701946,0.0275009,9.78668,0.383087,-0.16755,0.811519,-0.00702105,0.000265474,0.0978667,1,4.80692e-05,-8.0915e-06,8.98556e-06,0.00961385,-0.0016183,0.00179711,0.99936,0.00959327,0.0333462,0.00871,-0.317891,-0.0163099,-0.859988,32.875,3,24374,2483057
75,2,0.999359,0.00960522,0.0333583,0.008726,-0.719971,0.0137707,9.78973,0.364847,-0.186451,0.814272,-0.0071995,0.000130536,0.0978973,1,3.64501e-05,1.07298e-06,2.3919e-06,0.00729002,0.000214597,0.00047838,0.999359,0.00960522,0.0333583,0.008726,-0.318373,-0.0177512,-0.861028,32.875,3,24375,2483157
75,3,0.999359,0.00963753,0.0333627,0.00874005,-0.738617,0.0224404,9.7801,0.347058,-0.180399,0.801129,-0.00738755,0.000213174,0.097801,1,5.72577e-05,-7.09105e-06,2.03366e-06,0.0114515,-0.00141821,0.000406733,0.999359,0.00963753,0.0333627,0.00874005,-0.316453,-0.018246,-0.861553,32.875,3,24376,2483257
75,4,0.999359,0.00963753,0.0333627,0.00874005,-0.738617,0.0224404,9.7801,0.347058,-0.180399,0.801129,-0.00738755,0.000213174,0.097801,1,5.72577e-05,-7.09105e-06,2.03366e-06,0.0114515,-0.00141821,0.000406733,0.999359,0.00963753,0.0333627,0.00874005,-0.316453,-0.018246,-0.861553,32.875,3,24376,2483257
76,1,0.999359,0.00967961,0.0333502,0.00871487,-0.734522,0.0338409,9.77611,0.34413,-0.165172,0.799503,-0.00734912,0.000328946,0.0977609,1,4.86261e-05,-1.99659e-05,-3.02137e-06,0.00972521,-0.00399319,-0.000604274,0.999359,0.00967961,0.0333502,0.00871487,-0.314463,-0.0192736,-0.859565,32.875,3,24378,2483457
76,2,0.999359,0.00971381,0.0333451,0.00869363,-0.712356,0.0226216,9.78807,0.366712,-0.17837,0.811869,-0.00712665,0.000214921,0.0978805,1,5.72224e-05,-1.57633e-05,6.54722e-06,0.0114445,-0.00315265,0.00130944,0.999359,0.00971381,0.0333451,0.00869363,-0.312994,-0.0178583,-0.85752,32.875,3,24379,2483557
76,3,0.999359,0.00971381,0.0333451,0.00869363,-0.712356,0.0226216,9.78807,0.366712,-0.17837,0.811869,-0.00712665,0.000214921,0.0978805,1,5.72224e-05,-1.57633e-05,6.54722e-06,0.0114445,-0.00315265,0.00130944,0.999359,0.00971381,0.0333451,0.00869363,-0.312994,-0.0178583,-0.85752,32.875,3,24379,2483557
76,4,0.999359,0.00971381,0.0333451,0.00869363,-0.712356,0.0226216,9.78807,0.366712,-0.17837,0.811869,-0.00712665,0.000214921,0.0978805,1,5.72224e-05,-1.57633e-05,6.54722e-06,0.0114445,-0.00315265,0.00130944,0.999359,0.00971381,0.0333451,0.00869363,-0.312994,-0.0178583,-0.85752,32.875,3,24379,2483557
77,1,0.999359,0.00976299,0.0333351,0.00868011,-0.710559,0.00516192,9.78146,0.376666,-0.194029,0.804914,-0.00710887,4.13724e-05,0.0978144,1,5.08558e-05,-1.676e-05,2.09547e-05,0.0101712,-0.003352,0.00419094,0.999359,0.00976299,0.0333351,0.00868011,-0.315474,-0.0192295,-0.861579,32.875,3,24381,2483757
77,2,0.999359,0.00979606,0.0333318,0.00867939,-0.731578,0.0332972,9.77574,0.350048,-0.169142,0.798369,-0.00731867,0.000321626,0.0977572,1,5.76694e-05,-1.47763e-05,4.82254e-06,0.0115339,-0.00295525,0.000964507,0.999359,0.00979606,0.0333318,0.00867939,-0.314973,-0.0197303,-0.861088,32.875,3,24382,2483857
77,3,0.999359,0.00979606,0.0333318,0.00867939,-0.731578,0.0332972,9.77574,0.350048,-0.169142,0.798369,-0.00731867,0.000321626,0.0977572,1,5.76694e-05,-1.47763e-05,4.82254e-06,0.0115339,-0.00295525,0.000964507,0.999359,0.00979606,0.0333318,0.00867939,-0.314973,-0.0197303,-0.861088,32.875,3,24382,2483857
77,4,0.999359,0.00979606,0.0333318,0.00867939,-0.731578,0.0332972,9.77574,0.350048,-0.169142,0.798369,-0.00731867,0.000321626,0.0977572,1,5.76694e-05,-1.47763e-05,4.82254e-06,0.0115339,-0.00295525,0.000964507,0.999359,0.00979606,0.0333318,0.00867939,-0.314973,-0.0197303,-0.861088,32.875,3,24382,2483857
78,1,0.999358,0.00982799,0.0333345,0.00868756,-0.71182,0.0173545,9.78869,0.372421,-0.190978,0.812006,-0.00711922,0.000165902,0.0978868,1,3.8715e-05,-5.21527e-06,4.47078e-06,0.007743,-0.00104305,0.000894156,0.999358,0.00982799,0.0333345,0.00868756,-0.314462,-0.016383,-0.85748,32.875,3,24384,2484057
78,2,0.999358,0.00985735,0.0333323,0.0086794,-0.72328,0.0184756,9.7803,0.358444,-0.188809,0.802356,-0.0072352,0.000174424,0.0978028,1,5.23533e-05,-1.22379e-05,6.26963e-06,0.0104707,-0.00244758,0.00125393,0.999358,0.00985735,0.0333323,0.0086794,-0.313484,-0.0173665,-0.857507,32.875,3,24385,2484157
78,3,0.999358,0.00988671,0.033341,0.00867891,-0.720577,0.0205329,9.79082,0.360757,-0.186222,0.810982,-0.007206,0.000194859,0.0979082,1,5.18468e-05,-1.16971e-06,2.2033e-05,0.0103694,-0.000233942,0.00440661,0.999358,0.00988671,0.033341,0.00867891,-0.313994,-0.0178233,-0.859029,32.875,3,24386,2484257
78,4,0.999358,0.00988671,0.033341,0.00867891,-0.720577,0.0205329,9.79082,0.360757,-0.186222,0.810982,-0.007206,0.000194859,0.0979082,1,5.18468e-05,-1.16971e-06,2.2033e-05,0.0103694,-0.000233942,0.00440661,0.999358,0.00988671,0.033341,0.00867891,-0.313994,-0.0178233,-0.859029,32.875,3,24386,2484257
79,1,0.999357,0.00993715,0.0333325,0.00869274,-0.702869,0.0298274,9.7935,0.371245,-0.170884,0.808984,-0.00703177,0.000288365,0.0979348,1,5.00678e-05,-1.56651e-05,7.28874e-06,0.0100136,-0.00313302,0.00145775,0.999357,0.00993715,0.0333325,0.00869274,-0.31501,-0.0182579,-0.86156,32.875,3,24388,2484457
79,2,0.999357,0.00996196,0.0333303,0.0087077,-0.707499,0.018551,9.78767,0.371694,-0.187637,0.812714,-0.00707759,0.000175678,0.0978765,1,4.91907e-05,-1.32641e-05,1.42619e-05,0.00983814,-0.00265282,0.00285237,0.999357,0.00996196,0.0333303,0.0087077,-0.314524,-0.0177832,-0.861046,32.875,3,24389,2484557
79,3,0.999357,0.00996196,0.0333303,0.0087077,-0.707499,0.018551,9.78767,0.371694,-0.187637,0.812714,-0.00707759,0.000175678,0.0978765,1,4.91907e-05,-1.32641e-05,1.42619e-05,0.00983814,-0.00265282,0.00285237,0.999357,0.00996196,0.0333303,0.0087077,-0.314524,-0.0177832,-0.861046,32.875,3,24389,2484557
79,4,0.999357,0.00996196,0.0333303,0.0087077,-0.707499,0.018551,9.78767,0.371694,-0.187637,0.812714,-0.00707759,0.000175678,0.0978765,1,4.91907e-05,-1.32641e-05,1.42619e-05,0.00983814,-0.00265282,0.00285237,0.999357,0.00996196,0.0333303,0.0087077,-0.314524,-0.0177832,-0.861046,32.875,3,24389,2484557
80,1,0.999357,0.0100063,0.0333127,0.00872544,-0.686662,0.010063,9.78847,0.396483,-0.196961,0.807552,-0.00687055,9.19587e-05,0.0978845,1,4.29788e-05,-2.0042e-05,1.87325e-05,0.00859577,-0.00400839,0.00374649,0.999357,0.0100063,0.0333127,0.00872544,-0.31494,-0.0187908,-0.859047,32.875,3,24391,2484757
80,2,0.999357,0.0100217,0.0333015,0.00874768,-0.671542,0.0205143,9.77591,0.405916,-0.182838,0.793844,-0.00671963,0.00019725,0.0977589,1,3.78321e-05,-2.14636e-05,3.68784e-05,0.00756641,-0.00429272,0.00737568,0.999357,0.0100217,0.0333015,0.00874768,-0.314968,-0.0178062,-0.85953,32.875,3,24392,2484857
80,3,0.999357,0.0100217,0.0333015,0.00874768,-0.671542,0.0205143,9.77591,0.405916,-0.182838,0.793844,-0.00671963,0.00019725,0.0977589,1,3.78321e-05,-2.14636e-05,3.68784e-05,0.00756641,-0.00429272,0.00737568,0.999357,0.0100217,0.0333015,0.00874768,-0.314968,-0.0178062,-0.85953,32.875,3,24392,2484857
80,4,0.999357,0.0100217,0.0333015,0.00874768,-0.671542,0.0205143,9.77591,0.405916,-0.182838,0.793844,-0.00671963,0.00019725,0.0977589,1,3.78321e-05,-2.14636e-05,3.68784e-05,0.00756641,-0.00429272,0.00737568,0.999357,0.0100217,0.0333015,0.00874768,-0.314968,-0.0178062,-0.85953,32.875,3,24392,2484857
81,1,0.999356,0.0100563,0.0333111,0.00875594,-0.686142,0.0167865,9.79836,0.395965,-0.184794,0.817373,-0.00686263,0.000159188,0.0979835,1,4.36213e-05,-6.18397e-06,9.33372e-06,0.00872426,-0.00123679,0.00186674,0.999356,0.0100563,0.0333111,0.00875594,-0.315063,-0.0172554,-0.863052,32.875,3,24394,2485057
81,2,0.999355,0.0100764,0.0333331,0.00877646,-0.683611,0.0275085,9.80317,0.396946,-0.177899,0.822707,-0.00683393,0.000266014,0.0980319,1,4.53927e-05,1.11888e-05,1.25597e-05,0.00907855,0.00223776,0.00251194,0.999355,0.0100764,0.0333331,0.00877646,-0.314508,-0.0187587,-0.861068,32.875,3,24395,2485157
81,3,0.999354,0.0101073,0.0333441,0.00876898,-0.670384,0.0302498,9.78717,0.410948,-0.171403,0.808399,-0.0067037,0.000291646,0.0978717,1,5.51268e-05,7.65386e-07,4.59698e-06,0.0110254,0.000153077,0.000919396,0.999354,0.0101073,0.0333441,0.00876898,-0.31494,-0.0187908,-0.859047,32.875,3,24396,2485257
81,4,0.999354,0.0101073,0.0333441,0.00876898,-0.670384,0.0302498,9.78717,0.410948,-0.171403,0.808399,-0.0067037,0.000291646,0.0978717,1,5.51268e-05,7.65386e-07,4.59698e-06,0.0110254,0.000153077,0.000919396,0.999354,0.0101073,0.0333441,0.00876898,-0.31494,-0.0187908,-0.859047,32.875,3,24396,2485257
82,1,0.999353,0.0101431,0.0333709,0.00879062,-0.734041,0.0230202,9.77769,0.343055,-0.185594,0.803915,-0.00733931,0.000223384,0.097777,1,3.3496e-05,5.67907e-06,1.82111e-05,0.0066992,0.00113581,0.00364222,0.999353,0.0101431,0.0333709,0.00879062,-0.315495,-0.0187327,-0.862073,32.875,3,24398,2485457
82,2,0.999353,0.0101648,0.0333674,0.0088052,-0.711064,0.0341946,9.78986,0.376018,-0.172061,0.81175,-0.00711338,0.000332721,0.0978984,1,4.6136e-05,-1.39395e-05,1.34538e-05,0.00922721,-0.00278789,0.00269076,0.999353,0.0101648,0.0333674,0.0088052,-0.31501,-0.0182579,-0.86156,32.875,3,24399,2485557
82,3,0.999353,0.0101648,0.0333674,0.0088052,-0.711064,0.0341946,9.78986,0.376018,-0.172061,0.81175,-0.00711338,0.000332721,0.0978984,1,4.6136e-05,-1.39395e-05,1.34538e-05,0.00922721,-0.00278789,0.00269076,0.999353,0.0101648,0.0333674,0.0088052,-0.31501,-0.0182579,-0.86156,32.875,3,24399,2485557
82,4,0.999353,0.0101648,0.0333674,0.0088052,-0.711064,0.0341946,9.78986,0.376018,-0.172061,0.81175,-0.00711338,0.000332721,0.0978984,1,4.6136e-05,-1.39395e-05,1.34538e-05,0.00922721,-0.00278789,0.00269076,0.999353,0.0101648,0.0333674,0.0088052,-0.31501,-0.0182579,-0.86156,32.875,3,24399,2485557
83,1,0.999352,0.0102139,0.0333545,0.00885859,-0.664903,0.0131029,9.79581,0.415632,-0.190333,0.808635,-0.00665169,0.000121333,0.097958,1,4.82276e-05,-1.35545e-05,1.85891e-05,0.00964553,-0.0027109,0.00371782,0.999352,0.0102139,0.0333545,0.00885859,-0.315474,-0.0177842,-0.860537,32.875,3,24401,2485757
83,2,0.999351,0.010236,0.0333664,0.00888189,-0.677665,0.0118479,9.79825,0.405003,-0.201431,0.825604,-0.00677619,0.000109213,0.0979826,1,4.52772e-05,2.37859e-06,2.90162e-05,0.00905544,0.000475718,0.00580325,0.999351,0.010236,0.0333664,0.00888189,-0.315412,-0.0178293,-0.858013,32.875,3,24402,2485857
83,3,0.999351,0.010236,0.0333664,0.00888189,-0.677665,0.0118479,9.79825,0.405003,-0.201431,0.825604,-0.00677619,0.000109213,0.0979826,1,4.52772e-05,2.37859e-06,2.90162e-05,0.00905544,0.000475718,0.00580325,0.999351,0.010236,0.0333664,0.00888189,-0.315412,-0.0178293,-0.858013,32.875,3,24402,2485857
83,4,0.999351,0.010236,0.0333664,0.00888189,-0.677665,0.0118479,9.79825,0.405003,-0.201431,0.825604,-0.00677619,0.000109213,0.0979826,1,4.52772e-05,2.37859e-06,2.90162e-05,0.00905544,0.000475718,0.00580325,0.999351,0.010236,0.0333664,0.00888189,-0.315412,-0.0178293,-0.858013,32.875,3,24402,2485857
84,1,0.999351,0.010283,0.0333787,0.0088725,-0.709326,0.00523198,9.77738,0.371203,-0.206943,0.796554,-0.00709459,4.28172e-05,0.0977737,1,4.78401e-05,-6.80273e-06,1.0403e-05,0.00956802,-0.00136055,0.0020806,0.999351,0.010283,0.0333787,0.0088725,-0.316432,-0.0172975,-0.860017,32.875,3,24404,2486057
84,2,0.99935,0.0102968,0.0333888,0.00887377,-0.695111,0.0277359,9.79783,0.387982,-0.190919,0.819063,-0.00695103,0.000269853,0.0979784,1,3.83016e-05,3.68878e-07,7.2617e-08,0.00766032,7.37756e-05,1.45234e-05,0.99935,0.0102968,0.0333888,0.00887377,-0.315499,-0.0177662,-0.861547,32.875,3,24405,2486157
84,3,0.999349,0.0103219,0.0333933,0.00888932,-0.699546,0.036705,9.79794,0.384968,-0.179854,0.821318,-0.00699655,0.000357144,0.0979793,1,4.92614e-05,-5.52792e-06,1.80695e-05,0.00985229,-0.00110558,0.00361389,0.999349,0.0103219,0.0333933,0.00888932,-0.315519,-0.0172694,-0.862041,32.875,3,24406,2486257
84,4,0.999349,0.0103219,0.0333933,0.00888932,-0.699546,0.036705,9.79794,0.384968,-0.179854,0.821318,-0.00699655,0.000357144,0.0979793,1,4.92614e-05,-5.52792e-06,1.80695e-05,0.00985229,-0.00110558,0.00361389,0.999349,0.0103219,0.0333933,0.00888932,-0.315519,-0.0172694,-0.862041,32.875,3,24406,2486257
85,1,0.999348,0.0103667,0.0334059,0.00890806,-0.724068,0.0181432,9.78165,0.366022,-0.195781,0.800555,-0.00724162,0.000170299,0.0978165,1,5.64232e-05,-4.78493e-06,6.54748e-06,0.0112846,-0.000956985,0.0013095,0.999348,0.0103667,0.0334059,0.00890806,-0.317398,-0.0163229,-0.859486,32.875,3,24408,2486457
85,2,0.999348,0.0103667,0.0334059,0.00890806,-0.724068,0.0181432,9.78165,0.366022,-0.195781,0.800555,-0.00724162,0.000170299,0.0978165,1,5.64232e-05,-4.78493e-06,6.54748e-06,0.0112846,-0.000956985,0.0013095,0.999348,0.0103667,0.0334059,0.00890806,-0.317398,-0.0163229,-0.859486,32.875,3,24408,2486457
85,3,0.999348,0.0103895,0.0334079,0.00892214,-0.727363,0.0127362,9.7718,0.357031,-0.199363,0.795455,-0.00727512,0.000118079,0.0977179,1,4.68083e-05,-7.60724e-06,9.25162e-06,0.00936166,-0.00152145,0.00185032,0.999348,0.0103895,0.0334079,0.00892214,-0.31542,-0.0173415,-0.858002,32.875,3,24409,2486557
85,4,0.999348,0.0103895,0.0334079,0.00892214,-0.727363,0.0127362,9.7718,0.357031,-0.199363,0.795455,-0.00727512,0.000118079,0.0977179,1,4.68083e-05,-7.60724e-06,9.25162e-06,0.00936166,-0.00152145,0.00185032,0.999348,0.0103895,0.0334079,0.00892214,-0.31542,-0.0173415,-0.858002,32.875,3,24409,2486557
86,1,0.999348,0.010448,0.0333985,0.00889588,-0.716804,0.0308277,9.7919,0.367657,-0.183042,0.815557,-0.00717177,0.000296106,0.0979188,1,6.26204e-05,-1.90564e-05,-6.41848e-06,0.0125241,-0.00381128,-0.0012837,0.999348,0.010448,0.0333985,0.00889588,-0.315951,-0.0187467,-0.861061,32.875,3,24411,2486757
86,2,0.999347,0.0104649,0.0334079,0.00890429,-0.713508,0.0163018,9.7853,0.367768,-0.200413,0.807653,-0.00713515,0.000154758,0.097853,1,4.12091e-05,-3.11204e-07,1.36477e-05,0.00824183,-6.22409e-05,0.00272954,0.999347,0.0104649,0.0334079,0.00890429,-0.317929,-0.0177282,-0.862545,32.875,3,24412,2486857
86,3,0.999347,0.0104649,0.0334079,0.00890429,-0.713508,0.0163018,9.7853,0.367768,-0.200413,0.807653,-0.00713515,0.000154758,0.097853,1,4.12091e-05,-3.11204e-07,1.36477e-05,0.00824183,-6.22409e-05,0.00272954,0.999347,0.0104649,0.0334079,0.00890429,-0.317929,-0.0177282,-0.862545,32.875,3,24412,2486857
86,4,0.999347,0.0104649,0.0334079,0.00890429,-0.713508,0.0163018,9.7853,0.367768,-0.200413,0.807653,-0.00713515,0.000154758,0.097853,1,4.12091e-05,-3.11204e-07,1.36477e-05,0.00824183,-6.22409e-05,0.00272954,0.999347,0.0104649,0.0334079,0.00890429,-0.317929,-0.0177282,-0.862545,32.875,3,24412,2486857
87,1,0.999347,0.0104981,0.0334086,0.00895772,-0.726184,0.0255627,9.78004,0.359548,-0.189129,0.800985,-0.00726204,0.000246245,0.0978004,1,4.63817e-05,-9.55558e-07,2.13218e-05,0.00927634,-0.000191112,0.00426436,0.999347,0.0104981,0.0334086,0.00895772,-0.315449,-0.0178022,-0.859527,32.875,3,24414,2487057
87,2,0.999347,0.0105129,0.033402,0.00894503,-0.715941,0.0303826,9.77798,0.366568,-0.18397,0.799492,-0.00716248,0.000296299,0.0977796,1,3.79625e-05,-1.56574e-05,7.17876e-06,0.00759251,-0.00313149,0.00143575,0.999347,0.0105129,0.033402,0.00894503,-0.315401,-0.0207289,-0.859593,32.875,3,24415,2487157
87,3,0.999347,0.0105529,0.0333967,0.00892919,-0.71762,0.0151455,9.79755,0.364365,-0.201806,0.822302,-0.0071791,0.000138902,0.0979753,1,6.32647e-05,-1.47747e-05,1.08646e-05,0.012653,-0.00295494,0.00217292,0.999347,0.0105529,0.0333967,0.00892919,-0.31598,-0.0192075,-0.862586,32.875,3,24416,2487257
87,4,0.999347,0.0105529,0.0333967,0.00892919,-0.71762,0.0151455,9.79755,0.364365,-0.201806,0.822302,-0.0071791,0.000138902,0.0979753,1,6.32647e-05,-1.47747e-05,1.08646e-05,0.012653,-0.00295494,0.00217292,0.999347,0.0105529,0.0333967,0.00892919,-0.31598,-0.0192075,-0.862586,32.875,3,24416,2487257
88,1,0.999346,0.0106044,0.0333954,0.00897374,-0.745289,0.0181568,9.78928,0.340822,-0.198061,0.812855,-0.0074552,0.000171984,0.0978926,1,4.75161e-05,-1.17627e-05,1.87976e-05,0.00950322,-0.00235254,0.00375952,0.999346,0.0106044,0.0333954,0.00897374,-0.314545,-0.0187317,-0.862583,32.875,3,24418,2487457
88,2,0.999345,0.0106366,0.0334017,0.00896204,-0.737146,0.0413742,9.77109,0.34806,-0.17866,0.795447,-0.00737213,0.000402614,0.0977109,1,5.67604e-05,-3.39014e-06,2.47126e-06,0.0113521,-0.000678028,0.000494252,0.999345,0.0106366,0.0334017,0.00896204,-0.313965,-0.0188078,-0.858546,32.875,3,24419,2487557
88,3,0.999345,0.0106366,0.0334017,0.00896204,-0.737146,0.0413742,9.77109,0.34806,-0.17866,0.795447,-0.00737213,0.000402614,0.0977109,1,5.67604e-05,-3.39014e-06,2.47126e-06,0.0113521,-0.000678028,0.000494252,0.999345,0.0106366,0.0334017,0.00896204,-0.313965,-0.0188078,-0.858546,32.875,3,24419,2487557
88,4,0.999345,0.0106366,0.0334017,0.00896204,-0.737146,0.0413742,9.77109,0.34806,-0.17866,0.795447,-0.00737213,0.000402614,0.0977109,1,5.67604e-05,-3.39014e-06,2.47126e-06,0.0113521,-0.000678028,0.000494252,0.999345,0.0106366,0.0334017,0.00896204,-0.313965,-0.0188078,-0.858546,32.875,3,24419,2487557
89,1,0.999346,0.0106774,0.0333829,0.00892876,-0.677619,0.025229,9.79872,0.406118,-0.196483,0.819484,-0.00677984,0.000243118,0.097987,1,4.56013e-05,-1.8574e-05,1.7416e-05,0.00912026,-0.00371481,0.0034832,0.999346,0.0106774,0.0333829,0.00892876,-0.313495,-0.0159122,-0.856969,32.875,3,24421,2487757
89,2,0.999346,0.0107019,0.0333763,0.00891357,-0.68753,0.0156705,9.78106,0.399455,-0.211188,0.804439,-0.00687827,0.00014734,0.0978104,1,4.71956e-05,-1.52123e-05,9.67101e-06,0.00943913,-0.00304246,0.0019342,0.999346,0.0107019,0.0333763,0.00891357,-0.315412,-0.0178293,-0.858013,32.875,3,24422,2487857
89,3,0.999346,0.0107019,0.0333763,0.00891357,-0.68753,0.0156705,9.78106,0.399455,-0.211188,0.804439,-0.00687827,0.00014734,0.0978104,1,4.71956e-05,-1.52123e-05,9.67101e-06,0.00943913,-0.00304246,0.0019342,0.999346,0.0107019,0.0333763,0.00891357,-0.315412,-0.0178293,-0.858013,32.875,3,24422,2487857
89,4,0.999346,0.0107019,0.0333763,0.00891357,-0.68753,0.0156705,9.78106,0.399455,-0.211188,0.804439,-0.00687827,0.00014734,0.0978104,1,4.71956e-05,-1.52123e-05,9.67101e-06,0.00943913,-0.00304246,0.0019342,0.999346,0.0107019,0.0333763,0.00891357,-0.315412,-0.0178293,-0.858013,32.875,3,24422,2487857
90,1,0.999345,0.010761,0.0333656,0.00893802,-0.72086,0.0194954,9.78234,0.357201,-0.201974,0.80226,-0.00721165,0.000182912,0.0978232,1,5.99138e-05,-1.55757e-05,2.2156e-05,0.0119828,-0.00311515,0.0044312,0.999345,0.010761,0.0333656,0.00893802,-0.316004,-0.0177442,-0.862554,32.875,3,24424,2488057
90,2,0.999345,0.0107844,0.0333649,0.00896226,-0.713697,0.0202383,9.78162,0.359384,-0.201168,0.805364,-0.00713901,0.000192712,0.097816,1,4.81159e-05,-1.03956e-05,1.80487e-05,0.00962318,-0.00207912,0.00360974,0.999345,0.0107844,0.0333649,0.00896226,-0.315947,-0.018268,-0.860546,32.875,3,24425,2488157
90,3,0.999345,0.0108161,0.0333573,0.00895654,-0.630257,0.0150757,9.80543,0.463313,-0.208267,0.821336,-0.00630592,0.000139765,0.0980541,1,5.60525e-05,-1.7062e-05,-3.11599e-08,0.0112105,-0.0034124,-6.23197e-06,0.999345,0.0108161,0.0333573,0.00895654,-0.314972,-0.0168397,-0.859003,32.875,3,24426,2488257
90,4,0.999345,0.0108161,0.0333573,0.00895654,-0.630257,0.0150757,9.80543,0.463313,-0.208267,0.821336,-0.00630592,0.000139765,0.0980541,1,5.60525e-05,-1.7062e-05,-3.11599e-08,0.0112105,-0.0034124,-6.23197e-06,0.999345,0.0108161,0.0333573,0.00895654,-0.314972,-0.0168397,-0.859003,32.875,3,24426,2488257
91,1,0.999344,0.0108773,0.0333448,0.00896993,-0.73001,0.0266513,9.78483,0.355398,-0.202639,0.807098,-0.00730437,0.000254838,0.097848,1,5.95339e-05,-2.17817e-05,1.6726e-06,0.0119068,-0.00435635,0.00033452,0.999344,0.0108773,0.0333448,0.00896993,-0.316896,-0.0168237,-0.858994,32.875,3,24428,2488457
91,2,0.999344,0.0109068,0.0333477,0.00898894,-0.738944,0.0279918,9.74148,0.336832,-0.204156,0.767854,-0.00739064,0.000269264,0.0974147,1,5.31618e-05,-6.07003e-06,2.00401e-05,0.0106324,-0.00121401,0.00400802,0.999344,0.0109068,0.0333477,0.00898894,-0.315026,-0.0172824,-0.861538,32.875,3,24429,2488557
91,3,0.999344,0.0109068,0.0333477,0.00898894,-0.738944,0.0279918,9.74148,0.336832,-0.204156,0.767854,-0.00739064,0.000269264,0.0974147,1,5.31618e-05,-6.07003e-06,2.00401e-05,0.0106324,-0.00121401,0.00400802,0.999344,0.0109068,0.0333477,0.00898894,-0.315026,-0.0172824,-0.861538,32.875,3,24429,2488557
91,4,0.999344,0.0109068,0.0333477,0.00898894,-0.738944,0.0279918,9.74148,0.336832,-0.204156,0.767854,-0.00739064,0.000269264,0.0974147,1,5.31618e-05,-6.07003e-06,2.00401e-05,0.0106324,-0.00121401,0.00400802,0.999344,0.0109068,0.0333477,0.00898894,-0.315026,-0.0172824,-0.861538,32.875,3,24429,2488557
92,1,0.999344,0.0109562,0.0333182,0.00900079,-0.622903,0.016009,9.8193,0.462223,-0.211841,0.832316,-0.00623311,0.000149006,0.0981928,1,5.58942e-05,-2.07443e-05,8.67614e-06,0.0111788,-0.00414887,0.00173523,0.999344,0.0109562,0.0333182,0.00900079,-0.316404,-0.018282,-0.859534,32.875,3,24431,2488757
92,2,0.999344,0.0109784,0.0333246,0.00900567,-0.64736,0.0148177,9.80147,0.436398,-0.215328,0.822113,-0.00647407,0.000138996,0.0980147,1,4.60316e-05,-2.39527e-06,1.22152e-05,0.00920631,-0.000479054,0.00244304,0.999344,0.0109784,0.0333246,0.00900567,-0.315873,-0.0183221,-0.857517,32.875,3,24432,2488857
92,3,0.999344,0.0109784,0.0333246,0.00900567,-0.64736,0.0148177,9.80147,0.436398,-0.215328,0.822113,-0.00647407,0.000138996,0.0980147,1,4.60316e-05,-2.39527e-06,1.22152e-05,0.00920631,-0.000479054,0.00244304,0.999344,0.0109784,0.0333246,0.00900567,-0.315873,-0.0183221,-0.857517,32.875,3,24432,2488857
92,4,0.999344,0.0109784,0.0333246,0.00900567,-0.64736,0.0148177,9.80147,0.436398,-0.215328,0.822113,-0.00647407,0.000138996,0.0980147,1,4.60316e-05,-2.39527e-06,1.22152e-05,0.00920631,-0.000479054,0.00244304,0.999344,0.0109784,0.0333246,0.00900567,-0.315873,-0.0183221,-0.857517,32.875,3,24432,2488857
93,1,0.999343,0.0110171,0.0333463,0.00900141,-0.739906,0.0310107,9.76864,0.336584,-0.197576,0.793253,-0.00739822,0.000302042,0.0976865,1,4.0032e-05,4.35126e-06,1.6475e-05,0.00800641,0.000870253,0.00329499,0.999343,0.0110171,0.0333463,0.00900141,-0.314981,-0.0177972,-0.860034,32.875,3,24434,2489057
93,2,0.999342,0.0110438,0.0333514,0.00899577,-0.712587,0.0340194,9.77527,0.367066,-0.193246,0.794213,-0.00712664,0.000330137,0.0977527,1,5.13643e-05,-3.98398e-06,1.06525e-06,0.0102729,-0.000796797,0.00021305,0.999342,0.0110438,0.0333514,0.00899577,-0.315528,-0.0182269,-0.863072,32.875,3,24435,2489157
93,3,0.999342,0.0110621,0.0333455,0.00899707,-0.690424,0.00601228,9.78371,0.388481,-0.223673,0.801722,-0.00690722,5.16354e-05,0.0978369,1,4.35281e-05,-1.52682e-05,-2.16465e-06,0.00870562,-0.00305364,-0.000432931,0.999342,0.0110621,0.0333455,0.00899707,-0.315511,-0.0192024,-0.863094,32.875,3,24436,2489257
93,4,0.999342,0.0110621,0.0333455,0.00899707,-0.690424,0.00601228,9.78371,0.388481,-0.223673,0.801722,-0.00690722,5.16354e-05,0.0978369,1,4.35281e-05,-1.52682e-05,-2.16465e-06,0.00870562,-0.00305364,-0.000432931,0.999342,0.0110621,0.0333455,0.00899707,-0.315511,-0.0192024,-0.863094,32.875,3,24436,2489257
94,1,0.999342,0.0111064,0.0333405,0.00901266,-0.700108,0.0260517,9.79209,0.386823,-0.204166,0.809579,-0.00700341,0.000251251,0.0979208,1,4.64246e-05,-1.1835e-05,1.23976e-05,0.00928493,-0.002367,0.00247952,0.999342,0.0111064,0.0333405,0.00901266,-0.315367,-0.0183441,-0.856509,32.875,3,24438,2489457
94,2,0.999342,0.0111184,0.0333328,0.00901284,-0.718356,0.0362783,9.77466,0.367101,-0.194486,0.795252,-0.00718662,0.000355706,0.0977464,1,3.46899e-05,-1.55827e-05,2.0506e-05,0.00693798,-0.00311654,0.0041012,0.999342,0.0111184,0.0333328,0.00901284,-0.314397,-0.0188399,-0.856525,32.875,3,24439,2489557
94,3,0.999342,0.0111184,0.0333328,0.00901284,-0.718356,0.0362783,9.77466,0.367101,-0.194486,0.795252,-0.00718662,0.000355706,0.0977464,1,3.46899e-05,-1.55827e-05,2.0506e-05,0.00693798,-0.00311654,0.0041012,0.999342,0.0111184,0.0333328,0.00901284,-0.314397,-0.0188399,-0.856525,32.875,3,24439,2489557
94,4,0.999342,0.0111184,0.0333328,0.00901284,-0.718356,0.0362783,9.77466,0.367101,-0.194486,0.795252,-0.00718662,0.000355706,0.0977464,1,3.46899e-05,-1.55827e-05,2.0506e-05,0.00693798,-0.00311654,0.0041012,0.999342,0.0111184,0.0333328,0.00901284,-0.314397,-0.0188399,-0.856525,32.875,3,24439,2489557
95,1,0.999342,0.0111646,0.033314,0.00901609,-0.710809,0.00623566,9.78928,0.363722,-0.221711,0.811749,-0.00711202,5.2959e-05,0.0978925,1,4.68998e-05,-2.00696e-05,1.51435e-05,0.00937995,-0.00401391,0.00302871,0.999342,0.0111646,0.033314,0.00901609,-0.31556,-0.0162758,-0.863028,32.875,3,24441,2489757
95,2,0.999342,0.0111833,0.0333001,0.00903541,-0.67625,-0.00485628,9.79201,0.407909,-0.238088,0.810278,-0.00676695,-5.72796e-05,0.0979198,1,4.40198e-05,-2.27301e-05,7.09087e-06,0.00880397,-0.00454601,0.00141817,0.999342,0.0111833,0.0333001,0.00903541,-0.316987,-0.0157941,-0.862001,32.875,3,24442,2489857
95,3,0.999342,0.0111833,0.0333001,0.00903541,-0.67625,-0.00485628,9.79201,0.407909,-0.238088,0.810278,-0.00676695,-5.72796e-05,0.0979198,1,4.40198e-05,-2.27301e-05,7.09087e-06,0.00880397,-0.00454601,0.00141817,0.999342,0.0111833,0.0333001,0.00903541,-0.316987,-0.0157941,-0.862001,32.875,3,24442,2489857
95,4,0.999342,0.0111833,0.0333001,0.00903541,-0.67625,-0.00485628,9.79201,0.407909,-0.238088,0.810278,-0.00676695,-5.72796e-05,0.0979198,1,4.40198e-05,-2.27301e-05,7.09087e-06,0.00880397,-0.00454601,0.00141817,0.999342,0.0111833,0.0333001,0.00903541,-0.316987,-0.0157941,-0.862001,32.875,3,24442,2489857
96,1,0.999341,0.0112282,0.0333075,0.00906308,-0.717928,0.0122547,9.78461,0.362855,-0.221745,0.805917,-0.00717918,0.000113333,0.0978462,1,4.64245e-05,4.99164e-07,8.98748e-06,0.00928491,9.98329e-05,0.0017975,0.999341,0.0112282,0.0333075,0.00906308,-0.316864,-0.0187748,-0.859037,32.875,3,24444,2490057
96,2,0.999341,0.0112463,0.0333108,0.00906428,-0.73971,0.0193357,9.77499,0.34282,-0.215608,0.798227,-0.00739809,0.000184978,0.0977499,1,4.2107e-05,-5.03651e-06,9.94653e-06,0.00842139,-0.0010073,0.00198931,0.999341,0.0112463,0.0333108,0.00906428,-0.3154,-0.0192836,-0.85855,32.875,3,24445,2490157
96,3,0.99934,0.0112715,0.0333062,0.00906555,-0.743719,0.056382,9.76686,0.342634,-0.180697,0.788443,-0.00743973,0.00055406,0.0976685,1,4.8265e-05,-1.2878e-05,2.23665e-05,0.009653,-0.0025756,0.00447331,0.99934,0.0112715,0.0333062,0.00906555,-0.315478,-0.018263,-0.861053,32.875,3,24446,2490257
96,4,0.99934,0.0112715,0.0333062,0.00906555,-0.743719,0.056382,9.76686,0.342634,-0.180697,0.788443,-0.00743973,0.00055406,0.0976685,1,4.8265e-05,-1.2878e-05,2.23665e-05,0.009653,-0.0025756,0.00447331,0.99934,0.0112715,0.0333062,0.00906555,-0.315478,-0.018263,-0.861053,32.875,3,24446,2490257
97,1,0.999341,0.0113009,0.0332846,0.00908074,-0.764784,0.0126529,9.76866,0.317368,-0.223407,0.791005,-0.00765143,0.000117531,0.0976864,1,4.45248e-05,-1.83784e-05,1.95766e-05,0.00890495,-0.00367568,0.00391532,0.999341,0.0113009,0.0332846,0.00908074,-0.314655,-0.0143147,-0.863999,32.875,3,24448,2490457
97,2,0.99934,0.0113193,0.0332843,0.00909564,-0.731814,0.023431,9.78753,0.344413,-0.214903,0.810177,-0.00731993,0.000225626,0.0978752,1,4.37051e-05,-9.14187e-06,8.75085e-06,0.00874102,-0.00182837,0.00175017,0.99934,0.0113193,0.0332843,0.00909564,-0.314071,-0.0153574,-0.860489,32.875,3,24449,2490557
97,3,0.99934,0.0113193,0.0332843,0.00909564,-0.731814,0.023431,9.78753,0.344413,-0.214903,0.810177,-0.00731993,0.000225626,0.0978752,1,4.37051e-05,-9.14187e-06,8.75085e-06,0.00874102,-0.00182837,0.00175017,0.99934,0.0113193,0.0332843,0.00909564,-0.314071,-0.0153574,-0.860489,32.875,3,24449,2490557
97,4,0.99934,0.0113193,0.0332843,0.00909564,-0.731814,0.023431,9.78753,0.344413,-0.214903,0.810177,-0.00731993,0.000225626,0.0978752,1,4.37051e-05,-9.14187e-06,8.75085e-06,0.00874102,-0.00182837,0.00175017,0.99934,0.0113193,0.0332843,0.00909564,-0.314071,-0.0153574,-0.860489,32.875,3,24449,2490557
98,1,0.99934,0.0113639,0.0332787,0.0091102,-0.650851,-0.0115446,9.8094,0.431488,-0.248566,0.827161,-0.00651006,-0.000126292,0.0980939,1,5.42905e-05,-7.90122e-06,1.49388e-05,0.0108581,-0.00158024,0.00298776,0.99934,0.0113639,0.0332787,0.0091102,-0.315984,-0.0167957,-0.861018,32.875,3,24451,2490757
98,2,0.99934,0.0113863,0.0332827,0.00910732,-0.652814,0.00152299,9.79494,0.43311,-0.242689,0.814791,-0.00652908,5.98627e-06,0.0979494,1,4.70764e-05,-4.80759e-06,1.64147e-06,0.00941529,-0.000961517,0.000328294,0.99934,0.0113863,0.0332827,0.00910732,-0.316946,-0.0182329,-0.862055,32.875,3,24452,2490857
98,3,0.99934,0.0113863,0.0332827,0.00910732,-0.652814,0.00152299,9.79494,0.43311,-0.242689,0.814791,-0.00652908,5.98627e-06,0.0979494,1,4.70764e-05,-4.80759e-06,1.64147e-06,0.00941529,-0.000961517,0.000328294,0.99934,0.0113863,0.0332827,0.00910732,-0.316946,-0.0182329,-0.862055,32.875,3,24452,2490857
98,4,0.99934,0.0113863,0.0332827,0.00910732,-0.652814,0.00152299,9.79494,0.43311,-0.242689,0.814791,-0.00652908,5.98627e-06,0.0979494,1,4.70764e-05,-4.80759e-06,1.64147e-06,0.00941529,-0.000961517,0.000328294,0.99934,0.0113863,0.0332827,0.00910732,-0.316946,-0.0182329,-0.862055,32.875,3,24452,2490857
99,1,0.999338,0.0114452,0.0333257,0.00910546,-0.722479,0.0487061,9.77036,0.359894,-0.191298,0.791902,-0.00722145,0.000475828,0.0977039,1,5.7295e-05,1.70859e-05,2.59816e-06,0.011459,0.00341718,0.000519632,0.999338,0.0114452,0.0333257,0.00910546,-0.31651,-0.0177221,-0.863561,32.875,3,24454,2491057
99,2,0.999337,0.0114702,0.0333306,0.0091235,-0.71248,0.0503759,9.7727,0.370602,-0.187752,0.799498,-0.00712549,0.000493841,0.097727,1,4.92595e-05,-3.4216e-06,2.03848e-05,0.0098519,-0.00068432,0.00407697,0.999337,0.0114702,0.0333306,0.0091235,-0.315478,-0.018263,-0.861053,32.875,3,24455,2491157
99,3,0.999336,0.0114922,0.0333419,0.00912284,-0.695445,0.0166063,9.78518,0.387449,-0.218552,0.805964,-0.00695384,0.000156929,0.0978519,1,4.56889e-05,3.13655e-06,1.38131e-05,0.00913778,0.000627309,0.00276263,0.999336,0.0114922,0.0333419,0.00912284,-0.314907,-0.0192966,-0.858048,32.875,3,24456,2491257
99,4,0.999336,0.0114922,0.0333419,0.00912284,-0.695445,0.0166063,9.78518,0.387449,-0.218552,0.805964,-0.00695384,0.000156929,0.0978519,1,4.56889e-05,3.13655e-06,1.38131e-05,0.00913778,0.000627309,0.00276263,0.999336,0.0114922,0.0333419,0.00912284,-0.314907,-0.0192966,-0.858048,32.875,3,24456,2491257
100,1,0.999336,0.0115385,0.0333456,0.00910937,-0.662453,-0.0147849,9.803,0.425612,-0.25329,0.823529,-0.00662558,-0.000156717,0.0980299,1,4.36826e-05,-5.41874e-06,2.29145e-05,0.00873652,-0.00108375,0.00458291,0.999336,0.0115385,0.0333456,0.00910937,-0.314031,-0.0192415,-0.861586,32.875,3,24458,2491457
