frame_id,imu_idx,quat_w,quat_x,quat_y,quat_z,accel_x,accel_y,accel_z,free_accel_x,free_accel_y,free_accel_z,delta_v_x,delta_v_y,delta_v_z,delta_q_w,delta_q_x,delta_q_y,delta_q_z,rate_x,rate_y,rate_z,quat_w,quat_x,quat_y,quat_z,mag_x,mag_y,mag_z,temperature,status_byte,packet_counter,time_fine
1,1,0.999285,0.00281408,0.0377143,0.000118403,-0.875015,0.156649,9.74994,0.290302,0.170783,0.790979,-0.00875051,0.00155765,0.0974995,1,4.38988e-05,-1.6336e-06,1.55402e-05,0.00877976,-0.000326721,0.00310804,0.999285,0.00281408,0.0377143,0.000118403,-0.301133,-0.0778017,-0.866988,32.875,1,35722,3619329
1,2,0.999285,0.00286454,0.0376946,0.000134359,-0.797683,0.128454,9.8011,0.362093,0.160658,0.821544,-0.00797991,0.00127389,0.0980109,1,5.34041e-05,-1.55423e-05,1.13747e-05,0.0106808,-0.00310846,0.00227493,0.999285,0.00286454,0.0376946,0.000134359,-0.302099,-0.0753819,-0.865414,32.875,1,35723,3619429
1,3,0.999286,0.00297431,0.0376771,0.00015993,-0.859885,0.148879,9.7552,0.343518,0.166223,0.796029,-0.00860188,0.00147818,0.0975519,1,5.31877e-05,-1.52926e-05,1.35214e-05,0.0106375,-0.00305852,0.00270428,0.999286,0.00297431,0.0376771,0.00015993,-0.302306,-0.0790857,-0.876607,32.875,1,35725,3619629
1,4,0.999286,0.00307054,0.0376478,0.000197165,-0.852637,0.178934,9.76558,0.342447,0.181545,0.816495,-0.00852791,0.00178074,0.0976558,1,4.22876e-05,-7.55274e-06,1.96587e-05,0.00845752,-0.00151055,0.00393175,0.999286,0.00307054,0.0376478,0.000197165,-0.300793,-0.0796306,-0.874101,32.875,1,35727,3619829
2,1,0.999287,0.0031619,0.0376203,0.000226465,-0.810635,0.159055,9.77259,0.343702,0.148168,0.82286,-0.00810633,0.00158176,0.097726,1,4.33866e-05,4.41492e-07,1.92021e-05,0.00867733,8.82983e-05,0.00384042,0.999287,0.0031619,0.0376203,0.000226465,-0.301602,-0.0778067,-0.866481,32.875,1,35729,3620029
2,2,0.999288,0.00326418,0.0375872,0.000261522,-0.776428,0.130522,9.79147,0.338366,0.134361,0.805426,-0.00776658,0.00129473,0.0979146,1,5.21262e-05,-1.14704e-05,1.81941e-05,0.0104252,-0.00229408,0.00363882,0.999288,0.00326418,0.0375872,0.000261522,-0.301746,-0.0786651,-0.873065,32.875,1,35731,3620229
2,3,0.999288,0.00332392,0.0375816,0.000274948,-0.816508,0.171535,9.75951,0.334287,0.15432,0.795505,-0.00816641,0.00170367,0.0975952,1,5.86045e-05,-6.54513e-06,1.51897e-05,0.0117209,-0.00130903,0.00303794,0.999288,0.00332392,0.0375816,0.000274948,-0.299884,-0.078636,-0.875598,32.875,1,35732,3620329
2,4,0.999289,0.00339306,0.0375483,0.000281797,-0.753063,0.154539,9.80238,0.422564,0.193326,0.829398,-0.00753575,0.00153825,0.0980235,1,3.69531e-05,-2.62425e-05,-6.98889e-06,0.00739063,-0.0052485,-0.00139778,0.999289,0.00339306,0.0375483,0.000281797,-0.300628,-0.0807143,-0.868065,32.875,1,35734,3620529
3,1,0.99929,0.00350238,0.0375108,0.000293399,-0.849709,0.179838,9.76457,0.318054,0.223223,0.798649,-0.00850152,0.00178793,0.0976455,1,5.31227e-05,-2.26106e-05,4.21459e-06,0.0106245,-0.00452213,0.000842918,0.99929,0.00350238,0.0375108,0.000293399,-0.302149,-0.0782364,-0.869518,32.875,1,35736,3620729
3,2,0.99929,0.00360023,0.0374937,0.000297143,-0.799378,0.168802,9.77158,0.363643,0.17553,0.808139,-0.0079956,0.00167843,0.0977159,1,4.90099e-05,-9.30225e-06,7.15251e-07,0.00980198,-0.00186045,0.00014305,0.99929,0.00360023,0.0374937,0.000297143,-0.303333,-0.0780661,-0.8786,32.875,1,35738,3620929
3,3,0.999291,0.00370265,0.0374752,0.000313602,-0.774901,0.140729,9.78848,0.37952,0.139616,0.830103,-0.00775155,0.00139776,0.0978847,1,4.76296e-05,-1.2776e-05,1.36143e-05,0.00952592,-0.00255519,0.00272285,0.999291,0.00370265,0.0374752,0.000313602,-0.302569,-0.0797228,-0.868034,32.875,1,35740,3621129
3,4,0.99929,0.00380762,0.037478,0.00034717,-0.795371,0.133244,9.75803,0.368378,0.13261,0.784732,-0.00795651,0.00132225,0.0975802,1,5.09453e-05,-1.41189e-05,1.5318e-05,0.0101891,-0.00282378,0.00306361,0.99929,0.00380762,0.037478,0.00034717,-0.301661,-0.0816187,-0.871616,32.875,1,35742,3621329
4,1,0.99929,0.00386212,0.0374678,0.000363236,-0.760631,0.169557,9.75675,0.37581,0.165282,0.787437,-0.00760882,0.00168527,0.0975675,1,5.14184e-05,-1.25971e-05,1.75961e-05,0.0102837,-0.00251942,0.00351921,0.99929,0.00386212,0.0374678,0.000363236,-0.30282,-0.0800212,-0.878646,32.875,1,35743,3621429
4,2,0.99929,0.00397816,0.0374698,0.00038702,-0.756729,0.147182,9.78501,0.369378,0.131128,0.830341,-0.00756727,0.00145971,0.0978503,1,6.09941e-05,2.59105e-07,1.14498e-05,0.0121988,5.18209e-05,0.00228995,0.99929,0.00397816,0.0374698,0.00038702,-0.299822,-0.0786811,-0.873074,32.875,1,35745,3621629
4,3,0.99929,0.00405386,0.0374586,0.000410444,-0.781955,0.139194,9.78853,0.350598,0.130515,0.81594,-0.00782336,0.00138603,0.0978851,1,2.8992e-05,-1.91984e-05,1.5257e-05,0.0057984,-0.00383968,0.00305141,0.99929,0.00405386,0.0374586,0.000410444,-0.300171,-0.0778097,-0.866992,32.875,1,35747,3621829
4,4,0.99929,0.00413992,0.0374547,0.000417952,-0.792123,0.119625,9.7891,0.38341,0.116574,0.818605,-0.00792348,0.00118825,0.0978909,1,4.04809e-05,-1.14065e-05,4.50603e-06,0.00809617,-0.00228131,0.000901206,0.99929,0.00413992,0.0374547,0.000417952,-0.302273,-0.0795915,-0.875608,32.875,1,35749,3622029
5,1,0.999289,0.00424263,0.0374546,0.000442941,-0.82856,0.151051,9.76146,0.390568,0.142404,0.812303,-0.00828724,0.00150197,0.0976146,1,4.28074e-05,-8.24015e-06,1.07251e-05,0.00856147,-0.00164803,0.00214502,0.999289,0.00424263,0.0374546,0.000442941,-0.302211,-0.0781913,-0.872042,32.875,1,35751,3622229
5,2,0.99929,0.00430263,0.0374393,0.000448222,-0.720319,0.14316,9.80613,0.38717,0.128054,0.821841,-0.00720693,0.00142066,0.0980611,1,5.5328e-05,-1.89915e-05,6.32744e-06,0.0110656,-0.00379831,0.00126549,0.99929,0.00430263,0.0374393,0.000448222,-0.301089,-0.0797618,-0.866526,32.875,1,35752,3622329
5,3,0.999288,0.00439416,0.0374669,0.000475544,-0.883955,0.127941,9.75111,0.316494,0.11135,0.800552,-0.00884023,0.00127434,0.0975111,1,2.4911e-05,-3.34733e-06,1.20012e-05,0.0049822,-0.000669466,0.00240025,0.999288,0.00439416,0.0374669,0.000475544,-0.301195,-0.0792019,-0.870554,32.875,1,35754,3622529
5,4,0.999288,0.00449357,0.0374692,0.000486182,-0.812249,0.147955,9.78573,0.353199,0.146551,0.827648,-0.00812162,0.0014709,0.0978575,1,4.38727e-05,4.47594e-06,3.69758e-06,0.00877454,0.000895187,0.000739515,0.999288,0.00449357,0.0374692,0.000486182,-0.300374,-0.0810348,-0.877669,32.875,1,35756,3622729
6,1,0.999288,0.00461475,0.0374522,0.000506927,-0.819033,0.149493,9.78378,0.310621,0.124052,0.807277,-0.00819458,0.00148168,0.0978376,1,6.62991e-05,-2.14559e-05,1.65363e-05,0.0132598,-0.00429117,0.00330725,0.999288,0.00461475,0.0374522,0.000506927,-0.298716,-0.079276,-0.867537,32.875,1,35758,3622929
6,2,0.999288,0.00470183,0.0374336,0.000549284,-0.874644,0.128221,9.78974,0.320608,0.0963076,0.82666,-0.00875062,0.00127321,0.0978972,1,4.43906e-05,-2.11058e-05,1.752e-05,0.00887811,-0.00422116,0.00350401,0.999288,0.00470183,0.0374336,0.000549284,-0.301135,-0.0821376,-0.870115,32.875,1,35760,3623129
6,3,0.999287,0.00480243,0.0374444,0.00055094,-0.89577,0.152167,9.75783,0.325726,0.111478,0.822374,-0.0089562,0.00151509,0.0975785,1,3.41405e-05,7.61067e-06,-4.79611e-06,0.00682809,0.00152213,-0.000959222,0.999287,0.00480243,0.0374444,0.00055094,-0.301857,-0.0785839,-0.877608,32.875,1,35762,3623329
6,4,0.999287,0.00486023,0.0374293,0.000571147,-0.812223,0.106959,9.7888,0.359957,0.0916156,0.827587,-0.00812667,0.00105944,0.0978877,1,5.0122e-05,-2.24655e-05,2.06735e-05,0.0100244,-0.0044931,0.0041347,0.999287,0.00486023,0.0374293,0.000571147,-0.300772,-0.0786821,-0.872565,32.875,1,35763,3623429
7,1,0.999288,0.00496304,0.0374098,0.000590467,-0.836503,0.164831,9.75077,0.330501,0.0921379,0.792625,-0.00836786,0.0016412,0.0975076,1,3.63364e-05,-1.44635e-05,1.71953e-06,0.00726729,-0.0028927,0.000343906,0.999288,0.00496304,0.0374098,0.000590467,-0.301072,-0.0792921,-0.865506,32.875,1,35765,3623629
7,2,0.999287,0.00505917,0.0374084,0.000622677,-0.798986,0.13756,9.79405,0.363113,0.0991738,0.834681,-0.00799181,0.00136913,0.0979404,1,3.13875e-05,-9.66708e-06,2.00625e-05,0.0062775,-0.00193342,0.0040125,0.999287,0.00505917,0.0374084,0.000622677,-0.301809,-0.0800653,-0.876631,32.875,1,35767,3623829
7,3,0.999287,0.00517017,0.0374016,0.000644203,-0.813611,0.146596,9.78609,0.356084,0.1309,0.823042,-0.00813973,0.00145538,0.0978607,1,5.29755e-05,-1.82914e-05,1.29228e-05,0.0105951,-0.00365828,0.00258455,0.999287,0.00517017,0.0374016,0.000644203,-0.301758,-0.0772108,-0.872527,32.875,1,35769,3624029
7,4,0.999286,0.00529143,0.0374008,0.000688541,-0.794794,0.151656,9.77717,0.357922,0.0900294,0.827093,-0.00795011,0.00150754,0.0977717,1,4.3951e-05,-1.0669e-05,2.65708e-05,0.00879019,-0.0021338,0.00531416,0.999286,0.00529143,0.0374008,0.000688541,-0.300143,-0.0787943,-0.866509,32.875,1,35771,3624229
8,1,0.999286,0.00534597,0.0373954,0.000712427,-0.84639,0.12661,9.75967,0.353372,0.0775313,0.801699,-0.00846687,0.00125687,0.0975966,1,4.51897e-05,-1.49175e-05,2.3693e-05,0.00903795,-0.00298351,0.00473859,0.999286,0.00534597,0.0373954,0.000712427,-0.301669,-0.0796857,-0.870563,32.875,1,35772,3624329
8,2,0.999285,0.00544418,0.0374076,0.000730772,-0.842673,0.1666,9.76337,0.337863,0.111316,0.817941,-0.00842713,0.00166014,0.0976338,1,2.93068e-05,-1.93727e-06,8.45088e-06,0.00586136,-0.000387453,0.00169018,0.999285,0.00544418,0.0374076,0.000730772,-0.302816,-0.0795425,-0.87813,32.875,1,35774,3624529
8,3,0.999285,0.00553692,0.0373887,0.000771306,-0.770976,0.159979,9.77981,0.367436,0.107199,0.82508,-0.00771247,0.00159062,0.097798,1,4.53592e-05,-1.35359e-05,1.90119e-05,0.00907184,-0.00270717,0.00380238,0.999285,0.00553692,0.0373887,0.000771306,-0.302108,-0.07923,-0.86853,32.875,1,35776,3624729
8,4,0.999286,0.0056186,0.0373626,0.00079833,-0.742307,0.150201,9.78055,0.409068,0.0998962,0.820919,-0.00742805,0.00149402,0.0978052,1,3.99183e-05,-2.52557e-05,1.23867e-05,0.00798365,-0.00505114,0.00247734,0.999286,0.0056186,0.0373626,0.00079833,-0.303598,-0.0815937,-0.872111,32.875,1,35778,3624929
9,1,0.999285,0.0057354,0.0373588,0.000807889,-0.772295,0.145248,9.77256,0.388234,0.0934515,0.815048,-0.00772419,0.00144469,0.0977257,1,3.93689e-05,-6.24732e-06,5.82978e-06,0.00787378,-0.00124946,0.00116596,0.999285,0.0057354,0.0373588,0.000807889,-0.301874,-0.0790537,-0.878629,32.875,1,35780,3625129
9,2,0.999285,0.00579557,0.0373615,0.000815561,-0.779147,0.131754,9.7881,0.379263,0.0804451,0.825286,-0.00779482,0.00130875,0.0978809,1,4.43125e-05,-1.70373e-05,7.79126e-06,0.00886249,-0.00340747,0.00155825,0.999285,0.00579557,0.0373615,0.000815561,-0.302712,-0.0776906,-0.872534,32.875,1,35781,3625229
9,3,0.999284,0.00590529,0.0373489,0.000857692,-0.7885,0.141088,9.7784,0.368208,0.0860602,0.826192,-0.0078888,0.00140089,0.0977839,1,5.03566e-05,-1.92709e-05,8.65211e-06,0.0100713,-0.00385418,0.00173042,0.999284,0.00590529,0.0373489,0.000857692,-0.302561,-0.0787653,-0.867003,32.875,1,35783,3625429
9,4,0.999284,0.00600379,0.0373519,0.000878902,-0.801622,0.159221,9.78238,0.359597,0.101519,0.811821,-0.00801758,0.00158584,0.0978238,1,3.17115e-05,-6.79871e-06,1.03581e-05,0.00634231,-0.00135974,0.00207162,0.999284,0.00600379,0.0373519,0.000878902,-0.303713,-0.0805461,-0.876128,32.875,1,35785,3625629
10,1,0.999282,0.00611762,0.0373878,0.000872756,-0.776461,0.149276,9.77364,0.385328,0.0834995,0.811385,-0.00776472,0.0014856,0.0977365,1,3.64017e-05,-5.15831e-07,2.69497e-06,0.00728033,-0.000103166,0.000538994,0.999282,0.00611762,0.0373878,0.000872756,-0.302725,-0.0776815,-0.873038,32.875,1,35787,3625829
10,2,0.999281,0.00622176,0.0373863,0.000933803,-0.791582,0.139317,9.77672,0.364555,0.0724775,0.822959,-0.00791795,0.00138266,0.0977671,1,5.26832e-05,-1.0708e-05,1.28034e-05,0.0105366,-0.00214161,0.00256069,0.999281,0.00622176,0.0373863,0.000933803,-0.300616,-0.079278,-0.866518,32.875,1,35789,3626029
10,3,0.999281,0.0063265,0.0373809,0.000948976,-0.791384,0.149147,9.77645,0.368701,0.0812477,0.817558,-0.00791545,0.00148418,0.0977645,1,3.73497e-05,-8.24619e-06,-1.1102e-06,0.00746994,-0.00164924,-0.00022204,0.999281,0.0063265,0.0373809,0.000948976,-0.302791,-0.0795605,-0.87712,32.875,1,35791,3626229
10,4,0.99928,0.00637631,0.0373979,0.0009595,-0.797318,0.166094,9.77901,0.368089,0.103024,0.812608,-0.00797524,0.00165471,0.0977901,1,3.00872e-05,-1.01757e-05,2.16199e-05,0.00601745,-0.00203513,0.00432397,0.99928,0.00637631,0.0373979,0.0009595,-0.302755,-0.0810328,-0.876648,32.875,1,35792,3626329
11,1,0.999278,0.00648415,0.0374343,0.000966937,-0.83195,0.15227,9.7737,0.330234,0.0830732,0.808791,-0.00832089,0.00151555,0.097737,1,3.59565e-05,-6.98285e-06,7.18058e-06,0.0071913,-0.00139657,0.00143612,0.999278,0.00648415,0.0374343,0.000966937,-0.301089,-0.0797618,-0.866526,32.875,1,35794,3626529
11,2,0.999278,0.00657111,0.0374196,0.00100387,-0.796992,0.136157,9.79164,0.364292,0.0657995,0.839224,-0.00797139,0.00135029,0.0979165,1,5.70268e-05,-7.41286e-06,6.6833e-06,0.0114054,-0.00148257,0.00133666,0.999278,0.00657111,0.0374196,0.00100387,-0.302644,-0.081114,-0.872105,32.875,1,35796,3626729
11,3,0.999275,0.00670262,0.0374552,0.00100605,-0.818992,0.155689,9.77025,0.349256,0.0832622,0.807799,-0.00819216,0.00154476,0.0977025,1,6.09569e-05,-1.12133e-05,1.31036e-05,0.0121914,-0.00224265,0.00262072,0.999275,0.00670262,0.0374552,0.00100605,-0.300858,-0.078619,-0.876098,32.875,1,35798,3626929
11,4,0.999273,0.00683217,0.037488,0.00108291,-0.827327,0.143369,9.78886,0.342697,0.0737237,0.824475,-0.00827417,0.00142448,0.0978886,1,4.55901e-05,-4.38091e-06,1.6883e-05,0.00911803,-0.000876182,0.00337659,0.999273,0.00683217,0.037488,0.00108291,-0.300167,-0.0787762,-0.867519,32.875,1,35800,3627129
12,1,0.999273,0.00688283,0.037475,0.00111363,-0.803097,0.116401,9.77149,0.36248,0.0407889,0.816988,-0.00803302,0.00115462,0.0977149,1,4.81829e-05,-1.05092e-05,-2.04305e-06,0.00963658,-0.00210184,-0.00040861,0.999273,0.00688283,0.037475,0.00111363,-0.302549,-0.0802196,-0.86754,32.875,1,35801,3627229
12,2,0.999273,0.00698975,0.0374579,0.00114649,-0.824805,0.141273,9.76645,0.338016,0.0581916,0.804879,-0.00825464,0.00140149,0.0976641,1,5.64288e-05,-3.35333e-05,1.28075e-05,0.0112858,-0.00670667,0.0025615,0.999273,0.00698975,0.0374579,0.00114649,-0.302807,-0.0785849,-0.877099,32.875,1,35803,3627429
12,3,0.99927,0.00713265,0.037509,0.00114382,-0.787005,0.167404,9.78574,0.379481,0.0836509,0.827353,-0.00787277,0.00166281,0.0978574,1,5.62277e-05,-1.36866e-05,1.43051e-05,0.0112455,-0.00273733,0.00286102,0.99927,0.00713265,0.037509,0.00114382,-0.299325,-0.0796606,-0.873098,32.875,1,35805,3627629
12,4,0.999269,0.00724041,0.0375069,0.00120428,-0.800086,0.132331,9.78349,0.365162,0.048468,0.824346,-0.00800202,0.00131392,0.0978349,1,4.72069e-05,-5.80183e-06,9.82739e-06,0.00944138,-0.00116037,0.00196548,0.999269,0.00724041,0.0375069,0.00120428,-0.302614,-0.0777627,-0.868495,32.875,1,35807,3627829
13,1,0.999268,0.007344,0.0375173,0.00125636,-0.80519,0.144706,9.78465,0.357475,0.0555177,0.826234,-0.00805396,0.00143678,0.0978465,1,5.20348e-05,-1.04332e-05,6.18569e-06,0.010407,-0.00208664,0.00123714,0.999268,0.007344,0.0375173,0.00125636,-0.302306,-0.0790857,-0.876607,32.875,1,35809,3628029
13,2,0.999265,0.00746059,0.0375877,0.0012445,-0.829178,0.147348,9.78754,0.33665,0.0596727,0.830116,-0.00829169,0.00146544,0.0978755,1,4.07826e-05,4.93668e-07,3.27844e-06,0.00815652,9.87335e-05,0.000655688,0.999265,0.00746059,0.0375877,0.0012445,-0.299826,-0.0791598,-0.87359,32.875,1,35811,3628229
13,3,0.999264,0.00752828,0.0376045,0.0012593,-0.824319,0.139793,9.77185,0.339156,0.0500261,0.814584,-0.00824389,0.0013871,0.0977186,1,5.50803e-05,-3.54073e-06,4.18878e-06,0.0110161,-0.000708146,0.000837756,0.999264,0.00752828,0.0376045,0.0012593,-0.299699,-0.0787712,-0.868026,32.875,1,35812,3628329
13,4,0.999264,0.00763674,0.037563,0.0013355,-0.802743,0.143674,9.78395,0.355283,0.0509739,0.824755,-0.0080312,0.00142655,0.0978393,1,5.14276e-05,-1.91648e-05,7.85104e-06,0.0102855,-0.00383296,0.00157021,0.999264,0.00763674,0.037563,0.0013355,-0.303581,-0.0796787,-0.870049,32.875,1,35814,3628529
14,1,0.999262,0.00774856,0.0375942,0.00136576,-0.752254,0.153648,9.78131,0.415141,0.0559233,0.818644,-0.0075242,0.00152823,0.0978131,1,4.11849e-05,-8.29463e-06,1.31651e-05,0.00823699,-0.00165893,0.00263301,0.999262,0.00774856,0.0375942,0.00136576,-0.299937,-0.0790787,-0.878133,32.875,1,35816,3628729
14,2,0.999259,0.00785187,0.0376528,0.00138329,-0.758821,0.15123,9.77523,0.403196,0.0513744,0.814838,-0.00758837,0.00150383,0.0977524,1,4.29023e-05,-7.24534e-07,5.0365e-06,0.00858046,-0.000144907,0.0010073,0.999259,0.00785187,0.0376528,0.00138329,-0.300131,-0.0802486,-0.867047,32.875,1,35818,3628929
14,3,0.999258,0.00794963,0.0376639,0.00144382,-0.775855,0.155134,9.78453,0.395323,0.0514753,0.821898,-0.00775794,0.00154167,0.0978455,1,4.80972e-05,3.38238e-06,1.65794e-05,0.00961944,0.000676476,0.00331589,0.999258,0.00794963,0.0376639,0.00144382,-0.301195,-0.0792019,-0.870554,32.875,1,35820,3629129
14,4,0.999257,0.00799897,0.0376817,0.00146954,-0.810147,0.145691,9.76603,0.366245,0.043278,0.803751,-0.00810212,0.00144845,0.0976604,1,4.13619e-05,-2.98411e-06,2.3281e-05,0.00827239,-0.000596822,0.0046562,0.999257,0.00799897,0.0376817,0.00146954,-0.302301,-0.078607,-0.876091,32.875,1,35821,3629229
15,1,0.999254,0.00811732,0.0377191,0.00148839,-0.806418,0.124915,9.76957,0.357239,0.0202647,0.811722,-0.00806775,0.0012405,0.0976955,1,4.32711e-05,-1.8118e-05,1.2055e-05,0.00865422,-0.00362361,0.002411,0.999254,0.00811732,0.0377191,0.00148839,-0.300319,-0.0777015,-0.87305,32.875,1,35823,3629429
15,2,0.999253,0.00823326,0.0377227,0.0015121,-0.818115,0.159957,9.77739,0.347608,0.0502544,0.819417,-0.00818178,0.00158865,0.097774,1,5.60824e-05,-3.2577e-06,-2.7656e-06,0.0112165,-0.00065154,-0.000553121,0.999253,0.00823326,0.0377227,0.0015121,-0.2996,-0.0802886,-0.86503,32.875,1,35825,3629629
15,3,0.999252,0.00833804,0.0377411,0.00151649,-0.808415,0.141771,9.76734,0.366142,0.0316133,0.811805,-0.00808648,0.00140695,0.0976733,1,5.46778e-05,-1.18615e-05,4.61791e-06,0.0109356,-0.00237231,0.000923582,0.999252,0.00833804,0.0377411,0.00151649,-0.300851,-0.080552,-0.877151,32.875,1,35827,3629829
15,4,0.999249,0.00844622,0.0377885,0.0015178,-0.788854,0.155659,9.78872,0.362441,0.033141,0.824972,-0.00789127,0.00154793,0.0978871,1,4.34221e-05,-1.38246e-05,9.94437e-06,0.00868441,-0.00276492,0.00198887,0.999249,0.00844622,0.0377885,0.0015178,-0.301722,-0.0786831,-0.872055,32.875,1,35829,3630029
16,1,0.999248,0.0084879,0.0378133,0.00152732,-0.826895,0.150274,9.7716,0.359763,0.0326482,0.828508,-0.00826815,0.00149555,0.0977162,1,3.65451e-05,4.10317e-06,2.57033e-06,0.00730902,0.000820635,0.000514065,0.999248,0.0084879,0.0378133,0.00152732,-0.301093,-0.0787953,-0.866,32.875,1,35830,3630129
16,2,0.999247,0.00857073,0.0378213,0.00155209,-0.77867,0.130796,9.77994,0.383742,0.0313497,0.816039,-0.00778785,0.00129872,0.0977994,1,4.70765e-05,-5.85062e-06,1.89431e-06,0.0094153,-0.00117012,0.000378862,0.999247,0.00857073,0.0378213,0.00155209,-0.303647,-0.0801124,-0.873088,32.875,1,35832,3630329
16,3,0.999244,0.00866923,0.0378547,0.00155022,-0.785733,0.175652,9.7675,0.376278,0.0352856,0.808692,-0.0078608,0.00174937,0.0976748,1,3.6072e-05,-1.76429e-05,6.39247e-06,0.00721441,-0.00352858,0.00127849,0.999244,0.00866923,0.0378547,0.00155022,-0.300879,-0.0795675,-0.877634,32.875,1,35834,3630529
16,4,0.999242,0.0087813,0.0378988,0.00156632,-0.8317,0.133455,9.78168,0.356694,0.0331195,0.823485,-0.00831869,0.00132439,0.0978168,1,5.17741e-05,-8.63525e-06,1.71372e-06,0.0103548,-0.00172705,0.000342745,0.999242,0.0087813,0.0378988,0.00156632,-0.300032,-0.081766,-0.864051,32.875,1,35836,3630729
17,1,0.999241,0.00888623,0.0378796,0.00161407,-0.806869,0.144772,9.78331,0.345546,0.0112762,0.820108,-0.00807217,0.00143669,0.0978329,1,5.4447e-05,-1.74324e-05,2.29778e-05,0.0108894,-0.00348648,0.00459557,0.999241,0.00888623,0.0378796,0.00161407,-0.300266,-0.0787041,-0.871557,32.875,1,35838,3630929
17,2,0.99924,0.00899206,0.0378929,0.0016405,-0.823562,0.152232,9.76518,0.366642,0.0363753,0.809497,-0.00824166,0.00150953,0.0976515,1,6.501e-05,-3.08606e-05,5.59501e-06,0.013002,-0.00617211,0.001119,0.99924,0.00899206,0.0378929,0.0016405,-0.300846,-0.0800733,-0.876636,32.875,1,35840,3631129
17,3,0.999239,0.00905195,0.0378924,0.00164139,-0.778196,0.14739,9.78314,0.365559,0.0307409,0.806268,-0.00778788,0.0014628,0.0978311,1,5.61475e-05,-3.0121e-05,7.00184e-06,0.0112295,-0.0060242,0.00140037,0.999239,0.00905195,0.0378924,0.00164139,-0.301677,-0.0806432,-0.871594,32.875,1,35841,3631229
17,4,0.999239,0.009119,0.0378944,0.00167678,-0.827798,0.130883,9.75517,0.36552,-0.00484768,0.807038,-0.00828017,0.00130209,0.0975516,1,3.26931e-05,-1.0956e-05,2.17932e-05,0.00653861,-0.0021912,0.00435864,0.999239,0.009119,0.0378944,0.00167678,-0.301598,-0.0787733,-0.867007,32.875,1,35843,3631429
18,1,0.999237,0.00921262,0.0379158,0.00169394,-0.805288,0.145946,9.79313,0.349537,0.0222291,0.817,-0.00805217,0.00144933,0.0979315,1,4.9634e-05,4.01018e-06,2.49351e-05,0.00992679,0.000802035,0.00498702,0.999237,0.00921262,0.0379158,0.00169394,-0.302775,-0.0790908,-0.8761,32.875,1,35845,3631629
18,2,0.999235,0.00931318,0.03795,0.0017032,-0.843473,0.163183,9.76947,0.334732,0.0204533,0.816526,-0.00843793,0.00162247,0.0976946,1,4.70169e-05,-1.62106e-05,1.0004e-05,0.00940338,-0.00324213,0.0020008,0.999235,0.00931318,0.03795,0.0017032,-0.30027,-0.0791829,-0.872073,32.875,1,35847,3631829
18,3,0.999234,0.00940205,0.0379504,0.00173807,-0.803648,0.139845,9.77984,0.380123,0.0228367,0.818464,-0.00803787,0.00138953,0.0977984,1,4.43607e-05,-6.88962e-06,1.52369e-05,0.00887214,-0.00137792,0.00304738,0.999234,0.00940205,0.0379504,0.00173807,-0.301566,-0.0792791,-0.866009,32.875,1,35849,3632029
18,4,0.999233,0.00945218,0.0379613,0.00174113,-0.759109,0.155334,9.78443,0.395442,0.0211532,0.806889,-0.00759305,0.00154352,0.0978443,1,4.9863e-05,-9.97458e-06,4.53763e-06,0.00997259,-0.00199492,0.000907526,0.999233,0.00945218,0.0379613,0.00174113,-0.30312,-0.0806312,-0.871587,32.875,1,35850,3632129
19,1,0.999232,0.00954217,0.037977,0.00175359,-0.821951,0.139591,9.76132,0.385025,-0.00169271,0.816018,-0.0082229,0.00138613,0.0976131,1,4.88087e-05,-1.71941e-05,1.48958e-05,0.00976175,-0.00343882,0.00297916,0.999232,0.00954217,0.037977,0.00175359,-0.302318,-0.0790767,-0.877112,32.875,1,35852,3632329
19,2,0.99923,0.00964199,0.0379976,0.00179877,-0.741466,0.169781,9.79054,0.398842,0.0237125,0.819473,-0.00741673,0.0016898,0.0979054,1,3.87113e-05,-1.00822e-05,2.90966e-05,0.00774227,-0.00201644,0.00581931,0.99923,0.00964199,0.0379976,0.00179877,-0.301577,-0.0778248,-0.865471,32.875,1,35854,3632529
19,3,0.999229,0.00970931,0.0380033,0.00181369,-0.826714,0.113026,9.77673,0.366153,-0.0158986,0.812909,-0.00827074,0.00112167,0.0977671,1,4.36064e-05,-1.83843e-05,3.95829e-06,0.00872128,-0.00367687,0.000791657,0.999229,0.00970931,0.0380033,0.00181369,-0.3027,-0.0776996,-0.872029,32.875,1,35856,3632729
19,4,0.999226,0.00980513,0.0380441,0.00183219,-0.82834,0.152582,9.75298,0.365708,-0.011202,0.812103,-0.00828354,0.00151684,0.0975299,1,4.41039e-05,-3.76078e-07,2.30519e-05,0.00882078,-7.52155e-05,0.00461039,0.999226,0.00980513,0.0380441,0.00183219,-0.302326,-0.0771437,-0.876059,32.875,1,35858,3632929
20,1,0.999225,0.00989525,0.0380551,0.00184499,-0.740584,0.156309,9.79586,0.390042,0.0112662,0.817037,-0.00740883,0.00155405,0.0979585,1,4.54524e-05,-1.51041e-05,9.01334e-06,0.00909047,-0.00302082,0.00180267,0.999225,0.00989525,0.0380551,0.00184499,-0.299156,-0.0788203,-0.865504,32.875,1,35860,3633129
20,2,0.999223,0.00992378,0.0380877,0.00186032,-0.83663,0.17508,9.74168,0.359851,0.0180332,0.80247,-0.00836396,0.00174452,0.0974171,1,3.05455e-05,1.23962e-05,1.96735e-05,0.0061091,0.00247924,0.0039347,0.999223,0.00992378,0.0380877,0.00186032,-0.301602,-0.0778067,-0.866481,32.875,1,35861,3633229
20,3,0.999223,0.0100277,0.0380825,0.00187747,-0.723431,0.155218,9.8076,0.401935,0.00461769,0.821213,-0.00723791,0.00154013,0.098076,1,6.07708e-05,-1.82407e-05,8.85109e-06,0.0121542,-0.00364813,0.00177022,0.999223,0.0100277,0.0380825,0.00187747,-0.301812,-0.0790987,-0.876105,32.875,1,35863,3633429
20,4,0.99922,0.0101062,0.0381208,0.0018871,-0.834586,0.119472,9.78227,0.345718,-0.0209747,0.81315,-0.00834858,0.00118405,0.0978226,1,5.343e-05,-1.37554e-05,1.28803e-05,0.010686,-0.00275108,0.00257606,0.99922,0.0101062,0.0381208,0.0018871,-0.300755,-0.0782124,-0.871544,32.875,1,35865,3633629
21,1,0.999219,0.0101685,0.0381492,0.00190152,-0.900431,0.143877,9.75305,0.327478,-0.0102661,0.811826,-0.00900527,0.0014343,0.0975305,1,2.25902e-05,-4.856e-06,3.56546e-06,0.00451803,-0.0009712,0.000713092,0.999219,0.0101685,0.0381492,0.00190152,-0.30212,-0.0777757,-0.867993,32.875,1,35867,3633829
21,2,0.999216,0.0102584,0.0381832,0.00192284,-0.788249,0.167117,9.77963,0.382803,-0.00475811,0.826445,-0.0078812,0.00166096,0.0977965,1,5.06342e-05,6.94613e-06,1.95427e-05,0.0101268,0.00138923,0.00390855,0.999216,0.0102584,0.0381832,0.00192284,-0.299924,-0.0776424,-0.876586,32.875,1,35869,3634029
21,3,0.999216,0.0102959,0.0381922,0.00193118,-0.902747,0.125745,9.76446,0.324236,-0.0207455,0.817416,-0.00903048,0.00124891,0.0976445,1,4.26695e-05,-1.52605e-05,1.16899e-05,0.00853391,-0.00305211,0.00233798,0.999216,0.0102959,0.0381922,0.00193118,-0.300381,-0.0776565,-0.875574,32.875,1,35870,3634129
21,4,0.999214,0.0103787,0.0382119,0.00194234,-0.821098,0.166638,9.78087,0.336996,-0.0204315,0.826391,-0.0082116,0.00165937,0.0978088,1,3.49805e-05,-2.97106e-06,9.72283e-06,0.0069961,-0.000594211,0.00194457,0.999214,0.0103787,0.0382119,0.00194234,-0.299682,-0.0783015,-0.867006,32.875,1,35872,3634329
22,1,0.999212,0.0104411,0.0382357,0.00195575,-0.753708,0.139528,9.78529,0.401537,-0.0289955,0.817104,-0.00754032,0.00138706,0.0978528,1,4.13099e-05,-1.64284e-05,8.94031e-06,0.00826197,-0.00328568,0.00178806,0.999212,0.0104411,0.0382357,0.00195575,-0.303141,-0.0801344,-0.872081,32.875,1,35874,3634529
22,2,0.99921,0.0105335,0.038277,0.00197197,-0.816029,0.130194,9.78053,0.372398,-0.024639,0.822093,-0.00816241,0.00129182,0.0978053,1,5.12973e-05,-1.07567e-05,5.29184e-06,0.0102595,-0.00215133,0.00105837,0.99921,0.0105335,0.038277,0.00197197,-0.301344,-0.0790937,-0.876612,32.875,1,35876,3634729
22,3,0.999208,0.0106215,0.0383015,0.00198566,-0.774218,0.139726,9.78779,0.40701,-0.0204329,0.825632,-0.00774381,0.00138795,0.0978779,1,4.68735e-05,-8.21952e-06,8.56816e-06,0.00937471,-0.0016439,0.00171363,0.999208,0.0106215,0.0383015,0.00198566,-0.301508,-0.0798029,-0.864,32.875,1,35878,3634929
22,4,0.999206,0.0107009,0.0383175,0.0019917,-0.804472,0.161821,9.76783,0.37266,0.000702523,0.802701,-0.0080469,0.00160875,0.0976783,1,4.7395e-05,-1.09766e-05,1.24089e-05,0.009479,-0.00219532,0.00248179,0.999206,0.0107009,0.0383175,0.0019917,-0.301192,-0.0801684,-0.871081,32.875,1,35880,3635129
23,1,0.999205,0.0107427,0.0383309,0.00200767,-0.790907,0.168538,9.76644,0.387787,0.00910471,0.79666,-0.00791088,0.00167533,0.0976644,1,4.96936e-05,-8.9106e-06,2.22156e-05,0.00993872,-0.00178212,0.00444313,0.999205,0.0107427,0.0383309,0.00200767,-0.30187,-0.0785749,-0.878113,32.875,1,35881,3635229
23,2,0.999203,0.0108178,0.0383577,0.00203633,-0.814666,0.158444,9.78177,0.386028,-0.00689656,0.831325,-0.00814716,0.00157606,0.0978178,1,4.12482e-05,-2.25387e-06,1.89601e-05,0.00824964,-0.000450774,0.00379202,0.999203,0.0108178,0.0383577,0.00203633,-0.302166,-0.0787061,-0.870539,32.875,1,35883,3635429
23,3,0.999202,0.0108756,0.0383775,0.00203775,-0.789698,0.145117,9.76928,0.382103,-0.026289,0.80848,-0.00789912,0.00144512,0.0976927,1,2.99886e-05,-1.07789e-05,1.17963e-05,0.00599773,-0.00215579,0.00235925,0.999202,0.0108756,0.0383775,0.00203775,-0.302976,-0.0797729,-0.865003,32.875,1,35885,3635629
23,4,0.999202,0.0109542,0.0383651,0.00204185,-0.781057,0.137338,9.79055,0.385454,-0.0219369,0.815287,-0.00781849,0.00136273,0.097905,1,5.35957e-05,-4.03412e-05,9.80337e-06,0.0107191,-0.00806824,0.00196067,0.999202,0.0109542,0.0383651,0.00204185,-0.301364,-0.0785969,-0.877106,32.875,1,35887,3635829
24,1,0.999199,0.0110369,0.0384065,0.00207176,-0.839665,0.156225,9.75749,0.373591,-0.0266171,0.818189,-0.00839593,0.00155177,0.0975751,1,5.1843e-05,4.03844e-06,2.16757e-05,0.0103686,0.000807688,0.00433513,0.999199,0.0110369,0.0384065,0.00207176,-0.301257,-0.0791568,-0.873078,32.875,1,35889,3636029
24,2,0.999199,0.0110654,0.0383948,0.00208795,-0.79031,0.137777,9.7879,0.391859,-0.0319511,0.820418,-0.00790924,0.0013701,0.0978787,1,3.73852e-05,-3.10503e-05,2.25957e-05,0.00747703,-0.00621007,0.00451914,0.999199,0.0110654,0.0383948,0.00208795,-0.300632,-0.0783025,-0.866496,32.875,1,35890,3636129
24,3,0.999198,0.0111287,0.0384156,0.00209745,-0.865364,0.164024,9.76012,0.346659,-0.0184622,0.816459,-0.00865636,0.00163263,0.0976011,1,3.80315e-05,-1.3763e-05,1.04718e-05,0.00760631,-0.00275261,0.00209435,0.999198,0.0111287,0.0384156,0.00209745,-0.302174,-0.0796637,-0.87157,32.875,1,35892,3636329
24,4,0.999196,0.0111975,0.0384364,0.00208797,-0.764498,0.163394,9.79403,0.388942,-0.0194378,0.81602,-0.0076473,0.00162408,0.0979403,1,5.04404e-05,-1.1878e-05,-1.28146e-06,0.0100881,-0.0023756,-0.000256292,0.999196,0.0111975,0.0384364,0.00208797,-0.301796,-0.0800743,-0.876126,32.875,1,35894,3636529
25,1,0.999194,0.0112662,0.0384675,0.00208616,-0.820328,0.14566,9.76813,0.385293,-0.0254798,0.809772,-0.00820476,0.00144738,0.0976814,1,4.69423e-05,-7.53842e-06,3.03246e-06,0.00938847,-0.00150768,0.000606492,0.999194,0.0112662,0.0384675,0.00208616,-0.298724,-0.0787882,-0.867526,32.875,1,35896,3636729
25,2,0.999193,0.011329,0.0384922,0.00208895,-0.837762,0.167651,9.7698,0.350878,-0.0291562,0.813773,-0.00837967,0.00166829,0.097698,1,4.09988e-05,-1.02911e-05,1.21852e-05,0.00819975,-0.00205822,0.00243704,0.999193,0.011329,0.0384922,0.00208895,-0.301717,-0.0782043,-0.87154,32.875,1,35898,3636929
25,3,0.999192,0.01137,0.0384967,0.00210656,-0.834885,0.144936,9.76789,0.361863,-0.0375778,0.810229,-0.00835197,0.00143879,0.0976788,1,5.22342e-05,-1.56702e-05,2.19403e-05,0.0104468,-0.00313404,0.00438805,0.999192,0.01137,0.0384967,0.00210656,-0.30233,-0.0790677,-0.877617,32.875,1,35899,3637029
25,4,0.99919,0.01145,0.0385077,0.00211685,-0.789169,0.145233,9.78184,0.39825,-0.0327794,0.826472,-0.00789535,0.00144021,0.0978182,1,6.10911e-05,-1.8561e-05,1.11664e-05,0.0122182,-0.00371221,0.00223329,0.99919,0.01145,0.0385077,0.00211685,-0.301257,-0.0791568,-0.873078,32.875,1,35901,3637229
26,1,0.99919,0.011496,0.0385139,0.00212772,-0.751179,0.154785,9.78981,0.428646,-0.027314,0.822815,-0.00751424,0.00154082,0.097898,1,3.48017e-05,-1.23027e-05,1.42902e-05,0.00696034,-0.00246055,0.00285803,0.99919,0.011496,0.0385139,0.00212772,-0.301109,-0.079265,-0.86702,32.875,1,35903,3637429
26,2,0.999188,0.0115363,0.0385547,0.00215119,-0.711277,0.150447,9.77795,0.47893,-0.0370428,0.80772,-0.00711143,0.00149918,0.0977797,1,2.61311e-05,7.03145e-06,1.26473e-05,0.00522622,0.00140629,0.00252946,0.999188,0.0115363,0.0385547,0.00215119,-0.304724,-0.0790567,-0.8771,32.875,1,35905,3637629
26,3,0.999186,0.0115799,0.038584,0.00216077,-0.722836,0.15695,9.79267,0.466177,-0.0337201,0.825529,-0.00722627,0.00155816,0.097927,1,5.69876e-05,1.08818e-05,1.21817e-05,0.0113975,0.00217636,0.00243633,0.999186,0.0115799,0.038584,0.00216077,-0.304165,-0.0800813,-0.8746,32.875,1,35906,3637729
26,4,0.999186,0.0115799,0.038584,0.00216077,-0.722836,0.15695,9.79267,0.466177,-0.0337201,0.825529,-0.00722627,0.00155816,0.097927,1,5.69876e-05,1.08818e-05,1.21817e-05,0.0113975,0.00217636,0.00243633,0.999186,0.0115799,0.038584,0.00216077,-0.304165,-0.0800813,-0.8746,32.875,1,35906,3637729
27,1,0.999183,0.0116403,0.038649,0.00218541,-0.727971,0.142383,9.79121,0.46356,-0.0457861,0.829276,-0.00727596,0.00141635,0.0979125,1,3.67293e-05,1.94368e-05,1.97367e-05,0.00734587,0.00388736,0.00394735,0.999183,0.0116403,0.038649,0.00218541,-0.301105,-0.0787863,-0.866505,32.875,1,35908,3637929
27,2,0.999181,0.0116613,0.0386969,0.00219258,-0.733746,0.164278,9.78363,0.464889,-0.0251025,0.816592,-0.00733103,0.00163598,0.0978369,1,3.36188e-05,3.30826e-05,1.4931e-05,0.00672375,0.00661651,0.0029862,0.999181,0.0116613,0.0386969,0.00219258,-0.300159,-0.079264,-0.86753,32.875,1,35909,3638029
27,3,0.999178,0.0116953,0.0387535,0.0021883,-0.762942,0.137242,9.77578,0.43935,-0.0536955,0.804895,-0.00762132,0.00136306,0.0977585,1,4.75887e-05,4.14829e-05,3.44228e-06,0.00951775,0.00829659,0.000688456,0.999178,0.0116953,0.0387535,0.0021883,-0.300751,-0.0791789,-0.872071,32.875,1,35910,3638129
27,4,0.999178,0.0116953,0.0387535,0.0021883,-0.762942,0.137242,9.77578,0.43935,-0.0536955,0.804895,-0.00762132,0.00136306,0.0977585,1,4.75887e-05,4.14829e-05,3.44228e-06,0.00951775,0.00829659,0.000688456,0.999178,0.0116953,0.0387535,0.0021883,-0.300751,-0.0791789,-0.872071,32.875,1,35910,3638129
28,1,0.999173,0.0117546,0.038857,0.00219678,-0.837954,0.150177,9.78115,0.355948,-0.0435551,0.81591,-0.00837322,0.00149298,0.0978122,1,4.40052e-05,3.24825e-05,1.10991e-05,0.00880104,0.0064965,0.00221983,0.999173,0.0117546,0.038857,0.00219678,-0.300842,-0.0795945,-0.87612,32.875,1,35912,3638329
28,2,0.999173,0.0117546,0.038857,0.00219678,-0.837954,0.150177,9.78115,0.355948,-0.0435551,0.81591,-0.00837322,0.00149298,0.0978122,1,4.40052e-05,3.24825e-05,1.10991e-05,0.00880104,0.0064965,0.00221983,0.999173,0.0117546,0.038857,0.00219678,-0.300842,-0.0795945,-0.87612,32.875,1,35912,3638329
28,3,0.999172,0.0117791,0.0388883,0.00218855,-0.889995,0.118159,9.77887,0.306978,-0.0788961,0.826264,-0.00889684,0.00117396,0.097789,1,3.90615e-05,1.58624e-05,-4.99133e-07,0.0078123,0.00317247,-9.98265e-05,0.999172,0.0117791,0.0388883,0.00218855,-0.299781,-0.0782294,-0.871044,32.875,1,35913,3638429
28,4,0.999172,0.0117791,0.0388883,0.00218855,-0.889995,0.118159,9.77887,0.306978,-0.0788961,0.826264,-0.00889684,0.00117396,0.097789,1,3.90615e-05,1.58624e-05,-4.99133e-07,0.0078123,0.00317247,-9.98265e-05,0.999172,0.0117791,0.0388883,0.00218855,-0.299781,-0.0782294,-0.871044,32.875,1,35913,3638429
29,1,0.999169,0.0118372,0.0389425,0.0022122,-0.844994,0.155131,9.7772,0.346305,-0.0247719,0.816971,-0.00844831,0.00154319,0.0977722,1,3.98625e-05,8.65921e-06,1.90326e-05,0.00797249,0.00173184,0.00380652,0.999169,0.0118372,0.0389425,0.0022122,-0.301566,-0.0792791,-0.866009,32.875,1,35915,3638629
29,2,0.999167,0.0118629,0.0389738,0.00222861,-0.81435,0.157029,9.79125,0.38779,-0.0102538,0.820676,-0.00814051,0.0015622,0.0979128,1,3.93168e-05,1.56554e-05,2.36519e-05,0.00786336,0.00313108,0.00473038,0.999167,0.0118629,0.0389738,0.00222861,-0.301269,-0.0777026,-0.872541,32.875,1,35916,3638729
29,3,0.999167,0.0118629,0.0389738,0.00222861,-0.81435,0.157029,9.79125,0.38779,-0.0102538,0.820676,-0.00814051,0.0015622,0.0979128,1,3.93168e-05,1.56554e-05,2.36519e-05,0.00786336,0.00313108,0.00473038,0.999167,0.0118629,0.0389738,0.00222861,-0.301269,-0.0777026,-0.872541,32.875,1,35916,3638729
29,4,0.999167,0.0118629,0.0389738,0.00222861,-0.81435,0.157029,9.79125,0.38779,-0.0102538,0.820676,-0.00814051,0.0015622,0.0979128,1,3.93168e-05,1.56554e-05,2.36519e-05,0.00786336,0.00313108,0.00473038,0.999167,0.0118629,0.0389738,0.00222861,-0.301269,-0.0777026,-0.872541,32.875,1,35916,3638729
30,1,0.999163,0.0119329,0.039066,0.00225446,-0.81379,0.162867,9.74819,0.381928,-0.0226875,0.787348,-0.00813243,0.00161613,0.0974826,1,6.22347e-05,2.84915e-05,2.49907e-05,0.0124469,0.00569829,0.00499814,0.999163,0.0119329,0.039066,0.00225446,-0.299921,-0.0786089,-0.877113,32.875,1,35918,3638929
30,2,0.999161,0.0119719,0.039105,0.0022507,-0.876091,0.138148,9.76265,0.319536,-0.0681502,0.81193,-0.00875638,0.00137086,0.097627,1,5.41192e-05,2.32307e-05,3.176e-06,0.0108238,0.00464615,0.000635201,0.999161,0.0119719,0.039105,0.0022507,-0.299806,-0.0796566,-0.873096,32.875,1,35919,3639029
30,3,0.999159,0.0120007,0.0391382,0.00226791,-0.912201,0.130494,9.76996,0.284213,-0.0790844,0.81998,-0.00911855,0.00129608,0.0977001,1,4.29062e-05,1.80401e-05,2.64827e-05,0.00858123,0.00360801,0.00529654,0.999159,0.0120007,0.0391382,0.00226791,-0.300633,-0.0811931,-0.868581,32.875,1,35920,3639129
30,4,0.999159,0.0120007,0.0391382,0.00226791,-0.912201,0.130494,9.76996,0.284213,-0.0790844,0.81998,-0.00911855,0.00129608,0.0977001,1,4.29062e-05,1.80401e-05,2.64827e-05,0.00858123,0.00360801,0.00529654,0.999159,0.0120007,0.0391382,0.00226791,-0.300633,-0.0811931,-0.868581,32.875,1,35920,3639129
31,1,0.999158,0.0120582,0.0391437,0.00229961,-0.884424,0.117068,9.76764,0.317799,-0.0651455,0.81014,-0.00884569,0.0011605,0.0976764,1,5.05484e-05,-7.22899e-06,1.68832e-05,0.0101097,-0.0014458,0.00337664,0.999158,0.0120582,0.0391437,0.00229961,-0.300303,-0.0786771,-0.873072,32.875,3,35922,3639329
31,2,0.999158,0.0120582,0.0391437,0.00229961,-0.884424,0.117068,9.76764,0.317799,-0.0651455,0.81014,-0.00884569,0.0011605,0.0976764,1,5.05484e-05,-7.22899e-06,1.68832e-05,0.0101097,-0.0014458,0.00337664,0.999158,0.0120582,0.0391437,0.00229961,-0.300303,-0.0786771,-0.873072,32.875,3,35922,3639329
31,3,0.999157,0.0120865,0.03916,0.002302,-0.903944,0.127533,9.75905,0.295549,-0.0616422,0.803034,-0.00903966,0.00126649,0.0975906,1,4.44725e-05,-1.01327e-06,8.60161e-06,0.0088945,-0.000202655,0.00172032,0.999157,0.0120865,0.03916,0.002302,-0.300402,-0.0786049,-0.87711,32.875,3,35923,3639429
31,4,0.999157,0.0120865,0.03916,0.002302,-0.903944,0.127533,9.75905,0.295549,-0.0616422,0.803034,-0.00903966,0.00126649,0.0975906,1,4.44725e-05,-1.01327e-06,8.60161e-06,0.0088945,-0.000202655,0.00172032,0.999157,0.0120865,0.03916,0.002302,-0.300402,-0.0786049,-0.87711,32.875,3,35923,3639429
32,1,0.999155,0.0121606,0.039182,0.00231561,-0.92787,0.179797,9.75015,0.269833,-0.0198002,0.802813,-0.00927984,0.00178801,0.0975016,1,4.98034e-05,-5.60078e-06,1.33682e-05,0.00996068,-0.00112016,0.00267364,0.999155,0.0121606,0.039182,0.00231561,-0.300213,-0.0797067,-0.870065,32.875,3,35925,3639629
32,2,0.999155,0.0121939,0.0391825,0.00232138,-0.889602,0.161378,9.7769,0.30783,-0.0441552,0.817871,-0.00889932,0.00160407,0.0977688,1,4.8116e-05,-1.66224e-05,1.68117e-05,0.00962319,-0.00332449,0.00336235,0.999155,0.0121939,0.0391825,0.00232138,-0.299636,-0.077371,-0.86446,32.875,3,35926,3639729
32,3,0.999155,0.0121939,0.0391825,0.00232138,-0.889602,0.161378,9.7769,0.30783,-0.0441552,0.817871,-0.00889932,0.00160407,0.0977688,1,4.8116e-05,-1.66224e-05,1.68117e-05,0.00962319,-0.00332449,0.00336235,0.999155,0.0121939,0.0391825,0.00232138,-0.299636,-0.077371,-0.86446,32.875,3,35926,3639729
32,4,0.999155,0.0121939,0.0391825,0.00232138,-0.889602,0.161378,9.7769,0.30783,-0.0441552,0.817871,-0.00889932,0.00160407,0.0977688,1,4.8116e-05,-1.66224e-05,1.68117e-05,0.00962319,-0.00332449,0.00336235,0.999155,0.0121939,0.0391825,0.00232138,-0.299636,-0.077371,-0.86446,32.875,3,35926,3639729
33,1,0.999154,0.0122413,0.0391946,0.00233928,-0.80974,0.171241,9.76625,0.409068,-0.0208901,0.810619,-0.00809965,0.0017049,0.0976624,1,3.72415e-05,-1.12507e-05,1.44676e-05,0.0074483,-0.00225013,0.00289352,0.999154,0.0122413,0.0391946,0.00233928,-0.302182,-0.0791759,-0.871559,32.875,3,35928,3639929
33,2,0.999154,0.0122531,0.0391882,0.00235398,-0.800239,0.119148,9.76813,0.391961,-0.0427568,0.795985,-0.00800729,0.00118578,0.097681,1,2.7461e-05,-2.4848e-05,2.12877e-05,0.00549219,-0.00496961,0.00425754,0.999154,0.0122531,0.0391882,0.00235398,-0.301841,-0.0795595,-0.87763,32.875,3,35929,3640029
33,3,0.999153,0.0122779,0.0392063,0.00237049,-0.757601,0.0859553,9.78586,0.437313,-0.101063,0.810644,-0.0075761,0.000851175,0.0978586,1,4.1021e-05,-2.24089e-07,2.30579e-05,0.00820419,-4.48178e-05,0.00461158,0.999153,0.0122779,0.0392063,0.00237049,-0.299427,-0.078622,-0.87661,32.875,3,35930,3640129
33,4,0.999153,0.0122779,0.0392063,0.00237049,-0.757601,0.0859553,9.78586,0.437313,-0.101063,0.810644,-0.0075761,0.000851175,0.0978586,1,4.1021e-05,-2.24089e-07,2.30579e-05,0.00820419,-4.48178e-05,0.00461158,0.999153,0.0122779,0.0392063,0.00237049,-0.299427,-0.078622,-0.87661,32.875,3,35930,3640129
34,1,0.99915,0.0123621,0.0392489,0.00239621,-0.781864,0.112825,9.79845,0.420821,-0.11604,0.844079,-0.00781803,0.00111457,0.0979847,1,6.73831e-05,3.48337e-06,3.05137e-05,0.0134766,0.000696674,0.00610274,0.99915,0.0123621,0.0392489,0.00239621,-0.299604,-0.0793221,-0.864503,32.875,3,35932,3640329
34,2,0.999148,0.0124084,0.0392755,0.00240904,-0.86722,0.211347,9.78188,0.344885,-0.0271718,0.83655,-0.00867018,0.00210085,0.0978193,1,6.23445e-05,1.08581e-05,2.41996e-05,0.0124689,0.00217163,0.00483992,0.999148,0.0124084,0.0392755,0.00240904,-0.299653,-0.079286,-0.866523,32.875,3,35933,3640429
34,3,0.999148,0.0124084,0.0392755,0.00240904,-0.86722,0.211347,9.78188,0.344885,-0.0271718,0.83655,-0.00867018,0.00210085,0.0978193,1,6.23445e-05,1.08581e-05,2.41996e-05,0.0124689,0.00217163,0.00483992,0.999148,0.0124084,0.0392755,0.00240904,-0.299653,-0.079286,-0.866523,32.875,3,35933,3640429
34,4,0.999148,0.0124084,0.0392755,0.00240904,-0.86722,0.211347,9.78188,0.344885,-0.0271718,0.83655,-0.00867018,0.00210085,0.0978193,1,6.23445e-05,1.08581e-05,2.41996e-05,0.0124689,0.00217163,0.00483992,0.999148,0.0124084,0.0392755,0.00240904,-0.299653,-0.079286,-0.866523,32.875,3,35933,3640429
35,1,0.999147,0.0124592,0.0393033,0.00242486,-0.884224,0.147614,9.77639,0.317517,-0.0376301,0.815081,-0.00884383,0.00146706,0.0977639,1,4.54709e-05,-7.94854e-06,1.09915e-05,0.00909418,-0.00158971,0.00219831,0.999147,0.0124592,0.0393033,0.00242486,-0.298975,-0.0790867,-0.878138,32.875,3,35935,3640629
35,2,0.999146,0.0124667,0.0393216,0.00244297,-0.878704,0.160217,9.76628,0.329356,-0.00315144,0.810611,-0.00878704,0.00159697,0.0976628,1,2.46428e-05,3.40528e-07,2.21394e-05,0.00492855,6.81056e-05,0.00442789,0.999146,0.0124667,0.0393216,0.00244297,-0.299473,-0.0795524,-0.879156,32.875,3,35936,3640729
35,3,0.999146,0.0124667,0.0393216,0.00244297,-0.878704,0.160217,9.76628,0.329356,-0.00315144,0.810611,-0.00878704,0.00159697,0.0976628,1,2.46428e-05,3.40528e-07,2.21394e-05,0.00492855,6.81056e-05,0.00442789,0.999146,0.0124667,0.0393216,0.00244297,-0.299473,-0.0795524,-0.879156,32.875,3,35936,3640729
35,4,0.999146,0.0124667,0.0393216,0.00244297,-0.878704,0.160217,9.76628,0.329356,-0.00315144,0.810611,-0.00878704,0.00159697,0.0976628,1,2.46428e-05,3.40528e-07,2.21394e-05,0.00492855,6.81056e-05,0.00442789,0.999146,0.0124667,0.0393216,0.00244297,-0.299473,-0.0795524,-0.879156,32.875,3,35936,3640729
36,1,0.999145,0.0125255,0.0393151,0.00244597,-0.840762,0.133927,9.77564,0.35548,-0.080741,0.817584,-0.00841213,0.00132865,0.0977562,1,5.38398e-05,-2.2985e-05,5.28819e-06,0.010768,-0.00459699,0.00105764,0.999145,0.0125255,0.0393151,0.00244597,-0.300168,-0.0802215,-0.868561,32.875,3,35938,3640929
36,2,0.999145,0.0125433,0.0393199,0.00245671,-0.812682,0.154031,9.78886,0.381523,-0.0770762,0.827589,-0.00812923,0.00153331,0.0978885,1,3.39413e-05,-1.19652e-05,2.19102e-05,0.00678826,-0.00239304,0.00438204,0.999145,0.0125433,0.0393199,0.00245671,-0.30113,-0.0802135,-0.868557,32.875,3,35939,3641029
36,3,0.999145,0.0125433,0.0393199,0.00245671,-0.812682,0.154031,9.78886,0.381523,-0.0770762,0.827589,-0.00812923,0.00153331,0.0978885,1,3.39413e-05,-1.19652e-05,2.19102e-05,0.00678826,-0.00239304,0.00438204,0.999145,0.0125433,0.0393199,0.00245671,-0.30113,-0.0802135,-0.868557,32.875,3,35939,3641029
36,4,0.999145,0.0125433,0.0393199,0.00245671,-0.812682,0.154031,9.78886,0.381523,-0.0770762,0.827589,-0.00812923,0.00153331,0.0978885,1,3.39413e-05,-1.19652e-05,2.19102e-05,0.00678826,-0.00239304,0.00438204,0.999145,0.0125433,0.0393199,0.00245671,-0.30113,-0.0802135,-0.868557,32.875,3,35939,3641029
37,1,0.999144,0.0125904,0.0393184,0.00247409,-0.808507,0.125886,9.76993,0.377377,-0.094654,0.819688,-0.00808868,0.00124998,0.0976991,1,4.40589e-05,-1.82577e-05,1.72743e-05,0.00881179,-0.00365155,0.00345485,0.999144,0.0125904,0.0393184,0.00247409,-0.302306,-0.0790857,-0.876607,32.875,3,35941,3641229
37,2,0.999143,0.012621,0.039337,0.00249407,-0.86443,0.125962,9.77334,0.330842,-0.135916,0.815398,-0.00864413,0.00124976,0.0977336,1,4.81512e-05,1.20596e-06,2.56765e-05,0.00963023,0.000241192,0.0051353,0.999143,0.012621,0.039337,0.00249407,-0.29942,-0.080555,-0.877663,32.875,3,35942,3641329
37,3,0.999142,0.0126604,0.0393452,0.0024921,-0.869467,0.247614,9.75645,0.307289,-0.0640955,0.820495,-0.00869655,0.00246472,0.0975646,1,5.77011e-05,-9.38715e-06,9.10835e-06,0.0115402,-0.00187743,0.00182167,0.999142,0.0126604,0.0393452,0.0024921,-0.299284,-0.0806542,-0.87211,32.875,3,35943,3641429
37,4,0.999142,0.0126604,0.0393452,0.0024921,-0.869467,0.247614,9.75645,0.307289,-0.0640955,0.820495,-0.00869655,0.00246472,0.0975646,1,5.77011e-05,-9.38715e-06,9.10835e-06,0.0115402,-0.00187743,0.00182167,0.999142,0.0126604,0.0393452,0.0024921,-0.299284,-0.0806542,-0.87211,32.875,3,35943,3641429
38,1,0.999142,0.0127017,0.0393421,0.0024998,-0.722102,0.173323,9.78232,0.48081,-0.0803777,0.823831,-0.0072252,0.00172466,0.097823,1,4.27905e-05,-2.11039e-05,1.38585e-05,0.0085581,-0.00422077,0.0027717,0.999142,0.0127017,0.0393421,0.0024998,-0.299686,-0.0787802,-0.867521,32.875,3,35945,3641629
38,2,0.999141,0.012716,0.0393474,0.00250971,-0.668039,0.135706,9.80503,0.554801,-0.0746048,0.832816,-0.00668257,0.00135076,0.0980502,1,3.09757e-05,-1.08762e-05,1.72334e-05,0.00619514,-0.00217523,0.00344669,0.999141,0.012716,0.0393474,0.00250971,-0.300788,-0.0791518,-0.873585,32.875,3,35946,3641729
38,3,0.999141,0.012716,0.0393474,0.00250971,-0.668039,0.135706,9.80503,0.554801,-0.0746048,0.832816,-0.00668257,0.00135076,0.0980502,1,3.09757e-05,-1.08762e-05,1.72334e-05,0.00619514,-0.00217523,0.00344669,0.999141,0.012716,0.0393474,0.00250971,-0.300788,-0.0791518,-0.873585,32.875,3,35946,3641729
38,4,0.999141,0.012716,0.0393474,0.00250971,-0.668039,0.135706,9.80503,0.554801,-0.0746048,0.832816,-0.00668257,0.00135076,0.0980502,1,3.09757e-05,-1.08762e-05,1.72334e-05,0.00619514,-0.00217523,0.00344669,0.999141,0.012716,0.0393474,0.00250971,-0.300788,-0.0791518,-0.873585,32.875,3,35946,3641729
39,1,0.99914,0.0127593,0.039378,0.00250059,-0.671568,0.098405,9.78844,0.547416,-0.0904363,0.81705,-0.00671652,0.000973451,0.0978845,1,5.39106e-05,-4.26543e-06,3.32117e-06,0.0107821,-0.000853086,0.000664235,0.99914,0.0127593,0.039378,0.00250059,-0.301384,-0.0781002,-0.8776,32.875,3,35948,3641929
39,2,0.999139,0.0127952,0.0393834,0.0025005,-0.636634,0.111227,9.78627,0.573416,-0.081818,0.813677,-0.00636808,0.00110159,0.0978628,1,5.4149e-05,-8.81618e-06,6.54351e-06,0.0108298,-0.00176324,0.0013087,0.999139,0.0127952,0.0393834,0.0025005,-0.300812,-0.0762432,-0.87251,32.875,3,35949,3642029
39,3,0.999138,0.0128398,0.0393932,0.00249025,-0.660911,0.126726,9.79572,0.546585,-0.0933306,0.822556,-0.00660977,0.00125493,0.0979573,1,6.29853e-05,-3.38325e-06,-6.34976e-07,0.0125971,-0.000676649,-0.000126995,0.999138,0.0128398,0.0393932,0.00249025,-0.300147,-0.079273,-0.867025,32.875,3,35950,3642129
39,4,0.999138,0.0128398,0.0393932,0.00249025,-0.660911,0.126726,9.79572,0.546585,-0.0933306,0.822556,-0.00660977,0.00125493,0.0979573,1,6.29853e-05,-3.38325e-06,-6.34976e-07,0.0125971,-0.000676649,-0.000126995,0.999138,0.0128398,0.0393932,0.00249025,-0.300147,-0.079273,-0.867025,32.875,3,35950,3642129
40,1,0.999137,0.0129033,0.0394094,0.00248774,-0.753585,0.11759,9.79255,0.450292,-0.106952,0.823337,-0.00753766,0.0011657,0.0979255,1,5.10979e-05,-9.08275e-06,1.23156e-05,0.0102196,-0.00181655,0.00246312,0.999137,0.0129033,0.0394094,0.00248774,-0.301755,-0.0796226,-0.874096,32.875,3,35952,3642329
40,2,0.999137,0.0129033,0.0394094,0.00248774,-0.753585,0.11759,9.79255,0.450292,-0.106952,0.823337,-0.00753766,0.0011657,0.0979255,1,5.10979e-05,-9.08275e-06,1.23156e-05,0.0102196,-0.00181655,0.00246312,0.999137,0.0129033,0.0394094,0.00248774,-0.301755,-0.0796226,-0.874096,32.875,3,35952,3642329
40,3,0.999136,0.0129261,0.0394121,0.00250041,-0.816663,0.143326,9.79693,0.397456,-0.063126,0.831594,-0.00816854,0.00142476,0.0979693,1,4.17643e-05,-9.4753e-06,1.91329e-05,0.00835286,-0.00189506,0.00382659,0.999136,0.0129261,0.0394121,0.00250041,-0.303326,-0.0799992,-0.879653,32.875,3,35953,3642429
40,4,0.999136,0.0129261,0.0394121,0.00250041,-0.816663,0.143326,9.79693,0.397456,-0.063126,0.831594,-0.00816854,0.00142476,0.0979693,1,4.17643e-05,-9.4753e-06,1.91329e-05,0.00835286,-0.00189506,0.00382659,0.999136,0.0129261,0.0394121,0.00250041,-0.303326,-0.0799992,-0.879653,32.875,3,35953,3642429
41,1,0.999136,0.0129811,0.0393985,0.00250085,-0.860876,0.16272,9.75737,0.343537,-0.0371966,0.800961,-0.00861229,0.00161952,0.0975735,1,3.78024e-05,-1.77978e-05,1.7464e-05,0.00756047,-0.00355955,0.00349279,0.999136,0.0129811,0.0393985,0.00250085,-0.299761,-0.0801714,-0.871592,32.875,3,35955,3642629
41,2,0.999136,0.0130217,0.0393865,0.00250031,-0.860455,0.162002,9.76516,0.34279,-0.0555499,0.815575,-0.00860921,0.0016083,0.0976514,1,5.89379e-05,-2.36198e-05,1.24596e-05,0.0117876,-0.00472396,0.00249192,0.999136,0.0130217,0.0393865,0.00250031,-0.300123,-0.0807363,-0.867058,32.875,3,35956,3642729
41,3,0.999136,0.0130217,0.0393865,0.00250031,-0.860455,0.162002,9.76516,0.34279,-0.0555499,0.815575,-0.00860921,0.0016083,0.0976514,1,5.89379e-05,-2.36198e-05,1.24596e-05,0.0117876,-0.00472396,0.00249192,0.999136,0.0130217,0.0393865,0.00250031,-0.300123,-0.0807363,-0.867058,32.875,3,35956,3642729
41,4,0.999136,0.0130217,0.0393865,0.00250031,-0.860455,0.162002,9.76516,0.34279,-0.0555499,0.815575,-0.00860921,0.0016083,0.0976514,1,5.89379e-05,-2.36198e-05,1.24596e-05,0.0117876,-0.00472396,0.00249192,0.999136,0.0130217,0.0393865,0.00250031,-0.300123,-0.0807363,-0.867058,32.875,3,35956,3642729
42,1,0.999137,0.0130512,0.0393623,0.00250082,-0.828972,0.139912,9.77359,0.368138,-0.0933683,0.810066,-0.00829413,0.00139364,0.0977356,1,2.79043e-05,-2.24859e-05,1.93363e-06,0.00558086,-0.00449718,0.000386727,0.999137,0.0130512,0.0393623,0.00250082,-0.300263,-0.0811159,-0.873126,32.875,3,35958,3642929
42,2,0.999137,0.013075,0.0393556,0.00251068,-0.776268,0.144847,9.78073,0.424999,-0.0807587,0.810745,-0.00776645,0.00143978,0.0978071,1,4.2988e-05,-1.90064e-05,1.8239e-05,0.00859759,-0.00380129,0.0036478,0.999137,0.013075,0.0393556,0.00251068,-0.300883,-0.0800462,-0.87815,32.875,3,35959,3643029
42,3,0.999137,0.0131036,0.0393461,0.00251846,-0.772165,0.152421,9.78213,0.437632,-0.0653393,0.821072,-0.00772599,0.00151449,0.0978211,1,4.87064e-05,-2.20145e-05,1.21424e-05,0.00974128,-0.0044029,0.00242848,0.999137,0.0131036,0.0393461,0.00251846,-0.300426,-0.0785869,-0.87812,32.875,3,35960,3643129
42,4,0.999137,0.0131036,0.0393461,0.00251846,-0.772165,0.152421,9.78213,0.437632,-0.0653393,0.821072,-0.00772599,0.00151449,0.0978211,1,4.87064e-05,-2.20145e-05,1.21424e-05,0.00974128,-0.0044029,0.00242848,0.999137,0.0131036,0.0393461,0.00251846,-0.300426,-0.0785869,-0.87812,32.875,3,35960,3643129
43,1,0.999136,0.0131573,0.0393486,0.0025192,-0.809882,0.155937,9.77324,0.394419,-0.0638515,0.815376,-0.00809991,0.00155014,0.0977324,1,4.66555e-05,-5.50036e-06,6.95523e-06,0.00933111,-0.00110007,0.00139105,0.999136,0.0131573,0.0393486,0.0025192,-0.300681,-0.0768212,-0.867473,32.875,3,35962,3643329
43,2,0.999136,0.0131573,0.0393486,0.0025192,-0.809882,0.155937,9.77324,0.394419,-0.0638515,0.815376,-0.00809991,0.00155014,0.0977324,1,4.66555e-05,-5.50036e-06,6.95523e-06,0.00933111,-0.00110007,0.00139105,0.999136,0.0131573,0.0393486,0.0025192,-0.300681,-0.0768212,-0.867473,32.875,3,35962,3643329
43,3,0.999135,0.0131893,0.0393585,0.00252075,-0.829435,0.127532,9.76769,0.374928,-0.0961267,0.810129,-0.00829463,0.0012652,0.097677,1,5.08018e-05,-1.30041e-06,1.16565e-05,0.0101604,-0.000260082,0.00233129,0.999135,0.0131893,0.0393585,0.00252075,-0.300685,-0.0772999,-0.867989,32.875,3,35963,3643429
43,4,0.999135,0.0131893,0.0393585,0.00252075,-0.829435,0.127532,9.76769,0.374928,-0.0961267,0.810129,-0.00829463,0.0012652,0.097677,1,5.08018e-05,-1.30041e-06,1.16565e-05,0.0101604,-0.000260082,0.00233129,0.999135,0.0131893,0.0393585,0.00252075,-0.300685,-0.0772999,-0.867989,32.875,3,35963,3643429
44,1,0.999134,0.0132377,0.0393589,0.00251461,-0.844791,0.112592,9.77447,0.362026,-0.1216,0.810148,-0.00844915,0.00111641,0.0977447,1,4.79072e-05,-6.23279e-06,8.36672e-06,0.00958145,-0.00124656,0.00167334,0.999134,0.0132377,0.0393589,0.00251461,-0.300365,-0.0800773,-0.876638,32.875,3,35965,3643629
44,2,0.999134,0.0132677,0.039357,0.00252646,-0.864637,0.129831,9.77983,0.339715,-0.0986939,0.820204,-0.0086491,0.00128818,0.0977982,1,4.99262e-05,-1.36869e-05,2.09046e-05,0.00998525,-0.00273739,0.00418092,0.999134,0.0132677,0.039357,0.00252646,-0.300365,-0.0800773,-0.876638,32.875,3,35966,3643729
44,3,0.999134,0.0132677,0.039357,0.00252646,-0.864637,0.129831,9.77983,0.339715,-0.0986939,0.820204,-0.0086491,0.00128818,0.0977982,1,4.99262e-05,-1.36869e-05,2.09046e-05,0.00998525,-0.00273739,0.00418092,0.999134,0.0132677,0.039357,0.00252646,-0.300365,-0.0800773,-0.876638,32.875,3,35966,3643729
44,4,0.999134,0.0132677,0.039357,0.00252646,-0.864637,0.129831,9.77983,0.339715,-0.0986939,0.820204,-0.0086491,0.00128818,0.0977982,1,4.99262e-05,-1.36869e-05,2.09046e-05,0.00998525,-0.00273739,0.00418092,0.999134,0.0132677,0.039357,0.00252646,-0.300365,-0.0800773,-0.876638,32.875,3,35966,3643729
45,1,0.999133,0.0133284,0.039345,0.00254643,-0.881531,0.150963,9.77233,0.327952,-0.0663072,0.816228,-0.0088184,0.00149912,0.0977231,1,5.19585e-05,-1.55287e-05,1.99845e-05,0.0103917,-0.00310574,0.0039969,0.999133,0.0133284,0.039345,0.00254643,-0.299633,-0.0797828,-0.866029,32.875,3,35968,3643929
45,2,0.999134,0.0133813,0.0393272,0.00254465,-0.931065,0.15236,9.70518,0.294666,-0.0673886,0.753912,-0.00931647,0.00150931,0.0970514,1,7.23098e-05,-2.98042e-05,1.34796e-05,0.014462,-0.00596084,0.00269592,0.999134,0.0133813,0.0393272,0.00254465,-0.299209,-0.079263,-0.868039,32.875,3,35969,3644029
45,3,0.999136,0.0133991,0.0392648,0.00253562,-1.09213,0.152527,9.55741,0.0659468,-0.073335,0.613708,-0.0109356,0.00151798,0.0955726,1,3.79965e-05,-7.49247e-05,1.30885e-06,0.0075993,-0.0149849,0.000261769,0.999136,0.0133991,0.0392648,0.00253562,-0.300336,-0.0781713,-0.874071,32.875,3,35970,3644129
45,4,0.999136,0.0133991,0.0392648,0.00253562,-1.09213,0.152527,9.55741,0.0659468,-0.073335,0.613708,-0.0109356,0.00151798,0.0955726,1,3.79965e-05,-7.49247e-05,1.30885e-06,0.0075993,-0.0149849,0.000261769,0.999136,0.0133991,0.0392648,0.00253562,-0.300336,-0.0781713,-0.874071,32.875,3,35970,3644129
46,1,0.999144,0.0134314,0.0390391,0.00254879,-0.250385,0.141251,9.92136,0.961399,-0.0760613,0.914879,-0.00252655,0.00140372,0.0992131,1,4.3967e-05,-0.000114205,1.26059e-05,0.00879341,-0.0228409,0.00252118,0.999144,0.0134314,0.0390391,0.00254879,-0.299431,-0.0791007,-0.877126,32.875,3,35972,3644329
46,2,0.999147,0.0134574,0.0389611,0.00254174,-0.293907,0.122712,9.82141,0.928876,-0.0921224,0.850642,-0.00295642,0.00121798,0.0982137,1,4.63835e-05,-8.82727e-05,4.14629e-06,0.0092767,-0.0176545,0.000829258,0.999147,0.0134574,0.0389611,0.00254174,-0.29881,-0.0787251,-0.87106,32.875,3,35973,3644429
46,3,0.999147,0.0134574,0.0389611,0.00254174,-0.293907,0.122712,9.82141,0.928876,-0.0921224,0.850642,-0.00295642,0.00121798,0.0982137,1,4.63835e-05,-8.82727e-05,4.14629e-06,0.0092767,-0.0176545,0.000829258,0.999147,0.0134574,0.0389611,0.00254174,-0.29881,-0.0787251,-0.87106,32.875,3,35973,3644429
46,4,0.999147,0.0134574,0.0389611,0.00254174,-0.293907,0.122712,9.82141,0.928876,-0.0921224,0.850642,-0.00295642,0.00121798,0.0982137,1,4.63835e-05,-8.82727e-05,4.14629e-06,0.0092767,-0.0176545,0.000829258,0.999147,0.0134574,0.0389611,0.00254174,-0.29881,-0.0787251,-0.87106,32.875,3,35973,3644429
47,1,0.999151,0.0135218,0.038826,0.00252581,-0.132385,0.18369,9.85475,1.11874,-0.0714303,0.870115,-0.0013377,0.00182917,0.0985474,1,3.91509e-05,-7.01358e-05,8.55462e-06,0.00783018,-0.0140272,0.00171092,0.999151,0.0135218,0.038826,0.00252581,-0.30113,-0.0787682,-0.867514,32.875,3,35975,3644629
47,2,0.999155,0.0135335,0.0387316,0.00252982,-0.395791,0.127951,9.80251,0.781359,-0.11671,0.840944,-0.00397713,0.00127317,0.0980244,1,3.1744e-05,-9.78517e-05,1.40669e-05,0.0063488,-0.0195704,0.00281338,0.999155,0.0135335,0.0387316,0.00252982,-0.301294,-0.0776845,-0.87355,32.875,3,35976,3644729
47,3,0.999155,0.0135335,0.0387316,0.00252982,-0.395791,0.127951,9.80251,0.781359,-0.11671,0.840944,-0.00397713,0.00127317,0.0980244,1,3.1744e-05,-9.78517e-05,1.40669e-05,0.0063488,-0.0195704,0.00281338,0.999155,0.0135335,0.0387316,0.00252982,-0.301294,-0.0776845,-0.87355,32.875,3,35976,3644729
47,4,0.999155,0.0135335,0.0387316,0.00252982,-0.395791,0.127951,9.80251,0.781359,-0.11671,0.840944,-0.00397713,0.00127317,0.0980244,1,3.1744e-05,-9.78517e-05,1.40669e-05,0.0063488,-0.0195704,0.00281338,0.999155,0.0135335,0.0387316,0.00252982,-0.301294,-0.0776845,-0.87355,32.875,3,35976,3644729
48,1,0.999161,0.0136103,0.0385531,0.00247301,-0.017081,0.243746,9.90841,1.14793,-0.032148,0.909845,-0.000183778,0.00242396,0.0990844,1,6.82307e-05,-6.62994e-05,-3.51522e-05,0.0136461,-0.0132599,-0.00703044,0.999161,0.0136103,0.0385531,0.00247301,-0.303291,-0.0747239,-0.874485,32.875,3,35978,3644929
48,2,0.999164,0.0136066,0.0384713,0.0024695,-0.130024,0.178862,9.80891,1.07433,-0.119251,0.839909,-0.00131556,0.00178534,0.0980889,1,1.66055e-05,-7.80338e-05,5.46023e-06,0.0033211,-0.0156068,0.00109205,0.999164,0.0136066,0.0384713,0.0024695,-0.302731,-0.0728579,-0.869901,32.875,3,35979,3645029
48,3,0.999164,0.0136066,0.0384713,0.0024695,-0.130024,0.178862,9.80891,1.07433,-0.119251,0.839909,-0.00131556,0.00178534,0.0980889,1,1.66055e-05,-7.80338e-05,5.46023e-06,0.0033211,-0.0156068,0.00109205,0.999164,0.0136066,0.0384713,0.0024695,-0.302731,-0.0728579,-0.869901,32.875,3,35979,3645029
48,4,0.999164,0.0136066,0.0384713,0.0024695,-0.130024,0.178862,9.80891,1.07433,-0.119251,0.839909,-0.00131556,0.00178534,0.0980889,1,1.66055e-05,-7.80338e-05,5.46023e-06,0.0033211,-0.0156068,0.00109205,0.999164,0.0136066,0.0384713,0.0024695,-0.302731,-0.0728579,-0.869901,32.875,3,35979,3645029
49,1,0.99917,0.013657,0.0383105,0.00240906,0.171756,0.101623,9.93988,1.4398,-0.160637,0.862245,0.00170315,0.00100746,0.0993992,1,4.38325e-05,-7.26635e-05,-1.69061e-05,0.0087665,-0.0145327,-0.00338121,0.99917,0.013657,0.0383105,0.00240906,-0.302115,-0.0729611,-0.86435,32.875,3,35981,3645229
49,2,0.99917,0.013699,0.038283,0.00238319,0.101793,0.177243,9.88874,1.32231,-0.0615581,0.822907,0.00101485,0.00175967,0.0988876,1,6.43266e-05,-1.58682e-05,-1.6329e-05,0.0128653,-0.00317365,-0.0032658,0.99917,0.013699,0.038283,0.00238319,-0.301765,-0.0723872,-0.86939,32.875,3,35982,3645329
49,3,0.999171,0.0137591,0.0382496,0.00234669,-0.247502,0.138694,9.79746,0.897328,-0.0915051,0.735445,-0.00247863,0.00137083,0.0979747,1,8.28947e-05,-1.88239e-05,-2.68809e-05,0.0165789,-0.00376479,-0.00537618,0.999171,0.0137591,0.0382496,0.00234669,-0.301884,-0.0732635,-0.874964,32.875,3,35983,3645429
49,4,0.999171,0.0137591,0.0382496,0.00234669,-0.247502,0.138694,9.79746,0.897328,-0.0915051,0.735445,-0.00247863,0.00137083,0.0979747,1,8.28947e-05,-1.88239e-05,-2.68809e-05,0.0165789,-0.00376479,-0.00537618,0.999171,0.0137591,0.0382496,0.00234669,-0.301884,-0.0732635,-0.874964,32.875,3,35983,3645429
50,1,0.999178,0.0138571,0.03803,0.00230551,-1.00739,-0.115197,9.72471,0.20632,-0.341414,0.845187,-0.0101129,-0.00116557,0.0972429,1,6.9323e-05,-0.000200859,5.93932e-06,0.0138646,-0.0401718,0.00118786,0.999178,0.0138571,0.03803,0.00230551,-0.300671,-0.0729731,-0.864357,32.875,3,35985,3645629
50,2,0.99919,0.0139285,0.0377012,0.00224837,1.51038,0.0677209,9.8095,2.396,-0.294079,0.608165,0.0150421,0.000657395,0.0981046,1,9.46805e-05,-0.000314716,-4.10569e-05,0.0189361,-0.0629432,-0.00821137,0.99919,0.0139285,0.0377012,0.00224837,-0.301396,-0.0755482,-0.85633,32.875,3,35986,3645729
50,3,0.99919,0.0139285,0.0377012,0.00224837,1.51038,0.0677209,9.8095,2.396,-0.294079,0.608165,0.0150421,0.000657395,0.0981046,1,9.46805e-05,-0.000314716,-4.10569e-05,0.0189361,-0.0629432,-0.00821137,0.99919,0.0139285,0.0377012,0.00224837,-0.301396,-0.0755482,-0.85633,32.875,3,35986,3645729
50,4,0.99919,0.0139285,0.0377012,0.00224837,1.51038,0.0677209,9.8095,2.396,-0.294079,0.608165,0.0150421,0.000657395,0.0981046,1,9.46805e-05,-0.000314716,-4.10569e-05,0.0189361,-0.0629432,-0.00821137,0.99919,0.0139285,0.0377012,0.00224837,-0.301396,-0.0755482,-0.85633,32.875,3,35986,3645729
51,1,0.999196,0.0140501,0.0374908,0.00209663,0.228737,0.31223,9.78013,1.25228,-0.0588197,0.738796,0.00227256,0.00310619,0.0978022,1,8.07562e-05,-7.78361e-05,-6.73319e-05,0.0161512,-0.0155672,-0.0134664,0.999196,0.0140501,0.0374908,0.00209663,-0.304439,-0.0749282,-0.862363,32.875,3,35988,3645929
51,2,0.999203,0.0140204,0.0373271,0.00204704,-0.702109,-0.0752054,10.0062,0.27434,-0.328717,0.870572,-0.00704743,-0.000750037,0.10006,1,-7.1587e-06,-0.00013131,-4.15092e-05,-0.00143174,-0.026262,-0.00830185,0.999203,0.0140204,0.0373271,0.00204704,-0.304574,-0.0733838,-0.866874,32.875,3,35989,3646029
51,3,0.99921,0.0140594,0.0371077,0.00199333,1.11248,-0.295666,9.75759,2.12112,-0.504527,0.735218,0.0110879,-0.00296981,0.0975796,1,6.24784e-05,-0.000187666,-4.30888e-05,0.0124957,-0.0375332,-0.00861776,0.99921,0.0140594,0.0371077,0.00199333,-0.304027,-0.0729541,-0.863836,32.875,3,35990,3646129
51,4,0.99921,0.0140594,0.0371077,0.00199333,1.11248,-0.295666,9.75759,2.12112,-0.504527,0.735218,0.0110879,-0.00296981,0.0975796,1,6.24784e-05,-0.000187666,-4.30888e-05,0.0124957,-0.0375332,-0.00861776,0.99921,0.0140594,0.0371077,0.00199333,-0.304027,-0.0729541,-0.863836,32.875,3,35990,3646129
52,1,0.999223,0.0142422,0.0367146,0.00184743,-0.159361,0.313913,10.0654,1.2781,0.0364979,1.07177,-0.00161061,0.00312002,0.100654,1,9.61386e-05,-8.68185e-05,-7.62561e-05,0.0192277,-0.0173637,-0.0152512,0.999223,0.0142422,0.0367146,0.00184743,-0.301352,-0.0789536,-0.856911,32.875,3,35992,3646329
52,2,0.999223,0.0142422,0.0367146,0.00184743,-0.159361,0.313913,10.0654,1.2781,0.0364979,1.07177,-0.00161061,0.00312002,0.100654,1,9.61386e-05,-8.68185e-05,-7.62561e-05,0.0192277,-0.0173637,-0.0152512,0.999223,0.0142422,0.0367146,0.00184743,-0.301352,-0.0789536,-0.856911,32.875,3,35992,3646329
52,3,0.999232,0.0143011,0.0364295,0.0017478,1.81089,0.359882,10.2859,2.93431,0.0289893,1.16267,0.0180602,0.00357829,0.102868,1,8.46795e-05,-0.000239569,-8.59079e-05,0.0169359,-0.0479138,-0.0171816,0.999232,0.0143011,0.0364295,0.0017478,-0.301854,-0.0798981,-0.858445,32.875,3,35993,3646429
52,4,0.999232,0.0143011,0.0364295,0.0017478,1.81089,0.359882,10.2859,2.93431,0.0289893,1.16267,0.0180602,0.00357829,0.102868,1,8.46795e-05,-0.000239569,-8.59079e-05,0.0169359,-0.0479138,-0.0171816,0.999232,0.0143011,0.0364295,0.0017478,-0.301854,-0.0798981,-0.858445,32.875,3,35993,3646429
53,1,0.999242,0.0143576,0.0361509,0.00155825,0.321248,-0.102707,9.89366,1.46674,-0.373107,0.851215,0.0032008,-0.00103467,0.0989369,1,3.58621e-05,-5.82449e-05,-7.81888e-05,0.00717242,-0.011649,-0.0156378,0.999242,0.0143576,0.0361509,0.00155825,-0.301623,-0.0773099,-0.866975,32.875,3,35995,3646629
53,2,0.999252,0.0144448,0.0358527,0.00146198,1.24006,-0.0131938,9.57801,2.19803,-0.284404,0.483818,0.0123555,-0.000155656,0.0957859,1,0.000113143,-0.000235231,-8.25386e-05,0.0226287,-0.0470463,-0.0165077,0.999252,0.0144448,0.0358527,0.00146198,-0.299706,-0.0768382,-0.866973,32.875,3,35996,3646729
53,3,0.999252,0.0144448,0.0358527,0.00146198,1.24006,-0.0131938,9.57801,2.19803,-0.284404,0.483818,0.0123555,-0.000155656,0.0957859,1,0.000113143,-0.000235231,-8.25386e-05,0.0226287,-0.0470463,-0.0165077,0.999252,0.0144448,0.0358527,0.00146198,-0.299706,-0.0768382,-0.866973,32.875,3,35996,3646729
53,4,0.999252,0.0144448,0.0358527,0.00146198,1.24006,-0.0131938,9.57801,2.19803,-0.284404,0.483818,0.0123555,-0.000155656,0.0957859,1,0.000113143,-0.000235231,-8.25386e-05,0.0226287,-0.0470463,-0.0165077,0.999252,0.0144448,0.0358527,0.00146198,-0.299706,-0.0768382,-0.866973,32.875,3,35996,3646729
54,1,0.999265,0.0145935,0.035422,0.00124328,1.84843,0.138049,9.95957,3.15183,-0.0144577,0.998035,0.0184484,0.0013457,0.0996028,1,0.000153915,-0.000181762,-0.000111845,0.030783,-0.0363524,-0.0223691,0.999265,0.0145935,0.035422,0.00124328,-0.30363,-0.0799902,-0.852378,32.875,3,35998,3646929
54,2,0.999271,0.0146854,0.0352251,0.00109782,1.94533,0.124175,9.90279,2.98325,0.0610373,0.544678,0.0194304,0.00121267,0.0990328,1,0.000120692,-0.000116968,-0.00013315,0.0241385,-0.0233935,-0.0266301,0.999271,0.0146854,0.0352251,0.00109782,-0.306989,-0.0790047,-0.851331,32.875,3,35999,3647029
54,3,0.999271,0.0146854,0.0352251,0.00109782,1.94533,0.124175,9.90279,2.98325,0.0610373,0.544678,0.0194304,0.00121267,0.0990328,1,0.000120692,-0.000116968,-0.00013315,0.0241385,-0.0233935,-0.0266301,0.999271,0.0146854,0.0352251,0.00109782,-0.306989,-0.0790047,-0.851331,32.875,3,35999,3647029
54,4,0.999271,0.0146854,0.0352251,0.00109782,1.94533,0.124175,9.90279,2.98325,0.0610373,0.544678,0.0194304,0.00121267,0.0990328,1,0.000120692,-0.000116968,-0.00013315,0.0241385,-0.0233935,-0.0266301,0.999271,0.0146854,0.0352251,0.00109782,-0.306989,-0.0790047,-0.851331,32.875,3,35999,3647029
55,1,0.99928,0.0149485,0.0348654,0.000779381,0.966974,-0.0739395,10.104,1.90117,-0.618465,1.02112,0.00964226,-0.00077566,0.101042,1,0.000164432,-0.000134833,-0.00015719,0.0328865,-0.0269665,-0.0314379,0.99928,0.0149485,0.0348654,0.000779381,-0.308157,-0.0769194,-0.85835,32.875,3,36001,3647229
55,2,0.999286,0.015082,0.0346494,0.000435807,-0.1178,0.420225,10.4857,1.13394,-0.0823961,1.64475,-0.00117766,0.00418444,0.104858,1,8.68188e-05,-5.22073e-06,-0.000170166,0.0173638,-0.00104415,-0.0340333,0.999286,0.015082,0.0346494,0.000435807,-0.305619,-0.0760721,-0.852282,32.875,3,36003,3647429
55,3,0.999286,0.015082,0.0346494,0.000435807,-0.1178,0.420225,10.4857,1.13394,-0.0823961,1.64475,-0.00117766,0.00418444,0.104858,1,8.68188e-05,-5.22073e-06,-0.000170166,0.0173638,-0.00104415,-0.0340333,0.999286,0.015082,0.0346494,0.000435807,-0.305619,-0.0760721,-0.852282,32.875,3,36003,3647429
55,4,0.999286,0.015082,0.0346494,0.000435807,-0.1178,0.420225,10.4857,1.13394,-0.0823961,1.64475,-0.00117766,0.00418444,0.104858,1,8.68188e-05,-5.22073e-06,-0.000170166,0.0173638,-0.00104415,-0.0340333,0.999286,0.015082,0.0346494,0.000435807,-0.305619,-0.0760721,-0.852282,32.875,3,36003,3647429
56,1,0.999295,0.0151303,0.0343682,4.93603e-05,1.27405,0.361246,10.309,2.41598,-0.116625,1.25318,0.0127481,0.00360212,0.103089,1,2.65913e-05,3.04703e-05,-0.000190506,0.00531826,0.00609406,-0.0381012,0.999295,0.0151303,0.0343682,4.93603e-05,-0.298889,-0.0809427,-0.855957,32.875,3,36005,3647629
56,2,0.999298,0.0151271,0.0342888,-0.000172575,0.316368,0.151423,9.87088,1.46461,-0.224252,0.91518,0.00316957,0.00150782,0.0987087,1,2.55014e-05,2.65095e-05,-0.000217018,0.00510027,0.0053019,-0.0434036,0.999298,0.0151271,0.0342888,-0.000172575,-0.299559,-0.0783916,-0.861958,32.875,3,36006,3647729
56,3,0.999298,0.0151271,0.0342888,-0.000172575,0.316368,0.151423,9.87088,1.46461,-0.224252,0.91518,0.00316957,0.00150782,0.0987087,1,2.55014e-05,2.65095e-05,-0.000217018,0.00510027,0.0053019,-0.0434036,0.999298,0.0151271,0.0342888,-0.000172575,-0.299559,-0.0783916,-0.861958,32.875,3,36006,3647729
56,4,0.999298,0.0151271,0.0342888,-0.000172575,0.316368,0.151423,9.87088,1.46461,-0.224252,0.91518,0.00316957,0.00150782,0.0987087,1,2.55014e-05,2.65095e-05,-0.000217018,0.00510027,0.0053019,-0.0434036,0.999298,0.0151271,0.0342888,-0.000172575,-0.299559,-0.0783916,-0.861958,32.875,3,36006,3647729
57,1,0.999305,0.0152162,0.0340417,-0.000626169,0.845926,0.143322,9.77724,1.732,-0.192039,0.782351,0.00845197,0.00140605,0.0977734,1,0.00011947,-4.05672e-05,-0.000224996,0.0238941,-0.00811343,-0.0449992,0.999305,0.0152162,0.0340417,-0.000626169,-0.301052,-0.0797889,-0.865012,32.875,3,36008,3647929
57,2,0.999309,0.0152715,0.0338903,-0.000844192,1.3469,-0.136171,10.0863,2.39879,-0.43602,0.983639,0.0134608,-0.0013844,0.100864,1,8.44962e-05,-3.78762e-05,-0.000209695,0.0168992,-0.00757523,-0.041939,0.999309,0.0152715,0.0338903,-0.000844192,-0.305143,-0.0794454,-0.854884,32.875,3,36009,3648029
57,3,0.999311,0.0153297,0.0337769,-0.0010649,0.962132,-0.0296736,9.89035,2.10587,-0.160004,0.747938,0.00962202,-0.000318275,0.0989034,1,8.82432e-05,4.201e-06,-0.000212243,0.0176486,0.000840199,-0.0424486,0.999311,0.0153297,0.0337769,-0.0010649,-0.304942,-0.0805562,-0.847334,32.875,3,36010,3648129
57,4,0.999311,0.0153297,0.0337769,-0.0010649,0.962132,-0.0296736,9.89035,2.10587,-0.160004,0.747938,0.00962202,-0.000318275,0.0989034,1,8.82432e-05,4.201e-06,-0.000212243,0.0176486,0.000840199,-0.0424486,0.999311,0.0153297,0.0337769,-0.0010649,-0.304942,-0.0805562,-0.847334,32.875,3,36010,3648129
58,1,0.999317,0.0154325,0.0335448,-0.00157005,1.26994,0.155105,9.7219,2.16521,-0.0744053,0.758115,0.0127021,0.00152335,0.0972191,1,0.000109636,9.95716e-06,-0.000251079,0.0219272,0.00199143,-0.0502158,0.999317,0.0154325,0.0335448,-0.00157005,-0.30136,-0.0784658,-0.8569,32.875,3,36012,3648329
58,2,0.999319,0.015483,0.0334354,-0.0017973,1.57595,0.171465,10.1495,2.71158,-0.191125,0.932411,0.015764,0.00169116,0.101495,1,8.16135e-05,1.86252e-05,-0.000219458,0.0163227,0.00372505,-0.0438917,0.999319,0.015483,0.0334354,-0.0017973,-0.300061,-0.0807814,-0.864534,32.875,3,36013,3648429
58,3,0.999319,0.015483,0.0334354,-0.0017973,1.57595,0.171465,10.1495,2.71158,-0.191125,0.932411,0.015764,0.00169116,0.101495,1,8.16135e-05,1.86252e-05,-0.000219458,0.0163227,0.00372505,-0.0438917,0.999319,0.015483,0.0334354,-0.0017973,-0.300061,-0.0807814,-0.864534,32.875,3,36013,3648429
58,4,0.999319,0.015483,0.0334354,-0.0017973,1.57595,0.171465,10.1495,2.71158,-0.191125,0.932411,0.015764,0.00169116,0.101495,1,8.16135e-05,1.86252e-05,-0.000219458,0.0163227,0.00372505,-0.0438917,0.999319,0.015483,0.0334354,-0.0017973,-0.300061,-0.0807814,-0.864534,32.875,3,36013,3648429
59,1,0.99932,0.0156315,0.0333164,-0.00225094,0.470547,0.456476,9.68033,1.56421,0.0467324,0.579317,0.00472261,0.00454029,0.0968036,1,0.000115637,7.81533e-05,-0.000221078,0.0231274,0.0156307,-0.0442157,0.99932,0.0156315,0.0333164,-0.00225094,-0.300365,-0.0789796,-0.855906,32.875,3,36015,3648629
59,2,0.999321,0.0156404,0.0332554,-0.0025203,1.87628,0.232627,10.4488,2.97613,0.0446583,1.25548,0.0187796,0.0023078,0.104485,1,4.09489e-05,7.44393e-05,-0.000263911,0.00818979,0.0148879,-0.0527822,0.999321,0.0156404,0.0332554,-0.0025203,-0.300127,-0.0801174,-0.846841,32.875,3,36016,3648729
59,3,0.999321,0.0156404,0.0332554,-0.0025203,1.87628,0.232627,10.4488,2.97613,0.0446583,1.25548,0.0187796,0.0023078,0.104485,1,4.09489e-05,7.44393e-05,-0.000263911,0.00818979,0.0148879,-0.0527822,0.999321,0.0156404,0.0332554,-0.0025203,-0.300127,-0.0801174,-0.846841,32.875,3,36016,3648729
59,4,0.999321,0.0156404,0.0332554,-0.0025203,1.87628,0.232627,10.4488,2.97613,0.0446583,1.25548,0.0187796,0.0023078,0.104485,1,4.09489e-05,7.44393e-05,-0.000263911,0.00818979,0.0148879,-0.0527822,0.999321,0.0156404,0.0332554,-0.0025203,-0.300127,-0.0801174,-0.846841,32.875,3,36016,3648729
60,1,0.999314,0.0157462,0.0333822,-0.00312039,0.127301,-0.393134,9.74366,1.41925,-0.630269,0.695508,0.0013081,-0.00395273,0.0974352,1,0.000105565,0.000192833,-0.000314496,0.021113,0.0385666,-0.0628992,0.999314,0.0157462,0.0333822,-0.00312039,-0.301759,-0.0804489,-0.854922,32.875,3,36018,3648929
60,2,0.999312,0.0158727,0.0333561,-0.00343018,1.10557,0.287979,9.71475,2.06675,-0.0661833,0.577206,0.01108,0.00284193,0.0971459,1,0.000160576,0.000115993,-0.000301061,0.0321153,0.0231985,-0.0602122,0.999312,0.0158727,0.0333561,-0.00343018,-0.297125,-0.0808415,-0.862528,32.875,3,36019,3649029
60,3,0.999309,0.0159074,0.0333963,-0.00371858,0.571429,0.176449,9.62314,1.6783,-0.265444,0.679655,0.00575084,0.00174824,0.0962295,1,6.74909e-05,0.000184732,-0.000284289,0.0134982,0.0369465,-0.0568579,0.999309,0.0159074,0.0333963,-0.00371858,-0.295694,-0.0822897,-0.864082,32.875,3,36020,3649129
60,4,0.999309,0.0159074,0.0333963,-0.00371858,0.571429,0.176449,9.62314,1.6783,-0.265444,0.679655,0.00575084,0.00174824,0.0962295,1,6.74909e-05,0.000184732,-0.000284289,0.0134982,0.0369465,-0.0568579,0.999309,0.0159074,0.0333963,-0.00371858,-0.295694,-0.0822897,-0.864082,32.875,3,36020,3649129
61,1,0.999312,0.0160148,0.0331783,-0.00431358,1.18231,0.450492,9.85303,2.16919,0.156688,0.666884,0.0118257,0.00447474,0.0985313,1,0.000117596,-5.87083e-07,-0.000295899,0.0235192,-0.000117417,-0.0591799,0.999312,0.0160148,0.0331783,-0.00431358,-0.29925,-0.078617,-0.849337,32.875,3,36022,3649329
61,2,0.99931,0.0160401,0.0331691,-0.00462506,1.00732,-0.208099,10.3324,2.32316,-0.470425,1.2026,0.0101006,-0.00209938,0.103321,1,5.90667e-05,0.0001389,-0.000306851,0.0118133,0.0277801,-0.0613702,0.99931,0.0160401,0.0331691,-0.00462506,-0.302047,-0.0796227,-0.846317,32.875,3,36023,3649429
61,3,0.99931,0.0160401,0.0331691,-0.00462506,1.00732,-0.208099,10.3324,2.32316,-0.470425,1.2026,0.0101006,-0.00209938,0.103321,1,5.90667e-05,0.0001389,-0.000306851,0.0118133,0.0277801,-0.0613702,0.99931,0.0160401,0.0331691,-0.00462506,-0.302047,-0.0796227,-0.846317,32.875,3,36023,3649429
61,4,0.99931,0.0160401,0.0331691,-0.00462506,1.00732,-0.208099,10.3324,2.32316,-0.470425,1.2026,0.0101006,-0.00209938,0.103321,1,5.90667e-05,0.0001389,-0.000306851,0.0118133,0.0277801,-0.0613702,0.99931,0.0160401,0.0331691,-0.00462506,-0.302047,-0.0796227,-0.846317,32.875,3,36023,3649429
62,1,0.99931,0.0160697,0.03308,-0.00528991,0.977603,0.133257,9.97499,2.07712,0.237778,0.693218,0.00979983,0.00134012,0.0997474,1,-7.00423e-05,0.000114909,-0.000328209,-0.0140085,0.0229818,-0.0656419,0.99931,0.0160697,0.03308,-0.00528991,-0.296615,-0.08183,-0.862048,32.875,3,36025,3649629
62,2,0.999307,0.016112,0.0330885,-0.00560756,0.474982,-0.107739,10.3071,1.63641,-0.0103651,1.32833,0.0047824,-0.00109606,0.103069,1,7.61479e-05,0.000161342,-0.000311953,0.0152296,0.0322684,-0.0623906,0.999307,0.016112,0.0330885,-0.00560756,-0.296089,-0.0823489,-0.860546,32.875,3,36026,3649729
62,3,0.999307,0.016112,0.0330885,-0.00560756,0.474982,-0.107739,10.3071,1.63641,-0.0103651,1.32833,0.0047824,-0.00109606,0.103069,1,7.61479e-05,0.000161342,-0.000311953,0.0152296,0.0322684,-0.0623906,0.999307,0.016112,0.0330885,-0.00560756,-0.296089,-0.0823489,-0.860546,32.875,3,36026,3649729
62,4,0.999307,0.016112,0.0330885,-0.00560756,0.474982,-0.107739,10.3071,1.63641,-0.0103651,1.32833,0.0047824,-0.00109606,0.103069,1,7.61479e-05,0.000161342,-0.000311953,0.0152296,0.0322684,-0.0623906,0.999307,0.016112,0.0330885,-0.00560756,-0.296089,-0.0823489,-0.860546,32.875,3,36026,3649729
63,1,0.999304,0.0163359,0.0329294,-0.00637554,0.121296,1.60012,8.30756,1.1819,1.26462,-0.632266,0.00123261,0.0159807,0.0830793,1,0.000117821,4.43558e-05,-0.000384043,0.0235641,0.00887116,-0.0768086,0.999304,0.0163359,0.0329294,-0.00637554,-0.298169,-0.0806392,-0.845852,32.875,3,36028,3649929
63,2,0.999314,0.0161739,0.0326229,-0.0068206,0.728002,0.781186,9.20498,1.63724,0.299139,-0.130254,0.00725786,0.00782868,0.0920502,1,-0.000126297,-0.000157962,-0.000442337,-0.0252595,-0.0315924,-0.0884673,0.999314,0.0161739,0.0326229,-0.0068206,-0.29634,-0.0815496,-0.850426,32.875,3,36029,3650029
63,3,0.999323,0.0159013,0.0323986,-0.00720523,1.61028,0.257549,10.2311,2.67534,-0.255145,1.05265,0.0160895,0.00261232,0.102312,1,-0.000240986,-7.4421e-05,-0.000387718,-0.0481972,-0.0148842,-0.0775436,0.999323,0.0159013,0.0323986,-0.00720523,-0.296019,-0.0828817,-0.858033,32.875,3,36030,3650129
63,4,0.999323,0.0159013,0.0323986,-0.00720523,1.61028,0.257549,10.2311,2.67534,-0.255145,1.05265,0.0160895,0.00261232,0.102312,1,-0.000240986,-7.4421e-05,-0.000387718,-0.0481972,-0.0148842,-0.0775436,0.999323,0.0159013,0.0323986,-0.00720523,-0.296019,-0.0828817,-0.858033,32.875,3,36030,3650129
64,1,0.999323,0.0156622,0.03233,-0.00796431,0.261551,-0.300147,10.065,1.47097,-0.723161,1.16317,0.00265452,-0.00301931,0.100648,1,7.8174e-05,0.000205743,-0.000399275,0.0156348,0.0411486,-0.079855,0.999323,0.0156622,0.03233,-0.00796431,-0.298428,-0.0804499,-0.856453,32.875,3,36032,3650329
64,2,0.999323,0.0156622,0.03233,-0.00796431,0.261551,-0.300147,10.065,1.47097,-0.723161,1.16317,0.00265452,-0.00301931,0.100648,1,7.8174e-05,0.000205743,-0.000399275,0.0156348,0.0411486,-0.079855,0.999323,0.0156622,0.03233,-0.00796431,-0.298428,-0.0804499,-0.856453,32.875,3,36032,3650329
64,3,0.99932,0.0156466,0.0323253,-0.00835783,0.0608276,-0.115857,10.1,1.21204,-0.391685,1.16859,0.000638445,-0.00116284,0.100999,1,1.87511e-05,0.000153837,-0.000390175,0.00375022,0.0307673,-0.078035,0.99932,0.0156466,0.0323253,-0.00835783,-0.296865,-0.0781402,-0.849843,32.875,3,36033,3650429
64,4,0.99932,0.0156466,0.0323253,-0.00835783,0.0608276,-0.115857,10.1,1.21204,-0.391685,1.16859,0.000638445,-0.00116284,0.100999,1,1.87511e-05,0.000153837,-0.000390175,0.00375022,0.0307673,-0.078035,0.99932,0.0156466,0.0323253,-0.00835783,-0.296865,-0.0781402,-0.849843,32.875,3,36033,3650429
65,1,0.999316,0.0155587,0.0323199,-0.00903991,0.475381,0.0194861,10.0313,1.66507,-0.439634,1.00557,0.00479278,0.000185676,0.100311,1,3.07017e-05,0.000193646,-0.000316922,0.00614034,0.0387292,-0.0633844,0.999316,0.0155587,0.0323199,-0.00903991,-0.294945,-0.078635,-0.850368,32.875,3,36035,3650629
65,2,0.999312,0.0155298,0.0323566,-0.00939558,0.386543,-0.163861,9.70662,1.52943,-0.294247,0.698431,0.00390215,-0.00164233,0.0970646,1,5.09826e-06,0.000195109,-0.000352215,0.00101965,0.0390218,-0.070443,0.999312,0.0155298,0.0323566,-0.00939558,-0.297918,-0.0785479,-0.853888,32.875,3,36036,3650729
65,3,0.999312,0.0155298,0.0323566,-0.00939558,0.386543,-0.163861,9.70662,1.52943,-0.294247,0.698431,0.00390215,-0.00164233,0.0970646,1,5.09826e-06,0.000195109,-0.000352215,0.00101965,0.0390218,-0.070443,0.999312,0.0155298,0.0323566,-0.00939558,-0.297918,-0.0785479,-0.853888,32.875,3,36036,3650729
65,4,0.999312,0.0155298,0.0323566,-0.00939558,0.386543,-0.163861,9.70662,1.52943,-0.294247,0.698431,0.00390215,-0.00164233,0.0970646,1,5.09826e-06,0.000195109,-0.000352215,0.00101965,0.0390218,-0.070443,0.999312,0.0155298,0.0323566,-0.00939558,-0.297918,-0.0785479,-0.853888,32.875,3,36036,3650729
66,1,0.999301,0.0153885,0.0325051,-0.0101731,0.395542,0.697708,10.0034,1.44939,0.516202,0.976197,0.00401496,0.0070065,0.10003,1,-0.000162852,0.000269916,-0.000396638,-0.0325703,0.0539832,-0.0793277,0.999301,0.0153885,0.0325051,-0.0101731,-0.295599,-0.0785048,-0.857433,32.875,3,36038,3650929
66,2,0.999296,0.0152344,0.0326282,-0.0105709,-0.168841,-0.162374,9.17453,1.07218,-0.39523,0.474055,-0.00163816,-0.00159996,0.0917466,1,-0.000122328,0.000280932,-0.000400921,-0.0244655,0.0561863,-0.0801842,0.999296,0.0152344,0.0326282,-0.0105709,-0.294098,-0.0790406,-0.855431,32.875,3,36039,3651029
66,3,0.999296,0.0152344,0.0326282,-0.0105709,-0.168841,-0.162374,9.17453,1.07218,-0.39523,0.474055,-0.00163816,-0.00159996,0.0917466,1,-0.000122328,0.000280932,-0.000400921,-0.0244655,0.0561863,-0.0801842,0.999296,0.0152344,0.0326282,-0.0105709,-0.294098,-0.0790406,-0.855431,32.875,3,36039,3651029
66,4,0.999296,0.0152165,0.0325047,-0.0109457,-0.412106,-1.69174,8.42968,0.399472,-1.83803,-0.742189,-0.00412775,-0.0169171,0.0842965,1,1.61472e-05,3.41442e-05,-0.000367871,0.00322944,0.00682885,-0.0735742,0.999296,0.0152165,0.0325047,-0.0109457,-0.295829,-0.0782023,-0.846819,32.875,3,36040,3651129
67,1,0.999296,0.0153903,0.0322818,-0.0113613,0.739294,-0.627915,9.74032,1.31621,-0.771142,0.500194,0.0073751,-0.00632691,0.0974015,1,0.000214813,-6.56905e-05,-0.000400688,0.0429626,-0.0131381,-0.0801377,0.999296,0.0153903,0.0322818,-0.0113613,-0.297223,-0.0782264,-0.844793,32.875,3,36041,3651229
67,2,0.999295,0.0154987,0.0321239,-0.0117533,0.58002,0.323418,10.1125,1.84974,0.274744,1.02376,0.0058026,0.00319954,0.101126,1,0.000149531,-2.06753e-07,-0.000378838,0.0299063,-4.13506e-05,-0.0757677,0.999295,0.0154987,0.0321239,-0.0117533,-0.296906,-0.0771467,-0.850831,32.875,3,36042,3651329
67,3,0.999291,0.0156623,0.0319935,-0.0121864,0.727553,-0.586861,10.3132,1.62392,-0.795947,1.20898,0.00727638,-0.00591707,0.103129,1,0.00020527,2.81221e-05,-0.000419978,0.0410539,0.00562443,-0.0839955,0.999291,0.0156623,0.0319935,-0.0121864,-0.297078,-0.0770205,-0.857898,32.875,3,36043,3651429
67,4,0.999291,0.0156623,0.0319935,-0.0121864,0.727553,-0.586861,10.3132,1.62392,-0.795947,1.20898,0.00727638,-0.00591707,0.103129,1,0.00020527,2.81221e-05,-0.000419978,0.0410539,0.00562443,-0.0839955,0.999291,0.0156623,0.0319935,-0.0121864,-0.297078,-0.0770205,-0.857898,32.875,3,36043,3651429
68,1,0.999285,0.0159675,0.0317128,-0.0130162,0.786016,0.360551,10.8992,1.46858,-0.348123,1.60845,0.00784082,0.00353881,0.108996,1,0.000276081,-0.000102308,-0.000414919,0.0552162,-0.0204616,-0.0829839,0.999285,0.0159675,0.0317128,-0.0130162,-0.297354,-0.0762032,-0.848788,32.875,3,36045,3651629
68,2,0.999278,0.0160135,0.0317071,-0.0134518,0.122933,-0.0945082,10.1604,1.41159,-0.382608,1.23888,0.00125927,-0.000963652,0.101604,1,8.61559e-05,0.000151354,-0.000426888,0.0172312,0.0302708,-0.0853775,0.999278,0.0160135,0.0317071,-0.0134518,-0.297235,-0.0767721,-0.844255,32.875,3,36046,3651729
68,3,0.999278,0.0160135,0.0317071,-0.0134518,0.122933,-0.0945082,10.1604,1.41159,-0.382608,1.23888,0.00125927,-0.000963652,0.101604,1,8.61559e-05,0.000151354,-0.000426888,0.0172312,0.0302708,-0.0853775,0.999278,0.0160135,0.0317071,-0.0134518,-0.297235,-0.0767721,-0.844255,32.875,3,36046,3651729
68,4,0.999278,0.0160135,0.0317071,-0.0134518,0.122933,-0.0945082,10.1604,1.41159,-0.382608,1.23888,0.00125927,-0.000963652,0.101604,1,8.61559e-05,0.000151354,-0.000426888,0.0172312,0.0302708,-0.0853775,0.999278,0.0160135,0.0317071,-0.0134518,-0.297235,-0.0767721,-0.844255,32.875,3,36046,3651729
69,1,0.999269,0.0162603,0.0314992,-0.0142971,0.206463,-0.920975,9.43545,1.31156,-1.31668,0.429536,0.00206915,-0.00924712,0.0943507,1,0.000189168,6.36051e-05,-0.000405565,0.0378337,0.012721,-0.0811131,0.999269,0.0162603,0.0314992,-0.0142971,-0.297384,-0.0795545,-0.852397,32.875,3,36048,3651929
69,2,0.99927,0.0163209,0.0312438,-0.0147024,-0.096194,-0.333753,9.54246,0.436649,-0.357082,0.316391,-0.000983737,-0.00335679,0.0954237,1,0.000104909,-0.000100494,-0.000391144,0.0209819,-0.0200989,-0.0782288,0.99927,0.0163209,0.0312438,-0.0147024,-0.298921,-0.0789916,-0.855913,32.875,3,36049,3652029
69,3,0.99927,0.0163209,0.0312438,-0.0147024,-0.096194,-0.333753,9.54246,0.436649,-0.357082,0.316391,-0.000983737,-0.00335679,0.0954237,1,0.000104909,-0.000100494,-0.000391144,0.0209819,-0.0200989,-0.0782288,0.99927,0.0163209,0.0312438,-0.0147024,-0.298921,-0.0789916,-0.855913,32.875,3,36049,3652029
69,4,0.999263,0.0166506,0.0310909,-0.0151401,0.755258,0.154541,9.75253,1.92557,-0.549604,0.810599,0.00755466,0.00146612,0.0975264,1,0.000374293,4.19983e-06,-0.000416292,0.0748586,0.000839966,-0.0832583,0.999263,0.0166506,0.0310909,-0.0151401,-0.29754,-0.0789585,-0.858444,32.875,3,36050,3652129
70,1,0.999261,0.0167634,0.0308865,-0.0155571,0.168312,-0.388199,9.62327,0.954593,-0.461318,0.571749,0.00167052,-0.00391366,0.0962316,1,0.00015753,-4.9247e-05,-0.000401307,0.031506,-0.0098494,-0.0802614,0.999261,0.0167634,0.0308865,-0.0155571,-0.296927,-0.0795404,-0.853409,32.875,3,36051,3652229
70,2,0.999247,0.0170685,0.0306842,-0.0165113,1.11158,-1.62055,12.155,1.89485,-1.53062,2.75107,0.0111177,-0.016212,0.121549,1,-1.71313e-05,7.14703e-05,-0.000477476,-0.00342626,0.0142941,-0.0954951,0.999247,0.0170685,0.0306842,-0.0165113,-0.301163,-0.0800553,-0.849866,32.875,3,36053,3652429
70,3,0.999247,0.0170685,0.0306842,-0.0165113,1.11158,-1.62055,12.155,1.89485,-1.53062,2.75107,0.0111177,-0.016212,0.121549,1,-1.71313e-05,7.14703e-05,-0.000477476,-0.00342626,0.0142941,-0.0954951,0.999247,0.0170685,0.0306842,-0.0165113,-0.301163,-0.0800553,-0.849866,32.875,3,36053,3652429
70,4,0.999247,0.0170685,0.0306842,-0.0165113,1.11158,-1.62055,12.155,1.89485,-1.53062,2.75107,0.0111177,-0.016212,0.121549,1,-1.71313e-05,7.14703e-05,-0.000477476,-0.00342626,0.0142941,-0.0954951,0.999247,0.0170685,0.0306842,-0.0165113,-0.301163,-0.0800553,-0.849866,32.875,3,36053,3652429
71,1,0.999201,0.0184689,0.0308984,-0.0173358,-1.71632,-0.222701,7.23363,-0.993553,-1.41341,-1.5999,-0.0171467,-0.0023392,0.0723367,1,0.000863031,0.000125996,-0.000369102,0.172606,0.0251991,-0.0738205,0.999201,0.0184689,0.0308984,-0.0173358,-0.298992,-0.0827946,-0.861553,32.875,3,36055,3652629
71,2,0.999197,0.0187496,0.0306547,-0.0177085,-0.285072,1.90057,9.24743,0.55793,1.33489,-0.0316205,-0.0028545,0.0189459,0.0924865,1,0.000333526,-9.1962e-05,-0.000348625,0.0667052,-0.0183924,-0.069725,0.999197,0.0187496,0.0306547,-0.0177085,-0.300394,-0.0808856,-0.858474,32.875,3,36056,3652729
71,3,0.999197,0.0187496,0.0306547,-0.0177085,-0.285072,1.90057,9.24743,0.55793,1.33489,-0.0316205,-0.0028545,0.0189459,0.0924865,1,0.000333526,-9.1962e-05,-0.000348625,0.0667052,-0.0183924,-0.069725,0.999197,0.0187496,0.0306547,-0.0177085,-0.300394,-0.0808856,-0.858474,32.875,3,36056,3652729
71,4,0.999197,0.0187496,0.0306547,-0.0177085,-0.285072,1.90057,9.24743,0.55793,1.33489,-0.0316205,-0.0028545,0.0189459,0.0924865,1,0.000333526,-9.1962e-05,-0.000348625,0.0667052,-0.0183924,-0.069725,0.999197,0.0187496,0.0306547,-0.0177085,-0.300394,-0.0808856,-0.858474,32.875,3,36056,3652729
72,1,0.999184,0.0191333,0.0303578,-0.0185478,0.0813561,1.45012,9.53321,1.21747,1.22373,0.845244,0.000845981,0.0144771,0.0953355,1,0.000122827,0.000106758,-0.000416318,0.0245654,0.0213516,-0.0832636,0.999184,0.0191333,0.0303578,-0.0185478,-0.299676,-0.084918,-0.851496,32.875,3,36058,3652929
72,2,0.999171,0.019449,0.0302735,-0.0190325,0.704176,-1.1485,9.12299,1.56625,-1.67356,-0.226843,0.0070432,-0.0115573,0.0912206,1,0.000360283,6.67678e-05,-0.000466139,0.0720567,0.0133536,-0.0932277,0.999171,0.019449,0.0302735,-0.0190325,-0.301124,-0.08683,-0.853047,32.875,3,36059,3653029
72,3,0.99916,0.0196583,0.0301905,-0.0195145,-0.192988,0.427101,8.89969,0.547357,0.395453,-0.0951934,-0.00191408,0.00422708,0.0889994,1,0.000256836,6.65996e-05,-0.000464702,0.0513672,0.0133199,-0.0929403,0.99916,0.0196583,0.0301905,-0.0195145,-0.299792,-0.0882061,-0.858639,32.875,3,36060,3653129
72,4,0.99916,0.0196583,0.0301905,-0.0195145,-0.192988,0.427101,8.89969,0.547357,0.395453,-0.0951934,-0.00191408,0.00422708,0.0889994,1,0.000256836,6.65996e-05,-0.000464702,0.0513672,0.0133199,-0.0929403,0.99916,0.0196583,0.0301905,-0.0195145,-0.299792,-0.0882061,-0.858639,32.875,3,36060,3653129
73,1,0.999141,0.0201142,0.0298313,-0.0205374,-0.162716,-0.237822,9.42883,0.499882,-0.185699,-0.0516064,-0.00165723,-0.00239163,0.0942875,1,7.96657e-05,-0.000147017,-0.000490713,0.0159331,-0.0294034,-0.0981426,0.999141,0.0201142,0.0298313,-0.0205374,-0.299825,-0.0891456,-0.86068,32.875,3,36062,3653329
73,2,0.999141,0.0201142,0.0298313,-0.0205374,-0.162716,-0.237822,9.42883,0.499882,-0.185699,-0.0516064,-0.00165723,-0.00239163,0.0942875,1,7.96657e-05,-0.000147017,-0.000490713,0.0159331,-0.0294034,-0.0981426,0.999141,0.0201142,0.0298313,-0.0205374,-0.299825,-0.0891456,-0.86068,32.875,3,36062,3653329
73,3,0.99912,0.0206032,0.0298852,-0.0210342,1.32004,-0.579826,11.6599,2.62601,-1.56576,2.91292,0.0132428,-0.00593547,0.116587,1,0.00053467,0.000205689,-0.000474177,0.106934,0.0411377,-0.0948355,0.99912,0.0206032,0.0298852,-0.0210342,-0.298748,-0.088756,-0.855626,32.875,3,36063,3653429
73,4,0.99912,0.0206032,0.0298852,-0.0210342,1.32004,-0.579826,11.6599,2.62601,-1.56576,2.91292,0.0132428,-0.00593547,0.116587,1,0.00053467,0.000205689,-0.000474177,0.106934,0.0411377,-0.0948355,0.99912,0.0206032,0.0298852,-0.0210342,-0.298748,-0.088756,-0.855626,32.875,3,36063,3653429
74,1,0.999084,0.0211537,0.0299319,-0.0221047,-0.177269,-0.14052,10.1584,0.46329,-0.557317,1.0377,-0.00174407,-0.0015051,0.101583,1,0.000501172,0.000148725,-0.000548268,0.100234,0.029745,-0.109654,0.999084,0.0211537,0.0299319,-0.0221047,-0.297729,-0.0921784,-0.855707,32.875,3,36065,3653629
74,2,0.999066,0.0212595,0.0300341,-0.0226577,0.60555,0.276549,11.1037,1.7496,0.489835,2.0724,0.00611246,0.00272538,0.111035,1,0.000150837,0.000243085,-0.00054341,0.0301674,0.048617,-0.108682,0.999066,0.0212595,0.0300341,-0.0226577,-0.299259,-0.0949938,-0.861318,32.875,3,36066,3653729
74,3,0.999066,0.0212595,0.0300341,-0.0226577,0.60555,0.276549,11.1037,1.7496,0.489835,2.0724,0.00611246,0.00272538,0.111035,1,0.000150837,0.000243085,-0.00054341,0.0301674,0.048617,-0.108682,0.999066,0.0212595,0.0300341,-0.0226577,-0.299259,-0.0949938,-0.861318,32.875,3,36066,3653729
74,4,0.999043,0.021478,0.0302356,-0.0231894,0.0761758,1.34757,10.2153,1.12506,0.98745,1.31366,0.000846478,0.0134217,0.10216,1,0.00026049,0.000346023,-0.000521372,0.052098,0.0692046,-0.104274,0.999043,0.021478,0.0302356,-0.0231894,-0.299404,-0.0958522,-0.867902,32.875,3,36067,3653829
75,1,0.999023,0.0215323,0.0304802,-0.0236803,-1.11664,-0.468467,8.87846,-0.250315,-0.724888,0.0290287,-0.0111025,-0.00469007,0.0887923,1,9.14392e-05,0.000385437,-0.000486926,0.0182878,0.0770874,-0.0973853,0.999023,0.0215323,0.0304802,-0.0236803,-0.295526,-0.0968687,-0.867437,32.875,3,36068,3653929
75,2,0.999005,0.0216999,0.0305618,-0.0241598,-0.576798,0.355576,9.02922,0.287351,0.131098,0.00346088,-0.00572463,0.00352332,0.0902962,1,0.000209484,0.000221668,-0.00046829,0.0418967,0.0443336,-0.0936581,0.999005,0.0216999,0.0305618,-0.0241598,-0.295399,-0.0964801,-0.861874,32.875,3,36069,3654029
75,3,0.99899,0.0219797,0.0304657,-0.0246546,-0.450588,-0.597276,8.92089,0.284797,-1.13985,-0.172634,-0.00450369,-0.00602655,0.0892054,1,0.000325536,4.4298e-05,-0.000475997,0.0651073,0.00885961,-0.0951995,0.99899,0.0219797,0.0304657,-0.0246546,-0.294351,-0.0979965,-0.859387,32.875,3,36070,3654129
75,4,0.99899,0.0219797,0.0304657,-0.0246546,-0.450588,-0.597276,8.92089,0.284797,-1.13985,-0.172634,-0.00450369,-0.00602655,0.0892054,1,0.000325536,4.4298e-05,-0.000475997,0.0651073,0.00885961,-0.0951995,0.99899,0.0219797,0.0304657,-0.0246546,-0.294351,-0.0979965,-0.859387,32.875,3,36070,3654129
76,1,0.998957,0.0224396,0.0302697,-0.025808,0.628255,0.0842001,10.1814,1.84054,-0.665198,1.38248,0.00629921,0.000774009,0.101813,1,0.000297504,7.71297e-05,-0.000589107,0.0595008,0.0154259,-0.117821,0.998957,0.0224396,0.0302697,-0.025808,-0.29253,-0.10131,-0.866035,32.875,3,36072,3654329
76,2,0.998943,0.0224584,0.0301816,-0.0264155,0.0974226,0.917267,10.0894,1.04201,0.502354,1.1959,0.000993344,0.00915781,0.100895,1,6.78392e-05,4.05231e-05,-0.00059684,0.0135678,0.00810463,-0.119368,0.998943,0.0224584,0.0301816,-0.0264155,-0.292666,-0.101211,-0.871588,32.875,3,36073,3654429
76,3,0.998943,0.0224584,0.0301816,-0.0264155,0.0974226,0.917267,10.0894,1.04201,0.502354,1.1959,0.000993344,0.00915781,0.100895,1,6.78392e-05,4.05231e-05,-0.00059684,0.0135678,0.00810463,-0.119368,0.998943,0.0224584,0.0301816,-0.0264155,-0.292666,-0.101211,-0.871588,32.875,3,36073,3654429
76,4,0.998943,0.0224584,0.0301816,-0.0264155,0.0974226,0.917267,10.0894,1.04201,0.502354,1.1959,0.000993344,0.00915781,0.100895,1,6.78392e-05,4.05231e-05,-0.00059684,0.0135678,0.00810463,-0.119368,0.998943,0.0224584,0.0301816,-0.0264155,-0.292666,-0.101211,-0.871588,32.875,3,36073,3654429
77,1,0.998934,0.0221391,0.0295408,-0.0277218,-1.99235,4.94991,5.34894,-0.928602,4.77024,-2.84179,-0.0198968,0.0495701,0.0534335,1,-0.000419803,-0.000358551,-0.000656381,-0.0839607,-0.0717101,-0.131276,0.998934,0.0221391,0.0295408,-0.0277218,-0.290548,-0.103295,-0.865078,32.875,3,36075,3654629
77,2,0.998977,0.0207882,0.0283806,-0.0283945,0.870636,1.53567,9.90141,0.449522,2.60802,-0.708638,0.00851316,0.0155997,0.0989929,0.999998,-0.00128664,-0.00108229,-0.000681426,-0.257327,-0.216459,-0.136285,0.998977,0.0207882,0.0283806,-0.0283945,-0.290919,-0.103372,-0.860532,32.875,3,36076,3654729
77,3,0.998977,0.0207882,0.0283806,-0.0283945,0.870636,1.53567,9.90141,0.449522,2.60802,-0.708638,0.00851316,0.0155997,0.0989929,0.999998,-0.00128664,-0.00108229,-0.000681426,-0.257327,-0.216459,-0.136285,0.998977,0.0207882,0.0283806,-0.0283945,-0.290919,-0.103372,-0.860532,32.875,3,36076,3654729
77,4,0.998977,0.0207882,0.0283806,-0.0283945,0.870636,1.53567,9.90141,0.449522,2.60802,-0.708638,0.00851316,0.0155997,0.0989929,0.999998,-0.00128664,-0.00108229,-0.000681426,-0.257327,-0.216459,-0.136285,0.998977,0.0207882,0.0283806,-0.0283945,-0.290919,-0.103372,-0.860532,32.875,3,36076,3654729
78,1,0.998951,0.0204197,0.0283132,-0.0296356,-2.24581,1.58765,7.25881,-1.47186,1.92923,-1.4514,-0.0224293,0.0159633,0.0725779,1,-0.000431233,8.00712e-05,-0.00053903,-0.0862466,0.0160142,-0.107806,0.998951,0.0204197,0.0283132,-0.0296356,-0.292453,-0.105221,-0.865617,32.875,3,36078,3654929
78,2,0.99895,0.0204192,0.0278139,-0.030159,-2.09121,-1.86796,6.88564,-1.52768,-2.73911,-2.61423,-0.0209822,-0.0186653,0.068839,1,5.0199e-05,-0.000371785,-0.00050588,0.0100398,-0.0743569,-0.101176,0.99895,0.0204192,0.0278139,-0.030159,-0.292552,-0.105149,-0.869655,32.875,3,36079,3655029
78,3,0.998945,0.0203771,0.0274512,-0.030656,3.79045,-2.24636,14.1506,5.0924,-3.50633,5.24168,0.0378144,-0.0225024,0.141524,1,7.90984e-06,-0.00024162,-0.000482661,0.00158197,-0.0483239,-0.0965322,0.998945,0.0203771,0.0274512,-0.030656,-0.291524,-0.104723,-0.86662,32.875,3,36080,3655129
78,4,0.998945,0.0203771,0.0274512,-0.030656,3.79045,-2.24636,14.1506,5.0924,-3.50633,5.24168,0.0378144,-0.0225024,0.141524,1,7.90984e-06,-0.00024162,-0.000482661,0.00158197,-0.0483239,-0.0965322,0.998945,0.0203771,0.0274512,-0.030656,-0.291524,-0.104723,-0.86662,32.875,3,36080,3655129
79,1,0.998912,0.0205073,0.0273231,-0.0317468,-0.775199,0.064975,8.11275,0.00768039,-0.431457,-1.07035,-0.00774742,0.000651501,0.0811279,1,4.42248e-05,2.35189e-05,-0.000575968,0.00884496,0.00470378,-0.115194,0.998912,0.0205073,0.0273231,-0.0317468,-0.290801,-0.108277,-0.859127,32.875,3,36082,3655329
79,2,0.998912,0.0205073,0.0273231,-0.0317468,-0.775199,0.064975,8.11275,0.00768039,-0.431457,-1.07035,-0.00774742,0.000651501,0.0811279,1,4.42248e-05,2.35189e-05,-0.000575968,0.00884496,0.00470378,-0.115194,0.998912,0.0205073,0.0273231,-0.0317468,-0.290801,-0.108277,-0.859127,32.875,3,36082,3655329
79,3,0.998886,0.0205429,0.027463,-0.0324255,0.930911,1.30726,11.1513,2.18852,0.770005,2.31325,0.00938591,0.0130428,0.11151,1,7.75558e-05,0.000265553,-0.000672976,0.0155112,0.0531105,-0.134595,0.998886,0.0205429,0.027463,-0.0324255,-0.291323,-0.107279,-0.860112,32.875,3,36083,3655429
79,4,0.998886,0.0205429,0.027463,-0.0324255,0.930911,1.30726,11.1513,2.18852,0.770005,2.31325,0.00938591,0.0130428,0.11151,1,7.75558e-05,0.000265553,-0.000672976,0.0155112,0.0531105,-0.134595,0.998886,0.0205429,0.027463,-0.0324255,-0.291323,-0.107279,-0.860112,32.875,3,36083,3655429
80,1,0.998847,0.0204169,0.0274527,-0.0336751,-0.879495,-0.439315,8.408,-0.216642,-0.674316,-0.480731,-0.00878971,-0.00438939,0.0840807,1,4.32808e-05,6.39499e-05,-0.00062767,0.00865616,0.01279,-0.125534,0.998847,0.0204169,0.0274527,-0.0336751,-0.288777,-0.106572,-0.873745,32.875,3,36085,3655629
80,2,0.99883,0.0204034,0.0272874,-0.034314,0.323573,0.55564,10.2413,1.29363,0.175451,0.7673,0.00323351,0.00554476,0.102414,1,3.7009e-05,-4.48465e-05,-0.000627037,0.00740179,-0.0089693,-0.125407,0.99883,0.0204034,0.0272874,-0.034314,-0.287749,-0.106146,-0.87071,32.875,3,36086,3655729
80,3,0.99883,0.0204034,0.0272874,-0.034314,0.323573,0.55564,10.2413,1.29363,0.175451,0.7673,0.00323351,0.00554476,0.102414,1,3.7009e-05,-4.48465e-05,-0.000627037,0.00740179,-0.0089693,-0.125407,0.99883,0.0204034,0.0272874,-0.034314,-0.287749,-0.106146,-0.87071,32.875,3,36086,3655729
80,4,0.99883,0.0204034,0.0272874,-0.034314,0.323573,0.55564,10.2413,1.29363,0.175451,0.7673,0.00323351,0.00554476,0.102414,1,3.7009e-05,-4.48465e-05,-0.000627037,0.00740179,-0.0089693,-0.125407,0.99883,0.0204034,0.0272874,-0.034314,-0.287749,-0.106146,-0.87071,32.875,3,36086,3655729
81,1,0.99879,0.0202748,0.0271523,-0.0356387,0.0326909,0.698004,9.21148,1.37444,0.398761,0.873929,0.000373371,0.00698607,0.0921142,1,-3.52426e-05,0.00020249,-0.000655685,-0.00704853,0.0404979,-0.131137,0.99879,0.0202748,0.0271523,-0.0356387,-0.285052,-0.108307,-0.860164,32.875,3,36088,3655929
81,2,0.998775,0.0200788,0.0270129,-0.0362699,-0.230165,-1.44846,10.2495,0.590541,-1.43228,0.882691,-0.00232517,-0.0144513,0.102499,1,-0.000148031,-2.66015e-05,-0.00062456,-0.0296062,-0.00532031,-0.124912,0.998775,0.0200788,0.0270129,-0.0362699,-0.286561,-0.105838,-0.861112,32.875,3,36089,3656029
81,3,0.998748,0.0203573,0.0269984,-0.0368688,0.222832,-1.35221,10.4852,1.15237,-2.12796,1.6992,0.00223666,-0.0135926,0.104843,1,0.000323869,0.000115094,-0.000582653,0.0647738,0.0230187,-0.116531,0.998748,0.0203573,0.0269984,-0.0368688,-0.285278,-0.107178,-0.868724,32.875,3,36090,3656129
81,4,0.998748,0.0203573,0.0269984,-0.0368688,0.222832,-1.35221,10.4852,1.15237,-2.12796,1.6992,0.00223666,-0.0135926,0.104843,1,0.000323869,0.000115094,-0.000582653,0.0647738,0.0230187,-0.116531,0.998748,0.0203573,0.0269984,-0.0368688,-0.285278,-0.107178,-0.868724,32.875,3,36090,3656129
82,1,0.998705,0.0203643,0.026938,-0.0380395,-0.692077,-0.979939,9.49082,-0.128866,-1.35972,0.244897,-0.00693209,-0.00979093,0.0949083,1,-2.44453e-06,-6.30742e-08,-0.000577198,-0.000488906,-1.26148e-05,-0.11544,0.998705,0.0203643,0.026938,-0.0380395,-0.282901,-0.106213,-0.869219,32.875,3,36092,3656329
82,2,0.998679,0.0206912,0.0268573,-0.0386162,0.288788,-1.11691,10.2028,1.21914,-2.21472,1.0966,0.0028851,-0.011249,0.102019,1,0.000376083,4.75897e-05,-0.000557032,0.0752165,0.00951794,-0.111406,0.998679,0.0206912,0.0268573,-0.0386162,-0.282716,-0.107794,-0.862689,32.875,3,36093,3656429
82,3,0.998679,0.0206912,0.0268573,-0.0386162,0.288788,-1.11691,10.2028,1.21914,-2.21472,1.0966,0.0028851,-0.011249,0.102019,1,0.000376083,4.75897e-05,-0.000557032,0.0752165,0.00951794,-0.111406,0.998679,0.0206912,0.0268573,-0.0386162,-0.282716,-0.107794,-0.862689,32.875,3,36093,3656429
82,4,0.998679,0.0206912,0.0268573,-0.0386162,0.288788,-1.11691,10.2028,1.21914,-2.21472,1.0966,0.0028851,-0.011249,0.102019,1,0.000376083,4.75897e-05,-0.000557032,0.0752165,0.00951794,-0.111406,0.998679,0.0206912,0.0268573,-0.0386162,-0.282716,-0.107794,-0.862689,32.875,3,36093,3656429
83,1,0.998643,0.0207872,0.0264168,-0.0397789,0.626942,2.3003,9.33992,0.859517,2.02015,-0.0831035,0.00623946,0.0230049,0.0934008,1,-4.93976e-05,-0.000304304,-0.000584275,-0.00987952,-0.0608607,-0.116855,0.998643,0.0207872,0.0264168,-0.0397789,-0.282124,-0.106434,-0.857106,32.875,3,36095,3656629
83,2,0.998627,0.0203951,0.0263811,-0.0403969,0.436971,1.676,10.7599,1.48391,1.5232,1.61866,0.00440383,0.0168292,0.107587,1,-0.000346712,6.19219e-05,-0.000619061,-0.0693423,0.0123844,-0.123812,0.998627,0.0203951,0.0263811,-0.0403969,-0.283687,-0.107298,-0.862673,32.875,3,36096,3656729
83,3,0.998627,0.0203951,0.0263811,-0.0403969,0.436971,1.676,10.7599,1.48391,1.5232,1.61866,0.00440383,0.0168292,0.107587,1,-0.000346712,6.19219e-05,-0.000619061,-0.0693423,0.0123844,-0.123812,0.998627,0.0203951,0.0263811,-0.0403969,-0.283687,-0.107298,-0.862673,32.875,3,36096,3656729
83,4,0.998627,0.0203951,0.0263811,-0.0403969,0.436971,1.676,10.7599,1.48391,1.5232,1.61866,0.00440383,0.0168292,0.107587,1,-0.000346712,6.19219e-05,-0.000619061,-0.0693423,0.0123844,-0.123812,0.998627,0.0203951,0.0263811,-0.0403969,-0.283687,-0.107298,-0.862673,32.875,3,36096,3656729
84,1,0.998581,0.0199053,0.0261896,-0.0418899,-0.0677881,-0.280758,10.1074,0.755784,-0.133435,0.797928,-0.000709518,-0.00274839,0.101075,1,-0.000287609,-0.000135516,-0.0007637,-0.0575218,-0.0271032,-0.15274,0.998581,0.0199053,0.0261896,-0.0418899,-0.283288,-0.108205,-0.866736,32.875,3,36098,3656929
84,2,0.998557,0.0197384,0.0258967,-0.0426974,-0.930734,-0.457694,9.99199,-0.549788,-0.335372,0.577366,-0.00935294,-0.00454047,0.0999174,1,-0.000108055,-0.000191767,-0.000797082,-0.021611,-0.0383535,-0.159417,0.998557,0.0197384,0.0258967,-0.0426974,-0.284105,-0.104449,-0.858063,32.875,3,36099,3657029
84,3,0.998539,0.0193759,0.0256378,-0.0434421,-2.13008,-1.49133,6.51659,-1.12859,-0.549764,-1.7156,-0.0213447,-0.0148419,0.0651678,1,-0.000305468,-0.000167613,-0.000740269,-0.0610935,-0.0335226,-0.148054,0.998539,0.0193759,0.0256378,-0.0434421,-0.283493,-0.10503,-0.853028,32.875,3,36100,3657129
84,4,0.998539,0.0193759,0.0256378,-0.0434421,-2.13008,-1.49133,6.51659,-1.12859,-0.549764,-1.7156,-0.0213447,-0.0148419,0.0651678,1,-0.000305468,-0.000167613,-0.000740269,-0.0610935,-0.0335226,-0.148054,0.998539,0.0193759,0.0256378,-0.0434421,-0.283493,-0.10503,-0.853028,32.875,3,36100,3657129
85,1,0.998511,0.0194519,0.024489,-0.0446839,3.14972,3.0659,13.6911,4.68236,3.26118,4.5434,0.0314792,0.0306772,0.136911,1,-0.000195223,-0.000191187,-0.00056074,-0.0390446,-0.0382375,-0.112148,0.998511,0.0194519,0.024489,-0.0446839,-0.286482,-0.105413,-0.857568,32.875,3,36102,3657329
85,2,0.998511,0.0194519,0.024489,-0.0446839,3.14972,3.0659,13.6911,4.68236,3.26118,4.5434,0.0314792,0.0306772,0.136911,1,-0.000195223,-0.000191187,-0.00056074,-0.0390446,-0.0382375,-0.112148,0.998511,0.0194519,0.024489,-0.0446839,-0.286482,-0.105413,-0.857568,32.875,3,36102,3657329
85,3,0.998487,0.0194663,0.0244419,-0.0452551,-0.751041,-0.699586,8.51044,0.339661,-1.13456,-0.325186,-0.00750723,-0.0069976,0.0851045,1,5.97063e-05,6.47953e-05,-0.000560958,0.0119413,0.0129591,-0.112192,0.998487,0.0194663,0.0244419,-0.0452551,-0.286202,-0.102861,-0.864078,32.875,3,36103,3657429
85,4,0.998487,0.0194663,0.0244419,-0.0452551,-0.751041,-0.699586,8.51044,0.339661,-1.13456,-0.325186,-0.00750723,-0.0069976,0.0851045,1,5.97063e-05,6.47953e-05,-0.000560958,0.0119413,0.0129591,-0.112192,0.998487,0.0194663,0.0244419,-0.0452551,-0.286202,-0.102861,-0.864078,32.875,3,36103,3657429
86,1,0.998442,0.0193531,0.0240444,-0.0464923,-0.229361,0.461458,10.6475,0.656191,0.316473,1.35964,-0.0023171,0.00464383,0.106473,1,-0.000123111,-0.000138852,-0.000656385,-0.0246222,-0.0277705,-0.131277,0.998442,0.0193531,0.0240444,-0.0464923,-0.287444,-0.10396,-0.856521,32.875,3,36105,3657629
86,2,0.998418,0.019222,0.023838,-0.0471493,-0.612994,-0.467795,9.42683,0.18387,-0.600228,0.1913,-0.00615622,-0.0046556,0.0942677,1,-7.64134e-05,-0.000107368,-0.000646878,-0.0152827,-0.0214735,-0.129376,0.998418,0.019222,0.023838,-0.0471493,-0.287818,-0.104516,-0.852491,32.875,3,36106,3657729
86,3,0.998418,0.019222,0.023838,-0.0471493,-0.612994,-0.467795,9.42683,0.18387,-0.600228,0.1913,-0.00615622,-0.0046556,0.0942677,1,-7.64134e-05,-0.000107368,-0.000646878,-0.0152827,-0.0214735,-0.129376,0.998418,0.019222,0.023838,-0.0471493,-0.287818,-0.104516,-0.852491,32.875,3,36106,3657729
86,4,0.998418,0.019222,0.023838,-0.0471493,-0.612994,-0.467795,9.42683,0.18387,-0.600228,0.1913,-0.00615622,-0.0046556,0.0942677,1,-7.64134e-05,-0.000107368,-0.000646878,-0.0152827,-0.0214735,-0.129376,0.998418,0.019222,0.023838,-0.0471493,-0.287818,-0.104516,-0.852491,32.875,3,36106,3657729
87,1,0.998369,0.0188645,0.0234728,-0.048501,1.40297,-3.84627,14.0033,1.23846,-2.88996,3.5754,0.0139397,-0.0383939,0.140061,1,-0.00031173,-0.000140131,-0.000660194,-0.062346,-0.0280261,-0.132039,0.998369,0.0188645,0.0234728,-0.048501,-0.289459,-0.10436,-0.860561,32.875,3,36108,3657929
87,2,0.998288,0.0203204,0.0243346,-0.0491535,1.0174,-5.09125,14.8878,2.98781,-7.49388,7.50608,0.0104187,-0.0513617,0.148707,0.999998,0.00146607,0.00103755,-0.000626751,0.293215,0.207511,-0.12535,0.998288,0.0203204,0.0243346,-0.0491535,-0.291013,-0.102821,-0.864055,32.875,3,36109,3658029
87,3,0.998249,0.0206839,0.0244225,-0.0497475,-6.2316,4.636,1.74223,-5.62017,5.85981,-7.10867,-0.0622552,0.046417,0.017488,1,0.000420968,0.000213238,-0.000575355,0.0841935,0.0426476,-0.115071,0.998249,0.0206839,0.0244225,-0.0497475,-0.289052,-0.104309,-0.863592,32.875,3,36110,3658129
87,4,0.998249,0.0206839,0.0244225,-0.0497475,-6.2316,4.636,1.74223,-5.62017,5.85981,-7.10867,-0.0622552,0.046417,0.017488,1,0.000420968,0.000213238,-0.000575355,0.0841935,0.0426476,-0.115071,0.998249,0.0206839,0.0244225,-0.0497475,-0.289052,-0.104309,-0.863592,32.875,3,36110,3658129
88,1,0.998183,0.0213109,0.023989,-0.0509933,0.813423,0.955228,10.9789,2.01246,-0.0128361,2.45016,0.00814644,0.00950906,0.109792,1,0.000154044,5.54087e-06,-0.000576772,0.0308089,0.00110817,-0.115354,0.998183,0.0213109,0.023989,-0.0509933,-0.289781,-0.107363,-0.856081,32.875,3,36112,3658329
88,2,0.998155,0.0214377,0.02375,-0.0516065,-1.35803,-0.216743,7.50687,-0.719183,-0.541652,-1.17601,-0.0136039,-0.00217977,0.0750641,1,0.00019012,-0.000139901,-0.000596132,0.038024,-0.0279802,-0.119226,0.998155,0.0214377,0.02375,-0.0516065,-0.291307,-0.108255,-0.860134,32.875,3,36113,3658429
88,3,0.998155,0.0214377,0.02375,-0.0516065,-1.35803,-0.216743,7.50687,-0.719183,-0.541652,-1.17601,-0.0136039,-0.00217977,0.0750641,1,0.00019012,-0.000139901,-0.000596132,0.038024,-0.0279802,-0.119226,0.998155,0.0214377,0.02375,-0.0516065,-0.291307,-0.108255,-0.860134,32.875,3,36113,3658429
88,4,0.998155,0.0214377,0.02375,-0.0516065,-1.35803,-0.216743,7.50687,-0.719183,-0.541652,-1.17601,-0.0136039,-0.00217977,0.0750641,1,0.00019012,-0.000139901,-0.000596132,0.038024,-0.0279802,-0.119226,0.998155,0.0214377,0.02375,-0.0516065,-0.291307,-0.108255,-0.860134,32.875,3,36113,3658429
89,1,0.99809,0.0221566,0.0230518,-0.0528599,-0.0540668,-0.0128799,10.0505,0.987016,-1.36566,1.10422,-0.000568785,-0.000263902,0.100505,1,0.000675432,-0.000138708,-0.000599715,0.135086,-0.0277416,-0.119943,0.99809,0.0221566,0.0230518,-0.0528599,-0.292952,-0.108577,-0.86872,32.875,3,36115,3658629
89,2,0.998063,0.0222167,0.0227035,-0.0534936,-0.369627,0.0475063,9.22967,0.37774,-0.158475,0.74727,-0.00374322,0.0004556,0.0922949,1,0.000130271,-0.000257404,-0.000616149,0.0260543,-0.0514809,-0.12323,0.998063,0.0222167,0.0227035,-0.0534936,-0.293306,-0.111075,-0.865238,32.875,3,36116,3658729
89,3,0.998063,0.0222167,0.0227035,-0.0534936,-0.369627,0.0475063,9.22967,0.37774,-0.158475,0.74727,-0.00374322,0.0004556,0.0922949,1,0.000130271,-0.000257404,-0.000616149,0.0260543,-0.0514809,-0.12323,0.998063,0.0222167,0.0227035,-0.0534936,-0.293306,-0.111075,-0.865238,32.875,3,36116,3658729
89,4,0.998063,0.0222167,0.0227035,-0.0534936,-0.369627,0.0475063,9.22967,0.37774,-0.158475,0.74727,-0.00374322,0.0004556,0.0922949,1,0.000130271,-0.000257404,-0.000616149,0.0260543,-0.0514809,-0.12323,0.998063,0.0222167,0.0227035,-0.0534936,-0.293306,-0.111075,-0.865238,32.875,3,36116,3658729
90,1,0.997981,0.0228015,0.0219596,-0.0550698,2.48895,5.49095,14.7007,4.15139,5.02291,6.08701,0.0249906,0.0548998,0.146994,1,-9.75155e-05,5.69067e-05,-0.000768863,-0.0195031,0.0113813,-0.153773,0.997981,0.0228015,0.0219596,-0.0550698,-0.293011,-0.114182,-0.855207,32.875,3,36118,3658929
90,2,0.997932,0.0227564,0.0221889,-0.0558751,-2.56207,-2.85867,8.09659,-1.90027,-3.1972,-0.828188,-0.0256162,-0.0285438,0.0809825,1,-9.65984e-06,0.000311624,-0.000805497,-0.00193197,0.0623249,-0.161099,0.997932,0.0227564,0.0221889,-0.0558751,-0.294051,-0.114599,-0.858747,32.875,3,36119,3659029
90,3,0.997889,0.0230363,0.0219033,-0.0566393,-1.91448,-0.342337,7.98371,-0.840291,-0.40871,-1.0128,-0.01918,-0.00345032,0.0798275,1,0.000347544,-0.000188513,-0.000744658,0.0695089,-0.0377025,-0.148932,0.997889,0.0230363,0.0219033,-0.0566393,-0.294665,-0.116907,-0.865867,32.875,3,36120,3659129
90,4,0.997889,0.0230363,0.0219033,-0.0566393,-1.91448,-0.342337,7.98371,-0.840291,-0.40871,-1.0128,-0.01918,-0.00345032,0.0798275,1,0.000347544,-0.000188513,-0.000744658,0.0695089,-0.0377025,-0.148932,0.997889,0.0230363,0.0219033,-0.0566393,-0.294665,-0.116907,-0.865867,32.875,3,36120,3659129
91,1,0.997818,0.0230974,0.0213407,-0.0580524,0.551634,-0.0443535,10.9851,0.788541,0.0304554,1.5623,0.00547047,-0.000456004,0.109853,1,2.46285e-05,-0.000206189,-0.000642409,0.0049257,-0.0412379,-0.128482,0.997818,0.0230974,0.0213407,-0.0580524,-0.294731,-0.118786,-0.869949,32.875,3,36122,3659329
91,2,0.997774,0.0233525,0.0213413,-0.0587116,-1.08464,0.599262,7.602,-0.336628,-0.00809416,-0.986175,-0.010824,0.0059601,0.0760257,1,0.000306148,9.65154e-05,-0.000647388,0.0612297,0.0193031,-0.129478,0.997774,0.0233525,0.0213413,-0.0587116,-0.293136,-0.119873,-0.864424,32.875,3,36123,3659429
91,3,0.997774,0.0233525,0.0213413,-0.0587116,-1.08464,0.599262,7.602,-0.336628,-0.00809416,-0.986175,-0.010824,0.0059601,0.0760257,1,0.000306148,9.65154e-05,-0.000647388,0.0612297,0.0193031,-0.129478,0.997774,0.0233525,0.0213413,-0.0587116,-0.293136,-0.119873,-0.864424,32.875,3,36123,3659429
91,4,0.997774,0.0233525,0.0213413,-0.0587116,-1.08464,0.599262,7.602,-0.336628,-0.00809416,-0.986175,-0.010824,0.0059601,0.0760257,1,0.000306148,9.65154e-05,-0.000647388,0.0612297,0.0193031,-0.129478,0.997774,0.0233525,0.0213413,-0.0587116,-0.293136,-0.119873,-0.864424,32.875,3,36123,3659429
92,1,0.997705,0.0232425,0.0205442,-0.0601814,-0.609949,4.87767,7.77778,0.201543,5.27604,-2.114,-0.0061079,0.0488387,0.0777382,0.999999,-0.000340938,-0.000515935,-0.00073575,-0.0681877,-0.103187,-0.14715,0.997705,0.0232425,0.0205442,-0.0601814,-0.291119,-0.124776,-0.864038,32.875,3,36125,3659629
92,2,0.997654,0.0232211,0.020496,-0.0610427,3.3831,-5.07584,15.5472,4.27194,-7.26813,6.70826,0.0337502,-0.0508248,0.155468,1,2.72473e-05,1.97658e-05,-0.000856353,0.00544947,0.00395315,-0.171271,0.997654,0.0232211,0.020496,-0.0610427,-0.291239,-0.127097,-0.870654,32.875,3,36126,3659729
92,3,0.997654,0.0232211,0.020496,-0.0610427,3.3831,-5.07584,15.5472,4.27194,-7.26813,6.70826,0.0337502,-0.0508248,0.155468,1,2.72473e-05,1.97658e-05,-0.000856353,0.00544947,0.00395315,-0.171271,0.997654,0.0232211,0.020496,-0.0610427,-0.291239,-0.127097,-0.870654,32.875,3,36126,3659729
92,4,0.997654,0.0232211,0.020496,-0.0610427,3.3831,-5.07584,15.5472,4.27194,-7.26813,6.70826,0.0337502,-0.0508248,0.155468,1,2.72473e-05,1.97658e-05,-0.000856353,0.00544947,0.00395315,-0.171271,0.997654,0.0232211,0.020496,-0.0610427,-0.291239,-0.127097,-0.870654,32.875,3,36126,3659729
93,1,0.99755,0.0231795,0.0208467,-0.0626221,-2.42489,-2.29934,8.2055,-2.01186,-2.979,-0.383333,-0.0242572,-0.0229621,0.0820614,1,4.03523e-05,0.000168509,-0.000781907,0.00807046,0.0337018,-0.156381,0.99755,0.0231795,0.0208467,-0.0626221,-0.291329,-0.126068,-0.873662,32.875,3,36128,3659929
93,2,0.997509,0.0232411,0.020651,-0.0633267,-1.63193,-0.0660715,9.82506,-1.10682,-0.399539,0.577099,-0.0163439,-0.000662752,0.0982466,1,0.000125621,-0.000120238,-0.000693373,0.0251243,-0.0240475,-0.138675,0.997509,0.0232411,0.020651,-0.0633267,-0.289273,-0.126662,-0.868634,32.875,3,36129,3660029
93,3,0.997473,0.0232124,0.0203911,-0.063972,-1.02772,0.976424,9.93964,-0.578758,0.527054,0.756175,-0.0103029,0.00976963,0.0993932,1,3.85568e-05,-0.000191865,-0.000634075,0.00771137,-0.0383729,-0.126815,0.997473,0.0232124,0.0203911,-0.063972,-0.288229,-0.128657,-0.866663,32.875,3,36130,3660129
93,4,0.997473,0.0232124,0.0203911,-0.063972,-1.02772,0.976424,9.93964,-0.578758,0.527054,0.756175,-0.0103029,0.00976963,0.0993932,1,3.85568e-05,-0.000191865,-0.000634075,0.00771137,-0.0383729,-0.126815,0.997473,0.0232124,0.0203911,-0.063972,-0.288229,-0.128657,-0.866663,32.875,3,36130,3660129
94,1,0.99738,0.0235063,0.0201253,-0.0653894,1.32734,5.21636,13.9072,2.57383,3.35763,4.11803,0.0133518,0.0520735,0.139099,1,0.000252668,2.51848e-06,-0.000745529,0.0505336,0.000503696,-0.149106,0.99738,0.0235063,0.0201253,-0.0653894,-0.288309,-0.133417,-0.873334,32.875,3,36132,3660329
94,2,0.99738,0.0235063,0.0201253,-0.0653894,1.32734,5.21636,13.9072,2.57383,3.35763,4.11803,0.0133518,0.0520735,0.139099,1,0.000252668,2.51848e-06,-0.000745529,0.0505336,0.000503696,-0.149106,0.99738,0.0235063,0.0201253,-0.0653894,-0.288309,-0.133417,-0.873334,32.875,3,36132,3660329
94,3,0.997335,0.0224964,0.0211407,-0.0661084,1.86601,3.31367,15.9806,4.29301,2.2282,8.80821,0.0190343,0.0334366,0.159699,0.999999,-0.00102811,0.00101314,-0.000758077,-0.205621,0.202629,-0.151616,0.997335,0.0224964,0.0211407,-0.0661084,-0.286997,-0.132851,-0.878378,32.875,3,36133,3660429
94,4,0.997335,0.0224964,0.0211407,-0.0661084,1.86601,3.31367,15.9806,4.29301,2.2282,8.80821,0.0190343,0.0334366,0.159699,0.999999,-0.00102811,0.00101314,-0.000758077,-0.205621,0.202629,-0.151616,0.997335,0.0224964,0.0211407,-0.0661084,-0.286997,-0.132851,-0.878378,32.875,3,36133,3660429
95,1,0.997261,0.021836,0.0206011,-0.0676047,-0.513612,-3.33957,9.48677,-1.35086,-3.13784,-1.08649,-0.00531939,-0.0333506,0.0948735,0.999999,-0.000199205,-0.000721893,-0.000693557,-0.039841,-0.144379,-0.138711,0.997261,0.021836,0.0206011,-0.0676047,-0.2845,-0.129565,-0.872256,32.875,3,36135,3660629
95,2,0.997193,0.0225023,0.0204752,-0.0684079,2.45345,-1.06494,12.6332,3.45969,-3.3566,4.29885,0.0245108,-0.0108715,0.126318,0.999999,0.000726747,-2.71189e-05,-0.000783509,0.145349,-0.00542378,-0.156702,0.997193,0.0225023,0.0204752,-0.0684079,-0.282407,-0.130186,-0.865713,32.875,3,36136,3660729
95,3,0.997193,0.0225023,0.0204752,-0.0684079,2.45345,-1.06494,12.6332,3.45969,-3.3566,4.29885,0.0245108,-0.0108715,0.126318,0.999999,0.000726747,-2.71189e-05,-0.000783509,0.145349,-0.00542378,-0.156702,0.997193,0.0225023,0.0204752,-0.0684079,-0.282407,-0.130186,-0.865713,32.875,3,36136,3660729
95,4,0.997153,0.0222822,0.0203807,-0.0691007,-0.609357,0.445669,7.88665,0.235197,0.111245,-0.751224,-0.00609535,0.00449038,0.0788644,1,-0.00016017,-5.04143e-05,-0.000690599,-0.032034,-0.0100829,-0.13812,0.997153,0.0222822,0.0203807,-0.0691007,-0.282399,-0.132119,-0.866766,32.875,3,36137,3660829
96,1,0.997102,0.0223846,0.0201943,-0.0698445,0.785102,-1.01302,10.0143,1.36507,-1.98205,0.593999,0.00781164,-0.0101754,0.100141,1,0.000168265,-0.000122134,-0.000734779,0.0336531,-0.0244268,-0.146956,0.997102,0.0223846,0.0201943,-0.0698445,-0.281532,-0.133022,-0.871336,32.875,3,36138,3660929
96,2,0.997041,0.0225878,0.0202415,-0.0706374,-0.159594,1.5582,8.47334,1.23698,0.708219,0.352248,-0.00155144,0.0155412,0.0847417,1,0.000255407,0.000118046,-0.000786903,0.0510814,0.0236092,-0.157381,0.997041,0.0225878,0.0202415,-0.0706374,-0.28159,-0.133943,-0.874387,32.875,3,36139,3661029
96,3,0.997007,0.0220792,0.0196954,-0.0714198,-4.37487,6.91379,2.13135,-2.91553,7.63675,-6.10362,-0.0436637,0.0692234,0.0212101,0.999999,-0.00041581,-0.000524742,-0.000775724,-0.0831621,-0.104948,-0.155145,0.997007,0.0220792,0.0196954,-0.0714198,-0.281022,-0.13401,-0.870855,32.875,3,36140,3661129
96,4,0.997007,0.0220792,0.0196954,-0.0714198,-4.37487,6.91379,2.13135,-2.91553,7.63675,-6.10362,-0.0436637,0.0692234,0.0212101,0.999999,-0.00041581,-0.000524742,-0.000775724,-0.0831621,-0.104948,-0.155145,0.997007,0.0220792,0.0196954,-0.0714198,-0.281022,-0.13401,-0.870855,32.875,3,36140,3661129
97,1,0.996934,0.0205804,0.0191191,-0.0730367,17.7598,-20.7969,36.1512,21.5113,-30.3043,31.0919,0.178036,-0.208629,0.360916,0.999999,0.000503585,0.00108677,-0.000833304,0.100717,0.217355,-0.166661,0.996934,0.0205804,0.0191191,-0.0730367,-0.282279,-0.129798,-0.86015,32.875,3,36142,3661329
97,2,0.996901,0.0199694,0.0199423,-0.0734306,-10.3013,1.91207,0.72142,-7.8693,7.09401,-7.36614,-0.102984,0.0192156,0.00736788,0.999999,-0.000611451,0.000859806,-0.000417238,-0.12229,0.171961,-0.0834477,0.996901,0.0199694,0.0199423,-0.0734306,-0.281872,-0.131193,-0.864223,32.875,3,36143,3661429
97,3,0.996901,0.0199694,0.0199423,-0.0734306,-10.3013,1.91207,0.72142,-7.8693,7.09401,-7.36614,-0.102984,0.0192156,0.00736788,0.999999,-0.000611451,0.000859806,-0.000417238,-0.12229,0.171961,-0.0834477,0.996901,0.0199694,0.0199423,-0.0734306,-0.281872,-0.131193,-0.864223,32.875,3,36143,3661429
97,4,0.996901,0.0199694,0.0199423,-0.0734306,-10.3013,1.91207,0.72142,-7.8693,7.09401,-7.36614,-0.102984,0.0192156,0.00736788,0.999999,-0.000611451,0.000859806,-0.000417238,-0.12229,0.171961,-0.0834477,0.996901,0.0199694,0.0199423,-0.0734306,-0.281872,-0.131193,-0.864223,32.875,3,36143,3661429
98,1,0.996779,0.0214653,0.0197949,-0.0746894,3.0087,4.08709,17.2652,4.82291,4.98347,8.10673,0.0301925,0.0408173,0.172646,1,6.02106e-05,0.00017677,-0.000544481,0.0120421,0.035354,-0.108896,0.996779,0.0214653,0.0197949,-0.0746894,-0.281614,-0.13248,-0.874354,32.875,3,36145,3661629
98,2,0.996696,0.0223445,0.0204576,-0.0753554,-2.33464,-0.0110063,9.83843,-0.972864,-0.728681,2.04221,-0.0231923,-0.000253267,0.0984205,0.999999,0.000884328,0.000784139,-0.000662582,0.176866,0.156828,-0.132516,0.996696,0.0223445,0.0204576,-0.0753554,-0.279126,-0.131596,-0.870305,32.875,3,36146,3661729
98,3,0.996696,0.0223445,0.0204576,-0.0753554,-2.33464,-0.0110063,9.83843,-0.972864,-0.728681,2.04221,-0.0231923,-0.000253267,0.0984205,0.999999,0.000884328,0.000784139,-0.000662582,0.176866,0.156828,-0.132516,0.996696,0.0223445,0.0204576,-0.0753554,-0.279126,-0.131596,-0.870305,32.875,3,36146,3661729
98,4,0.996696,0.0223445,0.0204576,-0.0753554,-2.33464,-0.0110063,9.83843,-0.972864,-0.728681,2.04221,-0.0231923,-0.000253267,0.0984205,0.999999,0.000884328,0.000784139,-0.000662582,0.176866,0.156828,-0.132516,0.996696,0.0223445,0.0204576,-0.0753554,-0.279126,-0.131596,-0.870305,32.875,3,36146,3661729
99,1,0.996579,0.0227715,0.0203442,-0.0768,-0.563593,-3.14149,8.67423,-0.0197989,-2.97728,-0.382885,-0.0056723,-0.0315081,0.0867061,0.999999,0.000585082,5.59599e-05,-0.000732172,0.117017,0.011192,-0.146434,0.996579,0.0227715,0.0203442,-0.0768,-0.279295,-0.132784,-0.858209,32.875,3,36148,3661929
99,2,0.996514,0.0233775,0.0200259,-0.077545,-0.156995,-0.761442,8.64804,-0.0923265,-0.449691,-1.00053,-0.00162015,-0.00773165,0.0864691,0.999999,0.000691168,-0.00022591,-0.000724703,0.138234,-0.045182,-0.144941,0.996514,0.0233775,0.0200259,-0.077545,-0.281244,-0.134195,-0.860252,32.875,3,36149,3662029
99,3,0.996447,0.0237938,0.0200749,-0.0782519,2.58594,2.26777,13.8581,3.52128,1.42984,4.63299,0.0259259,0.02251,0.138596,1,0.000474081,0.000125791,-0.000700698,0.0948162,0.0251581,-0.14014,0.996447,0.0237938,0.0200749,-0.0782519,-0.280393,-0.135568,-0.865842,32.875,3,36150,3662129
99,4,0.996447,0.0237938,0.0200749,-0.0782519,2.58594,2.26777,13.8581,3.52128,1.42984,4.63299,0.0259259,0.02251,0.138596,1,0.000474081,0.000125791,-0.000700698,0.0948162,0.0251581,-0.14014,0.996447,0.0237938,0.0200749,-0.0782519,-0.280393,-0.135568,-0.865842,32.875,3,36150,3662129
100,1,0.996313,0.0243695,0.020496,-0.0796596,-1.5707,0.891643,8.78372,-0.584171,0.521008,-0.171121,-0.0156828,0.00887598,0.0878456,1,0.00035902,6.49949e-05,-0.0007206,0.071804,0.012999,-0.14412,0.996313,0.0243695,0.020496,-0.0796596,-0.279945,-0.135066,-0.866843,32.875,3,36152,3662329
100,2,0.996253,0.0245845,0.0205391,-0.0803388,0.864584,-0.602658,11.0626,1.38919,-1.32268,2.25079,0.00866057,-0.00609745,0.110621,1,0.000267385,0.000103656,-0.000676564,0.053477,0.0207312,-0.135313,0.996253,0.0245845,0.0205391,-0.0803388,-0.280282,-0.134203,-0.860257,32.875,3,36153,3662429
100,3,0.996253,0.0245845,0.0205391,-0.0803388,0.864584,-0.602658,11.0626,1.38919,-1.32268,2.25079,0.00866057,-0.00609745,0.110621,1,0.000267385,0.000103656,-0.000676564,0.053477,0.0207312,-0.135313,0.996253,0.0245845,0.0205391,-0.0803388,-0.280282,-0.134203,-0.860257,32.875,3,36153,3662429
100,4,0.996253,0.0245845,0.0205391,-0.0803388,0.864584,-0.602658,11.0626,1.38919,-1.32268,2.25079,0.00866057,-0.00609745,0.110621,1,0.000267385,0.000103656,-0.000676564,0.053477,0.0207312,-0.135313,0.996253,0.0245845,0.0205391,-0.0803388,-0.280282,-0.134203,-0.860257,32.875,3,36153,3662429
101,1,0.996126,0.0246915,0.0206284,-0.0818376,1.12459,-0.262759,11.6224,1.71354,-2.01039,2.40874,0.0112796,-0.00266776,0.11622,1,9.75259e-05,0.000162683,-0.000777077,0.0195052,0.0325365,-0.155415,0.996126,0.0246915,0.0206284,-0.0818376,-0.281158,-0.134259,-0.856719,32.875,3,36155,3662629
101,2,0.996057,0.0247479,0.020932,-0.0825839,-1.2173,0.67014,8.2788,-0.105115,-0.600786,-0.378383,-0.012105,0.00670521,0.0827977,1,8.75181e-05,0.000349925,-0.000754111,0.0175036,0.0699851,-0.150822,0.996057,0.0247479,0.020932,-0.0825839,-0.281722,-0.136603,-0.861819,32.875,3,36156,3662729
101,3,0.996057,0.0247479,0.020932,-0.0825839,-1.2173,0.67014,8.2788,-0.105115,-0.600786,-0.378383,-0.012105,0.00670521,0.0827977,1,8.75181e-05,0.000349925,-0.000754111,0.0175036,0.0699851,-0.150822,0.996057,0.0247479,0.020932,-0.0825839,-0.281722,-0.136603,-0.861819,32.875,3,36156,3662729
101,4,0.996057,0.0247479,0.020932,-0.0825839,-1.2173,0.67014,8.2788,-0.105115,-0.600786,-0.378383,-0.012105,0.00670521,0.0827977,1,8.75181e-05,0.000349925,-0.000754111,0.0175036,0.0699851,-0.150822,0.996057,0.0247479,0.020932,-0.0825839,-0.281722,-0.136603,-0.861819,32.875,3,36156,3662729
102,1,0.995925,0.024882,0.0210935,-0.084081,0.302067,-0.304328,10.4369,1.11645,-1.84915,1.55372,0.00304541,-0.00309723,0.104367,1,0.000236874,0.000140365,-0.000741995,0.0473748,0.0280731,-0.148399,0.995925,0.024882,0.0210935,-0.084081,-0.282285,-0.134612,-0.863792,32.875,3,36158,3662929
