frame_id,imu_idx,quat_w,quat_x,quat_y,quat_z,accel_x,accel_y,accel_z,free_accel_x,free_accel_y,free_accel_z,delta_v_x,delta_v_y,delta_v_z,delta_q_w,delta_q_x,delta_q_y,delta_q_z,rate_x,rate_y,rate_z,quat_w,quat_x,quat_y,quat_z,mag_x,mag_y,mag_z,temperature,status_byte,packet_counter,time_fine
1,1,0.999199,0.00436084,0.0397743,0.000185284,-0.765176,0.0812783,9.77736,0.461052,-0.0170579,0.810181,-0.0076518,0.000803742,0.0977736,1,4.5035e-05,-1.0826e-07,1.53147e-05,0.00900701,-2.1652e-05,0.00306294,0.999199,0.00436084,0.0397743,0.000185284,-0.312796,-0.000442764,-0.876831,32.3125,1,49581,5008183
1,2,0.9992,0.00439354,0.0397583,0.000215019,-0.75484,0.0826375,9.78036,0.473365,-0.0145665,0.813729,-0.00755095,0.000818581,0.0978035,1,3.81842e-05,-1.28616e-05,2.15304e-05,0.00763683,-0.00257232,0.00430607,0.9992,0.00439354,0.0397583,0.000215019,-0.310904,4.70392e-05,-0.877839,32.3125,1,49582,5008283
1,3,0.9992,0.00448225,0.0397494,0.000240726,-0.74708,0.0854961,9.78982,0.478996,-0.0168219,0.822963,-0.00747133,0.000845521,0.0978983,1,4.76148e-05,-2.64497e-06,7.82508e-06,0.00952295,-0.000528994,0.00156502,0.9992,0.00448225,0.0397494,0.000240726,-0.311719,-0.00149843,-0.872819,32.3125,1,49584,5008483
1,4,0.9992,0.0045799,0.0397353,0.000263538,-0.767606,0.0684792,9.78982,0.460369,-0.0353585,0.825226,-0.00767758,0.000675162,0.0978982,1,4.79818e-05,-7.68525e-06,1.53258e-05,0.00959636,-0.00153705,0.00306516,0.9992,0.0045799,0.0397353,0.000263538,-0.313252,0.000988484,-0.874777,32.3125,1,49586,5008683
2,1,0.9992,0.00468207,0.0397101,0.000302404,-0.773488,0.0842166,9.78729,0.454174,-0.0234155,0.81885,-0.00773843,0.000832884,0.0978727,1,4.63239e-05,-1.80193e-05,1.38658e-05,0.00926478,-0.00360385,0.00277316,0.9992,0.00468207,0.0397101,0.000302404,-0.310423,4.30383e-05,-0.877841,32.3125,1,49588,5008883
2,2,0.999201,0.00475753,0.0396843,0.000324635,-0.792123,0.0723122,9.78189,0.430762,-0.0372003,0.82267,-0.00792451,0.000715743,0.0978187,1,3.65675e-05,-1.66296e-05,1.42362e-05,0.0073135,-0.00332591,0.00284724,0.999201,0.00475753,0.0396843,0.000324635,-0.310345,0.000467701,-0.874297,32.3125,1,49590,5009083
2,3,0.999201,0.00479685,0.0396717,0.000328992,-0.781782,0.0567025,9.78778,0.442705,-0.0529503,0.819202,-0.00782035,0.000559207,0.0978777,1,3.94732e-05,-1.28633e-05,5.84694e-06,0.00789464,-0.00257266,0.00116939,0.999201,0.00479685,0.0396717,0.000328992,-0.311323,5.96046e-06,-0.875313,32.3125,1,49591,5009183
2,4,0.999202,0.00490444,0.0396345,0.000347014,-0.798825,0.0684833,9.77342,0.423224,-0.050753,0.80586,-0.0079934,0.000673223,0.0977338,1,5.88372e-05,-2.62875e-05,6.84883e-06,0.0117674,-0.00525751,0.00136977,0.999202,0.00490444,0.0396345,0.000347014,-0.311822,-0.00335033,-0.878415,32.3125,1,49593,5009383
3,1,0.999203,0.00500191,0.0396044,0.000385558,-0.780093,0.102758,9.78003,0.440633,-0.00700737,0.815409,-0.00780425,0.00101793,0.0978001,1,4.77843e-05,-1.68158e-05,1.92691e-05,0.00955687,-0.00336315,0.00385382,0.999203,0.00500191,0.0396044,0.000385558,-0.309412,-0.00289158,-0.877911,32.3125,1,49595,5009583
3,2,0.999203,0.00509945,0.0395843,0.000386064,-0.791665,0.0925437,9.78883,0.432204,-0.0221875,0.827329,-0.00791829,0.00091608,0.0978882,1,4.70411e-05,-8.29802e-06,9.27805e-06,0.00940821,-0.0016596,0.00185561,0.999203,0.00509945,0.0395843,0.000386064,-0.309831,-0.00148738,-0.874342,32.3125,1,49597,5009783
3,3,0.999204,0.00519721,0.039541,0.000401209,-0.787197,0.094549,9.77627,0.432804,-0.023569,0.808891,-0.00787534,0.00093453,0.0977626,1,5.52256e-05,-1.71232e-05,1.02649e-05,0.0110451,-0.00342464,0.00205297,0.999204,0.00519721,0.039541,0.000401209,-0.312824,0.000541793,-0.877314,32.3125,1,49599,5009983
3,4,0.999205,0.00528578,0.0395114,0.000417704,-0.771182,0.0942537,9.78057,0.456847,-0.0264047,0.816934,-0.00771517,0.000933189,0.0978055,1,4.71734e-05,-1.70115e-05,7.82497e-06,0.00943467,-0.00340229,0.00156499,0.999205,0.00528578,0.0395114,0.000417704,-0.311817,1.89748e-05,-0.875815,32.3125,1,49601,5010183
4,1,0.999205,0.00533182,0.0395056,0.000413843,-0.80415,0.0819671,9.78509,0.41905,-0.0376742,0.822619,-0.00804256,0.000810602,0.0978509,1,4.6486e-05,-5.428e-06,-1.80126e-06,0.0092972,-0.0010856,-0.000360253,0.999205,0.00533182,0.0395056,0.000413843,-0.310324,-2.90861e-05,-0.873803,32.3125,1,49602,5010283
4,2,0.999205,0.00541502,0.0394944,0.000429437,-0.790825,0.0815047,9.78534,0.430258,-0.0506119,0.818374,-0.00791032,0.000807312,0.0978533,1,3.95365e-05,-1.05705e-05,-1.19371e-07,0.0079073,-0.0021141,-2.38741e-05,0.999205,0.00541502,0.0394944,0.000429437,-0.309913,-0.000945514,-0.87736,32.3125,1,49604,5010483
4,3,0.999206,0.00549252,0.0394519,0.000451395,-0.786772,0.0896558,9.78031,0.436082,-0.0321057,0.815962,-0.0078715,0.000887308,0.0978028,1,4.64413e-05,-1.92133e-05,1.05053e-05,0.00928826,-0.00384267,0.00210106,0.999206,0.00549252,0.0394519,0.000451395,-0.31183,-0.00141729,-0.877362,32.3125,1,49606,5010683
4,4,0.999207,0.00557586,0.0394176,0.000480101,-0.793925,0.0852757,9.77998,0.422422,-0.0363571,0.81959,-0.00794287,0.00084643,0.0977995,1,3.17339e-05,-1.84085e-05,7.53996e-06,0.00634679,-0.00368169,0.00150799,0.999207,0.00557586,0.0394176,0.000480101,-0.31081,-0.00050384,-0.874316,32.3125,1,49608,5010883
5,1,0.999208,0.00565834,0.0393938,0.000515206,-0.746954,0.0777348,9.77925,0.467789,-0.045975,0.809649,-0.00747135,0.000767587,0.0977924,1,4.82203e-05,-9.0822e-06,2.20945e-05,0.00964405,-0.00181644,0.0044189,0.999208,0.00565834,0.0393938,0.000515206,-0.311308,-0.00241486,-0.876377,32.3125,1,49610,5011083
5,2,0.999208,0.00568199,0.0393889,0.000526186,-0.766057,0.0766156,9.77733,0.448407,-0.0558967,0.810432,-0.00766161,0.000761232,0.0977733,1,2.42238e-05,-5.24142e-06,1.22263e-05,0.00484475,-0.00104828,0.00244526,0.999208,0.00568199,0.0393889,0.000526186,-0.310876,-0.00238279,-0.878398,32.3125,1,49611,5011183
5,3,0.999207,0.00577794,0.0393835,0.000547772,-0.764419,0.0742022,9.78441,0.452094,-0.0554954,0.817633,-0.00764375,0.000730561,0.0978442,1,5.75389e-05,2.33217e-06,1.3156e-05,0.0115078,0.000466434,0.0026312,0.999207,0.00577794,0.0393835,0.000547772,-0.312771,-0.000460794,-0.875821,32.3125,1,49613,5011383
5,4,0.999208,0.00587725,0.0393548,0.000563714,-0.782642,0.0833953,9.79311,0.442032,-0.0469823,0.82814,-0.00782927,0.000823854,0.0979309,1,5.09768e-05,-1.44824e-05,7.35005e-06,0.0101954,-0.00289648,0.00147001,0.999208,0.00587725,0.0393548,0.000563714,-0.310341,-0.000498824,-0.874823,32.3125,1,49615,5011583
6,1,0.999208,0.00597731,0.0393278,0.000584704,-0.78409,0.0917886,9.77962,0.436889,-0.0482594,0.815658,-0.00784373,0.000906989,0.0977961,1,5.44881e-05,-1.43404e-05,1.52641e-05,0.0108976,-0.00286808,0.00305283,0.999208,0.00597731,0.0393278,0.000584704,-0.310888,-0.000928499,-0.877861,32.3125,1,49617,5011783
6,2,0.999209,0.00607061,0.0392898,0.000605581,-0.760226,0.0830841,9.77803,0.449993,-0.0587246,0.812994,-0.00760542,0.000821587,0.0977802,1,4.67618e-05,-1.61377e-05,7.17305e-06,0.00935236,-0.00322754,0.00143461,0.999209,0.00607061,0.0392898,0.000605581,-0.312315,-0.000446763,-0.876833,32.3125,1,49619,5011983
6,3,0.99921,0.00616088,0.039259,0.000612515,-0.755426,0.0809355,9.779,0.463028,-0.0586762,0.81057,-0.0075578,0.00080051,0.0977898,1,4.41297e-05,-1.79598e-05,1.41987e-05,0.00882595,-0.00359197,0.00283975,0.99921,0.00616088,0.039259,0.000612515,-0.309351,-0.00293666,-0.875387,32.3125,1,49621,5012183
6,4,0.99921,0.00620436,0.0392477,0.000609695,-0.755484,0.0789443,9.78169,0.453414,-0.0680774,0.813233,-0.00755706,0.000780472,0.0978168,1,4.58658e-05,-1.13378e-05,-1.54565e-07,0.00917316,-0.00226757,-3.09131e-05,0.99921,0.00620436,0.0392477,0.000609695,-0.308376,-0.00295367,-0.874887,32.3125,1,49622,5012283
7,1,0.99921,0.00630752,0.0392253,0.000619211,-0.777075,0.0928943,9.7772,0.431704,-0.0566398,0.813672,-0.00777222,0.000918698,0.097772,1,5.12377e-05,-7.41102e-06,1.45007e-05,0.0102475,-0.0014822,0.00290014,0.99921,0.00630752,0.0392253,0.000619211,-0.310423,4.30383e-05,-0.877841,32.3125,1,49624,5012483
7,2,0.99921,0.00638691,0.0392179,0.000637007,-0.793604,0.0855379,9.75824,0.418473,-0.06416,0.793005,-0.00793652,0.000847934,0.0975824,1,3.73441e-05,-2.38807e-06,9.84619e-06,0.00746883,-0.000477613,0.00196924,0.99921,0.00638691,0.0392179,0.000637007,-0.310813,0.000462685,-0.873789,32.3125,1,49626,5012683
7,3,0.99921,0.00647308,0.0391926,0.000641251,-0.778022,0.10217,9.7868,0.437958,-0.0580039,0.820149,-0.00778322,0.00101447,0.0978678,1,3.63812e-05,-1.52382e-05,7.1264e-06,0.00727624,-0.00304764,0.00142528,0.99921,0.00647308,0.0391926,0.000641251,-0.310365,-0.000480793,-0.875833,32.3125,1,49628,5012883
7,4,0.99921,0.0065546,0.0391856,0.000667672,-0.812998,0.107308,9.77112,0.401631,-0.0420606,0.807759,-0.00813172,0.00106274,0.0977112,1,5.14275e-05,-8.71724e-06,1.76954e-05,0.0102855,-0.00174345,0.00353909,0.99921,0.0065546,0.0391856,0.000667672,-0.311344,-0.000942532,-0.876849,32.3125,1,49630,5013083
8,1,0.999211,0.00659043,0.0391625,0.000679243,-0.814183,0.0759939,9.77902,0.389657,-0.0729584,0.812929,-0.00814652,0.000752064,0.0977899,1,3.91044e-05,-2.38754e-05,1.39493e-05,0.00782088,-0.00477508,0.00278986,0.999211,0.00659043,0.0391625,0.000679243,-0.310863,-0.000946531,-0.876851,32.3125,1,49631,5013183
8,2,0.999211,0.00665349,0.0391363,0.000697965,-0.768271,0.0696569,9.79459,0.440871,-0.0858565,0.832684,-0.00768528,0.00069027,0.0979457,1,3.19462e-05,-1.30608e-05,2.6656e-06,0.00638925,-0.00261216,0.000533119,0.999211,0.00665349,0.0391363,0.000697965,-0.310773,-0.00197616,-0.873844,32.3125,1,49633,5013383
8,3,0.999211,0.00674217,0.0391345,0.000720378,-0.81698,0.0912282,9.76999,0.387386,-0.0689175,0.807142,-0.00816953,0.000902049,0.0977,1,5.12936e-05,1.49788e-06,1.28632e-05,0.0102587,0.000299577,0.00257265,0.999211,0.00674217,0.0391345,0.000720378,-0.310428,-0.00188099,-0.879399,32.3125,1,49635,5013583
8,4,0.999212,0.0068209,0.0391,0.000727059,-0.796826,0.0702804,9.78936,0.410003,-0.102078,0.820561,-0.00797204,0.000695852,0.0978933,1,3.4662e-05,-1.92129e-05,1.03884e-05,0.0069324,-0.00384259,0.00207768,0.999212,0.0068209,0.0391,0.000727059,-0.31083,-0.00145233,-0.875852,32.3125,1,49637,5013783
9,1,0.999212,0.00689691,0.0390835,0.000726276,-0.78506,0.0818731,9.78259,0.430154,-0.0946524,0.825195,-0.00785313,0.000810958,0.0978258,1,3.93075e-05,-1.2852e-05,5.26964e-06,0.00786149,-0.0025704,0.00105393,0.999212,0.00689691,0.0390835,0.000726276,-0.309864,0.000463701,-0.874299,32.3125,1,49639,5013983
9,2,0.999212,0.00692843,0.0390729,0.000729575,-0.769255,0.0870697,9.76489,0.441976,-0.0890347,0.800858,-0.00769478,0.000863512,0.0976488,1,3.61949e-05,-1.13565e-05,7.56419e-06,0.00723899,-0.00227131,0.00151284,0.999212,0.00692843,0.0390729,0.000729575,-0.311344,0.000502747,-0.875806,32.3125,1,49640,5014083
9,3,0.999212,0.00700256,0.0390632,0.000766625,-0.759884,0.0809527,9.79225,0.459315,-0.0873051,0.828009,-0.0076007,0.000798755,0.0979224,1,5.34262e-05,-9.35787e-06,2.02862e-05,0.0106852,-0.00187157,0.00405723,0.999212,0.00700256,0.0390632,0.000766625,-0.310901,-0.00236476,-0.879408,32.3125,1,49642,5014283
9,4,0.999212,0.00708257,0.0390511,0.000797324,-0.76762,0.0747276,9.79835,0.4434,-0.0987763,0.831938,-0.00767835,0.000737095,0.0979834,1,5.02596e-05,-1.077e-05,2.15921e-05,0.0100519,-0.00215401,0.00431842,0.999212,0.00708257,0.0390511,0.000797324,-0.311743,-0.0014804,-0.873828,32.3125,1,49644,5014483
10,1,0.999212,0.00716208,0.0390303,0.000807518,-0.755317,0.0811641,9.77288,0.44808,-0.0896801,0.80572,-0.007553,0.000801529,0.0977289,1,5.0772e-05,9.85011e-07,1.24219e-05,0.0101544,0.000197002,0.00248438,0.999212,0.00716208,0.0390303,0.000807518,-0.309839,-0.000999607,-0.874332,32.3125,1,49646,5014683
10,2,0.999212,0.00723445,0.0390234,0.000837867,-0.751319,0.107978,9.77987,0.460662,-0.0551634,0.813018,-0.00751544,0.0010718,0.0977987,1,3.97954e-05,-1.13547e-05,1.2938e-05,0.00795908,-0.00227094,0.0025876,0.999212,0.00723445,0.0390234,0.000837867,-0.311862,-0.000911485,-0.878361,32.3125,1,49648,5014883
10,3,0.999212,0.0072986,0.0390029,0.0008617,-0.76544,0.0926353,9.77238,0.440682,-0.0681237,0.802207,-0.00765768,0.000917677,0.0977236,1,4.3003e-05,-1.66089e-05,1.7723e-05,0.0086006,-0.00332179,0.0035446,0.999212,0.0072986,0.0390029,0.0008617,-0.309322,-0.00247593,-0.873862,32.3125,1,49650,5015083
10,4,0.999212,0.00733459,0.0389922,0.000856885,-0.753298,0.0682243,9.79108,0.452084,-0.101285,0.821273,-0.00753525,0.000674124,0.0979107,1,4.07509e-05,-1.15037e-05,9.26671e-06,0.00815019,-0.00230073,0.00185334,0.999212,0.00733459,0.0389922,0.000856885,-0.310276,-0.0029557,-0.873868,32.3125,1,49651,5015183
11,1,0.999213,0.00740292,0.0389683,0.000870935,-0.773202,0.0951839,9.78671,0.429273,-0.0718737,0.822469,-0.00773457,0.000942047,0.097867,1,4.87362e-05,-1.28446e-05,1.63482e-05,0.00974725,-0.00256891,0.00326965,0.999213,0.00740292,0.0389683,0.000870935,-0.311862,-0.000911485,-0.878361,32.3125,1,49653,5015383
11,2,0.999213,0.00747463,0.038947,0.000914558,-0.802472,0.090762,9.78584,0.40457,-0.0775839,0.823952,-0.00802784,0.000898348,0.0978582,1,4.57466e-05,-1.57728e-05,1.9867e-05,0.00914931,-0.00315457,0.0039734,0.999213,0.00747463,0.038947,0.000914558,-0.312306,0.000510747,-0.875802,32.3125,1,49655,5015583
11,3,0.999214,0.0075428,0.0389179,0.000927929,-0.780582,0.0727821,9.78825,0.425698,-0.0956687,0.819354,-0.00780798,0.000718944,0.0978824,1,4.43682e-05,-1.09171e-05,1.22991e-05,0.00887363,-0.00218341,0.00245982,0.999214,0.0075428,0.0389179,0.000927929,-0.310859,-0.000467779,-0.876335,32.3125,1,49657,5015783
11,4,0.999214,0.00758476,0.0388882,0.0009648,-0.760377,0.0983503,9.77918,0.447381,-0.0742868,0.812289,-0.00760742,0.000976298,0.0977916,1,3.57312e-05,-1.84995e-05,1.42998e-05,0.00714624,-0.00369991,0.00285995,0.999214,0.00758476,0.0388882,0.0009648,-0.311834,-0.00189604,-0.877878,32.3125,1,49659,5015983
12,1,0.999215,0.00760163,0.038878,0.000995249,-0.772909,0.0937076,9.7894,0.435182,-0.0792832,0.824336,-0.00773167,0.000929865,0.0978938,1,3.50848e-05,-1.29656e-05,2.21042e-05,0.00701695,-0.00259312,0.00442083,0.999215,0.00760163,0.038878,0.000995249,-0.310859,-0.00191306,-0.877378,32.3125,1,49660,5016083
12,2,0.999214,0.00765941,0.0388748,0.000974961,-0.813122,0.0929384,9.77067,0.385522,-0.0788572,0.80724,-0.00813266,0.000920434,0.0977066,1,4.66312e-05,-7.4843e-06,-9.99708e-06,0.00932624,-0.00149686,-0.00199942,0.999214,0.00765941,0.0388748,0.000974961,-0.311258,-0.00100564,-0.873315,32.3125,1,49662,5016283
12,3,0.999214,0.00776028,0.0388557,0.000962345,-0.811838,0.0736167,9.78643,0.394404,-0.100458,0.823124,-0.00812043,0.000726492,0.0978642,1,4.78793e-05,-1.03471e-05,1.8684e-05,0.00957587,-0.00206942,0.00373679,0.999214,0.00776028,0.0388557,0.000962345,-0.310386,-0.00142929,-0.877369,32.3125,1,49664,5016483
12,4,0.999216,0.00779995,0.0388117,0.000992691,-0.799254,0.0798353,9.78132,0.403777,-0.100325,0.816619,-0.00799697,0.000790403,0.0978129,1,3.94936e-05,-2.2499e-05,1.40294e-05,0.00789872,-0.0044998,0.00280587,0.999216,0.00779995,0.0388117,0.000992691,-0.311349,-0.00142129,-0.877364,32.3125,1,49666,5016683
13,1,0.999216,0.00786422,0.038797,0.00101679,-0.764212,0.0760341,9.79021,0.44179,-0.102735,0.825995,-0.00764524,0.000750981,0.0979019,1,4.58788e-05,-1.57413e-05,2.46745e-05,0.00917575,-0.00314825,0.00493491,0.999216,0.00786422,0.038797,0.00101679,-0.309872,-0.000493808,-0.87533,32.3125,1,49668,5016883
13,2,0.999216,0.00794739,0.0387829,0.000964053,-0.786832,0.080439,9.77716,0.415892,-0.0971748,0.81476,-0.00787079,0.000795085,0.0977715,1,4.64972e-05,-1.25244e-05,1.35026e-05,0.00929943,-0.00250488,0.00270051,0.999216,0.00794739,0.0387829,0.000964053,-0.310329,-0.00195312,-0.875361,32.3125,1,49670,5017083
13,3,0.999216,0.0079737,0.0387749,0.000958022,-0.798709,0.0774963,9.77925,0.404392,-0.106909,0.816643,-0.00798915,0.000767056,0.0977924,1,3.92496e-05,-1.03863e-05,1.4363e-05,0.00784991,-0.00207726,0.00287259,0.999216,0.0079737,0.0387749,0.000958022,-0.310892,3.8024e-05,-0.877334,32.3125,1,49671,5017183
13,4,0.999217,0.00801135,0.038743,0.00097839,-0.776231,0.0872556,9.78801,0.424663,-0.0924837,0.821626,-0.00776493,0.000864275,0.0978799,1,4.20287e-05,-1.33888e-05,3.44782e-06,0.00840574,-0.00267777,0.000689564,0.999217,0.00801135,0.038743,0.00097839,-0.311328,-0.00191807,-0.87687,32.3125,1,49673,5017383
14,1,0.999217,0.00806176,0.0387175,0.000979715,-0.771426,0.077418,9.77772,0.424617,-0.103154,0.813437,-0.00771883,0.00076672,0.0977769,1,3.70031e-05,-2.3259e-05,1.45104e-05,0.00740062,-0.0046518,0.00290207,0.999217,0.00806176,0.0387175,0.000979715,-0.309408,-0.000967547,-0.876353,32.3125,1,49675,5017583
14,2,0.999218,0.00812598,0.0386839,0.000941713,-0.756718,0.0855687,9.78414,0.441437,-0.105436,0.819717,-0.00757182,0.000843322,0.0978412,1,6.28474e-05,-2.36802e-05,4.37147e-06,0.0125695,-0.00473604,0.000874295,0.999218,0.00812598,0.0386839,0.000941713,-0.30995,-0.000918468,-0.878875,32.3125,1,49677,5017783
14,3,0.999219,0.00810651,0.0386724,0.00101247,-0.759035,0.0903292,9.79266,0.442638,-0.0977364,0.829251,-0.00758961,0.00089671,0.0979267,1,3.21754e-05,3.90212e-06,1.84681e-05,0.00643508,0.000780424,0.00369361,0.999219,0.00810651,0.0386724,0.00101247,-0.311834,-0.000450764,-0.876835,32.3125,1,49679,5017983
14,4,0.999219,0.00813781,0.0386523,0.00103821,-0.777447,0.109886,9.78041,0.425813,-0.080441,0.81685,-0.00777789,0.00108902,0.0978039,1,4.95297e-05,-1.73336e-05,9.7006e-06,0.00990593,-0.00346673,0.00194012,0.999219,0.00813781,0.0386523,0.00103821,-0.311312,-0.00144833,-0.87585,32.3125,1,49680,5018083
15,1,0.99922,0.00819475,0.0386195,0.00106694,-0.789941,0.108137,9.78319,0.412286,-0.0824847,0.823712,-0.00790353,0.00107103,0.0978317,1,5.25342e-05,-2.09991e-05,4.17794e-06,0.0105068,-0.00419983,0.000835587,0.99922,0.00819475,0.0386195,0.00106694,-0.3128,-0.000921516,-0.877347,32.3125,1,49682,5018283
15,2,0.999221,0.0082076,0.0385822,0.00121111,-0.766894,0.082404,9.793,0.431739,-0.10836,0.82917,-0.00767309,0.000815874,0.0979297,1,4.09187e-05,-2.11017e-05,9.84959e-06,0.00818374,-0.00422034,0.00196992,0.999221,0.0082076,0.0385822,0.00121111,-0.311369,-0.0009245,-0.877858,32.3125,1,49684,5018483
15,3,0.999221,0.00824396,0.0385632,0.00128389,-0.753066,0.0807884,9.78814,0.442983,-0.108817,0.82034,-0.00753259,0.000800658,0.0978813,1,3.56752e-05,-9.7158e-06,1.60801e-05,0.00713505,-0.00194316,0.00321602,0.999221,0.00824396,0.0385632,0.00128389,-0.31079,-0.0024459,-0.874864,32.3125,1,49686,5018683
15,4,0.999222,0.00830715,0.0385485,0.00117334,-0.736811,0.0901492,9.77895,0.466174,-0.099982,0.809394,-0.00737197,0.00089527,0.0977893,1,3.11398e-05,-1.96414e-05,8.89955e-06,0.00622797,-0.00392828,0.00177991,0.999222,0.00830715,0.0385485,0.00117334,-0.311308,-0.00241486,-0.876377,32.3125,1,49688,5018883
16,1,0.999221,0.00833429,0.0385484,0.00116519,-0.75486,0.0842293,9.79563,0.446341,-0.104939,0.835864,-0.00754947,0.000833302,0.0979563,1,4.5551e-05,-4.41267e-06,4.39235e-06,0.0091102,-0.000882533,0.000878469,0.999221,0.00833429,0.0385484,0.00116519,-0.313286,-0.00284155,-0.878902,32.3125,1,49689,5018983
16,2,0.999221,0.00834331,0.0385647,0.00124951,-0.849523,0.0587718,9.7713,0.352482,-0.124066,0.808279,-0.00849691,0.000577487,0.0977129,1,5.23794e-05,-8.61287e-06,-2.64999e-07,0.0104759,-0.00172258,-5.29998e-05,0.999221,0.00834331,0.0385647,0.00124951,-0.310839,-0.000964561,-0.875841,32.3125,1,49691,5019183
16,3,0.99922,0.0084435,0.0385469,0.00118348,-0.766613,0.109582,9.7861,0.435835,-0.0673786,0.816679,-0.00766766,0.00108608,0.097861,1,4.85871e-05,-7.66656e-06,1.46608e-05,0.00971742,-0.00153331,0.00293217,0.99922,0.0084435,0.0385469,0.00118348,-0.311319,0.000484716,-0.874797,32.3125,1,49693,5019383
16,4,0.999221,0.00850658,0.0385153,0.00119628,-0.76292,0.0734561,9.76576,0.431803,-0.114551,0.800756,-0.00763228,0.000726725,0.0976574,1,3.88996e-05,-1.56611e-05,1.56255e-05,0.00777991,-0.00313222,0.0031251,0.999221,0.00850658,0.0385153,0.00119628,-0.311386,-0.00139424,-0.878879,32.3125,1,49695,5019583
17,1,0.999222,0.00849997,0.0385013,0.00123862,-0.739106,0.0758668,9.7863,0.457415,-0.109198,0.821423,-0.00739286,0.000750927,0.0978629,1,3.85866e-05,-9.10474e-06,1.27143e-05,0.00771731,-0.00182095,0.00254286,0.999222,0.00849997,0.0385013,0.00123862,-0.310382,-0.000950532,-0.876853,32.3125,1,49697,5019783
17,2,0.999221,0.00853719,0.0385008,0.00116604,-0.785489,0.084324,9.78635,0.418681,-0.108268,0.821274,-0.00785564,0.000836315,0.0978635,1,3.60645e-05,-3.8613e-06,-8.48253e-06,0.00721291,-0.00077226,-0.00169651,0.999221,0.00853719,0.0385008,0.00116604,-0.312245,-0.00242489,-0.875362,32.3125,1,49699,5019983
17,3,0.999221,0.00857826,0.0384967,0.00119207,-0.809999,0.0562266,9.79339,0.388036,-0.143366,0.831518,-0.00810159,0.000552599,0.0979338,1,4.6989e-05,-7.9828e-06,2.85917e-05,0.00939779,-0.00159656,0.00571834,0.999221,0.00857826,0.0384967,0.00119207,-0.310835,-0.00193109,-0.876368,32.3125,1,49700,5020083
17,4,0.999222,0.00859601,0.0384851,0.0011767,-0.885451,0.0944043,9.77084,0.308855,-0.105617,0.809762,-0.00885781,0.000933893,0.0977082,1,5.07553e-05,-1.67434e-05,1.30884e-05,0.0101511,-0.00334869,0.00261768,0.999222,0.00859601,0.0384851,0.0011767,-0.310403,-0.000453746,-0.877347,32.3125,1,49702,5020283
18,1,0.999222,0.00865379,0.0384482,0.00117023,-0.770569,0.0888025,9.77712,0.425153,-0.109297,0.814023,-0.00770766,0.000878635,0.0977712,1,4.75142e-05,-1.00621e-05,6.39634e-06,0.00950284,-0.00201242,0.00127927,0.999222,0.00865379,0.0384482,0.00117023,-0.31178,-8.07084e-06,-0.874301,32.3125,1,49704,5020483
18,2,0.999223,0.00874125,0.0384108,0.00114061,-0.765161,0.0905716,9.78117,0.429046,-0.116131,0.81706,-0.00765276,0.000896123,0.0978117,1,4.8032e-05,-5.73508e-06,1.28858e-05,0.0096064,-0.00114702,0.00257716,0.999223,0.00874125,0.0384108,0.00114061,-0.310362,-0.00144732,-0.876359,32.3125,1,49706,5020683
18,3,0.999224,0.00877617,0.0383837,0.00115333,-0.744589,0.083372,9.79115,0.449202,-0.121886,0.8259,-0.00744839,0.00082439,0.0979114,1,4.57391e-05,-1.25878e-05,2.51049e-05,0.00914781,-0.00251755,0.00502097,0.999224,0.00877617,0.0383837,0.00115333,-0.311373,4.20231e-05,-0.877332,32.3125,1,49708,5020883
18,4,0.999224,0.00877824,0.0383814,0.00117465,-0.744409,0.0844626,9.77419,0.450257,-0.114929,0.807858,-0.00744402,0.00083757,0.097742,1,3.50495e-05,4.76674e-07,1.37777e-05,0.00700989,9.53348e-05,0.00275554,0.999224,0.00877824,0.0383814,0.00117465,-0.311817,1.89748e-05,-0.875815,32.3125,1,49709,5020983
19,1,0.999223,0.00883876,0.0383838,0.00111667,-0.770738,0.0687473,9.79188,0.424189,-0.135936,0.826839,-0.00770628,0.00067907,0.097919,1,4.25354e-05,5.66442e-06,4.73645e-06,0.00850708,0.00113288,0.00094729,0.999223,0.00883876,0.0383838,0.00111667,-0.309901,0.000490746,-0.875813,32.3125,1,49711,5021183
19,2,0.999223,0.0088749,0.0383891,0.00112963,-0.766198,0.0764335,9.79156,0.427269,-0.121094,0.828515,-0.00765937,0.000753434,0.0979159,1,5.35901e-05,1.35429e-05,2.65652e-05,0.010718,0.00270859,0.00531305,0.999223,0.0088749,0.0383891,0.00112963,-0.311451,-0.000382638,-0.880876,32.3125,1,49713,5021383
19,3,0.999224,0.0088591,0.0383646,0.00120274,-0.792008,0.0711363,9.78426,0.401534,-0.127845,0.820288,-0.00792495,0.000701254,0.0978422,1,5.05299e-05,-2.47638e-05,1.39849e-05,0.010106,-0.00495275,0.00279697,0.999224,0.0088591,0.0383646,0.00120274,-0.310407,-0.0009325,-0.877863,32.3125,1,49715,5021583
19,4,0.999224,0.00890503,0.0383617,0.00113708,-0.757813,0.1095,9.78909,0.435522,-0.096651,0.828504,-0.00757827,0.00108778,0.0978909,1,3.63942e-05,-6.18267e-07,6.64774e-06,0.00727884,-0.000123653,0.00132955,0.999224,0.00890503,0.0383617,0.00113708,-0.310826,-0.000973577,-0.875337,32.3125,1,49717,5021783
20,1,0.999223,0.00895331,0.0383601,0.00113263,-0.758938,0.100425,9.77442,0.438177,-0.0972062,0.80972,-0.00758969,0.000995462,0.0977443,1,4.44855e-05,-1.5162e-06,6.05761e-06,0.0088971,-0.00030324,0.00121152,0.999223,0.00895331,0.0383601,0.00113263,-0.31044,-0.00187198,-0.879904,32.3125,1,49719,5021983
20,2,0.999223,0.00895225,0.0383532,0.0011506,-0.769436,0.0889396,9.789,0.42324,-0.112448,0.824938,-0.00769743,0.000880098,0.0978898,1,4.7354e-05,-1.56948e-05,1.77509e-06,0.0094708,-0.00313895,0.000355017,0.999223,0.00895225,0.0383532,0.0011506,-0.308976,-0.000935484,-0.878375,32.3125,1,49720,5022083
20,3,0.999223,0.00899262,0.0383631,0.00109214,-0.754153,0.0809703,9.78136,0.434177,-0.120935,0.817835,-0.00754333,0.000801701,0.0978136,1,4.04045e-05,-9.14732e-06,6.50437e-06,0.00808091,-0.00182946,0.00130087,0.999223,0.00899262,0.0383631,0.00109214,-0.311723,-0.00197718,-0.873334,32.3125,1,49722,5022283
20,4,0.999222,0.00906365,0.038368,0.00107928,-0.771659,0.0904165,9.78019,0.423297,-0.113764,0.816405,-0.00771759,0.000895471,0.0978019,1,4.37572e-05,-5.01248e-06,8.73407e-06,0.00875144,-0.0010025,0.00174681,0.999222,0.00906365,0.038368,0.00107928,-0.312355,0.000546809,-0.877821,32.3125,1,49724,5022483
21,1,0.999222,0.00907937,0.038359,0.00115662,-0.769902,0.0839304,9.79471,0.423931,-0.123007,0.830346,-0.00769788,0.000832652,0.0979473,1,3.18904e-05,6.05314e-06,2.62616e-05,0.00637808,0.00121063,0.00525231,0.999222,0.00907937,0.038359,0.00115662,-0.310391,-0.00190804,-0.877885,32.3125,1,49726,5022683
21,2,0.999222,0.0091087,0.0383545,0.00115591,-0.783231,0.0913734,9.77892,0.410715,-0.122657,0.816072,-0.00783304,0.000904383,0.0977893,1,4.76371e-05,-3.74587e-06,2.18306e-06,0.00952743,-0.000749174,0.000436612,0.999222,0.0091087,0.0383545,0.00115591,-0.310312,-3.81013e-05,-0.873298,32.3125,1,49728,5022883
21,3,0.999222,0.00914865,0.0383479,0.00111363,-0.801328,0.0978115,9.76757,0.389928,-0.111578,0.806648,-0.00801465,0.000969046,0.0976757,1,4.49848e-05,-6.80589e-06,1.75516e-05,0.00899696,-0.00136118,0.00351033,0.999222,0.00914865,0.0383479,0.00111363,-0.309847,-0.000511838,-0.874321,32.3125,1,49729,5022983
21,4,0.999223,0.0091794,0.0383164,0.0010939,-0.809087,0.087424,9.77943,0.384176,-0.121576,0.816538,-0.00809621,0.000865397,0.0977939,1,4.38e-05,-2.71631e-05,1.70896e-05,0.00876001,-0.00543263,0.00341793,0.999223,0.0091794,0.0383164,0.0010939,-0.310929,6.50696e-05,-0.878848,32.3125,1,49731,5023183
22,1,0.999223,0.00920956,0.0382912,0.00115197,-0.782297,0.0874486,9.79552,0.411728,-0.123349,0.832895,-0.00782584,0.000865798,0.097955,1,4.31984e-05,-1.44861e-05,1.44001e-05,0.00863967,-0.00289722,0.00288002,0.999223,0.00920956,0.0382912,0.00115197,-0.309403,-0.000488793,-0.875837,32.3125,1,49733,5023383
22,2,0.999223,0.00925282,0.0382918,0.00109358,-0.794329,0.0875939,9.78304,0.39953,-0.121253,0.819504,-0.00794484,0.000869756,0.0978304,1,3.09087e-05,-7.83253e-06,8.51584e-06,0.00618175,-0.00156651,0.00170317,0.999223,0.00925282,0.0382918,0.00109358,-0.311315,-0.000481809,-0.875323,32.3125,1,49735,5023583
22,3,0.999223,0.00928569,0.0382835,0.00108276,-0.774346,0.0701282,9.79091,0.416057,-0.141868,0.826374,-0.00774574,0.000692847,0.0979089,1,4.27496e-05,-1.16099e-05,4.11815e-06,0.00854991,-0.00232198,0.00082363,0.999223,0.00928569,0.0382835,0.00108276,-0.310884,-0.000449747,-0.877345,32.3125,1,49737,5023783
22,4,0.999223,0.00929897,0.038283,0.00111335,-0.794313,0.0952552,9.7821,0.397031,-0.109709,0.817841,-0.00794615,0.00094562,0.0978208,1,3.40492e-05,-1.5283e-05,1.70282e-05,0.00680984,-0.00305659,0.00340565,0.999223,0.00929897,0.038283,0.00111335,-0.309436,-0.00142827,-0.877878,32.3125,1,49739,5023983
23,1,0.999223,0.00931703,0.0382745,0.00111681,-0.792469,0.0773115,9.78057,0.399523,-0.138372,0.817779,-0.00792829,0.000762798,0.0978055,1,5.11017e-05,-1.82521e-05,2.02358e-05,0.0102203,-0.00365041,0.00404715,0.999223,0.00931703,0.0382745,0.00111681,-0.309354,-0.00197013,-0.87486,32.3125,1,49740,5024083
23,2,0.999224,0.00936014,0.0382529,0.00105512,-0.773403,0.0811307,9.77811,0.42092,-0.130703,0.820231,-0.00773821,0.000804093,0.0977808,1,3.70444e-05,-2.14072e-05,-1.99495e-06,0.00740888,-0.00428144,-0.000398989,0.999224,0.00936014,0.0382529,0.00105512,-0.30995,0.000526809,-0.877833,32.3125,1,49742,5024283
23,3,0.999224,0.00937425,0.038238,0.00111464,-0.774199,0.0804099,9.78183,0.416138,-0.136152,0.813333,-0.00774603,0.000795429,0.0978181,1,4.3843e-05,-2.05876e-05,6.00922e-06,0.00876861,-0.00411752,0.00120184,0.999224,0.00937425,0.038238,0.00111464,-0.311846,-0.00188703,-0.878383,32.3125,1,49744,5024483
23,4,0.999224,0.0094238,0.0382149,0.00114532,-0.765001,0.0927818,9.78459,0.42525,-0.122198,0.820204,-0.00765427,0.000918431,0.0978457,1,4.73223e-05,-2.16944e-05,8.27373e-06,0.00946446,-0.00433888,0.00165475,0.999224,0.0094238,0.0382149,0.00114532,-0.309358,-0.00100361,-0.874334,32.3125,1,49746,5024683
24,1,0.999225,0.00948251,0.0381974,0.00108525,-0.772796,0.081181,9.7781,0.418919,-0.134449,0.816343,-0.0077314,0.000802697,0.0977808,1,4.50163e-05,-1.74141e-05,2.0001e-05,0.00900327,-0.00348281,0.0040002,0.999225,0.00948251,0.0381974,0.00108525,-0.310851,-0.00240082,-0.877388,32.3125,1,49748,5024883
24,2,0.999225,0.00949389,0.0381948,0.00108893,-0.779269,0.0769851,9.7781,0.411553,-0.139428,0.818781,-0.00779541,0.000761547,0.0977809,1,4.19357e-05,-1.38132e-05,6.55647e-06,0.00838713,-0.00276264,0.00131129,0.999225,0.00949389,0.0381948,0.00108893,-0.311394,-0.000906469,-0.878868,32.3125,1,49749,5024983
24,3,0.999225,0.00951411,0.0381759,0.00119555,-0.773686,0.0691688,9.78682,0.41427,-0.146571,0.821235,-0.00774087,0.000682989,0.097868,1,4.28408e-05,-2.03325e-05,2.02453e-05,0.00856816,-0.0040665,0.00404907,0.999225,0.00951411,0.0381759,0.00119555,-0.313245,-0.00238984,-0.876872,32.3125,1,49751,5025183
24,4,0.999225,0.00958637,0.0381596,0.0011825,-0.763439,0.0757313,9.79529,0.428421,-0.144108,0.831508,-0.00763859,0.000745955,0.0979527,1,5.79749e-05,-2.14184e-05,-9.35233e-09,0.011595,-0.00428367,-1.87047e-06,0.999225,0.00958637,0.0381596,0.0011825,-0.311763,0.00046167,-0.87328,32.3125,1,49753,5025383
25,1,0.999225,0.00964404,0.0381428,0.00117608,-0.77793,0.0787595,9.78184,0.410725,-0.138903,0.818894,-0.00778152,0.000778489,0.0978183,1,4.46253e-05,-1.11347e-05,2.41436e-05,0.00892506,-0.00222695,0.00482872,0.999225,0.00964404,0.0381428,0.00117608,-0.310851,-0.000955546,-0.876346,32.3125,1,49755,5025583
25,2,0.999225,0.0096904,0.0381277,0.00118101,-0.760636,0.0845266,9.77702,0.427973,-0.13871,0.811426,-0.00760893,0.000833745,0.0977701,1,5.83846e-05,-1.30591e-05,6.83394e-06,0.0116769,-0.00261182,0.00136679,0.999225,0.0096904,0.0381277,0.00118101,-0.309379,-0.000506824,-0.874828,32.3125,1,49757,5025783
25,3,0.999226,0.00971806,0.0381111,0.00114154,-0.766316,0.0788133,9.78651,0.425041,-0.143552,0.826828,-0.00766729,0.00077796,0.0978649,1,5.13511e-05,-2.10185e-05,7.9501e-06,0.0102702,-0.00420369,0.00159002,0.999226,0.00971806,0.0381111,0.00114154,-0.309321,-0.00103066,-0.872819,32.3125,1,49758,5025883
25,4,0.999225,0.00977042,0.0381101,0.00106349,-0.773944,0.0782711,9.78689,0.418593,-0.145862,0.820864,-0.00773903,0.000774853,0.097869,1,3.8743e-05,2.26492e-06,1.77212e-05,0.00774861,0.000452983,0.00354424,0.999225,0.00977042,0.0381101,0.00106349,-0.310822,-0.0019401,-0.875863,32.3125,1,49760,5026083
26,1,0.999225,0.00979964,0.0381088,0.00110304,-0.791785,0.0974951,9.77734,0.399098,-0.124857,0.812053,-0.00791868,0.000965911,0.0977734,1,4.46029e-05,-4.00807e-06,2.01017e-05,0.00892058,-0.000801613,0.00402034,0.999225,0.00979964,0.0381088,0.00110304,-0.311349,-0.00142129,-0.877364,32.3125,1,49762,5026283
26,2,0.999224,0.00982139,0.0381154,0.00114386,-0.766771,0.108602,9.77929,0.417217,-0.115339,0.811947,-0.00766682,0.00107727,0.0977931,1,4.32078e-05,4.78533e-06,1.94162e-05,0.00864156,0.000957066,0.00388324,0.999224,0.00982139,0.0381154,0.00114386,-0.31218,-0.00343649,-0.873365,32.3125,1,49764,5026483
26,3,0.999224,0.00985387,0.0381133,0.00110559,-0.771455,0.0765376,9.79161,0.417401,-0.147814,0.824076,-0.00771579,0.000759192,0.0979161,1,3.12291e-05,-6.29192e-06,4.42758e-06,0.00624582,-0.00125838,0.000885516,0.999224,0.00985387,0.0381133,0.00110559,-0.310398,2.5006e-05,-0.876832,32.3125,1,49766,5026683
26,4,0.999224,0.00987428,0.0381116,0.00116847,-0.789508,0.0798991,9.78634,0.398086,-0.14805,0.823339,-0.00789586,0.000789985,0.0978634,1,4.4508e-05,-3.83889e-06,1.86319e-05,0.00890159,-0.000767779,0.00372638,0.999224,0.00987428,0.0381116,0.00116847,-0.309881,-0.00145132,-0.876362,32.3125,1,49768,5026883
27,1,0.999224,0.00988873,0.0381069,0.00115281,-0.787247,0.100144,9.7848,0.401852,-0.12737,0.82028,-0.00787492,0.000992432,0.0978479,1,4.50444e-05,-1.24425e-05,1.25151e-05,0.00900887,-0.0024885,0.00250301,0.999224,0.00988873,0.0381069,0.00115281,-0.309819,-0.00294167,-0.87488,32.3125,1,49769,5026983
27,2,0.999224,0.00992772,0.0380957,0.00109356,-0.792708,0.0987411,9.77601,0.395118,-0.124762,0.809796,-0.00792986,0.000979184,0.09776,1,4.16153e-05,-1.42025e-05,5.73314e-06,0.00832305,-0.00284051,0.00114663,0.999224,0.00992772,0.0380957,0.00109356,-0.311312,-0.00144833,-0.87585,32.3125,1,49771,5027183
27,3,0.999225,0.00994661,0.0380818,0.00110901,-0.801963,0.0703347,9.77922,0.387179,-0.154203,0.809381,-0.00802381,0.00069393,0.0977919,1,4.69164e-05,-2.12357e-05,1.50019e-05,0.00938328,-0.00424714,0.00300039,0.999225,0.00994661,0.0380818,0.00110901,-0.310892,-0.00140725,-0.878376,32.3125,1,49772,5027283
27,4,0.999225,0.00994661,0.0380818,0.00110901,-0.801963,0.0703347,9.77922,0.387179,-0.154203,0.809381,-0.00802381,0.00069393,0.0977919,1,4.69164e-05,-2.12357e-05,1.50019e-05,0.00938328,-0.00424714,0.00300039,0.999225,0.00994661,0.0380818,0.00110901,-0.310892,-0.00140725,-0.878376,32.3125,1,49772,5027283
28,1,0.999224,0.00996622,0.0380853,0.00121738,-0.796106,0.090366,9.78137,0.391424,-0.133879,0.815159,-0.00796231,0.000891244,0.0978138,1,6.23874e-05,-6.26803e-06,1.32602e-05,0.0124775,-0.00125361,0.00265205,0.999224,0.00996622,0.0380853,0.00121738,-0.311826,-0.00238381,-0.877889,32.3125,1,49774,5027483
28,2,0.999224,0.00996365,0.0380801,0.00126377,-0.778588,0.0887606,9.78906,0.407474,-0.142086,0.822933,-0.0077892,0.000880944,0.0978904,1,3.27229e-05,-1.68292e-05,1.64415e-05,0.00654457,-0.00336585,0.00328831,0.999224,0.00996365,0.0380801,0.00126377,-0.311287,-0.00291164,-0.875883,32.3125,1,49775,5027583
28,3,0.999224,0.00996365,0.0380801,0.00126377,-0.778588,0.0887606,9.78906,0.407474,-0.142086,0.822933,-0.0077892,0.000880944,0.0978904,1,3.27229e-05,-1.68292e-05,1.64415e-05,0.00654457,-0.00336585,0.00328831,0.999224,0.00996365,0.0380801,0.00126377,-0.311287,-0.00291164,-0.875883,32.3125,1,49775,5027583
28,4,0.999224,0.00996365,0.0380801,0.00126377,-0.778588,0.0887606,9.78906,0.407474,-0.142086,0.822933,-0.0077892,0.000880944,0.0978904,1,3.27229e-05,-1.68292e-05,1.64415e-05,0.00654457,-0.00336585,0.00328831,0.999224,0.00996365,0.0380801,0.00126377,-0.311287,-0.00291164,-0.875883,32.3125,1,49775,5027583
29,1,0.999225,0.00998073,0.0380675,0.00122359,-0.762129,0.0863232,9.76958,0.425369,-0.135195,0.801834,-0.00762256,0.000856501,0.0976958,1,3.34439e-05,-6.39794e-06,1.28428e-05,0.00668878,-0.00127959,0.00256856,0.999225,0.00998073,0.0380675,0.00122359,-0.310378,-0.000471778,-0.876338,32.3125,1,49777,5027783
29,2,0.999224,0.0100032,0.0380655,0.00122246,-0.769798,0.0798312,9.78484,0.420231,-0.147532,0.82137,-0.0076996,0.000788236,0.0978484,1,5.04516e-05,-8.1417e-06,1.31913e-05,0.0100903,-0.00162834,0.00263827,0.999224,0.0100032,0.0380655,0.00122246,-0.31088,-0.00286155,-0.878914,32.3125,1,49778,5027883
29,3,0.999224,0.00999217,0.038074,0.00125023,-0.784527,0.0861146,9.78127,0.40207,-0.144572,0.819357,-0.00784613,0.000855371,0.0978126,1,2.87816e-05,-4.30082e-06,9.19224e-06,0.00575632,-0.000860164,0.00183845,0.999224,0.00999217,0.038074,0.00125023,-0.31188,-0.0028265,-0.880423,32.3125,1,49779,5027983
29,4,0.999224,0.00999217,0.038074,0.00125023,-0.784527,0.0861146,9.78127,0.40207,-0.144572,0.819357,-0.00784613,0.000855371,0.0978126,1,2.87816e-05,-4.30082e-06,9.19224e-06,0.00575632,-0.000860164,0.00183845,0.999224,0.00999217,0.038074,0.00125023,-0.31188,-0.0028265,-0.880423,32.3125,1,49779,5027983
30,1,0.999223,0.0100289,0.0380863,0.00135506,-0.790703,0.0804272,9.7945,0.397393,-0.145501,0.833018,-0.00790887,0.000792042,0.0979449,1,6.0579e-05,-9.15463e-06,2.29679e-05,0.0121158,-0.00183093,0.00459357,0.999223,0.0100289,0.0380863,0.00135506,-0.311295,-0.000978593,-0.874829,32.3125,3,49781,5028183
30,2,0.999223,0.0100527,0.0380786,0.00135212,-0.784556,0.0978129,9.78171,0.404244,-0.128496,0.823247,-0.00784802,0.000969784,0.097817,1,4.1144e-05,-1.23362e-05,1.88277e-05,0.00822879,-0.00246723,0.00376554,0.999223,0.0100527,0.0380786,0.00135212,-0.311698,-0.00199521,-0.872325,32.3125,3,49782,5028283
30,3,0.999223,0.0100527,0.0380786,0.00135212,-0.784556,0.0978129,9.78171,0.404244,-0.128496,0.823247,-0.00784802,0.000969784,0.097817,1,4.1144e-05,-1.23362e-05,1.88277e-05,0.00822879,-0.00246723,0.00376554,0.999223,0.0100527,0.0380786,0.00135212,-0.311698,-0.00199521,-0.872325,32.3125,3,49782,5028283
30,4,0.999223,0.0100527,0.0380786,0.00135212,-0.784556,0.0978129,9.78171,0.404244,-0.128496,0.823247,-0.00784802,0.000969784,0.097817,1,4.1144e-05,-1.23362e-05,1.88277e-05,0.00822879,-0.00246723,0.00376554,0.999223,0.0100527,0.0380786,0.00135212,-0.311698,-0.00199521,-0.872325,32.3125,3,49782,5028283
31,1,0.999224,0.010111,0.0380431,0.00131724,-0.774704,0.0685408,9.78072,0.406468,-0.160354,0.820183,-0.00775025,0.000676486,0.097807,1,4.41186e-05,-1.62797e-05,1.88778e-05,0.00882373,-0.00325593,0.00377556,0.999224,0.010111,0.0380431,0.00131724,-0.310394,-0.000941515,-0.877358,32.3125,3,49784,5028483
31,2,0.999225,0.0101187,0.0380247,0.00132942,-0.729389,0.0609827,9.77967,0.455032,-0.169637,0.809124,-0.00729909,0.000601717,0.0977964,1,4.01976e-05,-2.64833e-05,1.69278e-05,0.00803952,-0.00529665,0.00338557,0.999225,0.0101187,0.0380247,0.00132942,-0.309947,-0.00188499,-0.879401,32.3125,3,49785,5028583
31,3,0.999225,0.0101213,0.0380265,0.0013356,-0.73451,0.0658809,9.80213,0.454536,-0.161911,0.836918,-0.007347,0.000650085,0.0980212,1,4.44036e-05,-9.66726e-06,1.32618e-06,0.00888071,-0.00193345,0.000265235,0.999225,0.0101213,0.0380265,0.0013356,-0.310386,-0.00142929,-0.877369,32.3125,3,49786,5028683
31,4,0.999225,0.0101213,0.0380265,0.0013356,-0.73451,0.0658809,9.80213,0.454536,-0.161911,0.836918,-0.007347,0.000650085,0.0980212,1,4.44036e-05,-9.66726e-06,1.32618e-06,0.00888071,-0.00193345,0.000265235,0.999225,0.0101213,0.0380265,0.0013356,-0.310386,-0.00142929,-0.877369,32.3125,3,49786,5028683
32,1,0.999224,0.0101685,0.0380275,0.00131726,-0.786476,0.0892534,9.78233,0.402369,-0.137988,0.823767,-0.00786742,0.000882671,0.0978232,1,4.89335e-05,-1.34207e-05,1.83917e-05,0.0097867,-0.00268414,0.00367833,0.999224,0.0101685,0.0380275,0.00131726,-0.309839,-0.000999607,-0.874332,32.3125,3,49788,5028883
32,2,0.999224,0.0101685,0.0380275,0.00131726,-0.786476,0.0892534,9.78233,0.402369,-0.137988,0.823767,-0.00786742,0.000882671,0.0978232,1,4.89335e-05,-1.34207e-05,1.83917e-05,0.0097867,-0.00268414,0.00367833,0.999224,0.0101685,0.0380275,0.00131726,-0.309839,-0.000999607,-0.874332,32.3125,3,49788,5028883
32,3,0.999224,0.0101954,0.0380293,0.00126233,-0.781846,0.0889895,9.77856,0.398872,-0.143161,0.812308,-0.00781875,0.000880742,0.0977856,1,4.61452e-05,-1.43762e-06,8.18991e-06,0.00922904,-0.000287524,0.00163798,0.999224,0.0101954,0.0380293,0.00126233,-0.31176,-0.000504856,-0.873807,32.3125,3,49789,5028983
32,4,0.999224,0.0101954,0.0380293,0.00126233,-0.781846,0.0889895,9.77856,0.398872,-0.143161,0.812308,-0.00781875,0.000880742,0.0977856,1,4.61452e-05,-1.43762e-06,8.18991e-06,0.00922904,-0.000287524,0.00163798,0.999224,0.0101954,0.0380293,0.00126233,-0.31176,-0.000504856,-0.873807,32.3125,3,49789,5028983
33,1,0.999224,0.0102377,0.0380248,0.00129224,-0.760681,0.083281,9.78989,0.423977,-0.146976,0.823635,-0.00760712,0.000823617,0.097899,1,4.64432e-05,-1.51207e-06,6.53055e-06,0.00928864,-0.000302415,0.00130611,0.999224,0.0102377,0.0380248,0.00129224,-0.311443,-0.000870407,-0.880887,32.3125,3,49791,5029183
33,2,0.999223,0.010242,0.0380319,0.00138563,-0.758887,0.078245,9.78408,0.425408,-0.154249,0.819277,-0.00758984,0.000772381,0.0978408,1,5.004e-05,-4.85402e-06,1.82724e-05,0.010008,-0.000970804,0.00365448,0.999223,0.010242,0.0380319,0.00138563,-0.310892,-0.00140725,-0.878376,32.3125,3,49792,5029283
33,3,0.999223,0.010242,0.0380319,0.00138563,-0.758887,0.078245,9.78408,0.425408,-0.154249,0.819277,-0.00758984,0.000772381,0.0978408,1,5.004e-05,-4.85402e-06,1.82724e-05,0.010008,-0.000970804,0.00365448,0.999223,0.010242,0.0380319,0.00138563,-0.310892,-0.00140725,-0.878376,32.3125,3,49792,5029283
33,4,0.999223,0.010242,0.0380319,0.00138563,-0.758887,0.078245,9.78408,0.425408,-0.154249,0.819277,-0.00758984,0.000772381,0.0978408,1,5.004e-05,-4.85402e-06,1.82724e-05,0.010008,-0.000970804,0.00365448,0.999223,0.010242,0.0380319,0.00138563,-0.310892,-0.00140725,-0.878376,32.3125,3,49792,5029283
34,1,0.999222,0.0102865,0.0380545,0.00144562,-0.754028,0.0646242,9.78223,0.43454,-0.170149,0.815343,-0.0075419,0.000635075,0.0978223,1,5.63432e-05,-8.24217e-06,9.57013e-06,0.0112686,-0.00164843,0.00191403,0.999222,0.0102865,0.0380545,0.00144562,-0.312213,-0.00293069,-0.874364,32.3125,3,49794,5029483
34,2,0.999222,0.0103258,0.038049,0.00144571,-0.74808,0.08797,9.78239,0.437749,-0.143577,0.814459,-0.00748309,0.000868179,0.0978238,1,5.74924e-05,-1.15093e-05,1.82055e-05,0.0114985,-0.00230187,0.0036411,0.999222,0.0103258,0.038049,0.00144571,-0.311748,-0.00195915,-0.874344,32.3125,3,49795,5029583
34,3,0.999221,0.0103536,0.0380475,0.00143311,-0.782051,0.0842111,9.7792,0.406734,-0.152872,0.816105,-0.00782176,0.000832746,0.097792,1,4.6922e-05,-6.29561e-06,1.2066e-05,0.0093844,-0.00125912,0.0024132,0.999221,0.0103536,0.0380475,0.00143311,-0.311825,-0.000938533,-0.876846,32.3125,3,49796,5029683
34,4,0.999221,0.0103536,0.0380475,0.00143311,-0.782051,0.0842111,9.7792,0.406734,-0.152872,0.816105,-0.00782176,0.000832746,0.097792,1,4.6922e-05,-6.29561e-06,1.2066e-05,0.0093844,-0.00125912,0.0024132,0.999221,0.0103536,0.0380475,0.00143311,-0.311825,-0.000938533,-0.876846,32.3125,3,49796,5029683
35,1,0.999221,0.0103703,0.0380606,0.0015066,-0.800172,0.0862428,9.78307,0.388878,-0.148079,0.823416,-0.00800274,0.000855118,0.0978307,1,3.59694e-05,-5.04434e-06,1.7019e-05,0.00719389,-0.00100887,0.00340381,0.999221,0.0103703,0.0380606,0.0015066,-0.30949,-0.00187096,-0.880413,32.3125,3,49798,5029883
35,2,0.999221,0.0103703,0.0380606,0.0015066,-0.800172,0.0862428,9.78307,0.388878,-0.148079,0.823416,-0.00800274,0.000855118,0.0978307,1,3.59694e-05,-5.04434e-06,1.7019e-05,0.00719389,-0.00100887,0.00340381,0.999221,0.0103703,0.0380606,0.0015066,-0.30949,-0.00187096,-0.880413,32.3125,3,49798,5029883
35,3,0.99922,0.0103652,0.0380767,0.00151398,-0.810774,0.0760655,9.77659,0.377597,-0.160843,0.813057,-0.00810664,0.000753156,0.0977661,1,3.72417e-05,5.74597e-06,1.34112e-05,0.00744835,0.00114919,0.00268223,0.99922,0.0103652,0.0380767,0.00151398,-0.310884,-0.00189503,-0.878387,32.3125,3,49799,5029983
35,4,0.99922,0.0103652,0.0380767,0.00151398,-0.810774,0.0760655,9.77659,0.377597,-0.160843,0.813057,-0.00810664,0.000753156,0.0977661,1,3.72417e-05,5.74597e-06,1.34112e-05,0.00744835,0.00114919,0.00268223,0.99922,0.0103652,0.0380767,0.00151398,-0.310884,-0.00189503,-0.878387,32.3125,3,49799,5029983
36,1,0.999219,0.0104128,0.038086,0.00153052,-0.790797,0.0931158,9.77355,0.39282,-0.144339,0.815909,-0.00790802,0.000920235,0.0977356,1,5.61122e-05,-2.78042e-07,-2.87021e-06,0.0112224,-5.56084e-05,-0.000574042,0.999219,0.0104128,0.038086,0.00153052,-0.310851,-0.000955546,-0.876346,32.3125,3,49801,5030183
36,2,0.999219,0.0104299,0.0380849,0.00152833,-0.757714,0.0936061,9.77843,0.429377,-0.140695,0.811468,-0.00757855,0.000927691,0.0977843,1,4.17195e-05,-7.0836e-06,1.38748e-05,0.00834391,-0.00141672,0.00277497,0.999219,0.0104299,0.0380849,0.00152833,-0.309942,-0.00140624,-0.878886,32.3125,3,49802,5030283
36,3,0.999219,0.0104299,0.0380849,0.00152833,-0.757714,0.0936061,9.77843,0.429377,-0.140695,0.811468,-0.00757855,0.000927691,0.0977843,1,4.17195e-05,-7.0836e-06,1.38748e-05,0.00834391,-0.00141672,0.00277497,0.999219,0.0104299,0.0380849,0.00152833,-0.309942,-0.00140624,-0.878886,32.3125,3,49802,5030283
36,4,0.999219,0.0104299,0.0380849,0.00152833,-0.757714,0.0936061,9.77843,0.429377,-0.140695,0.811468,-0.00757855,0.000927691,0.0977843,1,4.17195e-05,-7.0836e-06,1.38748e-05,0.00834391,-0.00141672,0.00277497,0.999219,0.0104299,0.0380849,0.00152833,-0.309942,-0.00140624,-0.878886,32.3125,3,49802,5030283
37,1,0.999218,0.0104445,0.038091,0.00156924,-0.727208,0.0936481,9.80198,0.461016,-0.149367,0.836853,-0.00727479,0.000927267,0.0980197,1,4.67115e-05,-1.37983e-05,3.90027e-06,0.00934229,-0.00275967,0.000780053,0.999218,0.0104445,0.038091,0.00156924,-0.310395,-0.00238679,-0.8784,32.3125,3,49804,5030483
37,2,0.999218,0.010462,0.0380976,0.00156129,-0.770925,0.0829419,9.77843,0.414237,-0.165123,0.819854,-0.00770962,0.000819663,0.0977844,1,4.94402e-05,-1.83839e-06,5.63443e-06,0.00988804,-0.000367677,0.00112689,0.999218,0.010462,0.0380976,0.00156129,-0.311344,-0.000942532,-0.876849,32.3125,3,49805,5030583
37,3,0.999218,0.0104912,0.0380927,0.00156368,-0.804216,0.096392,9.77776,0.381497,-0.145114,0.820933,-0.00804438,0.000953195,0.0977775,1,5.52256e-05,-1.14199e-05,-4.67378e-06,0.0110451,-0.00228398,-0.000934756,0.999218,0.0104912,0.0380927,0.00156368,-0.310802,-0.000991607,-0.874327,32.3125,3,49806,5030683
37,4,0.999218,0.0104912,0.0380927,0.00156368,-0.804216,0.096392,9.77776,0.381497,-0.145114,0.820933,-0.00804438,0.000953195,0.0977775,1,5.52256e-05,-1.14199e-05,-4.67378e-06,0.0110451,-0.00228398,-0.000934756,0.999218,0.0104912,0.0380927,0.00156368,-0.310802,-0.000991607,-0.874327,32.3125,3,49806,5030683
38,1,0.999218,0.010556,0.0380714,0.00157466,-0.780649,0.0904463,9.78264,0.407764,-0.144553,0.821527,-0.00780962,0.000892456,0.0978262,1,5.99866e-05,-1.58549e-05,1.73577e-05,0.0119973,-0.00317098,0.00347154,0.999218,0.010556,0.0380714,0.00157466,-0.311365,-0.00189102,-0.878385,32.3125,3,49808,5030883
38,2,0.999218,0.010556,0.0380714,0.00157466,-0.780649,0.0904463,9.78264,0.407764,-0.144553,0.821527,-0.00780962,0.000892456,0.0978262,1,5.99866e-05,-1.58549e-05,1.73577e-05,0.0119973,-0.00317098,0.00347154,0.999218,0.010556,0.0380714,0.00157466,-0.311365,-0.00189102,-0.878385,32.3125,3,49808,5030883
38,3,0.999218,0.0105713,0.0380713,0.00161373,-0.780174,0.0885119,9.77006,0.403407,-0.157944,0.807104,-0.00780352,0.000875556,0.0977005,1,4.76763e-05,-8.97954e-06,1.58122e-05,0.00953525,-0.00179591,0.00316244,0.999218,0.0105713,0.0380713,0.00161373,-0.309885,-0.00193007,-0.876877,32.3125,3,49809,5030983
38,4,0.999218,0.0105713,0.0380713,0.00161373,-0.780174,0.0885119,9.77006,0.403407,-0.157944,0.807104,-0.00780352,0.000875556,0.0977005,1,4.76763e-05,-8.97954e-06,1.58122e-05,0.00953525,-0.00179591,0.00316244,0.999218,0.0105713,0.0380713,0.00161373,-0.309885,-0.00193007,-0.876877,32.3125,3,49809,5030983
39,1,0.999218,0.0105987,0.0380636,0.00153202,-0.793698,0.0842823,9.77928,0.396126,-0.156965,0.820303,-0.00793792,0.000836414,0.0977928,1,3.19127e-05,-4.70698e-06,1.05798e-05,0.00638254,-0.000941396,0.00211596,0.999218,0.0105987,0.0380636,0.00153202,-0.31134,-0.000463778,-0.876333,32.3125,3,49811,5031183
39,2,0.999218,0.0106269,0.0380566,0.00155159,-0.800562,0.0628501,9.78491,0.390309,-0.181251,0.823823,-0.00800799,0.000617956,0.097849,1,5.26121e-05,-1.20181e-05,1.55346e-05,0.0105224,-0.00240363,0.00310691,0.999218,0.0106269,0.0380566,0.00155159,-0.310773,-0.00197616,-0.873844,32.3125,3,49812,5031283
39,3,0.999218,0.0106269,0.0380566,0.00155159,-0.800562,0.0628501,9.78491,0.390309,-0.181251,0.823823,-0.00800799,0.000617956,0.097849,1,5.26121e-05,-1.20181e-05,1.55346e-05,0.0105224,-0.00240363,0.00310691,0.999218,0.0106269,0.0380566,0.00155159,-0.310773,-0.00197616,-0.873844,32.3125,3,49812,5031283
39,4,0.999218,0.0106269,0.0380566,0.00155159,-0.800562,0.0628501,9.78491,0.390309,-0.181251,0.823823,-0.00800799,0.000617956,0.097849,1,5.26121e-05,-1.20181e-05,1.55346e-05,0.0105224,-0.00240363,0.00310691,0.999218,0.0106269,0.0380566,0.00155159,-0.310773,-0.00197616,-0.873844,32.3125,3,49812,5031283
40,1,0.999218,0.0106974,0.0380449,0.00149676,-0.82066,0.0951257,9.77921,0.372588,-0.150813,0.821678,-0.00820773,0.0009419,0.0977921,1,4.58751e-05,-5.54688e-06,2.34527e-05,0.00917501,-0.00110938,0.00469053,0.999218,0.0106974,0.0380449,0.00149676,-0.313721,-0.000461809,-0.875312,32.3125,3,49814,5031483
40,2,0.999218,0.010712,0.0380407,0.00154566,-0.843314,0.0954801,9.77972,0.344671,-0.147033,0.820604,-0.00843512,0.000947346,0.0977971,1,3.7577e-05,-1.00417e-05,6.20227e-06,0.0075154,-0.00200834,0.00124045,0.999218,0.010712,0.0380407,0.00154566,-0.310913,-0.000910468,-0.87887,32.3125,3,49815,5031583
40,3,0.999218,0.0107137,0.0380229,0.00158406,-0.794835,0.0846744,9.78677,0.390112,-0.153702,0.823561,-0.00795361,0.000839307,0.0978673,1,3.71391e-05,-2.67924e-05,1.05634e-05,0.00742782,-0.00535848,0.00211267,0.999218,0.0107137,0.0380229,0.00158406,-0.308507,-0.000930469,-0.878882,32.3125,3,49816,5031683
40,4,0.999218,0.0107137,0.0380229,0.00158406,-0.794835,0.0846744,9.78677,0.390112,-0.153702,0.823561,-0.00795361,0.000839307,0.0978673,1,3.71391e-05,-2.67924e-05,1.05634e-05,0.00742782,-0.00535848,0.00211267,0.999218,0.0107137,0.0380229,0.00158406,-0.308507,-0.000930469,-0.878882,32.3125,3,49816,5031683
41,1,0.999218,0.0107502,0.0380103,0.00152238,-0.756067,0.0748087,9.78573,0.4295,-0.165615,0.825466,-0.00756261,0.000737657,0.0978572,1,5.30593e-05,-9.86469e-06,3.02835e-06,0.0106119,-0.00197294,0.00060567,0.999218,0.0107502,0.0380103,0.00152238,-0.311781,-0.00289863,-0.876385,32.3125,3,49818,5031883
41,2,0.999218,0.0107736,0.038001,0.00152561,-0.743814,0.0739349,9.77852,0.440564,-0.170669,0.813395,-0.00744164,0.000729511,0.097785,1,4.97997e-05,-1.78179e-05,6.57506e-06,0.00995995,-0.00356358,0.00131501,0.999218,0.0107736,0.038001,0.00152561,-0.310386,-0.00142929,-0.877369,32.3125,3,49819,5031983
41,3,0.999218,0.0107736,0.038001,0.00152561,-0.743814,0.0739349,9.77852,0.440564,-0.170669,0.813395,-0.00744164,0.000729511,0.097785,1,4.97997e-05,-1.78179e-05,6.57506e-06,0.00995995,-0.00356358,0.00131501,0.999218,0.0107736,0.038001,0.00152561,-0.310386,-0.00142929,-0.877369,32.3125,3,49819,5031983
41,4,0.999218,0.0107736,0.038001,0.00152561,-0.743814,0.0739349,9.77852,0.440564,-0.170669,0.813395,-0.00744164,0.000729511,0.097785,1,4.97997e-05,-1.78179e-05,6.57506e-06,0.00995995,-0.00356358,0.00131501,0.999218,0.0107736,0.038001,0.00152561,-0.310386,-0.00142929,-0.877369,32.3125,3,49819,5031983
42,1,0.999219,0.010816,0.0379752,0.00150179,-0.756253,0.0844766,9.77156,0.42676,-0.157844,0.804649,-0.00756604,0.00083567,0.0977155,1,4.55268e-05,-1.787e-05,1.313e-05,0.00910536,-0.003574,0.002626,0.999219,0.010816,0.0379752,0.00150179,-0.311875,-0.00090247,-0.878866,32.3125,3,49821,5032183
42,2,0.999219,0.0108301,0.0379832,0.00156746,-0.745769,0.0899386,9.78104,0.435153,-0.153848,0.815374,-0.0074578,0.000889747,0.0978104,1,4.84158e-05,-4.93379e-07,1.12576e-05,0.00968316,-9.86758e-05,0.00225152,0.999219,0.0108301,0.0379832,0.00156746,-0.310942,-0.00137119,-0.880395,32.3125,3,49822,5032283
42,3,0.999219,0.0108301,0.0379832,0.00156746,-0.745769,0.0899386,9.78104,0.435153,-0.153848,0.815374,-0.0074578,0.000889747,0.0978104,1,4.84158e-05,-4.93379e-07,1.12576e-05,0.00968316,-9.86758e-05,0.00225152,0.999219,0.0108301,0.0379832,0.00156746,-0.310942,-0.00137119,-0.880395,32.3125,3,49822,5032283
42,4,0.999219,0.0108301,0.0379832,0.00156746,-0.745769,0.0899386,9.78104,0.435153,-0.153848,0.815374,-0.0074578,0.000889747,0.0978104,1,4.84158e-05,-4.93379e-07,1.12576e-05,0.00968316,-9.86758e-05,0.00225152,0.999219,0.0108301,0.0379832,0.00156746,-0.310942,-0.00137119,-0.880395,32.3125,3,49822,5032283
43,1,0.999218,0.010847,0.0379975,0.00162184,-0.752345,0.0704862,9.80669,0.440312,-0.18596,0.844285,-0.00752243,0.000697141,0.0980671,1,3.7603e-05,5.36287e-06,2.29589e-05,0.0075206,0.00107257,0.00459179,0.999218,0.010847,0.0379975,0.00162184,-0.311246,-0.00245993,-0.873852,32.3125,3,49824,5032483
43,2,0.999217,0.0108659,0.0380049,0.00158594,-0.767766,0.072849,9.78409,0.422797,-0.177008,0.821835,-0.00767706,0.000721415,0.097841,1,3.43342e-05,3.25033e-06,2.3201e-05,0.00686684,0.000650065,0.0046402,0.999217,0.0108659,0.0380049,0.00158594,-0.311328,-0.00191807,-0.87687,32.3125,3,49825,5032583
43,3,0.999217,0.0108659,0.0380049,0.00158594,-0.767766,0.072849,9.78409,0.422797,-0.177008,0.821835,-0.00767706,0.000721415,0.097841,1,3.43342e-05,3.25033e-06,2.3201e-05,0.00686684,0.000650065,0.0046402,0.999217,0.0108659,0.0380049,0.00158594,-0.311328,-0.00191807,-0.87687,32.3125,3,49825,5032583
43,4,0.999217,0.0108906,0.0380044,0.00160577,-0.793766,0.0940448,9.77868,0.394417,-0.154077,0.817832,-0.00793916,0.000930032,0.0977868,1,5.16921e-05,-7.51613e-06,1.93213e-05,0.0103384,-0.00150323,0.00386426,0.999217,0.0108906,0.0380044,0.00160577,-0.309906,-0.00287856,-0.878413,32.3125,3,49826,5032683
44,1,0.999216,0.0108985,0.0380264,0.00160331,-0.75167,0.0910976,9.78922,0.438352,-0.14807,0.824633,-0.00751401,0.000902983,0.0978925,1,3.94249e-05,1.38763e-05,1.82558e-05,0.00788498,0.00277527,0.00365115,0.999216,0.0108985,0.0380264,0.00160331,-0.310893,-0.00285253,-0.879418,32.3125,3,49827,5032783
44,2,0.999215,0.0109331,0.0380487,0.00165983,-0.778565,0.0880027,9.77546,0.413938,-0.159833,0.810845,-0.00778492,0.000870486,0.0977548,1,4.83151e-05,3.82215e-06,6.08362e-06,0.00966303,0.00076443,0.00121672,0.999215,0.0109331,0.0380487,0.00165983,-0.30944,-0.000461746,-0.877352,32.3125,3,49829,5032983
44,3,0.999215,0.0109331,0.0380487,0.00165983,-0.778565,0.0880027,9.77546,0.413938,-0.159833,0.810845,-0.00778492,0.000870486,0.0977548,1,4.83151e-05,3.82215e-06,6.08362e-06,0.00966303,0.00076443,0.00121672,0.999215,0.0109331,0.0380487,0.00165983,-0.30944,-0.000461746,-0.877352,32.3125,3,49829,5032983
44,4,0.999215,0.0109331,0.0380487,0.00165983,-0.778565,0.0880027,9.77546,0.413938,-0.159833,0.810845,-0.00778492,0.000870486,0.0977548,1,4.83151e-05,3.82215e-06,6.08362e-06,0.00966303,0.00076443,0.00121672,0.999215,0.0109331,0.0380487,0.00165983,-0.30944,-0.000461746,-0.877352,32.3125,3,49829,5032983
45,1,0.999214,0.0109775,0.038056,0.00159677,-0.841995,0.096961,9.7848,0.349418,-0.147185,0.82607,-0.00842246,0.000960386,0.0978479,1,4.57652e-05,-1.26976e-05,1.58866e-05,0.00915303,-0.00253952,0.00317733,0.999214,0.0109775,0.038056,0.00159677,-0.309901,-0.000954531,-0.876856,32.3125,3,49831,5033183
45,2,0.999214,0.011009,0.0380606,0.00158339,-0.843259,0.0755431,9.78394,0.341056,-0.168377,0.824216,-0.00843273,0.000744052,0.0978395,1,5.68647e-05,-5.81302e-07,1.48973e-05,0.0113729,-0.00011626,0.00297945,0.999214,0.011009,0.0380606,0.00158339,-0.310419,-0.000923485,-0.878368,32.3125,3,49832,5033283
45,3,0.999214,0.011009,0.0380606,0.00158339,-0.843259,0.0755431,9.78394,0.341056,-0.168377,0.824216,-0.00843273,0.000744052,0.0978395,1,5.68647e-05,-5.81302e-07,1.48973e-05,0.0113729,-0.00011626,0.00297945,0.999214,0.011009,0.0380606,0.00158339,-0.310419,-0.000923485,-0.878368,32.3125,3,49832,5033283
45,4,0.999214,0.011009,0.0380606,0.00158339,-0.843259,0.0755431,9.78394,0.341056,-0.168377,0.824216,-0.00843273,0.000744052,0.0978395,1,5.68647e-05,-5.81302e-07,1.48973e-05,0.0113729,-0.00011626,0.00297945,0.999214,0.011009,0.0380606,0.00158339,-0.310419,-0.000923485,-0.878368,32.3125,3,49832,5033283
46,1,0.999213,0.0110364,0.0380508,0.00171784,-0.759285,0.0990952,9.78936,0.425551,-0.14891,0.830274,-0.00759572,0.000979933,0.0978934,1,5.46556e-05,-1.44578e-05,2.09585e-05,0.0109311,-0.00289156,0.00419169,0.999213,0.0110364,0.0380508,0.00171784,-0.309918,-0.00142427,-0.877876,32.3125,3,49834,5033483
46,2,0.999213,0.0110538,0.0380594,0.0017181,-0.735406,0.0967733,9.78373,0.454777,-0.149105,0.816483,-0.00735371,0.000958758,0.0978374,1,4.40439e-05,2.00774e-06,2.42948e-05,0.00880878,0.000401548,0.00485897,0.999213,0.0110538,0.0380594,0.0017181,-0.309375,-0.00147335,-0.875354,32.3125,3,49835,5033583
46,3,0.999213,0.0110538,0.0380594,0.0017181,-0.735406,0.0967733,9.78373,0.454777,-0.149105,0.816483,-0.00735371,0.000958758,0.0978374,1,4.40439e-05,2.00774e-06,2.42948e-05,0.00880878,0.000401548,0.00485897,0.999213,0.0110538,0.0380594,0.0017181,-0.309375,-0.00147335,-0.875354,32.3125,3,49835,5033583
46,4,0.999213,0.0110538,0.0380594,0.0017181,-0.735406,0.0967733,9.78373,0.454777,-0.149105,0.816483,-0.00735371,0.000958758,0.0978374,1,4.40439e-05,2.00774e-06,2.42948e-05,0.00880878,0.000401548,0.00485897,0.999213,0.0110538,0.0380594,0.0017181,-0.309375,-0.00147335,-0.875354,32.3125,3,49835,5033583
47,1,0.999212,0.0111132,0.038058,0.00163198,-0.778895,0.0980565,9.77182,0.411419,-0.158549,0.807362,-0.00779052,0.000970887,0.0977182,1,4.86895e-05,-7.89617e-06,1.04198e-05,0.00973789,-0.00157923,0.00208395,0.999212,0.0111132,0.038058,0.00163198,-0.311299,-0.00145735,-0.875345,32.3125,3,49837,5033783
47,2,0.999212,0.0111541,0.0380539,0.00163325,-0.817844,0.0812669,9.77873,0.36809,-0.173324,0.814422,-0.00818024,0.000800249,0.0977872,1,6.19775e-05,-9.05451e-06,1.82356e-05,0.0123955,-0.0018109,0.00364712,0.999212,0.0111541,0.0380539,0.00163325,-0.309428,-0.00191604,-0.877889,32.3125,3,49838,5033883
47,3,0.999212,0.0111749,0.0380641,0.0016299,-0.806484,0.0685603,9.78533,0.37716,-0.183216,0.826918,-0.00806428,0.000675674,0.0978534,1,4.94514e-05,2.98201e-06,1.55696e-05,0.00989029,0.000596401,0.00311393,0.999212,0.0111749,0.0380641,0.0016299,-0.310407,-0.0009325,-0.877863,32.3125,3,49839,5033983
47,4,0.999212,0.0111749,0.0380641,0.0016299,-0.806484,0.0685603,9.78533,0.37716,-0.183216,0.826918,-0.00806428,0.000675674,0.0978534,1,4.94514e-05,2.98201e-06,1.55696e-05,0.00989029,0.000596401,0.00311393,0.999212,0.0111749,0.0380641,0.0016299,-0.310407,-0.0009325,-0.877863,32.3125,3,49839,5033983
48,1,0.999211,0.0112158,0.0380595,0.00166504,-0.768536,0.102672,9.79419,0.417721,-0.154717,0.828093,-0.00768657,0.00101679,0.0979419,1,4.84475e-05,-5.89494e-06,2.88168e-05,0.0096895,-0.00117899,0.00576337,0.999211,0.0112158,0.0380595,0.00166504,-0.310378,-0.000471778,-0.876338,32.3125,3,49841,5034183
48,2,0.999211,0.0112341,0.0380539,0.00167977,-0.767204,0.0955922,9.77886,0.42109,-0.161984,0.812089,-0.00767421,0.000947237,0.0977885,1,4.24236e-05,-1.08444e-05,2.52873e-05,0.00848472,-0.00216888,0.00505745,0.999211,0.0112341,0.0380539,0.00167977,-0.310341,-0.000498824,-0.874823,32.3125,3,49842,5034283
48,3,0.999211,0.0112341,0.0380539,0.00167977,-0.767204,0.0955922,9.77886,0.42109,-0.161984,0.812089,-0.00767421,0.000947237,0.0977885,1,4.24236e-05,-1.08444e-05,2.52873e-05,0.00848472,-0.00216888,0.00505745,0.999211,0.0112341,0.0380539,0.00167977,-0.310341,-0.000498824,-0.874823,32.3125,3,49842,5034283
48,4,0.999211,0.0112341,0.0380539,0.00167977,-0.767204,0.0955922,9.77886,0.42109,-0.161984,0.812089,-0.00767421,0.000947237,0.0977885,1,4.24236e-05,-1.08444e-05,2.52873e-05,0.00848472,-0.00216888,0.00505745,0.999211,0.0112341,0.0380539,0.00167977,-0.310341,-0.000498824,-0.874823,32.3125,3,49842,5034283
49,1,0.99921,0.0112891,0.0380696,0.00166438,-0.744452,0.0874706,9.78507,0.447798,-0.168391,0.81516,-0.00744475,0.00086572,0.0978508,1,4.52716e-05,-1.05832e-06,8.49203e-06,0.00905431,-0.000211664,0.00169841,0.99921,0.0112891,0.0380696,0.00166438,-0.311826,-0.00238381,-0.877889,32.3125,3,49844,5034483
49,2,0.99921,0.0113007,0.0380686,0.00169583,-0.747428,0.0854786,9.77626,0.434056,-0.170313,0.813624,-0.0074762,0.000846754,0.0977626,1,4.0818e-05,-9.78272e-06,3.37885e-06,0.0081636,-0.00195655,0.000675769,0.99921,0.0113007,0.0380686,0.00169583,-0.310929,6.50696e-05,-0.878848,32.3125,3,49845,5034583
49,3,0.99921,0.0113007,0.0380686,0.00169583,-0.747428,0.0854786,9.77626,0.434056,-0.170313,0.813624,-0.0074762,0.000846754,0.0977626,1,4.0818e-05,-9.78272e-06,3.37885e-06,0.0081636,-0.00195655,0.000675769,0.99921,0.0113007,0.0380686,0.00169583,-0.310929,6.50696e-05,-0.878848,32.3125,3,49845,5034583
49,4,0.99921,0.0113007,0.0380686,0.00169583,-0.747428,0.0854786,9.77626,0.434056,-0.170313,0.813624,-0.0074762,0.000846754,0.0977626,1,4.0818e-05,-9.78272e-06,3.37885e-06,0.0081636,-0.00195655,0.000675769,0.99921,0.0113007,0.0380686,0.00169583,-0.310929,6.50696e-05,-0.878848,32.3125,3,49845,5034583
50,1,0.99921,0.0113311,0.0380603,0.00170882,-0.752195,0.0556146,9.7852,0.433648,-0.206663,0.819127,-0.00752453,0.000547281,0.0978519,1,4.4113e-05,-1.31263e-05,1.5378e-05,0.00882259,-0.00262525,0.0030756,0.99921,0.0113311,0.0380603,0.00170882,-0.308865,-0.0024619,-0.874874,32.3125,3,49847,5034783
50,2,0.999209,0.011348,0.0380661,0.00165273,-0.732017,0.0554588,9.78132,0.452365,-0.201539,0.813354,-0.00731999,0.000546926,0.0978133,1,3.77371e-05,1.01509e-06,1.90868e-05,0.00754741,0.000203018,0.00381735,0.999209,0.011348,0.0380661,0.00165273,-0.308396,-0.00101161,-0.874339,32.3125,3,49848,5034883
50,3,0.999209,0.0113843,0.0380812,0.00160814,-0.743213,0.0576674,9.78175,0.427029,-0.204521,0.808167,-0.00742983,0.000565088,0.0978178,1,5.74237e-05,1.18764e-05,2.36866e-05,0.0114847,0.00237529,0.00473732,0.999209,0.0113843,0.0380812,0.00160814,-0.30794,-0.000997577,-0.87535,32.3125,3,49849,5034983
50,4,0.999209,0.0113843,0.0380812,0.00160814,-0.743213,0.0576674,9.78175,0.427029,-0.204521,0.808167,-0.00742983,0.000565088,0.0978178,1,5.74237e-05,1.18764e-05,2.36866e-05,0.0114847,0.00237529,0.00473732,0.999209,0.0113843,0.0380812,0.00160814,-0.30794,-0.000997577,-0.87535,32.3125,3,49849,5034983
51,1,0.999207,0.0114155,0.0381108,0.00156891,-0.79035,0.0843941,9.77142,0.408422,-0.169875,0.825599,-0.00789883,0.000836428,0.0977147,1,3.82793e-05,2.38823e-05,2.00826e-06,0.00765585,0.00477647,0.000401652,0.999207,0.0114155,0.0381108,0.00156891,-0.310391,-0.00190804,-0.877885,32.3125,3,49851,5035183
51,2,0.999206,0.0114288,0.0381219,0.00159381,-0.808613,0.072471,9.78334,0.417839,-0.147328,0.825546,-0.00808536,0.000716276,0.0978335,1,4.22076e-05,4.0081e-06,1.08462e-05,0.00844151,0.000801619,0.00216925,0.999206,0.0114288,0.0381219,0.00159381,-0.310871,-0.000458764,-0.87684,32.3125,3,49852,5035283
51,3,0.999206,0.0114288,0.0381219,0.00159381,-0.808613,0.072471,9.78334,0.417839,-0.147328,0.825546,-0.00808536,0.000716276,0.0978335,1,4.22076e-05,4.0081e-06,1.08462e-05,0.00844151,0.000801619,0.00216925,0.999206,0.0114288,0.0381219,0.00159381,-0.310871,-0.000458764,-0.87684,32.3125,3,49852,5035283
51,4,0.999206,0.0114288,0.0381219,0.00159381,-0.808613,0.072471,9.78334,0.417839,-0.147328,0.825546,-0.00808536,0.000716276,0.0978335,1,4.22076e-05,4.0081e-06,1.08462e-05,0.00844151,0.000801619,0.00216925,0.999206,0.0114288,0.0381219,0.00159381,-0.310871,-0.000458764,-0.87684,32.3125,3,49852,5035283
52,1,0.999206,0.0114953,0.0381052,0.00162291,-0.766028,0.0799814,9.77227,0.437153,-0.177856,0.81147,-0.00766391,0.000785528,0.0977225,1,7.32336e-05,-1.85911e-05,-1.76399e-06,0.0146467,-0.00371822,-0.000352797,0.999206,0.0114953,0.0381052,0.00162291,-0.311287,-0.00291164,-0.875883,32.3125,3,49854,5035483
52,2,0.999206,0.0115257,0.0381012,0.0016331,-0.774528,0.11811,9.77639,0.394934,-0.193207,0.818798,-0.0077475,0.00117009,0.0977638,1,5.50953e-05,-1.11881e-05,1.48545e-05,0.0110191,-0.00223761,0.0029709,0.999206,0.0115257,0.0381012,0.0016331,-0.312792,-0.00140929,-0.877357,32.3125,3,49855,5035583
52,3,0.999206,0.0115284,0.0380898,0.00170113,-0.794623,0.10754,9.78019,0.383338,-0.233118,0.828257,-0.00794989,0.00106912,0.0978017,1,3.06836e-05,-1.85437e-05,1.7326e-05,0.00613671,-0.00370875,0.00346519,0.999206,0.0115284,0.0380898,0.00170113,-0.310929,6.50696e-05,-0.878848,32.3125,3,49856,5035683
52,4,0.999206,0.0115284,0.0380898,0.00170113,-0.794623,0.10754,9.78019,0.383338,-0.233118,0.828257,-0.00794989,0.00106912,0.0978017,1,3.06836e-05,-1.85437e-05,1.7326e-05,0.00613671,-0.00370875,0.00346519,0.999206,0.0115284,0.0380898,0.00170113,-0.310929,6.50696e-05,-0.878848,32.3125,3,49856,5035683
53,1,0.999209,0.0115428,0.038028,0.00176155,-0.786684,0.0731329,9.78561,0.397615,-0.216074,0.826542,-0.0078756,0.0007226,0.0978555,1,4.36101e-05,-4.46849e-05,1.23044e-05,0.00872202,-0.00893697,0.00246089,0.999209,0.0115428,0.038028,0.00176155,-0.310387,-0.00287456,-0.878411,32.3125,3,49858,5035883
53,2,0.999209,0.0115717,0.0380094,0.00176878,-0.749115,0.0703994,9.79074,0.444124,-0.185712,0.823845,-0.00749629,0.000692501,0.0979071,1,5.79393e-05,-2.61706e-05,9.84784e-06,0.0115879,-0.00523413,0.00196957,0.999209,0.0115717,0.0380094,0.00176878,-0.310876,-0.000937514,-0.877356,32.3125,3,49859,5035983
53,3,0.999209,0.0115717,0.0380094,0.00176878,-0.749115,0.0703994,9.79074,0.444124,-0.185712,0.823845,-0.00749629,0.000692501,0.0979071,1,5.79393e-05,-2.61706e-05,9.84784e-06,0.0115879,-0.00523413,0.00196957,0.999209,0.0115717,0.0380094,0.00176878,-0.310876,-0.000937514,-0.877356,32.3125,3,49859,5035983
53,4,0.999209,0.0115717,0.0380094,0.00176878,-0.749115,0.0703994,9.79074,0.444124,-0.185712,0.823845,-0.00749629,0.000692501,0.0979071,1,5.79393e-05,-2.61706e-05,9.84784e-06,0.0115879,-0.00523413,0.00196957,0.999209,0.0115717,0.0380094,0.00176878,-0.310876,-0.000937514,-0.877356,32.3125,3,49859,5035983
54,1,0.99921,0.0116245,0.0379755,0.00171592,-0.769311,0.0694038,9.78442,0.418998,-0.19063,0.814978,-0.00769545,0.00068624,0.0978441,1,3.95906e-05,-1.18984e-05,3.30607e-06,0.00791812,-0.00237968,0.000661215,0.99921,0.0116245,0.0379755,0.00171592,-0.31125,-0.00293869,-0.874368,32.3125,3,49861,5036183
54,2,0.99921,0.0116507,0.0379593,0.00169902,-0.799784,0.0954255,9.77196,0.385271,-0.179191,0.815324,-0.00800209,0.00094475,0.0977193,1,4.74434e-05,-2.15713e-05,1.45864e-05,0.00948868,-0.00431426,0.00291728,0.99921,0.0116507,0.0379593,0.00169902,-0.310856,-0.00287958,-0.877904,32.3125,3,49862,5036283
54,3,0.99921,0.0116507,0.0379593,0.00169902,-0.799784,0.0954255,9.77196,0.385271,-0.179191,0.815324,-0.00800209,0.00094475,0.0977193,1,4.74434e-05,-2.15713e-05,1.45864e-05,0.00948868,-0.00431426,0.00291728,0.99921,0.0116507,0.0379593,0.00169902,-0.310856,-0.00287958,-0.877904,32.3125,3,49862,5036283
54,4,0.99921,0.0116507,0.0379593,0.00169902,-0.799784,0.0954255,9.77196,0.385271,-0.179191,0.815324,-0.00800209,0.00094475,0.0977193,1,4.74434e-05,-2.15713e-05,1.45864e-05,0.00948868,-0.00431426,0.00291728,0.99921,0.0116507,0.0379593,0.00169902,-0.310856,-0.00287958,-0.877904,32.3125,3,49862,5036283
55,1,0.999211,0.011687,0.0379322,0.00172167,-0.893364,0.0706919,9.74829,0.330387,-0.185249,0.80268,-0.00893874,0.000699135,0.0974825,1,3.92681e-05,-2.60847e-05,7.18282e-06,0.00785363,-0.00521693,0.00143656,0.999211,0.011687,0.0379322,0.00172167,-0.308466,-0.000478761,-0.876852,32.3125,3,49864,5036483
55,2,0.999211,0.0117043,0.0379143,0.00168926,-0.899032,0.0691268,9.80463,0.344249,-0.161855,0.855981,-0.00899493,0.000682579,0.0980459,1,4.30158e-05,-2.34286e-05,1.41263e-05,0.00860316,-0.00468571,0.00282526,0.999211,0.0117043,0.0379143,0.00168926,-0.308494,0.000505795,-0.877335,32.3125,3,49865,5036583
55,3,0.999211,0.0117372,0.0378992,0.00168168,-0.820764,0.0846504,9.78252,0.38807,-0.166286,0.834851,-0.00821168,0.000834448,0.0978249,1,5.99677e-05,-2.04576e-05,1.97107e-05,0.0119935,-0.00409152,0.00394215,0.999211,0.0117372,0.0378992,0.00168168,-0.308967,2.20239e-05,-0.877343,32.3125,3,49866,5036683
55,4,0.999211,0.0117372,0.0378992,0.00168168,-0.820764,0.0846504,9.78252,0.38807,-0.166286,0.834851,-0.00821168,0.000834448,0.0978249,1,5.99677e-05,-2.04576e-05,1.97107e-05,0.0119935,-0.00409152,0.00394215,0.999211,0.0117372,0.0378992,0.00168168,-0.308967,2.20239e-05,-0.877343,32.3125,3,49866,5036683
56,1,0.999212,0.011776,0.0378616,0.001733,-0.855806,0.139139,9.78052,0.331482,-0.188282,0.841326,-0.00856211,0.00138279,0.097805,1,4.28242e-05,-2.05387e-05,1.32879e-05,0.00856485,-0.00410774,0.00265759,0.999212,0.011776,0.0378616,0.001733,-0.311875,-0.00090247,-0.878866,32.3125,3,49868,5036883
56,2,0.999212,0.0117873,0.0378464,0.00178895,-0.871044,0.134205,9.77584,0.310677,-0.197888,0.827083,-0.00871517,0.00133383,0.0977581,1,4.09614e-05,-2.40132e-05,1.2051e-05,0.00819229,-0.00480264,0.0024102,0.999212,0.0117873,0.0378464,0.00178895,-0.310896,-0.00188601,-0.878892,32.3125,3,49869,5036983
56,3,0.999212,0.0117873,0.0378464,0.00178895,-0.871044,0.134205,9.77584,0.310677,-0.197888,0.827083,-0.00871517,0.00133383,0.0977581,1,4.09614e-05,-2.40132e-05,1.2051e-05,0.00819229,-0.00480264,0.0024102,0.999212,0.0117873,0.0378464,0.00178895,-0.310896,-0.00188601,-0.878892,32.3125,3,49869,5036983
56,4,0.999212,0.0117873,0.0378464,0.00178895,-0.871044,0.134205,9.77584,0.310677,-0.197888,0.827083,-0.00871517,0.00133383,0.0977581,1,4.09614e-05,-2.40132e-05,1.2051e-05,0.00819229,-0.00480264,0.0024102,0.999212,0.0117873,0.0378464,0.00178895,-0.310896,-0.00188601,-0.878892,32.3125,3,49869,5036983
57,1,0.999214,0.0117961,0.0378102,0.00186686,-0.836226,0.101038,9.76819,0.353335,-0.193038,0.809979,-0.00836779,0.00100442,0.0976815,1,2.82877e-05,-2.80483e-05,2.57139e-05,0.00565755,-0.00560966,0.00514278,0.999214,0.0117961,0.0378102,0.00186686,-0.310871,-0.000458764,-0.87684,32.3125,3,49871,5037183
57,2,0.999214,0.0117941,0.0377902,0.00188449,-0.832627,0.0872977,9.7745,0.362124,-0.193799,0.819104,-0.0083317,0.000868266,0.0977446,1,2.21022e-05,-2.75746e-05,2.33816e-05,0.00442045,-0.00551492,0.00467633,0.999214,0.0117941,0.0377902,0.00188449,-0.310357,-0.000968562,-0.875844,32.3125,3,49872,5037283
57,3,0.999214,0.0117941,0.0377902,0.00188449,-0.832627,0.0872977,9.7745,0.362124,-0.193799,0.819104,-0.0083317,0.000868266,0.0977446,1,2.21022e-05,-2.75746e-05,2.33816e-05,0.00442045,-0.00551492,0.00467633,0.999214,0.0117941,0.0377902,0.00188449,-0.310357,-0.000968562,-0.875844,32.3125,3,49872,5037283
57,4,0.999214,0.0117941,0.0377902,0.00188449,-0.832627,0.0872977,9.7745,0.362124,-0.193799,0.819104,-0.0083317,0.000868266,0.0977446,1,2.21022e-05,-2.75746e-05,2.33816e-05,0.00442045,-0.00551492,0.00467633,0.999214,0.0117941,0.0377902,0.00188449,-0.310357,-0.000968562,-0.875844,32.3125,3,49872,5037283
58,1,0.999215,0.011817,0.0377712,0.00188074,-0.803485,0.110494,9.79993,0.376915,-0.168219,0.84016,-0.00803726,0.00109644,0.0979992,1,4.11554e-05,-1.19825e-05,2.72465e-05,0.00823107,-0.0023965,0.0054493,0.999215,0.011817,0.0377712,0.00188074,-0.310872,-0.00190404,-0.877882,32.3125,3,49874,5037483
58,2,0.999215,0.0118212,0.0377537,0.00189186,-0.793189,0.102612,9.79335,0.380785,-0.178749,0.826307,-0.00793711,0.00101995,0.0979332,1,3.04597e-05,-2.65355e-05,1.26212e-05,0.00609194,-0.0053071,0.00252424,0.999215,0.0118212,0.0377537,0.00189186,-0.310896,-0.000440732,-0.87785,32.3125,3,49875,5037583
58,3,0.999215,0.0118212,0.0377537,0.00189186,-0.793189,0.102612,9.79335,0.380785,-0.178749,0.826307,-0.00793711,0.00101995,0.0979332,1,3.04597e-05,-2.65355e-05,1.26212e-05,0.00609194,-0.0053071,0.00252424,0.999215,0.0118212,0.0377537,0.00189186,-0.310896,-0.000440732,-0.87785,32.3125,3,49875,5037583
58,4,0.999215,0.0118193,0.0377491,0.00193152,-0.786534,0.0957712,9.78205,0.395627,-0.177521,0.821342,-0.00786793,0.00095257,0.0978203,1,2.3596e-05,-1.29309e-05,3.34268e-05,0.00471921,-0.00258617,0.00668537,0.999215,0.0118193,0.0377491,0.00193152,-0.309901,-0.000954531,-0.876856,32.3125,3,49876,5037683
59,1,0.999216,0.0118181,0.0377417,0.00190777,-0.793834,0.0658288,9.76217,0.369768,-0.190086,0.802479,-0.0079414,0.000653659,0.0976215,1,2.31342e-05,-1.56329e-05,7.11326e-06,0.00462683,-0.00312659,0.00142265,0.999216,0.0118181,0.0377417,0.00190777,-0.309893,-0.0014423,-0.876866,32.3125,3,49877,5037783
59,2,0.999216,0.0118309,0.0377367,0.00190808,-0.819106,0.0986926,9.74769,0.351159,-0.148782,0.790654,-0.00819364,0.000979332,0.0974767,1,3.65582e-05,-1.29046e-05,2.84853e-05,0.00731164,-0.00258092,0.00569706,0.999216,0.0118309,0.0377367,0.00190808,-0.310317,-0.00196213,-0.874856,32.3125,3,49878,5037883
59,3,0.999216,0.0118333,0.037732,0.00188179,-0.76643,0.0970024,9.78261,0.405171,-0.157185,0.830803,-0.00766669,0.000965123,0.0978259,1,2.37748e-05,-1.20553e-05,1.62569e-05,0.00475496,-0.00241107,0.00325138,0.999216,0.0118333,0.037732,0.00188179,-0.311777,-0.00241987,-0.875869,32.3125,3,49879,5037983
59,4,0.999216,0.0118333,0.037732,0.00188179,-0.76643,0.0970024,9.78261,0.405171,-0.157185,0.830803,-0.00766669,0.000965123,0.0978259,1,2.37748e-05,-1.20553e-05,1.62569e-05,0.00475496,-0.00241107,0.00325138,0.999216,0.0118333,0.037732,0.00188179,-0.311777,-0.00241987,-0.875869,32.3125,3,49879,5037983
60,1,0.999216,0.0118431,0.0377385,0.00194485,-0.800433,0.0916264,9.79872,0.38411,-0.177775,0.828494,-0.00800558,0.000909713,0.0979872,1,3.07895e-05,-6.09823e-06,3.23095e-05,0.00615789,-0.00121965,0.0064619,0.999216,0.0118431,0.0377385,0.00194485,-0.31141,-0.00137621,-0.879888,32.3125,3,49881,5038183
60,2,0.999215,0.0118396,0.0377446,0.0020085,-0.802562,0.0542417,9.7974,0.372804,-0.210571,0.832032,-0.00802642,0.000536976,0.0979739,1,2.53579e-05,-3.94876e-06,2.94113e-05,0.00507159,-0.000789752,0.00588225,0.999215,0.0118396,0.0377446,0.0020085,-0.310415,-0.000444731,-0.877852,32.3125,3,49882,5038283
60,3,0.999215,0.0118396,0.0377446,0.0020085,-0.802562,0.0542417,9.7974,0.372804,-0.210571,0.832032,-0.00802642,0.000536976,0.0979739,1,2.53579e-05,-3.94876e-06,2.94113e-05,0.00507159,-0.000789752,0.00588225,0.999215,0.0118396,0.0377446,0.0020085,-0.310415,-0.000444731,-0.877852,32.3125,3,49882,5038283
60,4,0.999215,0.0118396,0.0377446,0.0020085,-0.802562,0.0542417,9.7974,0.372804,-0.210571,0.832032,-0.00802642,0.000536976,0.0979739,1,2.53579e-05,-3.94876e-06,2.94113e-05,0.00507159,-0.000789752,0.00588225,0.999215,0.0118396,0.0377446,0.0020085,-0.310415,-0.000444731,-0.877852,32.3125,3,49882,5038283
61,1,0.999216,0.0118475,0.0377246,0.00207057,-0.781177,0.0372495,9.77847,0.397616,-0.233159,0.818953,-0.00781715,0.000365286,0.0977843,1,3.5031e-05,-2.74235e-05,2.29179e-05,0.00700619,-0.00548471,0.00458358,0.999216,0.0118475,0.0377246,0.00207057,-0.311776,-0.000974594,-0.874827,32.3125,3,49884,5038483
61,2,0.999215,0.0118732,0.0377285,0.00206676,-0.758553,0.0604993,9.77883,0.421843,-0.216151,0.813765,-0.00758624,0.000595449,0.0977883,1,4.78233e-05,-3.56916e-06,1.25751e-05,0.00956466,-0.000713833,0.00251501,0.999215,0.0118732,0.0377285,0.00206676,-0.311311,-3.05474e-06,-0.874808,32.3125,3,49885,5038583
61,3,0.999215,0.011892,0.0377277,0.00206533,-0.747022,0.0745099,9.78261,0.433753,-0.198241,0.813443,-0.00747174,0.000736844,0.097826,1,4.09595e-05,-7.66634e-06,1.61624e-05,0.00819191,-0.00153327,0.00323248,0.999215,0.011892,0.0377277,0.00206533,-0.311352,-0.000454763,-0.876838,32.3125,3,49886,5038683
61,4,0.999215,0.011892,0.0377277,0.00206533,-0.747022,0.0745099,9.78261,0.433753,-0.198241,0.813443,-0.00747174,0.000736844,0.097826,1,4.09595e-05,-7.66634e-06,1.61624e-05,0.00819191,-0.00153327,0.00323248,0.999215,0.011892,0.0377277,0.00206533,-0.311352,-0.000454763,-0.876838,32.3125,3,49886,5038683
62,1,0.999214,0.0119341,0.0377426,0.00211959,-0.738232,0.0711484,9.7954,0.444626,-0.201602,0.827821,-0.00738097,0.000701455,0.0979541,1,4.98294e-05,6.99768e-06,1.80326e-05,0.00996588,0.00139954,0.00360652,0.999214,0.0119341,0.0377426,0.00211959,-0.310382,0.000494746,-0.875811,32.3125,3,49888,5038883
62,2,0.999213,0.0119634,0.0377478,0.00209865,-0.746242,0.0633594,9.7764,0.434424,-0.208279,0.810103,-0.00746278,0.000623119,0.0977641,1,5.31003e-05,-1.80155e-06,6.19098e-06,0.0106201,-0.00036031,0.0012382,0.999213,0.0119634,0.0377478,0.00209865,-0.311291,-0.00194512,-0.875356,32.3125,3,49889,5038983
62,3,0.999213,0.0119634,0.0377478,0.00209865,-0.746242,0.0633594,9.7764,0.434424,-0.208279,0.810103,-0.00746278,0.000623119,0.0977641,1,5.31003e-05,-1.80155e-06,6.19098e-06,0.0106201,-0.00036031,0.0012382,0.999213,0.0119634,0.0377478,0.00209865,-0.311291,-0.00194512,-0.875356,32.3125,3,49889,5038983
62,4,0.999213,0.0119634,0.0377478,0.00209865,-0.746242,0.0633594,9.7764,0.434424,-0.208279,0.810103,-0.00746278,0.000623119,0.0977641,1,5.31003e-05,-1.80155e-06,6.19098e-06,0.0106201,-0.00036031,0.0012382,0.999213,0.0119634,0.0377478,0.00209865,-0.311291,-0.00194512,-0.875356,32.3125,3,49889,5038983
63,1,0.999213,0.0119934,0.0377543,0.00205318,-0.713968,0.104755,9.79044,0.468871,-0.165738,0.821802,-0.00713951,0.00104057,0.0979045,1,3.49059e-05,9.5741e-07,1.01646e-05,0.00698118,0.000191482,0.00203292,0.999213,0.0119934,0.0377543,0.00205318,-0.309856,-0.00146935,-0.875352,32.3125,3,49891,5039183
63,2,0.999212,0.0120194,0.0377631,0.00200041,-0.719424,0.0990721,9.78228,0.460425,-0.17236,0.815726,-0.00719379,0.000981064,0.097823,1,5.00065e-05,2.19609e-06,-8.83245e-06,0.0100013,0.000439218,-0.00176649,0.999212,0.0120194,0.0377631,0.00200041,-0.309419,0.000486746,-0.875816,32.3125,3,49892,5039283
63,3,0.999212,0.0120194,0.0377631,0.00200041,-0.719424,0.0990721,9.78228,0.460425,-0.17236,0.815726,-0.00719379,0.000981064,0.097823,1,5.00065e-05,2.19609e-06,-8.83245e-06,0.0100013,0.000439218,-0.00176649,0.999212,0.0120194,0.0377631,0.00200041,-0.309419,0.000486746,-0.875816,32.3125,3,49892,5039283
63,4,0.999212,0.0120194,0.0377631,0.00200041,-0.719424,0.0990721,9.78228,0.460425,-0.17236,0.815726,-0.00719379,0.000981064,0.097823,1,5.00065e-05,2.19609e-06,-8.83245e-06,0.0100013,0.000439218,-0.00176649,0.999212,0.0120194,0.0377631,0.00200041,-0.309419,0.000486746,-0.875816,32.3125,3,49892,5039283
64,1,0.999211,0.0120764,0.0377885,0.00203785,-0.728704,0.064439,9.76577,0.438148,-0.225047,0.787852,-0.00728653,0.000634695,0.0976578,1,4.85723e-05,2.72354e-06,1.4318e-05,0.00971445,0.000544708,0.00286359,0.999211,0.0120764,0.0377885,0.00203785,-0.309933,0.000996546,-0.876812,32.3125,3,49894,5039483
64,2,0.99921,0.0120907,0.0377956,0.00205414,-0.769366,0.0870992,9.76217,0.38838,-0.263217,0.825169,-0.00769346,0.000862879,0.0976218,1,4.00693e-05,1.20202e-06,1.88481e-05,0.00801386,0.000240403,0.00376962,0.99921,0.0120907,0.0377956,0.00205414,-0.308959,-0.000465745,-0.877354,32.3125,3,49895,5039583
64,3,0.99921,0.0120907,0.0377956,0.00205414,-0.769366,0.0870992,9.76217,0.38838,-0.263217,0.825169,-0.00769346,0.000862879,0.0976218,1,4.00693e-05,1.20202e-06,1.88481e-05,0.00801386,0.000240403,0.00376962,0.99921,0.0120907,0.0377956,0.00205414,-0.308959,-0.000465745,-0.877354,32.3125,3,49895,5039583
64,4,0.99921,0.0120907,0.0377956,0.00205414,-0.769366,0.0870992,9.76217,0.38838,-0.263217,0.825169,-0.00769346,0.000862879,0.0976218,1,4.00693e-05,1.20202e-06,1.88481e-05,0.00801386,0.000240403,0.00376962,0.99921,0.0120907,0.0377956,0.00205414,-0.308959,-0.000465745,-0.877354,32.3125,3,49895,5039583
65,1,0.99921,0.0121385,0.0377885,0.00202464,-0.676512,0.0846949,9.81174,0.528134,-0.250784,0.827713,-0.00676704,0.000837094,0.0981173,1,4.93657e-05,-9.70753e-06,1.24061e-05,0.00987313,-0.0019415,0.00248123,0.99921,0.0121385,0.0377885,0.00202464,-0.311764,-0.000983609,-0.874322,32.3125,3,49897,5039783
65,2,0.99921,0.0121608,0.0377921,0.00201638,-0.68199,0.0935282,9.783,0.522634,-0.196584,0.804851,-0.00682028,0.000926352,0.0978301,1,4.5266e-05,-1.87609e-06,5.36341e-06,0.00905319,-0.000375217,0.00107268,0.99921,0.0121608,0.0377921,0.00201638,-0.310333,-0.000986593,-0.874834,32.3125,3,49898,5039883
65,3,0.999209,0.0121732,0.0377981,0.00200841,-0.71023,0.0925367,9.77064,0.491223,-0.190622,0.813157,-0.00710217,0.000918129,0.0977065,1,3.56027e-05,8.52523e-07,1.97368e-05,0.00712053,0.000170505,0.00394736,0.999209,0.0121732,0.0377981,0.00200841,-0.311303,-0.0019361,-0.875861,32.3125,3,49899,5039983
65,4,0.999209,0.0121732,0.0377981,0.00200841,-0.71023,0.0925367,9.77064,0.491223,-0.190622,0.813157,-0.00710217,0.000918129,0.0977065,1,3.56027e-05,8.52523e-07,1.97368e-05,0.00712053,0.000170505,0.00394736,0.999209,0.0121732,0.0377981,0.00200841,-0.311303,-0.0019361,-0.875861,32.3125,3,49899,5039983
66,1,0.999208,0.0122309,0.0378162,0.00203275,-0.744975,0.0616729,9.76959,0.436398,-0.227957,0.801456,-0.00744904,0.000607472,0.097696,1,4.74714e-05,3.6283e-06,-1.27434e-06,0.00949427,0.000725661,-0.000254868,0.999208,0.0122309,0.0378162,0.00203275,-0.311328,-0.00191807,-0.87687,32.3125,3,49901,5040183
66,2,0.999208,0.0122466,0.0378117,0.00205808,-0.765221,0.0718645,9.7834,0.418126,-0.215603,0.809564,-0.00765443,0.000710165,0.0978339,1,4.17587e-05,-1.12057e-05,2.02261e-05,0.00835175,-0.00224113,0.00404521,0.999208,0.0122466,0.0378117,0.00205808,-0.309367,-0.00196112,-0.875365,32.3125,3,49902,5040283
66,3,0.999208,0.0122466,0.0378117,0.00205808,-0.765221,0.0718645,9.7834,0.418126,-0.215603,0.809564,-0.00765443,0.000710165,0.0978339,1,4.17587e-05,-1.12057e-05,2.02261e-05,0.00835175,-0.00224113,0.00404521,0.999208,0.0122466,0.0378117,0.00205808,-0.309367,-0.00196112,-0.875365,32.3125,3,49902,5040283
66,4,0.999208,0.0122466,0.0378117,0.00205808,-0.765221,0.0718645,9.7834,0.418126,-0.215603,0.809564,-0.00765443,0.000710165,0.0978339,1,4.17587e-05,-1.12057e-05,2.02261e-05,0.00835175,-0.00224113,0.00404521,0.999208,0.0122466,0.0378117,0.00205808,-0.309367,-0.00196112,-0.875365,32.3125,3,49902,5040283
67,1,0.999207,0.0123215,0.0377967,0.00203786,-0.784849,0.095073,9.78982,0.392342,-0.175874,0.825433,-0.00785042,0.00093835,0.0978982,1,6.27264e-05,-9.79051e-06,6.26982e-06,0.0125453,-0.0019581,0.00125396,0.999207,0.0123215,0.0377967,0.00203786,-0.310415,-0.000444731,-0.877852,32.3125,3,49904,5040483
67,2,0.999207,0.0123529,0.0377852,0.00206484,-0.758193,0.0933057,9.79235,0.417216,-0.167229,0.827512,-0.00758539,0.000921291,0.0979233,1,5.87869e-05,-1.75334e-05,1.66037e-05,0.0117574,-0.00350668,0.00332074,0.999207,0.0123529,0.0377852,0.00206484,-0.310387,-0.00287456,-0.878411,32.3125,3,49905,5040583
67,3,0.999207,0.0123529,0.0377852,0.00206484,-0.758193,0.0933057,9.79235,0.417216,-0.167229,0.827512,-0.00758539,0.000921291,0.0979233,1,5.87869e-05,-1.75334e-05,1.66037e-05,0.0117574,-0.00350668,0.00332074,0.999207,0.0123529,0.0377852,0.00206484,-0.310387,-0.00287456,-0.878411,32.3125,3,49905,5040583
67,4,0.999207,0.0123529,0.0377852,0.00206484,-0.758193,0.0933057,9.79235,0.417216,-0.167229,0.827512,-0.00758539,0.000921291,0.0979233,1,5.87869e-05,-1.75334e-05,1.66037e-05,0.0117574,-0.00350668,0.00332074,0.999207,0.0123529,0.0377852,0.00206484,-0.310387,-0.00287456,-0.878411,32.3125,3,49905,5040583
68,1,0.999207,0.0124233,0.0377725,0.0020925,-0.762177,0.0779865,9.78275,0.418274,-0.200955,0.820784,-0.00762486,0.00076729,0.0978274,1,6.3302e-05,-1.57115e-05,1.24478e-05,0.0126604,-0.0031423,0.00248955,0.999207,0.0124233,0.0377725,0.0020925,-0.312241,-0.00194613,-0.874847,32.3125,3,49907,5040783
68,2,0.999206,0.0124553,0.0377792,0.002099,-0.804056,0.0903584,9.77091,0.37253,-0.192319,0.81056,-0.00804026,0.000892571,0.0977092,1,5.57099e-05,1.62634e-06,7.85655e-06,0.011142,0.000325268,0.00157131,0.999206,0.0124553,0.0377792,0.002099,-0.310765,-0.00246393,-0.873855,32.3125,3,49908,5040883
68,3,0.999207,0.0124983,0.0377605,0.00206455,-0.834009,0.0917893,9.78064,0.344299,-0.193712,0.819514,-0.00834464,0.000905089,0.0978062,1,6.46504e-05,-2.31753e-05,9.45845e-06,0.0129301,-0.00463506,0.00189169,0.999207,0.0124983,0.0377605,0.00206455,-0.309856,-0.00146935,-0.875352,32.3125,3,49909,5040983
68,4,0.999207,0.0124983,0.0377605,0.00206455,-0.834009,0.0917893,9.78064,0.344299,-0.193712,0.819514,-0.00834464,0.000905089,0.0978062,1,6.46504e-05,-2.31753e-05,9.45845e-06,0.0129301,-0.00463506,0.00189169,0.999207,0.0124983,0.0377605,0.00206455,-0.309856,-0.00146935,-0.875352,32.3125,3,49909,5040983
69,1,0.999207,0.0125561,0.0377305,0.0020314,-0.865498,0.101028,9.77177,0.312365,-0.182586,0.812883,-0.00865967,0.000999955,0.0977174,1,5.27762e-05,-2.40112e-05,3.4481e-07,0.0105552,-0.00480224,6.89619e-05,0.999207,0.0125561,0.0377305,0.0020314,-0.310473,-0.00136618,-0.880903,32.3125,3,49911,5041183
69,2,0.999207,0.0125776,0.0377252,0.00209681,-0.844439,0.0946433,9.7719,0.33232,-0.186702,0.814403,-0.008447,0.000935827,0.0977189,1,5.28228e-05,-1.31891e-05,1.66893e-05,0.0105646,-0.00263783,0.00333786,0.999207,0.0125776,0.0377252,0.00209681,-0.310909,-0.00187699,-0.879397,32.3125,3,49912,5041283
69,3,0.999207,0.0125776,0.0377252,0.00209681,-0.844439,0.0946433,9.7719,0.33232,-0.186702,0.814403,-0.008447,0.000935827,0.0977189,1,5.28228e-05,-1.31891e-05,1.66893e-05,0.0105646,-0.00263783,0.00333786,0.999207,0.0125776,0.0377252,0.00209681,-0.310909,-0.00187699,-0.879397,32.3125,3,49912,5041283
69,4,0.999207,0.0125776,0.0377252,0.00209681,-0.844439,0.0946433,9.7719,0.33232,-0.186702,0.814403,-0.008447,0.000935827,0.0977189,1,5.28228e-05,-1.31891e-05,1.66893e-05,0.0105646,-0.00263783,0.00333786,0.999207,0.0125776,0.0377252,0.00209681,-0.310909,-0.00187699,-0.879397,32.3125,3,49912,5041283
70,1,0.999207,0.0126223,0.0377134,0.00213794,-0.823598,0.0911213,9.7714,0.354717,-0.197567,0.8115,-0.00823932,0.000901593,0.0977138,1,4.87416e-05,-1.70508e-05,5.70523e-06,0.00974833,-0.00341017,0.00114105,0.999207,0.0126223,0.0377134,0.00213794,-0.310851,-0.000955546,-0.876346,32.3125,3,49914,5041483
70,2,0.999207,0.0126366,0.0377082,0.00214247,-0.831985,0.0843453,9.78802,0.345248,-0.205572,0.826078,-0.0083221,0.00083567,0.0978801,1,3.89945e-05,-1.13916e-05,8.97051e-06,0.00779891,-0.00227832,0.0017941,0.999207,0.0126366,0.0377082,0.00214247,-0.310843,-0.00144332,-0.876357,32.3125,3,49915,5041583
70,3,0.999207,0.0126366,0.0377082,0.00214247,-0.831985,0.0843453,9.78802,0.345248,-0.205572,0.826078,-0.0083221,0.00083567,0.0978801,1,3.89945e-05,-1.13916e-05,8.97051e-06,0.00779891,-0.00227832,0.0017941,0.999207,0.0126366,0.0377082,0.00214247,-0.310843,-0.00144332,-0.876357,32.3125,3,49915,5041583
70,4,0.999206,0.0126503,0.0377102,0.00214655,-0.81822,0.0909341,9.79035,0.360004,-0.199076,0.828026,-0.00818304,0.000901658,0.0979035,1,3.82028e-05,-4.15181e-06,1.23682e-05,0.00764055,-0.000830361,0.00247364,0.999206,0.0126503,0.0377102,0.00214655,-0.311357,-0.000933515,-0.877353,32.3125,3,49916,5041683
71,1,0.999206,0.0126677,0.0377159,0.00219266,-0.795196,0.0994397,9.78382,0.381791,-0.192234,0.822115,-0.00795221,0.000985488,0.0978383,1,4.34834e-05,-1.03724e-06,2.51961e-05,0.00869668,-0.000207448,0.00503922,0.999206,0.0126677,0.0377159,0.00219266,-0.313277,-0.00188404,-0.877871,32.3125,3,49917,5041783
71,2,0.999205,0.0126843,0.037725,0.00228412,-0.781476,0.0813823,9.7873,0.39962,-0.204555,0.822917,-0.0078146,0.000804699,0.0978731,1,4.51635e-05,9.40497e-07,1.80921e-05,0.0090327,0.000188099,0.00361841,0.999205,0.0126843,0.037725,0.00228412,-0.311345,-0.00238781,-0.877891,32.3125,3,49918,5041883
71,3,0.999204,0.0127122,0.0377329,0.00231177,-0.794116,0.0597875,9.7889,0.386956,-0.227729,0.82334,-0.00794115,0.00058693,0.0978891,1,5.49201e-05,1.52829e-07,1.21125e-05,0.010984,3.05658e-05,0.00242251,0.999204,0.0127122,0.0377329,0.00231177,-0.309445,-0.0009405,-0.877868,32.3125,3,49919,5041983
71,4,0.999204,0.0127122,0.0377329,0.00231177,-0.794116,0.0597875,9.7889,0.386956,-0.227729,0.82334,-0.00794115,0.00058693,0.0978891,1,5.49201e-05,1.52829e-07,1.21125e-05,0.010984,3.05658e-05,0.00242251,0.999204,0.0127122,0.0377329,0.00231177,-0.309445,-0.0009405,-0.877868,32.3125,3,49919,5041983
72,1,0.999204,0.0127965,0.0377338,0.00220459,-0.814224,0.074451,9.78748,0.36663,-0.214438,0.826175,-0.00814332,0.000731285,0.0978748,1,6.64518e-05,-5.41822e-06,1.3338e-05,0.0132904,-0.00108364,0.00266759,0.999204,0.0127965,0.0377338,0.00220459,-0.309832,-0.00293266,-0.875385,32.3125,3,49921,5042183
72,2,0.999203,0.0128218,0.0377344,0.00215542,-0.810359,0.0849523,9.77397,0.361289,-0.21046,0.814041,-0.00810463,0.000840117,0.0977397,1,4.76222e-05,-5.27329e-06,5.96206e-06,0.00952445,-0.00105466,0.00119241,0.999203,0.0128218,0.0377344,0.00215542,-0.310867,-0.00142528,-0.877367,32.3125,3,49922,5042283
72,3,0.999203,0.0128218,0.0377344,0.00215542,-0.810359,0.0849523,9.77397,0.361289,-0.21046,0.814041,-0.00810463,0.000840117,0.0977397,1,4.76222e-05,-5.27329e-06,5.96206e-06,0.00952445,-0.00105466,0.00119241,0.999203,0.0128218,0.0377344,0.00215542,-0.310867,-0.00142528,-0.877367,32.3125,3,49922,5042283
72,4,0.999203,0.0128218,0.0377344,0.00215542,-0.810359,0.0849523,9.77397,0.361289,-0.21046,0.814041,-0.00810463,0.000840117,0.0977397,1,4.76222e-05,-5.27329e-06,5.96206e-06,0.00952445,-0.00105466,0.00119241,0.999203,0.0128218,0.0377344,0.00215542,-0.310867,-0.00142528,-0.877367,32.3125,3,49922,5042283
73,1,0.999204,0.012869,0.0377026,0.0022362,-0.759223,0.0822452,9.78818,0.418341,-0.208817,0.82324,-0.00759518,0.000813587,0.0978817,1,4.36175e-05,-1.49142e-05,2.14914e-05,0.00872349,-0.00298283,0.00429828,0.999204,0.012869,0.0377026,0.0022362,-0.308479,-0.00191502,-0.878399,32.3125,3,49924,5042483
73,2,0.999203,0.0129029,0.0377049,0.00220372,-0.752444,0.0657515,9.78154,0.422375,-0.223993,0.815782,-0.00752528,0.000645655,0.0978154,1,5.98393e-05,-4.25019e-06,1.02394e-05,0.0119679,-0.000850038,0.00204787,0.999203,0.0129029,0.0377049,0.00220372,-0.309897,-0.00192105,-0.877382,32.3125,3,49925,5042583
73,3,0.999203,0.012933,0.0377069,0.00220224,-0.744286,0.0807579,9.79248,0.437114,-0.212065,0.822907,-0.00744381,0.000796543,0.0979248,1,5.52982e-05,-4.71959e-06,1.38526e-05,0.0110596,-0.000943917,0.00277052,0.999203,0.012933,0.0377069,0.00220224,-0.3113,-0.00290263,-0.876387,32.3125,3,49926,5042683
73,4,0.999203,0.012933,0.0377069,0.00220224,-0.744286,0.0807579,9.79248,0.437114,-0.212065,0.822907,-0.00744381,0.000796543,0.0979248,1,5.52982e-05,-4.71959e-06,1.38526e-05,0.0110596,-0.000943917,0.00277052,0.999203,0.012933,0.0377069,0.00220224,-0.3113,-0.00290263,-0.876387,32.3125,3,49926,5042683
74,1,0.999202,0.0129883,0.0377159,0.00221822,-0.741173,0.0735339,9.79274,0.436088,-0.224014,0.824367,-0.00741076,0.000724913,0.0979275,1,5.27856e-05,5.01039e-06,5.91167e-06,0.0105571,0.00100208,0.00118233,0.999202,0.0129883,0.0377159,0.00221822,-0.309885,-0.00193007,-0.876877,32.3125,3,49928,5042883
74,2,0.999202,0.0129883,0.0377159,0.00221822,-0.741173,0.0735339,9.79274,0.436088,-0.224014,0.824367,-0.00741076,0.000724913,0.0979275,1,5.27856e-05,5.01039e-06,5.91167e-06,0.0105571,0.00100208,0.00118233,0.999202,0.0129883,0.0377159,0.00221822,-0.309885,-0.00193007,-0.876877,32.3125,3,49928,5042883
74,3,0.999201,0.0130247,0.0377258,0.00220752,-0.729898,0.0990335,9.79389,0.455178,-0.191414,0.82245,-0.00729828,0.000978213,0.097939,1,6.08395e-05,3.71802e-06,1.40409e-05,0.0121679,0.000743604,0.00280818,0.999201,0.0130247,0.0377258,0.00220752,-0.30991,-0.00191204,-0.877887,32.3125,3,49929,5042983
74,4,0.999201,0.0130247,0.0377258,0.00220752,-0.729898,0.0990335,9.79389,0.455178,-0.191414,0.82245,-0.00729828,0.000978213,0.097939,1,6.08395e-05,3.71802e-06,1.40409e-05,0.0121679,0.000743604,0.00280818,0.999201,0.0130247,0.0377258,0.00220752,-0.30991,-0.00191204,-0.877887,32.3125,3,49929,5042983
75,1,0.9992,0.0130926,0.0377157,0.00221052,-0.854361,0.0851366,9.77157,0.327917,-0.213121,0.814581,-0.00854839,0.000839031,0.0977154,1,6.17058e-05,-2.43429e-05,1.61058e-05,0.0123412,-0.00486859,0.00322116,0.9992,0.0130926,0.0377157,0.00221052,-0.309869,-0.00290561,-0.876899,32.3125,3,49931,5043183
75,2,0.9992,0.0131169,0.0377056,0.00220064,-0.843525,0.0868862,9.77863,0.331724,-0.208033,0.819666,-0.00843847,0.000859091,0.0977861,1,4.84159e-05,-1.62923e-05,1.79073e-05,0.00968318,-0.00325845,0.00358146,0.9992,0.0131169,0.0377056,0.00220064,-0.310757,-0.00439698,-0.874908,32.3125,3,49932,5043283
75,3,0.9992,0.0131169,0.0377056,0.00220064,-0.843525,0.0868862,9.77863,0.331724,-0.208033,0.819666,-0.00843847,0.000859091,0.0977861,1,4.84159e-05,-1.62923e-05,1.79073e-05,0.00968318,-0.00325845,0.00358146,0.9992,0.0131169,0.0377056,0.00220064,-0.310757,-0.00439698,-0.874908,32.3125,3,49932,5043283
75,4,0.9992,0.0131169,0.0377056,0.00220064,-0.843525,0.0868862,9.77863,0.331724,-0.208033,0.819666,-0.00843847,0.000859091,0.0977861,1,4.84159e-05,-1.62923e-05,1.79073e-05,0.00968318,-0.00325845,0.00358146,0.9992,0.0131169,0.0377056,0.00220064,-0.310757,-0.00439698,-0.874908,32.3125,3,49932,5043283
76,1,0.999201,0.0131795,0.0376685,0.00214221,-0.72703,0.083798,9.80224,0.446592,-0.219831,0.833462,-0.00727497,0.000827598,0.0980221,1,5.20032e-05,-2.37059e-05,1.28894e-05,0.0104006,-0.00474118,0.00257788,0.999201,0.0131795,0.0376685,0.00214221,-0.310839,-0.00240984,-0.876884,32.3125,3,49934,5043483
76,2,0.999201,0.013209,0.0376676,0.00217822,-0.683801,0.0883868,9.79485,0.499642,-0.207824,0.822543,-0.00683942,0.000872844,0.0979485,1,5.39234e-05,-6.93667e-06,3.36675e-05,0.0107847,-0.00138733,0.00673351,0.999201,0.013209,0.0376676,0.00217822,-0.310872,-0.00190404,-0.877882,32.3125,3,49935,5043583
76,3,0.9992,0.0132266,0.0376825,0.00221467,-0.708385,0.0948716,9.76554,0.471824,-0.204899,0.796094,-0.00708227,0.000939804,0.0976556,1,4.45934e-05,8.21812e-06,1.42793e-05,0.00891869,0.00164362,0.00285586,0.9992,0.0132266,0.0376825,0.00221467,-0.310859,-0.00191306,-0.877378,32.3125,3,49936,5043683
76,4,0.9992,0.0132266,0.0376825,0.00221467,-0.708385,0.0948716,9.76554,0.471824,-0.204899,0.796094,-0.00708227,0.000939804,0.0976556,1,4.45934e-05,8.21812e-06,1.42793e-05,0.00891869,0.00164362,0.00285586,0.9992,0.0132266,0.0376825,0.00221467,-0.310859,-0.00191306,-0.877378,32.3125,3,49936,5043683
77,1,0.999198,0.0132808,0.0377104,0.0022463,-0.741987,0.0793781,9.78193,0.453611,-0.215448,0.810946,-0.00741834,0.000783482,0.0978195,1,5.16066e-05,7.95334e-06,1.36119e-05,0.0103213,0.00159067,0.00272237,0.999198,0.0132808,0.0377104,0.0022463,-0.308376,-0.0015084,-0.873845,32.3125,3,49938,5043883
77,2,0.999198,0.0133089,0.0377093,0.0021682,-0.743047,0.0832415,9.77824,0.430969,-0.216681,0.822663,-0.00743127,0.000822919,0.0977824,1,4.69535e-05,-3.91136e-06,2.10703e-05,0.00939071,-0.000782273,0.00421407,0.999198,0.0133089,0.0377093,0.0021682,-0.309399,-0.00145532,-0.876364,32.3125,3,49939,5043983
77,3,0.999198,0.0133089,0.0377093,0.0021682,-0.743047,0.0832415,9.77824,0.430969,-0.216681,0.822663,-0.00743127,0.000822919,0.0977824,1,4.69535e-05,-3.91136e-06,2.10703e-05,0.00939071,-0.000782273,0.00421407,0.999198,0.0133089,0.0377093,0.0021682,-0.309399,-0.00145532,-0.876364,32.3125,3,49939,5043983
77,4,0.999198,0.0133089,0.0377093,0.0021682,-0.743047,0.0832415,9.77824,0.430969,-0.216681,0.822663,-0.00743127,0.000822919,0.0977824,1,4.69535e-05,-3.91136e-06,2.10703e-05,0.00939071,-0.000782273,0.00421407,0.999198,0.0133089,0.0377093,0.0021682,-0.309399,-0.00145532,-0.876364,32.3125,3,49939,5043983
78,1,0.999196,0.0133767,0.037743,0.0021465,-0.847941,0.0905083,9.79595,0.351479,-0.237746,0.842879,-0.0084759,0.000894315,0.0979599,1,5.41433e-05,1.80195e-05,9.45287e-06,0.0108287,0.0036039,0.00189057,0.999196,0.0133767,0.037743,0.0021465,-0.309905,-0.00143328,-0.877371,32.3125,3,49941,5044183
78,2,0.999195,0.0133979,0.0377493,0.00216348,-0.825539,0.105276,9.79255,0.373859,-0.217773,0.833746,-0.00825531,0.00104328,0.0979256,1,4.75049e-05,5.2191e-07,1.06624e-05,0.00950097,0.000104382,0.00213248,0.999195,0.0133979,0.0377493,0.00216348,-0.310382,-0.000950532,-0.876853,32.3125,3,49942,5044283
78,3,0.999195,0.0133979,0.0377493,0.00216348,-0.825539,0.105276,9.79255,0.373859,-0.217773,0.833746,-0.00825531,0.00104328,0.0979256,1,4.75049e-05,5.2191e-07,1.06624e-05,0.00950097,0.000104382,0.00213248,0.999195,0.0133979,0.0377493,0.00216348,-0.310382,-0.000950532,-0.876853,32.3125,3,49942,5044283
78,4,0.999195,0.0133979,0.0377493,0.00216348,-0.825539,0.105276,9.79255,0.373859,-0.217773,0.833746,-0.00825531,0.00104328,0.0979256,1,4.75049e-05,5.2191e-07,1.06624e-05,0.00950097,0.000104382,0.00213248,0.999195,0.0133979,0.0377493,0.00216348,-0.310382,-0.000950532,-0.876853,32.3125,3,49942,5044283
79,1,0.999195,0.013452,0.0377406,0.00217882,-0.823625,0.112338,9.79127,0.348156,-0.17486,0.830274,-0.00824015,0.00111313,0.0979125,1,5.03174e-05,-1.96273e-05,2.39086e-05,0.0100635,-0.00392546,0.00478172,0.999195,0.013452,0.0377406,0.00217882,-0.30935,-0.00149138,-0.874345,32.3125,3,49944,5044483
79,2,0.999194,0.0134846,0.0377416,0.00214253,-0.764734,0.0676706,9.77113,0.408633,-0.235854,0.804199,-0.00764797,0.0006659,0.0977113,1,5.38491e-05,-3.11469e-06,1.84532e-05,0.0107698,-0.000622938,0.00369064,0.999194,0.0134846,0.0377416,0.00214253,-0.310353,-0.000489809,-0.875328,32.3125,3,49945,5044583
79,3,0.999194,0.0135087,0.0377436,0.00215979,-0.714082,0.0745349,9.78272,0.471438,-0.246314,0.811029,-0.00714134,0.00073571,0.0978272,1,4.75905e-05,-2.4756e-06,2.2948e-05,0.0095181,-0.000495121,0.0045896,0.999194,0.0135087,0.0377436,0.00215979,-0.310884,-0.00189503,-0.878387,32.3125,3,49946,5044683
79,4,0.999194,0.0135087,0.0377436,0.00215979,-0.714082,0.0745349,9.78272,0.471438,-0.246314,0.811029,-0.00714134,0.00073571,0.0978272,1,4.75905e-05,-2.4756e-06,2.2948e-05,0.0095181,-0.000495121,0.0045896,0.999194,0.0135087,0.0377436,0.00215979,-0.310884,-0.00189503,-0.878387,32.3125,3,49946,5044683
80,1,0.999192,0.0135351,0.0377727,0.00225687,-0.707036,0.073823,9.79351,0.472326,-0.236698,0.823064,-0.00706657,0.000729398,0.0979355,1,4.45134e-05,1.9383e-05,8.067e-06,0.00890268,0.00387659,0.0016134,0.999192,0.0135351,0.0377727,0.00225687,-0.309926,-0.00238178,-0.878907,32.3125,3,49948,5044883
80,2,0.999191,0.0135614,0.0377903,0.00227165,-0.758988,0.070122,9.78298,0.429762,-0.237569,0.815263,-0.00758776,0.000690602,0.09783,1,5.44899e-05,1.07881e-05,-2.8705e-06,0.010898,0.00215762,-0.0005741,0.999191,0.0135614,0.0377903,0.00227165,-0.311283,-0.00243289,-0.875367,32.3125,3,49949,5044983
80,3,0.999191,0.0135614,0.0377903,0.00227165,-0.758988,0.070122,9.78298,0.429762,-0.237569,0.815263,-0.00758776,0.000690602,0.09783,1,5.44899e-05,1.07881e-05,-2.8705e-06,0.010898,0.00215762,-0.0005741,0.999191,0.0135614,0.0377903,0.00227165,-0.311283,-0.00243289,-0.875367,32.3125,3,49949,5044983
80,4,0.999191,0.0135614,0.0377903,0.00227165,-0.758988,0.070122,9.78298,0.429762,-0.237569,0.815263,-0.00758776,0.000690602,0.09783,1,5.44899e-05,1.07881e-05,-2.8705e-06,0.010898,0.00215762,-0.0005741,0.999191,0.0135614,0.0377903,0.00227165,-0.311283,-0.00243289,-0.875367,32.3125,3,49949,5044983
81,1,0.999189,0.0136108,0.0378239,0.00224663,-0.904699,0.0465173,9.77427,0.278376,-0.263401,0.815927,-0.00904621,0.000457975,0.0977428,1,3.50158e-05,4.04405e-06,1.95148e-05,0.00700317,0.000808809,0.00390297,0.999189,0.0136108,0.0378239,0.00224663,-0.30988,-6.0387e-06,-0.875319,32.3125,3,49951,5045183
81,2,0.999189,0.0136225,0.0378251,0.00224772,-0.940264,0.115619,9.77544,0.246925,-0.196521,0.822821,-0.00940338,0.00114894,0.0977544,1,3.51704e-05,-3.52928e-06,2.01745e-05,0.00703407,-0.000705856,0.0040349,0.999189,0.0136225,0.0378251,0.00224772,-0.309436,-0.00142827,-0.877878,32.3125,3,49952,5045283
81,3,0.999189,0.0136225,0.0378251,0.00224772,-0.940264,0.115619,9.77544,0.246925,-0.196521,0.822821,-0.00940338,0.00114894,0.0977544,1,3.51704e-05,-3.52928e-06,2.01745e-05,0.00703407,-0.000705856,0.0040349,0.999189,0.0136225,0.0378251,0.00224772,-0.309436,-0.00142827,-0.877878,32.3125,3,49952,5045283
81,4,0.999189,0.0136225,0.0378251,0.00224772,-0.940264,0.115619,9.77544,0.246925,-0.196521,0.822821,-0.00940338,0.00114894,0.0977544,1,3.51704e-05,-3.52928e-06,2.01745e-05,0.00703407,-0.000705856,0.0040349,0.999189,0.0136225,0.0378251,0.00224772,-0.309436,-0.00142827,-0.877878,32.3125,3,49952,5045283
82,1,0.999188,0.0136597,0.0378364,0.00229819,-0.994688,0.176229,9.72816,0.194331,-0.164213,0.793545,-0.00994803,0.00175342,0.0972816,1,4.27012e-05,-5.37038e-06,2.7904e-05,0.00854024,-0.00107408,0.0055808,0.999188,0.0136597,0.0378364,0.00229819,-0.309432,-0.000949515,-0.877363,32.3125,3,49954,5045483
82,2,0.999187,0.0136859,0.0378398,0.00231379,-1.11895,0.0257513,9.74568,0.0797373,-0.286343,0.805043,-0.0111902,0.000247084,0.0974567,1,5.09302e-05,-3.54127e-06,2.24527e-05,0.010186,-0.000708254,0.00449054,0.999187,0.0136859,0.0378398,0.00231379,-0.30893,-5.02355e-06,-0.875829,32.3125,3,49955,5045583
82,3,0.999188,0.0137115,0.0378243,0.00230983,-1.1445,-0.0350473,9.77692,0.0486207,-0.30321,0.822433,-0.0114493,-0.000360512,0.0977687,1,4.8235e-05,-2.19173e-05,2.65141e-05,0.00964701,-0.00438346,0.00530282,0.999188,0.0137115,0.0378243,0.00230983,-0.309354,-0.000524855,-0.873818,32.3125,3,49956,5045683
82,4,0.999188,0.0137115,0.0378243,0.00230983,-1.1445,-0.0350473,9.77692,0.0486207,-0.30321,0.822433,-0.0114493,-0.000360512,0.0977687,1,4.8235e-05,-2.19173e-05,2.65141e-05,0.00964701,-0.00438346,0.00530282,0.999188,0.0137115,0.0378243,0.00230983,-0.309354,-0.000524855,-0.873818,32.3125,3,49956,5045683
83,1,0.999189,0.0137895,0.0377686,0.00227147,-1.01955,0.0879506,9.7534,0.140834,-0.18486,0.802678,-0.0102039,0.000865298,0.0975332,1,7.1049e-05,-4.30589e-05,1.70512e-05,0.0142098,-0.00861178,0.00341024,0.999189,0.0137895,0.0377686,0.00227147,-0.310337,-0.00291063,-0.876392,32.3125,3,49958,5045883
83,2,0.999189,0.0138261,0.0377382,0.00228023,-0.97463,0.160054,9.75642,0.172664,-0.128235,0.809071,-0.00975423,0.00158825,0.0975636,1,6.15699e-05,-4.03954e-05,1.44514e-05,0.012314,-0.00807909,0.00289028,0.999189,0.0138261,0.0377382,0.00228023,-0.310379,-0.00336233,-0.878422,32.3125,3,49959,5045983
83,3,0.999189,0.0138261,0.0377382,0.00228023,-0.97463,0.160054,9.75642,0.172664,-0.128235,0.809071,-0.00975423,0.00158825,0.0975636,1,6.15699e-05,-4.03954e-05,1.44514e-05,0.012314,-0.00807909,0.00289028,0.999189,0.0138261,0.0377382,0.00228023,-0.310379,-0.00336233,-0.878422,32.3125,3,49959,5045983
83,4,0.999189,0.0138261,0.0377382,0.00228023,-0.97463,0.160054,9.75642,0.172664,-0.128235,0.809071,-0.00975423,0.00158825,0.0975636,1,6.15699e-05,-4.03954e-05,1.44514e-05,0.012314,-0.00807909,0.00289028,0.999189,0.0138261,0.0377382,0.00228023,-0.310379,-0.00336233,-0.878422,32.3125,3,49959,5045983
84,1,0.99919,0.0138936,0.0376862,0.00232575,-0.937195,0.114916,9.75849,0.227556,-0.192229,0.80489,-0.00937952,0.00113822,0.0975843,1,5.56574e-05,-3.87695e-05,4.17567e-06,0.0111315,-0.0077539,0.000835135,0.99919,0.0138936,0.0376862,0.00232575,-0.31185,-0.000920501,-0.877856,32.3125,3,49961,5046183
84,2,0.999191,0.013929,0.0376535,0.00237746,-0.875144,0.13719,9.81288,0.28422,-0.170192,0.853419,-0.00876009,0.00135948,0.0981282,1,6.20129e-05,-4.38786e-05,1.42247e-05,0.0124026,-0.00877573,0.00284494,0.999191,0.013929,0.0376535,0.00237746,-0.311279,-0.00195413,-0.874851,32.3125,3,49962,5046283
84,3,0.999191,0.013929,0.0376535,0.00237746,-0.875144,0.13719,9.81288,0.28422,-0.170192,0.853419,-0.00876009,0.00135948,0.0981282,1,6.20129e-05,-4.38786e-05,1.42247e-05,0.0124026,-0.00877573,0.00284494,0.999191,0.013929,0.0376535,0.00237746,-0.311279,-0.00195413,-0.874851,32.3125,3,49962,5046283
84,4,0.999191,0.013929,0.0376535,0.00237746,-0.875144,0.13719,9.81288,0.28422,-0.170192,0.853419,-0.00876009,0.00135948,0.0981282,1,6.20129e-05,-4.38786e-05,1.42247e-05,0.0124026,-0.00877573,0.00284494,0.999191,0.013929,0.0376535,0.00237746,-0.311279,-0.00195413,-0.874851,32.3125,3,49962,5046283
85,1,0.9992,0.0138042,0.0374632,0.00228386,0.569701,1.52775,9.96582,1.93221,1.13344,0.744282,0.00566031,0.0153081,0.0996556,1,-0.000156144,-0.000190007,-3.84165e-05,-0.0312288,-0.0380014,-0.00768329,0.9992,0.0138042,0.0374632,0.00228386,-0.309881,-0.00289659,-0.877404,32.3125,3,49964,5046483
85,2,0.999199,0.0139726,0.0374337,0.00221898,1.32717,-0.110929,9.57771,2.63894,-1.47601,0.474513,0.0132642,-0.00114733,0.0957777,1,0.000192237,-3.88256e-05,-4.57495e-05,0.0384475,-0.00776511,-0.00914991,0.999199,0.0139726,0.0374337,0.00221898,-0.311862,-0.000911485,-0.878361,32.3125,3,49965,5046583
85,3,0.999199,0.0140708,0.0373887,0.00216238,0.768042,0.377063,10.0099,2.25992,-0.916584,1.02618,0.00767081,0.003744,0.100101,1,0.000126018,-5.14848e-05,-9.16396e-05,0.0252035,-0.010297,-0.0183279,0.999199,0.0140708,0.0373887,0.00216238,-0.311361,-0.00141227,-0.877869,32.3125,3,49966,5046683
85,4,0.999199,0.0140708,0.0373887,0.00216238,0.768042,0.377063,10.0099,2.25992,-0.916584,1.02618,0.00767081,0.003744,0.100101,1,0.000126018,-5.14848e-05,-9.16396e-05,0.0252035,-0.010297,-0.0183279,0.999199,0.0140708,0.0373887,0.00216238,-0.311361,-0.00141227,-0.877869,32.3125,3,49966,5046683
86,1,0.999182,0.0142022,0.0378076,0.00211538,-1.64211,-0.62815,9.66494,0.0259798,-1.85479,0.811753,-0.0163794,-0.00630037,0.0966553,1,0.000102625,0.000217908,-2.96856e-05,0.0205249,0.0435815,-0.00593712,0.999182,0.0142022,0.0378076,0.00211538,-0.310782,-0.00293367,-0.874875,32.3125,3,49968,5046883
86,2,0.999182,0.0142022,0.0378076,0.00211538,-1.64211,-0.62815,9.66494,0.0259798,-1.85479,0.811753,-0.0163794,-0.00630037,0.0966553,1,0.000102625,0.000217908,-2.96856e-05,0.0205249,0.0435815,-0.00593712,0.999182,0.0142022,0.0378076,0.00211538,-0.310782,-0.00293367,-0.874875,32.3125,3,49968,5046883
86,3,0.99918,0.0142623,0.0378421,0.00211484,-1.43494,-0.2945,9.85034,-0.0037309,-1.14612,0.949964,-0.0143424,-0.002962,0.0985039,1,8.31636e-05,3.48494e-05,2.14412e-05,0.0166327,0.00696988,0.00428824,0.99918,0.0142623,0.0378421,0.00211484,-0.30933,-0.00343344,-0.874893,32.3125,3,49969,5046983
86,4,0.99918,0.0142623,0.0378421,0.00211484,-1.43494,-0.2945,9.85034,-0.0037309,-1.14612,0.949964,-0.0143424,-0.002962,0.0985039,1,8.31636e-05,3.48494e-05,2.14412e-05,0.0166327,0.00696988,0.00428824,0.99918,0.0142623,0.0378421,0.00211484,-0.30933,-0.00343344,-0.874893,32.3125,3,49969,5046983
87,1,0.999177,0.0143547,0.0378769,0.00226031,-0.872493,0.540064,9.8136,0.413738,-0.179004,0.869636,-0.00872169,0.00539241,0.0981368,1,3.2694e-05,2.22278e-05,0.00010381,0.00653881,0.00444555,0.020762,0.999177,0.0143547,0.0378769,0.00226031,-0.310953,8.31001e-05,-0.879858,32.3125,3,49971,5047183
87,2,0.999175,0.0142924,0.0379448,0.00241073,-0.736679,0.265901,9.76117,0.501906,-0.394259,0.805692,-0.00735433,0.00266486,0.0976125,1,-3.73244e-05,6.64851e-05,9.74193e-05,-0.00746489,0.013297,0.0194838,0.999175,0.0142924,0.0379448,0.00241073,-0.310452,-0.000417685,-0.879366,32.3125,3,49972,5047283
87,3,0.999175,0.0142924,0.0379448,0.00241073,-0.736679,0.265901,9.76117,0.501906,-0.394259,0.805692,-0.00735433,0.00266486,0.0976125,1,-3.73244e-05,6.64851e-05,9.74193e-05,-0.00746489,0.013297,0.0194838,0.999175,0.0142924,0.0379448,0.00241073,-0.310452,-0.000417685,-0.879366,32.3125,3,49972,5047283
87,4,0.999175,0.0142924,0.0379448,0.00241073,-0.736679,0.265901,9.76117,0.501906,-0.394259,0.805692,-0.00735433,0.00266486,0.0976125,1,-3.73244e-05,6.64851e-05,9.74193e-05,-0.00746489,0.013297,0.0194838,0.999175,0.0142924,0.0379448,0.00241073,-0.310452,-0.000417685,-0.879366,32.3125,3,49972,5047283
88,1,0.999168,0.0142536,0.0381216,0.00251708,-1.11436,0.056498,9.67363,0.115289,-0.512041,0.741094,-0.0111286,0.000566733,0.096738,1,-9.91048e-06,7.71947e-05,7.40652e-06,-0.0019821,0.0154389,0.0014813,0.999168,0.0142536,0.0381216,0.00251708,-0.31083,-0.00145233,-0.875852,32.3125,3,49974,5047483
88,2,0.999167,0.0142199,0.0381677,0.00250214,-1.07364,-0.106123,9.72489,0.140439,-0.583646,0.78166,-0.0107281,-0.00105906,0.0972499,1,-9.34473e-06,4.31196e-05,-1.62543e-05,-0.00186895,0.00862392,-0.00325085,0.999167,0.0142199,0.0381677,0.00250214,-0.311846,-0.000441747,-0.87734,32.3125,3,49975,5047583
88,3,0.999165,0.0142383,0.0382146,0.00254036,-0.990112,-0.0565008,9.76714,0.213035,-0.492735,0.818106,-0.00989281,-0.000573768,0.0976722,1,4.48303e-05,4.25035e-05,1.26374e-07,0.00896605,0.00850069,2.52747e-05,0.999165,0.0142383,0.0382146,0.00254036,-0.309501,0.00102861,-0.878834,32.3125,3,49976,5047683
88,4,0.999165,0.0142383,0.0382146,0.00254036,-0.990112,-0.0565008,9.76714,0.213035,-0.492735,0.818106,-0.00989281,-0.000573768,0.0976722,1,4.48303e-05,4.25035e-05,1.26374e-07,0.00896605,0.00850069,2.52747e-05,0.999165,0.0142383,0.0382146,0.00254036,-0.309501,0.00102861,-0.878834,32.3125,3,49976,5047683
89,1,0.999165,0.0142391,0.0382013,0.00264281,-0.909108,0.107624,9.74873,0.283537,-0.273252,0.798757,-0.0090979,0.00107271,0.0974867,1,1.33383e-05,-3.44317e-05,5.13334e-05,0.00266766,-0.00688633,0.0102667,0.999165,0.0142391,0.0382013,0.00264281,-0.310448,6.10687e-05,-0.878851,32.3125,3,49978,5047883
89,2,0.999165,0.0142391,0.0382013,0.00264281,-0.909108,0.107624,9.74873,0.283537,-0.273252,0.798757,-0.0090979,0.00107271,0.0974867,1,1.33383e-05,-3.44317e-05,5.13334e-05,0.00266766,-0.00688633,0.0102667,0.999165,0.0142391,0.0382013,0.00264281,-0.310448,6.10687e-05,-0.878851,32.3125,3,49978,5047883
89,3,0.999167,0.0142211,0.0381512,0.00268436,-0.891737,0.129654,9.75052,0.300525,-0.215362,0.796833,-0.00892816,0.00129475,0.0975042,1,6.37762e-06,-5.48995e-05,3.06742e-05,0.00127552,-0.0109799,0.00613483,0.999167,0.0142211,0.0381512,0.00268436,-0.309892,2.97651e-06,-0.875824,32.3125,3,49979,5047983
89,4,0.999167,0.0142211,0.0381512,0.00268436,-0.891737,0.129654,9.75052,0.300525,-0.215362,0.796833,-0.00892816,0.00129475,0.0975042,1,6.37762e-06,-5.48995e-05,3.06742e-05,0.00127552,-0.0109799,0.00613483,0.999167,0.0142211,0.0381512,0.00268436,-0.309892,2.97651e-06,-0.875824,32.3125,3,49979,5047983
90,1,0.999171,0.0142317,0.0380379,0.00267645,-0.975418,0.00451502,9.7853,0.216868,-0.316203,0.834287,-0.00976687,4.21022e-05,0.0978517,1,1.41057e-05,-6.48312e-05,1.47225e-05,0.00282114,-0.0129662,0.00294449,0.999171,0.0142317,0.0380379,0.00267645,-0.309978,0.00151136,-0.878316,32.3125,3,49981,5048183
90,2,0.999174,0.0142398,0.0379706,0.00268372,-0.990333,0.00466069,9.78067,0.209595,-0.343511,0.826667,-0.00991763,3.99867e-05,0.0978052,1,3.28182e-05,-7.30956e-05,1.01166e-05,0.00656364,-0.0146191,0.00202333,0.999174,0.0142398,0.0379706,0.00268372,-0.309473,4.40534e-05,-0.878351,32.3125,3,49982,5048283
90,3,0.999174,0.0142398,0.0379706,0.00268372,-0.990333,0.00466069,9.78067,0.209595,-0.343511,0.826667,-0.00991763,3.99867e-05,0.0978052,1,3.28182e-05,-7.30956e-05,1.01166e-05,0.00656364,-0.0146191,0.00202333,0.999174,0.0142398,0.0379706,0.00268372,-0.309473,4.40534e-05,-0.878351,32.3125,3,49982,5048283
90,4,0.999174,0.0142398,0.0379706,0.00268372,-0.990333,0.00466069,9.78067,0.209595,-0.343511,0.826667,-0.00991763,3.99867e-05,0.0978052,1,3.28182e-05,-7.30956e-05,1.01166e-05,0.00656364,-0.0146191,0.00202333,0.999174,0.0142398,0.0379706,0.00268372,-0.309473,4.40534e-05,-0.878351,32.3125,3,49982,5048283
91,1,0.999177,0.0142864,0.0378718,0.00266368,-1.07099,0.0736715,9.73971,0.115425,-0.255231,0.80837,-0.0107189,0.000727277,0.0973962,1,4.70802e-05,-4.58436e-05,1.24753e-05,0.00941604,-0.00916873,0.00249506,0.999177,0.0142864,0.0378718,0.00266368,-0.307544,0.00050681,-0.877844,32.3125,3,49984,5048483
91,2,0.999177,0.0143253,0.037866,0.00267481,-1.21695,-0.0347522,9.84252,-0.0579386,-0.388073,0.90566,-0.0121719,-0.000360577,0.0984249,1,6.22795e-05,-1.21328e-05,3.26988e-05,0.0124559,-0.00242657,0.00653977,0.999177,0.0143253,0.037866,0.00267481,-0.309925,0.000508777,-0.876823,32.3125,3,49985,5048583
91,3,0.999176,0.0143329,0.0378687,0.00270133,-1.2934,-0.082408,9.70833,-0.0845772,-0.29067,0.781093,-0.0129348,-0.000831018,0.0970832,1,3.13819e-05,-4.15881e-06,3.26484e-05,0.00627637,-0.000831763,0.00652969,0.999176,0.0143329,0.0378687,0.00270133,-0.31081,-0.00050384,-0.874316,32.3125,3,49986,5048683
91,4,0.999176,0.0143329,0.0378687,0.00270133,-1.2934,-0.082408,9.70833,-0.0845772,-0.29067,0.781093,-0.0129348,-0.000831018,0.0970832,1,3.13819e-05,-4.15881e-06,3.26484e-05,0.00627637,-0.000831763,0.00652969,0.999176,0.0143329,0.0378687,0.00270133,-0.31081,-0.00050384,-0.874316,32.3125,3,49986,5048683
92,1,0.999173,0.0144346,0.0379146,0.00274962,-1.13352,0.0352979,9.45255,0.0360808,-0.287528,0.715452,-0.0113311,0.000343704,0.094526,1,4.63127e-05,2.18119e-05,2.29173e-05,0.00926254,0.00436238,0.00458346,0.999173,0.0144346,0.0379146,0.00274962,-0.311447,9.61144e-05,-0.880361,32.3125,3,49988,5048883
92,2,0.999173,0.0144346,0.0379146,0.00274962,-1.13352,0.0352979,9.45255,0.0360808,-0.287528,0.715452,-0.0113311,0.000343704,0.094526,1,4.63127e-05,2.18119e-05,2.29173e-05,0.00926254,0.00436238,0.00458346,0.999173,0.0144346,0.0379146,0.00274962,-0.311447,9.61144e-05,-0.880361,32.3125,3,49988,5048883
92,3,0.999173,0.0143924,0.0379187,0.00280037,-1.4426,0.220709,9.88359,-0.142745,-0.0847254,0.953806,-0.0144274,0.0022094,0.0988356,1,-1.68706e-05,-6.33083e-06,3.55728e-05,-0.00337411,-0.00126617,0.00711456,0.999173,0.0143924,0.0379187,0.00280037,-0.310986,0.000588902,-0.880857,32.3125,3,49989,5048983
92,4,0.999173,0.0143924,0.0379187,0.00280037,-1.4426,0.220709,9.88359,-0.142745,-0.0847254,0.953806,-0.0144274,0.0022094,0.0988356,1,-1.68706e-05,-6.33083e-06,3.55728e-05,-0.00337411,-0.00126617,0.00711456,0.999173,0.0143924,0.0379187,0.00280037,-0.310986,0.000588902,-0.880857,32.3125,3,49989,5048983
93,1,0.999174,0.0144803,0.0378806,0.0027745,-0.880127,0.0813373,9.86748,0.225815,-0.215249,0.9712,-0.00881182,0.000799016,0.098674,1,7.37094e-05,-5.35281e-05,-1.07817e-05,0.0147419,-0.0107056,-0.00215633,0.999174,0.0144803,0.0378806,0.0027745,-0.308462,-0.00144529,-0.877378,32.3125,3,49991,5049183
93,2,0.999173,0.0145154,0.0378859,0.00275335,-0.787697,0.107228,9.87892,0.3571,-0.328276,0.859541,-0.00787823,0.00106045,0.0987892,1,5.96385e-05,-6.32206e-06,3.273e-06,0.0119277,-0.00126441,0.000654601,0.999173,0.0145154,0.0378859,0.00275335,-0.308873,-0.00197413,-0.874863,32.3125,3,49992,5049283
93,3,0.999173,0.0145154,0.0378859,0.00275335,-0.787697,0.107228,9.87892,0.3571,-0.328276,0.859541,-0.00787823,0.00106045,0.0987892,1,5.96385e-05,-6.32206e-06,3.273e-06,0.0119277,-0.00126441,0.000654601,0.999173,0.0145154,0.0378859,0.00275335,-0.308873,-0.00197413,-0.874863,32.3125,3,49992,5049283
93,4,0.999174,0.014517,0.0378503,0.00275274,-0.891173,0.263146,9.78393,0.22515,-0.154865,0.770818,-0.00892096,0.00262618,0.0978386,1,2.45411e-05,-4.64568e-05,2.67215e-05,0.00490822,-0.00929137,0.00534431,0.999174,0.014517,0.0378503,0.00275274,-0.310346,-0.00242286,-0.876381,32.3125,3,49993,5049383
94,1,0.999173,0.0145573,0.0378517,0.00275509,-0.608746,0.2258,9.73854,0.553186,-0.304166,0.738229,-0.00608952,0.00224528,0.0973856,1,6.4351e-05,-1.02459e-05,1.57365e-05,0.0128702,-0.00204918,0.00314731,0.999173,0.0145573,0.0378517,0.00275509,-0.309938,-0.00237276,-0.879412,32.3125,3,49994,5049483
94,2,0.999174,0.0145323,0.0378386,0.00276463,-0.693946,0.0637197,9.75573,0.475473,-0.36065,0.800805,-0.00694432,0.000637108,0.0975569,1,-2.71507e-07,-2.48657e-05,1.02752e-05,-5.43014e-05,-0.00497315,0.00205504,0.999174,0.0145323,0.0378386,0.00276463,-0.309469,-0.000922469,-0.878877,32.3125,3,49995,5049583
94,3,0.999174,0.0145537,0.0378447,0.0027621,-0.598417,0.0920284,9.81061,0.61053,-0.305044,0.836276,-0.00598522,0.000911143,0.0981061,1,4.64973e-05,-5.32723e-06,1.45746e-06,0.00929945,-0.00106545,0.000291493,0.999174,0.0145537,0.0378447,0.0027621,-0.309424,-0.00143729,-0.877374,32.3125,3,49996,5049683
94,4,0.999174,0.0145537,0.0378447,0.0027621,-0.598417,0.0920284,9.81061,0.61053,-0.305044,0.836276,-0.00598522,0.000911143,0.0981061,1,4.64973e-05,-5.32723e-06,1.45746e-06,0.00929945,-0.00106545,0.000291493,0.999174,0.0145537,0.0378447,0.0027621,-0.309424,-0.00143729,-0.877374,32.3125,3,49996,5049683
95,1,0.999172,0.0146058,0.037882,0.00272459,-0.392054,0.219863,9.84354,0.788351,-0.0469599,0.85262,-0.00391588,0.00218831,0.0984358,1,5.29757e-05,2.33427e-05,-1.44994e-05,0.0105951,0.00466854,-0.00289989,0.999172,0.0146058,0.037882,0.00272459,-0.309877,-0.00241784,-0.876888,32.3125,3,49998,5049883
95,2,0.999172,0.0146058,0.037882,0.00272459,-0.392054,0.219863,9.84354,0.788351,-0.0469599,0.85262,-0.00391588,0.00218831,0.0984358,1,5.29757e-05,2.33427e-05,-1.44994e-05,0.0105951,0.00466854,-0.00289989,0.999172,0.0146058,0.037882,0.00272459,-0.309877,-0.00241784,-0.876888,32.3125,3,49998,5049883
95,3,0.999169,0.0146263,0.0379481,0.00271615,-0.490252,0.0237508,9.75056,0.731198,-0.301662,0.764219,-0.00489147,0.000228692,0.0975062,1,4.50369e-05,5.67027e-05,3.36693e-06,0.00900738,0.0113405,0.000673385,0.999169,0.0146263,0.0379481,0.00271615,-0.311838,-0.000929516,-0.877351,32.3125,3,49999,5049983
95,4,0.999169,0.0146263,0.0379481,0.00271615,-0.490252,0.0237508,9.75056,0.731198,-0.301662,0.764219,-0.00489147,0.000228692,0.0975062,1,4.50369e-05,5.67027e-05,3.36693e-06,0.00900738,0.0113405,0.000673385,0.999169,0.0146263,0.0379481,0.00271615,-0.311838,-0.000929516,-0.877351,32.3125,3,49999,5049983
96,1,0.999166,0.0146692,0.037998,0.00271082,-0.546929,0.0825799,9.76504,0.629678,-0.27699,0.772127,-0.00546848,0.000817567,0.0976506,1,4.2634e-05,4.10314e-06,-8.61497e-06,0.0085268,0.000820629,-0.00172299,0.999166,0.0146692,0.037998,0.00271082,-0.310362,-0.00289259,-0.877402,32.3125,3,50001,5050183
96,2,0.999167,0.0146591,0.0379755,0.00269448,-0.455251,0.106753,9.83454,0.72448,-0.223881,0.838237,-0.00455864,0.00106469,0.0983451,1,1.48042e-05,-3.12218e-05,-7.18034e-06,0.00296084,-0.00624436,-0.00143607,0.999167,0.0146591,0.0379755,0.00269448,-0.309889,-0.00240882,-0.877393,32.3125,3,50002,5050283
96,3,0.999167,0.0146591,0.0379755,0.00269448,-0.455251,0.106753,9.83454,0.72448,-0.223881,0.838237,-0.00455864,0.00106469,0.0983451,1,1.48042e-05,-3.12218e-05,-7.18034e-06,0.00296084,-0.00624436,-0.00143607,0.999167,0.0146591,0.0379755,0.00269448,-0.309889,-0.00240882,-0.877393,32.3125,3,50002,5050283
96,4,0.999167,0.0146591,0.0379755,0.00269448,-0.455251,0.106753,9.83454,0.72448,-0.223881,0.838237,-0.00455864,0.00106469,0.0983451,1,1.48042e-05,-3.12218e-05,-7.18034e-06,0.00296084,-0.00624436,-0.00143607,0.999167,0.0146591,0.0379755,0.00269448,-0.309889,-0.00240882,-0.877393,32.3125,3,50002,5050283
97,1,0.99917,0.0146965,0.0379068,0.00264027,-0.445566,0.0526148,9.85844,0.741678,-0.283909,0.872655,-0.00446647,0.000516356,0.098584,1,4.96116e-05,-5.48623e-05,1.21128e-06,0.00992233,-0.0109725,0.000242257,0.99917,0.0146965,0.0379068,0.00264027,-0.307911,-0.00198213,-0.874867,32.3125,3,50004,5050483
97,2,0.999171,0.014723,0.037861,0.00259578,-0.467148,0.0705893,9.80853,0.722881,-0.266437,0.823655,-0.00468151,0.000696189,0.0980849,1,4.92984e-05,-5.11466e-05,3.62271e-06,0.00985968,-0.0102293,0.000724543,0.999171,0.014723,0.037861,0.00259578,-0.309856,-0.00291463,-0.876394,32.3125,3,50005,5050583
97,3,0.999172,0.0147546,0.0378283,0.00260818,-0.491089,0.0722483,9.76154,0.706762,-0.263569,0.781758,-0.00491838,0.0007115,0.0976151,1,5.47467e-05,-3.81378e-05,2.99477e-05,0.0109493,-0.00762755,0.00598955,0.999172,0.0147546,0.0378283,0.00260818,-0.311288,-0.00435692,-0.876925,32.3125,3,50006,5050683
97,4,0.999172,0.0147546,0.0378283,0.00260818,-0.491089,0.0722483,9.76154,0.706762,-0.263569,0.781758,-0.00491838,0.0007115,0.0976151,1,5.47467e-05,-3.81378e-05,2.99477e-05,0.0109493,-0.00762755,0.00598955,0.999172,0.0147546,0.0378283,0.00260818,-0.311288,-0.00435692,-0.876925,32.3125,3,50006,5050683
98,1,0.999176,0.0148158,0.037694,0.00269581,-0.743352,0.104937,9.64076,0.401437,-0.234837,0.658307,-0.00745134,0.00103922,0.0964063,1,4.92978e-05,-9.19387e-05,4.36532e-05,0.00985955,-0.0183877,0.00873063,0.999176,0.0148158,0.037694,0.00269581,-0.311378,-0.00188201,-0.87889,32.3125,3,50008,5050883
98,2,0.999176,0.0148158,0.037694,0.00269581,-0.743352,0.104937,9.64076,0.401437,-0.234837,0.658307,-0.00745134,0.00103922,0.0964063,1,4.92978e-05,-9.19387e-05,4.36532e-05,0.00985955,-0.0183877,0.00873063,0.999176,0.0148158,0.037694,0.00269581,-0.311378,-0.00188201,-0.87889,32.3125,3,50008,5050883
98,3,0.99918,0.0148354,0.0375802,0.0027401,-0.405674,0.123063,9.77026,0.744596,-0.207359,0.754128,-0.00408019,0.0012217,0.0977017,1,4.45737e-05,-0.000119686,2.69824e-05,0.00891475,-0.0239372,0.00539647,0.99918,0.0148354,0.0375802,0.0027401,-0.311283,-0.00243289,-0.875367,32.3125,3,50009,5050983
98,4,0.99918,0.0148354,0.0375802,0.0027401,-0.405674,0.123063,9.77026,0.744596,-0.207359,0.754128,-0.00408019,0.0012217,0.0977017,1,4.45737e-05,-0.000119686,2.69824e-05,0.00891475,-0.0239372,0.00539647,0.99918,0.0148354,0.0375802,0.0027401,-0.311283,-0.00243289,-0.875367,32.3125,3,50009,5050983
99,1,0.999188,0.0148732,0.037352,0.00273269,-0.0784405,-0.0121737,9.83437,1.07739,-0.33104,0.831315,-0.000806375,-0.000130481,0.0983435,1,4.43433e-05,-0.000111718,1.41268e-05,0.00886865,-0.0223436,0.00282537,0.999188,0.0148732,0.037352,0.00273269,-0.311312,-0.00144833,-0.87585,32.3125,3,50011,5051183
99,2,0.99919,0.0148903,0.0372745,0.00275267,-0.145793,0.00236567,9.89161,1.02476,-0.31338,0.906954,-0.00147371,1.55893e-05,0.0989159,1,4.03349e-05,-7.97496e-05,2.9988e-05,0.00806698,-0.0159499,0.00599761,0.99919,0.0148903,0.0372745,0.00275267,-0.309889,-0.000963546,-0.876351,32.3125,3,50012,5051283
99,3,0.99919,0.0148903,0.0372745,0.00275267,-0.145793,0.00236567,9.89161,1.02476,-0.31338,0.906954,-0.00147371,1.55893e-05,0.0989159,1,4.03349e-05,-7.97496e-05,2.9988e-05,0.00806698,-0.0159499,0.00599761,0.99919,0.0148903,0.0372745,0.00275267,-0.309889,-0.000963546,-0.876351,32.3125,3,50012,5051283
99,4,0.99919,0.0148903,0.0372745,0.00275267,-0.145793,0.00236567,9.89161,1.02476,-0.31338,0.906954,-0.00147371,1.55893e-05,0.0989159,1,4.03349e-05,-7.97496e-05,2.9988e-05,0.00806698,-0.0159499,0.00599761,0.99919,0.0148903,0.0372745,0.00275267,-0.309889,-0.000963546,-0.876351,32.3125,3,50012,5051283
