frame_id,imu_idx,quat_w,quat_x,quat_y,quat_z,accel_x,accel_y,accel_z,free_accel_x,free_accel_y,free_accel_z,delta_v_x,delta_v_y,delta_v_z,delta_q_w,delta_q_x,delta_q_y,delta_q_z,rate_x,rate_y,rate_z,quat_w,quat_x,quat_y,quat_z,mag_x,mag_y,mag_z,temperature,status_byte,packet_counter,time_fine
1,1,0.999283,0.00139065,0.0378459,4.98401e-05,-0.724932,0.0225811,9.79013,0.450676,0.0129536,0.827396,-0.00724196,0.000221636,0.0979019,1,2.1413e-05,3.75917e-05,-1.21084e-06,0.00428261,0.00751834,-0.000242168,0.999283,0.00139065,0.0378459,4.98401e-05,-0.30387,-0.0195017,-0.879316,31.125,1,1171,161293
1,2,0.999282,0.00144479,0.0378637,7.52398e-05,-0.890156,-0.0476792,9.79438,0.330872,0.00425174,0.850369,-0.00889818,-0.000489894,0.0979441,1,6.60029e-05,1.72381e-05,9.69768e-06,0.0132006,0.00344761,0.00193954,0.999282,0.00144479,0.0378637,7.52398e-05,-0.303373,-0.0204813,-0.87934,31.125,1,1172,161393
1,3,0.999282,0.00154165,0.037853,0.000111647,-0.90364,0.118628,9.7854,0.254926,0.07379,0.848673,-0.00903623,0.00117946,0.0978541,1,3.25461e-05,1.21493e-06,2.50045e-05,0.00650921,0.000242987,0.00500089,0.999282,0.00154165,0.037853,0.000111647,-0.30374,-0.0229702,-0.876363,31.125,1,1174,161593
1,4,0.999284,0.00161795,0.0377957,0.000148728,-1.06851,0.0975035,9.74703,0.0742644,0.0808645,0.796061,-0.0106944,0.00096487,0.0974694,1,4.99748e-05,-4.7542e-05,1.9774e-05,0.00999496,-0.00950841,0.00395481,0.999284,0.00161795,0.0377957,0.000148728,-0.303752,-0.0244065,-0.87791,31.125,1,1176,161793
2,1,0.999287,0.00167311,0.0377069,0.000206049,-0.834277,0.031232,9.71976,0.330221,0.0236343,0.766455,-0.00835082,0.000308057,0.0971969,1,2.02972e-05,-4.13526e-05,1.90305e-05,0.00405945,-0.00827053,0.00380611,0.999287,0.00167311,0.0377069,0.000206049,-0.301848,-0.0210351,-0.876329,31.125,1,1178,161993
2,2,0.999289,0.00177244,0.0376607,0.000214391,-0.630867,0.0589804,9.80782,0.551096,0.0477151,0.834903,-0.0063117,0.000578547,0.0980781,1,5.61828e-05,-1.53632e-05,1.86903e-05,0.0112366,-0.00307264,0.00373806,0.999289,0.00177244,0.0376607,0.000214391,-0.30325,-0.023462,-0.876376,31.125,1,1180,162193
2,3,0.999289,0.0018196,0.037659,0.000228842,-0.725648,0.0776266,9.80013,0.460829,0.0627282,0.837847,-0.00725712,0.000766953,0.0980013,1,4.63221e-05,-3.13283e-06,1.61269e-05,0.00926442,-0.000626566,0.00322537,0.999289,0.0018196,0.037659,0.000228842,-0.303246,-0.0229832,-0.875861,31.125,1,1181,162293
2,4,0.999288,0.0018876,0.0376839,0.000255195,-0.9175,-0.000145302,9.76173,0.254643,-0.0172482,0.808918,-0.00917351,-7.50113e-06,0.0976175,1,2.9549e-05,7.61656e-06,1.52121e-05,0.0059098,0.00152331,0.00304243,0.999288,0.0018876,0.0376839,0.000255195,-0.302329,-0.0210311,-0.876327,31.125,1,1183,162493
3,1,0.999289,0.00198268,0.0376544,0.000296871,-0.873867,0.0360086,9.79603,0.298447,0.0200344,0.84435,-0.00874227,0.000349705,0.09796,1,5.1435e-05,-1.83041e-05,1.73861e-05,0.010287,-0.00366082,0.00347723,0.999289,0.00198268,0.0376544,0.000296871,-0.305685,-0.0224574,-0.876848,31.125,1,1185,162693
3,2,0.999289,0.00210014,0.0376498,0.000323252,-0.84413,0.0588361,9.7648,0.328589,0.0250017,0.816677,-0.00844089,0.000576839,0.0976481,1,5.80493e-05,2.17372e-06,1.09598e-05,0.0116099,0.000434745,0.00219197,0.999289,0.00210014,0.0376498,0.000323252,-0.30575,-0.0214458,-0.878845,31.125,1,1187,162893
3,3,0.99929,0.00219899,0.0376237,0.000316918,-0.810775,0.0690803,9.79556,0.341973,0.0284866,0.837663,-0.00811235,0.000680608,0.0979553,1,5.27875e-05,-2.35175e-05,-9.06363e-06,0.0105575,-0.0047035,-0.00181273,0.99929,0.00219899,0.0376237,0.000316918,-0.303324,-0.0219626,-0.878363,31.125,1,1189,163093
3,4,0.999291,0.00228406,0.0375778,0.000338481,-0.78258,0.0832792,9.78499,0.365801,0.0527914,0.82959,-0.0078337,0.000825313,0.0978493,1,3.66829e-05,-4.02072e-05,1.91852e-05,0.00733657,-0.00804143,0.00383704,0.999291,0.00228406,0.0375778,0.000338481,-0.302752,-0.0215509,-0.874316,31.125,1,1191,163293
4,1,0.999291,0.0023299,0.0375696,0.000351166,-0.777638,0.07139,9.79025,0.406897,0.0463857,0.823944,-0.00777867,0.000704918,0.0979024,1,4.47351e-05,-1.15876e-05,1.43034e-05,0.00894702,-0.00231752,0.00286068,0.999291,0.0023299,0.0375696,0.000351166,-0.303695,-0.023485,-0.87486,31.125,1,1192,163393
4,2,0.999292,0.00242316,0.0375529,0.000366823,-0.79531,0.062757,9.77945,0.392644,0.0267173,0.81671,-0.00795473,0.000619691,0.0977944,1,3.92273e-05,-8.22722e-06,1.29658e-05,0.00784547,-0.00164544,0.00259316,0.999292,0.00242316,0.0375529,0.000366823,-0.305199,-0.0219827,-0.876335,31.125,1,1194,163593
4,3,0.999292,0.0024918,0.0375465,0.000397466,-0.836443,0.0446505,9.76836,0.3627,0.0106962,0.812255,-0.00836475,0.000440916,0.0976837,1,2.81111e-05,-1.64827e-06,5.7946e-06,0.00562221,-0.000329654,0.00115892,0.999292,0.0024918,0.0375465,0.000397466,-0.303324,-0.0219626,-0.878363,31.125,1,1196,163793
4,4,0.999292,0.00259751,0.0375258,0.000426103,-0.853924,0.0344492,9.7762,0.31161,-0.0142026,0.823314,-0.00854252,0.000333366,0.0977618,1,5.59408e-05,-1.6719e-05,1.10031e-05,0.0111882,-0.00334381,0.00220063,0.999292,0.00259751,0.0375258,0.000426103,-0.303735,-0.0224914,-0.875848,31.125,1,1198,163993
5,1,0.999293,0.00269309,0.0375043,0.00043817,-0.826607,0.0893509,9.79754,0.3429,0.0483195,0.843158,-0.00826966,0.000885629,0.0979751,1,3.93633e-05,-1.82091e-05,1.01179e-05,0.00787267,-0.00364181,0.00202359,0.999293,0.00269309,0.0375043,0.00043817,-0.304261,-0.0205273,-0.876307,31.125,1,1200,164193
5,2,0.999293,0.00274691,0.0374922,0.000449577,-0.830963,0.0663289,9.78244,0.338124,0.0221474,0.82743,-0.00831307,0.000652788,0.0978242,1,5.2549e-05,-1.74808e-05,1.32807e-05,0.0105098,-0.00349617,0.00265614,0.999293,0.00274691,0.0374922,0.000449577,-0.305713,-0.0214729,-0.877331,31.125,1,1201,164293
5,3,0.999293,0.00284366,0.0374795,0.000463676,-0.797869,0.0366908,9.75889,0.364971,-0.00896004,0.801775,-0.00798222,0.000357335,0.0975887,1,4.75384e-05,-1.8038e-05,1.84365e-05,0.00950768,-0.00360759,0.00368729,0.999293,0.00284366,0.0374795,0.000463676,-0.305207,-0.0214949,-0.876324,31.125,1,1203,164493
5,4,0.999293,0.00294804,0.0374885,0.000490026,-0.83496,0.0765065,9.77643,0.333375,0.0303057,0.81982,-0.00835076,0.000755812,0.0977643,1,4.60241e-05,-5.83005e-06,1.51713e-05,0.00920482,-0.00116601,0.00303426,0.999293,0.00294804,0.0374885,0.000490026,-0.305705,-0.0219606,-0.877342,31.125,1,1205,164693
6,1,0.999292,0.0030414,0.0374819,0.00052484,-0.827092,0.0649785,9.80649,0.335457,0.021509,0.8553,-0.00827351,0.000642029,0.0980647,1,3.7808e-05,-1.3109e-05,2.0627e-05,0.00756161,-0.0026218,0.0041254,0.999292,0.0030414,0.0374819,0.00052484,-0.304299,-0.0219456,-0.878863,31.125,1,1207,164893
6,2,0.999293,0.00312196,0.0374576,0.000543993,-0.808949,0.0485749,9.77909,0.353209,-0.00383998,0.814041,-0.00809446,0.000478196,0.0977906,1,3.76981e-05,-2.53227e-05,1.11403e-05,0.00753963,-0.00506453,0.00222805,0.999293,0.00312196,0.0374576,0.000543993,-0.302806,-0.0219936,-0.876851,31.125,1,1209,165093
6,3,0.999293,0.00322661,0.037447,0.000580934,-0.803497,0.0605908,9.76592,0.354508,0.00941774,0.810012,-0.00803736,0.000595063,0.097659,1,5.39124e-05,-1.21016e-05,1.95931e-05,0.0107825,-0.00242031,0.00391863,0.999293,0.00322661,0.037447,0.000580934,-0.302378,-0.0209951,-0.878346,31.125,1,1211,165293
6,4,0.999293,0.00326962,0.0374407,0.000595476,-0.802383,0.0571624,9.78928,0.361402,0.00115012,0.842512,-0.00802678,0.00056324,0.0978926,1,4.15071e-05,-1.4996e-05,1.60173e-05,0.00830142,-0.0029992,0.00320346,0.999293,0.00326962,0.0374407,0.000595476,-0.303813,-0.0214708,-0.87835,31.125,1,1212,165393
7,1,0.999293,0.00337159,0.0374265,0.000621958,-0.824444,0.0575252,9.77621,0.350585,0.0008181,0.824322,-0.00824842,0.000564544,0.0977619,1,5.40744e-05,-2.03457e-05,8.18822e-06,0.0108149,-0.00406914,0.00163765,0.999293,0.00337159,0.0374265,0.000621958,-0.30279,-0.0229692,-0.876873,31.125,1,1214,165593
7,2,0.999294,0.00346858,0.0374083,0.000653771,-0.838071,0.0594599,9.7787,0.317019,0.00520487,0.823485,-0.00838527,0.000583788,0.0977866,1,5.37466e-05,-2.3214e-05,1.79022e-05,0.0107493,-0.00464279,0.00358044,0.999294,0.00346858,0.0374083,0.000653771,-0.304693,-0.0220047,-0.875327,31.125,1,1216,165793
7,3,0.999294,0.00357137,0.0374069,0.000660273,-0.772094,0.0546085,9.78532,0.390708,-0.00391174,0.826011,-0.0077229,0.000534147,0.0978531,1,6.04353e-05,-9.98945e-06,7.16203e-06,0.0120871,-0.00199789,0.0014324,0.999294,0.00357137,0.0374069,0.000660273,-0.304743,-0.0219686,-0.877346,31.125,1,1218,165993
7,4,0.999293,0.00367065,0.037414,0.000684077,-0.764929,0.0535458,9.78086,0.40179,-0.00553881,0.820826,-0.00765164,0.000525266,0.0978085,1,5.17071e-05,-1.19879e-05,5.044e-06,0.0103414,-0.00239758,0.0010088,0.999293,0.00367065,0.037414,0.000684077,-0.302345,-0.0215009,-0.877347,31.125,1,1220,166193
8,1,0.999293,0.00371938,0.0374163,0.000679484,-0.803179,0.0682012,9.7748,0.363761,0.00351182,0.821762,-0.00803344,0.000672557,0.0977479,1,4.85499e-05,-8.42285e-06,-2.25787e-06,0.00970997,-0.00168457,-0.000451573,0.999293,0.00371938,0.0374163,0.000679484,-0.303764,-0.0215069,-0.876331,31.125,1,1221,166293
8,2,0.999291,0.00380324,0.0374442,0.000705569,-0.823045,0.0753431,9.7872,0.342745,0.00827415,0.8298,-0.00823012,0.000745681,0.0978721,1,3.81973e-05,1.83826e-06,1.65589e-05,0.00763945,0.000367652,0.00331178,0.999291,0.00380324,0.0374442,0.000705569,-0.303818,-0.0219496,-0.878866,31.125,1,1223,166493
8,3,0.999291,0.00389382,0.0374495,0.000722976,-0.84289,0.0538038,9.77799,0.321287,-0.0132024,0.823355,-0.00843114,0.000528515,0.0977798,1,4.81978e-05,-1.14219e-05,5.81712e-06,0.00963955,-0.00228437,0.00116342,0.999291,0.00389382,0.0374495,0.000722976,-0.304718,-0.0219867,-0.876337,31.125,1,1225,166693
8,4,0.99929,0.00400284,0.0374482,0.000756458,-0.824042,0.0655279,9.76744,0.338142,-0.00196962,0.812699,-0.00824235,0.00064346,0.0976744,1,5.8323e-05,-9.67795e-06,2.58222e-05,0.0116646,-0.00193559,0.00516444,0.99929,0.00400284,0.0374482,0.000756458,-0.306121,-0.0229682,-0.875342,31.125,1,1227,166893
9,1,0.99929,0.00409783,0.037448,0.000770655,-0.782839,0.0792769,9.78425,0.37721,0.0100135,0.824018,-0.00783032,0.000783709,0.0978424,1,4.57875e-05,-9.84627e-06,6.39072e-06,0.0091575,-0.00196926,0.00127814,0.99929,0.00409783,0.037448,0.000770655,-0.30573,-0.0219426,-0.878352,31.125,1,1229,167093
9,2,0.999289,0.0041502,0.0374627,0.000770213,-0.784229,0.0690723,9.77501,0.381839,-0.00182441,0.817037,-0.00784313,0.000680512,0.0977501,1,5.22845e-05,-4.29485e-06,-7.02283e-07,0.0104569,-0.000858971,-0.000140457,0.999289,0.0041502,0.0374627,0.000770213,-0.305733,-0.0209761,-0.877825,31.125,1,1230,167193
9,3,0.999289,0.00424951,0.0374678,0.000795,-0.810381,0.033014,9.78438,0.360456,-0.0428559,0.827915,-0.00810635,0.000318126,0.0978436,1,6.05695e-05,-1.29041e-05,9.93767e-06,0.0121139,-0.00258083,0.00198753,0.999289,0.00424951,0.0374678,0.000795,-0.304229,-0.0224784,-0.87635,31.125,1,1232,167393
9,4,0.999288,0.0043212,0.037479,0.000825898,-0.840982,0.0376473,9.78429,0.329011,-0.0443167,0.826955,-0.00841081,0.000368391,0.0978429,1,3.93969e-05,-4.94555e-06,2.21578e-05,0.00787938,-0.00098911,0.00443156,0.999288,0.0043212,0.037479,0.000825898,-0.304196,-0.0229842,-0.875351,31.125,1,1234,167593
10,1,0.999287,0.00439446,0.0374857,0.000850743,-0.833902,0.0806134,9.77545,0.334496,0.000727348,0.819677,-0.00834096,0.000797826,0.0977544,1,4.14887e-05,-9.81024e-06,1.1811e-05,0.00829773,-0.00196205,0.0023622,0.999287,0.00439446,0.0374857,0.000850743,-0.305688,-0.0214909,-0.876321,31.125,1,1236,167793
10,2,0.999286,0.0045018,0.0375081,0.000900361,-0.840195,0.0561697,9.76918,0.320306,-0.0221809,0.812451,-0.00840438,0.000549335,0.0976916,1,6.18883e-05,-1.23436e-05,1.60746e-05,0.0123777,-0.00246872,0.00321491,0.999286,0.0045018,0.0375081,0.000900361,-0.302744,-0.0220387,-0.874327,31.125,1,1238,167993
10,3,0.999286,0.00460556,0.0374959,0.000927893,-0.834077,0.0628768,9.78378,0.332563,-0.02258,0.823505,-0.00834188,0.000617101,0.0978377,1,5.76489e-05,-5.55992e-06,2.31525e-05,0.0115298,-0.00111198,0.0046305,0.999286,0.00460556,0.0374959,0.000927893,-0.302773,-0.0224994,-0.875852,31.125,1,1240,168193
10,4,0.999286,0.00464997,0.0374858,0.000942037,-0.826119,0.0624706,9.78814,0.339122,-0.02061,0.8325,-0.00826582,0.00061566,0.0978811,1,4.49065e-05,-2.35139e-05,1.53821e-05,0.00898129,-0.00470279,0.00307641,0.999286,0.00464997,0.0374858,0.000942037,-0.303752,-0.0229612,-0.876868,31.125,1,1241,168293
11,1,0.999285,0.00473934,0.0375,0.000957596,-0.806875,0.0699727,9.77552,0.359954,-0.0167575,0.815185,-0.00807146,0.000690619,0.097755,1,4.57149e-05,-1.38115e-05,1.05425e-05,0.00914299,-0.00276229,0.00210849,0.999285,0.00473934,0.0375,0.000957596,-0.303874,-0.0199805,-0.879832,31.125,1,1243,168493
11,2,0.999283,0.00482166,0.037528,0.00104469,-0.826586,0.0416575,9.78899,0.344009,-0.0408516,0.831325,-0.00827005,0.000406454,0.0978896,1,5.06974e-05,-2.1361e-05,1.18688e-05,0.0101395,-0.0042722,0.00237376,0.999283,0.00482166,0.037528,0.00104469,-0.30422,-0.0215209,-0.875319,31.125,1,1245,168693
11,3,0.999282,0.0049267,0.0375452,0.00110007,-0.830822,0.054404,9.76434,0.338288,-0.0355482,0.805227,-0.00830841,0.000533978,0.0976434,1,5.10775e-05,-9.24012e-07,5.23414e-06,0.0102155,-0.000184802,0.00104683,0.999282,0.0049267,0.0375452,0.00110007,-0.305212,-0.0219736,-0.876839,31.125,1,1247,168893
11,4,0.99928,0.00501932,0.0375909,0.00112708,-0.788559,0.0706687,9.79507,0.380495,-0.0218322,0.837343,-0.00788722,0.000696487,0.0979506,1,5.05353e-05,-8.17685e-06,1.90497e-05,0.0101071,-0.00163537,0.00380994,0.99928,0.00501932,0.0375909,0.00112708,-0.303267,-0.0239317,-0.877397,31.125,1,1249,169093
12,1,0.999279,0.00506704,0.0376034,0.00110093,-0.78032,0.0663271,9.78582,0.383308,-0.0261226,0.826319,-0.00780552,0.000652901,0.0978581,1,5.25619e-05,-1.18167e-05,5.29917e-06,0.0105124,-0.00236334,0.00105983,0.999279,0.00506704,0.0376034,0.00110093,-0.302259,-0.0230092,-0.874856,31.125,1,1250,169193
12,2,0.999279,0.00518269,0.0376046,0.00110578,-0.789735,0.0673282,9.7774,0.385266,-0.0276556,0.817195,-0.00789506,0.000664065,0.0977743,1,4.65028e-05,1.17663e-05,7.7651e-06,0.00930057,0.00235326,0.00155302,0.999279,0.00518269,0.0376046,0.00110578,-0.30325,-0.0220167,-0.875334,31.125,1,1252,169393
12,3,0.999277,0.00525854,0.0376471,0.00117372,-0.792222,0.0632522,9.78927,0.377557,-0.0332542,0.830207,-0.00792261,0.000625695,0.0978927,1,3.4025e-05,-1.88516e-06,1.04753e-05,0.00680499,-0.000377033,0.00209506,0.999277,0.00525854,0.0376471,0.00117372,-0.304727,-0.0229442,-0.877368,31.125,1,1254,169593
12,4,0.999273,0.0053356,0.037728,0.00119467,-0.819506,0.0459345,9.77809,0.35556,-0.0546988,0.821758,-0.00819418,0.000447395,0.0977811,1,6.06179e-05,4.53576e-06,5.82096e-06,0.0121236,0.000907151,0.00116419,0.999273,0.0053356,0.037728,0.00119467,-0.303226,-0.02348,-0.875367,31.125,1,1256,169793
13,1,0.999272,0.00542137,0.0377446,0.00125818,-0.847485,0.0787851,9.76637,0.322163,-0.0208038,0.804777,-0.00847713,0.000779722,0.0976636,1,3.98868e-05,-1.1472e-05,1.99709e-05,0.00797737,-0.0022944,0.00399419,0.999272,0.00542137,0.0377446,0.00125818,-0.305163,-0.023455,-0.875862,31.125,1,1258,169993
13,2,0.99927,0.00548832,0.0377775,0.0012786,-0.852328,0.0807451,9.77489,0.323109,-0.0245816,0.824419,-0.00852526,0.00079999,0.0977488,1,3.64556e-05,-9.95028e-06,1.95952e-05,0.00729112,-0.00199006,0.00391904,0.99927,0.00548832,0.0377775,0.0012786,-0.301811,-0.0225074,-0.875857,31.125,1,1260,170193
13,3,0.99927,0.00552837,0.0377842,0.00130003,-0.861396,0.0314376,9.77725,0.310447,-0.0731981,0.822135,-0.00861516,0.000306661,0.0977724,1,3.8011e-05,-6.05343e-06,1.6367e-05,0.00760221,-0.00121069,0.00327341,0.99927,0.00552837,0.0377842,0.00130003,-0.302358,-0.0214918,-0.877852,31.125,1,1261,170293
13,4,0.999267,0.00562281,0.037841,0.00142806,-0.863906,0.0560714,9.77681,0.309548,-0.0479232,0.816835,-0.00864251,0.000551809,0.0977678,1,4.38914e-05,-1.75553e-05,1.86265e-05,0.00877828,-0.00351105,0.0037253,0.999267,0.00562281,0.037841,0.00142806,-0.30327,-0.0215199,-0.875828,31.125,1,1263,170493
14,1,0.999265,0.00570042,0.0378683,0.00154445,-0.843203,0.0653496,9.78692,0.332484,-0.0426418,0.831251,-0.00843371,0.000645481,0.0978691,1,3.98625e-05,-8.53637e-06,1.26416e-05,0.0079725,-0.00170727,0.00252832,0.999265,0.00570042,0.0378683,0.00154445,-0.30427,-0.0229301,-0.87838,31.125,1,1265,170693
14,2,0.999261,0.00576108,0.0379707,0.00167543,-0.843968,0.0508864,9.77898,0.336534,-0.0600723,0.822616,-0.00843952,0.000499444,0.0977899,1,4.72348e-05,8.90634e-07,1.08201e-05,0.00944696,0.000178127,0.00216403,0.999261,0.00576108,0.0379707,0.00167543,-0.304249,-0.0219816,-0.876844,31.125,1,1267,170893
14,3,0.999259,0.00581556,0.0379935,0.00177534,-0.830779,0.0564112,9.78508,0.3458,-0.0533943,0.827651,-0.0083118,0.000558624,0.0978505,1,2.70662e-05,-2.03903e-05,1.15333e-05,0.00541324,-0.00407807,0.00230666,0.999259,0.00581556,0.0379935,0.00177534,-0.304237,-0.0219907,-0.876339,31.125,1,1269,171093
14,4,0.999259,0.00585729,0.0380065,0.00185387,-0.799931,0.0660712,9.79003,0.378936,-0.0444195,0.830431,-0.00800389,0.000652174,0.0979,1,4.34963e-05,-2.33895e-05,1.32264e-06,0.00869927,-0.00467791,0.000264528,0.999259,0.00585729,0.0380065,0.00185387,-0.30374,-0.0229702,-0.876363,31.125,1,1270,171193
15,1,0.999257,0.00593801,0.0380247,0.00190582,-0.76862,0.049666,9.77543,0.408417,-0.0663097,0.808978,-0.00769112,0.000488569,0.0977539,1,4.01716e-05,-2.5088e-05,1.54527e-05,0.00803432,-0.00501759,0.00309054,0.999257,0.00593801,0.0380247,0.00190582,-0.302325,-0.0219976,-0.876853,31.125,1,1272,171393
15,2,0.999255,0.00604342,0.0380614,0.00199092,-0.771957,0.0465727,9.77712,0.406589,-0.0681503,0.810606,-0.00772463,0.000456872,0.0977709,1,4.37964e-05,-2.58105e-05,1.88687e-05,0.00875929,-0.0051621,0.00377374,0.999255,0.00604342,0.0380614,0.00199092,-0.30568,-0.0219787,-0.876332,31.125,1,1274,171593
15,3,0.99925,0.00609024,0.0381771,0.00238144,-0.775214,0.0635219,9.78678,0.406546,-0.0515307,0.826996,-0.00775364,0.000626635,0.0978677,1,4.22095e-05,-7.51415e-06,2.07908e-05,0.00844189,-0.00150283,0.00415816,0.99925,0.00609024,0.0381771,0.00238144,-0.302761,-0.0239537,-0.87639,31.125,1,1276,171793
15,4,0.999248,0.00619223,0.0382094,0.00235218,-0.811852,0.0477442,9.77502,0.365921,-0.0653076,0.81594,-0.00812101,0.000466099,0.0977501,1,5.68815e-05,-1.2694e-05,1.37127e-05,0.0113763,-0.0025388,0.00274254,0.999248,0.00619223,0.0382094,0.00235218,-0.304282,-0.0214758,-0.877843,31.125,1,1278,171993
16,1,0.999245,0.00624257,0.038275,0.00249921,-0.790046,0.0618344,9.78857,0.390184,-0.058567,0.827374,-0.00790386,0.000607219,0.0978855,1,5.60135e-05,-1.72945e-05,1.00712e-05,0.0112027,-0.00345891,0.00201423,0.999245,0.00624257,0.038275,0.00249921,-0.30524,-0.0224344,-0.878365,31.125,1,1279,172093
16,2,0.999237,0.00629246,0.0384346,0.00289573,-0.784649,0.052984,9.78201,0.404624,-0.0661022,0.823164,-0.00784856,0.000518917,0.09782,1,5.50896e-05,-1.05204e-05,9.30932e-06,0.0110179,-0.00210408,0.00186186,0.999237,0.00629246,0.0384346,0.00289573,-0.304742,-0.0205233,-0.876304,31.125,1,1281,172293
16,3,0.999231,0.00640062,0.0385454,0.0032126,-0.814667,0.0521832,9.76931,0.373409,-0.0685037,0.812698,-0.0081499,0.000510456,0.0976929,1,5.72539e-05,-1.64902e-05,1.16416e-05,0.0114508,-0.00329804,0.00232833,0.999231,0.00640062,0.0385454,0.0032126,-0.305273,-0.0219286,-0.879363,31.125,1,1283,172493
16,4,0.999218,0.00642059,0.0388386,0.00377486,-0.837041,0.0765454,9.77237,0.357841,-0.0474955,0.812988,-0.00837089,0.000754802,0.0977238,1,5.28916e-05,-2.33938e-06,1.8783e-05,0.0105783,-0.000467875,0.00375659,0.999218,0.00642059,0.0388386,0.00377486,-0.305265,-0.0209711,-0.878332,31.125,1,1285,172693
17,1,0.999207,0.00649208,0.039038,0.00448598,-0.834583,0.0665328,9.78891,0.367289,-0.0584468,0.83268,-0.00835027,0.000655047,0.0978888,1,5.19622e-05,-2.26218e-05,6.46511e-06,0.0103924,-0.00452436,0.00129302,0.999207,0.00649208,0.039038,0.00448598,-0.303739,-0.0215249,-0.875321,31.125,1,1287,172893
17,2,0.999206,0.00671487,0.0390013,0.00451459,-0.840636,0.058902,9.76512,0.376381,-0.0579091,0.800704,-0.00840839,0.000577106,0.0976511,1,6.00293e-05,-1.03191e-05,1.13585e-05,0.0120059,-0.00206383,0.0022717,0.999206,0.00671487,0.0390013,0.00451459,-0.305163,-0.023455,-0.875862,31.125,1,1289,173093
17,3,0.999206,0.0067446,0.0389988,0.00461462,-0.883021,0.0323301,9.78352,0.314478,-0.101459,0.823173,-0.00883356,0.0003138,0.0978349,1,4.77301e-05,-1.70846e-05,9.15498e-06,0.00954601,-0.00341692,0.001831,0.999206,0.0067446,0.0389988,0.00461462,-0.304731,-0.0234229,-0.877884,31.125,1,1290,173193
17,4,0.999202,0.00676118,0.0390963,0.00467916,-0.860602,0.0821024,9.77803,0.343318,-0.0577653,0.825045,-0.00861026,0.000811527,0.09778,1,4.68905e-05,-2.14929e-05,1.89875e-05,0.00937809,-0.00429857,0.0037975,0.999202,0.00676118,0.0390963,0.00467916,-0.303288,-0.0234349,-0.877891,31.125,1,1292,173393
18,1,0.999196,0.00684612,0.039218,0.00472582,-0.856643,0.0690537,9.77279,0.351865,-0.0586531,0.816016,-0.00856799,0.000683554,0.0977278,1,3.53921e-05,-7.94983e-06,3.84448e-06,0.00707842,-0.00158997,0.000768895,0.999196,0.00684612,0.039218,0.00472582,-0.304229,-0.0224784,-0.87635,31.125,1,1294,173593
18,2,0.999193,0.00692437,0.0392654,0.00478983,-0.833977,0.0614499,9.78039,0.375731,-0.0679262,0.823282,-0.0083438,0.000606471,0.0978035,1,4.1172e-05,-2.06343e-05,-1.4973e-06,0.00823439,-0.00412686,-0.00029946,0.999193,0.00692437,0.0392654,0.00478983,-0.302782,-0.023457,-0.876884,31.125,1,1296,173793
18,3,0.999192,0.0070606,0.0392945,0.00453316,-0.828696,0.0572949,9.76808,0.377855,-0.0559989,0.806046,-0.00828912,0.000561236,0.0976807,1,5.91463e-05,-1.09712e-05,9.54622e-06,0.0118293,-0.00219424,0.00190924,0.999192,0.0070606,0.0392945,0.00453316,-0.30325,-0.0220167,-0.875334,31.125,1,1298,173993
18,4,0.999192,0.00713725,0.0392823,0.00461755,-0.820985,0.0710422,9.7634,0.381492,-0.0602618,0.808232,-0.00821226,0.000700242,0.0976339,1,5.00138e-05,-1.21575e-05,2.52446e-05,0.0100028,-0.00243149,0.00504892,0.999192,0.00713725,0.0392823,0.00461755,-0.305162,-0.0220097,-0.87482,31.125,1,1299,174093
19,1,0.99919,0.00721231,0.0392694,0.00496969,-0.795319,0.0754059,9.79754,0.414212,-0.093169,0.840088,-0.00795453,0.000745498,0.0979753,1,4.13787e-05,-6.60262e-06,2.84725e-05,0.00827573,-0.00132052,0.00569451,0.99919,0.00721231,0.0392694,0.00496969,-0.304254,-0.0224604,-0.87736,31.125,1,1301,174293
19,2,0.999182,0.00725424,0.0394261,0.00529475,-0.827945,0.0614953,9.78271,0.383368,-0.0807673,0.822952,-0.00828204,0.000604934,0.0978269,1,4.94903e-05,-1.31005e-05,2.03422e-05,0.00989806,-0.0026201,0.00406844,0.999182,0.00725424,0.0394261,0.00529475,-0.303312,-0.0219716,-0.877858,31.125,1,1303,174493
19,3,0.999176,0.00737251,0.0395477,0.00543561,-0.787618,0.0508183,9.77591,0.421943,-0.0892514,0.811516,-0.00788003,0.000501966,0.0977588,1,3.04747e-05,-1.95969e-05,1.64229e-05,0.00609494,-0.00391939,0.00328458,0.999176,0.00737251,0.0395477,0.00543561,-0.302345,-0.0215009,-0.877347,31.125,1,1305,174693
19,4,0.999175,0.00752125,0.0395913,0.00509676,-0.736437,0.0530811,9.79117,0.481491,-0.0949697,0.828677,-0.00736393,0.000519796,0.0979118,1,5.52144e-05,2.35116e-06,1.37836e-05,0.0110429,0.000470233,0.00275671,0.999175,0.00752125,0.0395913,0.00509676,-0.303789,-0.0229341,-0.878383,31.125,1,1307,174893
20,1,0.999168,0.00758094,0.0397073,0.00530588,-0.806435,0.0825296,9.77223,0.410906,-0.0629312,0.80622,-0.0080655,0.000816958,0.0977223,1,4.12278e-05,-5.72761e-06,1.73765e-05,0.00824557,-0.00114552,0.00347531,0.999168,0.00758094,0.0397073,0.00530588,-0.304225,-0.0219997,-0.875834,31.125,1,1309,175093
20,2,0.999167,0.00761324,0.0397155,0.00548571,-0.800445,0.0558695,9.77467,0.416829,-0.088999,0.815677,-0.00800621,0.000551022,0.0977466,1,3.8363e-05,-8.94461e-06,1.08389e-05,0.00767259,-0.00178892,0.00216778,0.999167,0.00761324,0.0397155,0.00548571,-0.3042,-0.0220177,-0.874825,31.125,1,1310,175193
20,3,0.999165,0.00770435,0.0396951,0.00588736,-0.776386,0.0495626,9.79176,0.439763,-0.1012,0.827839,-0.0077676,0.000485661,0.0979173,1,4.98313e-05,-1.90399e-05,1.3266e-05,0.00996626,-0.00380798,0.00265321,0.999165,0.00770435,0.0396951,0.00588736,-0.304257,-0.0214939,-0.876833,31.125,1,1312,175393
20,4,0.999158,0.00775602,0.0398047,0.00623578,-0.800704,0.0566594,9.77299,0.421888,-0.0976537,0.809023,-0.00800996,0.00055632,0.0977297,1,5.02226e-05,-1.47578e-05,2.85691e-05,0.0100445,-0.00295156,0.00571382,0.999158,0.00775602,0.0398047,0.00623578,-0.302863,-0.0214698,-0.878859,31.125,1,1314,175593
21,1,0.999149,0.00781926,0.0399903,0.00641227,-0.801153,0.0492693,9.78515,0.426894,-0.103784,0.820974,-0.00801441,0.000484641,0.0978513,1,4.00602e-05,-1.46773e-05,1.32393e-05,0.00801204,-0.00293545,0.00264785,0.999149,0.00781926,0.0399903,0.00641227,-0.304241,-0.0224694,-0.876855,31.125,1,1316,175793
21,2,0.999146,0.00788004,0.0400142,0.00665298,-0.812452,0.0490687,9.78251,0.411169,-0.109075,0.822004,-0.0081272,0.00048059,0.0978249,1,5.0081e-05,-1.3584e-05,1.83786e-05,0.0100162,-0.00271681,0.00367572,0.999146,0.00788004,0.0400142,0.00665298,-0.303752,-0.0215159,-0.875826,31.125,1,1318,175993
21,3,0.999144,0.00792105,0.0400337,0.00675521,-0.819164,0.0605264,9.78094,0.410202,-0.0954317,0.819543,-0.00819237,0.000597341,0.0978094,1,3.90876e-05,-3.636e-06,1.68477e-05,0.00781751,-0.000727201,0.00336954,0.999144,0.00792105,0.0400337,0.00675521,-0.303793,-0.0219676,-0.877856,31.125,1,1319,176093
21,4,0.999139,0.00794515,0.0401174,0.00692433,-0.832071,0.0576656,9.78236,0.400117,-0.0948916,0.823232,-0.00832164,0.000568268,0.0978236,1,4.22466e-05,-4.70918e-06,7.36135e-06,0.00844932,-0.000941836,0.00147227,0.999139,0.00794515,0.0401174,0.00692433,-0.305207,-0.0214949,-0.876324,31.125,1,1321,176293
22,1,0.999136,0.00801705,0.0401395,0.0071602,-0.832343,0.0578575,9.7827,0.390877,-0.0995295,0.819945,-0.00832459,0.000567549,0.097827,1,5.49238e-05,-5.86536e-06,1.6788e-05,0.0109848,-0.00117307,0.00335759,0.999136,0.00801705,0.0401395,0.0071602,-0.302769,-0.023466,-0.876379,31.125,1,1323,176493
22,2,0.999138,0.00809785,0.0401277,0.00688474,-0.824265,0.074167,9.77974,0.403994,-0.0834771,0.81802,-0.008245,0.000733042,0.0977973,1,4.33456e-05,-1.19713e-05,9.08776e-06,0.00866912,-0.00239426,0.00181755,0.999138,0.00809785,0.0401277,0.00688474,-0.303801,-0.0229251,-0.878887,31.125,1,1325,176693
22,3,0.999134,0.00812577,0.0402221,0.0069229,-0.840601,0.0453344,9.77551,0.388805,-0.114371,0.819832,-0.00840648,0.000443074,0.0977551,1,5.10065e-05,-2.35091e-06,1.77309e-05,0.0102013,-0.000470181,0.00354619,0.999134,0.00812577,0.0402221,0.0069229,-0.304747,-0.0224474,-0.877862,31.125,1,1327,176893
22,4,0.999132,0.00816823,0.0402353,0.00710959,-0.849053,0.0734938,9.76295,0.378867,-0.0889327,0.807047,-0.00849577,0.000724089,0.0976291,1,5.43386e-05,-2.67483e-05,1.40311e-05,0.0108677,-0.00534965,0.00280621,0.999132,0.00816823,0.0402353,0.00710959,-0.304229,-0.0224784,-0.87635,31.125,1,1329,177093
23,1,0.999131,0.00820077,0.0402248,0.00717358,-0.836697,0.0628842,9.77872,0.390156,-0.0969812,0.819714,-0.0083714,0.000618342,0.0977869,1,5.28563e-05,-2.25528e-05,9.73987e-06,0.0105713,-0.00451055,0.00194797,0.999131,0.00820077,0.0402248,0.00717358,-0.304217,-0.0224874,-0.875845,31.125,1,1330,177193
23,2,0.99913,0.00823662,0.0402263,0.00735732,-0.830624,0.0491738,9.78332,0.400756,-0.116643,0.82485,-0.00831181,0.000481982,0.0978328,1,4.86653e-05,-2.84018e-05,1.40328e-05,0.00973306,-0.00568036,0.00280657,0.99913,0.00823662,0.0402263,0.00735732,-0.304294,-0.0214668,-0.878348,31.125,1,1332,177393
23,3,0.999127,0.00826209,0.0402525,0.00750888,-0.823113,0.067874,9.76782,0.4088,-0.0943797,0.80829,-0.00823716,0.000667074,0.0976777,1,5.88354e-05,-3.0825e-05,1.04735e-05,0.0117671,-0.00616499,0.0020947,0.999127,0.00826209,0.0402525,0.00750888,-0.302752,-0.0215509,-0.874316,31.125,1,1334,177593
23,4,0.999128,0.00837297,0.0402157,0.00752817,-0.826677,0.0550227,9.77212,0.401533,-0.112279,0.81011,-0.00826756,0.000542397,0.0977212,1,3.88343e-05,-3.95433e-06,1.45753e-05,0.00776685,-0.000790867,0.00291506,0.999128,0.00837297,0.0402157,0.00752817,-0.303809,-0.0209921,-0.877834,31.125,1,1336,177793
24,1,0.999124,0.00839311,0.0402717,0.00769238,-0.828293,0.0597824,9.77524,0.404682,-0.103902,0.814239,-0.00828568,0.000588383,0.0977522,1,4.75645e-05,-1.40426e-05,8.57572e-06,0.0095129,-0.00280851,0.00171514,0.999124,0.00839311,0.0402717,0.00769238,-0.304274,-0.0234089,-0.878896,31.125,1,1338,177993
24,2,0.999123,0.00837995,0.0402914,0.007714,-0.810583,0.0519261,9.78183,0.421203,-0.1113,0.817541,-0.00810743,0.000512399,0.0978182,1,3.40696e-05,-8.08742e-06,1.21781e-05,0.00681391,-0.00161748,0.00243562,0.999123,0.00837995,0.0402914,0.007714,-0.304743,-0.0219686,-0.877346,31.125,1,1339,178093
24,3,0.999122,0.00843359,0.0402898,0.00777466,-0.806876,0.0614288,9.77104,0.423505,-0.0973761,0.806192,-0.00807182,0.00060455,0.0977102,1,4.95315e-05,-1.56145e-05,3.66197e-06,0.00990629,-0.00312291,0.000732395,0.999122,0.00843359,0.0402898,0.00777466,-0.304184,-0.0229932,-0.874847,31.125,1,1341,178293
24,4,0.999123,0.00846882,0.0402721,0.00773693,-0.816598,0.080139,9.77261,0.413174,-0.0846905,0.808172,-0.00816677,0.000791424,0.0977261,1,4.93416e-05,-3.91337e-06,1.97456e-05,0.00986832,-0.000782675,0.00394913,0.999123,0.00846882,0.0402721,0.00773693,-0.304776,-0.0229081,-0.879387,31.125,1,1343,178493
25,1,0.999121,0.00845514,0.0402907,0.00787804,-0.828077,0.0457048,9.77987,0.401169,-0.120296,0.819955,-0.0082851,0.000449528,0.0977983,1,3.75173e-05,-2.20966e-05,1.09264e-05,0.00750346,-0.00441932,0.00218529,0.999121,0.00845514,0.0402907,0.00787804,-0.304291,-0.0224333,-0.878874,31.125,1,1345,178693
25,2,0.999121,0.00848739,0.0402867,0.00789214,-0.790073,0.0555723,9.78377,0.440185,-0.114852,0.820654,-0.00790391,0.000546233,0.0978375,1,4.7339e-05,-1.61663e-05,1.43498e-05,0.0094678,-0.00323326,0.00286996,0.999121,0.00848739,0.0402867,0.00789214,-0.303262,-0.0220077,-0.875839,31.125,1,1347,178893
25,3,0.999121,0.00851574,0.0402815,0.00784157,-0.79908,0.0595788,9.78181,0.435676,-0.111559,0.81815,-0.00799211,0.000587162,0.0978181,1,4.32413e-05,-6.65348e-06,1.04253e-05,0.00864825,-0.0013307,0.00208506,0.999121,0.00851574,0.0402815,0.00784157,-0.30469,-0.0244165,-0.876896,31.125,1,1348,178993
25,4,0.99912,0.00854088,0.0402836,0.00793673,-0.793517,0.0484876,9.78067,0.436335,-0.116992,0.815626,-0.00793707,0.00047439,0.0978066,1,5.20199e-05,-9.6226e-06,1.95337e-05,0.010404,-0.00192452,0.00390673,0.99912,0.00854088,0.0402836,0.00793673,-0.305241,-0.0238796,-0.879407,31.125,1,1350,179193
26,1,0.999118,0.00855077,0.0403017,0.00810943,-0.777354,0.0358476,9.78758,0.455069,-0.128256,0.822872,-0.00777426,0.000347538,0.0978757,1,5.45905e-05,-3.62651e-06,1.6212e-05,0.0109181,-0.000725303,0.00324241,0.999118,0.00855077,0.0403017,0.00810943,-0.304706,-0.0219957,-0.875832,31.125,1,1352,179393
26,2,0.999116,0.0086393,0.0403191,0.00817925,-0.849346,0.0609266,9.76925,0.385658,-0.110044,0.808908,-0.00849199,0.000596281,0.0976927,1,6.51627e-05,7.60294e-06,1.48962e-05,0.0130325,0.00152059,0.00297923,0.999116,0.0086393,0.0403191,0.00817925,-0.30568,-0.0219787,-0.876332,31.125,1,1354,179593
26,3,0.999114,0.00866932,0.0403346,0.0083573,-0.81125,0.0672239,9.79927,0.420698,-0.103365,0.836922,-0.00811326,0.000664217,0.0979927,1,4.04399e-05,-3.83352e-06,5.9549e-06,0.00808797,-0.000766704,0.00119098,0.999114,0.00866932,0.0403346,0.0083573,-0.303197,-0.0244645,-0.874884,31.125,1,1356,179793
26,4,0.999116,0.00871723,0.0403137,0.00812131,-0.803632,0.0408335,9.77627,0.431482,-0.131327,0.814426,-0.00803872,0.000399885,0.0977625,1,4.29656e-05,-1.23065e-05,3.06397e-06,0.00859313,-0.00246131,0.000612794,0.999116,0.00871723,0.0403137,0.00812131,-0.303283,-0.0215109,-0.876333,31.125,1,1358,179993
27,1,0.999116,0.00873977,0.040323,0.0080924,-0.833435,0.0711948,9.7628,0.398975,-0.102082,0.801225,-0.00833364,0.000702617,0.0976281,1,4.62326e-05,3.78112e-06,1.82709e-05,0.00924652,0.000756223,0.00365419,0.999116,0.00873977,0.040323,0.0080924,-0.302773,-0.0224994,-0.875852,31.125,1,1359,180093
27,2,0.999117,0.00876887,0.0403099,0.00801964,-0.8381,0.0562153,9.78172,0.388597,-0.119504,0.820713,-0.00838272,0.000553306,0.0978171,1,4.29266e-05,-8.62412e-06,2.67829e-05,0.00858532,-0.00172482,0.00535657,0.999117,0.00876887,0.0403099,0.00801964,-0.303336,-0.0219536,-0.878868,31.125,1,1361,180293
27,3,0.999116,0.00875999,0.0403185,0.00805225,-0.828964,0.064537,9.79869,0.403195,-0.111775,0.835167,-0.00829029,0.000638549,0.0979868,1,3.34828e-05,-3.23388e-06,1.56333e-05,0.00669657,-0.000646777,0.00312665,0.999116,0.00875999,0.0403185,0.00805225,-0.303328,-0.0224413,-0.878879,31.125,1,1362,180393
27,4,0.999116,0.00875999,0.0403185,0.00805225,-0.828964,0.064537,9.79869,0.403195,-0.111775,0.835167,-0.00829029,0.000638549,0.0979868,1,3.34828e-05,-3.23388e-06,1.56333e-05,0.00669657,-0.000646777,0.00312665,0.999116,0.00875999,0.0403185,0.00805225,-0.303328,-0.0224413,-0.878879,31.125,1,1362,180393
28,1,0.999115,0.00876261,0.0403272,0.00815964,-0.812062,0.0592364,9.77443,0.423496,-0.111255,0.812905,-0.00812078,0.000584068,0.0977444,1,3.98048e-05,-6.05535e-07,3.16519e-05,0.00796096,-0.000121107,0.00633038,0.999115,0.00876261,0.0403272,0.00815964,-0.303744,-0.0220037,-0.875837,31.125,1,1364,180593
28,2,0.999115,0.00878762,0.0403217,0.00813797,-0.846982,0.0600318,9.77502,0.382416,-0.111382,0.817645,-0.00847155,0.0005909,0.0977501,1,4.76558e-05,-8.81404e-06,5.93601e-06,0.00953116,-0.00176281,0.0011872,0.999115,0.00878762,0.0403217,0.00813797,-0.3042,-0.0220177,-0.874825,31.125,1,1365,180693
28,3,0.999115,0.00880498,0.0403198,0.00813076,-0.832982,0.0510813,9.77689,0.395122,-0.122321,0.818397,-0.00833031,0.000503786,0.0977689,1,3.46286e-05,-2.41781e-06,1.53274e-05,0.00692572,-0.000483563,0.00306549,0.999115,0.00880498,0.0403198,0.00813076,-0.304742,-0.0205233,-0.876304,31.125,1,1366,180793
28,4,0.999115,0.00880498,0.0403198,0.00813076,-0.832982,0.0510813,9.77689,0.395122,-0.122321,0.818397,-0.00833031,0.000503786,0.0977689,1,3.46286e-05,-2.41781e-06,1.53274e-05,0.00692572,-0.000483563,0.00306549,0.999115,0.00880498,0.0403198,0.00813076,-0.304742,-0.0205233,-0.876304,31.125,1,1366,180793
29,1,0.999113,0.00882861,0.0403274,0.00834341,-0.804173,0.069505,9.78025,0.43027,-0.102756,0.820329,-0.00804425,0.000685941,0.0978023,1,4.64004e-05,-1.28521e-05,2.04328e-06,0.00928008,-0.00257043,0.000408656,0.999113,0.00882861,0.0403274,0.00834341,-0.304294,-0.0214668,-0.878348,31.125,1,1368,180993
29,2,0.999112,0.00883979,0.0403246,0.00839852,-0.831579,0.0461502,9.76971,0.403603,-0.12894,0.81232,-0.00831881,0.000451254,0.0976969,1,5.15095e-05,-1.54193e-05,1.10248e-05,0.0103019,-0.00308386,0.00220496,0.999112,0.00883979,0.0403246,0.00839852,-0.304282,-0.0214758,-0.877843,31.125,1,1369,181093
29,3,0.999112,0.00883979,0.0403246,0.00839852,-0.831579,0.0461502,9.76971,0.403603,-0.12894,0.81232,-0.00831881,0.000451254,0.0976969,1,5.15095e-05,-1.54193e-05,1.10248e-05,0.0103019,-0.00308386,0.00220496,0.999112,0.00883979,0.0403246,0.00839852,-0.304282,-0.0214758,-0.877843,31.125,1,1369,181093
29,4,0.999112,0.00883979,0.0403246,0.00839852,-0.831579,0.0461502,9.76971,0.403603,-0.12894,0.81232,-0.00831881,0.000451254,0.0976969,1,5.15095e-05,-1.54193e-05,1.10248e-05,0.0103019,-0.00308386,0.00220496,0.999112,0.00883979,0.0403246,0.00839852,-0.304282,-0.0214758,-0.877843,31.125,1,1369,181093
30,1,0.999111,0.00884916,0.0403456,0.00839422,-0.851221,0.0600482,9.77979,0.378828,-0.119717,0.816302,-0.0085116,0.00059375,0.097798,1,3.34475e-05,3.17756e-06,1.11369e-05,0.0066895,0.000635511,0.00222738,0.999111,0.00884916,0.0403456,0.00839422,-0.304212,-0.0220087,-0.87533,31.125,3,1371,181293
30,2,0.999111,0.00887611,0.040347,0.00838039,-0.811625,0.0626086,9.78871,0.413515,-0.113104,0.826935,-0.00811675,0.00061678,0.0978871,1,4.59887e-05,-2.4459e-06,1.86245e-05,0.00919775,-0.000489179,0.0037249,0.999111,0.00887611,0.040347,0.00838039,-0.305232,-0.0200316,-0.876291,31.125,3,1372,181393
30,3,0.999111,0.00887611,0.040347,0.00838039,-0.811625,0.0626086,9.78871,0.413515,-0.113104,0.826935,-0.00811675,0.00061678,0.0978871,1,4.59887e-05,-2.4459e-06,1.86245e-05,0.00919775,-0.000489179,0.0037249,0.999111,0.00887611,0.040347,0.00838039,-0.305232,-0.0200316,-0.876291,31.125,3,1372,181393
30,4,0.999111,0.00887611,0.040347,0.00838039,-0.811625,0.0626086,9.78871,0.413515,-0.113104,0.826935,-0.00811675,0.00061678,0.0978871,1,4.59887e-05,-2.4459e-06,1.86245e-05,0.00919775,-0.000489179,0.0037249,0.999111,0.00887611,0.040347,0.00838039,-0.305232,-0.0200316,-0.876291,31.125,3,1372,181393
31,1,0.999109,0.00889726,0.0403656,0.00856436,-0.788084,0.0725878,9.76862,0.446662,-0.100643,0.806281,-0.00788089,0.000716876,0.0976862,1,4.45712e-05,-1.22687e-07,1.86321e-05,0.00891425,-2.45374e-05,0.00372641,0.999109,0.00889726,0.0403656,0.00856436,-0.304283,-0.0229211,-0.878885,31.125,3,1374,181593
31,2,0.999108,0.00890054,0.040366,0.00859424,-0.81002,0.0642034,9.76429,0.419634,-0.103227,0.796678,-0.00810247,0.000632707,0.0976428,1,4.70859e-05,-1.15779e-05,8.18444e-06,0.00941718,-0.00231558,0.00163689,0.999108,0.00890054,0.040366,0.00859424,-0.304751,-0.0229261,-0.878378,31.125,3,1375,181693
31,3,0.999108,0.00889112,0.0403609,0.00864762,-0.812301,0.034855,9.78102,0.422791,-0.131613,0.820125,-0.00812615,0.000342244,0.09781,1,3.11267e-05,-1.59871e-05,1.33533e-05,0.00622533,-0.00319742,0.00267065,0.999108,0.00889112,0.0403609,0.00864762,-0.303242,-0.0239497,-0.876387,31.125,3,1376,181793
31,4,0.999108,0.00889112,0.0403609,0.00864762,-0.812301,0.034855,9.78102,0.422791,-0.131613,0.820125,-0.00812615,0.000342244,0.09781,1,3.11267e-05,-1.59871e-05,1.33533e-05,0.00622533,-0.00319742,0.00267065,0.999108,0.00889112,0.0403609,0.00864762,-0.303242,-0.0239497,-0.876387,31.125,3,1376,181793
32,1,0.99911,0.00894513,0.0403489,0.00847525,-0.823144,0.0530887,9.78667,0.41469,-0.130196,0.824614,-0.00823215,0.000518657,0.0978667,1,6.15455e-05,-3.59486e-06,1.11554e-05,0.0123091,-0.000718973,0.00223108,0.99911,0.00894513,0.0403489,0.00847525,-0.304702,-0.0229622,-0.876359,31.125,3,1378,181993
32,2,0.99911,0.00894513,0.0403489,0.00847525,-0.823144,0.0530887,9.78667,0.41469,-0.130196,0.824614,-0.00823215,0.000518657,0.0978667,1,6.15455e-05,-3.59486e-06,1.11554e-05,0.0123091,-0.000718973,0.00223108,0.99911,0.00894513,0.0403489,0.00847525,-0.304702,-0.0229622,-0.876359,31.125,3,1378,181993
32,3,0.99911,0.00897295,0.0403382,0.00848166,-0.835908,0.0831118,9.77854,0.401706,-0.0979423,0.82269,-0.00836242,0.000820159,0.0977852,1,5.51809e-05,-1.70149e-05,1.00063e-05,0.0110362,-0.00340298,0.00200126,0.99911,0.00897295,0.0403382,0.00848166,-0.303312,-0.0219716,-0.877858,31.125,3,1379,182093
32,4,0.99911,0.00897295,0.0403382,0.00848166,-0.835908,0.0831118,9.77854,0.401706,-0.0979423,0.82269,-0.00836242,0.000820159,0.0977852,1,5.51809e-05,-1.70149e-05,1.00063e-05,0.0110362,-0.00340298,0.00200126,0.99911,0.00897295,0.0403382,0.00848166,-0.303312,-0.0219716,-0.877858,31.125,3,1379,182093
33,1,0.999111,0.00901739,0.0403164,0.00835667,-0.810917,0.0653445,9.78127,0.419869,-0.112948,0.82011,-0.00811265,0.000643927,0.0978125,1,4.71753e-05,-1.76652e-05,1.78571e-05,0.00943506,-0.00353303,0.00357143,0.999111,0.00901739,0.0403164,0.00835667,-0.304661,-0.0239558,-0.875371,31.125,3,1381,182293
33,2,0.999112,0.0090277,0.040305,0.00834123,-0.782657,0.0569573,9.77287,0.450206,-0.12001,0.80599,-0.00782978,0.000563021,0.0977285,1,3.20486e-05,-1.63303e-05,1.84028e-05,0.00640972,-0.00326605,0.00368056,0.999112,0.0090277,0.040305,0.00834123,-0.305105,-0.0239788,-0.873854,31.125,3,1382,182393
33,3,0.999112,0.0090277,0.040305,0.00834123,-0.782657,0.0569573,9.77287,0.450206,-0.12001,0.80599,-0.00782978,0.000563021,0.0977285,1,3.20486e-05,-1.63303e-05,1.84028e-05,0.00640972,-0.00326605,0.00368056,0.999112,0.0090277,0.040305,0.00834123,-0.305105,-0.0239788,-0.873854,31.125,3,1382,182393
33,4,0.999112,0.0090277,0.040305,0.00834123,-0.782657,0.0569573,9.77287,0.450206,-0.12001,0.80599,-0.00782978,0.000563021,0.0977285,1,3.20486e-05,-1.63303e-05,1.84028e-05,0.00640972,-0.00326605,0.00368056,0.999112,0.0090277,0.040305,0.00834123,-0.305105,-0.0239788,-0.873854,31.125,3,1382,182393
34,1,0.999112,0.00908549,0.0403004,0.00824353,-0.817788,0.0556292,9.76902,0.413465,-0.127906,0.805038,-0.00817906,0.000546353,0.0976901,1,5.00884e-05,-6.00702e-06,9.28709e-06,0.0100177,-0.0012014,0.00185742,0.999112,0.00908549,0.0403004,0.00824353,-0.30325,-0.023462,-0.876376,31.125,3,1384,182593
34,2,0.999112,0.00911325,0.0402971,0.00821796,-0.838912,0.0463471,9.80097,0.39716,-0.134227,0.836714,-0.00839083,0.000451838,0.0980096,1,5.78482e-05,-8.63472e-06,1.75015e-05,0.0115696,-0.00172694,0.0035003,0.999112,0.00911325,0.0402971,0.00821796,-0.3033,-0.0234259,-0.878396,31.125,3,1385,182693
34,3,0.999112,0.0091295,0.0402956,0.00822842,-0.83652,0.0676246,9.78451,0.398812,-0.114002,0.821012,-0.0083673,0.000664916,0.097845,1,5.70006e-05,-1.06267e-05,1.04646e-05,0.0114001,-0.00212534,0.00209292,0.999112,0.0091295,0.0402956,0.00822842,-0.303312,-0.0234169,-0.8789,31.125,3,1386,182793
34,4,0.999112,0.0091295,0.0402956,0.00822842,-0.83652,0.0676246,9.78451,0.398812,-0.114002,0.821012,-0.0083673,0.000664916,0.097845,1,5.70006e-05,-1.06267e-05,1.04646e-05,0.0114001,-0.00212534,0.00209292,0.999112,0.0091295,0.0402956,0.00822842,-0.303312,-0.0234169,-0.8789,31.125,3,1386,182793
35,1,0.999112,0.00914177,0.0402975,0.00826621,-0.825678,0.0587757,9.76604,0.402899,-0.123707,0.8054,-0.008258,0.000579895,0.0976604,1,3.83389e-05,-6.13549e-06,2.26386e-05,0.00766777,-0.0012271,0.00452771,0.999112,0.00914177,0.0402975,0.00826621,-0.304653,-0.0229983,-0.874339,31.125,3,1388,182993
35,2,0.999112,0.00917786,0.0402807,0.00824732,-0.841025,0.0466915,9.77996,0.388815,-0.138496,0.82063,-0.00841389,0.000456306,0.0977993,1,5.25769e-05,-1.85164e-05,1.93249e-05,0.0105154,-0.00370329,0.00386499,0.999112,0.00917786,0.0402807,0.00824732,-0.304216,-0.0210422,-0.874803,31.125,3,1389,183093
35,3,0.999112,0.00917786,0.0402807,0.00824732,-0.841025,0.0466915,9.77996,0.388815,-0.138496,0.82063,-0.00841389,0.000456306,0.0977993,1,5.25769e-05,-1.85164e-05,1.93249e-05,0.0105154,-0.00370329,0.00386499,0.999112,0.00917786,0.0402807,0.00824732,-0.304216,-0.0210422,-0.874803,31.125,3,1389,183093
35,4,0.999112,0.00917786,0.0402807,0.00824732,-0.841025,0.0466915,9.77996,0.388815,-0.138496,0.82063,-0.00841389,0.000456306,0.0977993,1,5.25769e-05,-1.85164e-05,1.93249e-05,0.0105154,-0.00370329,0.00386499,0.999112,0.00917786,0.0402807,0.00824732,-0.304216,-0.0210422,-0.874803,31.125,3,1389,183093
36,1,0.999113,0.00922083,0.0402531,0.00823539,-0.822747,0.0578839,9.77892,0.406518,-0.125503,0.81764,-0.00823107,0.000567315,0.097789,1,5.75894e-05,-1.83206e-05,1.57952e-05,0.0115179,-0.00366413,0.00315904,0.999113,0.00922083,0.0402531,0.00823539,-0.303279,-0.0239227,-0.877902,31.125,3,1391,183293
36,2,0.999114,0.00922852,0.0402415,0.00823255,-0.825782,0.0571128,9.77486,0.405271,-0.127129,0.811237,-0.00826186,0.000561921,0.0977483,1,4.62366e-05,-2.06212e-05,1.01811e-05,0.00924731,-0.00412424,0.00203622,0.999114,0.00922852,0.0402415,0.00823255,-0.303805,-0.0219586,-0.878361,31.125,3,1392,183393
36,3,0.999114,0.00922852,0.0402415,0.00823255,-0.825782,0.0571128,9.77486,0.405271,-0.127129,0.811237,-0.00826186,0.000561921,0.0977483,1,4.62366e-05,-2.06212e-05,1.01811e-05,0.00924731,-0.00412424,0.00203622,0.999114,0.00922852,0.0402415,0.00823255,-0.303805,-0.0219586,-0.878361,31.125,3,1392,183393
36,4,0.999114,0.00922852,0.0402415,0.00823255,-0.825782,0.0571128,9.77486,0.405271,-0.127129,0.811237,-0.00826186,0.000561921,0.0977483,1,4.62366e-05,-2.06212e-05,1.01811e-05,0.00924731,-0.00412424,0.00203622,0.999114,0.00922852,0.0402415,0.00823255,-0.303805,-0.0219586,-0.878361,31.125,3,1392,183393
37,1,0.999113,0.00924546,0.0402177,0.0083585,-0.828774,0.0684238,9.7631,0.398594,-0.114102,0.79939,-0.00829087,0.000676116,0.0976308,1,4.04734e-05,-1.59163e-05,1.3251e-05,0.00809468,-0.00318325,0.00265019,0.999113,0.00924546,0.0402177,0.0083585,-0.304665,-0.0229892,-0.874844,31.125,3,1394,183593
37,2,0.999114,0.00927404,0.0401962,0.0083396,-0.813094,0.0540594,9.77985,0.416965,-0.132566,0.815845,-0.00813583,0.000531067,0.0977981,1,4.78384e-05,-2.49744e-05,1.04567e-05,0.00956767,-0.00499487,0.00209133,0.999114,0.00927404,0.0401962,0.0083396,-0.305648,-0.0224845,-0.875334,31.125,3,1395,183693
37,3,0.999113,0.00929627,0.0401985,0.00838196,-0.823955,0.0556806,9.78228,0.407412,-0.1253,0.815016,-0.00823985,0.000547729,0.0978229,1,4.53441e-05,-1.44353e-06,1.2441e-05,0.00906883,-0.000288706,0.00248819,0.999113,0.00929627,0.0401985,0.00838196,-0.304192,-0.0225055,-0.874836,31.125,3,1396,183793
37,4,0.999113,0.00929627,0.0401985,0.00838196,-0.823955,0.0556806,9.78228,0.407412,-0.1253,0.815016,-0.00823985,0.000547729,0.0978229,1,4.53441e-05,-1.44353e-06,1.2441e-05,0.00906883,-0.000288706,0.00248819,0.999113,0.00929627,0.0401985,0.00838196,-0.304192,-0.0225055,-0.874836,31.125,3,1396,183793
38,1,0.999114,0.00934331,0.040177,0.00831989,-0.817044,0.0687942,9.77321,0.413876,-0.122276,0.814499,-0.0081743,0.000679479,0.0977318,1,4.13415e-05,-1.95949e-05,2.34171e-05,0.0082683,-0.00391899,0.00468342,0.999114,0.00934331,0.040177,0.00831989,-0.301823,-0.0224984,-0.876362,31.125,3,1398,183993
38,2,0.999114,0.00934331,0.040177,0.00831989,-0.817044,0.0687942,9.77321,0.413876,-0.122276,0.814499,-0.0081743,0.000679479,0.0977318,1,4.13415e-05,-1.95949e-05,2.34171e-05,0.0082683,-0.00391899,0.00468342,0.999114,0.00934331,0.040177,0.00831989,-0.301823,-0.0224984,-0.876362,31.125,3,1398,183993
38,3,0.999115,0.00936953,0.0401605,0.00824941,-0.808129,0.0593707,9.77951,0.421698,-0.124885,0.816681,-0.00808507,0.000582396,0.0977948,1,5.63021e-05,-1.92265e-05,1.8483e-05,0.0112604,-0.0038453,0.00369661,0.999115,0.00936953,0.0401605,0.00824941,-0.301823,-0.0224984,-0.876362,31.125,3,1399,184093
38,4,0.999115,0.00936953,0.0401605,0.00824941,-0.808129,0.0593707,9.77951,0.421698,-0.124885,0.816681,-0.00808507,0.000582396,0.0977948,1,5.63021e-05,-1.92265e-05,1.8483e-05,0.0112604,-0.0038453,0.00369661,0.999115,0.00936953,0.0401605,0.00824941,-0.301823,-0.0224984,-0.876362,31.125,3,1399,184093
39,1,0.999117,0.00940225,0.0401321,0.008147,-0.804734,0.068102,9.78567,0.426181,-0.120114,0.825754,-0.00805128,0.000672152,0.0978565,1,4.43142e-05,-2.00085e-05,1.21388e-05,0.00886285,-0.0040017,0.00242775,0.999117,0.00940225,0.0401321,0.008147,-0.303682,-0.023494,-0.874355,31.125,3,1401,184293
39,2,0.999118,0.00941141,0.040116,0.00809269,-0.812908,0.0540462,9.77136,0.414457,-0.131995,0.805435,-0.0081328,0.000534452,0.0977133,1,2.98079e-05,-1.89655e-05,1.13753e-05,0.00596157,-0.0037931,0.00227506,0.999118,0.00941141,0.040116,0.00809269,-0.302724,-0.0225355,-0.873833,31.125,3,1402,184393
39,3,0.999118,0.00941141,0.040116,0.00809269,-0.812908,0.0540462,9.77136,0.414457,-0.131995,0.805435,-0.0081328,0.000534452,0.0977133,1,2.98079e-05,-1.89655e-05,1.13753e-05,0.00596157,-0.0037931,0.00227506,0.999118,0.00941141,0.040116,0.00809269,-0.302724,-0.0225355,-0.873833,31.125,3,1402,184393
39,4,0.999118,0.00941141,0.040116,0.00809269,-0.812908,0.0540462,9.77136,0.414457,-0.131995,0.805435,-0.0081328,0.000534452,0.0977133,1,2.98079e-05,-1.89655e-05,1.13753e-05,0.00596157,-0.0037931,0.00227506,0.999118,0.00941141,0.040116,0.00809269,-0.302724,-0.0225355,-0.873833,31.125,3,1402,184393
40,1,0.999119,0.00945155,0.0400925,0.00804383,-0.809864,0.0561534,9.78424,0.417195,-0.131483,0.815801,-0.00810022,0.000552852,0.0978423,1,4.37592e-05,-8.0556e-06,7.32951e-06,0.00875183,-0.00161112,0.0014659,0.999119,0.00945155,0.0400925,0.00804383,-0.303777,-0.0229431,-0.877878,31.125,3,1404,184593
40,2,0.999119,0.00945351,0.0400822,0.00808168,-0.808058,0.0502552,9.78655,0.421582,-0.139263,0.819575,-0.00808373,0.000494295,0.0978653,1,4.15705e-05,-1.60559e-05,7.447e-06,0.0083141,-0.00321119,0.0014894,0.999119,0.00945351,0.0400822,0.00808168,-0.304274,-0.0219636,-0.877854,31.125,3,1405,184693
40,3,0.999119,0.00947633,0.0400691,0.00815218,-0.811238,0.0625118,9.78057,0.417202,-0.130474,0.818711,-0.0081157,0.000612896,0.0978055,1,6.11562e-05,-1.68494e-05,1.59519e-05,0.0122312,-0.00336989,0.00319038,0.999119,0.00947633,0.0400691,0.00815218,-0.303242,-0.0225045,-0.875345,31.125,3,1406,184793
40,4,0.999119,0.00947633,0.0400691,0.00815218,-0.811238,0.0625118,9.78057,0.417202,-0.130474,0.818711,-0.0081157,0.000612896,0.0978055,1,6.11562e-05,-1.68494e-05,1.59519e-05,0.0122312,-0.00336989,0.00319038,0.999119,0.00947633,0.0400691,0.00815218,-0.303242,-0.0225045,-0.875345,31.125,3,1406,184793
41,1,0.999119,0.00951773,0.0400619,0.00810136,-0.791784,0.0764923,9.78055,0.43885,-0.110987,0.813935,-0.00791723,0.000756596,0.0978056,1,4.09075e-05,3.24286e-06,2.05524e-05,0.00818149,0.000648572,0.00411047,0.999119,0.00951773,0.0400619,0.00810136,-0.304217,-0.0224874,-0.875845,31.125,3,1408,184993
41,2,0.999119,0.00951773,0.0400619,0.00810136,-0.791784,0.0764923,9.78055,0.43885,-0.110987,0.813935,-0.00791723,0.000756596,0.0978056,1,4.09075e-05,3.24286e-06,2.05524e-05,0.00818149,0.000648572,0.00411047,0.999119,0.00951773,0.0400619,0.00810136,-0.304217,-0.0224874,-0.875845,31.125,3,1408,184993
41,3,0.999119,0.00955619,0.0400457,0.0081179,-0.797989,0.0637703,9.77404,0.428559,-0.1237,0.808741,-0.00798357,0.000624399,0.0977402,1,6.62468e-05,-1.86953e-05,2.22065e-05,0.0132494,-0.00373907,0.00444131,0.999119,0.00955619,0.0400457,0.0081179,-0.304209,-0.0229752,-0.875856,31.125,3,1409,185093
41,4,0.999119,0.00955619,0.0400457,0.0081179,-0.797989,0.0637703,9.77404,0.428559,-0.1237,0.808741,-0.00798357,0.000624399,0.0977402,1,6.62468e-05,-1.86953e-05,2.22065e-05,0.0132494,-0.00373907,0.00444131,0.999119,0.00955619,0.0400457,0.0081179,-0.304209,-0.0229752,-0.875856,31.125,3,1409,185093
42,1,0.999119,0.00958473,0.0400329,0.00815128,-0.841114,0.0768853,9.76902,0.383959,-0.116915,0.806672,-0.00841313,0.00075962,0.0976901,1,4.5916e-05,-1.00807e-05,1.55607e-05,0.0091832,-0.00201613,0.00311215,0.999119,0.00958473,0.0400329,0.00815128,-0.305248,-0.0205013,-0.877312,31.125,3,1411,185293
42,2,0.999118,0.00959281,0.0400394,0.00825792,-0.850262,0.0671372,9.77001,0.374969,-0.124123,0.810956,-0.00850154,0.000662491,0.0977003,1,4.3411e-05,5.68084e-06,2.34448e-05,0.0086822,0.00113617,0.00468897,0.999118,0.00959281,0.0400394,0.00825792,-0.30566,-0.0224754,-0.875838,31.125,3,1412,185393
42,3,0.999118,0.00959281,0.0400394,0.00825792,-0.850262,0.0671372,9.77001,0.374969,-0.124123,0.810956,-0.00850154,0.000662491,0.0977003,1,4.3411e-05,5.68084e-06,2.34448e-05,0.0086822,0.00113617,0.00468897,0.999118,0.00959281,0.0400394,0.00825792,-0.30566,-0.0224754,-0.875838,31.125,3,1412,185393
42,4,0.999118,0.00959281,0.0400394,0.00825792,-0.850262,0.0671372,9.77001,0.374969,-0.124123,0.810956,-0.00850154,0.000662491,0.0977003,1,4.3411e-05,5.68084e-06,2.34448e-05,0.0086822,0.00113617,0.00468897,0.999118,0.00959281,0.0400394,0.00825792,-0.30566,-0.0224754,-0.875838,31.125,3,1412,185393
43,1,0.999117,0.00961861,0.0400395,0.00828756,-0.828768,0.0459822,9.787,0.399352,-0.150775,0.826746,-0.00828997,0.000452213,0.0978698,1,3.86908e-05,-1.16882e-05,2.17739e-06,0.00773817,-0.00233764,0.000435478,0.999117,0.00961861,0.0400395,0.00828756,-0.302757,-0.023475,-0.875874,31.125,3,1414,185593
43,2,0.999118,0.00964062,0.0400365,0.0082111,-0.809624,0.0607218,9.77376,0.41648,-0.136276,0.81173,-0.00809786,0.000597237,0.0977375,1,5.1016e-05,-8.28128e-06,5.17782e-07,0.0102032,-0.00165626,0.000103556,0.999118,0.00964062,0.0400365,0.0082111,-0.303748,-0.0224824,-0.876352,31.125,3,1415,185693
43,3,0.999118,0.00966512,0.0400343,0.00821078,-0.802853,0.0621575,9.77948,0.419102,-0.135569,0.816365,-0.00802981,0.000610449,0.0977948,1,5.5898e-05,-6.45214e-06,1.20365e-05,0.0111796,-0.00129043,0.00240731,0.999118,0.00966512,0.0400343,0.00821078,-0.303748,-0.0224824,-0.876352,31.125,3,1416,185793
43,4,0.999118,0.00966512,0.0400343,0.00821078,-0.802853,0.0621575,9.77948,0.419102,-0.135569,0.816365,-0.00802981,0.000610449,0.0977948,1,5.5898e-05,-6.45214e-06,1.20365e-05,0.0111796,-0.00129043,0.00240731,0.999118,0.00966512,0.0400343,0.00821078,-0.303748,-0.0224824,-0.876352,31.125,3,1416,185793
44,1,0.999118,0.00967427,0.0400292,0.00816429,-0.795951,0.0531744,9.78852,0.432663,-0.137392,0.826992,-0.00795849,0.00052228,0.0978853,1,4.81848e-05,5.22651e-06,1.93318e-06,0.00963695,0.0010453,0.000386635,0.999118,0.00967427,0.0400292,0.00816429,-0.301326,-0.0220327,-0.875344,31.125,3,1418,185993
44,2,0.999119,0.00969064,0.0400313,0.00806909,-0.818071,0.0427556,9.77468,0.406505,-0.153897,0.81344,-0.00818035,0.00041883,0.0977468,1,4.2649e-05,1.95037e-06,2.37505e-05,0.0085298,0.000390074,0.0047501,0.999119,0.00969064,0.0400313,0.00806909,-0.304237,-0.0219907,-0.876339,31.125,3,1419,186093
44,3,0.999119,0.00969064,0.0400313,0.00806909,-0.818071,0.0427556,9.77468,0.406505,-0.153897,0.81344,-0.00818035,0.00041883,0.0977468,1,4.2649e-05,1.95037e-06,2.37505e-05,0.0085298,0.000390074,0.0047501,0.999119,0.00969064,0.0400313,0.00806909,-0.304237,-0.0219907,-0.876339,31.125,3,1419,186093
44,4,0.999119,0.00969064,0.0400313,0.00806909,-0.818071,0.0427556,9.77468,0.406505,-0.153897,0.81344,-0.00818035,0.00041883,0.0977468,1,4.2649e-05,1.95037e-06,2.37505e-05,0.0085298,0.000390074,0.0047501,0.999119,0.00969064,0.0400313,0.00806909,-0.304237,-0.0219907,-0.876339,31.125,3,1419,186093
45,1,0.999118,0.00972174,0.0400221,0.00819617,-0.841168,0.0579313,9.78412,0.383382,-0.134286,0.824077,-0.00841315,0.000569534,0.0978412,1,4.84213e-05,-7.41909e-06,1.80303e-05,0.00968427,-0.00148382,0.00360606,0.999118,0.00972174,0.0400221,0.00819617,-0.304796,-0.020966,-0.878839,31.125,3,1421,186293
45,2,0.999117,0.00972994,0.0400176,0.00833553,-0.840778,0.0544764,9.78375,0.38789,-0.139492,0.822484,-0.00840958,0.000534144,0.0978374,1,5.24522e-05,-9.09708e-06,2.11874e-05,0.0104904,-0.00181942,0.00423748,0.999117,0.00972994,0.0400176,0.00833553,-0.304311,-0.0219366,-0.879368,31.125,3,1422,186393
45,3,0.999117,0.00972994,0.0400176,0.00833553,-0.840778,0.0544764,9.78375,0.38789,-0.139492,0.822484,-0.00840958,0.000534144,0.0978374,1,5.24522e-05,-9.09708e-06,2.11874e-05,0.0104904,-0.00181942,0.00423748,0.999117,0.00972994,0.0400176,0.00833553,-0.304311,-0.0219366,-0.879368,31.125,3,1422,186393
45,4,0.999117,0.00972994,0.0400176,0.00833553,-0.840778,0.0544764,9.78375,0.38789,-0.139492,0.822484,-0.00840958,0.000534144,0.0978374,1,5.24522e-05,-9.09708e-06,2.11874e-05,0.0104904,-0.00181942,0.00423748,0.999117,0.00972994,0.0400176,0.00833553,-0.304311,-0.0219366,-0.879368,31.125,3,1422,186393
46,1,0.999115,0.00971059,0.0400151,0.00853818,-0.811267,0.0601573,9.78055,0.417258,-0.132803,0.815418,-0.00811522,0.000594051,0.0978054,1,3.78936e-05,-1.30069e-05,6.73356e-06,0.00757872,-0.00260138,0.00134671,0.999115,0.00971059,0.0400151,0.00853818,-0.303226,-0.0249253,-0.876409,31.125,3,1424,186593
46,2,0.999116,0.00970974,0.0400175,0.00845615,-0.80731,0.0697185,9.7823,0.427437,-0.123363,0.820028,-0.00807419,0.000691906,0.0978229,1,2.63751e-05,-5.50394e-06,7.37986e-06,0.00527502,-0.00110079,0.00147597,0.999116,0.00970974,0.0400175,0.00845615,-0.303267,-0.0224864,-0.876355,31.125,3,1425,186693
46,3,0.999117,0.00972266,0.0400086,0.00840924,-0.81088,0.0564829,9.77204,0.417631,-0.134423,0.805761,-0.00811152,0.000556776,0.0977202,1,4.04902e-05,-1.38861e-05,8.60709e-06,0.00809804,-0.00277722,0.00172142,0.999117,0.00972266,0.0400086,0.00840924,-0.304217,-0.0224874,-0.875845,31.125,3,1426,186793
46,4,0.999117,0.00972266,0.0400086,0.00840924,-0.81088,0.0564829,9.77204,0.417631,-0.134423,0.805761,-0.00811152,0.000556776,0.0977202,1,4.04902e-05,-1.38861e-05,8.60709e-06,0.00809804,-0.00277722,0.00172142,0.999117,0.00972266,0.0400086,0.00840924,-0.304217,-0.0224874,-0.875845,31.125,3,1426,186793
47,1,0.999116,0.00974074,0.04,0.00851556,-0.80253,0.0670409,9.78564,0.422806,-0.127332,0.82421,-0.00802692,0.000661725,0.0978563,1,4.43738e-05,-8.26441e-06,-4.26655e-08,0.00887477,-0.00165288,-8.53311e-06,0.999116,0.00974074,0.04,0.00851556,-0.307153,-0.0224274,-0.877851,31.125,3,1428,186993
47,2,0.999116,0.00974074,0.04,0.00851556,-0.80253,0.0670409,9.78564,0.422806,-0.127332,0.82421,-0.00802692,0.000661725,0.0978563,1,4.43738e-05,-8.26441e-06,-4.26655e-08,0.00887477,-0.00165288,-8.53311e-06,0.999116,0.00974074,0.04,0.00851556,-0.307153,-0.0224274,-0.877851,31.125,3,1428,186993
47,3,0.999114,0.00974088,0.040005,0.00876488,-0.826236,0.0477818,9.76969,0.400928,-0.142533,0.810492,-0.00826348,0.000469384,0.0976968,1,4.14923e-05,-5.61606e-06,1.97756e-05,0.00829846,-0.00112321,0.00395512,0.999114,0.00974088,0.040005,0.00876488,-0.305714,-0.0229181,-0.878373,31.125,3,1429,187093
47,4,0.999114,0.00974088,0.040005,0.00876488,-0.826236,0.0477818,9.76969,0.400928,-0.142533,0.810492,-0.00826348,0.000469384,0.0976968,1,4.14923e-05,-5.61606e-06,1.97756e-05,0.00829846,-0.00112321,0.00395512,0.999114,0.00974088,0.040005,0.00876488,-0.305714,-0.0229181,-0.878373,31.125,3,1429,187093
48,1,0.999112,0.00977403,0.040011,0.00883964,-0.838156,0.0914716,9.77488,0.386156,-0.103697,0.816171,-0.00838234,0.000901959,0.0977489,1,6.40862e-05,-3.90595e-06,1.35917e-05,0.0128172,-0.000781189,0.00271835,0.999112,0.00977403,0.040011,0.00883964,-0.303217,-0.0225225,-0.874335,31.125,3,1431,187293
48,2,0.999114,0.00979894,0.0399966,0.0086714,-0.837815,0.0641227,9.77331,0.387512,-0.134107,0.813507,-0.00838162,0.000634282,0.0977328,1,3.5029e-05,-1.7695e-05,5.90284e-06,0.00700579,-0.003539,0.00118057,0.999114,0.00979894,0.0399966,0.0086714,-0.303744,-0.0220037,-0.875837,31.125,3,1432,187393
48,3,0.999114,0.00979894,0.0399966,0.0086714,-0.837815,0.0641227,9.77331,0.387512,-0.134107,0.813507,-0.00838162,0.000634282,0.0977328,1,3.5029e-05,-1.7695e-05,5.90284e-06,0.00700579,-0.003539,0.00118057,0.999114,0.00979894,0.0399966,0.0086714,-0.303744,-0.0220037,-0.875837,31.125,3,1432,187393
48,4,0.999114,0.00979894,0.0399966,0.0086714,-0.837815,0.0641227,9.77331,0.387512,-0.134107,0.813507,-0.00838162,0.000634282,0.0977328,1,3.5029e-05,-1.7695e-05,5.90284e-06,0.00700579,-0.003539,0.00118057,0.999114,0.00979894,0.0399966,0.0086714,-0.303744,-0.0220037,-0.875837,31.125,3,1432,187393
49,1,0.999115,0.00983534,0.0399879,0.00862163,-0.829104,0.0758463,9.77436,0.391442,-0.125729,0.815641,-0.0082934,0.0007497,0.0977435,1,4.34537e-05,-1.19544e-05,1.61994e-05,0.00869074,-0.00239089,0.00323987,0.999115,0.00983534,0.0399879,0.00862163,-0.302325,-0.0219976,-0.876853,31.125,3,1434,187593
49,2,0.999116,0.00984067,0.0399777,0.00853272,-0.79763,0.0484212,9.7739,0.426813,-0.145197,0.807587,-0.00797916,0.00047753,0.0977388,1,3.27321e-05,-1.45471e-05,1.77625e-05,0.00654641,-0.00290943,0.00355251,0.999116,0.00984067,0.0399777,0.00853272,-0.302842,-0.0205213,-0.877323,31.125,3,1435,187693
49,3,0.999116,0.00984296,0.0399791,0.00851544,-0.77571,0.0476519,9.80225,0.456517,-0.148201,0.837307,-0.00775742,0.00046955,0.0980226,1,3.48594e-05,-1.59071e-06,8.68918e-06,0.00697188,-0.000318141,0.00173784,0.999116,0.00984296,0.0399791,0.00851544,-0.302769,-0.0220207,-0.875337,31.125,3,1436,187793
49,4,0.999116,0.00984296,0.0399791,0.00851544,-0.77571,0.0476519,9.80225,0.456517,-0.148201,0.837307,-0.00775742,0.00046955,0.0980226,1,3.48594e-05,-1.59071e-06,8.68918e-06,0.00697188,-0.000318141,0.00173784,0.999116,0.00984296,0.0399791,0.00851544,-0.302769,-0.0220207,-0.875337,31.125,3,1436,187793
50,1,0.999115,0.00987749,0.0400098,0.00843495,-0.791064,0.05082,9.7776,0.43962,-0.144644,0.815985,-0.0079078,0.000499944,0.0977763,1,4.09112e-05,1.46326e-05,1.61418e-05,0.00818224,0.00292653,0.00322836,0.999115,0.00987749,0.0400098,0.00843495,-0.305187,-0.023437,-0.876872,31.125,3,1438,187993
50,2,0.999115,0.00987749,0.0400098,0.00843495,-0.791064,0.05082,9.7776,0.43962,-0.144644,0.815985,-0.0079078,0.000499944,0.0977763,1,4.09112e-05,1.46326e-05,1.61418e-05,0.00818224,0.00292653,0.00322836,0.999115,0.00987749,0.0400098,0.00843495,-0.305187,-0.023437,-0.876872,31.125,3,1438,187993
50,3,0.999113,0.00988486,0.04003,0.00850824,-0.828038,0.0453884,9.77408,0.399287,-0.154515,0.811499,-0.00827791,0.000446055,0.0977411,1,3.90765e-05,1.27163e-05,1.14868e-05,0.00781529,0.00254326,0.00229737,0.999113,0.00988486,0.04003,0.00850824,-0.305245,-0.0229131,-0.87888,31.125,3,1439,188093
50,4,0.999113,0.00988486,0.04003,0.00850824,-0.828038,0.0453884,9.77408,0.399287,-0.154515,0.811499,-0.00827791,0.000446055,0.0977411,1,3.90765e-05,1.27163e-05,1.14868e-05,0.00781529,0.00254326,0.00229737,0.999113,0.00988486,0.04003,0.00850824,-0.305245,-0.0229131,-0.87888,31.125,3,1439,188093
51,1,0.99911,0.00989553,0.0400493,0.00877465,-0.836037,0.0512531,9.77488,0.390564,-0.145929,0.813454,-0.00836184,0.000502447,0.0977487,1,5.06658e-05,-7.44688e-06,1.06727e-05,0.0101332,-0.00148938,0.00213455,0.99911,0.00989553,0.0400493,0.00877465,-0.30374,-0.0229702,-0.876363,31.125,3,1441,188293
51,2,0.99911,0.0099263,0.0400463,0.00874325,-0.821748,0.0574745,9.78501,0.399863,-0.145779,0.820683,-0.00821931,0.000563518,0.09785,1,5.59818e-05,-9.29633e-06,1.65085e-05,0.0111964,-0.00185927,0.00330171,0.99911,0.0099263,0.0400463,0.00874325,-0.304212,-0.0220087,-0.87533,31.125,3,1442,188393
51,3,0.99911,0.0099263,0.0400463,0.00874325,-0.821748,0.0574745,9.78501,0.399863,-0.145779,0.820683,-0.00821931,0.000563518,0.09785,1,5.59818e-05,-9.29633e-06,1.65085e-05,0.0111964,-0.00185927,0.00330171,0.99911,0.0099263,0.0400463,0.00874325,-0.304212,-0.0220087,-0.87533,31.125,3,1442,188393
51,4,0.99911,0.0099263,0.0400463,0.00874325,-0.821748,0.0574745,9.78501,0.399863,-0.145779,0.820683,-0.00821931,0.000563518,0.09785,1,5.59818e-05,-9.29633e-06,1.65085e-05,0.0111964,-0.00185927,0.00330171,0.99911,0.0099263,0.0400463,0.00874325,-0.304212,-0.0220087,-0.87533,31.125,3,1442,188393
52,1,0.99911,0.00998297,0.0400336,0.0087126,-0.776125,0.0794817,9.78183,0.454707,-0.118632,0.816855,-0.00776225,0.000782428,0.0978183,1,6.25737e-05,-5.03118e-06,9.46979e-06,0.0125147,-0.00100624,0.00189396,0.99911,0.00998297,0.0400336,0.0087126,-0.303752,-0.0229612,-0.876868,31.125,3,1444,188593
52,2,0.999111,0.0100019,0.0400301,0.00869504,-0.802791,0.0665152,9.78394,0.419375,-0.134541,0.821366,-0.00802978,0.000655586,0.0978393,1,4.89802e-05,-9.51584e-06,-1.12314e-06,0.00979604,-0.00190317,-0.000224628,0.999111,0.0100019,0.0400301,0.00869504,-0.305693,-0.0234149,-0.877879,31.125,3,1445,188693
52,3,0.999109,0.00999905,0.0400295,0.00884687,-0.810981,0.0734149,9.78473,0.416003,-0.122011,0.818445,-0.00811189,0.000726974,0.0978472,1,3.60142e-05,-1.06097e-05,7.89564e-06,0.00720285,-0.00212194,0.00157913,0.999109,0.00999905,0.0400295,0.00884687,-0.305212,-0.0234189,-0.877882,31.125,3,1446,188793
52,4,0.999109,0.00999905,0.0400295,0.00884687,-0.810981,0.0734149,9.78473,0.416003,-0.122011,0.818445,-0.00811189,0.000726974,0.0978472,1,3.60142e-05,-1.06097e-05,7.89564e-06,0.00720285,-0.00212194,0.00157913,0.999109,0.00999905,0.0400295,0.00884687,-0.305212,-0.0234189,-0.877882,31.125,3,1446,188793
53,1,0.999108,0.0100397,0.040029,0.00894422,-0.833062,0.0513926,9.77553,0.395802,-0.151899,0.816795,-0.00833158,0.000502033,0.0977553,1,5.97127e-05,-4.82039e-06,1.31131e-05,0.0119425,-0.000964079,0.00262262,0.999108,0.0100397,0.040029,0.00894422,-0.302288,-0.0220247,-0.875339,31.125,3,1448,188993
53,2,0.999108,0.0100397,0.040029,0.00894422,-0.833062,0.0513926,9.77553,0.395802,-0.151899,0.816795,-0.00833158,0.000502033,0.0977553,1,5.97127e-05,-4.82039e-06,1.31131e-05,0.0119425,-0.000964079,0.00262262,0.999108,0.0100397,0.040029,0.00894422,-0.302288,-0.0220247,-0.875339,31.125,3,1448,188993
53,3,0.999109,0.0100593,0.0400377,0.00874657,-0.823142,0.0720584,9.77529,0.403019,-0.130831,0.815983,-0.00823017,0.000713801,0.0977531,1,3.32016e-05,6.51569e-06,1.77529e-05,0.00664032,0.00130314,0.00355059,0.999109,0.0100593,0.0400377,0.00874657,-0.30325,-0.023462,-0.876376,31.125,3,1449,189093
53,4,0.999109,0.0100593,0.0400377,0.00874657,-0.823142,0.0720584,9.77529,0.403019,-0.130831,0.815983,-0.00823017,0.000713801,0.0977531,1,3.32016e-05,6.51569e-06,1.77529e-05,0.00664032,0.00130314,0.00355059,0.999109,0.0100593,0.0400377,0.00874657,-0.30325,-0.023462,-0.876376,31.125,3,1449,189093
54,1,0.99911,0.0101013,0.0400193,0.0086405,-0.838869,0.0669978,9.77401,0.389645,-0.133131,0.81433,-0.00839112,0.000659813,0.09774,1,5.12283e-05,-1.23603e-05,8.99463e-06,0.0102457,-0.00247206,0.00179893,0.99911,0.0101013,0.0400193,0.0086405,-0.304258,-0.0229391,-0.877875,31.125,3,1451,189293
54,2,0.999109,0.0101032,0.0400267,0.00873163,-0.833767,0.0585893,9.77865,0.394343,-0.140754,0.818305,-0.00833771,0.000578129,0.0977866,1,3.72847e-05,-3.21123e-08,2.83176e-05,0.00745694,-6.42246e-06,0.00566352,0.999109,0.0101032,0.0400267,0.00873163,-0.301873,-0.0224624,-0.878381,31.125,3,1452,189393
54,3,0.999109,0.0101032,0.0400267,0.00873163,-0.833767,0.0585893,9.77865,0.394343,-0.140754,0.818305,-0.00833771,0.000578129,0.0977866,1,3.72847e-05,-3.21123e-08,2.83176e-05,0.00745694,-6.42246e-06,0.00566352,0.999109,0.0101032,0.0400267,0.00873163,-0.301873,-0.0224624,-0.878381,31.125,3,1452,189393
54,4,0.999109,0.0101032,0.0400267,0.00873163,-0.833767,0.0585893,9.77865,0.394343,-0.140754,0.818305,-0.00833771,0.000578129,0.0977866,1,3.72847e-05,-3.21123e-08,2.83176e-05,0.00745694,-6.42246e-06,0.00566352,0.999109,0.0101032,0.0400267,0.00873163,-0.301873,-0.0224624,-0.878381,31.125,3,1452,189393
55,1,0.99911,0.010142,0.0400384,0.00856743,-0.840744,0.0566512,9.76883,0.380073,-0.146042,0.809173,-0.00840778,0.000557588,0.0976883,1,4.4437e-05,-1.62636e-06,1.4408e-05,0.0088874,-0.000325271,0.0028816,0.99911,0.010142,0.0400384,0.00856743,-0.3042,-0.023463,-0.875867,31.125,3,1454,189593
55,2,0.99911,0.0101527,0.0400357,0.00855702,-0.847382,0.0659369,9.78084,0.380254,-0.13883,0.820523,-0.00847526,0.000652488,0.0978084,1,3.49079e-05,-7.35371e-06,3.12358e-06,0.00698157,-0.00147074,0.000624717,0.99911,0.0101527,0.0400357,0.00855702,-0.303768,-0.0219856,-0.876846,31.125,3,1455,189693
55,3,0.999109,0.0101794,0.0400402,0.00858886,-0.844059,0.0723936,9.78189,0.382623,-0.132322,0.822469,-0.00844044,0.000712687,0.097819,1,5.61942e-05,8.77189e-07,1.51151e-05,0.0112388,0.000175438,0.00302301,0.999109,0.0101794,0.0400402,0.00858886,-0.304254,-0.0224604,-0.87736,31.125,3,1456,189793
55,4,0.999109,0.0101794,0.0400402,0.00858886,-0.844059,0.0723936,9.78189,0.382623,-0.132322,0.822469,-0.00844044,0.000712687,0.097819,1,5.61942e-05,8.77189e-07,1.51151e-05,0.0112388,0.000175438,0.00302301,0.999109,0.0101794,0.0400402,0.00858886,-0.304254,-0.0224604,-0.87736,31.125,3,1456,189793
56,1,0.999107,0.010205,0.0400453,0.00880793,-0.84694,0.059164,9.78519,0.383023,-0.15252,0.825813,-0.00847081,0.000583415,0.0978518,1,4.2174e-05,-7.21225e-06,-1.71003e-06,0.0084348,-0.00144245,-0.000342006,0.999107,0.010205,0.0400453,0.00880793,-0.30476,-0.0238836,-0.879409,31.125,3,1458,189993
56,2,0.999106,0.0102171,0.040038,0.00896654,-0.846803,0.0567975,9.78518,0.370707,-0.158516,0.805292,-0.00847181,0.000556506,0.0978515,1,5.76172e-05,-1.92688e-05,1.1394e-05,0.0115235,-0.00385376,0.00227879,0.999106,0.0102171,0.040038,0.00896654,-0.304706,-0.023441,-0.876874,31.125,3,1459,190093
56,3,0.999106,0.0102171,0.040038,0.00896654,-0.846803,0.0567975,9.78518,0.370707,-0.158516,0.805292,-0.00847181,0.000556506,0.0978515,1,5.76172e-05,-1.92688e-05,1.1394e-05,0.0115235,-0.00385376,0.00227879,0.999106,0.0102171,0.040038,0.00896654,-0.304706,-0.023441,-0.876874,31.125,3,1459,190093
56,4,0.999106,0.0102171,0.040038,0.00896654,-0.846803,0.0567975,9.78518,0.370707,-0.158516,0.805292,-0.00847181,0.000556506,0.0978515,1,5.76172e-05,-1.92688e-05,1.1394e-05,0.0115235,-0.00385376,0.00227879,0.999106,0.0102171,0.040038,0.00896654,-0.304706,-0.023441,-0.876874,31.125,3,1459,190093
57,1,0.999105,0.0102499,0.0400376,0.00900253,-0.882649,0.0469277,9.77447,0.372694,-0.162874,0.831612,-0.00882883,0.000461328,0.0977445,1,3.93594e-05,-1.18934e-05,1.43798e-05,0.00787188,-0.00237869,0.00287597,0.999105,0.0102499,0.0400376,0.00900253,-0.304755,-0.0205143,-0.876809,31.125,3,1461,190293
57,2,0.999105,0.01028,0.0400171,0.0091177,-0.841297,0.0484332,9.78812,0.390768,-0.148831,0.820612,-0.00841846,0.000472275,0.0978808,1,6.01633e-05,-2.79769e-05,1.65519e-05,0.0120327,-0.00559539,0.00331039,0.999105,0.01028,0.0400171,0.0091177,-0.305191,-0.0224704,-0.876345,31.125,3,1462,190393
57,3,0.999105,0.01028,0.0400171,0.0091177,-0.841297,0.0484332,9.78812,0.390768,-0.148831,0.820612,-0.00841846,0.000472275,0.0978808,1,6.01633e-05,-2.79769e-05,1.65519e-05,0.0120327,-0.00559539,0.00331039,0.999105,0.01028,0.0400171,0.0091177,-0.305191,-0.0224704,-0.876345,31.125,3,1462,190393
57,4,0.999105,0.01028,0.0400171,0.0091177,-0.841297,0.0484332,9.78812,0.390768,-0.148831,0.820612,-0.00841846,0.000472275,0.0978808,1,6.01633e-05,-2.79769e-05,1.65519e-05,0.0120327,-0.00559539,0.00331039,0.999105,0.01028,0.0400171,0.0091177,-0.305191,-0.0224704,-0.876345,31.125,3,1462,190393
58,1,0.999104,0.0103269,0.0399962,0.00920225,-0.830054,0.060293,9.76778,0.374961,-0.167339,0.808156,-0.00830293,0.00059367,0.0976777,1,4.5685e-05,-1.21222e-05,2.01372e-05,0.009137,-0.00242444,0.00402745,0.999104,0.0103269,0.0399962,0.00920225,-0.302823,-0.0224634,-0.877871,31.125,3,1464,190593
58,2,0.999105,0.0103429,0.0399855,0.00912708,-0.837833,0.0261568,9.77196,0.387771,-0.183995,0.810751,-0.00838185,0.000252418,0.0977194,1,4.58322e-05,-1.7971e-05,1.14421e-05,0.00916644,-0.0035942,0.00228842,0.999105,0.0103429,0.0399855,0.00912708,-0.304755,-0.0219596,-0.877851,31.125,3,1465,190693
58,3,0.999105,0.0103527,0.0399628,0.00925631,-0.815057,0.0574416,9.78091,0.408963,-0.1429,0.814342,-0.00815694,0.0005651,0.0978086,1,4.59849e-05,-3.24532e-05,1.96487e-05,0.00919698,-0.00649064,0.00392974,0.999105,0.0103527,0.0399628,0.00925631,-0.303254,-0.0224954,-0.87585,31.125,3,1466,190793
58,4,0.999105,0.0103527,0.0399628,0.00925631,-0.815057,0.0574416,9.78091,0.408963,-0.1429,0.814342,-0.00815694,0.0005651,0.0978086,1,4.59849e-05,-3.24532e-05,1.96487e-05,0.00919698,-0.00649064,0.00392974,0.999105,0.0103527,0.0399628,0.00925631,-0.303254,-0.0224954,-0.87585,31.125,3,1466,190793
59,1,0.999107,0.0104054,0.0399293,0.00904525,-0.786687,0.06687,9.78012,0.426057,-0.141164,0.815438,-0.00787143,0.000659441,0.0978009,1,4.54171e-05,-2.31192e-05,2.38824e-05,0.00908342,-0.00462384,0.00477648,0.999107,0.0104054,0.0399293,0.00904525,-0.304225,-0.0234449,-0.876877,31.125,3,1468,190993
59,2,0.999107,0.0104384,0.0399226,0.00905312,-0.792582,0.0504117,9.76507,0.426363,-0.157034,0.803009,-0.00792852,0.000491969,0.0976506,1,6.14412e-05,-1.37481e-05,9.36913e-06,0.0122882,-0.00274963,0.00187383,0.999107,0.0104384,0.0399226,0.00905312,-0.303809,-0.0224373,-0.878876,31.125,3,1469,191093
59,3,0.999107,0.0104384,0.0399226,0.00905312,-0.792582,0.0504117,9.76507,0.426363,-0.157034,0.803009,-0.00792852,0.000491969,0.0976506,1,6.14412e-05,-1.37481e-05,9.36913e-06,0.0122882,-0.00274963,0.00187383,0.999107,0.0104384,0.0399226,0.00905312,-0.303809,-0.0224373,-0.878876,31.125,3,1469,191093
59,4,0.999107,0.0104384,0.0399226,0.00905312,-0.792582,0.0504117,9.76507,0.426363,-0.157034,0.803009,-0.00792852,0.000491969,0.0976506,1,6.14412e-05,-1.37481e-05,9.36913e-06,0.0122882,-0.00274963,0.00187383,0.999107,0.0104384,0.0399226,0.00905312,-0.303809,-0.0224373,-0.878876,31.125,3,1469,191093
60,1,0.999107,0.0104484,0.0398954,0.00922835,-0.872469,0.0544358,9.74361,0.369728,-0.144291,0.788846,-0.00873091,0.00053675,0.0974356,1,3.76609e-05,-3.18121e-05,1.53833e-05,0.00753218,-0.00636243,0.00307666,0.999107,0.0104484,0.0398954,0.00922835,-0.304249,-0.0219816,-0.876844,31.125,3,1471,191293
60,2,0.999106,0.0104822,0.0398826,0.00926451,-0.827012,0.0579568,9.8054,0.382356,-0.146554,0.834292,-0.008274,0.000567181,0.0980538,1,6.14057e-05,-1.96842e-05,2.08469e-05,0.0122811,-0.00393684,0.00416939,0.999106,0.0104822,0.0398826,0.00926451,-0.303238,-0.0220257,-0.874829,31.125,3,1472,191393
60,3,0.999106,0.0104822,0.0398826,0.00926451,-0.827012,0.0579568,9.8054,0.382356,-0.146554,0.834292,-0.008274,0.000567181,0.0980538,1,6.14057e-05,-1.96842e-05,2.08469e-05,0.0122811,-0.00393684,0.00416939,0.999106,0.0104822,0.0398826,0.00926451,-0.303238,-0.0220257,-0.874829,31.125,3,1472,191393
60,4,0.999106,0.0104822,0.0398826,0.00926451,-0.827012,0.0579568,9.8054,0.382356,-0.146554,0.834292,-0.008274,0.000567181,0.0980538,1,6.14057e-05,-1.96842e-05,2.08469e-05,0.0122811,-0.00393684,0.00416939,0.999106,0.0104822,0.0398826,0.00926451,-0.303238,-0.0220257,-0.874829,31.125,3,1472,191393
61,1,0.999108,0.0105432,0.0398845,0.00904388,-0.915251,0.0284147,9.76164,0.327005,-0.168944,0.816479,-0.00915215,0.000275358,0.0976164,1,4.34947e-05,1.86814e-06,1.62755e-05,0.00869895,0.000373629,0.00325509,0.999108,0.0105432,0.0398845,0.00904388,-0.304246,-0.0243934,-0.878413,31.125,3,1474,191593
61,2,0.999107,0.010548,0.0398769,0.00910748,-0.82649,0.0365695,9.79844,0.37901,-0.17077,0.839643,-0.00826838,0.000357198,0.0979842,1,4.24721e-05,-1.76748e-05,1.0561e-05,0.00849441,-0.00353497,0.00211219,0.999107,0.010548,0.0398769,0.00910748,-0.305277,-0.0224073,-0.879879,31.125,3,1475,191693
61,3,0.999105,0.0105333,0.0398855,0.00937402,-0.874554,0.0823099,9.7642,0.355606,-0.13037,0.813672,-0.00874642,0.0008159,0.097642,1,3.50978e-05,-4.34926e-06,1.97367e-05,0.00701956,-0.000869851,0.00394733,0.999105,0.0105333,0.0398855,0.00937402,-0.304784,-0.0224203,-0.879377,31.125,3,1476,191793
61,4,0.999105,0.0105333,0.0398855,0.00937402,-0.874554,0.0823099,9.7642,0.355606,-0.13037,0.813672,-0.00874642,0.0008159,0.097642,1,3.50978e-05,-4.34926e-06,1.97367e-05,0.00701956,-0.000869851,0.00394733,0.999105,0.0105333,0.0398855,0.00937402,-0.304784,-0.0224203,-0.879377,31.125,3,1476,191793
62,1,0.999103,0.0105322,0.0398561,0.0097052,-0.805735,0.0638643,9.76767,0.41494,-0.149677,0.798466,-0.00806337,0.000630754,0.0976762,1,3.94007e-05,-3.07614e-05,1.19268e-05,0.00788013,-0.00615227,0.00238535,0.999103,0.0105322,0.0398561,0.0097052,-0.303307,-0.0214929,-0.877343,31.125,3,1478,191993
62,2,0.999103,0.0105322,0.0398561,0.0097052,-0.805735,0.0638643,9.76767,0.41494,-0.149677,0.798466,-0.00806337,0.000630754,0.0976762,1,3.94007e-05,-3.07614e-05,1.19268e-05,0.00788013,-0.00615227,0.00238535,0.999103,0.0105322,0.0398561,0.0097052,-0.303307,-0.0214929,-0.877343,31.125,3,1478,191993
62,3,0.999104,0.0105726,0.0398439,0.00963832,-0.749755,0.0434492,9.78442,0.460582,-0.17219,0.811854,-0.0075017,0.000421479,0.0978439,1,6.47772e-05,-2.11394e-05,2.24446e-05,0.0129554,-0.00422789,0.00448892,0.999104,0.0105726,0.0398439,0.00963832,-0.303764,-0.0215069,-0.876331,31.125,3,1479,192093
62,4,0.999104,0.0105726,0.0398439,0.00963832,-0.749755,0.0434492,9.78442,0.460582,-0.17219,0.811854,-0.0075017,0.000421479,0.0978439,1,6.47772e-05,-2.11394e-05,2.24446e-05,0.0129554,-0.00422789,0.00448892,0.999104,0.0105726,0.0398439,0.00963832,-0.303764,-0.0215069,-0.876331,31.125,3,1479,192093
63,1,0.999102,0.0106185,0.0398361,0.00974532,-0.832609,0.0807876,9.789,0.382826,-0.136782,0.827724,-0.00832686,0.000797634,0.09789,1,5.11518e-05,-3.83167e-06,1.36386e-05,0.0102304,-0.000766335,0.00272773,0.999102,0.0106185,0.0398361,0.00974532,-0.304756,-0.0234049,-0.878894,31.125,3,1481,192293
63,2,0.999101,0.0106154,0.0398332,0.0098897,-0.856583,0.0776206,9.77491,0.36564,-0.132386,0.817261,-0.00856894,0.000768353,0.0977488,1,3.87375e-05,-1.57785e-05,1.63613e-05,0.0077475,-0.0031557,0.00327226,0.999101,0.0106154,0.0398332,0.0098897,-0.303781,-0.0234219,-0.878393,31.125,3,1482,192393
63,3,0.999101,0.0106154,0.0398332,0.0098897,-0.856583,0.0776206,9.77491,0.36564,-0.132386,0.817261,-0.00856894,0.000768353,0.0977488,1,3.87375e-05,-1.57785e-05,1.63613e-05,0.0077475,-0.0031557,0.00327226,0.999101,0.0106154,0.0398332,0.0098897,-0.303781,-0.0234219,-0.878393,31.125,3,1482,192393
63,4,0.999101,0.0106154,0.0398332,0.0098897,-0.856583,0.0776206,9.77491,0.36564,-0.132386,0.817261,-0.00856894,0.000768353,0.0977488,1,3.87375e-05,-1.57785e-05,1.63613e-05,0.0077475,-0.0031557,0.00327226,0.999101,0.0106154,0.0398332,0.0098897,-0.303781,-0.0234219,-0.878393,31.125,3,1482,192393
64,1,0.999103,0.0106644,0.0397936,0.00982728,-0.790988,0.0639819,9.79199,0.430101,-0.150773,0.827487,-0.00791533,0.000627815,0.0979195,1,6.0007e-05,-2.77495e-05,1.59576e-05,0.0120014,-0.0055499,0.00319152,0.999103,0.0106644,0.0397936,0.00982728,-0.302309,-0.0229732,-0.876875,31.125,3,1484,192593
64,2,0.999105,0.0106946,0.0397904,0.00953996,-0.797686,0.0559847,9.77533,0.420172,-0.16042,0.811642,-0.00797831,0.000550851,0.0977533,1,4.52046e-05,-7.33312e-06,9.94278e-06,0.00904091,-0.00146662,0.00198856,0.999105,0.0106946,0.0397904,0.00953996,-0.302374,-0.0205163,-0.87783,31.125,3,1485,192693
64,3,0.999107,0.0107078,0.0397747,0.00943021,-0.812107,0.0478997,9.77435,0.410194,-0.165582,0.816187,-0.00812509,0.000471039,0.0977432,1,3.94491e-05,-2.04629e-05,1.51823e-05,0.00788982,-0.00409258,0.00303646,0.999107,0.0107078,0.0397747,0.00943021,-0.304784,-0.0209751,-0.878334,31.125,3,1486,192793
64,4,0.999107,0.0107078,0.0397747,0.00943021,-0.812107,0.0478997,9.77435,0.410194,-0.165582,0.816187,-0.00812509,0.000471039,0.0977432,1,3.94491e-05,-2.04629e-05,1.51823e-05,0.00788982,-0.00409258,0.00303646,0.999107,0.0107078,0.0397747,0.00943021,-0.304784,-0.0209751,-0.878334,31.125,3,1486,192793
65,1,0.999101,0.010696,0.0397724,0.0100123,-0.77181,0.0584377,9.77789,0.448704,-0.152929,0.816232,-0.00772084,0.000577665,0.0977788,1,3.41089e-05,-1.39919e-05,2.72885e-06,0.00682177,-0.00279838,0.00054577,0.999101,0.010696,0.0397724,0.0100123,-0.305261,-0.0219376,-0.878859,31.125,3,1488,192993
65,2,0.999101,0.010696,0.0397724,0.0100123,-0.77181,0.0584377,9.77789,0.448704,-0.152929,0.816232,-0.00772084,0.000577665,0.0977788,1,3.41089e-05,-1.39919e-05,2.72885e-06,0.00682177,-0.00279838,0.00054577,0.999101,0.010696,0.0397724,0.0100123,-0.305261,-0.0219376,-0.878859,31.125,3,1488,192993
65,3,0.999099,0.0106988,0.0397829,0.0102446,-0.747854,0.0599043,9.77875,0.469255,-0.154053,0.811651,-0.00747941,0.000589728,0.0977875,1,4.66274e-05,-4.36204e-06,1.31378e-05,0.00932548,-0.000872409,0.00262756,0.999099,0.0106988,0.0397829,0.0102446,-0.304299,-0.0219456,-0.878863,31.125,3,1489,193093
65,4,0.999099,0.0106988,0.0397829,0.0102446,-0.747854,0.0599043,9.77875,0.469255,-0.154053,0.811651,-0.00747941,0.000589728,0.0977875,1,4.66274e-05,-4.36204e-06,1.31378e-05,0.00932548,-0.000872409,0.00262756,0.999099,0.0106988,0.0397829,0.0102446,-0.304299,-0.0219456,-0.878863,31.125,3,1489,193093
66,1,0.999098,0.0107437,0.0397881,0.0101846,-0.784444,0.0858303,9.77142,0.430797,-0.133917,0.815062,-0.00784485,0.000849557,0.0977142,1,4.42695e-05,-1.99705e-06,6.06488e-06,0.00885389,-0.000399411,0.00121298,0.999098,0.0107437,0.0397881,0.0101846,-0.304278,-0.0224424,-0.878369,31.125,3,1491,193293
66,2,0.999097,0.0107555,0.0398117,0.0102326,-0.8325,0.0586843,9.77558,0.393151,-0.149517,0.807713,-0.00832258,0.000577614,0.0977561,1,4.65755e-05,1.23812e-05,7.40173e-06,0.0093151,0.00247624,0.00148035,0.999097,0.0107555,0.0398117,0.0102326,-0.303814,-0.0229161,-0.879392,31.125,3,1492,193393
66,3,0.999097,0.0107555,0.0398117,0.0102326,-0.8325,0.0586843,9.77558,0.393151,-0.149517,0.807713,-0.00832258,0.000577614,0.0977561,1,4.65755e-05,1.23812e-05,7.40173e-06,0.0093151,0.00247624,0.00148035,0.999097,0.0107555,0.0398117,0.0102326,-0.303814,-0.0229161,-0.879392,31.125,3,1492,193393
66,4,0.999096,0.0107604,0.0398206,0.0102517,-0.787481,0.0559898,9.77967,0.420047,-0.164815,0.823781,-0.00787538,0.000551335,0.0977967,1,4.353e-05,-2.87249e-06,3.11796e-06,0.008706,-0.000574498,0.000623592,0.999096,0.0107604,0.0398206,0.0102517,-0.303822,-0.0224283,-0.879381,31.125,3,1493,193493
67,1,0.999096,0.0107665,0.039821,0.0102807,-0.855429,0.0513319,9.77941,0.392662,-0.161192,0.812852,-0.00855651,0.000504522,0.097794,1,4.45545e-05,-1.13286e-05,4.87471e-06,0.00891089,-0.00226573,0.000974942,0.999096,0.0107665,0.039821,0.0102807,-0.304793,-0.0233778,-0.880408,31.125,3,1494,193593
67,2,0.999093,0.010769,0.0398309,0.0105046,-0.765492,0.0555644,9.77612,0.434646,-0.164441,0.818353,-0.00765607,0.000544904,0.0977612,1,5.39588e-05,-5.83942e-06,1.23648e-05,0.0107918,-0.00116788,0.00247295,0.999093,0.010769,0.0398309,0.0105046,-0.303765,-0.0243974,-0.878415,31.125,3,1495,193693
67,3,0.999094,0.0107765,0.0398238,0.0104331,-0.815108,0.0514388,9.79544,0.425601,-0.157237,0.827241,-0.00815415,0.000507055,0.0979542,1,3.64167e-05,-1.562e-05,1.22003e-05,0.00728333,-0.003124,0.00244005,0.999094,0.0107765,0.0398238,0.0104331,-0.303719,-0.023467,-0.875869,31.125,3,1496,193793
67,4,0.999094,0.0107765,0.0398238,0.0104331,-0.815108,0.0514388,9.79544,0.425601,-0.157237,0.827241,-0.00815415,0.000507055,0.0979542,1,3.64167e-05,-1.562e-05,1.22003e-05,0.00728333,-0.003124,0.00244005,0.999094,0.0107765,0.0398238,0.0104331,-0.303719,-0.023467,-0.875869,31.125,3,1496,193793
68,1,0.999096,0.0108344,0.0398,0.0103268,-0.823367,0.0482397,9.78223,0.421264,-0.16874,0.815761,-0.00823657,0.000471801,0.0978222,1,5.32158e-05,-1.47706e-05,1.11816e-05,0.0106432,-0.00295412,0.00223632,0.999096,0.0108344,0.0398,0.0103268,-0.304258,-0.0229391,-0.877875,31.125,3,1498,193993
68,2,0.999096,0.0108344,0.0398,0.0103268,-0.823367,0.0482397,9.78223,0.421264,-0.16874,0.815761,-0.00823657,0.000471801,0.0978222,1,5.32158e-05,-1.47706e-05,1.11816e-05,0.0106432,-0.00295412,0.00223632,0.999096,0.0108344,0.0398,0.0103268,-0.304258,-0.0229391,-0.877875,31.125,3,1498,193993
68,3,0.999095,0.0108528,0.0397988,0.0103448,-0.740875,0.066676,9.79031,0.461481,-0.160404,0.826899,-0.00741071,0.00065727,0.097903,1,4.65102e-05,-9.82733e-06,2.58293e-05,0.00930204,-0.00196547,0.00516587,0.999095,0.0108528,0.0397988,0.0103448,-0.303834,-0.020974,-0.878844,31.125,3,1499,194093
68,4,0.999095,0.0108528,0.0397988,0.0103448,-0.740875,0.066676,9.79031,0.461481,-0.160404,0.826899,-0.00741071,0.00065727,0.097903,1,4.65102e-05,-9.82733e-06,2.58293e-05,0.00930204,-0.00196547,0.00516587,0.999095,0.0108528,0.0397988,0.0103448,-0.303834,-0.020974,-0.878844,31.125,3,1499,194093
69,1,0.999096,0.0108794,0.0398113,0.0102145,-0.786846,0.0888658,9.77146,0.433281,-0.130447,0.813854,-0.00786789,0.000881061,0.0977148,1,3.8119e-05,3.01339e-06,9.36158e-06,0.0076238,0.000602679,0.00187232,0.999096,0.0108794,0.0398113,0.0102145,-0.303316,-0.0238956,-0.879416,31.125,3,1501,194293
69,2,0.999096,0.0108892,0.0398164,0.0101804,-0.841658,0.0722036,9.78798,0.384014,-0.144764,0.821153,-0.00841728,0.000713113,0.0978798,1,4.36957e-05,-3.43074e-06,2.19104e-05,0.00873915,-0.000686148,0.00438207,0.999096,0.0108892,0.0398164,0.0101804,-0.304764,-0.0229171,-0.878883,31.125,3,1502,194393
69,3,0.999096,0.0108892,0.0398164,0.0101804,-0.841658,0.0722036,9.78798,0.384014,-0.144764,0.821153,-0.00841728,0.000713113,0.0978798,1,4.36957e-05,-3.43074e-06,2.19104e-05,0.00873915,-0.000686148,0.00438207,0.999096,0.0108892,0.0398164,0.0101804,-0.304764,-0.0229171,-0.878883,31.125,3,1502,194393
69,4,0.999094,0.0108872,0.0398134,0.0103324,-0.84403,0.0739075,9.77784,0.385447,-0.143428,0.814458,-0.0084429,0.000731785,0.0977782,1,3.63737e-05,-1.31857e-05,1.05183e-05,0.00727475,-0.00263713,0.00210367,0.999094,0.0108872,0.0398134,0.0103324,-0.304776,-0.0229081,-0.879387,31.125,3,1503,194493
70,1,0.999092,0.010887,0.0398159,0.0105218,-0.851163,0.0654754,9.76899,0.360401,-0.15927,0.819427,-0.00851361,0.000646355,0.0976898,1,4.20381e-05,-1.00788e-05,1.09355e-05,0.00840762,-0.00201575,0.0021871,0.999092,0.010887,0.0398159,0.0105218,-0.303329,-0.0238866,-0.879921,31.125,3,1504,194593
70,2,0.999093,0.0109009,0.0398167,0.010473,-0.85405,0.0544226,9.78452,0.371782,-0.164462,0.827353,-0.00854241,0.00053435,0.0978451,1,4.9375e-05,-9.71937e-06,1.25505e-05,0.009875,-0.00194387,0.0025101,0.999093,0.0109009,0.0398167,0.010473,-0.302901,-0.022888,-0.881416,31.125,3,1505,194693
70,3,0.999093,0.0108954,0.0398131,0.0104726,-0.84456,0.0718507,9.78292,0.381007,-0.152392,0.8163,-0.00844887,0.000710563,0.097829,1,4.02163e-05,-1.66914e-05,4.4254e-06,0.00804326,-0.00333829,0.00088508,0.999093,0.0108954,0.0398131,0.0104726,-0.302851,-0.0229241,-0.879397,31.125,3,1506,194793
70,4,0.999093,0.0108954,0.0398131,0.0104726,-0.84456,0.0718507,9.78292,0.381007,-0.152392,0.8163,-0.00844887,0.000710563,0.097829,1,4.02163e-05,-1.66914e-05,4.4254e-06,0.00804326,-0.00333829,0.00088508,0.999093,0.0108954,0.0398131,0.0104726,-0.302851,-0.0229241,-0.879397,31.125,3,1506,194793
71,1,0.999095,0.010923,0.0398003,0.0102646,-0.805261,0.0641599,9.76528,0.405549,-0.162889,0.807526,-0.00805568,0.000634376,0.0976526,1,3.57366e-05,-1.56519e-05,1.51546e-05,0.00714733,-0.00313037,0.00303092,0.999095,0.010923,0.0398003,0.0102646,-0.303781,-0.0234219,-0.878393,31.125,3,1508,194993
71,2,0.999095,0.010923,0.0398003,0.0102646,-0.805261,0.0641599,9.76528,0.405549,-0.162889,0.807526,-0.00805568,0.000634376,0.0976526,1,3.57366e-05,-1.56519e-05,1.51546e-05,0.00714733,-0.00313037,0.00303092,0.999095,0.010923,0.0398003,0.0102646,-0.303781,-0.0234219,-0.878393,31.125,3,1508,194993
71,3,0.999096,0.0109282,0.0397961,0.0102443,-0.824173,0.0684847,9.7875,0.404501,-0.149012,0.824819,-0.00824393,0.000678104,0.0978749,1,3.30862e-05,-1.11425e-05,1.61639e-05,0.00661724,-0.00222849,0.00323279,0.999096,0.0109282,0.0397961,0.0102443,-0.304303,-0.0224243,-0.879379,31.125,3,1509,195093
71,4,0.999096,0.0109282,0.0397961,0.0102443,-0.824173,0.0684847,9.7875,0.404501,-0.149012,0.824819,-0.00824393,0.000678104,0.0978749,1,3.30862e-05,-1.11425e-05,1.61639e-05,0.00661724,-0.00222849,0.00323279,0.999096,0.0109282,0.0397961,0.0102443,-0.304303,-0.0224243,-0.879379,31.125,3,1509,195093
72,1,0.999093,0.0109421,0.0397818,0.0105276,-0.853907,0.0684095,9.76327,0.367918,-0.150359,0.815711,-0.00854294,0.000677724,0.0976324,1,3.16128e-05,-1.97533e-05,1.16267e-05,0.00632256,-0.00395067,0.00232534,0.999093,0.0109421,0.0397818,0.0105276,-0.30425,-0.0234269,-0.877886,31.125,3,1511,195293
72,2,0.999094,0.0109513,0.0397671,0.0105221,-0.868891,0.0551358,9.77921,0.344044,-0.16478,0.821368,-0.00869325,0.000544409,0.0977918,1,3.49879e-05,-2.21172e-05,6.05892e-06,0.00699758,-0.00442343,0.00121178,0.999094,0.0109513,0.0397671,0.0105221,-0.302827,-0.0229421,-0.878387,31.125,3,1512,195393
72,3,0.999094,0.0109513,0.0397671,0.0105221,-0.868891,0.0551358,9.77921,0.344044,-0.16478,0.821368,-0.00869325,0.000544409,0.0977918,1,3.49879e-05,-2.21172e-05,6.05892e-06,0.00699758,-0.00442343,0.00121178,0.999094,0.0109513,0.0397671,0.0105221,-0.302827,-0.0229421,-0.878387,31.125,3,1512,195393
72,4,0.999094,0.0109513,0.0397671,0.0105221,-0.868891,0.0551358,9.77921,0.344044,-0.16478,0.821368,-0.00869325,0.000544409,0.0977918,1,3.49879e-05,-2.21172e-05,6.05892e-06,0.00699758,-0.00442343,0.00121178,0.999094,0.0109513,0.0397671,0.0105221,-0.302827,-0.0229421,-0.878387,31.125,3,1512,195393
73,1,0.999096,0.0109856,0.0397594,0.0103075,-0.809419,0.0540804,9.77575,0.401108,-0.165436,0.813253,-0.00809852,0.000532736,0.0977572,1,3.91957e-05,-2.20387e-05,2.49743e-05,0.00783914,-0.00440775,0.00499485,0.999096,0.0109856,0.0397594,0.0103075,-0.305249,-0.0219466,-0.878354,31.125,3,1514,195593
73,2,0.999093,0.0110031,0.0397686,0.0105393,-0.821486,0.0570813,9.79178,0.400684,-0.171668,0.833129,-0.00821501,0.000560112,0.0979179,1,5.34598e-05,-6.78186e-07,1.4052e-05,0.010692,-0.000135637,0.00281039,0.999093,0.0110031,0.0397686,0.0105393,-0.305282,-0.0228861,-0.880395,31.125,3,1515,195693
73,3,0.999089,0.0109909,0.0397765,0.0108655,-0.818553,0.0688601,9.76948,0.401628,-0.152367,0.81167,-0.00818701,0.000680878,0.0976947,1,3.83203e-05,-7.47082e-06,1.4387e-05,0.00766405,-0.00149416,0.00287741,0.999089,0.0109909,0.0397765,0.0108655,-0.304756,-0.0234049,-0.878894,31.125,3,1516,195793
73,4,0.999089,0.0109909,0.0397765,0.0108655,-0.818553,0.0688601,9.76948,0.401628,-0.152367,0.81167,-0.00818701,0.000680878,0.0976947,1,3.83203e-05,-7.47082e-06,1.4387e-05,0.00766405,-0.00149416,0.00287741,0.999089,0.0109909,0.0397765,0.0108655,-0.304756,-0.0234049,-0.878894,31.125,3,1516,195793
74,1,0.999082,0.0109787,0.039796,0.0114145,-0.831125,0.049016,9.78433,0.389051,-0.171453,0.824873,-0.00831289,0.000481925,0.0978432,1,4.11665e-05,-8.32595e-06,1.07787e-05,0.00823329,-0.00166519,0.00215573,0.999082,0.0109787,0.039796,0.0114145,-0.303843,-0.0233768,-0.880917,31.125,3,1518,195993
74,2,0.999082,0.0109787,0.039796,0.0114145,-0.831125,0.049016,9.78433,0.389051,-0.171453,0.824873,-0.00831289,0.000481925,0.0978432,1,4.11665e-05,-8.32595e-06,1.07787e-05,0.00823329,-0.00166519,0.00215573,0.999082,0.0109787,0.039796,0.0114145,-0.303843,-0.0233768,-0.880917,31.125,3,1518,195993
74,3,0.999081,0.0109919,0.0397981,0.0114807,-0.83505,0.0423134,9.74901,0.378996,-0.179169,0.79797,-0.00835318,0.000411819,0.09749,1,5.69654e-05,-1.36977e-05,1.24142e-05,0.0113931,-0.00273953,0.00248285,0.999081,0.0109919,0.0397981,0.0114807,-0.302362,-0.0219706,-0.878368,31.125,3,1519,196093
74,4,0.999081,0.0109919,0.0397981,0.0114807,-0.83505,0.0423134,9.74901,0.378996,-0.179169,0.79797,-0.00835318,0.000411819,0.09749,1,5.69654e-05,-1.36977e-05,1.24142e-05,0.0113931,-0.00273953,0.00248285,0.999081,0.0109919,0.0397981,0.0114807,-0.302362,-0.0219706,-0.878368,31.125,3,1519,196093
75,1,0.99909,0.011081,0.0397777,0.0106698,-0.811862,0.0555431,9.78594,0.412268,-0.166415,0.825551,-0.00812145,0.000543875,0.0978593,1,5.85224e-05,-1.4402e-05,6.26987e-06,0.0117045,-0.00288039,0.00125397,0.99909,0.011081,0.0397777,0.0106698,-0.302843,-0.0219666,-0.878365,31.125,3,1521,196293
75,2,0.999092,0.0111144,0.0397567,0.0104963,-0.81058,0.0685913,9.77553,0.402885,-0.156604,0.809704,-0.00811091,0.000675302,0.097755,1,5.39238e-05,-2.61101e-05,4.2322e-06,0.0107848,-0.00522202,0.000846439,0.999092,0.0111144,0.0397567,0.0104963,-0.302847,-0.0224453,-0.878881,31.125,3,1522,196393
75,3,0.999092,0.0111144,0.0397567,0.0104963,-0.81058,0.0685913,9.77553,0.402885,-0.156604,0.809704,-0.00811091,0.000675302,0.097755,1,5.39238e-05,-2.61101e-05,4.2322e-06,0.0107848,-0.00522202,0.000846439,0.999092,0.0111144,0.0397567,0.0104963,-0.302847,-0.0224453,-0.878881,31.125,3,1522,196393
75,4,0.999092,0.0111144,0.0397567,0.0104963,-0.81058,0.0685913,9.77553,0.402885,-0.156604,0.809704,-0.00811091,0.000675302,0.097755,1,5.39238e-05,-2.61101e-05,4.2322e-06,0.0107848,-0.00522202,0.000846439,0.999092,0.0111144,0.0397567,0.0104963,-0.302847,-0.0224453,-0.878881,31.125,3,1522,196393
76,1,0.999095,0.0111433,0.0397427,0.0102816,-0.767594,0.0638904,9.79522,0.451447,-0.159793,0.8268,-0.00767893,0.000629202,0.0979521,1,4.78924e-05,-1.51136e-05,2.08111e-05,0.00957848,-0.00302272,0.00416222,0.999095,0.0111433,0.0397427,0.0102816,-0.302803,-0.0244054,-0.87842,31.125,3,1524,196593
76,2,0.999097,0.0111532,0.0397359,0.0101201,-0.788753,0.0548402,9.77968,0.431225,-0.165072,0.815642,-0.0078894,0.000541938,0.0977967,1,3.12031e-05,-9.41949e-06,2.28768e-05,0.00624062,-0.0018839,0.00457537,0.999097,0.0111532,0.0397359,0.0101201,-0.303769,-0.0234309,-0.877889,31.125,3,1525,196693
76,3,0.999097,0.0111846,0.0397316,0.0100988,-0.806933,0.0567352,9.77133,0.416096,-0.167793,0.805212,-0.00807075,0.000556203,0.0977132,1,5.53112e-05,-7.14698e-06,2.10294e-05,0.0110622,-0.0014294,0.00420588,0.999097,0.0111846,0.0397316,0.0100988,-0.302761,-0.0239537,-0.87639,31.125,3,1526,196793
76,4,0.999097,0.0111846,0.0397316,0.0100988,-0.806933,0.0567352,9.77133,0.416096,-0.167793,0.805212,-0.00807075,0.000556203,0.0977132,1,5.53112e-05,-7.14698e-06,2.10294e-05,0.0110622,-0.0014294,0.00420588,0.999097,0.0111846,0.0397316,0.0100988,-0.302761,-0.0239537,-0.87639,31.125,3,1526,196793
77,1,0.9991,0.0112531,0.0397134,0.00979868,-0.829899,0.0519373,9.78026,0.390088,-0.172759,0.816006,-0.00830171,0.000509077,0.0978025,1,5.13867e-05,-1.383e-05,1.47243e-05,0.0102773,-0.002766,0.00294486,0.9991,0.0112531,0.0397134,0.00979868,-0.302403,-0.0224223,-0.880398,31.125,3,1528,196993
77,2,0.9991,0.0112507,0.0397011,0.0098525,-0.822892,0.0394334,9.78488,0.395099,-0.182586,0.818529,-0.00823225,0.000386797,0.0978485,1,3.75807e-05,-1.69856e-05,1.10546e-05,0.00751615,-0.00339711,0.00221093,0.9991,0.0112507,0.0397011,0.0098525,-0.303398,-0.0204632,-0.88035,31.125,3,1529,197093
77,3,0.9991,0.0112507,0.0397011,0.0098525,-0.822892,0.0394334,9.78488,0.395099,-0.182586,0.818529,-0.00823225,0.000386797,0.0978485,1,3.75807e-05,-1.69856e-05,1.10546e-05,0.00751615,-0.00339711,0.00221093,0.9991,0.0112507,0.0397011,0.0098525,-0.303398,-0.0204632,-0.88035,31.125,3,1529,197093
77,4,0.9991,0.0112507,0.0397011,0.0098525,-0.822892,0.0394334,9.78488,0.395099,-0.182586,0.818529,-0.00823225,0.000386797,0.0978485,1,3.75807e-05,-1.69856e-05,1.10546e-05,0.00751615,-0.00339711,0.00221093,0.9991,0.0112507,0.0397011,0.0098525,-0.303398,-0.0204632,-0.88035,31.125,3,1529,197093
78,1,0.999096,0.011257,0.0396872,0.0102323,-0.823242,0.0601371,9.77757,0.397069,-0.167985,0.810836,-0.00823334,0.000594026,0.0977757,1,3.65656e-05,-4.63987e-06,1.17961e-05,0.00731312,-0.000927974,0.00235923,0.999096,0.011257,0.0396872,0.0102323,-0.305733,-0.0209761,-0.877825,31.125,3,1531,197293
78,2,0.999094,0.0112734,0.0396723,0.0104924,-0.806817,0.0675241,9.78093,0.414085,-0.155503,0.818095,-0.00807221,0.000665613,0.0978091,1,4.84156e-05,-2.06235e-05,9.75484e-06,0.00968312,-0.0041247,0.00195097,0.999094,0.0112734,0.0396723,0.0104924,-0.305713,-0.0214729,-0.877331,31.125,3,1532,197393
78,3,0.999094,0.0112734,0.0396723,0.0104924,-0.806817,0.0675241,9.78093,0.414085,-0.155503,0.818095,-0.00807221,0.000665613,0.0978091,1,4.84156e-05,-2.06235e-05,9.75484e-06,0.00968312,-0.0041247,0.00195097,0.999094,0.0112734,0.0396723,0.0104924,-0.305713,-0.0214729,-0.877331,31.125,3,1532,197393
78,4,0.999094,0.0112734,0.0396723,0.0104924,-0.806817,0.0675241,9.78093,0.414085,-0.155503,0.818095,-0.00807221,0.000665613,0.0978091,1,4.84156e-05,-2.06235e-05,9.75484e-06,0.00968312,-0.0041247,0.00195097,0.999094,0.0112734,0.0396723,0.0104924,-0.305713,-0.0214729,-0.877331,31.125,3,1532,197393
79,1,0.999088,0.0112924,0.0396754,0.0110186,-0.797923,0.0575303,9.7896,0.42263,-0.168366,0.830762,-0.0079806,0.000566972,0.097896,1,4.24423e-05,-6.98468e-06,1.29627e-06,0.00848846,-0.00139694,0.000259253,0.999088,0.0112924,0.0396754,0.0110186,-0.304311,-0.0219366,-0.879368,31.125,3,1534,197593
79,2,0.999086,0.0113004,0.0397004,0.0111418,-0.818638,0.0609825,9.77144,0.402213,-0.165096,0.80593,-0.00818362,0.000601078,0.0977146,1,4.37424e-05,1.41951e-05,1.21441e-05,0.00874849,0.00283903,0.00242881,0.999086,0.0113004,0.0397004,0.0111418,-0.303336,-0.0219536,-0.878868,31.125,3,1535,197693
79,3,0.999086,0.0113282,0.0397016,0.0110505,-0.810356,0.0733165,9.78133,0.40587,-0.15111,0.81705,-0.00810481,0.000722531,0.0978133,1,5.28526e-05,-6.26397e-06,1.81774e-05,0.0105705,-0.00125279,0.00363547,0.999086,0.0113282,0.0397016,0.0110505,-0.304291,-0.0224333,-0.878874,31.125,3,1536,197793
79,4,0.999086,0.0113282,0.0397016,0.0110505,-0.810356,0.0733165,9.78133,0.40587,-0.15111,0.81705,-0.00810481,0.000722531,0.0978133,1,5.28526e-05,-6.26397e-06,1.81774e-05,0.0105705,-0.00125279,0.00363547,0.999086,0.0113282,0.0397016,0.0110505,-0.304291,-0.0224333,-0.878874,31.125,3,1536,197793
80,1,0.999084,0.01136,0.0397089,0.0111869,-0.801433,0.0675494,9.78326,0.418184,-0.161916,0.818254,-0.00801612,0.00066649,0.0978325,1,4.54169e-05,-9.09534e-06,7.31458e-06,0.00908338,-0.00181907,0.00146292,0.999084,0.01136,0.0397089,0.0111869,-0.302325,-0.0234429,-0.877896,31.125,3,1538,197993
80,2,0.999084,0.01136,0.0397089,0.0111869,-0.801433,0.0675494,9.78326,0.418184,-0.161916,0.818254,-0.00801612,0.00066649,0.0978325,1,4.54169e-05,-9.09534e-06,7.31458e-06,0.00908338,-0.00181907,0.00146292,0.999084,0.01136,0.0397089,0.0111869,-0.302325,-0.0234429,-0.877896,31.125,3,1538,197993
80,3,0.999087,0.0114052,0.0397126,0.0108239,-0.819006,0.067864,9.77048,0.398318,-0.162632,0.814713,-0.0081896,0.000667717,0.0977049,1,5.41397e-05,2.52407e-06,2.09436e-05,0.0108279,0.000504814,0.00418871,0.999087,0.0114052,0.0397126,0.0108239,-0.303275,-0.0234439,-0.877386,31.125,3,1539,198093
80,4,0.999087,0.0114052,0.0397126,0.0108239,-0.819006,0.067864,9.77048,0.398318,-0.162632,0.814713,-0.0081896,0.000667717,0.0977049,1,5.41397e-05,2.52407e-06,2.09436e-05,0.0108279,0.000504814,0.00418871,0.999087,0.0114052,0.0397126,0.0108239,-0.303275,-0.0234439,-0.877386,31.125,3,1539,198093
81,1,0.999089,0.0114478,0.0396984,0.010697,-0.79211,0.0524679,9.79121,0.421134,-0.179339,0.823984,-0.00792369,0.000515896,0.097912,1,4.33269e-05,-1.31075e-05,1.88167e-05,0.00866537,-0.00262149,0.00376333,0.999089,0.0114478,0.0396984,0.010697,-0.304307,-0.0229031,-0.879895,31.125,3,1541,198293
81,2,0.999087,0.0114478,0.0396936,0.0108705,-0.784709,0.0594484,9.77392,0.433645,-0.171957,0.815391,-0.00784992,0.000586756,0.097739,1,3.85083e-05,-1.44189e-05,1.27683e-05,0.00770167,-0.00288377,0.00255366,0.999087,0.0114478,0.0396936,0.0108705,-0.302843,-0.0234119,-0.879408,31.125,3,1542,198393
81,3,0.999087,0.0114478,0.0396936,0.0108705,-0.784709,0.0594484,9.77392,0.433645,-0.171957,0.815391,-0.00784992,0.000586756,0.097739,1,3.85083e-05,-1.44189e-05,1.27683e-05,0.00770167,-0.00288377,0.00255366,0.999087,0.0114478,0.0396936,0.0108705,-0.302843,-0.0234119,-0.879408,31.125,3,1542,198393
81,4,0.999087,0.0114478,0.0396936,0.0108705,-0.784709,0.0594484,9.77392,0.433645,-0.171957,0.815391,-0.00784992,0.000586756,0.097739,1,3.85083e-05,-1.44189e-05,1.27683e-05,0.00770167,-0.00288377,0.00255366,0.999087,0.0114478,0.0396936,0.0108705,-0.302843,-0.0234119,-0.879408,31.125,3,1542,198393
82,1,0.999092,0.0114831,0.0396251,0.0106647,-1.11198,0.0311507,9.59986,0.127805,-0.192463,0.656037,-0.0111302,0.000304442,0.0959974,1,3.55411e-05,-5.36908e-05,1.08535e-05,0.00710821,-0.0107382,0.00217069,0.999092,0.0114831,0.0396251,0.0106647,-0.302839,-0.0214878,-0.87785,31.125,3,1544,198593
82,2,0.999098,0.0115152,0.0395025,0.010532,-0.56465,0.0814183,9.64582,0.563484,-0.158302,0.6456,-0.00567047,0.000804451,0.0964569,1,4.89081e-05,-0.000124052,2.61779e-05,0.00978161,-0.0248104,0.00523557,0.999098,0.0115152,0.0395025,0.010532,-0.304323,-0.0219275,-0.879873,31.125,3,1545,198693
82,3,0.999099,0.0114944,0.0394156,0.0107164,-0.0656812,0.0587439,10.0029,1.17262,-0.183664,1.00742,-0.000675752,0.00058403,0.100028,1,1.69072e-05,-9.45588e-05,2.00566e-05,0.00338144,-0.0189118,0.00401132,0.999099,0.0114944,0.0394156,0.0107164,-0.306215,-0.0224173,-0.878865,31.125,3,1546,198793
82,4,0.999099,0.0114944,0.0394156,0.0107164,-0.0656812,0.0587439,10.0029,1.17262,-0.183664,1.00742,-0.000675752,0.00058403,0.100028,1,1.69072e-05,-9.45588e-05,2.00566e-05,0.00338144,-0.0189118,0.00401132,0.999099,0.0114944,0.0394156,0.0107164,-0.306215,-0.0224173,-0.878865,31.125,3,1546,198793
83,1,0.999099,0.0114892,0.0392537,0.011312,-0.328902,0.099636,9.73424,0.852317,-0.114843,0.724905,-0.00330674,0.000990038,0.0973418,1,3.2017e-05,-9.08635e-05,1.35346e-05,0.0064034,-0.0181727,0.00270691,0.999099,0.0114892,0.0392537,0.011312,-0.304266,-0.0224514,-0.877865,31.125,3,1548,198993
83,2,0.999099,0.0114892,0.0392537,0.011312,-0.328902,0.099636,9.73424,0.852317,-0.114843,0.724905,-0.00330674,0.000990038,0.0973418,1,3.2017e-05,-9.08635e-05,1.35346e-05,0.0064034,-0.0181727,0.00270691,0.999099,0.0114892,0.0392537,0.011312,-0.304266,-0.0224514,-0.877865,31.125,3,1548,198993
83,3,0.999104,0.011506,0.0391513,0.0112075,-0.375499,0.0580633,9.83736,0.77607,-0.168902,0.78157,-0.00377567,0.000573575,0.0983729,1,3.55049e-05,-0.000105089,9.60442e-06,0.00710098,-0.0210178,0.00192088,0.999104,0.011506,0.0391513,0.0112075,-0.303792,-0.0205223,-0.876814,31.125,3,1549,199093
83,4,0.999104,0.011506,0.0391513,0.0112075,-0.375499,0.0580633,9.83736,0.77607,-0.168902,0.78157,-0.00377567,0.000573575,0.0983729,1,3.55049e-05,-0.000105089,9.60442e-06,0.00710098,-0.0210178,0.00192088,0.999104,0.011506,0.0391513,0.0112075,-0.303792,-0.0205223,-0.876814,31.125,3,1549,199093
84,1,0.999115,0.01154,0.0389443,0.0109447,-0.123559,0.0454497,9.92749,1.04161,-0.172842,0.993066,-0.00125784,0.000449182,0.0992747,1,2.66716e-05,-0.000112001,7.60598e-06,0.00533432,-0.0224002,0.0015212,0.999115,0.01154,0.0389443,0.0109447,-0.304738,-0.0214899,-0.876831,31.125,3,1551,199293
84,2,0.999118,0.0115572,0.0388785,0.0108387,0.0428513,0.0484859,9.9345,1.27852,-0.136662,0.918118,0.000416234,0.000478247,0.0993451,1,3.33203e-05,-6.17546e-05,9.35341e-06,0.00666406,-0.0123509,0.00187068,0.999118,0.0115572,0.0388785,0.0108387,-0.30378,-0.0219766,-0.877351,31.125,3,1552,199393
84,3,0.999118,0.0115572,0.0388785,0.0108387,0.0428513,0.0484859,9.9345,1.27852,-0.136662,0.918118,0.000416234,0.000478247,0.0993451,1,3.33203e-05,-6.17546e-05,9.35341e-06,0.00666406,-0.0123509,0.00187068,0.999118,0.0115572,0.0388785,0.0108387,-0.30378,-0.0219766,-0.877351,31.125,3,1552,199393
84,4,0.999118,0.0115572,0.0388785,0.0108387,0.0428513,0.0484859,9.9345,1.27852,-0.136662,0.918118,0.000416234,0.000478247,0.0993451,1,3.33203e-05,-6.17546e-05,9.35341e-06,0.00666406,-0.0123509,0.00187068,0.999118,0.0115572,0.0388785,0.0108387,-0.30378,-0.0219766,-0.877351,31.125,3,1552,199393
85,1,0.999124,0.0116157,0.0388035,0.0105638,-0.301945,0.101602,9.79207,0.935763,-0.156057,0.77779,-0.00302442,0.00100651,0.0979206,1,4.90658e-05,-2.55331e-05,-1.61304e-05,0.00981317,-0.00510663,-0.00322609,0.999124,0.0116157,0.0388035,0.0105638,-0.306622,-0.0224674,-0.875834,31.125,3,1554,199593
85,2,0.999124,0.0116378,0.0387775,0.0106116,-0.28272,0.0822224,9.79923,0.915622,-0.205902,0.815256,-0.00283105,0.00081418,0.0979923,1,4.0777e-05,-1.95931e-05,9.25768e-06,0.0081554,-0.00391862,0.00185154,0.999124,0.0116378,0.0387775,0.0106116,-0.306194,-0.0214689,-0.877329,31.125,3,1555,199693
85,3,0.999124,0.0116359,0.0387461,0.0107151,-0.438981,0.0465182,9.82781,0.778193,-0.228087,0.846854,-0.00439488,0.000460149,0.0982779,1,2.57176e-05,-2.58141e-05,-2.51036e-06,0.00514353,-0.00516282,-0.000502071,0.999124,0.0116359,0.0387461,0.0107151,-0.304246,-0.0229482,-0.877371,31.125,3,1556,199793
85,4,0.999124,0.0116359,0.0387461,0.0107151,-0.438981,0.0465182,9.82781,0.778193,-0.228087,0.846854,-0.00439488,0.000460149,0.0982779,1,2.57176e-05,-2.58141e-05,-2.51036e-06,0.00514353,-0.00516282,-0.000502071,0.999124,0.0116359,0.0387461,0.0107151,-0.304246,-0.0229482,-0.877371,31.125,3,1556,199793
86,1,0.999129,0.0116789,0.0386948,0.0103657,-0.649444,0.0937774,9.66443,0.372465,-0.159536,0.700259,-0.00649915,0.000925403,0.0966441,1,6.48235e-05,-2.44594e-05,-1.21764e-05,0.0129647,-0.00489187,-0.00243529,0.999129,0.0116789,0.0386948,0.0103657,-0.304213,-0.023454,-0.876372,31.125,3,1558,199993
86,2,0.999129,0.0116789,0.0386948,0.0103657,-0.649444,0.0937774,9.66443,0.372465,-0.159536,0.700259,-0.00649915,0.000925403,0.0966441,1,6.48235e-05,-2.44594e-05,-1.21764e-05,0.0129647,-0.00489187,-0.00243529,0.999129,0.0116789,0.0386948,0.0103657,-0.304213,-0.023454,-0.876372,31.125,3,1558,199993
86,3,0.999134,0.0117306,0.038633,0.0100897,-0.629841,0.107499,9.71972,0.613424,-0.100979,0.726171,-0.00630804,0.00106248,0.0971968,1,6.66708e-05,-4.99219e-05,-3.55063e-05,0.0133342,-0.00998438,-0.00710127,0.999134,0.0117306,0.038633,0.0100897,-0.30469,-0.0244165,-0.876896,31.125,3,1559,200093
86,4,0.999134,0.0117306,0.038633,0.0100897,-0.629841,0.107499,9.71972,0.613424,-0.100979,0.726171,-0.00630804,0.00106248,0.0971968,1,6.66708e-05,-4.99219e-05,-3.55063e-05,0.0133342,-0.00998438,-0.00710127,0.999134,0.0117306,0.038633,0.0100897,-0.30469,-0.0244165,-0.876896,31.125,3,1559,200093
87,1,0.99914,0.0117409,0.0385405,0.00978738,-0.426447,-0.0124246,9.91104,0.829137,-0.290223,0.987367,-0.00426866,-0.000125044,0.0991102,1,4.06269e-06,-2.11199e-05,-8.55346e-07,0.000812537,-0.00422399,-0.000171069,0.99914,0.0117409,0.0385405,0.00978738,-0.304181,-0.025405,-0.876415,31.125,3,1561,200293
87,2,0.999144,0.0117581,0.0384965,0.00956897,-0.458335,0.0139716,9.85042,0.728433,-0.21213,0.8355,-0.00458956,0.000133136,0.0985039,1,3.37921e-05,-3.15403e-05,-8.36314e-06,0.00675842,-0.00630807,-0.00167263,0.999144,0.0117581,0.0384965,0.00956897,-0.304217,-0.0239327,-0.876888,31.125,3,1562,200393
87,3,0.999144,0.0117581,0.0384965,0.00956897,-0.458335,0.0139716,9.85042,0.728433,-0.21213,0.8355,-0.00458956,0.000133136,0.0985039,1,3.37921e-05,-3.15403e-05,-8.36314e-06,0.00675842,-0.00630807,-0.00167263,0.999144,0.0117581,0.0384965,0.00956897,-0.304217,-0.0239327,-0.876888,31.125,3,1562,200393
87,4,0.999144,0.0117581,0.0384965,0.00956897,-0.458335,0.0139716,9.85042,0.728433,-0.21213,0.8355,-0.00458956,0.000133136,0.0985039,1,3.37921e-05,-3.15403e-05,-8.36314e-06,0.00675842,-0.00630807,-0.00167263,0.999144,0.0117581,0.0384965,0.00956897,-0.304217,-0.0239327,-0.876888,31.125,3,1562,200393
88,1,0.999147,0.0118053,0.0384353,0.00939343,-0.835321,0.0851014,9.72736,0.339322,-0.0537971,0.740757,-0.00835948,0.000841691,0.0972731,1,4.8656e-05,-3.22904e-05,-8.52889e-06,0.00973121,-0.00645807,-0.00170578,0.999147,0.0118053,0.0384353,0.00939343,-0.305155,-0.025388,-0.876916,31.125,3,1564,200593
88,2,0.99915,0.0118325,0.0383797,0.00929757,-0.317391,0.000317344,9.87545,0.849057,-0.173618,0.875676,-0.00318288,-6.73573e-06,0.0987543,1,5.09191e-05,-4.54186e-05,-2.32497e-05,0.0101838,-0.00908372,-0.00464993,0.99915,0.0118325,0.0383797,0.00929757,-0.30617,-0.0229322,-0.877361,31.125,3,1565,200693
88,3,0.999152,0.0118551,0.0382969,0.00933928,-0.713522,0.132189,9.66056,0.116831,-0.191816,0.744879,-0.00714854,0.00131231,0.0966047,1,5.02551e-05,-6.90793e-05,-9.0823e-06,0.010051,-0.0138159,-0.00181646,0.999152,0.0118551,0.0382969,0.00933928,-0.306157,-0.0214959,-0.875814,31.125,3,1566,200793
88,4,0.999152,0.0118551,0.0382969,0.00933928,-0.713522,0.132189,9.66056,0.116831,-0.191816,0.744879,-0.00714854,0.00131231,0.0966047,1,5.02551e-05,-6.90793e-05,-9.0823e-06,0.010051,-0.0138159,-0.00181646,0.999152,0.0118551,0.0382969,0.00933928,-0.306157,-0.0214959,-0.875814,31.125,3,1566,200793
89,1,0.999158,0.0119018,0.038135,0.00931934,-0.357184,-0.106839,9.87188,0.95355,-0.200891,0.869526,-0.00359622,-0.00108118,0.0987178,1,6.49425e-05,-0.000123468,-5.03378e-06,0.0129885,-0.0246936,-0.00100676,0.999158,0.0119018,0.038135,0.00931934,-0.306654,-0.0205164,-0.87579,31.125,3,1568,200993
89,2,0.999158,0.0119018,0.038135,0.00931934,-0.357184,-0.106839,9.87188,0.95355,-0.200891,0.869526,-0.00359622,-0.00108118,0.0987178,1,6.49425e-05,-0.000123468,-5.03378e-06,0.0129885,-0.0246936,-0.00100676,0.999158,0.0119018,0.038135,0.00931934,-0.306654,-0.0205164,-0.87579,31.125,3,1568,200993
89,3,0.999162,0.0119132,0.0380363,0.00930968,0.128974,-0.0421487,10.0841,1.37033,-0.247146,0.961819,0.00127395,-0.000427978,0.100842,1,3.21882e-05,-7.82814e-05,2.4921e-07,0.00643764,-0.0156563,4.9842e-05,0.999162,0.0119132,0.0380363,0.00930968,-0.306671,-0.0195408,-0.875768,31.125,3,1569,201093
89,4,0.999162,0.0119132,0.0380363,0.00930968,0.128974,-0.0421487,10.0841,1.37033,-0.247146,0.961819,0.00127395,-0.000427978,0.100842,1,3.21882e-05,-7.82814e-05,2.4921e-07,0.00643764,-0.0156563,4.9842e-05,0.999162,0.0119132,0.0380363,0.00930968,-0.306671,-0.0195408,-0.875768,31.125,3,1569,201093
90,1,0.999163,0.0119177,0.0380059,0.00927531,-0.492853,0.468928,9.79243,0.738491,0.0409121,0.840287,-0.00492223,0.00468913,0.0979246,1,1.90316e-06,3.10818e-05,-2.21787e-05,0.000380633,0.00621635,-0.00443574,0.999163,0.0119177,0.0380059,0.00927531,-0.307605,-0.0219627,-0.876323,31.125,3,1571,201293
90,2,0.999164,0.0118982,0.0380047,0.00928928,-0.666727,0.24931,9.82124,0.608438,-0.141902,0.869798,-0.00666382,0.00249242,0.0982126,1,5.01668e-06,1.7024e-05,-2.26152e-05,0.00100334,0.00340479,-0.00452304,0.999164,0.0118982,0.0380047,0.00928928,-0.304681,-0.0220137,-0.874822,31.125,3,1572,201393
90,3,0.999164,0.0118982,0.0380047,0.00928928,-0.666727,0.24931,9.82124,0.608438,-0.141902,0.869798,-0.00666382,0.00249242,0.0982126,1,5.01668e-06,1.7024e-05,-2.26152e-05,0.00100334,0.00340479,-0.00452304,0.999164,0.0118982,0.0380047,0.00928928,-0.304681,-0.0220137,-0.874822,31.125,3,1572,201393
90,4,0.999164,0.0118982,0.0380047,0.00928928,-0.666727,0.24931,9.82124,0.608438,-0.141902,0.869798,-0.00666382,0.00249242,0.0982126,1,5.01668e-06,1.7024e-05,-2.26152e-05,0.00100334,0.00340479,-0.00452304,0.999164,0.0118982,0.0380047,0.00928928,-0.304681,-0.0220137,-0.874822,31.125,3,1572,201393
91,1,0.999172,0.0118882,0.0379406,0.00861157,-0.731643,0.0267024,9.76485,0.319274,-0.336383,0.799658,-0.00731975,0.000262314,0.0976482,1,2.76408e-05,-1.71181e-05,-4.70209e-05,0.00552815,-0.00342363,-0.00940417,0.999172,0.0118882,0.0379406,0.00861157,-0.302745,-0.023484,-0.875369,31.125,3,1574,201593
91,2,0.999174,0.0118428,0.0379465,0.00838413,-0.571216,0.0128238,9.7514,0.644439,-0.266767,0.78292,-0.00570713,0.000133307,0.0975143,1,-2.46506e-05,2.57605e-05,-2.29297e-05,-0.00493012,0.0051521,-0.00458593,0.999174,0.0118428,0.0379465,0.00838413,-0.303736,-0.0239367,-0.87689,31.125,3,1575,201693
91,3,0.999176,0.011788,0.0379334,0.00830131,-0.606065,-0.191378,9.77938,0.566925,-0.430318,0.768421,-0.00606018,-0.00190845,0.0977939,1,-2.56333e-05,2.94363e-06,-2.5769e-05,-0.00512666,0.000588726,-0.0051538,0.999176,0.011788,0.0379334,0.00830131,-0.304229,-0.0239237,-0.877392,31.125,3,1576,201793
91,4,0.999176,0.011788,0.0379334,0.00830131,-0.606065,-0.191378,9.77938,0.566925,-0.430318,0.768421,-0.00606018,-0.00190845,0.0977939,1,-2.56333e-05,2.94363e-06,-2.5769e-05,-0.00512666,0.000588726,-0.0051538,0.999176,0.011788,0.0379334,0.00830131,-0.304229,-0.0239237,-0.877392,31.125,3,1576,201793
92,1,0.999178,0.0117836,0.0379032,0.00820604,-0.541378,0.217015,9.80756,0.607904,0.00509084,0.826986,-0.00541444,0.00216336,0.0980757,1,3.69324e-05,-4.30917e-06,-4.17732e-05,0.00738648,-0.000861835,-0.00835463,0.999178,0.0117836,0.0379032,0.00820604,-0.304278,-0.0224424,-0.878369,31.125,3,1578,201993
92,2,0.999183,0.0117105,0.0378027,0.0081871,-0.757263,0.0794011,9.71493,0.359595,-0.141743,0.738576,-0.00758317,0.000797379,0.0971484,1,-1.60897e-05,-5.43966e-05,-1.5952e-05,-0.00321793,-0.0108793,-0.0031904,0.999183,0.0117105,0.0378027,0.0081871,-0.303279,-0.0210321,-0.875817,31.125,3,1580,202193
92,3,0.999188,0.0116638,0.0377321,0.00801405,-0.43441,0.0185718,9.86928,0.780401,-0.206564,0.860944,-0.00435364,0.000190637,0.0986924,1,-2.42165e-05,-4.83522e-05,-1.59982e-05,-0.00484331,-0.00967045,-0.00319963,0.999188,0.0116638,0.0377321,0.00801405,-0.303319,-0.0200386,-0.876805,31.125,3,1581,202293
92,4,0.999191,0.011603,0.037695,0.00792439,-0.489947,0.0574111,9.86963,0.682246,-0.214493,0.893229,-0.00490213,0.000580854,0.0986962,1,-3.37847e-05,-1.35135e-05,-7.47664e-06,-0.00675694,-0.00270269,-0.00149533,0.999191,0.011603,0.037695,0.00792439,-0.304265,-0.0210061,-0.876822,31.125,3,1582,202393
93,1,0.999194,0.0115427,0.0376406,0.00784506,-0.540214,0.141302,9.84492,0.632625,-0.11152,0.885884,-0.00540868,0.00141987,0.0984487,1,-3.36393e-05,-3.35202e-05,-2.09342e-05,-0.00672785,-0.00670405,-0.00418685,0.999194,0.0115427,0.0376406,0.00784506,-0.304228,-0.0210331,-0.875308,31.125,3,1583,202493
93,2,0.999201,0.0114256,0.0375546,0.00754061,-0.753722,0.146778,9.7175,0.438934,-0.0139071,0.767841,-0.00754107,0.00147556,0.0971746,1,-3.64377e-05,-2.05358e-05,-4.67862e-05,-0.00728753,-0.00410716,-0.00935723,0.999201,0.0114256,0.0375546,0.00754061,-0.304727,-0.0229442,-0.877368,31.125,3,1585,202693
93,3,0.999201,0.0114256,0.0375546,0.00754061,-0.753722,0.146778,9.7175,0.438934,-0.0139071,0.767841,-0.00754107,0.00147556,0.0971746,1,-3.64377e-05,-2.05358e-05,-4.67862e-05,-0.00728753,-0.00410716,-0.00935723,0.999201,0.0114256,0.0375546,0.00754061,-0.304727,-0.0229442,-0.877368,31.125,3,1585,202693
93,4,0.999204,0.0113608,0.0374981,0.00751539,-0.382774,0.139623,9.73156,0.771675,-0.0187743,0.732118,-0.00383591,0.00140366,0.0973152,1,-3.68021e-05,-4.24696e-05,-3.46701e-05,-0.00736042,-0.00849393,-0.00693403,0.999204,0.0113608,0.0374981,0.00751539,-0.303288,-0.0234349,-0.877891,31.125,3,1586,202793
94,1,0.999208,0.0112596,0.0374207,0.00750952,-0.454286,0.0437863,9.70104,0.711599,-0.149634,0.69584,-0.00455542,0.000451851,0.0970097,1,-7.07177e-05,-6.48796e-05,-2.94376e-05,-0.0141435,-0.0129759,-0.00588753,0.999208,0.0112596,0.0374207,0.00750952,-0.303793,-0.0234129,-0.878898,31.125,3,1587,202893
94,2,0.999215,0.0110781,0.0372842,0.00744923,-0.362739,0.0233978,9.72227,0.827876,-0.226053,0.758136,-0.00363621,0.000245199,0.0972224,1,-5.53806e-05,-4.55407e-05,-6.23752e-05,-0.0110761,-0.00910813,-0.012475,0.999215,0.0110781,0.0372842,0.00744923,-0.304755,-0.0219596,-0.877851,31.125,3,1589,203093
94,3,0.999215,0.0110781,0.0372842,0.00744923,-0.362739,0.0233978,9.72227,0.827876,-0.226053,0.758136,-0.00363621,0.000245199,0.0972224,1,-5.53806e-05,-4.55407e-05,-6.23752e-05,-0.0110761,-0.00910813,-0.012475,0.999215,0.0110781,0.0372842,0.00744923,-0.304755,-0.0219596,-0.877851,31.125,3,1589,203093
94,4,0.999215,0.0110781,0.0372842,0.00744923,-0.362739,0.0233978,9.72227,0.827876,-0.226053,0.758136,-0.00363621,0.000245199,0.0972224,1,-5.53806e-05,-4.55407e-05,-6.23752e-05,-0.0110761,-0.00910813,-0.012475,0.999215,0.0110781,0.0372842,0.00744923,-0.304755,-0.0219596,-0.877851,31.125,3,1589,203093
95,1,0.999224,0.0109107,0.0371215,0.00734142,-0.139461,-0.108596,9.9103,0.989762,-0.287362,0.896634,-0.00140373,-0.00107441,0.099103,1,-5.7861e-05,-4.57017e-05,-2.5672e-05,-0.0115722,-0.00914033,-0.0051344,0.999224,0.0109107,0.0371215,0.00734142,-0.3057,-0.0200366,-0.875784,31.125,3,1591,203293
95,2,0.999228,0.0108224,0.0370746,0.00725674,-0.39927,-0.169271,9.84401,0.793986,-0.350074,0.868932,-0.003998,-0.00167903,0.0984401,1,-6.91173e-05,-2.67396e-05,-9.28685e-06,-0.0138235,-0.00534791,-0.00185737,0.999228,0.0108224,0.0370746,0.00725674,-0.306177,-0.0195538,-0.875266,31.125,3,1592,203393
95,3,0.999228,0.0108224,0.0370746,0.00725674,-0.39927,-0.169271,9.84401,0.793986,-0.350074,0.868932,-0.003998,-0.00167903,0.0984401,1,-6.91173e-05,-2.67396e-05,-9.28685e-06,-0.0138235,-0.00534791,-0.00185737,0.999228,0.0108224,0.0370746,0.00725674,-0.306177,-0.0195538,-0.875266,31.125,3,1592,203393
95,4,0.999228,0.0108224,0.0370746,0.00725674,-0.39927,-0.169271,9.84401,0.793986,-0.350074,0.868932,-0.003998,-0.00167903,0.0984401,1,-6.91173e-05,-2.67396e-05,-9.28685e-06,-0.0138235,-0.00534791,-0.00185737,0.999228,0.0108224,0.0370746,0.00725674,-0.306177,-0.0195538,-0.875266,31.125,3,1592,203393
96,1,0.999237,0.010605,0.0369351,0.00704602,-0.522204,-0.291652,9.80356,0.510765,-0.467905,0.783358,-0.00523498,-0.00290361,0.0980353,1,-6.42914e-05,-6.5144e-05,-2.89521e-05,-0.0128583,-0.0130288,-0.00579043,0.999237,0.010605,0.0369351,0.00704602,-0.306181,-0.0200326,-0.875782,31.125,3,1594,203593
96,2,0.99924,0.0105618,0.036868,0.00696374,-0.242324,-0.118621,9.95961,0.94026,-0.071274,0.927075,-0.00243315,-0.00118168,0.0995959,1,-2.20347e-05,-4.93778e-05,-2.86408e-05,-0.00440694,-0.00987557,-0.00572815,0.99924,0.0105618,0.036868,0.00696374,-0.306165,-0.0210081,-0.875803,31.125,3,1595,203693
96,3,0.999243,0.010528,0.036814,0.00689678,-0.339713,-0.25355,9.93459,0.830095,-0.210384,0.965822,-0.00340472,-0.00253294,0.0993457,1,-1.19341e-05,-3.75029e-05,-2.76597e-05,-0.00238682,-0.00750059,-0.00553194,0.999243,0.010528,0.036814,0.00689678,-0.305725,-0.0214638,-0.877836,31.125,3,1596,203793
96,4,0.999243,0.010528,0.036814,0.00689678,-0.339713,-0.25355,9.93459,0.830095,-0.210384,0.965822,-0.00340472,-0.00253294,0.0993457,1,-1.19341e-05,-3.75029e-05,-2.76597e-05,-0.00238682,-0.00750059,-0.00553194,0.999243,0.010528,0.036814,0.00689678,-0.305725,-0.0214638,-0.877836,31.125,3,1596,203793
97,1,0.999243,0.0105885,0.0367919,0.00683474,-0.471412,-0.0383524,9.77303,0.759402,-0.139272,0.770741,-0.00471473,-0.000397073,0.0977302,1,7.14861e-05,-2.94376e-06,-4.49042e-05,0.0142972,-0.000588752,-0.00898083,0.999243,0.0105885,0.0367919,0.00683474,-0.305207,-0.0200496,-0.875281,31.125,3,1598,203993
97,2,0.999246,0.0106169,0.0367274,0.00672503,-0.305309,0.0174998,9.75711,0.787442,-0.201606,0.737331,-0.0030623,0.000165306,0.0975709,1,5.08722e-05,-4.72821e-05,-3.85387e-05,0.0101744,-0.00945642,-0.00770774,0.999246,0.0106169,0.0367274,0.00672503,-0.305729,-0.019052,-0.876267,31.125,3,1599,204093
97,3,0.999246,0.0106169,0.0367274,0.00672503,-0.305309,0.0174998,9.75711,0.787442,-0.201606,0.737331,-0.0030623,0.000165306,0.0975709,1,5.08722e-05,-4.72821e-05,-3.85387e-05,0.0101744,-0.00945642,-0.00770774,0.999246,0.0106169,0.0367274,0.00672503,-0.305729,-0.019052,-0.876267,31.125,3,1599,204093
97,4,0.999246,0.0106169,0.0367274,0.00672503,-0.305309,0.0174998,9.75711,0.787442,-0.201606,0.737331,-0.0030623,0.000165306,0.0975709,1,5.08722e-05,-4.72821e-05,-3.85387e-05,0.0101744,-0.00945642,-0.00770774,0.999246,0.0106169,0.0367274,0.00672503,-0.305729,-0.019052,-0.876267,31.125,3,1599,204093
98,1,0.999252,0.010633,0.0365921,0.00657448,-0.447218,0.0331096,9.79961,0.614831,-0.220424,0.80256,-0.00448171,0.000323978,0.0979957,1,3.78693e-05,-4.8727e-05,-3.39075e-05,0.00757386,-0.00974539,-0.00678149,0.999252,0.010633,0.0365921,0.00657448,-0.303784,-0.0210101,-0.876825,31.125,3,1601,204293
98,2,0.999254,0.010662,0.0365311,0.00654397,-0.0806792,-0.016878,9.87676,1.08949,-0.247284,0.835888,-0.000815641,-0.00017957,0.0987675,1,5.47484e-05,-4.47655e-05,-1.52653e-05,0.0109497,-0.0089531,-0.00305306,0.999254,0.010662,0.0365311,0.00654397,-0.304718,-0.0219867,-0.876337,31.125,3,1602,204393
98,3,0.999254,0.010662,0.0365311,0.00654397,-0.0806792,-0.016878,9.87676,1.08949,-0.247284,0.835888,-0.000815641,-0.00017957,0.0987675,1,5.47484e-05,-4.47655e-05,-1.52653e-05,0.0109497,-0.0089531,-0.00305306,0.999254,0.010662,0.0365311,0.00654397,-0.304718,-0.0219867,-0.876337,31.125,3,1602,204393
98,4,0.999254,0.010662,0.0365311,0.00654397,-0.0806792,-0.016878,9.87676,1.08949,-0.247284,0.835888,-0.000815641,-0.00017957,0.0987675,1,5.47484e-05,-4.47655e-05,-1.52653e-05,0.0109497,-0.0089531,-0.00305306,0.999254,0.010662,0.0365311,0.00654397,-0.304718,-0.0219867,-0.876337,31.125,3,1602,204393
99,1,0.999262,0.0106978,0.0363269,0.00641693,-0.392296,-0.0199382,9.69842,0.594894,-0.22014,0.683011,-0.00394717,-0.00020732,0.0969832,1,4.24822e-05,-0.000124725,-3.82952e-05,0.00849645,-0.024945,-0.00765903,0.999262,0.0106978,0.0363269,0.00641693,-0.304709,-0.0181386,-0.873221,31.125,3,1604,204593
99,2,0.999268,0.0107317,0.0361913,0.00627395,0.234237,-0.00493673,9.89713,1.33446,-0.187819,0.887256,0.00231938,-6.02807e-05,0.0989718,1,5.4221e-05,-0.000116118,-3.87692e-05,0.0108442,-0.0232235,-0.00775385,0.999268,0.0107317,0.0361913,0.00627395,-0.305226,-0.0166623,-0.873691,31.125,3,1605,204693
99,3,0.999273,0.0107514,0.0360629,0.00614366,0.105088,0.0056279,9.94526,1.27301,-0.118173,0.953862,0.0010297,4.79809e-05,0.0994528,1,4.13088e-05,-0.000106493,-3.91938e-05,0.00826175,-0.0212986,-0.00783877,0.999273,0.0107514,0.0360629,0.00614366,-0.304754,-0.0176238,-0.874725,31.125,3,1606,204793
99,4,0.999273,0.0107514,0.0360629,0.00614366,0.105088,0.0056279,9.94526,1.27301,-0.118173,0.953862,0.0010297,4.79809e-05,0.0994528,1,4.13088e-05,-0.000106493,-3.91938e-05,0.00826175,-0.0212986,-0.00783877,0.999273,0.0107514,0.0360629,0.00614366,-0.304754,-0.0176238,-0.874725,31.125,3,1606,204793
100,1,0.999281,0.010865,0.0358354,0.0059572,0.520418,0.133467,10.0114,1.70374,0.0323452,0.932509,0.0051932,0.00131653,0.100115,1,8.72322e-05,-5.56909e-05,-6.43297e-05,0.0174464,-0.0111382,-0.0128659,0.999281,0.010865,0.0358354,0.0059572,-0.306663,-0.0200286,-0.875779,31.125,3,1608,204993
100,2,0.999283,0.0109306,0.0357782,0.00587613,-0.172101,-0.00776501,9.908,0.99074,-0.131555,0.864235,-0.00172814,-9.54856e-05,0.0990798,1,9.11888e-05,-3.59411e-05,-6.79688e-05,0.0182378,-0.00718821,-0.0135938,0.999283,0.0109306,0.0357782,0.00587613,-0.308546,-0.0195609,-0.87374,31.125,3,1609,205093
100,3,0.999283,0.0109306,0.0357782,0.00587613,-0.172101,-0.00776501,9.908,0.99074,-0.131555,0.864235,-0.00172814,-9.54856e-05,0.0990798,1,9.11888e-05,-3.59411e-05,-6.79688e-05,0.0182378,-0.00718821,-0.0135938,0.999283,0.0109306,0.0357782,0.00587613,-0.308546,-0.0195609,-0.87374,31.125,3,1609,205093
100,4,0.999283,0.0109306,0.0357782,0.00587613,-0.172101,-0.00776501,9.908,0.99074,-0.131555,0.864235,-0.00172814,-9.54856e-05,0.0990798,1,9.11888e-05,-3.59411e-05,-6.79688e-05,0.0182378,-0.00718821,-0.0135938,0.999283,0.0109306,0.0357782,0.00587613,-0.308546,-0.0195609,-0.87374,31.125,3,1609,205093
101,1,0.999285,0.010989,0.0357336,0.00568332,-0.0909864,0.0459053,9.85328,1.21824,-0.254438,0.884569,-0.00090137,0.000453906,0.0985329,1,2.65692e-05,4.2876e-05,-4.93591e-05,0.00531385,0.0085752,-0.00987182,0.999285,0.010989,0.0357336,0.00568332,-0.30656,-0.019622,-0.871225,31.125,3,1611,205293
