frame_id,imu_idx,quat_w,quat_x,quat_y,quat_z,accel_x,accel_y,accel_z,free_accel_x,free_accel_y,free_accel_z,delta_v_x,delta_v_y,delta_v_z,delta_q_w,delta_q_x,delta_q_y,delta_q_z,rate_x,rate_y,rate_z,quat_w,quat_x,quat_y,quat_z,mag_x,mag_y,mag_z,temperature,status_byte,packet_counter,time_fine
1,1,0.934738,-0.0237984,0.0664808,0.34825,-0.735738,-0.0634645,9.81799,0.863053,0.0488971,1.03926,-0.00736,-0.000643194,0.0981797,1,4.2854e-05,-1.3385e-05,9.13222e-06,0.00857079,-0.00267699,0.00182644,0.934738,-0.0237984,0.0664808,0.34825,0.523687,0.258426,-0.959283,34.0625,3,62602,6373432
1,2,0.934738,-0.0237984,0.0664808,0.34825,-0.517143,-0.0487379,7.32565,0.863053,0.0488971,1.03926,-0.00517221,-0.000493415,0.0732564,1,3.97639e-05,-5.42567e-06,2.02859e-05,0.00795277,-0.00108513,0.00405718,0.934738,-0.0237984,0.0664808,0.34825,0.0764535,0.498429,-1.02057,34,1,65145,6629245
1,3,0.934738,-0.0237984,0.0664808,0.34825,-0.517143,-0.0487379,7.32565,0.863053,0.0488971,1.03926,-0.00517221,-0.000493415,0.0732564,1,3.97639e-05,-5.42567e-06,2.02859e-05,0.00795277,-0.00108513,0.00405718,0.934738,-0.0237984,0.0664808,0.34825,0.0764535,0.498429,-1.02057,34,1,65145,6629245
1,4,0.934738,-0.0237984,0.0664808,0.34825,-0.517143,-0.0487379,7.32565,0.863053,0.0488971,1.03926,-0.00517221,-0.000493415,0.0732564,1,3.97639e-05,-5.42567e-06,2.02859e-05,0.00795277,-0.00108513,0.00405718,0.934738,-0.0237984,0.0664808,0.34825,0.0764535,0.498429,-1.02057,34,1,65145,6629245
2,1,0.999374,-0.00332149,0.0352243,-0.000114593,-0.679278,-0.0494893,9.78761,0.0793667,-0.469159,1.02633,-0.0067951,-0.000501925,0.0978759,1,3.55784e-05,-1.18856e-05,4.99373e-06,0.00711567,-0.00237712,0.000998745,0.999374,-0.00332149,0.0352243,-0.000114593,0.0769498,0.494559,-1.02268,34,1,65146,6629345
2,2,0.999374,-0.00332149,0.0352243,-0.000114593,-0.679278,-0.0494893,9.78761,0.0793667,-0.469159,1.02633,-0.0067951,-0.000501925,0.0978759,1,3.55784e-05,-1.18856e-05,4.99373e-06,0.00711567,-0.00237712,0.000998745,0.999374,-0.00332149,0.0352243,-0.000114593,0.0769498,0.494559,-1.02268,34,1,65146,6629345
2,3,0.999374,-0.00332149,0.0352243,-0.000114593,-0.679278,-0.0494893,9.78761,0.0793667,-0.469159,1.02633,-0.0067951,-0.000501925,0.0978759,1,3.55784e-05,-1.18856e-05,4.99373e-06,0.00711567,-0.00237712,0.000998745,0.999374,-0.00332149,0.0352243,-0.000114593,0.0769498,0.494559,-1.02268,34,1,65146,6629345
2,4,0.999374,-0.00323807,0.0352209,-8.98072e-05,-0.677651,-0.0576778,9.78243,0.077808,-0.478566,1.0187,-0.00677749,-0.000588451,0.0978242,1,5.84777e-05,-5.14454e-06,1.70955e-05,0.0116955,-0.00102891,0.0034191,0.999374,-0.00323807,0.0352209,-8.98072e-05,0.0746335,0.490659,-1.02175,34,1,65147,6629445
3,1,0.999374,-0.00323807,0.0352209,-8.98072e-05,-0.677651,-0.0576778,9.78243,0.077808,-0.478566,1.0187,-0.00677749,-0.000588451,0.0978242,1,5.84777e-05,-5.14454e-06,1.70955e-05,0.0116955,-0.00102891,0.0034191,0.999374,-0.00323807,0.0352209,-8.98072e-05,0.0746335,0.490659,-1.02175,34,1,65147,6629445
3,2,0.999374,-0.00323807,0.0352209,-8.98072e-05,-0.677651,-0.0576778,9.78243,0.077808,-0.478566,1.0187,-0.00677749,-0.000588451,0.0978242,1,5.84777e-05,-5.14454e-06,1.70955e-05,0.0116955,-0.00102891,0.0034191,0.999374,-0.00323807,0.0352209,-8.98072e-05,0.0746335,0.490659,-1.02175,34,1,65147,6629445
3,3,0.999375,-0.00319279,0.035212,-7.22194e-05,-0.678936,-0.0562936,9.78517,0.0818443,-0.471944,1.02875,-0.00679104,-0.000571952,0.0978516,1,4.46513e-05,-8.72476e-06,2.04648e-05,0.00893027,-0.00174495,0.00409297,0.999375,-0.00319279,0.035212,-7.22194e-05,0.0747564,0.489123,-1.01774,34,1,65148,6629545
3,4,0.999375,-0.00319279,0.035212,-7.22194e-05,-0.678936,-0.0562936,9.78517,0.0818443,-0.471944,1.02875,-0.00679104,-0.000571952,0.0978516,1,4.46513e-05,-8.72476e-06,2.04648e-05,0.00893027,-0.00174495,0.00409297,0.999375,-0.00319279,0.035212,-7.22194e-05,0.0747564,0.489123,-1.01774,34,1,65148,6629545
4,1,0.999375,-0.00319279,0.035212,-7.22194e-05,-0.678936,-0.0562936,9.78517,0.0818443,-0.471944,1.02875,-0.00679104,-0.000571952,0.0978516,1,4.46513e-05,-8.72476e-06,2.04648e-05,0.00893027,-0.00174495,0.00409297,0.999375,-0.00319279,0.035212,-7.22194e-05,0.0747564,0.489123,-1.01774,34,1,65148,6629545
4,2,0.999375,-0.00315847,0.0352159,-5.63727e-05,-0.692632,-0.0591659,9.79032,0.0720735,-0.472177,1.03088,-0.00692547,-0.000598452,0.0979032,1,3.34307e-05,4.23228e-06,1.78142e-05,0.00668614,0.000846456,0.00356285,0.999375,-0.00315847,0.0352159,-5.63727e-05,0.0757276,0.491518,-1.01567,34,1,65149,6629645
4,3,0.999375,-0.00315847,0.0352159,-5.63727e-05,-0.692632,-0.0591659,9.79032,0.0720735,-0.472177,1.03088,-0.00692547,-0.000598452,0.0979032,1,3.34307e-05,4.23228e-06,1.78142e-05,0.00668614,0.000846456,0.00356285,0.999375,-0.00315847,0.0352159,-5.63727e-05,0.0757276,0.491518,-1.01567,34,1,65149,6629645
4,4,0.999375,-0.00315847,0.0352159,-5.63727e-05,-0.692632,-0.0591659,9.79032,0.0720735,-0.472177,1.03088,-0.00692547,-0.000598452,0.0979032,1,3.34307e-05,4.23228e-06,1.78142e-05,0.00668614,0.000846456,0.00356285,0.999375,-0.00315847,0.0352159,-5.63727e-05,0.0757276,0.491518,-1.01567,34,1,65149,6629645
7,1,0.999375,-0.00310133,0.0352095,-3.59838e-05,-0.679579,-0.0640649,9.79291,0.0813404,-0.476334,1.02958,-0.00679702,-0.000652064,0.0979289,1,5.66839e-05,-6.47298e-06,2.29797e-05,0.0113368,-0.0012946,0.00459594,0.999375,-0.00310133,0.0352095,-3.59838e-05,0.0775909,0.492993,-1.01716,34,1,65150,6629745
7,2,0.999375,-0.00310133,0.0352095,-3.59838e-05,-0.679579,-0.0640649,9.79291,0.0813404,-0.476334,1.02958,-0.00679702,-0.000652064,0.0979289,1,5.66839e-05,-6.47298e-06,2.29797e-05,0.0113368,-0.0012946,0.00459594,0.999375,-0.00310133,0.0352095,-3.59838e-05,0.0775909,0.492993,-1.01716,34,1,65150,6629745
7,3,0.999375,-0.00310133,0.0352095,-3.59838e-05,-0.679579,-0.0640649,9.79291,0.0813404,-0.476334,1.02958,-0.00679702,-0.000652064,0.0979289,1,5.66839e-05,-6.47298e-06,2.29797e-05,0.0113368,-0.0012946,0.00459594,0.999375,-0.00310133,0.0352095,-3.59838e-05,0.0775909,0.492993,-1.01716,34,1,65150,6629745
7,4,0.999376,-0.00305884,0.0351896,-2.31339e-05,-0.689088,-0.0569994,9.78557,0.0679377,-0.479802,1.02281,-0.00689474,-0.00057826,0.0978554,1,4.12277e-05,-1.97998e-05,1.4339e-05,0.00824555,-0.00395997,0.0028678,0.999376,-0.00305884,0.0351896,-2.31339e-05,0.078434,0.493553,-1.0217,34,1,65151,6629845
8,1,0.999376,-0.00305884,0.0351896,-2.31339e-05,-0.689088,-0.0569994,9.78557,0.0679377,-0.479802,1.02281,-0.00689474,-0.00057826,0.0978554,1,4.12277e-05,-1.97998e-05,1.4339e-05,0.00824555,-0.00395997,0.0028678,0.999376,-0.00305884,0.0351896,-2.31339e-05,0.078434,0.493553,-1.0217,34,1,65151,6629845
8,2,0.999376,-0.00305884,0.0351896,-2.31339e-05,-0.689088,-0.0569994,9.78557,0.0679377,-0.479802,1.02281,-0.00689474,-0.00057826,0.0978554,1,4.12277e-05,-1.97998e-05,1.4339e-05,0.00824555,-0.00395997,0.0028678,0.999376,-0.00305884,0.0351896,-2.31339e-05,0.078434,0.493553,-1.0217,34,1,65151,6629845
8,3,0.999376,-0.00301751,0.0351808,-2.93582e-06,-0.693787,-0.0652733,9.7835,0.0607366,-0.486561,1.01696,-0.00693957,-0.000660825,0.0978349,1,3.98272e-05,-8.83792e-06,2.1545e-05,0.00796545,-0.00176758,0.004309,0.999376,-0.00301751,0.0351808,-2.93582e-06,0.0760114,0.491658,-1.02375,34,1,65152,6629945
8,4,0.999376,-0.00301751,0.0351808,-2.93582e-06,-0.693787,-0.0652733,9.7835,0.0607366,-0.486561,1.01696,-0.00693957,-0.000660825,0.0978349,1,3.98272e-05,-8.83792e-06,2.1545e-05,0.00796545,-0.00176758,0.004309,0.999376,-0.00301751,0.0351808,-2.93582e-06,0.0760114,0.491658,-1.02375,34,1,65152,6629945
8,5,0.999376,-0.00301751,0.0351808,-2.93582e-06,-0.693787,-0.0652733,9.7835,0.0607366,-0.486561,1.01696,-0.00693957,-0.000660825,0.0978349,1,3.98272e-05,-8.83792e-06,2.1545e-05,0.00796545,-0.00176758,0.004309,0.999376,-0.00301751,0.0351808,-2.93582e-06,0.0760114,0.491658,-1.02375,34,1,65152,6629945
8,6,0.999377,-0.00297665,0.0351683,1.43625e-05,-0.679889,-0.0576186,9.78788,0.0748079,-0.478568,1.02829,-0.0068013,-0.00058425,0.0978786,1,3.98922e-05,-1.23941e-05,1.87345e-05,0.00797844,-0.00247882,0.00374691,0.999377,-0.00297665,0.0351683,1.43625e-05,0.074662,0.489674,-1.02126,34,1,65153,6630045
9,1,0.999377,-0.00297665,0.0351683,1.43625e-05,-0.679889,-0.0576186,9.78788,0.0748079,-0.478568,1.02829,-0.0068013,-0.00058425,0.0978786,1,3.98922e-05,-1.23941e-05,1.87345e-05,0.00797844,-0.00247882,0.00374691,0.999377,-0.00297665,0.0351683,1.43625e-05,0.074662,0.489674,-1.02126,34,1,65153,6630045
9,2,0.999377,-0.00297665,0.0351683,1.43625e-05,-0.679889,-0.0576186,9.78788,0.0748079,-0.478568,1.02829,-0.0068013,-0.00058425,0.0978786,1,3.98922e-05,-1.23941e-05,1.87345e-05,0.00797844,-0.00247882,0.00374691,0.999377,-0.00297665,0.0351683,1.43625e-05,0.074662,0.489674,-1.02126,34,1,65153,6630045
9,3,0.999377,-0.00294211,0.0351707,3.62379e-05,-0.692534,-0.0617346,9.79505,0.068801,-0.483858,1.03665,-0.00692485,-0.000624156,0.0979505,1,3.31234e-05,2.34326e-06,2.31992e-05,0.00662469,0.000468651,0.00463984,0.999377,-0.00294211,0.0351707,3.62379e-05,0.0761959,0.490078,-1.01722,34,1,65154,6630145
9,4,0.999377,-0.00294211,0.0351707,3.62379e-05,-0.692534,-0.0617346,9.79505,0.068801,-0.483858,1.03665,-0.00692485,-0.000624156,0.0979505,1,3.31234e-05,2.34326e-06,2.31992e-05,0.00662469,0.000468651,0.00463984,0.999377,-0.00294211,0.0351707,3.62379e-05,0.0761959,0.490078,-1.01722,34,1,65154,6630145
10,1,0.999377,-0.00294211,0.0351707,3.62379e-05,-0.692534,-0.0617346,9.79505,0.068801,-0.483858,1.03665,-0.00692485,-0.000624156,0.0979505,1,3.31234e-05,2.34326e-06,2.31992e-05,0.00662469,0.000468651,0.00463984,0.999377,-0.00294211,0.0351707,3.62379e-05,0.0761959,0.490078,-1.01722,34,1,65154,6630145
10,2,0.999378,-0.00289317,0.0351591,4.78932e-05,-0.69175,-0.0694182,9.78684,0.0631791,-0.489423,1.02483,-0.00691977,-0.00070387,0.0978682,1,4.85479e-05,-1.16622e-05,1.34055e-05,0.00970959,-0.00233244,0.0026811,0.999378,-0.00289317,0.0351591,4.78932e-05,0.0767103,0.491013,-1.01518,34,1,65155,6630245
10,3,0.999378,-0.00289317,0.0351591,4.78932e-05,-0.69175,-0.0694182,9.78684,0.0631791,-0.489423,1.02483,-0.00691977,-0.00070387,0.0978682,1,4.85479e-05,-1.16622e-05,1.34055e-05,0.00970959,-0.00233244,0.0026811,0.999378,-0.00289317,0.0351591,4.78932e-05,0.0767103,0.491013,-1.01518,34,1,65155,6630245
10,4,0.999378,-0.00289317,0.0351591,4.78932e-05,-0.69175,-0.0694182,9.78684,0.0631791,-0.489423,1.02483,-0.00691977,-0.00070387,0.0978682,1,4.85479e-05,-1.16622e-05,1.34055e-05,0.00970959,-0.00233244,0.0026811,0.999378,-0.00289317,0.0351591,4.78932e-05,0.0767103,0.491013,-1.01518,34,1,65155,6630245
10,5,0.999378,-0.00285684,0.0351521,6.26329e-05,-0.691144,-0.067773,9.78447,0.0623321,-0.49077,1.01974,-0.00691282,-0.00068494,0.0978445,1,3.5746e-05,-7.14337e-06,1.55308e-05,0.00714919,-0.00142867,0.00310616,0.999378,-0.00285684,0.0351521,6.26329e-05,0.0786228,0.492452,-1.01465,34,1,65156,6630345
10,6,0.999378,-0.00285684,0.0351521,6.26329e-05,-0.691144,-0.067773,9.78447,0.0623321,-0.49077,1.01974,-0.00691282,-0.00068494,0.0978445,1,3.5746e-05,-7.14337e-06,1.55308e-05,0.00714919,-0.00142867,0.00310616,0.999378,-0.00285684,0.0351521,6.26329e-05,0.0786228,0.492452,-1.01465,34,1,65156,6630345
11,1,0.999378,-0.00285684,0.0351521,6.26329e-05,-0.691144,-0.067773,9.78447,0.0623321,-0.49077,1.01974,-0.00691282,-0.00068494,0.0978445,1,3.5746e-05,-7.14337e-06,1.55308e-05,0.00714919,-0.00142867,0.00310616,0.999378,-0.00285684,0.0351521,6.26329e-05,0.0786228,0.492452,-1.01465,34,1,65156,6630345
11,2,0.999379,-0.00281801,0.0351348,7.25457e-05,-0.685134,-0.0640373,9.80347,0.0678455,-0.486625,1.03636,-0.00685472,-0.000648047,0.0980344,1,3.83537e-05,-1.72966e-05,1.12653e-05,0.00767074,-0.00345933,0.00225306,0.999379,-0.00281801,0.0351348,7.25457e-05,0.0789607,0.49448,-1.01916,34,1,65157,6630445
11,3,0.999379,-0.00281801,0.0351348,7.25457e-05,-0.685134,-0.0640373,9.80347,0.0678455,-0.486625,1.03636,-0.00685472,-0.000648047,0.0980344,1,3.83537e-05,-1.72966e-05,1.12653e-05,0.00767074,-0.00345933,0.00225306,0.999379,-0.00281801,0.0351348,7.25457e-05,0.0789607,0.49448,-1.01916,34,1,65157,6630445
11,4,0.999379,-0.00281801,0.0351348,7.25457e-05,-0.685134,-0.0640373,9.80347,0.0678455,-0.486625,1.03636,-0.00685472,-0.000648047,0.0980344,1,3.83537e-05,-1.72966e-05,1.12653e-05,0.00767074,-0.00345933,0.00225306,0.999379,-0.00281801,0.0351348,7.25457e-05,0.0789607,0.49448,-1.01916,34,1,65157,6630445
11,5,0.999379,-0.00277693,0.0351215,8.12468e-05,-0.694819,-0.0683145,9.78348,0.0573562,-0.49156,1.01656,-0.0069508,-0.000691283,0.0978346,1,4.08795e-05,-1.33922e-05,1.00566e-05,0.0081759,-0.00267844,0.00201133,0.999379,-0.00277693,0.0351215,8.12468e-05,0.0784544,0.493057,-1.02121,34,1,65158,6630545
11,6,0.999379,-0.00277693,0.0351215,8.12468e-05,-0.694819,-0.0683145,9.78348,0.0573562,-0.49156,1.01656,-0.0069508,-0.000691283,0.0978346,1,4.08795e-05,-1.33922e-05,1.00566e-05,0.0081759,-0.00267844,0.00201133,0.999379,-0.00277693,0.0351215,8.12468e-05,0.0784544,0.493057,-1.02121,34,1,65158,6630545
12,1,0.999379,-0.00277693,0.0351215,8.12468e-05,-0.694819,-0.0683145,9.78348,0.0573562,-0.49156,1.01656,-0.0069508,-0.000691283,0.0978346,1,4.08795e-05,-1.33922e-05,1.00566e-05,0.0081759,-0.00267844,0.00201133,0.999379,-0.00277693,0.0351215,8.12468e-05,0.0784544,0.493057,-1.02121,34,1,65158,6630545
12,2,0.999379,-0.00273126,0.0351171,9.14104e-05,-0.680356,-0.0606189,9.7831,0.0744837,-0.490017,1.01899,-0.00680426,-0.000615256,0.0978309,1,4.54429e-05,-3.66577e-06,1.28989e-05,0.00908859,-0.000733155,0.00257977,0.999379,-0.00273126,0.0351171,9.14104e-05,0.0756408,0.490136,-1.02025,34,1,65159,6630645
12,3,0.999379,-0.00273126,0.0351171,9.14104e-05,-0.680356,-0.0606189,9.7831,0.0744837,-0.490017,1.01899,-0.00680426,-0.000615256,0.0978309,1,4.54429e-05,-3.66577e-06,1.28989e-05,0.00908859,-0.000733155,0.00257977,0.999379,-0.00273126,0.0351171,9.14104e-05,0.0756408,0.490136,-1.02025,34,1,65159,6630645
12,4,0.999379,-0.00273126,0.0351171,9.14104e-05,-0.680356,-0.0606189,9.7831,0.0744837,-0.490017,1.01899,-0.00680426,-0.000615256,0.0978309,1,4.54429e-05,-3.66577e-06,1.28989e-05,0.00908859,-0.000733155,0.00257977,0.999379,-0.00273126,0.0351171,9.14104e-05,0.0756408,0.490136,-1.02025,34,1,65159,6630645
12,5,0.999379,-0.00267953,0.0351201,0.000105063,-0.687872,-0.0539365,9.79169,0.0691976,-0.481745,1.02574,-0.00687813,-0.000549624,0.0979169,1,5.12824e-05,2.90738e-06,1.57002e-05,0.0102565,0.000581476,0.00314004,0.999379,-0.00267953,0.0351201,0.000105063,0.0748257,0.487145,-1.01627,34,1,65160,6630745
12,6,0.999379,-0.00267953,0.0351201,0.000105063,-0.687872,-0.0539365,9.79169,0.0691976,-0.481745,1.02574,-0.00687813,-0.000549624,0.0979169,1,5.12824e-05,2.90738e-06,1.57002e-05,0.0102565,0.000581476,0.00314004,0.999379,-0.00267953,0.0351201,0.000105063,0.0748257,0.487145,-1.01627,34,1,65160,6630745
10,1,0.999379,-0.00267953,0.0351201,0.000105063,-0.687872,-0.0539365,9.79169,0.0691976,-0.481745,1.02574,-0.00687813,-0.000549624,0.0979169,1,5.12824e-05,2.90738e-06,1.57002e-05,0.0102565,0.000581476,0.00314004,0.999379,-0.00267953,0.0351201,0.000105063,0.0748257,0.487145,-1.01627,34,1,65160,6630745
10,2,0.99938,-0.0026372,0.0351121,0.000128719,-0.683597,-0.0679716,9.78884,0.0715778,-0.49564,1.02351,-0.00683751,-0.000688091,0.0978882,1,4.10304e-05,-8.03712e-06,2.49837e-05,0.00820608,-0.00160742,0.00499673,0.99938,-0.0026372,0.0351121,0.000128719,0.0767919,0.489026,-1.01321,34,1,65161,6630845
10,3,0.99938,-0.0026372,0.0351121,0.000128719,-0.683597,-0.0679716,9.78884,0.0715778,-0.49564,1.02351,-0.00683751,-0.000688091,0.0978882,1,4.10304e-05,-8.03712e-06,2.49837e-05,0.00820608,-0.00160742,0.00499673,0.99938,-0.0026372,0.0351121,0.000128719,0.0767919,0.489026,-1.01321,34,1,65161,6630845
10,4,0.99938,-0.0026372,0.0351121,0.000128719,-0.683597,-0.0679716,9.78884,0.0715778,-0.49564,1.02351,-0.00683751,-0.000688091,0.0978882,1,4.10304e-05,-8.03712e-06,2.49837e-05,0.00820608,-0.00160742,0.00499673,0.99938,-0.0026372,0.0351121,0.000128719,0.0767919,0.489026,-1.01321,34,1,65161,6630845
10,5,0.999381,-0.0025938,0.0350932,0.000145258,-0.696189,-0.0526212,9.78194,0.0623521,-0.477535,1.01348,-0.00696557,-0.000535082,0.0978191,1,4.40088e-05,-1.88985e-05,1.86728e-05,0.00880175,-0.0037797,0.00373456,0.999381,-0.0025938,0.0350932,0.000145258,0.0781579,0.49148,-1.01467,34,1,65162,6630945
10,6,0.999381,-0.0025938,0.0350932,0.000145258,-0.696189,-0.0526212,9.78194,0.0623521,-0.477535,1.01348,-0.00696557,-0.000535082,0.0978191,1,4.40088e-05,-1.88985e-05,1.86728e-05,0.00880175,-0.0037797,0.00373456,0.999381,-0.0025938,0.0350932,0.000145258,0.0781579,0.49148,-1.01467,34,1,65162,6630945
14,1,0.999381,-0.0025938,0.0350932,0.000145258,-0.696189,-0.0526212,9.78194,0.0623521,-0.477535,1.01348,-0.00696557,-0.000535082,0.0978191,1,4.40088e-05,-1.88985e-05,1.86728e-05,0.00880175,-0.0037797,0.00373456,0.999381,-0.0025938,0.0350932,0.000145258,0.0781579,0.49148,-1.01467,34,1,65162,6630945
14,2,0.999381,-0.00254779,0.0350798,0.000160197,-0.679959,-0.0575527,9.78313,0.0721751,-0.486527,1.01182,-0.0068022,-0.00058472,0.097831,1,4.58713e-05,-1.34669e-05,1.60023e-05,0.00917426,-0.00269338,0.00320045,0.999381,-0.00254779,0.0350798,0.000160197,0.0789929,0.492529,-1.0192,34,1,65163,6631045
14,3,0.999381,-0.00254779,0.0350798,0.000160197,-0.679959,-0.0575527,9.78313,0.0721751,-0.486527,1.01182,-0.0068022,-0.00058472,0.097831,1,4.58713e-05,-1.34669e-05,1.60023e-05,0.00917426,-0.00269338,0.00320045,0.999381,-0.00254779,0.0350798,0.000160197,0.0789929,0.492529,-1.0192,34,1,65163,6631045
14,4,0.999381,-0.00254779,0.0350798,0.000160197,-0.679959,-0.0575527,9.78313,0.0721751,-0.486527,1.01182,-0.0068022,-0.00058472,0.097831,1,4.58713e-05,-1.34669e-05,1.60023e-05,0.00917426,-0.00269338,0.00320045,0.999381,-0.00254779,0.0350798,0.000160197,0.0789929,0.492529,-1.0192,34,1,65163,6631045
15,1,0.999382,-0.00249401,0.0350707,0.000165835,-0.687658,-0.0629235,9.79807,0.0679214,-0.493106,1.02933,-0.00687834,-0.000639911,0.0979805,1,5.39273e-05,-9.00963e-06,7.83793e-06,0.0107855,-0.00180193,0.00156759,0.999382,-0.00249401,0.0350707,0.000165835,0.0779486,0.493079,-1.02221,34,1,65164,6631145
15,2,0.999382,-0.00249401,0.0350707,0.000165835,-0.687658,-0.0629235,9.79807,0.0679214,-0.493106,1.02933,-0.00687834,-0.000639911,0.0979805,1,5.39273e-05,-9.00963e-06,7.83793e-06,0.0107855,-0.00180193,0.00156759,0.999382,-0.00249401,0.0350707,0.000165835,0.0779486,0.493079,-1.02221,34,1,65164,6631145
15,3,0.999382,-0.00249401,0.0350707,0.000165835,-0.687658,-0.0629235,9.79807,0.0679214,-0.493106,1.02933,-0.00687834,-0.000639911,0.0979805,1,5.39273e-05,-9.00963e-06,7.83793e-06,0.0107855,-0.00180193,0.00156759,0.999382,-0.00249401,0.0350707,0.000165835,0.0779486,0.493079,-1.02221,34,1,65164,6631145
15,4,0.999383,-0.00243995,0.0350503,0.000175037,-0.695065,-0.0682757,9.78722,0.0620052,-0.502344,1.02702,-0.00695464,-0.000693461,0.0978718,1,5.38955e-05,-2.04371e-05,1.104e-05,0.0107791,-0.00408743,0.002208,0.999383,-0.00243995,0.0350503,0.000175037,0.0765418,0.491618,-1.02173,34,1,65165,6631245
15,5,0.999383,-0.00243995,0.0350503,0.000175037,-0.695065,-0.0682757,9.78722,0.0620052,-0.502344,1.02702,-0.00695464,-0.000693461,0.0978718,1,5.38955e-05,-2.04371e-05,1.104e-05,0.0107791,-0.00408743,0.002208,0.999383,-0.00243995,0.0350503,0.000175037,0.0765418,0.491618,-1.02173,34,1,65165,6631245
15,6,0.999383,-0.00243995,0.0350503,0.000175037,-0.695065,-0.0682757,9.78722,0.0620052,-0.502344,1.02702,-0.00695464,-0.000693461,0.0978718,1,5.38955e-05,-2.04371e-05,1.104e-05,0.0107791,-0.00408743,0.002208,0.999383,-0.00243995,0.0350503,0.000175037,0.0765418,0.491618,-1.02173,34,1,65165,6631245
16,1,0.999383,-0.00239935,0.0350379,0.000181737,-0.687704,-0.0694564,9.78139,0.0642211,-0.504511,1.02328,-0.00687936,-0.000702637,0.0978136,1,4.06951e-05,-1.19283e-05,8.18623e-06,0.00813902,-0.00238566,0.00163725,0.999383,-0.00239935,0.0350379,0.000181737,0.0776597,0.489569,-1.01673,34,1,65166,6631345
16,2,0.999383,-0.00239935,0.0350379,0.000181737,-0.687704,-0.0694564,9.78139,0.0642211,-0.504511,1.02328,-0.00687936,-0.000702637,0.0978136,1,4.06951e-05,-1.19283e-05,8.18623e-06,0.00813902,-0.00238566,0.00163725,0.999383,-0.00239935,0.0350379,0.000181737,0.0776597,0.489569,-1.01673,34,1,65166,6631345
16,3,0.999383,-0.00239935,0.0350379,0.000181737,-0.687704,-0.0694564,9.78139,0.0642211,-0.504511,1.02328,-0.00687936,-0.000702637,0.0978136,1,4.06951e-05,-1.19283e-05,8.18623e-06,0.00813902,-0.00238566,0.00163725,0.999383,-0.00239935,0.0350379,0.000181737,0.0776597,0.489569,-1.01673,34,1,65166,6631345
16,4,0.999383,-0.00235476,0.0350404,0.000203369,-0.684713,-0.0694114,9.79391,0.0663893,-0.501143,1.02893,-0.00684661,-0.000703064,0.0979391,1,4.40533e-05,2.49396e-06,2.34173e-05,0.00881067,0.000498792,0.00468347,0.999383,-0.00235476,0.0350404,0.000203369,0.0772122,0.491958,-1.01365,34,1,65167,6631445
16,5,0.999383,-0.00235476,0.0350404,0.000203369,-0.684713,-0.0694114,9.79391,0.0663893,-0.501143,1.02893,-0.00684661,-0.000703064,0.0979391,1,4.40533e-05,2.49396e-06,2.34173e-05,0.00881067,0.000498792,0.00468347,0.999383,-0.00235476,0.0350404,0.000203369,0.0772122,0.491958,-1.01365,34,1,65167,6631445
16,6,0.999383,-0.00235476,0.0350404,0.000203369,-0.684713,-0.0694114,9.79391,0.0663893,-0.501143,1.02893,-0.00684661,-0.000703064,0.0979391,1,4.40533e-05,2.49396e-06,2.34173e-05,0.00881067,0.000498792,0.00468347,0.999383,-0.00235476,0.0350404,0.000203369,0.0772122,0.491958,-1.01365,34,1,65167,6631445
16,7,0.999384,-0.00229429,0.035029,0.000218931,-0.684287,-0.0561784,9.78928,0.0720258,-0.492428,1.02308,-0.00684506,-0.000573884,0.0978926,1,6.0562e-05,-1.12749e-05,1.77042e-05,0.0121124,-0.00225498,0.00354083,0.999384,-0.00229429,0.035029,0.000218931,0.077616,0.49442,-1.01511,34,1,65168,6631545
16,8,0.999384,-0.00229429,0.035029,0.000218931,-0.684287,-0.0561784,9.78928,0.0720258,-0.492428,1.02308,-0.00684506,-0.000573884,0.0978926,1,6.0562e-05,-1.12749e-05,1.77042e-05,0.0121124,-0.00225498,0.00354083,0.999384,-0.00229429,0.035029,0.000218931,0.077616,0.49442,-1.01511,34,1,65168,6631545
17,1,0.999384,-0.00229429,0.035029,0.000218931,-0.684287,-0.0561784,9.78928,0.0720258,-0.492428,1.02308,-0.00684506,-0.000573884,0.0978926,1,6.0562e-05,-1.12749e-05,1.77042e-05,0.0121124,-0.00225498,0.00354083,0.999384,-0.00229429,0.035029,0.000218931,0.077616,0.49442,-1.01511,34,1,65168,6631545
17,2,0.999385,-0.00223813,0.0349998,0.000236197,-0.688189,-0.06203,9.7835,0.0639509,-0.499752,1.01197,-0.00688759,-0.000631682,0.0978346,1,5.68069e-05,-2.92643e-05,1.93861e-05,0.0113614,-0.00585285,0.00387723,0.999385,-0.00223813,0.0349998,0.000236197,0.0760782,0.494983,-1.01863,34,1,65169,6631645
17,3,0.999385,-0.00223813,0.0349998,0.000236197,-0.688189,-0.06203,9.7835,0.0639509,-0.499752,1.01197,-0.00688759,-0.000631682,0.0978346,1,5.68069e-05,-2.92643e-05,1.93861e-05,0.0113614,-0.00585285,0.00387723,0.999385,-0.00223813,0.0349998,0.000236197,0.0760782,0.494983,-1.01863,34,1,65169,6631645
17,4,0.999385,-0.00223813,0.0349998,0.000236197,-0.688189,-0.06203,9.7835,0.0639509,-0.499752,1.01197,-0.00688759,-0.000631682,0.0978346,1,5.68069e-05,-2.92643e-05,1.93861e-05,0.0113614,-0.00585285,0.00387723,0.999385,-0.00223813,0.0349998,0.000236197,0.0760782,0.494983,-1.01863,34,1,65169,6631645
18,1,0.999385,-0.00219179,0.0349944,0.000248951,-0.698619,-0.0606562,9.79544,0.0562388,-0.501976,1.03001,-0.00698722,-0.000615812,0.0979543,1,4.61843e-05,-5.36613e-06,1.44393e-05,0.00923686,-0.00107323,0.00288785,0.999385,-0.00219179,0.0349944,0.000248951,0.0760526,0.49211,-1.02172,34,1,65170,6631745
18,2,0.999385,-0.00219179,0.0349944,0.000248951,-0.698619,-0.0606562,9.79544,0.0562388,-0.501976,1.03001,-0.00698722,-0.000615812,0.0979543,1,4.61843e-05,-5.36613e-06,1.44393e-05,0.00923686,-0.00107323,0.00288785,0.999385,-0.00219179,0.0349944,0.000248951,0.0760526,0.49211,-1.02172,34,1,65170,6631745
18,3,0.999385,-0.00219179,0.0349944,0.000248951,-0.698619,-0.0606562,9.79544,0.0562388,-0.501976,1.03001,-0.00698722,-0.000615812,0.0979543,1,4.61843e-05,-5.36613e-06,1.44393e-05,0.00923686,-0.00107323,0.00288785,0.999385,-0.00219179,0.0349944,0.000248951,0.0760526,0.49211,-1.02172,34,1,65170,6631745
18,4,0.999386,-0.0021467,0.0349821,0.00026339,-0.690652,-0.066343,9.79839,0.0648474,-0.506036,1.03503,-0.00690892,-0.000672466,0.0979837,1,4.50071e-05,-1.23455e-05,1.56854e-05,0.00900142,-0.00246909,0.00313709,0.999386,-0.0021467,0.0349821,0.00026339,0.0751678,0.489652,-1.02026,34,1,65171,6631845
19,1,0.999386,-0.0021467,0.0349821,0.00026339,-0.690652,-0.066343,9.79839,0.0648474,-0.506036,1.03503,-0.00690892,-0.000672466,0.0979837,1,4.50071e-05,-1.23455e-05,1.56854e-05,0.00900142,-0.00246909,0.00313709,0.999386,-0.0021467,0.0349821,0.00026339,0.0751678,0.489652,-1.02026,34,1,65171,6631845
19,2,0.999386,-0.0021467,0.0349821,0.00026339,-0.690652,-0.066343,9.79839,0.0648474,-0.506036,1.03503,-0.00690892,-0.000672466,0.0979837,1,4.50071e-05,-1.23455e-05,1.56854e-05,0.00900142,-0.00246909,0.00313709,0.999386,-0.0021467,0.0349821,0.00026339,0.0751678,0.489652,-1.02026,34,1,65171,6631845
19,3,0.999386,-0.00209724,0.0349769,0.000273172,-0.682641,-0.0587115,9.78959,0.0731792,-0.499138,1.02482,-0.00682739,-0.00059705,0.0978957,1,4.99022e-05,-5.09633e-06,1.20548e-05,0.00998044,-0.00101927,0.00241097,0.999386,-0.00209724,0.0349769,0.000273172,0.075768,0.489079,-1.01573,34,1,65172,6631945
19,4,0.999386,-0.00209724,0.0349769,0.000273172,-0.682641,-0.0587115,9.78959,0.0731792,-0.499138,1.02482,-0.00682739,-0.00059705,0.0978957,1,4.99022e-05,-5.09633e-06,1.20548e-05,0.00998044,-0.00101927,0.00241097,0.999386,-0.00209724,0.0349769,0.000273172,0.075768,0.489079,-1.01573,34,1,65172,6631945
19,5,0.999386,-0.00209724,0.0349769,0.000273172,-0.682641,-0.0587115,9.78959,0.0731792,-0.499138,1.02482,-0.00682739,-0.00059705,0.0978957,1,4.99022e-05,-5.09633e-06,1.20548e-05,0.00998044,-0.00101927,0.00241097,0.999386,-0.00209724,0.0349769,0.000273172,0.075768,0.489079,-1.01573,34,1,65172,6631945
19,6,0.999387,-0.00204147,0.0349561,0.000280866,-0.680144,-0.0636934,9.78275,0.0713095,-0.508577,1.01501,-0.00680547,-0.000648,0.0978272,1,5.5853e-05,-2.0648e-05,1.01234e-05,0.0111706,-0.00412961,0.00202467,0.999387,-0.00204147,0.0349561,0.000280866,0.0781702,0.491471,-1.01417,34,1,65173,6632045
19,7,0.999387,-0.00204147,0.0349561,0.000280866,-0.680144,-0.0636934,9.78275,0.0713095,-0.508577,1.01501,-0.00680547,-0.000648,0.0978272,1,5.5853e-05,-2.0648e-05,1.01234e-05,0.0111706,-0.00412961,0.00202467,0.999387,-0.00204147,0.0349561,0.000280866,0.0781702,0.491471,-1.01417,34,1,65173,6632045
19,8,0.999387,-0.00199222,0.0349587,0.000285827,-0.6966,-0.0732257,9.79667,0.0548876,-0.510435,1.02785,-0.00696541,-0.000742247,0.0979667,1,5.04106e-05,2.94858e-06,8.09537e-06,0.0100821,0.000589716,0.00161908,0.999387,-0.00199222,0.0349587,0.000285827,0.0781213,0.492953,-1.01515,34,1,65174,6632145
20,1,0.999387,-0.00199222,0.0349587,0.000285827,-0.6966,-0.0732257,9.79667,0.0548876,-0.510435,1.02785,-0.00696541,-0.000742247,0.0979667,1,5.04106e-05,2.94858e-06,8.09537e-06,0.0100821,0.000589716,0.00161908,0.999387,-0.00199222,0.0349587,0.000285827,0.0781213,0.492953,-1.01515,34,1,65174,6632145
20,2,0.999387,-0.00199222,0.0349587,0.000285827,-0.6966,-0.0732257,9.79667,0.0548876,-0.510435,1.02785,-0.00696541,-0.000742247,0.0979667,1,5.04106e-05,2.94858e-06,8.09537e-06,0.0100821,0.000589716,0.00161908,0.999387,-0.00199222,0.0349587,0.000285827,0.0781213,0.492953,-1.01515,34,1,65174,6632145
20,3,0.999387,-0.00194982,0.0349596,0.000320385,-0.689458,-0.0639565,9.7906,0.0639914,-0.510592,1.02102,-0.00689438,-0.000648447,0.0979059,1,4.28335e-05,8.08386e-07,3.59117e-05,0.00856669,0.000161677,0.00718235,0.999387,-0.00194982,0.0349596,0.000320385,0.0780639,0.493476,-1.01715,34,1,65175,6632245
20,4,0.999387,-0.00194982,0.0349596,0.000320385,-0.689458,-0.0639565,9.7906,0.0639914,-0.510592,1.02102,-0.00689438,-0.000648447,0.0979059,1,4.28335e-05,8.08386e-07,3.59117e-05,0.00856669,0.000161677,0.00718235,0.999387,-0.00194982,0.0349596,0.000320385,0.0780639,0.493476,-1.01715,34,1,65175,6632245
20,5,0.999387,-0.00194982,0.0349596,0.000320385,-0.689458,-0.0639565,9.7906,0.0639914,-0.510592,1.02102,-0.00689438,-0.000648447,0.0979059,1,4.28335e-05,8.08386e-07,3.59117e-05,0.00856669,0.000161677,0.00718235,0.999387,-0.00194982,0.0349596,0.000320385,0.0780639,0.493476,-1.01715,34,1,65175,6632245
20,6,0.999388,-0.00189708,0.0349362,0.000331061,-0.683869,-0.060348,9.78993,0.0679021,-0.510723,1.0237,-0.00684329,-0.000614142,0.0978989,1,5.35604e-05,-2.35921e-05,1.28078e-05,0.0107121,-0.00471841,0.00256156,0.999388,-0.00189708,0.0349362,0.000331061,0.078006,0.492555,-1.02021,34,1,65176,6632345
21,1,0.999388,-0.00189708,0.0349362,0.000331061,-0.683869,-0.060348,9.78993,0.0679021,-0.510723,1.0237,-0.00684329,-0.000614142,0.0978989,1,5.35604e-05,-2.35921e-05,1.28078e-05,0.0107121,-0.00471841,0.00256156,0.999388,-0.00189708,0.0349362,0.000331061,0.078006,0.492555,-1.02021,34,1,65176,6632345
21,2,0.999388,-0.00189708,0.0349362,0.000331061,-0.683869,-0.060348,9.78993,0.0679021,-0.510723,1.0237,-0.00684329,-0.000614142,0.0978989,1,5.35604e-05,-2.35921e-05,1.28078e-05,0.0107121,-0.00471841,0.00256156,0.999388,-0.00189708,0.0349362,0.000331061,0.078006,0.492555,-1.02021,34,1,65176,6632345
21,3,0.999388,-0.00183625,0.0349292,0.000335866,-0.696386,-0.0504606,9.78432,0.0556663,-0.497268,1.02099,-0.00696521,-0.000516766,0.097843,1,6.16368e-05,-6.92881e-06,7.00927e-06,0.0123274,-0.00138576,0.00140185,0.999388,-0.00183625,0.0349292,0.000335866,0.0756489,0.489648,-1.02026,34,1,65177,6632445
21,4,0.999388,-0.00183625,0.0349292,0.000335866,-0.696386,-0.0504606,9.78432,0.0556663,-0.497268,1.02099,-0.00696521,-0.000516766,0.097843,1,6.16368e-05,-6.92881e-06,7.00927e-06,0.0123274,-0.00138576,0.00140185,0.999388,-0.00183625,0.0349292,0.000335866,0.0756489,0.489648,-1.02026,34,1,65177,6632445
22,1,0.999388,-0.00183625,0.0349292,0.000335866,-0.696386,-0.0504606,9.78432,0.0556663,-0.497268,1.02099,-0.00696521,-0.000516766,0.097843,1,6.16368e-05,-6.92881e-06,7.00927e-06,0.0123274,-0.00138576,0.00140185,0.999388,-0.00183625,0.0349292,0.000335866,0.0756489,0.489648,-1.02026,34,1,65177,6632445
22,2,0.999388,-0.00178947,0.0349296,0.00034465,-0.703377,-0.0673983,9.79473,0.0481393,-0.518961,1.03577,-0.00703369,-0.000683412,0.0979473,1,4.7408e-05,3.29765e-07,1.01477e-05,0.00948161,6.5953e-05,0.00202953,0.999388,-0.00178947,0.0349296,0.00034465,0.075748,0.491021,-1.01518,34,1,65178,6632545
22,3,0.999388,-0.00178947,0.0349296,0.00034465,-0.703377,-0.0673983,9.79473,0.0481393,-0.518961,1.03577,-0.00703369,-0.000683412,0.0979473,1,4.7408e-05,3.29765e-07,1.01477e-05,0.00948161,6.5953e-05,0.00202953,0.999388,-0.00178947,0.0349296,0.00034465,0.075748,0.491021,-1.01518,34,1,65178,6632545
22,4,0.999388,-0.00178947,0.0349296,0.00034465,-0.703377,-0.0673983,9.79473,0.0481393,-0.518961,1.03577,-0.00703369,-0.000683412,0.0979473,1,4.7408e-05,3.29765e-07,1.01477e-05,0.00948161,6.5953e-05,0.00202953,0.999388,-0.00178947,0.0349296,0.00034465,0.075748,0.491021,-1.01518,34,1,65178,6632545
22,5,0.999389,-0.00176284,0.0349191,0.000358307,-0.689788,-0.0599366,9.78453,0.0615165,-0.510848,1.02294,-0.00689997,-0.000604949,0.0978451,1,2.7433e-05,-1.07588e-05,1.55139e-05,0.0054866,-0.00215176,0.00310279,0.999389,-0.00176284,0.0349191,0.000358307,0.0757323,0.493442,-1.01411,34,1,65179,6632645
22,6,0.999389,-0.00176284,0.0349191,0.000358307,-0.689788,-0.0599366,9.78453,0.0615165,-0.510848,1.02294,-0.00689997,-0.000604949,0.0978451,1,2.7433e-05,-1.07588e-05,1.55139e-05,0.0054866,-0.00215176,0.00310279,0.999389,-0.00176284,0.0349191,0.000358307,0.0757323,0.493442,-1.01411,34,1,65179,6632645
22,7,0.999389,-0.00176284,0.0349191,0.000358307,-0.689788,-0.0599366,9.78453,0.0615165,-0.510848,1.02294,-0.00689997,-0.000604949,0.0978451,1,2.7433e-05,-1.07588e-05,1.55139e-05,0.0054866,-0.00215176,0.00310279,0.999389,-0.00176284,0.0349191,0.000358307,0.0757323,0.493442,-1.01411,34,1,65179,6632645
22,8,0.999389,-0.00171686,0.0348958,0.000378349,-0.69008,-0.0597438,9.78217,0.0613604,-0.512119,1.01105,-0.00690534,-0.000606735,0.0978213,1,4.59477e-05,-2.33518e-05,2.23204e-05,0.00918954,-0.00467036,0.00446407,0.999389,-0.00171686,0.0348958,0.000378349,0.0776649,0.492938,-1.01413,34,1,65180,6632745
23,1,0.999389,-0.00171686,0.0348958,0.000378349,-0.69008,-0.0597438,9.78217,0.0613604,-0.512119,1.01105,-0.00690534,-0.000606735,0.0978213,1,4.59477e-05,-2.33518e-05,2.23204e-05,0.00918954,-0.00467036,0.00446407,0.999389,-0.00171686,0.0348958,0.000378349,0.0776649,0.492938,-1.01413,34,1,65180,6632745
23,2,0.999389,-0.00171686,0.0348958,0.000378349,-0.69008,-0.0597438,9.78217,0.0613604,-0.512119,1.01105,-0.00690534,-0.000606735,0.0978213,1,4.59477e-05,-2.33518e-05,2.23204e-05,0.00918954,-0.00467036,0.00446407,0.999389,-0.00171686,0.0348958,0.000378349,0.0776649,0.492938,-1.01413,34,1,65180,6632745
23,3,0.99939,-0.00168294,0.0348837,0.000393255,-0.680135,-0.0703848,9.78371,0.0709221,-0.527124,1.01292,-0.00680373,-0.000710665,0.0978369,1,3.36973e-05,-1.22579e-05,1.63912e-05,0.00673945,-0.00245159,0.00327823,0.99939,-0.00168294,0.0348837,0.000393255,0.0770647,0.493511,-1.01866,34,1,65181,6632845
23,4,0.99939,-0.00168294,0.0348837,0.000393255,-0.680135,-0.0703848,9.78371,0.0709221,-0.527124,1.01292,-0.00680373,-0.000710665,0.0978369,1,3.36973e-05,-1.22579e-05,1.63912e-05,0.00673945,-0.00245159,0.00327823,0.99939,-0.00168294,0.0348837,0.000393255,0.0770647,0.493511,-1.01866,34,1,65181,6632845
23,5,0.99939,-0.00168294,0.0348837,0.000393255,-0.680135,-0.0703848,9.78371,0.0709221,-0.527124,1.01292,-0.00680373,-0.000710665,0.0978369,1,3.36973e-05,-1.22579e-05,1.63912e-05,0.00673945,-0.00245159,0.00327823,0.99939,-0.00168294,0.0348837,0.000393255,0.0770647,0.493511,-1.01866,34,1,65181,6632845
23,6,0.99939,-0.00164531,0.0348714,0.000402002,-0.683275,-0.0653058,9.78749,0.0647837,-0.521176,1.01785,-0.00683519,-0.000660803,0.0978747,1,3.88492e-05,-1.25171e-05,1.03117e-05,0.00776983,-0.00250341,0.00206233,0.99939,-0.00164531,0.0348714,0.000402002,0.0760237,0.491649,-1.02325,34,1,65182,6632945
23,7,0.99939,-0.00164531,0.0348714,0.000402002,-0.683275,-0.0653058,9.78749,0.0647837,-0.521176,1.01785,-0.00683519,-0.000660803,0.0978747,1,3.88492e-05,-1.25171e-05,1.03117e-05,0.00776983,-0.00250341,0.00206233,0.99939,-0.00164531,0.0348714,0.000402002,0.0760237,0.491649,-1.02325,34,1,65182,6632945
23,8,0.99939,-0.00164531,0.0348714,0.000402002,-0.683275,-0.0653058,9.78749,0.0647837,-0.521176,1.01785,-0.00683519,-0.000660803,0.0978747,1,3.88492e-05,-1.25171e-05,1.03117e-05,0.00776983,-0.00250341,0.00206233,0.99939,-0.00164531,0.0348714,0.000402002,0.0760237,0.491649,-1.02325,34,1,65182,6632945
24,1,0.999391,-0.00158995,0.0348623,0.000419678,-0.686666,-0.0682202,9.79394,0.063131,-0.52819,1.02806,-0.0068685,-0.000693515,0.0979392,1,5.63617e-05,-9.52358e-06,1.98524e-05,0.0112723,-0.00190472,0.00397049,0.999391,-0.00158995,0.0348623,0.000419678,0.074177,0.490645,-1.02074,34,1,65183,6633045
24,2,0.999391,-0.00158995,0.0348623,0.000419678,-0.686666,-0.0682202,9.79394,0.063131,-0.52819,1.02806,-0.0068685,-0.000693515,0.0979392,1,5.63617e-05,-9.52358e-06,1.98524e-05,0.0112723,-0.00190472,0.00397049,0.999391,-0.00158995,0.0348623,0.000419678,0.074177,0.490645,-1.02074,34,1,65183,6633045
24,3,0.999391,-0.00158995,0.0348623,0.000419678,-0.686666,-0.0682202,9.79394,0.063131,-0.52819,1.02806,-0.0068685,-0.000693515,0.0979392,1,5.63617e-05,-9.52358e-06,1.98524e-05,0.0112723,-0.00190472,0.00397049,0.999391,-0.00158995,0.0348623,0.000419678,0.074177,0.490645,-1.02074,34,1,65183,6633045
24,4,0.999391,-0.00154147,0.0348518,0.000441767,-0.683025,-0.0596254,9.7828,0.0697391,-0.512828,1.02063,-0.00683231,-0.000606172,0.0978278,1,4.90062e-05,-1.06598e-05,2.4114e-05,0.00980123,-0.00213196,0.00482279,0.999391,-0.00154147,0.0348518,0.000441767,0.0737946,0.490577,-1.01669,34,1,65184,6633145
25,1,0.999391,-0.00154147,0.0348518,0.000441767,-0.683025,-0.0596254,9.7828,0.0697391,-0.512828,1.02063,-0.00683231,-0.000606172,0.0978278,1,4.90062e-05,-1.06598e-05,2.4114e-05,0.00980123,-0.00213196,0.00482279,0.999391,-0.00154147,0.0348518,0.000441767,0.0737946,0.490577,-1.01669,34,1,65184,6633145
25,2,0.999391,-0.00154147,0.0348518,0.000441767,-0.683025,-0.0596254,9.7828,0.0697391,-0.512828,1.02063,-0.00683231,-0.000606172,0.0978278,1,4.90062e-05,-1.06598e-05,2.4114e-05,0.00980123,-0.00213196,0.00482279,0.999391,-0.00154147,0.0348518,0.000441767,0.0737946,0.490577,-1.01669,34,1,65184,6633145
25,3,0.999392,-0.00150301,0.0348415,0.000457144,-0.678106,-0.0659651,9.79594,0.0777376,-0.522473,1.03142,-0.00678308,-0.000667559,0.0979592,1,3.9164e-05,-1.04511e-05,1.73562e-05,0.0078328,-0.00209023,0.00347124,0.999392,-0.00150301,0.0348415,0.000457144,0.0757442,0.491988,-1.01465,34,1,65185,6633245
25,4,0.999392,-0.00150301,0.0348415,0.000457144,-0.678106,-0.0659651,9.79594,0.0777376,-0.522473,1.03142,-0.00678308,-0.000667559,0.0979592,1,3.9164e-05,-1.04511e-05,1.73562e-05,0.0078328,-0.00209023,0.00347124,0.999392,-0.00150301,0.0348415,0.000457144,0.0757442,0.491988,-1.01465,34,1,65185,6633245
25,5,0.999392,-0.00150301,0.0348415,0.000457144,-0.678106,-0.0659651,9.79594,0.0777376,-0.522473,1.03142,-0.00678308,-0.000667559,0.0979592,1,3.9164e-05,-1.04511e-05,1.73562e-05,0.0078328,-0.00209023,0.00347124,0.999392,-0.00150301,0.0348415,0.000457144,0.0757442,0.491988,-1.01465,34,1,65185,6633245
25,6,0.999392,-0.00145206,0.0348327,0.000463487,-0.696516,-0.0697237,9.79229,0.0519122,-0.524083,1.02132,-0.00696693,-0.000707661,0.0979227,1,5.26253e-05,-9.10458e-06,8.42124e-06,0.0105251,-0.00182092,0.00168425,0.999392,-0.00145206,0.0348327,0.000463487,0.0771306,0.493945,-1.01562,34,1,65186,6633345
25,7,0.999392,-0.00145206,0.0348327,0.000463487,-0.696516,-0.0697237,9.79229,0.0519122,-0.524083,1.02132,-0.00696693,-0.000707661,0.0979227,1,5.26253e-05,-9.10458e-06,8.42124e-06,0.0105251,-0.00182092,0.00168425,0.999392,-0.00145206,0.0348327,0.000463487,0.0771306,0.493945,-1.01562,34,1,65186,6633345
25,8,0.999392,-0.00145206,0.0348327,0.000463487,-0.696516,-0.0697237,9.79229,0.0519122,-0.524083,1.02132,-0.00696693,-0.000707661,0.0979227,1,5.26253e-05,-9.10458e-06,8.42124e-06,0.0105251,-0.00182092,0.00168425,0.999392,-0.00145206,0.0348327,0.000463487,0.0771306,0.493945,-1.01562,34,1,65186,6633345
26,1,0.999392,-0.0014027,0.0348359,0.000489939,-0.692968,-0.0562675,9.78017,0.055788,-0.519633,1.01097,-0.00692911,-0.000572903,0.0978017,1,5.02804e-05,2.7639e-06,2.83062e-05,0.0100561,0.000552779,0.00566124,0.999392,-0.0014027,0.0348359,0.000489939,0.0770438,0.492563,-1.0202,34,1,65187,6633445
26,2,0.999392,-0.0014027,0.0348359,0.000489939,-0.692968,-0.0562675,9.78017,0.055788,-0.519633,1.01097,-0.00692911,-0.000572903,0.0978017,1,5.02804e-05,2.7639e-06,2.83062e-05,0.0100561,0.000552779,0.00566124,0.999392,-0.0014027,0.0348359,0.000489939,0.0770438,0.492563,-1.0202,34,1,65187,6633445
26,3,0.999392,-0.0014027,0.0348359,0.000489939,-0.692968,-0.0562675,9.78017,0.055788,-0.519633,1.01097,-0.00692911,-0.000572903,0.0978017,1,5.02804e-05,2.7639e-06,2.83062e-05,0.0100561,0.000552779,0.00566124,0.999392,-0.0014027,0.0348359,0.000489939,0.0770438,0.492563,-1.0202,34,1,65187,6633445
26,4,0.999393,-0.00138264,0.0348216,0.000510469,-0.690128,-0.0555625,9.78932,0.0612601,-0.520392,1.01912,-0.00690411,-0.000560222,0.097893,1,2.1929e-05,-1.45471e-05,2.19644e-05,0.00438579,-0.00290941,0.00439288,0.999393,-0.00138264,0.0348216,0.000510469,0.0766068,0.489162,-1.02078,34,1,65188,6633545
26,5,0.999393,-0.00138264,0.0348216,0.000510469,-0.690128,-0.0555625,9.78932,0.0612601,-0.520392,1.01912,-0.00690411,-0.000560222,0.097893,1,2.1929e-05,-1.45471e-05,2.19644e-05,0.00438579,-0.00290941,0.00439288,0.999393,-0.00138264,0.0348216,0.000510469,0.0766068,0.489162,-1.02078,34,1,65188,6633545
26,6,0.999393,-0.00138264,0.0348216,0.000510469,-0.690128,-0.0555625,9.78932,0.0612601,-0.520392,1.01912,-0.00690411,-0.000560222,0.097893,1,2.1929e-05,-1.45471e-05,2.19644e-05,0.00438579,-0.00290941,0.00439288,0.999393,-0.00138264,0.0348216,0.000510469,0.0766068,0.489162,-1.02078,34,1,65188,6633545
26,7,0.999393,-0.0013416,0.034817,0.00053234,-0.693487,-0.0625748,9.80048,0.0596199,-0.526971,1.03501,-0.00693573,-0.000634405,0.0980046,1,4.24739e-05,-4.54443e-06,2.39445e-05,0.00849477,-0.000908886,0.00478889,0.999393,-0.0013416,0.034817,0.00053234,0.0747151,0.488672,-1.01977,34,1,65189,6633645
26,8,0.999393,-0.0013416,0.034817,0.00053234,-0.693487,-0.0625748,9.80048,0.0596199,-0.526971,1.03501,-0.00693573,-0.000634405,0.0980046,1,4.24739e-05,-4.54443e-06,2.39445e-05,0.00849477,-0.000908886,0.00478889,0.999393,-0.0013416,0.034817,0.00053234,0.0747151,0.488672,-1.01977,34,1,65189,6633645
27,1,0.999393,-0.0013416,0.034817,0.00053234,-0.693487,-0.0625748,9.80048,0.0596199,-0.526971,1.03501,-0.00693573,-0.000634405,0.0980046,1,4.24739e-05,-4.54443e-06,2.39445e-05,0.00849477,-0.000908886,0.00478889,0.999393,-0.0013416,0.034817,0.00053234,0.0747151,0.488672,-1.01977,34,1,65189,6633645
27,2,0.999393,-0.00130756,0.0348028,0.000548723,-0.675082,-0.0651985,9.78744,0.0770187,-0.525687,1.02095,-0.00675359,-0.000659178,0.0978742,1,3.55207e-05,-1.42696e-05,1.77492e-05,0.00710413,-0.00285392,0.00354985,0.999393,-0.00130756,0.0348028,0.000548723,0.0733258,0.490572,-1.01619,34,1,65190,6633745
27,3,0.999393,-0.00130756,0.0348028,0.000548723,-0.675082,-0.0651985,9.78744,0.0770187,-0.525687,1.02095,-0.00675359,-0.000659178,0.0978742,1,3.55207e-05,-1.42696e-05,1.77492e-05,0.00710413,-0.00285392,0.00354985,0.999393,-0.00130756,0.0348028,0.000548723,0.0733258,0.490572,-1.01619,34,1,65190,6633745
27,4,0.999393,-0.00130756,0.0348028,0.000548723,-0.675082,-0.0651985,9.78744,0.0770187,-0.525687,1.02095,-0.00675359,-0.000659178,0.0978742,1,3.55207e-05,-1.42696e-05,1.77492e-05,0.00710413,-0.00285392,0.00354985,0.999393,-0.00130756,0.0348028,0.000548723,0.0733258,0.490572,-1.01619,34,1,65190,6633745
27,5,0.999393,-0.00125489,0.0348,0.00056706,-0.682412,-0.0576406,9.79162,0.0729411,-0.51637,1.0215,-0.00682468,-0.000587384,0.0979161,1,5.454e-05,-3.00066e-06,2.17858e-05,0.010908,-0.000600131,0.00435716,0.999393,-0.00125489,0.0348,0.00056706,0.0738568,0.491977,-1.01313,34,1,65191,6633845
27,6,0.999393,-0.00125489,0.0348,0.00056706,-0.682412,-0.0576406,9.79162,0.0729411,-0.51637,1.0215,-0.00682468,-0.000587384,0.0979161,1,5.454e-05,-3.00066e-06,2.17858e-05,0.010908,-0.000600131,0.00435716,0.999393,-0.00125489,0.0348,0.00056706,0.0738568,0.491977,-1.01313,34,1,65191,6633845
27,7,0.999393,-0.00125489,0.0348,0.00056706,-0.682412,-0.0576406,9.79162,0.0729411,-0.51637,1.0215,-0.00682468,-0.000587384,0.0979161,1,5.454e-05,-3.00066e-06,2.17858e-05,0.010908,-0.000600131,0.00435716,0.999393,-0.00125489,0.0348,0.00056706,0.0738568,0.491977,-1.01313,34,1,65191,6633845
27,8,0.999394,-0.0012129,0.0347817,0.000567704,-0.68721,-0.0735146,9.79458,0.0634201,-0.535813,1.02306,-0.00687567,-0.000743882,0.0979455,1,4.43645e-05,-1.82632e-05,3.30834e-06,0.0088729,-0.00365264,0.000661667,0.999394,-0.0012129,0.0347817,0.000567704,0.0766865,0.493922,-1.01411,34,1,65192,6633945
27,9,0.999394,-0.0012129,0.0347817,0.000567704,-0.68721,-0.0735146,9.79458,0.0634201,-0.535813,1.02306,-0.00687567,-0.000743882,0.0979455,1,4.43645e-05,-1.82632e-05,3.30834e-06,0.0088729,-0.00365264,0.000661667,0.999394,-0.0012129,0.0347817,0.000567704,0.0766865,0.493922,-1.01411,34,1,65192,6633945
27,10,0.999394,-0.0012129,0.0347817,0.000567704,-0.68721,-0.0735146,9.79458,0.0634201,-0.535813,1.02306,-0.00687567,-0.000743882,0.0979455,1,4.43645e-05,-1.82632e-05,3.30834e-06,0.0088729,-0.00365264,0.000661667,0.999394,-0.0012129,0.0347817,0.000567704,0.0766865,0.493922,-1.01411,34,1,65192,6633945
28,1,0.999394,-0.00117761,0.0347811,0.000584392,-0.684491,-0.0525768,9.7771,0.064269,-0.520303,1.00029,-0.00684505,-0.000533412,0.097771,1,3.7782e-05,-8.34626e-07,1.87417e-05,0.0075564,-0.000166925,0.00374834,0.999394,-0.00117761,0.0347811,0.000584392,0.0765631,0.494012,-1.01916,34,1,65193,6634045
28,2,0.999394,-0.00117761,0.0347811,0.000584392,-0.684491,-0.0525768,9.7771,0.064269,-0.520303,1.00029,-0.00684505,-0.000533412,0.097771,1,3.7782e-05,-8.34626e-07,1.87417e-05,0.0075564,-0.000166925,0.00374834,0.999394,-0.00117761,0.0347811,0.000584392,0.0765631,0.494012,-1.01916,34,1,65193,6634045
28,3,0.999394,-0.00117761,0.0347811,0.000584392,-0.684491,-0.0525768,9.7771,0.064269,-0.520303,1.00029,-0.00684505,-0.000533412,0.097771,1,3.7782e-05,-8.34626e-07,1.87417e-05,0.0075564,-0.000166925,0.00374834,0.999394,-0.00117761,0.0347811,0.000584392,0.0765631,0.494012,-1.01916,34,1,65193,6634045
28,4,0.999395,-0.00114148,0.0347696,0.000594435,-0.686406,-0.0563893,9.78997,0.0643676,-0.525638,1.02036,-0.00686637,-0.000571795,0.0978995,1,3.94954e-05,-1.188e-05,1.23533e-05,0.00789909,-0.00237599,0.00247065,0.999395,-0.00114148,0.0347696,0.000594435,0.0760526,0.49211,-1.02172,34,1,65194,6634145
28,5,0.999395,-0.00114148,0.0347696,0.000594435,-0.686406,-0.0563893,9.78997,0.0643676,-0.525638,1.02036,-0.00686637,-0.000571795,0.0978995,1,3.94954e-05,-1.188e-05,1.23533e-05,0.00789909,-0.00237599,0.00247065,0.999395,-0.00114148,0.0347696,0.000594435,0.0760526,0.49211,-1.02172,34,1,65194,6634145
28,6,0.999395,-0.00114148,0.0347696,0.000594435,-0.686406,-0.0563893,9.78997,0.0643676,-0.525638,1.02036,-0.00686637,-0.000571795,0.0978995,1,3.94954e-05,-1.188e-05,1.23533e-05,0.00789909,-0.00237599,0.00247065,0.999395,-0.00114148,0.0347696,0.000594435,0.0760526,0.49211,-1.02172,34,1,65194,6634145
28,7,0.999395,-0.00109776,0.0347661,0.000604239,-0.679273,-0.0607549,9.7892,0.0671342,-0.527152,1.02341,-0.0067935,-0.000616984,0.0978919,1,4.73317e-05,-3.98072e-06,1.23884e-05,0.00946634,-0.000796145,0.00247768,0.999395,-0.00109776,0.0347661,0.000604239,0.0742022,0.492072,-1.01868,34,1,65195,6634245
28,8,0.999395,-0.00109776,0.0347661,0.000604239,-0.679273,-0.0607549,9.7892,0.0671342,-0.527152,1.02341,-0.0067935,-0.000616984,0.0978919,1,4.73317e-05,-3.98072e-06,1.23884e-05,0.00946634,-0.000796145,0.00247768,0.999395,-0.00109776,0.0347661,0.000604239,0.0742022,0.492072,-1.01868,34,1,65195,6634245
29,1,0.999395,-0.00109776,0.0347661,0.000604239,-0.679273,-0.0607549,9.7892,0.0671342,-0.527152,1.02341,-0.0067935,-0.000616984,0.0978919,1,4.73317e-05,-3.98072e-06,1.23884e-05,0.00946634,-0.000796145,0.00247768,0.999395,-0.00109776,0.0347661,0.000604239,0.0742022,0.492072,-1.01868,34,1,65195,6634245
29,2,0.999395,-0.00104756,0.0347479,0.00061536,-0.694725,-0.0665689,9.78418,0.0528792,-0.536006,1.01893,-0.00695093,-0.000676302,0.0978415,1,5.32269e-05,-1.89061e-05,1.41689e-05,0.0106454,-0.00378122,0.00283378,0.999395,-0.00104756,0.0347479,0.00061536,0.0743293,0.491015,-1.01416,34,1,65196,6634345
29,3,0.999395,-0.00104756,0.0347479,0.00061536,-0.694725,-0.0665689,9.78418,0.0528792,-0.536006,1.01893,-0.00695093,-0.000676302,0.0978415,1,5.32269e-05,-1.89061e-05,1.41689e-05,0.0106454,-0.00378122,0.00283378,0.999395,-0.00104756,0.0347479,0.00061536,0.0743293,0.491015,-1.01416,34,1,65196,6634345
29,4,0.999395,-0.00104756,0.0347479,0.00061536,-0.694725,-0.0665689,9.78418,0.0528792,-0.536006,1.01893,-0.00695093,-0.000676302,0.0978415,1,5.32269e-05,-1.89061e-05,1.41689e-05,0.0106454,-0.00378122,0.00283378,0.999395,-0.00104756,0.0347479,0.00061536,0.0743293,0.491015,-1.01416,34,1,65196,6634345
29,5,0.999396,-0.000997944,0.0347255,0.000630465,-0.678028,-0.0647935,9.79154,0.0739734,-0.532172,1.02429,-0.00678471,-0.000658457,0.0979151,1,5.25173e-05,-2.27374e-05,1.74827e-05,0.0105035,-0.00454747,0.00349654,0.999396,-0.000997944,0.0347255,0.000630465,0.0757812,0.491961,-1.01314,34,1,65197,6634445
29,6,0.999396,-0.000997944,0.0347255,0.000630465,-0.678028,-0.0647935,9.79154,0.0739734,-0.532172,1.02429,-0.00678471,-0.000658457,0.0979151,1,5.25173e-05,-2.27374e-05,1.74827e-05,0.0105035,-0.00454747,0.00349654,0.999396,-0.000997944,0.0347255,0.000630465,0.0757812,0.491961,-1.01314,34,1,65197,6634445
29,7,0.999396,-0.000997944,0.0347255,0.000630465,-0.678028,-0.0647935,9.79154,0.0739734,-0.532172,1.02429,-0.00678471,-0.000658457,0.0979151,1,5.25173e-05,-2.27374e-05,1.74827e-05,0.0105035,-0.00454747,0.00349654,0.999396,-0.000997944,0.0347255,0.000630465,0.0757812,0.491961,-1.01314,34,1,65197,6634445
29,8,0.999397,-0.000952552,0.0347124,0.000645096,-0.696623,-0.0631573,9.78184,0.0542975,-0.527252,1.01086,-0.00696878,-0.000641319,0.0978181,1,4.8548e-05,-1.31294e-05,1.78129e-05,0.00970959,-0.00262588,0.00356257,0.999397,-0.000952552,0.0347124,0.000645096,0.0776407,0.494402,-1.0141,34,1,65198,6634545
30,1,0.999397,-0.000952552,0.0347124,0.000645096,-0.696623,-0.0631573,9.78184,0.0542975,-0.527252,1.01086,-0.00696878,-0.000641319,0.0978181,1,4.8548e-05,-1.31294e-05,1.78129e-05,0.00970959,-0.00262588,0.00356257,0.999397,-0.000952552,0.0347124,0.000645096,0.0776407,0.494402,-1.0141,34,1,65198,6634545
30,2,0.999397,-0.000952552,0.0347124,0.000645096,-0.696623,-0.0631573,9.78184,0.0542975,-0.527252,1.01086,-0.00696878,-0.000641319,0.0978181,1,4.8548e-05,-1.31294e-05,1.78129e-05,0.00970959,-0.00262588,0.00356257,0.999397,-0.000952552,0.0347124,0.000645096,0.0776407,0.494402,-1.0141,34,1,65198,6634545
30,3,0.999397,-0.000928272,0.0346931,0.000670057,-0.687548,-0.0654845,9.79126,0.0593535,-0.532098,1.0215,-0.00687927,-0.000660619,0.0979123,1,2.75653e-05,-1.95487e-05,2.73137e-05,0.00551306,-0.00390974,0.00546273,0.999397,-0.000928272,0.0346931,0.000670057,0.0770481,0.493042,-1.01968,34,1,65199,6634645
30,4,0.999397,-0.000928272,0.0346931,0.000670057,-0.687548,-0.0654845,9.79126,0.0593535,-0.532098,1.0215,-0.00687927,-0.000660619,0.0979123,1,2.75653e-05,-1.95487e-05,2.73137e-05,0.00551306,-0.00390974,0.00546273,0.999397,-0.000928272,0.0346931,0.000670057,0.0770481,0.493042,-1.01968,34,1,65199,6634645
30,5,0.999397,-0.000928272,0.0346931,0.000670057,-0.687548,-0.0654845,9.79126,0.0593535,-0.532098,1.0215,-0.00687927,-0.000660619,0.0979123,1,2.75653e-05,-1.95487e-05,2.73137e-05,0.00551306,-0.00390974,0.00546273,0.999397,-0.000928272,0.0346931,0.000670057,0.0770481,0.493042,-1.01968,34,1,65199,6634645
30,6,0.999398,-0.000878393,0.0346849,0.000679914,-0.685656,-0.0624239,9.79026,0.0581564,-0.533634,1.02047,-0.00685825,-0.000635125,0.0979024,1,5.47115e-05,-8.70014e-06,1.26585e-05,0.0109423,-0.00174003,0.0025317,0.999398,-0.000878393,0.0346849,0.000679914,0.0765295,0.491627,-1.02224,34,1,65200,6634745
31,1,0.999398,-0.000878393,0.0346849,0.000679914,-0.685656,-0.0624239,9.79026,0.0581564,-0.533634,1.02047,-0.00685825,-0.000635125,0.0979024,1,5.47115e-05,-8.70014e-06,1.26585e-05,0.0109423,-0.00174003,0.0025317,0.999398,-0.000878393,0.0346849,0.000679914,0.0765295,0.491627,-1.02224,34,1,65200,6634745
31,2,0.999398,-0.000878393,0.0346849,0.000679914,-0.685656,-0.0624239,9.79026,0.0581564,-0.533634,1.02047,-0.00685825,-0.000635125,0.0979024,1,5.47115e-05,-8.70014e-06,1.26585e-05,0.0109423,-0.00174003,0.0025317,0.999398,-0.000878393,0.0346849,0.000679914,0.0765295,0.491627,-1.02224,34,1,65200,6634745
31,3,0.999398,-0.000835593,0.0346759,0.000700918,-0.693131,-0.0573934,9.7951,0.0544966,-0.534043,1.02941,-0.00693315,-0.000583576,0.0979508,1,4.75738e-05,-9.52566e-06,2.32384e-05,0.00951476,-0.00190513,0.00464767,0.999398,-0.000835593,0.0346759,0.000700918,0.0761262,0.490611,-1.01973,34,1,65201,6634845
31,4,0.999398,-0.000835593,0.0346759,0.000700918,-0.693131,-0.0573934,9.7951,0.0544966,-0.534043,1.02941,-0.00693315,-0.000583576,0.0979508,1,4.75738e-05,-9.52566e-06,2.32384e-05,0.00951476,-0.00190513,0.00464767,0.999398,-0.000835593,0.0346759,0.000700918,0.0761262,0.490611,-1.01973,34,1,65201,6634845
31,5,0.999398,-0.000835593,0.0346759,0.000700918,-0.693131,-0.0573934,9.7951,0.0544966,-0.534043,1.02941,-0.00693315,-0.000583576,0.0979508,1,4.75738e-05,-9.52566e-06,2.32384e-05,0.00951476,-0.00190513,0.00464767,0.999398,-0.000835593,0.0346759,0.000700918,0.0761262,0.490611,-1.01973,34,1,65201,6634845
31,6,0.999398,-0.000793349,0.0346641,0.000712689,-0.677839,-0.0566464,9.79263,0.0650115,-0.530699,1.02318,-0.00678079,-0.000575762,0.0979261,1,4.64712e-05,-1.23231e-05,1.44559e-05,0.00929424,-0.00246461,0.00289118,0.999398,-0.000793349,0.0346641,0.000712689,0.0757594,0.488122,-1.01676,34,1,65202,6634945
31,7,0.999398,-0.000793349,0.0346641,0.000712689,-0.677839,-0.0566464,9.79263,0.0650115,-0.530699,1.02318,-0.00678079,-0.000575762,0.0979261,1,4.64712e-05,-1.23231e-05,1.44559e-05,0.00929424,-0.00246461,0.00289118,0.999398,-0.000793349,0.0346641,0.000712689,0.0757594,0.488122,-1.01676,34,1,65202,6634945
31,8,0.999398,-0.000793349,0.0346641,0.000712689,-0.677839,-0.0566464,9.79263,0.0650115,-0.530699,1.02318,-0.00678079,-0.000575762,0.0979261,1,4.64712e-05,-1.23231e-05,1.44559e-05,0.00929424,-0.00246461,0.00289118,0.999398,-0.000793349,0.0346641,0.000712689,0.0757594,0.488122,-1.01676,34,1,65202,6634945
32,1,0.999399,-0.000755689,0.0346484,0.000716988,-0.691575,-0.0749569,9.79257,0.0516875,-0.547077,1.02289,-0.00691896,-0.000757539,0.0979254,1,4.0304e-05,-1.64489e-05,5.54679e-06,0.00806079,-0.00328979,0.00110936,0.999399,-0.000755689,0.0346484,0.000716988,0.0757684,0.490525,-1.01468,34,1,65203,6635045
32,2,0.999399,-0.000755689,0.0346484,0.000716988,-0.691575,-0.0749569,9.79257,0.0516875,-0.547077,1.02289,-0.00691896,-0.000757539,0.0979254,1,4.0304e-05,-1.64489e-05,5.54679e-06,0.00806079,-0.00328979,0.00110936,0.999399,-0.000755689,0.0346484,0.000716988,0.0757684,0.490525,-1.01468,34,1,65203,6635045
32,3,0.999399,-0.000755689,0.0346484,0.000716988,-0.691575,-0.0749569,9.79257,0.0516875,-0.547077,1.02289,-0.00691896,-0.000757539,0.0979254,1,4.0304e-05,-1.64489e-05,5.54679e-06,0.00806079,-0.00328979,0.00110936,0.999399,-0.000755689,0.0346484,0.000716988,0.0757684,0.490525,-1.01468,34,1,65203,6635045
32,4,0.999399,-0.00070542,0.0346388,0.000729577,-0.681896,-0.0589311,9.79297,0.0622219,-0.530925,1.02848,-0.00682084,-0.00059996,0.0979296,1,5.32718e-05,-9.69282e-06,1.57691e-05,0.0106544,-0.00193856,0.00315382,0.999399,-0.00070542,0.0346388,0.000729577,0.0771225,0.494433,-1.01561,34,1,65204,6635145
32,5,0.999399,-0.00070542,0.0346388,0.000729577,-0.681896,-0.0589311,9.79297,0.0622219,-0.530925,1.02848,-0.00682084,-0.00059996,0.0979296,1,5.32718e-05,-9.69282e-06,1.57691e-05,0.0106544,-0.00193856,0.00315382,0.999399,-0.00070542,0.0346388,0.000729577,0.0771225,0.494433,-1.01561,34,1,65204,6635145
32,6,0.999399,-0.00070542,0.0346388,0.000729577,-0.681896,-0.0589311,9.79297,0.0622219,-0.530925,1.02848,-0.00682084,-0.00059996,0.0979296,1,5.32718e-05,-9.69282e-06,1.57691e-05,0.0106544,-0.00193856,0.00315382,0.999399,-0.00070542,0.0346388,0.000729577,0.0771225,0.494433,-1.01561,34,1,65204,6635145
32,7,0.9994,-0.000664444,0.034616,0.000733458,-0.692691,-0.0580674,9.78797,0.0568067,-0.534271,1.01705,-0.0069314,-0.000589699,0.0978794,1,4.55381e-05,-2.29699e-05,8.01119e-06,0.00910761,-0.00459399,0.00160224,0.9994,-0.000664444,0.034616,0.000733458,0.0765347,0.494997,-1.01964,34,1,65205,6635245
32,8,0.9994,-0.000664444,0.034616,0.000733458,-0.692691,-0.0580674,9.78797,0.0568067,-0.534271,1.01705,-0.0069314,-0.000589699,0.0978794,1,4.55381e-05,-2.29699e-05,8.01119e-06,0.00910761,-0.00459399,0.00160224,0.9994,-0.000664444,0.034616,0.000733458,0.0765347,0.494997,-1.01964,34,1,65205,6635245
33,1,0.9994,-0.000664444,0.034616,0.000733458,-0.692691,-0.0580674,9.78797,0.0568067,-0.534271,1.01705,-0.0069314,-0.000589699,0.0978794,1,4.55381e-05,-2.29699e-05,8.01119e-06,0.00910761,-0.00459399,0.00160224,0.9994,-0.000664444,0.034616,0.000733458,0.0765347,0.494997,-1.01964,34,1,65205,6635245
33,2,0.999401,-0.000625215,0.0345979,0.000732184,-0.693126,-0.0569458,9.78222,0.0513132,-0.538903,1.01638,-0.00693476,-0.00057858,0.0978219,1,4.64394e-05,-1.79373e-05,2.6449e-06,0.00928789,-0.00358747,0.000528981,0.999401,-0.000625215,0.0345979,0.000732184,0.0751108,0.491621,-1.02122,34,1,65206,6635345
33,3,0.999401,-0.000625215,0.0345979,0.000732184,-0.693126,-0.0569458,9.78222,0.0513132,-0.538903,1.01638,-0.00693476,-0.00057858,0.0978219,1,4.64394e-05,-1.79373e-05,2.6449e-06,0.00928789,-0.00358747,0.000528981,0.999401,-0.000625215,0.0345979,0.000732184,0.0751108,0.491621,-1.02122,34,1,65206,6635345
33,4,0.999401,-0.000625215,0.0345979,0.000732184,-0.693126,-0.0569458,9.78222,0.0513132,-0.538903,1.01638,-0.00693476,-0.00057858,0.0978219,1,4.64394e-05,-1.79373e-05,2.6449e-06,0.00928789,-0.00358747,0.000528981,0.999401,-0.000625215,0.0345979,0.000732184,0.0751108,0.491621,-1.02122,34,1,65206,6635345
34,1,0.999402,-0.00059191,0.0345745,0.000738885,-0.688011,-0.0587889,9.78148,0.05901,-0.531826,1.01004,-0.00688482,-0.000596085,0.0978145,1,4.13283e-05,-2.41364e-05,8.01121e-06,0.00826565,-0.00482727,0.00160224,0.999402,-0.00059191,0.0345745,0.000738885,0.0746952,0.490614,-1.01922,34,1,65207,6635445
34,2,0.999402,-0.00059191,0.0345745,0.000738885,-0.688011,-0.0587889,9.78148,0.05901,-0.531826,1.01004,-0.00688482,-0.000596085,0.0978145,1,4.13283e-05,-2.41364e-05,8.01121e-06,0.00826565,-0.00482727,0.00160224,0.999402,-0.00059191,0.0345745,0.000738885,0.0746952,0.490614,-1.01922,34,1,65207,6635445
34,3,0.999402,-0.00059191,0.0345745,0.000738885,-0.688011,-0.0587889,9.78148,0.05901,-0.531826,1.01004,-0.00688482,-0.000596085,0.0978145,1,4.13283e-05,-2.41364e-05,8.01121e-06,0.00826565,-0.00482727,0.00160224,0.999402,-0.00059191,0.0345745,0.000738885,0.0746952,0.490614,-1.01922,34,1,65207,6635445
34,4,0.999402,-0.000566281,0.034575,0.000759839,-0.683318,-0.0684843,9.79154,0.0580101,-0.548052,1.02053,-0.00683317,-0.00069125,0.0979154,1,3.13166e-05,-8.38595e-08,2.00719e-05,0.00626332,-1.67719e-05,0.00401438,0.999402,-0.000566281,0.034575,0.000759839,0.0752669,0.491025,-1.01518,34,1,65208,6635545
34,5,0.999402,-0.000566281,0.034575,0.000759839,-0.683318,-0.0684843,9.79154,0.0580101,-0.548052,1.02053,-0.00683317,-0.00069125,0.0979154,1,3.13166e-05,-8.38595e-08,2.00719e-05,0.00626332,-1.67719e-05,0.00401438,0.999402,-0.000566281,0.034575,0.000759839,0.0752669,0.491025,-1.01518,34,1,65208,6635545
34,6,0.999402,-0.000566281,0.034575,0.000759839,-0.683318,-0.0684843,9.79154,0.0580101,-0.548052,1.02053,-0.00683317,-0.00069125,0.0979154,1,3.13166e-05,-8.38595e-08,2.00719e-05,0.00626332,-1.67719e-05,0.00401438,0.999402,-0.000566281,0.034575,0.000759839,0.0752669,0.491025,-1.01518,34,1,65208,6635545
34,7,0.999402,-0.000532031,0.0345643,0.00077011,-0.688695,-0.0629423,9.78959,0.0566865,-0.542999,1.02109,-0.00688906,-0.000636646,0.0978957,1,3.61111e-05,-1.08386e-05,1.10771e-05,0.00722223,-0.00216773,0.00221542,0.999402,-0.000532031,0.0345643,0.00077011,0.0747901,0.491508,-1.01466,34,1,65209,6635645
34,8,0.999402,-0.000532031,0.0345643,0.00077011,-0.688695,-0.0629423,9.78959,0.0566865,-0.542999,1.02109,-0.00688906,-0.000636646,0.0978957,1,3.61111e-05,-1.08386e-05,1.10771e-05,0.00722223,-0.00216773,0.00221542,0.999402,-0.000532031,0.0345643,0.00077011,0.0747901,0.491508,-1.01466,34,1,65209,6635645
35,1,0.999402,-0.000532031,0.0345643,0.00077011,-0.688695,-0.0629423,9.78959,0.0566865,-0.542999,1.02109,-0.00688906,-0.000636646,0.0978957,1,3.61111e-05,-1.08386e-05,1.10771e-05,0.00722223,-0.00216773,0.00221542,0.999402,-0.000532031,0.0345643,0.00077011,0.0747901,0.491508,-1.01466,34,1,65209,6635645
35,2,0.999402,-0.000498832,0.034556,0.000777919,-0.67929,-0.0539075,9.78418,0.0654734,-0.534777,1.01345,-0.00679458,-0.000546242,0.0978416,1,3.59994e-05,-8.64814e-06,9.02633e-06,0.00719988,-0.00172963,0.00180527,0.999402,-0.000498832,0.034556,0.000777919,0.0781251,0.491986,-1.01567,34,1,65210,6635745
35,3,0.999402,-0.000498832,0.034556,0.000777919,-0.67929,-0.0539075,9.78418,0.0654734,-0.534777,1.01345,-0.00679458,-0.000546242,0.0978416,1,3.59994e-05,-8.64814e-06,9.02633e-06,0.00719988,-0.00172963,0.00180527,0.999402,-0.000498832,0.034556,0.000777919,0.0781251,0.491986,-1.01567,34,1,65210,6635745
35,4,0.999402,-0.000498832,0.034556,0.000777919,-0.67929,-0.0539075,9.78418,0.0654734,-0.534777,1.01345,-0.00679458,-0.000546242,0.0978416,1,3.59994e-05,-8.64814e-06,9.02633e-06,0.00719988,-0.00172963,0.00180527,0.999402,-0.000498832,0.034556,0.000777919,0.0781251,0.491986,-1.01567,34,1,65210,6635745
35,5,0.999402,-0.000462144,0.034564,0.000771845,-0.692013,-0.0526125,9.788,0.0528528,-0.529282,1.019,-0.006919,-0.000534422,0.09788,1,4.20772e-05,5.72416e-06,4.37349e-06,0.00841543,0.00114483,0.000874699,0.999402,-0.000462144,0.034564,0.000771845,0.0794864,0.492516,-1.0187,34,1,65211,6635845
35,6,0.999402,-0.000462144,0.034564,0.000771845,-0.692013,-0.0526125,9.788,0.0528528,-0.529282,1.019,-0.006919,-0.000534422,0.09788,1,4.20772e-05,5.72416e-06,4.37349e-06,0.00841543,0.00114483,0.000874699,0.999402,-0.000462144,0.034564,0.000771845,0.0794864,0.492516,-1.0187,34,1,65211,6635845
35,7,0.999402,-0.000462144,0.034564,0.000771845,-0.692013,-0.0526125,9.788,0.0528528,-0.529282,1.019,-0.006919,-0.000534422,0.09788,1,4.20772e-05,5.72416e-06,4.37349e-06,0.00841543,0.00114483,0.000874699,0.999402,-0.000462144,0.034564,0.000771845,0.0794864,0.492516,-1.0187,34,1,65211,6635845
35,8,0.999402,-0.000431749,0.0345563,0.000781698,-0.689824,-0.0641713,9.78415,0.0535499,-0.547662,1.01769,-0.00690004,-0.000649901,0.0978414,1,4.0233e-05,-9.33342e-06,2.28475e-05,0.00804661,-0.00186668,0.00456949,0.999402,-0.000431749,0.0345563,0.000781698,0.0774836,0.492107,-1.02223,34,1,65212,6635945
36,1,0.999402,-0.000431749,0.0345563,0.000781698,-0.689824,-0.0641713,9.78415,0.0535499,-0.547662,1.01769,-0.00690004,-0.000649901,0.0978414,1,4.0233e-05,-9.33342e-06,2.28475e-05,0.00804661,-0.00186668,0.00456949,0.999402,-0.000431749,0.0345563,0.000781698,0.0774836,0.492107,-1.02223,34,1,65212,6635945
36,2,0.999402,-0.000431749,0.0345563,0.000781698,-0.689824,-0.0641713,9.78415,0.0535499,-0.547662,1.01769,-0.00690004,-0.000649901,0.0978414,1,4.0233e-05,-9.33342e-06,2.28475e-05,0.00804661,-0.00186668,0.00456949,0.999402,-0.000431749,0.0345563,0.000781698,0.0774836,0.492107,-1.02223,34,1,65212,6635945
36,3,0.999403,-0.000400273,0.034549,0.00080565,-0.679393,-0.0537909,9.78485,0.0627871,-0.541072,1.01371,-0.00679558,-0.000547275,0.0978483,1,4.57743e-05,-8.60154e-06,3.00337e-05,0.00915486,-0.00172031,0.00600673,0.999403,-0.000400273,0.034549,0.00080565,0.075135,0.490158,-1.02126,34,1,65213,6636045
36,4,0.999403,-0.000400273,0.034549,0.00080565,-0.679393,-0.0537909,9.78485,0.0627871,-0.541072,1.01371,-0.00679558,-0.000547275,0.0978483,1,4.57743e-05,-8.60154e-06,3.00337e-05,0.00915486,-0.00172031,0.00600673,0.999403,-0.000400273,0.034549,0.00080565,0.075135,0.490158,-1.02126,34,1,65213,6636045
36,5,0.999403,-0.00037073,0.034538,0.000823573,-0.693787,-0.0609847,9.78998,0.0508092,-0.546479,1.02143,-0.00694017,-0.000617926,0.0978996,1,4.02946e-05,-1.18708e-05,1.36698e-05,0.00805893,-0.00237416,0.00273395,0.999403,-0.00037073,0.034538,0.000823573,0.0743161,0.488134,-1.01675,34,1,65214,6636145
36,6,0.999403,-0.00037073,0.034538,0.000823573,-0.693787,-0.0609847,9.78998,0.0508092,-0.546479,1.02143,-0.00694017,-0.000617926,0.0978996,1,4.02946e-05,-1.18708e-05,1.36698e-05,0.00805893,-0.00237416,0.00273395,0.999403,-0.00037073,0.034538,0.000823573,0.0743161,0.488134,-1.01675,34,1,65214,6636145
36,7,0.999403,-0.00037073,0.034538,0.000823573,-0.693787,-0.0609847,9.78998,0.0508092,-0.546479,1.02143,-0.00694017,-0.000617926,0.0978996,1,4.02946e-05,-1.18708e-05,1.36698e-05,0.00805893,-0.00237416,0.00273395,0.999403,-0.00037073,0.034538,0.000823573,0.0743161,0.488134,-1.01675,34,1,65214,6636145
36,8,0.999403,-0.000318569,0.0345244,0.000863486,-0.685868,-0.06832,9.79326,0.0592128,-0.550986,1.02548,-0.00686125,-0.000693208,0.0979324,1,4.90118e-05,-1.33442e-05,2.97519e-05,0.00980236,-0.00266884,0.00595038,0.999403,-0.000318569,0.0345244,0.000863486,0.0752508,0.492001,-1.01515,34,1,65215,6636245
37,1,0.999403,-0.000318569,0.0345244,0.000863486,-0.685868,-0.06832,9.79326,0.0592128,-0.550986,1.02548,-0.00686125,-0.000693208,0.0979324,1,4.90118e-05,-1.33442e-05,2.97519e-05,0.00980236,-0.00266884,0.00595038,0.999403,-0.000318569,0.0345244,0.000863486,0.0752508,0.492001,-1.01515,34,1,65215,6636245
37,2,0.999403,-0.000318569,0.0345244,0.000863486,-0.685868,-0.06832,9.79326,0.0592128,-0.550986,1.02548,-0.00686125,-0.000693208,0.0979324,1,4.90118e-05,-1.33442e-05,2.97519e-05,0.00980236,-0.00266884,0.00595038,0.999403,-0.000318569,0.0345244,0.000863486,0.0752508,0.492001,-1.01515,34,1,65215,6636245
37,3,0.999404,-0.000278093,0.0345188,0.000873385,-0.675179,-0.0600329,9.78885,0.0673401,-0.547556,1.02078,-0.00675309,-0.000608986,0.0978883,1,4.34295e-05,-6.74848e-06,1.14031e-05,0.00868589,-0.0013497,0.00228062,0.999404,-0.000278093,0.0345188,0.000873385,0.0766167,0.494455,-1.01662,34,1,65216,6636345
37,4,0.999404,-0.000278093,0.0345188,0.000873385,-0.675179,-0.0600329,9.78885,0.0673401,-0.547556,1.02078,-0.00675309,-0.000608986,0.0978883,1,4.34295e-05,-6.74848e-06,1.14031e-05,0.00868589,-0.0013497,0.00228062,0.999404,-0.000278093,0.0345188,0.000873385,0.0766167,0.494455,-1.01662,34,1,65216,6636345
37,5,0.999404,-0.000278093,0.0345188,0.000873385,-0.675179,-0.0600329,9.78885,0.0673401,-0.547556,1.02078,-0.00675309,-0.000608986,0.0978883,1,4.34295e-05,-6.74848e-06,1.14031e-05,0.00868589,-0.0013497,0.00228062,0.999404,-0.000278093,0.0345188,0.000873385,0.0766167,0.494455,-1.01662,34,1,65216,6636345
37,6,0.999404,-0.000250118,0.0345031,0.000894426,-0.694809,-0.0596131,9.79136,0.045133,-0.5461,1.02172,-0.00695132,-0.000603431,0.0979133,1,3.52152e-05,-1.66669e-05,2.90331e-05,0.00704303,-0.00333339,0.00580662,0.999404,-0.000250118,0.0345031,0.000894426,0.0760735,0.493059,-1.02019,34,1,65217,6636445
37,7,0.999404,-0.000250118,0.0345031,0.000894426,-0.694809,-0.0596131,9.79136,0.045133,-0.5461,1.02172,-0.00695132,-0.000603431,0.0979133,1,3.52152e-05,-1.66669e-05,2.90331e-05,0.00704303,-0.00333339,0.00580662,0.999404,-0.000250118,0.0345031,0.000894426,0.0760735,0.493059,-1.02019,34,1,65217,6636445
37,8,0.999404,-0.000250118,0.0345031,0.000894426,-0.694809,-0.0596131,9.79136,0.045133,-0.5461,1.02172,-0.00695132,-0.000603431,0.0979133,1,3.52152e-05,-1.66669e-05,2.90331e-05,0.00704303,-0.00333339,0.00580662,0.999404,-0.000250118,0.0345031,0.000894426,0.0760735,0.493059,-1.02019,34,1,65217,6636445
38,1,0.999404,-0.000211443,0.0344979,0.000903115,-0.683601,-0.0617988,9.79737,0.0598789,-0.552283,1.03219,-0.00683737,-0.000628637,0.0979735,1,5.35027e-05,-7.00684e-06,1.20364e-05,0.0107005,-0.00140137,0.00240728,0.999404,-0.000211443,0.0344979,0.000903115,0.0765622,0.491122,-1.02124,34,1,65218,6636545
38,2,0.999404,-0.000211443,0.0344979,0.000903115,-0.683601,-0.0617988,9.79737,0.0598789,-0.552283,1.03219,-0.00683737,-0.000628637,0.0979735,1,5.35027e-05,-7.00684e-06,1.20364e-05,0.0107005,-0.00140137,0.00240728,0.999404,-0.000211443,0.0344979,0.000903115,0.0765622,0.491122,-1.02124,34,1,65218,6636545
38,3,0.999404,-0.000211443,0.0344979,0.000903115,-0.683601,-0.0617988,9.79737,0.0598789,-0.552283,1.03219,-0.00683737,-0.000628637,0.0979735,1,5.35027e-05,-7.00684e-06,1.20364e-05,0.0107005,-0.00140137,0.00240728,0.999404,-0.000211443,0.0344979,0.000903115,0.0765622,0.491122,-1.02124,34,1,65218,6636545
38,4,0.999405,-0.000178417,0.0344893,0.000912126,-0.685711,-0.0641261,9.78514,0.0574404,-0.550823,1.01452,-0.00685921,-0.000651017,0.0978512,1,4.88124e-05,-1.08574e-05,1.47896e-05,0.00976248,-0.00217148,0.00295792,0.999405,-0.000178417,0.0344893,0.000912126,0.0756489,0.489648,-1.02026,34,1,65219,6636645
38,5,0.999405,-0.000178417,0.0344893,0.000912126,-0.685711,-0.0641261,9.78514,0.0574404,-0.550823,1.01452,-0.00685921,-0.000651017,0.0978512,1,4.88124e-05,-1.08574e-05,1.47896e-05,0.00976248,-0.00217148,0.00295792,0.999405,-0.000178417,0.0344893,0.000912126,0.0756489,0.489648,-1.02026,34,1,65219,6636645
38,6,0.999405,-0.000178417,0.0344893,0.000912126,-0.685711,-0.0641261,9.78514,0.0574404,-0.550823,1.01452,-0.00685921,-0.000651017,0.0978512,1,4.88124e-05,-1.08574e-05,1.47896e-05,0.00976248,-0.00217148,0.00295792,0.999405,-0.000178417,0.0344893,0.000912126,0.0756489,0.489648,-1.02026,34,1,65219,6636645
38,7,0.999405,-0.000152541,0.0344803,0.000926984,-0.688121,-0.0567767,9.78693,0.054341,-0.545401,1.01543,-0.00688316,-0.000575276,0.0978691,1,3.73181e-05,-1.00415e-05,1.48397e-05,0.00746362,-0.00200829,0.00296795,0.999405,-0.000152541,0.0344803,0.000926984,0.0752299,0.491052,-1.01669,34,1,65220,6636745
38,8,0.999405,-0.000152541,0.0344803,0.000926984,-0.688121,-0.0567767,9.78693,0.054341,-0.545401,1.01543,-0.00688316,-0.000575276,0.0978691,1,3.73181e-05,-1.00415e-05,1.48397e-05,0.00746362,-0.00200829,0.00296795,0.999405,-0.000152541,0.0344803,0.000926984,0.0752299,0.491052,-1.01669,34,1,65220,6636745
38,9,0.999405,-0.000152541,0.0344803,0.000926984,-0.688121,-0.0567767,9.78693,0.054341,-0.545401,1.01543,-0.00688316,-0.000575276,0.0978691,1,3.73181e-05,-1.00415e-05,1.48397e-05,0.00746362,-0.00200829,0.00296795,0.999405,-0.000152541,0.0344803,0.000926984,0.0752299,0.491052,-1.01669,34,1,65220,6636745
38,10,0.999405,-0.000125341,0.034476,0.00094168,-0.688456,-0.0578872,9.78963,0.0518941,-0.544693,1.02009,-0.00688538,-0.000584818,0.0978962,1,2.9523e-05,-4.26527e-06,1.20289e-05,0.0059046,-0.000853054,0.00240578,0.999405,-0.000125341,0.034476,0.00094168,0.076193,0.493935,-1.01461,34,1,65221,6636845
39,1,0.999405,-0.000125341,0.034476,0.00094168,-0.688456,-0.0578872,9.78963,0.0518941,-0.544693,1.02009,-0.00688538,-0.000584818,0.0978962,1,2.9523e-05,-4.26527e-06,1.20289e-05,0.0059046,-0.000853054,0.00240578,0.999405,-0.000125341,0.034476,0.00094168,0.076193,0.493935,-1.01461,34,1,65221,6636845
39,2,0.999405,-0.000125341,0.034476,0.00094168,-0.688456,-0.0578872,9.78963,0.0518941,-0.544693,1.02009,-0.00688538,-0.000584818,0.0978962,1,2.9523e-05,-4.26527e-06,1.20289e-05,0.0059046,-0.000853054,0.00240578,0.999405,-0.000125341,0.034476,0.00094168,0.076193,0.493935,-1.01461,34,1,65221,6636845
39,3,0.999405,-9.78588e-05,0.0344659,0.000959581,-0.683786,-0.0578115,9.77704,0.058614,-0.546901,1.00563,-0.00683963,-0.000583587,0.0977703,1,2.66823e-05,-9.15873e-06,1.86284e-05,0.00533646,-0.00183175,0.00372567,0.999405,-9.78588e-05,0.0344659,0.000959581,0.0775951,0.493471,-1.01665,34,1,65222,6636945
39,4,0.999405,-9.78588e-05,0.0344659,0.000959581,-0.683786,-0.0578115,9.77704,0.058614,-0.546901,1.00563,-0.00683963,-0.000583587,0.0977703,1,2.66823e-05,-9.15873e-06,1.86284e-05,0.00533646,-0.00183175,0.00372567,0.999405,-9.78588e-05,0.0344659,0.000959581,0.0775951,0.493471,-1.01665,34,1,65222,6636945
39,5,0.999405,-9.78588e-05,0.0344659,0.000959581,-0.683786,-0.0578115,9.77704,0.058614,-0.546901,1.00563,-0.00683963,-0.000583587,0.0977703,1,2.66823e-05,-9.15873e-06,1.86284e-05,0.00533646,-0.00183175,0.00372567,0.999405,-9.78588e-05,0.0344659,0.000959581,0.0775951,0.493471,-1.01665,34,1,65222,6636945
39,6,0.999406,-5.48041e-05,0.0344575,0.000959654,-0.692753,-0.0652329,9.79231,0.0500986,-0.558412,1.02399,-0.00692954,-0.000662862,0.0979229,1,5.28507e-05,-1.03263e-05,1.31522e-05,0.0105701,-0.00206526,0.00263043,0.999406,-5.48041e-05,0.0344575,0.000959654,0.0770277,0.493538,-1.02018,34,1,65223,6637045
39,7,0.999406,-5.48041e-05,0.0344575,0.000959654,-0.692753,-0.0652329,9.79231,0.0500986,-0.558412,1.02399,-0.00692954,-0.000662862,0.0979229,1,5.28507e-05,-1.03263e-05,1.31522e-05,0.0105701,-0.00206526,0.00263043,0.999406,-5.48041e-05,0.0344575,0.000959654,0.0770277,0.493538,-1.02018,34,1,65223,6637045
39,8,0.999406,-3.92073e-05,0.0344507,0.000944267,-0.688106,-0.0557208,9.7849,0.0550902,-0.543586,1.01635,-0.00688281,-0.000564127,0.0978488,1,3.57404e-05,-8.91452e-06,-5.45208e-06,0.00714809,-0.0017829,-0.00109042,0.999406,-3.92073e-05,0.0344507,0.000944267,0.0770353,0.491605,-1.02123,34,1,65224,6637145
39,9,0.999406,-3.92073e-05,0.0344507,0.000944267,-0.688106,-0.0557208,9.7849,0.0550902,-0.543586,1.01635,-0.00688281,-0.000564127,0.0978488,1,3.57404e-05,-8.91452e-06,-5.45208e-06,0.00714809,-0.0017829,-0.00109042,0.999406,-3.92073e-05,0.0344507,0.000944267,0.0770353,0.491605,-1.02123,34,1,65224,6637145
39,10,0.999406,-3.92073e-05,0.0344507,0.000944267,-0.688106,-0.0557208,9.7849,0.0550902,-0.543586,1.01635,-0.00688281,-0.000564127,0.0978488,1,3.57404e-05,-8.91452e-06,-5.45208e-06,0.00714809,-0.0017829,-0.00109042,0.999406,-3.92073e-05,0.0344507,0.000944267,0.0770353,0.491605,-1.02123,34,1,65224,6637145
40,1,0.999406,-1.07191e-05,0.0344409,0.000951237,-0.681609,-0.0671309,9.78306,0.0604476,-0.559089,1.01416,-0.00681829,-0.00068128,0.0978304,1,4.97084e-05,-1.13488e-05,1.79822e-05,0.00994168,-0.00226975,0.00359644,0.999406,-1.07191e-05,0.0344409,0.000951237,0.0766277,0.49011,-1.01924,34,1,65225,6637245
40,2,0.999406,-1.07191e-05,0.0344409,0.000951237,-0.681609,-0.0671309,9.78306,0.0604476,-0.559089,1.01416,-0.00681829,-0.00068128,0.0978304,1,4.97084e-05,-1.13488e-05,1.79822e-05,0.00994168,-0.00226975,0.00359644,0.999406,-1.07191e-05,0.0344409,0.000951237,0.0766277,0.49011,-1.01924,34,1,65225,6637245
40,3,0.999406,-1.07191e-05,0.0344409,0.000951237,-0.681609,-0.0671309,9.78306,0.0604476,-0.559089,1.01416,-0.00681829,-0.00068128,0.0978304,1,4.97084e-05,-1.13488e-05,1.79822e-05,0.00994168,-0.00226975,0.00359644,0.999406,-1.07191e-05,0.0344409,0.000951237,0.0766277,0.49011,-1.01924,34,1,65225,6637245
40,4,0.999407,1.15772e-05,0.0344297,0.000954924,-0.687071,-0.0547866,9.78931,0.0550145,-0.551702,1.02345,-0.00687331,-0.000554725,0.0978929,1,3.42018e-05,-1.3361e-05,1.18781e-05,0.00684036,-0.00267221,0.00237562,0.999407,1.15772e-05,0.0344297,0.000954924,0.0753035,0.489553,-1.0147,34,1,65226,6637345
40,5,0.999407,1.15772e-05,0.0344297,0.000954924,-0.687071,-0.0547866,9.78931,0.0550145,-0.551702,1.02345,-0.00687331,-0.000554725,0.0978929,1,3.42018e-05,-1.3361e-05,1.18781e-05,0.00684036,-0.00267221,0.00237562,0.999407,1.15772e-05,0.0344297,0.000954924,0.0753035,0.489553,-1.0147,34,1,65226,6637345
40,6,0.999407,1.15772e-05,0.0344297,0.000954924,-0.687071,-0.0547866,9.78931,0.0550145,-0.551702,1.02345,-0.00687331,-0.000554725,0.0978929,1,3.42018e-05,-1.3361e-05,1.18781e-05,0.00684036,-0.00267221,0.00237562,0.999407,1.15772e-05,0.0344297,0.000954924,0.0753035,0.489553,-1.0147,34,1,65226,6637345
40,7,0.999407,6.77627e-05,0.0344243,0.000977782,-0.679971,-0.0654917,9.78238,0.061951,-0.560439,1.0112,-0.00680095,-0.000663928,0.0978237,1,4.50965e-05,-6.42599e-06,1.38563e-05,0.0090193,-0.0012852,0.00277127,0.999407,6.77627e-05,0.0344243,0.000977782,0.0767719,0.490968,-1.01266,34,1,65227,6637445
40,8,0.999407,6.77627e-05,0.0344243,0.000977782,-0.679971,-0.0654917,9.78238,0.061951,-0.560439,1.0112,-0.00680095,-0.000663928,0.0978237,1,4.50965e-05,-6.42599e-06,1.38563e-05,0.0090193,-0.0012852,0.00277127,0.999407,6.77627e-05,0.0344243,0.000977782,0.0767719,0.490968,-1.01266,34,1,65227,6637445
41,1,0.999407,6.77627e-05,0.0344243,0.000977782,-0.679971,-0.0654917,9.78238,0.061951,-0.560439,1.0112,-0.00680095,-0.000663928,0.0978237,1,4.50965e-05,-6.42599e-06,1.38563e-05,0.0090193,-0.0012852,0.00277127,0.999407,6.77627e-05,0.0344243,0.000977782,0.0767719,0.490968,-1.01266,34,1,65227,6637445
41,2,0.999407,0.000120677,0.0344312,0.000981347,-0.69454,-0.0692029,9.79465,0.0436068,-0.562171,1.02515,-0.00694414,-0.000700857,0.0979466,1,4.40646e-05,6.35906e-06,1.41187e-05,0.00881293,0.00127181,0.00282374,0.999407,0.000120677,0.0344312,0.000981347,0.0790674,0.49392,-1.01513,34,1,65228,6637545
41,3,0.999407,0.000120677,0.0344312,0.000981347,-0.69454,-0.0692029,9.79465,0.0436068,-0.562171,1.02515,-0.00694414,-0.000700857,0.0979466,1,4.40646e-05,6.35906e-06,1.41187e-05,0.00881293,0.00127181,0.00282374,0.999407,0.000120677,0.0344312,0.000981347,0.0790674,0.49392,-1.01513,34,1,65228,6637545
41,4,0.999407,0.000120677,0.0344312,0.000981347,-0.69454,-0.0692029,9.79465,0.0436068,-0.562171,1.02515,-0.00694414,-0.000700857,0.0979466,1,4.40646e-05,6.35906e-06,1.41187e-05,0.00881293,0.00127181,0.00282374,0.999407,0.000120677,0.0344312,0.000981347,0.0790674,0.49392,-1.01513,34,1,65228,6637545
41,5,0.999407,0.000151839,0.0344239,0.000961211,-0.688486,-0.0604028,9.78079,0.054347,-0.555259,1.00856,-0.0068868,-0.00061253,0.0978077,1,4.28055e-05,-9.98155e-06,9.33758e-06,0.0085611,-0.00199631,0.00186752,0.999407,0.000151839,0.0344239,0.000961211,0.0775012,0.495467,-1.01913,34,1,65229,6637645
41,6,0.999407,0.000151839,0.0344239,0.000961211,-0.688486,-0.0604028,9.78079,0.054347,-0.555259,1.00856,-0.0068868,-0.00061253,0.0978077,1,4.28055e-05,-9.98155e-06,9.33758e-06,0.0085611,-0.00199631,0.00186752,0.999407,0.000151839,0.0344239,0.000961211,0.0775012,0.495467,-1.01913,34,1,65229,6637645
41,7,0.999407,0.000151839,0.0344239,0.000961211,-0.688486,-0.0604028,9.78079,0.054347,-0.555259,1.00856,-0.0068868,-0.00061253,0.0978077,1,4.28055e-05,-9.98155e-06,9.33758e-06,0.0085611,-0.00199631,0.00186752,0.999407,0.000151839,0.0344239,0.000961211,0.0775012,0.495467,-1.01913,34,1,65229,6637645
41,8,0.999407,0.000169165,0.0344075,0.000961511,-0.686859,-0.0676833,9.79361,0.0547824,-0.567646,1.02269,-0.0068714,-0.000685587,0.0979359,1,4.25578e-05,-1.45268e-05,3.04076e-05,0.00851156,-0.00290536,0.00608152,0.999407,0.000169165,0.0344075,0.000961511,0.076065,0.492101,-1.02122,34,1,65230,6637745
42,1,0.999407,0.000169165,0.0344075,0.000961511,-0.686859,-0.0676833,9.79361,0.0547824,-0.567646,1.02269,-0.0068714,-0.000685587,0.0979359,1,4.25578e-05,-1.45268e-05,3.04076e-05,0.00851156,-0.00290536,0.00608152,0.999407,0.000169165,0.0344075,0.000961511,0.076065,0.492101,-1.02122,34,1,65230,6637745
42,2,0.999407,0.000169165,0.0344075,0.000961511,-0.686859,-0.0676833,9.79361,0.0547824,-0.567646,1.02269,-0.0068714,-0.000685587,0.0979359,1,4.25578e-05,-1.45268e-05,3.04076e-05,0.00851156,-0.00290536,0.00608152,0.999407,0.000169165,0.0344075,0.000961511,0.076065,0.492101,-1.02122,34,1,65230,6637745
42,3,0.999408,0.000193195,0.0343877,0.000980448,-0.683614,-0.0586127,9.77874,0.0572826,-0.552807,1.01291,-0.00683981,-0.000595862,0.0977871,1,4.83189e-05,-1.8891e-05,2.08782e-05,0.00966378,-0.0037782,0.00417565,0.999408,0.000193195,0.0343877,0.000980448,0.0751554,0.489661,-1.02076,34,1,65231,6637845
42,4,0.999408,0.000193195,0.0343877,0.000980448,-0.683614,-0.0586127,9.77874,0.0572826,-0.552807,1.01291,-0.00683981,-0.000595862,0.0977871,1,4.83189e-05,-1.8891e-05,2.08782e-05,0.00966378,-0.0037782,0.00417565,0.999408,0.000193195,0.0343877,0.000980448,0.0751554,0.489661,-1.02076,34,1,65231,6637845
42,5,0.999408,0.000193195,0.0343877,0.000980448,-0.683614,-0.0586127,9.77874,0.0572826,-0.552807,1.01291,-0.00683981,-0.000595862,0.0977871,1,4.83189e-05,-1.8891e-05,2.08782e-05,0.00966378,-0.0037782,0.00417565,0.999408,0.000193195,0.0343877,0.000980448,0.0751554,0.489661,-1.02076,34,1,65231,6637845
42,6,0.999408,0.00023302,0.0343757,0.00102396,-0.679088,-0.0660913,9.79018,0.0623064,-0.568395,1.02064,-0.00679392,-0.00067233,0.0979016,1,5.65462e-05,-1.57116e-05,2.53691e-05,0.0113092,-0.00314232,0.00507382,0.999408,0.00023302,0.0343757,0.00102396,0.0762329,0.490051,-1.01571,34,1,65232,6637945
42,7,0.999408,0.00023302,0.0343757,0.00102396,-0.679088,-0.0660913,9.79018,0.0623064,-0.568395,1.02064,-0.00679392,-0.00067233,0.0979016,1,5.65462e-05,-1.57116e-05,2.53691e-05,0.0113092,-0.00314232,0.00507382,0.999408,0.00023302,0.0343757,0.00102396,0.0762329,0.490051,-1.01571,34,1,65232,6637945
42,8,0.999408,0.00023302,0.0343757,0.00102396,-0.679088,-0.0660913,9.79018,0.0623064,-0.568395,1.02064,-0.00679392,-0.00067233,0.0979016,1,5.65462e-05,-1.57116e-05,2.53691e-05,0.0113092,-0.00314232,0.00507382,0.999408,0.00023302,0.0343757,0.00102396,0.0762329,0.490051,-1.01571,34,1,65232,6637945
43,1,0.999409,0.000275991,0.034364,0.00102845,-0.694129,-0.058201,9.79272,0.0426527,-0.558523,1.02524,-0.00694409,-0.00058991,0.097927,1,3.99649e-05,-1.435e-05,5.23399e-06,0.00799297,-0.00287,0.0010468,0.999409,0.000275991,0.034364,0.00102845,0.0762419,0.492454,-1.01363,34,1,65233,6638045
43,2,0.999409,0.000275991,0.034364,0.00102845,-0.694129,-0.058201,9.79272,0.0426527,-0.558523,1.02524,-0.00694409,-0.00058991,0.097927,1,3.99649e-05,-1.435e-05,5.23399e-06,0.00799297,-0.00287,0.0010468,0.999409,0.000275991,0.034364,0.00102845,0.0762419,0.492454,-1.01363,34,1,65233,6638045
43,3,0.999409,0.000304545,0.0343512,0.00103106,-0.688398,-0.0653544,9.78312,0.0523095,-0.566575,1.01487,-0.00688666,-0.000658922,0.097831,1,2.66861e-05,-1.37389e-05,1.13231e-05,0.00533721,-0.00274778,0.00226463,0.999409,0.000304545,0.0343512,0.00103106,0.0761807,0.493944,-1.01512,34,1,65234,6638145
43,4,0.999409,0.000304545,0.0343512,0.00103106,-0.688398,-0.0653544,9.78312,0.0523095,-0.566575,1.01487,-0.00688666,-0.000658922,0.097831,1,2.66861e-05,-1.37389e-05,1.13231e-05,0.00533721,-0.00274778,0.00226463,0.999409,0.000304545,0.0343512,0.00103106,0.0761807,0.493944,-1.01512,34,1,65234,6638145
43,5,0.999409,0.000304545,0.0343512,0.00103106,-0.688398,-0.0653544,9.78312,0.0523095,-0.566575,1.01487,-0.00688666,-0.000658922,0.097831,1,2.66861e-05,-1.37389e-05,1.13231e-05,0.00533721,-0.00274778,0.00226463,0.999409,0.000304545,0.0343512,0.00103106,0.0761807,0.493944,-1.01512,34,1,65234,6638145
43,6,0.999409,0.000345816,0.0343442,0.00104556,-0.689461,-0.0545355,9.7917,0.0469665,-0.556315,1.02244,-0.00689599,-0.000555763,0.0979169,1,5.12172e-05,-7.1725e-06,2.74033e-05,0.0102434,-0.0014345,0.00548065,0.999409,0.000345816,0.0343442,0.00104556,0.0774765,0.495486,-1.02014,34,1,65235,6638245
43,7,0.999409,0.000345816,0.0343442,0.00104556,-0.689461,-0.0545355,9.7917,0.0469665,-0.556315,1.02244,-0.00689599,-0.000555763,0.0979169,1,5.12172e-05,-7.1725e-06,2.74033e-05,0.0102434,-0.0014345,0.00548065,0.999409,0.000345816,0.0343442,0.00104556,0.0774765,0.495486,-1.02014,34,1,65235,6638245
43,8,0.999409,0.000345816,0.0343442,0.00104556,-0.689461,-0.0545355,9.7917,0.0469665,-0.556315,1.02244,-0.00689599,-0.000555763,0.0979169,1,5.12172e-05,-7.1725e-06,2.74033e-05,0.0102434,-0.0014345,0.00548065,0.999409,0.000345816,0.0343442,0.00104556,0.0774765,0.495486,-1.02014,34,1,65235,6638245
44,1,0.99941,0.000343779,0.0343352,0.00104753,-0.688617,-0.0658929,9.79839,0.0549196,-0.566096,1.02735,-0.00688779,-0.000664849,0.0979837,1,2.80106e-05,-8.47867e-06,3.12197e-05,0.00560212,-0.00169573,0.00624394,0.99941,0.000343779,0.0343352,0.00104753,0.0765257,0.492594,-1.02171,34,1,65236,6638345
44,2,0.99941,0.000343779,0.0343352,0.00104753,-0.688617,-0.0658929,9.79839,0.0549196,-0.566096,1.02735,-0.00688779,-0.000664849,0.0979837,1,2.80106e-05,-8.47867e-06,3.12197e-05,0.00560212,-0.00169573,0.00624394,0.99941,0.000343779,0.0343352,0.00104753,0.0765257,0.492594,-1.02171,34,1,65236,6638345
44,3,0.99941,0.000343779,0.0343352,0.00104753,-0.688617,-0.0658929,9.79839,0.0549196,-0.566096,1.02735,-0.00688779,-0.000664849,0.0979837,1,2.80106e-05,-8.47867e-06,3.12197e-05,0.00560212,-0.00169573,0.00624394,0.99941,0.000343779,0.0343352,0.00104753,0.0765257,0.492594,-1.02171,34,1,65236,6638345
44,4,0.99941,0.000357507,0.0343265,0.0010352,-0.680553,-0.0676407,9.79492,0.0585842,-0.571853,1.02309,-0.00680734,-0.000685294,0.097949,1,4.54094e-05,-9.1904e-06,-6.44129e-07,0.00908188,-0.00183808,-0.000128826,0.99941,0.000357507,0.0343265,0.0010352,0.0746952,0.490614,-1.01922,34,1,65237,6638445
44,5,0.99941,0.000357507,0.0343265,0.0010352,-0.680553,-0.0676407,9.79492,0.0585842,-0.571853,1.02309,-0.00680734,-0.000685294,0.097949,1,4.54094e-05,-9.1904e-06,-6.44129e-07,0.00908188,-0.00183808,-0.000128826,0.99941,0.000357507,0.0343265,0.0010352,0.0746952,0.490614,-1.01922,34,1,65237,6638445
44,6,0.99941,0.000357507,0.0343265,0.0010352,-0.680553,-0.0676407,9.79492,0.0585842,-0.571853,1.02309,-0.00680734,-0.000685294,0.097949,1,4.54094e-05,-9.1904e-06,-6.44129e-07,0.00908188,-0.00183808,-0.000128826,0.99941,0.000357507,0.0343265,0.0010352,0.0746952,0.490614,-1.01922,34,1,65237,6638445
44,7,0.999411,0.000371635,0.0343107,0.00107203,-0.68353,-0.0636411,9.78922,0.0536578,-0.568408,1.01967,-0.00683859,-0.000641722,0.0978919,1,2.62577e-05,-1.69016e-05,1.24499e-05,0.00525155,-0.00338032,0.00248998,0.999411,0.000371635,0.0343107,0.00107203,0.0757642,0.490046,-1.0152,34,1,65238,6638545
44,8,0.999411,0.000371635,0.0343107,0.00107203,-0.68353,-0.0636411,9.78922,0.0536578,-0.568408,1.01967,-0.00683859,-0.000641722,0.0978919,1,2.62577e-05,-1.69016e-05,1.24499e-05,0.00525155,-0.00338032,0.00248998,0.999411,0.000371635,0.0343107,0.00107203,0.0757642,0.490046,-1.0152,34,1,65238,6638545
45,1,0.999411,0.000371635,0.0343107,0.00107203,-0.68353,-0.0636411,9.78922,0.0536578,-0.568408,1.01967,-0.00683859,-0.000641722,0.0978919,1,2.62577e-05,-1.69016e-05,1.24499e-05,0.00525155,-0.00338032,0.00248998,0.999411,0.000371635,0.0343107,0.00107203,0.0757642,0.490046,-1.0152,34,1,65238,6638545
45,2,0.999411,0.000413276,0.0342939,0.00109264,-0.674665,-0.0651696,9.78169,0.0623715,-0.563702,1.00859,-0.00675051,-0.000658887,0.0978165,1,3.56865e-05,-1.98446e-05,1.54989e-05,0.0071373,-0.00396892,0.00309978,0.999411,0.000413276,0.0342939,0.00109264,0.0753329,0.491459,-1.01214,34,1,65239,6638645
45,3,0.999411,0.000413276,0.0342939,0.00109264,-0.674665,-0.0651696,9.78169,0.0623715,-0.563702,1.00859,-0.00675051,-0.000658887,0.0978165,1,3.56865e-05,-1.98446e-05,1.54989e-05,0.0071373,-0.00396892,0.00309978,0.999411,0.000413276,0.0342939,0.00109264,0.0753329,0.491459,-1.01214,34,1,65239,6638645
45,4,0.999411,0.000449882,0.0342853,0.00110526,-0.683248,-0.0629764,9.78616,0.0584067,-0.566233,1.0125,-0.00683438,-0.000635076,0.0978615,1,2.64161e-05,-9.78436e-06,1.03729e-05,0.00528323,-0.00195687,0.00207459,0.999411,0.000449882,0.0342853,0.00110526,0.077188,0.493421,-1.01362,34,1,65240,6638745
46,1,0.999411,0.000449882,0.0342853,0.00110526,-0.683248,-0.0629764,9.78616,0.0584067,-0.566233,1.0125,-0.00683438,-0.000635076,0.0978615,1,2.64161e-05,-9.78436e-06,1.03729e-05,0.00528323,-0.00195687,0.00207459,0.999411,0.000449882,0.0342853,0.00110526,0.077188,0.493421,-1.01362,34,1,65240,6638745
46,2,0.999411,0.000449882,0.0342853,0.00110526,-0.683248,-0.0629764,9.78616,0.0584067,-0.566233,1.0125,-0.00683438,-0.000635076,0.0978615,1,2.64161e-05,-9.78436e-06,1.03729e-05,0.00528323,-0.00195687,0.00207459,0.999411,0.000449882,0.0342853,0.00110526,0.077188,0.493421,-1.01362,34,1,65240,6638745
46,3,0.999412,0.000488765,0.0342791,0.0010974,-0.690094,-0.0645315,9.78585,0.0479389,-0.572747,1.01165,-0.00690246,-0.000654638,0.0978584,1,4.70001e-05,-7.84742e-06,9.017e-06,0.00940002,-0.00156948,0.0018034,0.999412,0.000488765,0.0342791,0.0010974,0.0775135,0.495458,-1.01862,34,1,65241,6638845
46,4,0.999412,0.000488765,0.0342791,0.0010974,-0.690094,-0.0645315,9.78585,0.0479389,-0.572747,1.01165,-0.00690246,-0.000654638,0.0978584,1,4.70001e-05,-7.84742e-06,9.017e-06,0.00940002,-0.00156948,0.0018034,0.999412,0.000488765,0.0342791,0.0010974,0.0775135,0.495458,-1.01862,34,1,65241,6638845
47,1,0.999412,0.000488765,0.0342791,0.0010974,-0.690094,-0.0645315,9.78585,0.0479389,-0.572747,1.01165,-0.00690246,-0.000654638,0.0978584,1,4.70001e-05,-7.84742e-06,9.017e-06,0.00940002,-0.00156948,0.0018034,0.999412,0.000488765,0.0342791,0.0010974,0.0775135,0.495458,-1.01862,34,1,65241,6638845
47,2,0.999412,0.000513467,0.0342742,0.00109788,-0.692619,-0.0570548,9.78898,0.0463567,-0.563369,1.01968,-0.00692736,-0.000580766,0.0978896,1,5.06451e-05,-6.10423e-06,2.17858e-05,0.010129,-0.00122085,0.00435716,0.999412,0.000513467,0.0342742,0.00109788,0.0756166,0.491599,-1.02022,34,1,65242,6638945
47,3,0.999412,0.000513467,0.0342742,0.00109788,-0.692619,-0.0570548,9.78898,0.0463567,-0.563369,1.01968,-0.00692736,-0.000580766,0.0978896,1,5.06451e-05,-6.10423e-06,2.17858e-05,0.010129,-0.00122085,0.00435716,0.999412,0.000513467,0.0342742,0.00109788,0.0756166,0.491599,-1.02022,34,1,65242,6638945
47,4,0.999412,0.000513467,0.0342742,0.00109788,-0.692619,-0.0570548,9.78898,0.0463567,-0.563369,1.01968,-0.00692736,-0.000580766,0.0978896,1,5.06451e-05,-6.10423e-06,2.17858e-05,0.010129,-0.00122085,0.00435716,0.999412,0.000513467,0.0342742,0.00109788,0.0756166,0.491599,-1.02022,34,1,65242,6638945
48,1,0.999412,0.000532312,0.0342621,0.00111312,-0.686322,-0.0573925,9.78759,0.0476688,-0.564541,1.01517,-0.00686606,-0.000582304,0.0978757,1,4.19356e-05,-1.45323e-05,1.24107e-05,0.00838713,-0.00290647,0.00248214,0.999412,0.000532312,0.0342621,0.00111312,0.0752579,0.488623,-1.01725,34,1,65243,6639045
48,2,0.999412,0.000532312,0.0342621,0.00111312,-0.686322,-0.0573925,9.78759,0.0476688,-0.564541,1.01517,-0.00686606,-0.000582304,0.0978757,1,4.19356e-05,-1.45323e-05,1.24107e-05,0.00838713,-0.00290647,0.00248214,0.999412,0.000532312,0.0342621,0.00111312,0.0752579,0.488623,-1.01725,34,1,65243,6639045
48,3,0.999412,0.000532312,0.0342621,0.00111312,-0.686322,-0.0573925,9.78759,0.0476688,-0.564541,1.01517,-0.00686606,-0.000582304,0.0978757,1,4.19356e-05,-1.45323e-05,1.24107e-05,0.00838713,-0.00290647,0.00248214,0.999412,0.000532312,0.0342621,0.00111312,0.0752579,0.488623,-1.01725,34,1,65243,6639045
48,4,0.999412,0.000566797,0.0342613,0.00112984,-0.68467,-0.0653427,9.79055,0.0560585,-0.572639,1.01929,-0.00684767,-0.00066177,0.0979054,1,4.21125e-05,-4.96241e-06,7.08736e-06,0.0084225,-0.000992481,0.00141747,0.999412,0.000566797,0.0342613,0.00112984,0.0753523,0.488072,-1.01373,34,1,65244,6639145
49,1,0.999412,0.000566797,0.0342613,0.00112984,-0.68467,-0.0653427,9.79055,0.0560585,-0.572639,1.01929,-0.00684767,-0.00066177,0.0979054,1,4.21125e-05,-4.96241e-06,7.08736e-06,0.0084225,-0.000992481,0.00141747,0.999412,0.000566797,0.0342613,0.00112984,0.0753523,0.488072,-1.01373,34,1,65244,6639145
49,2,0.999412,0.000566797,0.0342613,0.00112984,-0.68467,-0.0653427,9.79055,0.0560585,-0.572639,1.01929,-0.00684767,-0.00066177,0.0979054,1,4.21125e-05,-4.96241e-06,7.08736e-06,0.0084225,-0.000992481,0.00141747,0.999412,0.000566797,0.0342613,0.00112984,0.0753523,0.488072,-1.01373,34,1,65244,6639145
50,1,0.999412,0.000602143,0.0342544,0.0011516,-0.702037,-0.0677686,9.78353,0.031214,-0.574383,1.01363,-0.0070221,-0.000684645,0.0978351,1,3.41105e-05,-8.95955e-06,2.02583e-05,0.00682209,-0.00179191,0.00405166,0.999412,0.000602143,0.0342544,0.0011516,0.0767757,0.490002,-1.01319,34,1,65245,6639245
50,2,0.999412,0.000602143,0.0342544,0.0011516,-0.702037,-0.0677686,9.78353,0.031214,-0.574383,1.01363,-0.0070221,-0.000684645,0.0978351,1,3.41105e-05,-8.95955e-06,2.02583e-05,0.00682209,-0.00179191,0.00405166,0.999412,0.000602143,0.0342544,0.0011516,0.0767757,0.490002,-1.01319,34,1,65245,6639245
50,3,0.999412,0.000602143,0.0342544,0.0011516,-0.702037,-0.0677686,9.78353,0.031214,-0.574383,1.01363,-0.0070221,-0.000684645,0.0978351,1,3.41105e-05,-8.95955e-06,2.02583e-05,0.00682209,-0.00179191,0.00405166,0.999412,0.000602143,0.0342544,0.0011516,0.0767757,0.490002,-1.01319,34,1,65245,6639245
50,4,0.999413,0.000640308,0.0342467,0.0011659,-0.685736,-0.0573304,9.7825,0.0492373,-0.563688,1.01069,-0.00685937,-0.000582482,0.0978248,1,4.51225e-05,-1.04478e-05,2.55238e-05,0.00902451,-0.00208957,0.00510475,0.999413,0.000640308,0.0342467,0.0011659,0.078611,0.493906,-1.01412,34,1,65246,6639345
51,1,0.999413,0.000640308,0.0342467,0.0011659,-0.685736,-0.0573304,9.7825,0.0492373,-0.563688,1.01069,-0.00685937,-0.000582482,0.0978248,1,4.51225e-05,-1.04478e-05,2.55238e-05,0.00902451,-0.00208957,0.00510475,0.999413,0.000640308,0.0342467,0.0011659,0.078611,0.493906,-1.01412,34,1,65246,6639345
51,2,0.999413,0.000640308,0.0342467,0.0011659,-0.685736,-0.0573304,9.7825,0.0492373,-0.563688,1.01069,-0.00685937,-0.000582482,0.0978248,1,4.51225e-05,-1.04478e-05,2.55238e-05,0.00902451,-0.00208957,0.00510475,0.999413,0.000640308,0.0342467,0.0011659,0.078611,0.493906,-1.01412,34,1,65246,6639345
51,3,0.999413,0.00066034,0.0342428,0.00115286,-0.688446,-0.0536134,9.78763,0.0514655,-0.562267,1.01317,-0.00688582,-0.000543615,0.0978762,1,3.73535e-05,-7.03879e-06,1.22393e-05,0.00747071,-0.00140776,0.00244786,0.999413,0.00066034,0.0342428,0.00115286,0.0774807,0.495964,-1.01962,34,1,65247,6639445
51,4,0.999413,0.00066034,0.0342428,0.00115286,-0.688446,-0.0536134,9.78763,0.0514655,-0.562267,1.01317,-0.00688582,-0.000543615,0.0978762,1,3.73535e-05,-7.03879e-06,1.22393e-05,0.00747071,-0.00140776,0.00244786,0.999413,0.00066034,0.0342428,0.00115286,0.0774807,0.495964,-1.01962,34,1,65247,6639445
52,1,0.999413,0.00066034,0.0342428,0.00115286,-0.688446,-0.0536134,9.78763,0.0514655,-0.562267,1.01317,-0.00688582,-0.000543615,0.0978762,1,3.73535e-05,-7.03879e-06,1.22393e-05,0.00747071,-0.00140776,0.00244786,0.999413,0.00066034,0.0342428,0.00115286,0.0774807,0.495964,-1.01962,34,1,65247,6639445
52,2,0.999413,0.000678323,0.0342331,0.00115854,-0.689746,-0.0595177,9.79946,0.0469104,-0.57056,1.02576,-0.0068996,-0.000604886,0.0979944,1,4.79668e-05,-1.10453e-05,2.23278e-05,0.00959335,-0.00220906,0.00446555,0.999413,0.000678323,0.0342331,0.00115854,0.0779894,0.492085,-1.02123,34,1,65248,6639545
52,3,0.999413,0.000678323,0.0342331,0.00115854,-0.689746,-0.0595177,9.79946,0.0469104,-0.57056,1.02576,-0.0068996,-0.000604886,0.0979944,1,4.79668e-05,-1.10453e-05,2.23278e-05,0.00959335,-0.00220906,0.00446555,0.999413,0.000678323,0.0342331,0.00115854,0.0779894,0.492085,-1.02123,34,1,65248,6639545
52,4,0.999413,0.000678323,0.0342331,0.00115854,-0.689746,-0.0595177,9.79946,0.0469104,-0.57056,1.02576,-0.0068996,-0.000604886,0.0979944,1,4.79668e-05,-1.10453e-05,2.23278e-05,0.00959335,-0.00220906,0.00446555,0.999413,0.000678323,0.0342331,0.00115854,0.0779894,0.492085,-1.02123,34,1,65248,6639545
53,1,0.999413,0.000681405,0.0342297,0.00116306,-0.693524,-0.0733461,9.79122,0.04378,-0.579655,1.01866,-0.00693665,-0.000740027,0.0979121,1,3.23987e-05,-7.32945e-06,1.60229e-05,0.00647974,-0.00146589,0.00320458,0.999413,0.000681405,0.0342297,0.00116306,0.0756821,0.490588,-1.01822,34,1,65249,6639645
53,2,0.999413,0.000681405,0.0342297,0.00116306,-0.693524,-0.0733461,9.79122,0.04378,-0.579655,1.01866,-0.00693665,-0.000740027,0.0979121,1,3.23987e-05,-7.32945e-06,1.60229e-05,0.00647974,-0.00146589,0.00320458,0.999413,0.000681405,0.0342297,0.00116306,0.0756821,0.490588,-1.01822,34,1,65249,6639645
53,3,0.999413,0.000681405,0.0342297,0.00116306,-0.693524,-0.0733461,9.79122,0.04378,-0.579655,1.01866,-0.00693665,-0.000740027,0.0979121,1,3.23987e-05,-7.32945e-06,1.60229e-05,0.00647974,-0.00146589,0.00320458,0.999413,0.000681405,0.0342297,0.00116306,0.0756821,0.490588,-1.01822,34,1,65249,6639645
53,4,0.999414,0.000710118,0.0342117,0.00117346,-0.693214,-0.049172,9.78126,0.0445639,-0.562023,1.00643,-0.00693614,-0.000500352,0.0978123,1,4.41671e-05,-2.04405e-05,-5.587e-07,0.00883342,-0.0040881,-0.00011174,0.999414,0.000710118,0.0342117,0.00117346,0.0752873,0.490529,-1.01468,34,1,65250,6639745
54,1,0.999414,0.000710118,0.0342117,0.00117346,-0.693214,-0.049172,9.78126,0.0445639,-0.562023,1.00643,-0.00693614,-0.000500352,0.0978123,1,4.41671e-05,-2.04405e-05,-5.587e-07,0.00883342,-0.0040881,-0.00011174,0.999414,0.000710118,0.0342117,0.00117346,0.0752873,0.490529,-1.01468,34,1,65250,6639745
54,2,0.999414,0.000710118,0.0342117,0.00117346,-0.693214,-0.049172,9.78126,0.0445639,-0.562023,1.00643,-0.00693614,-0.000500352,0.0978123,1,4.41671e-05,-2.04405e-05,-5.587e-07,0.00883342,-0.0040881,-0.00011174,0.999414,0.000710118,0.0342117,0.00117346,0.0752873,0.490529,-1.01468,34,1,65250,6639745
54,3,0.999414,0.000747368,0.0341988,0.00120648,-0.695175,-0.0615553,9.79066,0.0390933,-0.57557,1.0198,-0.00695457,-0.000624359,0.0979064,1,4.30493e-05,-1.45847e-05,2.70663e-05,0.00860986,-0.00291694,0.00541325,0.999414,0.000747368,0.0341988,0.00120648,0.0777133,0.490012,-1.0142,34,1,65251,6639845
54,4,0.999414,0.000747368,0.0341988,0.00120648,-0.695175,-0.0615553,9.79066,0.0390933,-0.57557,1.0198,-0.00695457,-0.000624359,0.0979064,1,4.30493e-05,-1.45847e-05,2.70663e-05,0.00860986,-0.00291694,0.00541325,0.999414,0.000747368,0.0341988,0.00120648,0.0777133,0.490012,-1.0142,34,1,65251,6639845
55,1,0.999414,0.000747368,0.0341988,0.00120648,-0.695175,-0.0615553,9.79066,0.0390933,-0.57557,1.0198,-0.00695457,-0.000624359,0.0979064,1,4.30493e-05,-1.45847e-05,2.70663e-05,0.00860986,-0.00291694,0.00541325,0.999414,0.000747368,0.0341988,0.00120648,0.0777133,0.490012,-1.0142,34,1,65251,6639845
55,2,0.999414,0.000784158,0.0341899,0.00120092,-0.689428,-0.0554219,9.79203,0.0467471,-0.568147,1.01825,-0.00689673,-0.000563438,0.0979201,1,4.64208e-05,-1.25915e-05,9.3002e-06,0.00928417,-0.0025183,0.00186004,0.999414,0.000784158,0.0341899,0.00120092,0.0786062,0.491982,-1.01568,34,1,65252,6639945
55,3,0.999414,0.000784158,0.0341899,0.00120092,-0.689428,-0.0554219,9.79203,0.0467471,-0.568147,1.01825,-0.00689673,-0.000563438,0.0979201,1,4.64208e-05,-1.25915e-05,9.3002e-06,0.00928417,-0.0025183,0.00186004,0.999414,0.000784158,0.0341899,0.00120092,0.0786062,0.491982,-1.01568,34,1,65252,6639945
55,4,0.999414,0.000784158,0.0341899,0.00120092,-0.689428,-0.0554219,9.79203,0.0467471,-0.568147,1.01825,-0.00689673,-0.000563438,0.0979201,1,4.64208e-05,-1.25915e-05,9.3002e-06,0.00928417,-0.0025183,0.00186004,0.999414,0.000784158,0.0341899,0.00120092,0.0786062,0.491982,-1.01568,34,1,65252,6639945
56,1,0.999414,0.000810754,0.034185,0.00120568,-0.69292,-0.0583356,9.77948,0.0387822,-0.564182,1.00705,-0.00693103,-0.00059244,0.0977946,1,4.47892e-05,-9.50105e-06,2.33987e-05,0.00895784,-0.00190021,0.00467973,0.999414,0.000810754,0.034185,0.00120568,0.0784876,0.493996,-1.01917,34,1,65253,6640045
56,2,0.999414,0.000810754,0.034185,0.00120568,-0.69292,-0.0583356,9.77948,0.0387822,-0.564182,1.00705,-0.00693103,-0.00059244,0.0977946,1,4.47892e-05,-9.50105e-06,2.33987e-05,0.00895784,-0.00190021,0.00467973,0.999414,0.000810754,0.034185,0.00120568,0.0784876,0.493996,-1.01917,34,1,65253,6640045
56,3,0.999414,0.000810754,0.034185,0.00120568,-0.69292,-0.0583356,9.77948,0.0387822,-0.564182,1.00705,-0.00693103,-0.00059244,0.0977946,1,4.47892e-05,-9.50105e-06,2.33987e-05,0.00895784,-0.00190021,0.00467973,0.999414,0.000810754,0.034185,0.00120568,0.0784876,0.493996,-1.01917,34,1,65253,6640045
56,4,0.999415,0.000826398,0.0341772,0.00120608,-0.688748,-0.0634927,9.78654,0.0427559,-0.578564,1.01516,-0.00688968,-0.000643879,0.0978651,1,4.44315e-05,-1.13509e-05,1.84832e-05,0.0088863,-0.00227017,0.00369665,0.999415,0.000826398,0.0341772,0.00120608,0.0765622,0.491122,-1.02124,34,1,65254,6640145
57,1,0.999415,0.000826398,0.0341772,0.00120608,-0.688748,-0.0634927,9.78654,0.0427559,-0.578564,1.01516,-0.00688968,-0.000643879,0.0978651,1,4.44315e-05,-1.13509e-05,1.84832e-05,0.0088863,-0.00227017,0.00369665,0.999415,0.000826398,0.0341772,0.00120608,0.0765622,0.491122,-1.02124,34,1,65254,6640145
57,2,0.999415,0.000826398,0.0341772,0.00120608,-0.688748,-0.0634927,9.78654,0.0427559,-0.578564,1.01516,-0.00688968,-0.000643879,0.0978651,1,4.44315e-05,-1.13509e-05,1.84832e-05,0.0088863,-0.00227017,0.00369665,0.999415,0.000826398,0.0341772,0.00120608,0.0765622,0.491122,-1.02124,34,1,65254,6640145
57,3,0.999415,0.000849309,0.0341765,0.00122029,-0.692483,-0.0686511,9.78651,0.0462012,-0.584796,1.0154,-0.00692576,-0.000696692,0.097865,1,5.11669e-05,-4.80162e-06,1.2055e-05,0.0102334,-0.000960325,0.002411,0.999415,0.000849309,0.0341765,0.00122029,0.0737614,0.489637,-1.01874,34,1,65255,6640245
57,4,0.999415,0.000849309,0.0341765,0.00122029,-0.692483,-0.0686511,9.78651,0.0462012,-0.584796,1.0154,-0.00692576,-0.000696692,0.097865,1,5.11669e-05,-4.80162e-06,1.2055e-05,0.0102334,-0.000960325,0.002411,0.999415,0.000849309,0.0341765,0.00122029,0.0737614,0.489637,-1.01874,34,1,65255,6640245
58,1,0.999415,0.000849309,0.0341765,0.00122029,-0.692483,-0.0686511,9.78651,0.0462012,-0.584796,1.0154,-0.00692576,-0.000696692,0.097865,1,5.11669e-05,-4.80162e-06,1.2055e-05,0.0102334,-0.000960325,0.002411,0.999415,0.000849309,0.0341765,0.00122029,0.0737614,0.489637,-1.01874,34,1,65255,6640245
58,2,0.999415,0.000861547,0.0341741,0.00126998,-0.686403,-0.0585611,9.7869,0.0458963,-0.576384,1.01448,-0.00686505,-0.000591509,0.0978689,1,2.86495e-05,-5.32517e-06,2.11092e-05,0.00572989,-0.00106503,0.00422185,0.999415,0.000861547,0.0341741,0.00126998,0.0738354,0.489583,-1.01571,34,1,65256,6640345
58,3,0.999415,0.000861547,0.0341741,0.00126998,-0.686403,-0.0585611,9.7869,0.0458963,-0.576384,1.01448,-0.00686505,-0.000591509,0.0978689,1,2.86495e-05,-5.32517e-06,2.11092e-05,0.00572989,-0.00106503,0.00422185,0.999415,0.000861547,0.0341741,0.00126998,0.0738354,0.489583,-1.01571,34,1,65256,6640345
58,4,0.999415,0.000861547,0.0341741,0.00126998,-0.686403,-0.0585611,9.7869,0.0458963,-0.576384,1.01448,-0.00686505,-0.000591509,0.0978689,1,2.86495e-05,-5.32517e-06,2.11092e-05,0.00572989,-0.00106503,0.00422185,0.999415,0.000861547,0.0341741,0.00126998,0.0738354,0.489583,-1.01571,34,1,65256,6640345
59,1,0.999415,0.000906849,0.0341587,0.00129882,-0.676888,-0.0567379,9.77871,0.0575939,-0.568711,1.00442,-0.00677205,-0.000578183,0.0977868,1,5.43128e-05,-1.62721e-05,1.34186e-05,0.0108626,-0.00325442,0.00268372,0.999415,0.000906849,0.0341587,0.00129882,0.0757565,0.491979,-1.01415,34,1,65257,6640445
59,2,0.999415,0.000906849,0.0341587,0.00129882,-0.676888,-0.0567379,9.77871,0.0575939,-0.568711,1.00442,-0.00677205,-0.000578183,0.0977868,1,5.43128e-05,-1.62721e-05,1.34186e-05,0.0108626,-0.00325442,0.00268372,0.999415,0.000906849,0.0341587,0.00129882,0.0757565,0.491979,-1.01415,34,1,65257,6640445
59,3,0.999415,0.000906849,0.0341587,0.00129882,-0.676888,-0.0567379,9.77871,0.0575939,-0.568711,1.00442,-0.00677205,-0.000578183,0.0977868,1,5.43128e-05,-1.62721e-05,1.34186e-05,0.0108626,-0.00325442,0.00268372,0.999415,0.000906849,0.0341587,0.00129882,0.0757565,0.491979,-1.01415,34,1,65257,6640445
59,4,0.999415,0.000954221,0.034157,0.00130219,-0.692561,-0.0651562,9.78722,0.0440527,-0.577117,1.01312,-0.00692631,-0.000663114,0.097872,1,5.87068e-05,-3.59296e-06,4.34763e-06,0.0117414,-0.000718592,0.000869527,0.999415,0.000954221,0.034157,0.00130219,0.076715,0.492938,-1.01362,34,1,65258,6640545
60,1,0.999415,0.000954221,0.034157,0.00130219,-0.692561,-0.0651562,9.78722,0.0440527,-0.577117,1.01312,-0.00692631,-0.000663114,0.097872,1,5.87068e-05,-3.59296e-06,4.34763e-06,0.0117414,-0.000718592,0.000869527,0.999415,0.000954221,0.034157,0.00130219,0.076715,0.492938,-1.01362,34,1,65258,6640545
60,2,0.999415,0.000954221,0.034157,0.00130219,-0.692561,-0.0651562,9.78722,0.0440527,-0.577117,1.01312,-0.00692631,-0.000663114,0.097872,1,5.87068e-05,-3.59296e-06,4.34763e-06,0.0117414,-0.000718592,0.000869527,0.999415,0.000954221,0.034157,0.00130219,0.076715,0.492938,-1.01362,34,1,65258,6640545
60,3,0.999415,0.00098908,0.0341526,0.00131049,-0.688288,-0.0697351,9.78987,0.0474679,-0.583787,1.01627,-0.00688438,-0.000706923,0.0978986,1,4.77974e-05,-7.75259e-06,1.54689e-05,0.00955948,-0.00155052,0.00309379,0.999415,0.00098908,0.0341526,0.00131049,0.0761352,0.493014,-1.01766,34,1,65259,6640645
60,4,0.999415,0.00098908,0.0341526,0.00131049,-0.688288,-0.0697351,9.78987,0.0474679,-0.583787,1.01627,-0.00688438,-0.000706923,0.0978986,1,4.77974e-05,-7.75259e-06,1.54689e-05,0.00955948,-0.00155052,0.00309379,0.999415,0.00098908,0.0341526,0.00131049,0.0761352,0.493014,-1.01766,34,1,65259,6640645
61,1,0.999415,0.00098908,0.0341526,0.00131049,-0.688288,-0.0697351,9.78987,0.0474679,-0.583787,1.01627,-0.00688438,-0.000706923,0.0978986,1,4.77974e-05,-7.75259e-06,1.54689e-05,0.00955948,-0.00155052,0.00309379,0.999415,0.00098908,0.0341526,0.00131049,0.0761352,0.493014,-1.01766,34,1,65259,6640645
61,2,0.999415,0.00100835,0.0341463,0.00132509,-0.682654,-0.0576578,9.78586,0.0529914,-0.570989,1.01314,-0.00682874,-0.000585517,0.0978584,1,4.46104e-05,-1.13395e-05,1.52085e-05,0.00892209,-0.0022679,0.00304171,0.999415,0.00100835,0.0341463,0.00132509,0.0746501,0.491129,-1.02073,34,1,65260,6640745
61,3,0.999415,0.00100835,0.0341463,0.00132509,-0.682654,-0.0576578,9.78586,0.0529914,-0.570989,1.01314,-0.00682874,-0.000585517,0.0978584,1,4.46104e-05,-1.13395e-05,1.52085e-05,0.00892209,-0.0022679,0.00304171,0.999415,0.00100835,0.0341463,0.00132509,0.0746501,0.491129,-1.02073,34,1,65260,6640745
61,4,0.999415,0.00100835,0.0341463,0.00132509,-0.682654,-0.0576578,9.78586,0.0529914,-0.570989,1.01314,-0.00682874,-0.000585517,0.0978584,1,4.46104e-05,-1.13395e-05,1.52085e-05,0.00892209,-0.0022679,0.00304171,0.999415,0.00100835,0.0341463,0.00132509,0.0746501,0.491129,-1.02073,34,1,65260,6640745
62,1,0.999416,0.00102348,0.0341438,0.0013541,-0.696872,-0.0673924,9.78858,0.0381619,-0.585922,1.01915,-0.00697014,-0.000683109,0.0978857,1,4.53778e-05,-7.40389e-06,2.16123e-05,0.00907556,-0.00148078,0.00432246,0.999416,0.00102348,0.0341438,0.0013541,0.0747441,0.489132,-1.01825,34,1,65261,6640845
62,2,0.999416,0.00102348,0.0341438,0.0013541,-0.696872,-0.0673924,9.78858,0.0381619,-0.585922,1.01915,-0.00697014,-0.000683109,0.0978857,1,4.53778e-05,-7.40389e-06,2.16123e-05,0.00907556,-0.00148078,0.00432246,0.999416,0.00102348,0.0341438,0.0013541,0.0747441,0.489132,-1.01825,34,1,65261,6640845
62,3,0.999416,0.00102348,0.0341438,0.0013541,-0.696872,-0.0673924,9.78858,0.0381619,-0.585922,1.01915,-0.00697014,-0.000683109,0.0978857,1,4.53778e-05,-7.40389e-06,2.16123e-05,0.00907556,-0.00148078,0.00432246,0.999416,0.00102348,0.0341438,0.0013541,0.0747441,0.489132,-1.01825,34,1,65261,6640845
62,4,0.999415,0.00104077,0.0341439,0.00136558,-0.692902,-0.062293,9.78657,0.0443585,-0.579051,1.01198,-0.00692958,-0.000630354,0.0978656,1,3.70983e-05,-2.95595e-06,1.1772e-05,0.00741966,-0.00059119,0.00235439,0.999415,0.00104077,0.0341439,0.00136558,0.0762861,0.489048,-1.01421,34,1,65262,6640945
63,1,0.999415,0.00104077,0.0341439,0.00136558,-0.692902,-0.062293,9.78657,0.0443585,-0.579051,1.01198,-0.00692958,-0.000630354,0.0978656,1,3.70983e-05,-2.95595e-06,1.1772e-05,0.00741966,-0.00059119,0.00235439,0.999415,0.00104077,0.0341439,0.00136558,0.0762861,0.489048,-1.01421,34,1,65262,6640945
63,2,0.999415,0.00104077,0.0341439,0.00136558,-0.692902,-0.062293,9.78657,0.0443585,-0.579051,1.01198,-0.00692958,-0.000630354,0.0978656,1,3.70983e-05,-2.95595e-06,1.1772e-05,0.00741966,-0.00059119,0.00235439,0.999415,0.00104077,0.0341439,0.00136558,0.0762861,0.489048,-1.01421,34,1,65262,6640945
63,3,0.999416,0.00106919,0.0341358,0.00136726,-0.682936,-0.0697652,9.78949,0.0528058,-0.591238,1.01801,-0.00683133,-0.00070478,0.0978947,1,3.49878e-05,-1.02147e-05,2.03179e-05,0.00699756,-0.00204293,0.00406359,0.999416,0.00106919,0.0341358,0.00136726,0.0767843,0.490959,-1.01215,34,1,65263,6641045
63,4,0.999416,0.00106919,0.0341358,0.00136726,-0.682936,-0.0697652,9.78949,0.0528058,-0.591238,1.01801,-0.00683133,-0.00070478,0.0978947,1,3.49878e-05,-1.02147e-05,2.03179e-05,0.00699756,-0.00204293,0.00406359,0.999416,0.00106919,0.0341358,0.00136726,0.0767843,0.490959,-1.01215,34,1,65263,6641045
64,1,0.999416,0.00106919,0.0341358,0.00136726,-0.682936,-0.0697652,9.78949,0.0528058,-0.591238,1.01801,-0.00683133,-0.00070478,0.0978947,1,3.49878e-05,-1.02147e-05,2.03179e-05,0.00699756,-0.00204293,0.00406359,0.999416,0.00106919,0.0341358,0.00136726,0.0767843,0.490959,-1.01215,34,1,65263,6641045
64,2,0.999416,0.00111559,0.0341228,0.00137169,-0.68391,-0.0654632,9.78514,0.0469913,-0.583854,1.01367,-0.00684223,-0.000665642,0.0978511,1,5.47934e-05,-1.61419e-05,2.0951e-05,0.0109587,-0.00322837,0.00419019,0.999416,0.00111559,0.0341228,0.00137169,0.0780967,0.492971,-1.01616,34,1,65264,6641145
64,3,0.999416,0.00111559,0.0341228,0.00137169,-0.68391,-0.0654632,9.78514,0.0469913,-0.583854,1.01367,-0.00684223,-0.000665642,0.0978511,1,5.47934e-05,-1.61419e-05,2.0951e-05,0.0109587,-0.00322837,0.00419019,0.999416,0.00111559,0.0341228,0.00137169,0.0780967,0.492971,-1.01616,34,1,65264,6641145
64,4,0.999416,0.00111559,0.0341228,0.00137169,-0.68391,-0.0654632,9.78514,0.0469913,-0.583854,1.01367,-0.00684223,-0.000665642,0.0978511,1,5.47934e-05,-1.61419e-05,2.0951e-05,0.0109587,-0.00322837,0.00419019,0.999416,0.00111559,0.0341228,0.00137169,0.0780967,0.492971,-1.01616,34,1,65264,6641145
65,1,0.999416,0.00113419,0.0341215,0.00136413,-0.68028,-0.0657728,9.78136,0.0562458,-0.583492,1.00691,-0.00680408,-0.000666443,0.0978135,1,4.35617e-05,-6.64585e-06,1.41748e-05,0.00871234,-0.00132917,0.00283496,0.999416,0.00113419,0.0341215,0.00136413,0.0774675,0.493083,-1.02221,34,1,65265,6641245
65,2,0.999416,0.00113419,0.0341215,0.00136413,-0.68028,-0.0657728,9.78136,0.0562458,-0.583492,1.00691,-0.00680408,-0.000666443,0.0978135,1,4.35617e-05,-6.64585e-06,1.41748e-05,0.00871234,-0.00132917,0.00283496,0.999416,0.00113419,0.0341215,0.00136413,0.0774675,0.493083,-1.02221,34,1,65265,6641245
65,3,0.999416,0.00113419,0.0341215,0.00136413,-0.68028,-0.0657728,9.78136,0.0562458,-0.583492,1.00691,-0.00680408,-0.000666443,0.0978135,1,4.35617e-05,-6.64585e-06,1.41748e-05,0.00871234,-0.00132917,0.00283496,0.999416,0.00113419,0.0341215,0.00136413,0.0774675,0.493083,-1.02221,34,1,65265,6641245
65,4,0.999416,0.00113554,0.0341126,0.00136213,-0.681949,-0.0590414,9.78415,0.05224,-0.575177,1.01336,-0.00682238,-0.000598942,0.0978412,1,4.26731e-05,-1.4812e-05,1.30516e-05,0.00853462,-0.00296239,0.00261032,0.999416,0.00113554,0.0341126,0.00136213,0.0760645,0.490656,-1.02226,34,1,65266,6641345
66,1,0.999416,0.00113554,0.0341126,0.00136213,-0.681949,-0.0590414,9.78415,0.05224,-0.575177,1.01336,-0.00682238,-0.000598942,0.0978412,1,4.26731e-05,-1.4812e-05,1.30516e-05,0.00853462,-0.00296239,0.00261032,0.999416,0.00113554,0.0341126,0.00136213,0.0760645,0.490656,-1.02226,34,1,65266,6641345
66,2,0.999416,0.00113554,0.0341126,0.00136213,-0.681949,-0.0590414,9.78415,0.05224,-0.575177,1.01336,-0.00682238,-0.000598942,0.0978412,1,4.26731e-05,-1.4812e-05,1.30516e-05,0.00853462,-0.00296239,0.00261032,0.999416,0.00113554,0.0341126,0.00136213,0.0760645,0.490656,-1.02226,34,1,65266,6641345
66,3,0.999417,0.00113429,0.0341064,0.00137785,-0.685683,-0.055764,9.78692,0.0481395,-0.578991,1.0134,-0.00685914,-0.000564765,0.097869,1,3.55449e-05,-1.18669e-05,1.21928e-05,0.00710898,-0.00237339,0.00243855,0.999417,0.00113429,0.0341064,0.00137785,0.0742383,0.489154,-1.01925,34,1,65267,6641445
66,4,0.999417,0.00113429,0.0341064,0.00137785,-0.685683,-0.055764,9.78692,0.0481395,-0.578991,1.0134,-0.00685914,-0.000564765,0.097869,1,3.55449e-05,-1.18669e-05,1.21928e-05,0.00710898,-0.00237339,0.00243855,0.999417,0.00113429,0.0341064,0.00137785,0.0742383,0.489154,-1.01925,34,1,65267,6641445
67,1,0.999417,0.00113429,0.0341064,0.00137785,-0.685683,-0.055764,9.78692,0.0481395,-0.578991,1.0134,-0.00685914,-0.000564765,0.097869,1,3.55449e-05,-1.18669e-05,1.21928e-05,0.00710898,-0.00237339,0.00243855,0.999417,0.00113429,0.0341064,0.00137785,0.0742383,0.489154,-1.01925,34,1,65267,6641445
67,2,0.999417,0.00114359,0.034102,0.00141952,-0.687814,-0.0581853,9.78487,0.0456735,-0.576288,1.01787,-0.00687958,-0.000587857,0.0978486,1,2.93496e-05,-7.49349e-06,1.89599e-05,0.00586993,-0.0014987,0.00379199,0.999417,0.00114359,0.034102,0.00141952,0.0738558,0.489086,-1.01521,34,1,65268,6641545
67,3,0.999417,0.00114359,0.034102,0.00141952,-0.687814,-0.0581853,9.78487,0.0456735,-0.576288,1.01787,-0.00687958,-0.000587857,0.0978486,1,2.93496e-05,-7.49349e-06,1.89599e-05,0.00586993,-0.0014987,0.00379199,0.999417,0.00114359,0.034102,0.00141952,0.0738558,0.489086,-1.01521,34,1,65268,6641545
67,4,0.999417,0.00114359,0.034102,0.00141952,-0.687814,-0.0581853,9.78487,0.0456735,-0.576288,1.01787,-0.00687958,-0.000587857,0.0978486,1,2.93496e-05,-7.49349e-06,1.89599e-05,0.00586993,-0.0014987,0.00379199,0.999417,0.00114359,0.034102,0.00141952,0.0738558,0.489086,-1.01521,34,1,65268,6641545
67,5,0.999417,0.00118346,0.0340823,0.00145217,-0.696112,-0.062583,9.78965,0.0438519,-0.581112,1.01531,-0.00696495,-0.000635163,0.0978961,1,4.62902e-05,-1.96682e-05,1.93957e-05,0.00925805,-0.00393364,0.00387915,0.999417,0.00118346,0.0340823,0.00145217,0.0752878,0.491974,-1.01364,34,1,65269,6641645
67,6,0.999417,0.00118346,0.0340823,0.00145217,-0.696112,-0.062583,9.78965,0.0438519,-0.581112,1.01531,-0.00696495,-0.000635163,0.0978961,1,4.62902e-05,-1.96682e-05,1.93957e-05,0.00925805,-0.00393364,0.00387915,0.999417,0.00118346,0.0340823,0.00145217,0.0752878,0.491974,-1.01364,34,1,65269,6641645
68,1,0.999417,0.00118346,0.0340823,0.00145217,-0.696112,-0.062583,9.78965,0.0438519,-0.581112,1.01531,-0.00696495,-0.000635163,0.0978961,1,4.62902e-05,-1.96682e-05,1.93957e-05,0.00925805,-0.00393364,0.00387915,0.999417,0.00118346,0.0340823,0.00145217,0.0752878,0.491974,-1.01364,34,1,65269,6641645
68,2,0.999417,0.00121316,0.0340793,0.00146098,-0.687336,-0.0605499,9.79232,0.0466952,-0.579204,1.02064,-0.00687431,-0.00061353,0.0979231,1,4.04362e-05,-4.93812e-06,8.13946e-06,0.00808724,-0.000987624,0.00162789,0.999417,0.00121316,0.0340793,0.00146098,0.0776364,0.493923,-1.01462,34,1,65270,6641745
68,3,0.999417,0.00121316,0.0340793,0.00146098,-0.687336,-0.0605499,9.79232,0.0466952,-0.579204,1.02064,-0.00687431,-0.00061353,0.0979231,1,4.04362e-05,-4.93812e-06,8.13946e-06,0.00808724,-0.000987624,0.00162789,0.999417,0.00121316,0.0340793,0.00146098,0.0776364,0.493923,-1.01462,34,1,65270,6641745
68,4,0.999417,0.00121316,0.0340793,0.00146098,-0.687336,-0.0605499,9.79232,0.0466952,-0.579204,1.02064,-0.00687431,-0.00061353,0.0979231,1,4.04362e-05,-4.93812e-06,8.13946e-06,0.00808724,-0.000987624,0.00162789,0.999417,0.00121316,0.0340793,0.00146098,0.0776364,0.493923,-1.01462,34,1,65270,6641745
68,5,0.999418,0.00122711,0.034068,0.00146533,-0.686826,-0.0458749,9.79142,0.0467825,-0.56945,1.01942,-0.00687151,-0.000465482,0.0979139,1,3.26184e-05,-1.67136e-05,2.50958e-05,0.00652368,-0.00334272,0.00501916,0.999418,0.00122711,0.034068,0.00146533,0.0765427,0.494509,-1.01965,34,1,65271,6641845
68,6,0.999418,0.00122711,0.034068,0.00146533,-0.686826,-0.0458749,9.79142,0.0467825,-0.56945,1.01942,-0.00687151,-0.000465482,0.0979139,1,3.26184e-05,-1.67136e-05,2.50958e-05,0.00652368,-0.00334272,0.00501916,0.999418,0.00122711,0.034068,0.00146533,0.0765427,0.494509,-1.01965,34,1,65271,6641845
69,1,0.999418,0.00122711,0.034068,0.00146533,-0.686826,-0.0458749,9.79142,0.0467825,-0.56945,1.01942,-0.00687151,-0.000465482,0.0979139,1,3.26184e-05,-1.67136e-05,2.50958e-05,0.00652368,-0.00334272,0.00501916,0.999418,0.00122711,0.034068,0.00146533,0.0765427,0.494509,-1.01965,34,1,65271,6641845
69,2,0.999418,0.00123952,0.0340661,0.00148754,-0.689819,-0.0633907,9.77772,0.0429253,-0.583375,1.0064,-0.00689973,-0.000643512,0.0977771,1,4.71008e-05,-8.05941e-06,2.85581e-05,0.00942015,-0.00161188,0.00571161,0.999418,0.00123952,0.0340661,0.00148754,0.0746378,0.491138,-1.02123,34,1,65272,6641945
69,3,0.999418,0.00123952,0.0340661,0.00148754,-0.689819,-0.0633907,9.77772,0.0429253,-0.583375,1.0064,-0.00689973,-0.000643512,0.0977771,1,4.71008e-05,-8.05941e-06,2.85581e-05,0.00942015,-0.00161188,0.00571161,0.999418,0.00123952,0.0340661,0.00148754,0.0746378,0.491138,-1.02123,34,1,65272,6641945
69,4,0.999418,0.00123952,0.0340661,0.00148754,-0.689819,-0.0633907,9.77772,0.0429253,-0.583375,1.0064,-0.00689973,-0.000643512,0.0977771,1,4.71008e-05,-8.05941e-06,2.85581e-05,0.00942015,-0.00161188,0.00571161,0.999418,0.00123952,0.0340661,0.00148754,0.0746378,0.491138,-1.02123,34,1,65272,6641945
69,5,0.999417,0.00124292,0.0340713,0.00151776,-0.687407,-0.0718592,9.79018,0.0491511,-0.593595,1.01502,-0.00687416,-0.00072602,0.0979017,1,3.65543e-05,-5.70142e-07,1.96473e-05,0.00731087,-0.000114028,0.00392946,0.999417,0.00124292,0.0340713,0.00151776,0.0747398,0.488654,-1.01876,34,1,65273,6642045
69,6,0.999417,0.00124292,0.0340713,0.00151776,-0.687407,-0.0718592,9.79018,0.0491511,-0.593595,1.01502,-0.00687416,-0.00072602,0.0979017,1,3.65543e-05,-5.70142e-07,1.96473e-05,0.00731087,-0.000114028,0.00392946,0.999417,0.00124292,0.0340713,0.00151776,0.0747398,0.488654,-1.01876,34,1,65273,6642045
70,1,0.999417,0.00124292,0.0340713,0.00151776,-0.687407,-0.0718592,9.79018,0.0491511,-0.593595,1.01502,-0.00687416,-0.00072602,0.0979017,1,3.65543e-05,-5.70142e-07,1.96473e-05,0.00731087,-0.000114028,0.00392946,0.999417,0.00124292,0.0340713,0.00151776,0.0747398,0.488654,-1.01876,34,1,65273,6642045
70,2,0.999418,0.00126288,0.0340695,0.00151901,-0.686629,-0.0605964,9.79537,0.0515101,-0.583603,1.0212,-0.00686748,-0.00061392,0.0979535,1,4.03747e-05,-6.13192e-06,3.38046e-06,0.00807495,-0.00122638,0.000676093,0.999418,0.00126288,0.0340695,0.00151901,0.0753073,0.488587,-1.01523,34,1,65274,6642145
70,3,0.999418,0.00126288,0.0340695,0.00151901,-0.686629,-0.0605964,9.79537,0.0515101,-0.583603,1.0212,-0.00686748,-0.00061392,0.0979535,1,4.03747e-05,-6.13192e-06,3.38046e-06,0.00807495,-0.00122638,0.000676093,0.999418,0.00126288,0.0340695,0.00151901,0.0753073,0.488587,-1.01523,34,1,65274,6642145
70,4,0.999418,0.00126288,0.0340695,0.00151901,-0.686629,-0.0605964,9.79537,0.0515101,-0.583603,1.0212,-0.00686748,-0.00061392,0.0979535,1,4.03747e-05,-6.13192e-06,3.38046e-06,0.00807495,-0.00122638,0.000676093,0.999418,0.00126288,0.0340695,0.00151901,0.0753073,0.488587,-1.01523,34,1,65274,6642145
70,5,0.999417,0.00129652,0.0340703,0.00152582,-0.696286,-0.066082,9.79096,0.0398017,-0.591687,1.02249,-0.00696314,-0.000669466,0.0979095,1,4.29246e-05,-1.56481e-06,1.7252e-05,0.00858492,-0.000312962,0.0034504,0.999417,0.00129652,0.0340703,0.00152582,0.0762457,0.491487,-1.01416,34,1,65275,6642245
70,6,0.999417,0.00129652,0.0340703,0.00152582,-0.696286,-0.066082,9.79096,0.0398017,-0.591687,1.02249,-0.00696314,-0.000669466,0.0979095,1,4.29246e-05,-1.56481e-06,1.7252e-05,0.00858492,-0.000312962,0.0034504,0.999417,0.00129652,0.0340703,0.00152582,0.0762457,0.491487,-1.01416,34,1,65275,6642245
71,1,0.999417,0.00129652,0.0340703,0.00152582,-0.696286,-0.066082,9.79096,0.0398017,-0.591687,1.02249,-0.00696314,-0.000669466,0.0979095,1,4.29246e-05,-1.56481e-06,1.7252e-05,0.00858492,-0.000312962,0.0034504,0.999417,0.00129652,0.0340703,0.00152582,0.0762457,0.491487,-1.01416,34,1,65275,6642245
71,2,0.999418,0.00132569,0.0340528,0.00152018,-0.682199,-0.0637929,9.78378,0.0511569,-0.586456,1.00981,-0.0068262,-0.000646544,0.0978374,1,4.33791e-05,-2.15861e-05,9.32831e-06,0.00867583,-0.00431723,0.00186566,0.999418,0.00132569,0.0340528,0.00152018,0.0766538,0.494428,-1.01511,34,1,65276,6642345
71,3,0.999418,0.00132569,0.0340528,0.00152018,-0.682199,-0.0637929,9.78378,0.0511569,-0.586456,1.00981,-0.0068262,-0.000646544,0.0978374,1,4.33791e-05,-2.15861e-05,9.32831e-06,0.00867583,-0.00431723,0.00186566,0.999418,0.00132569,0.0340528,0.00152018,0.0766538,0.494428,-1.01511,34,1,65276,6642345
71,4,0.999418,0.00132569,0.0340528,0.00152018,-0.682199,-0.0637929,9.78378,0.0511569,-0.586456,1.00981,-0.0068262,-0.000646544,0.0978374,1,4.33791e-05,-2.15861e-05,9.32831e-06,0.00867583,-0.00431723,0.00186566,0.999418,0.00132569,0.0340528,0.00152018,0.0766538,0.494428,-1.01511,34,1,65276,6642345
71,5,0.999418,0.00135324,0.034043,0.00150816,-0.680251,-0.0568567,9.78586,0.0572655,-0.582265,1.01272,-0.00680525,-0.000578702,0.0978583,1,5.13291e-05,-1.40029e-05,6.57706e-06,0.0102658,-0.00280057,0.00131541,0.999418,0.00135324,0.034043,0.00150816,0.0760412,0.49501,-1.02014,34,1,65277,6642445
71,6,0.999418,0.00135324,0.034043,0.00150816,-0.680251,-0.0568567,9.78586,0.0572655,-0.582265,1.01272,-0.00680525,-0.000578702,0.0978583,1,5.13291e-05,-1.40029e-05,6.57706e-06,0.0102658,-0.00280057,0.00131541,0.999418,0.00135324,0.034043,0.00150816,0.0760412,0.49501,-1.02014,34,1,65277,6642445
72,1,0.999418,0.00135324,0.034043,0.00150816,-0.680251,-0.0568567,9.78586,0.0572655,-0.582265,1.01272,-0.00680525,-0.000578702,0.0978583,1,5.13291e-05,-1.40029e-05,6.57706e-06,0.0102658,-0.00280057,0.00131541,0.999418,0.00135324,0.034043,0.00150816,0.0760412,0.49501,-1.02014,34,1,65277,6642445
72,2,0.999418,0.00137363,0.0340443,0.00151547,-0.688361,-0.0627045,9.78654,0.0437138,-0.587326,1.01371,-0.0068843,-0.000638786,0.0978653,1,5.87871e-05,-3.65102e-06,1.70147e-05,0.0117574,-0.000730203,0.00340294,0.999418,0.00137363,0.0340443,0.00151547,0.0760403,0.492119,-1.02223,34,1,65278,6642545
72,3,0.999418,0.00137363,0.0340443,0.00151547,-0.688361,-0.0627045,9.78654,0.0437138,-0.587326,1.01371,-0.0068843,-0.000638786,0.0978653,1,5.87871e-05,-3.65102e-06,1.70147e-05,0.0117574,-0.000730203,0.00340294,0.999418,0.00137363,0.0340443,0.00151547,0.0760403,0.492119,-1.02223,34,1,65278,6642545
72,4,0.999418,0.00137363,0.0340443,0.00151547,-0.688361,-0.0627045,9.78654,0.0437138,-0.587326,1.01371,-0.0068843,-0.000638786,0.0978653,1,5.87871e-05,-3.65102e-06,1.70147e-05,0.0117574,-0.000730203,0.00340294,0.999418,0.00137363,0.0340443,0.00151547,0.0760403,0.492119,-1.02223,34,1,65278,6642545
73,1,0.999418,0.00138024,0.0340351,0.00151977,-0.684625,-0.0552878,9.79065,0.0517099,-0.57956,1.01764,-0.00684939,-0.000561966,0.0979062,1,4.57633e-05,-1.60711e-05,9.27595e-06,0.00915266,-0.00321422,0.00185519,0.999418,0.00138024,0.0340351,0.00151977,0.0742136,0.489173,-1.02026,34,1,65279,6642645
