frame_id,imu_idx,quat_w,quat_x,quat_y,quat_z,accel_x,accel_y,accel_z,free_accel_x,free_accel_y,free_accel_z,delta_v_x,delta_v_y,delta_v_z,delta_q_w,delta_q_x,delta_q_y,delta_q_z,rate_x,rate_y,rate_z,quat_w,quat_x,quat_y,quat_z,mag_x,mag_y,mag_z,temperature,status_byte,packet_counter,time_fine
1,1,0.999377,0.00208004,0.0352309,0.000386639,-0.726836,-0.0594346,9.7825,0.341241,-0.270585,0.859025,-0.00726886,-0.00060596,0.0978248,1,5.88373e-05,-2.60568e-06,7.03327e-06,0.0117675,-0.000521137,0.00140665,0.999377,0.00208004,0.0352309,0.000386639,-0.253777,0.163523,-0.906793,37.0625,1,35671,23307282
1,2,0.999377,0.00208004,0.0352309,0.000386639,-0.507321,-0.0685579,7.33393,0.341241,-0.270585,0.859025,-0.0050755,-0.000688999,0.0733391,1,2.34097e-05,-1.56183e-05,-1.33737e-06,0.00468195,-0.00312366,-0.000267474,0.999377,0.00208004,0.0352309,0.000386639,0.540061,0.0835006,-0.703646,37,1,37337,30028970
1,3,0.999377,0.00208004,0.0352309,0.000386639,-0.507321,-0.0685579,7.33393,0.341241,-0.270585,0.859025,-0.0050755,-0.000688999,0.0733391,1,2.34097e-05,-1.56183e-05,-1.33737e-06,0.00468195,-0.00312366,-0.000267474,0.999377,0.00208004,0.0352309,0.000386639,0.540061,0.0835006,-0.703646,37,1,37337,30028970
1,4,0.999377,0.00208004,0.0352309,0.000386639,-0.507321,-0.0685579,7.33393,0.341241,-0.270585,0.859025,-0.0050755,-0.000688999,0.0733391,1,2.34097e-05,-1.56183e-05,-1.33737e-06,0.00468195,-0.00312366,-0.000267474,0.999377,0.00208004,0.0352309,0.000386639,0.540061,0.0835006,-0.703646,37,1,37337,30028970
1,5,0.999393,-0.00464887,0.0345298,-0.000164329,-0.686946,-0.101629,9.78601,-0.447889,-0.0798965,0.770675,-0.00687159,-0.001023,0.0978599,1,3.43938e-05,-1.08908e-05,-1.33355e-06,0.00687876,-0.00217816,-0.000266711,0.999393,-0.00464887,0.0345298,-0.000164329,0.541484,0.0825401,-0.705189,37,1,37338,30029070
1,6,0.999393,-0.00464887,0.0345298,-0.000164329,-0.686946,-0.101629,9.78601,-0.447889,-0.0798965,0.770675,-0.00687159,-0.001023,0.0978599,1,3.43938e-05,-1.08908e-05,-1.33355e-06,0.00687876,-0.00217816,-0.000266711,0.999393,-0.00464887,0.0345298,-0.000164329,0.541484,0.0825401,-0.705189,37,1,37338,30029070
1,7,0.999393,-0.00464887,0.0345298,-0.000164329,-0.686946,-0.101629,9.78601,-0.447889,-0.0798965,0.770675,-0.00687159,-0.001023,0.0978599,1,3.43938e-05,-1.08908e-05,-1.33355e-06,0.00687876,-0.00217816,-0.000266711,0.999393,-0.00464887,0.0345298,-0.000164329,0.541484,0.0825401,-0.705189,37,1,37338,30029070
1,8,0.999394,-0.0045993,0.0345167,-0.000158155,-0.656707,-0.125746,9.79985,-0.421013,-0.101522,0.783283,-0.00656995,-0.00126635,0.0979982,1,4.56479e-05,-1.46217e-05,-4.25243e-06,0.00912957,-0.00292434,-0.000850487,0.999394,-0.0045993,0.0345167,-0.000158155,0.544255,0.0806733,-0.711304,37,1,37339,30029170
2,1,0.999394,-0.0045993,0.0345167,-0.000158155,-0.656707,-0.125746,9.79985,-0.421013,-0.101522,0.783283,-0.00656995,-0.00126635,0.0979982,1,4.56479e-05,-1.46217e-05,-4.25243e-06,0.00912957,-0.00292434,-0.000850487,0.999394,-0.0045993,0.0345167,-0.000158155,0.544255,0.0806733,-0.711304,37,1,37339,30029170
2,2,0.999394,-0.0045993,0.0345167,-0.000158155,-0.656707,-0.125746,9.79985,-0.421013,-0.101522,0.783283,-0.00656995,-0.00126635,0.0979982,1,4.56479e-05,-1.46217e-05,-4.25243e-06,0.00912957,-0.00292434,-0.000850487,0.999394,-0.0045993,0.0345167,-0.000158155,0.544255,0.0806733,-0.711304,37,1,37339,30029170
2,3,0.999394,-0.00455105,0.0345145,-0.000158553,-0.649858,-0.150409,9.79517,-0.409736,-0.132626,0.784426,-0.00649899,-0.00151359,0.0979516,1,4.8358e-05,-2.13824e-06,1.81803e-06,0.0096716,-0.000427647,0.000363606,0.999394,-0.00455105,0.0345145,-0.000158553,0.545538,0.0822237,-0.716831,37,1,37340,30029270
2,4,0.999394,-0.00455105,0.0345145,-0.000158553,-0.649858,-0.150409,9.79517,-0.409736,-0.132626,0.784426,-0.00649899,-0.00151359,0.0979516,1,4.8358e-05,-2.13824e-06,1.81803e-06,0.0096716,-0.000427647,0.000363606,0.999394,-0.00455105,0.0345145,-0.000158553,0.545538,0.0822237,-0.716831,37,1,37340,30029270
2,5,0.999394,-0.00455105,0.0345145,-0.000158553,-0.649858,-0.150409,9.79517,-0.409736,-0.132626,0.784426,-0.00649899,-0.00151359,0.0979516,1,4.8358e-05,-2.13824e-06,1.81803e-06,0.0096716,-0.000427647,0.000363606,0.999394,-0.00455105,0.0345145,-0.000158553,0.545538,0.0822237,-0.716831,37,1,37340,30029270
2,6,0.999394,-0.00449815,0.0345108,-0.000141233,-0.65466,-0.132436,9.80113,-0.42208,-0.113367,0.79627,-0.00654715,-0.00133487,0.0980111,1,5.2346e-05,-3.08998e-06,1.94812e-05,0.0104692,-0.000617995,0.00389625,0.999394,-0.00449815,0.0345108,-0.000141233,0.545123,0.0826614,-0.713789,37,1,37341,30029370
2,7,0.999394,-0.00449815,0.0345108,-0.000141233,-0.65466,-0.132436,9.80113,-0.42208,-0.113367,0.79627,-0.00654715,-0.00133487,0.0980111,1,5.2346e-05,-3.08998e-06,1.94812e-05,0.0104692,-0.000617995,0.00389625,0.999394,-0.00449815,0.0345108,-0.000141233,0.545123,0.0826614,-0.713789,37,1,37341,30029370
2,8,0.999394,-0.00449815,0.0345108,-0.000141233,-0.65466,-0.132436,9.80113,-0.42208,-0.113367,0.79627,-0.00654715,-0.00133487,0.0980111,1,5.2346e-05,-3.08998e-06,1.94812e-05,0.0104692,-0.000617995,0.00389625,0.999394,-0.00449815,0.0345108,-0.000141233,0.545123,0.0826614,-0.713789,37,1,37341,30029370
3,1,0.999395,-0.00445677,0.0345022,-0.000139769,-0.614826,-0.116429,9.79116,-0.380586,-0.095619,0.785889,-0.00614991,-0.00117241,0.0979114,1,4.13135e-05,-8.45255e-06,2.58943e-06,0.0082627,-0.00169051,0.000517885,0.999395,-0.00445677,0.0345022,-0.000139769,0.541377,0.0831,-0.709217,37,1,37342,30029470
3,2,0.999395,-0.00445677,0.0345022,-0.000139769,-0.614826,-0.116429,9.79116,-0.380586,-0.095619,0.785889,-0.00614991,-0.00117241,0.0979114,1,4.13135e-05,-8.45255e-06,2.58943e-06,0.0082627,-0.00169051,0.000517885,0.999395,-0.00445677,0.0345022,-0.000139769,0.541377,0.0831,-0.709217,37,1,37342,30029470
3,3,0.999395,-0.00445677,0.0345022,-0.000139769,-0.614826,-0.116429,9.79116,-0.380586,-0.095619,0.785889,-0.00614991,-0.00117241,0.0979114,1,4.13135e-05,-8.45255e-06,2.58943e-06,0.0082627,-0.00169051,0.000517885,0.999395,-0.00445677,0.0345022,-0.000139769,0.541377,0.0831,-0.709217,37,1,37342,30029470
3,4,0.999394,-0.00440533,0.0345322,-0.000128175,-0.672839,-0.134077,9.78087,-0.432353,-0.119712,0.773219,-0.00672242,-0.00135095,0.0978089,1,5.10735e-05,3.03336e-05,1.35841e-05,0.0102147,0.00606672,0.00271681,0.999394,-0.00440533,0.0345322,-0.000128175,0.540538,0.0815726,-0.705206,37,1,37343,30029570
3,5,0.999394,-0.00440533,0.0345322,-0.000128175,-0.672839,-0.134077,9.78087,-0.432353,-0.119712,0.773219,-0.00672242,-0.00135095,0.0978089,1,5.10735e-05,3.03336e-05,1.35841e-05,0.0102147,0.00606672,0.00271681,0.999394,-0.00440533,0.0345322,-0.000128175,0.540538,0.0815726,-0.705206,37,1,37343,30029570
3,6,0.999394,-0.00440533,0.0345322,-0.000128175,-0.672839,-0.134077,9.78087,-0.432353,-0.119712,0.773219,-0.00672242,-0.00135095,0.0978089,1,5.10735e-05,3.03336e-05,1.35841e-05,0.0102147,0.00606672,0.00271681,0.999394,-0.00440533,0.0345322,-0.000128175,0.540538,0.0815726,-0.705206,37,1,37343,30029570
3,7,0.999394,-0.00435616,0.0345191,-0.000123271,-0.750449,-0.0884258,9.78895,-0.525383,-0.0704861,0.77912,-0.00750693,-0.00089398,0.0978892,1,4.91423e-05,-1.25205e-05,6.74392e-06,0.00982846,-0.00250411,0.00134878,0.999394,-0.00435616,0.0345191,-0.000123271,0.543395,0.0796426,-0.707788,37,1,37344,30029670
3,8,0.999394,-0.00435616,0.0345191,-0.000123271,-0.750449,-0.0884258,9.78895,-0.525383,-0.0704861,0.77912,-0.00750693,-0.00089398,0.0978892,1,4.91423e-05,-1.25205e-05,6.74392e-06,0.00982846,-0.00250411,0.00134878,0.999394,-0.00435616,0.0345191,-0.000123271,0.543395,0.0796426,-0.707788,37,1,37344,30029670
20,1,0.999394,-0.00435616,0.0345191,-0.000123271,-0.750449,-0.0884258,9.78895,-0.525383,-0.0704861,0.77912,-0.00750693,-0.00089398,0.0978892,1,4.91423e-05,-1.25205e-05,6.74392e-06,0.00982846,-0.00250411,0.00134878,0.999394,-0.00435616,0.0345191,-0.000123271,0.543395,0.0796426,-0.707788,37,1,37344,30029670
20,2,0.999397,-0.00428652,0.0344635,-0.000128237,-0.644449,-0.10363,9.81627,-0.43141,-0.0852698,0.806419,-0.00645549,-0.00105001,0.0981618,1,6.99852e-05,-5.59854e-05,-2.82772e-06,0.013997,-0.0111971,-0.000565544,0.999397,-0.00428652,0.0344635,-0.000128237,0.5452,0.0787502,-0.713371,37,1,37345,30029770
20,3,0.999397,-0.00428652,0.0344635,-0.000128237,-0.644449,-0.10363,9.81627,-0.43141,-0.0852698,0.806419,-0.00645549,-0.00105001,0.0981618,1,6.99852e-05,-5.59854e-05,-2.82772e-06,0.013997,-0.0111971,-0.000565544,0.999397,-0.00428652,0.0344635,-0.000128237,0.5452,0.0787502,-0.713371,37,1,37345,30029770
20,4,0.999397,-0.00428652,0.0344635,-0.000128237,-0.644449,-0.10363,9.81627,-0.43141,-0.0852698,0.806419,-0.00645549,-0.00105001,0.0981618,1,6.99852e-05,-5.59854e-05,-2.82772e-06,0.013997,-0.0111971,-0.000565544,0.999397,-0.00428652,0.0344635,-0.000128237,0.5452,0.0787502,-0.713371,37,1,37345,30029770
20,5,0.999396,-0.0042512,0.034491,-0.000109277,-0.579997,-0.14801,9.78995,-0.339388,-0.128806,0.765224,-0.00579459,-0.00148716,0.0978997,1,3.48405e-05,2.71627e-05,2.0229e-05,0.0069681,0.00543254,0.00404581,0.999396,-0.0042512,0.034491,-0.000109277,0.545538,0.0807784,-0.717873,37,1,37346,30029870
20,6,0.999396,-0.0042512,0.034491,-0.000109277,-0.579997,-0.14801,9.78995,-0.339388,-0.128806,0.765224,-0.00579459,-0.00148716,0.0978997,1,3.48405e-05,2.71627e-05,2.0229e-05,0.0069681,0.00543254,0.00404581,0.999396,-0.0042512,0.034491,-0.000109277,0.545538,0.0807784,-0.717873,37,1,37346,30029870
20,7,0.999396,-0.0042512,0.034491,-0.000109277,-0.579997,-0.14801,9.78995,-0.339388,-0.128806,0.765224,-0.00579459,-0.00148716,0.0978997,1,3.48405e-05,2.71627e-05,2.0229e-05,0.0069681,0.00543254,0.00404581,0.999396,-0.0042512,0.034491,-0.000109277,0.545538,0.0807784,-0.717873,37,1,37346,30029870
20,8,0.999395,-0.00420907,0.0345171,-8.71806e-05,-0.701808,-0.167554,9.76484,-0.454881,-0.146739,0.735232,-0.00701294,-0.001684,0.0976487,1,4.16062e-05,2.59334e-05,2.36778e-05,0.00832123,0.00518667,0.00473555,0.999395,-0.00420907,0.0345171,-8.71806e-05,0.544601,0.0822137,-0.715817,37,1,37347,30029970
21,1,0.999395,-0.00420907,0.0345171,-8.71806e-05,-0.701808,-0.167554,9.76484,-0.454881,-0.146739,0.735232,-0.00701294,-0.001684,0.0976487,1,4.16062e-05,2.59334e-05,2.36778e-05,0.00832123,0.00518667,0.00473555,0.999395,-0.00420907,0.0345171,-8.71806e-05,0.544601,0.0822137,-0.715817,37,1,37347,30029970
21,2,0.999395,-0.00420907,0.0345171,-8.71806e-05,-0.701808,-0.167554,9.76484,-0.454881,-0.146739,0.735232,-0.00701294,-0.001684,0.0976487,1,4.16062e-05,2.59334e-05,2.36778e-05,0.00832123,0.00518667,0.00473555,0.999395,-0.00420907,0.0345171,-8.71806e-05,0.544601,0.0822137,-0.715817,37,1,37347,30029970
21,3,0.999397,-0.00413613,0.0344909,-7.76025e-05,-0.760215,-0.137751,9.78147,-0.538696,-0.132979,0.776668,-0.00760715,-0.00139196,0.0978141,1,7.29116e-05,-2.57434e-05,1.20992e-05,0.0145823,-0.00514868,0.00241984,0.999397,-0.00413613,0.0344909,-7.76025e-05,0.540411,0.0840746,-0.708685,37,1,37348,30030070
21,4,0.999397,-0.00413613,0.0344909,-7.76025e-05,-0.760215,-0.137751,9.78147,-0.538696,-0.132979,0.776668,-0.00760715,-0.00139196,0.0978141,1,7.29116e-05,-2.57434e-05,1.20992e-05,0.0145823,-0.00514868,0.00241984,0.999397,-0.00413613,0.0344909,-7.76025e-05,0.540411,0.0840746,-0.708685,37,1,37348,30030070
21,5,0.999397,-0.00413613,0.0344909,-7.76025e-05,-0.760215,-0.137751,9.78147,-0.538696,-0.132979,0.776668,-0.00760715,-0.00139196,0.0978141,1,7.29116e-05,-2.57434e-05,1.20992e-05,0.0145823,-0.00514868,0.00241984,0.999397,-0.00413613,0.0344909,-7.76025e-05,0.540411,0.0840746,-0.708685,37,1,37348,30030070
21,6,0.999397,-0.00409068,0.0344874,-7.11908e-05,-0.699328,-0.0760213,9.8192,-0.45079,-0.0660248,0.816126,-0.00699401,-0.000769287,0.0981919,1,4.56478e-05,-3.80556e-06,7.87007e-06,0.00912955,-0.000761112,0.00157401,0.999397,-0.00409068,0.0344874,-7.11908e-05,0.53859,0.0844972,-0.704122,37,1,37349,30030170
21,7,0.999397,-0.00409068,0.0344874,-7.11908e-05,-0.699328,-0.0760213,9.8192,-0.45079,-0.0660248,0.816126,-0.00699401,-0.000769287,0.0981919,1,4.56478e-05,-3.80556e-06,7.87007e-06,0.00912955,-0.000761112,0.00157401,0.999397,-0.00409068,0.0344874,-7.11908e-05,0.53859,0.0844972,-0.704122,37,1,37349,30030170
21,8,0.999397,-0.00409068,0.0344874,-7.11908e-05,-0.699328,-0.0760213,9.8192,-0.45079,-0.0660248,0.816126,-0.00699401,-0.000769287,0.0981919,1,4.56478e-05,-3.80556e-06,7.87007e-06,0.00912955,-0.000761112,0.00157401,0.999397,-0.00409068,0.0344874,-7.11908e-05,0.53859,0.0844972,-0.704122,37,1,37349,30030170
22,1,0.999398,-0.00404831,0.0344656,-5.63713e-05,-0.703432,-0.107502,9.819,-0.473929,-0.0996068,0.815553,-0.00703861,-0.00108356,0.0981896,1,4.22969e-05,-2.20318e-05,1.62678e-05,0.00845938,-0.00440637,0.00325355,0.999398,-0.00404831,0.0344656,-5.63713e-05,0.540945,0.083068,-0.707195,37,1,37350,30030270
22,2,0.999398,-0.00404831,0.0344656,-5.63713e-05,-0.703432,-0.107502,9.819,-0.473929,-0.0996068,0.815553,-0.00703861,-0.00108356,0.0981896,1,4.22969e-05,-2.20318e-05,1.62678e-05,0.00845938,-0.00440637,0.00325355,0.999398,-0.00404831,0.0344656,-5.63713e-05,0.540945,0.083068,-0.707195,37,1,37350,30030270
22,3,0.999398,-0.00404831,0.0344656,-5.63713e-05,-0.703432,-0.107502,9.819,-0.473929,-0.0996068,0.815553,-0.00703861,-0.00108356,0.0981896,1,4.22969e-05,-2.20318e-05,1.62678e-05,0.00845938,-0.00440637,0.00325355,0.999398,-0.00404831,0.0344656,-5.63713e-05,0.540945,0.083068,-0.707195,37,1,37350,30030270
22,4,0.999399,-0.00402749,0.0344352,-4.93384e-05,-0.601256,-0.188596,9.73348,-0.365908,-0.1718,0.695647,-0.00601848,-0.00189016,0.0973344,1,2.1089e-05,-3.05768e-05,7.91719e-06,0.00421779,-0.00611536,0.00158344,0.999399,-0.00402749,0.0344352,-4.93384e-05,0.544263,0.0801855,-0.711315,37,1,37351,30030370
22,5,0.999399,-0.00402749,0.0344352,-4.93384e-05,-0.601256,-0.188596,9.73348,-0.365908,-0.1718,0.695647,-0.00601848,-0.00189016,0.0973344,1,2.1089e-05,-3.05768e-05,7.91719e-06,0.00421779,-0.00611536,0.00158344,0.999399,-0.00402749,0.0344352,-4.93384e-05,0.544263,0.0801855,-0.711315,37,1,37351,30030370
22,6,0.999399,-0.00402749,0.0344352,-4.93384e-05,-0.601256,-0.188596,9.73348,-0.365908,-0.1718,0.695647,-0.00601848,-0.00189016,0.0973344,1,2.1089e-05,-3.05768e-05,7.91719e-06,0.00421779,-0.00611536,0.00158344,0.999399,-0.00402749,0.0344352,-4.93384e-05,0.544263,0.0801855,-0.711315,37,1,37351,30030370
22,7,0.999399,-0.00390658,0.0344357,-4.14447e-05,-0.627785,-0.11097,9.78825,-0.398981,-0.123559,0.766494,-0.00627765,-0.00113357,0.0978823,1,0.00012113,8.80837e-07,1.22596e-05,0.0242259,0.000176167,0.00245193,0.999399,-0.00390658,0.0344357,-4.14447e-05,0.54604,0.0817229,-0.71634,37,1,37352,30030470
22,8,0.999399,-0.00390658,0.0344357,-4.14447e-05,-0.627785,-0.11097,9.78825,-0.398981,-0.123559,0.766494,-0.00627765,-0.00113357,0.0978823,1,0.00012113,8.80837e-07,1.22596e-05,0.0242259,0.000176167,0.00245193,0.999399,-0.00390658,0.0344357,-4.14447e-05,0.54604,0.0817229,-0.71634,37,1,37352,30030470
23,1,0.999399,-0.00390658,0.0344357,-4.14447e-05,-0.627785,-0.11097,9.78825,-0.398981,-0.123559,0.766494,-0.00627765,-0.00113357,0.0978823,1,0.00012113,8.80837e-07,1.22596e-05,0.0242259,0.000176167,0.00245193,0.999399,-0.00390658,0.0344357,-4.14447e-05,0.54604,0.0817229,-0.71634,37,1,37352,30030470
23,2,0.9994,-0.00386969,0.0344329,-3.1727e-05,-0.666333,-0.0246268,9.81842,-0.417939,-0.00141017,0.830482,-0.00666388,-0.000253727,0.0981841,1,3.72548e-05,-2.82025e-06,1.08124e-05,0.00745096,-0.00056405,0.00216249,0.9994,-0.00386969,0.0344329,-3.1727e-05,0.545518,0.0841658,-0.716283,37,1,37353,30030570
23,3,0.9994,-0.00386969,0.0344329,-3.1727e-05,-0.666333,-0.0246268,9.81842,-0.417939,-0.00141017,0.830482,-0.00666388,-0.000253727,0.0981841,1,3.72548e-05,-2.82025e-06,1.08124e-05,0.00745096,-0.00056405,0.00216249,0.9994,-0.00386969,0.0344329,-3.1727e-05,0.545518,0.0841658,-0.716283,37,1,37353,30030570
23,4,0.9994,-0.00386969,0.0344329,-3.1727e-05,-0.666333,-0.0246268,9.81842,-0.417939,-0.00141017,0.830482,-0.00666388,-0.000253727,0.0981841,1,3.72548e-05,-2.82025e-06,1.08124e-05,0.00745096,-0.00056405,0.00216249,0.9994,-0.00386969,0.0344329,-3.1727e-05,0.545518,0.0841658,-0.716283,37,1,37353,30030570
23,5,0.999399,-0.00384774,0.0344624,-2.52695e-05,-0.787893,-0.163313,9.77834,-0.545808,-0.148251,0.780602,-0.00787304,-0.00163762,0.0977838,1,2.23685e-05,2.99589e-05,7.49309e-06,0.0044737,0.00599178,0.00149862,0.999399,-0.00384774,0.0344624,-2.52695e-05,0.542817,0.0840546,-0.708697,37,1,37354,30030670
23,6,0.999399,-0.00384774,0.0344624,-2.52695e-05,-0.787893,-0.163313,9.77834,-0.545808,-0.148251,0.780602,-0.00787304,-0.00163762,0.0977838,1,2.23685e-05,2.99589e-05,7.49309e-06,0.0044737,0.00599178,0.00149862,0.999399,-0.00384774,0.0344624,-2.52695e-05,0.542817,0.0840546,-0.708697,37,1,37354,30030670
23,7,0.999399,-0.00384774,0.0344624,-2.52695e-05,-0.787893,-0.163313,9.77834,-0.545808,-0.148251,0.780602,-0.00787304,-0.00163762,0.0977838,1,2.23685e-05,2.99589e-05,7.49309e-06,0.0044737,0.00599178,0.00149862,0.999399,-0.00384774,0.0344624,-2.52695e-05,0.542817,0.0840546,-0.708697,37,1,37354,30030670
23,8,0.9994,-0.00381123,0.0344198,-1.88096e-05,-0.774869,-0.186375,9.77169,-0.556349,-0.186044,0.778729,-0.00775707,-0.00187113,0.0977161,1,3.71507e-05,-4.29935e-05,7.68633e-06,0.00743013,-0.0085987,0.00153727,0.9994,-0.00381123,0.0344198,-1.88096e-05,0.541541,0.0820163,-0.703181,37,1,37355,30030770
24,1,0.9994,-0.00381123,0.0344198,-1.88096e-05,-0.774869,-0.186375,9.77169,-0.556349,-0.186044,0.778729,-0.00775707,-0.00187113,0.0977161,1,3.71507e-05,-4.29935e-05,7.68633e-06,0.00743013,-0.0085987,0.00153727,0.9994,-0.00381123,0.0344198,-1.88096e-05,0.541541,0.0820163,-0.703181,37,1,37355,30030770
24,2,0.9994,-0.00381123,0.0344198,-1.88096e-05,-0.774869,-0.186375,9.77169,-0.556349,-0.186044,0.778729,-0.00775707,-0.00187113,0.0977161,1,3.71507e-05,-4.29935e-05,7.68633e-06,0.00743013,-0.0085987,0.00153727,0.9994,-0.00381123,0.0344198,-1.88096e-05,0.541541,0.0820163,-0.703181,37,1,37355,30030770
24,3,0.999402,-0.00369873,0.0343672,-2.22058e-05,-0.591992,-0.110167,9.76192,-0.36375,-0.124646,0.741195,-0.00593024,-0.00112388,0.0976183,1,0.00011372,-5.28634e-05,6.61618e-07,0.0227441,-0.0105727,0.000132324,0.999402,-0.00369873,0.0343672,-2.22058e-05,0.54101,0.0806111,-0.70624,37,1,37356,30030870
24,4,0.999402,-0.00369873,0.0343672,-2.22058e-05,-0.591992,-0.110167,9.76192,-0.36375,-0.124646,0.741195,-0.00593024,-0.00112388,0.0976183,1,0.00011372,-5.28634e-05,6.61618e-07,0.0227441,-0.0105727,0.000132324,0.999402,-0.00369873,0.0343672,-2.22058e-05,0.54101,0.0806111,-0.70624,37,1,37356,30030870
24,5,0.999402,-0.00369873,0.0343672,-2.22058e-05,-0.591992,-0.110167,9.76192,-0.36375,-0.124646,0.741195,-0.00593024,-0.00112388,0.0976183,1,0.00011372,-5.28634e-05,6.61618e-07,0.0227441,-0.0105727,0.000132324,0.999402,-0.00369873,0.0343672,-2.22058e-05,0.54101,0.0806111,-0.70624,37,1,37356,30030870
24,6,0.999401,-0.00366096,0.034426,-1.34863e-05,-0.67448,-0.0327151,9.8421,-0.416194,-0.0309205,0.821583,-0.00673309,-0.000334912,0.0984218,1,3.86722e-05,5.94332e-05,1.10873e-05,0.00773445,0.0118866,0.00221745,0.999401,-0.00366096,0.034426,-1.34863e-05,0.543737,0.0807043,-0.712816,37,1,37357,30030970
24,7,0.999401,-0.00366096,0.034426,-1.34863e-05,-0.67448,-0.0327151,9.8421,-0.416194,-0.0309205,0.821583,-0.00673309,-0.000334912,0.0984218,1,3.86722e-05,5.94332e-05,1.10873e-05,0.00773445,0.0118866,0.00221745,0.999401,-0.00366096,0.034426,-1.34863e-05,0.543737,0.0807043,-0.712816,37,1,37357,30030970
24,8,0.999401,-0.00366096,0.034426,-1.34863e-05,-0.67448,-0.0327151,9.8421,-0.416194,-0.0309205,0.821583,-0.00673309,-0.000334912,0.0984218,1,3.86722e-05,5.94332e-05,1.10873e-05,0.00773445,0.0118866,0.00221745,0.999401,-0.00366096,0.034426,-1.34863e-05,0.543737,0.0807043,-0.712816,37,1,37357,30030970
25,1,0.999402,-0.00366312,0.0343926,1.70226e-06,-0.761854,-0.126016,9.78906,-0.525066,-0.115506,0.791048,-0.00762495,-0.00126009,0.0978901,1,-1.60544e-06,-3.29205e-05,1.55379e-05,-0.000321089,-0.0065841,0.00310758,0.999402,-0.00366312,0.0343926,1.70226e-06,0.544543,0.0827375,-0.717825,37,1,37358,30031070
25,2,0.999402,-0.00366312,0.0343926,1.70226e-06,-0.761854,-0.126016,9.78906,-0.525066,-0.115506,0.791048,-0.00762495,-0.00126009,0.0978901,1,-1.60544e-06,-3.29205e-05,1.55379e-05,-0.000321089,-0.0065841,0.00310758,0.999402,-0.00366312,0.0343926,1.70226e-06,0.544543,0.0827375,-0.717825,37,1,37358,30031070
25,3,0.999402,-0.00366312,0.0343926,1.70226e-06,-0.761854,-0.126016,9.78906,-0.525066,-0.115506,0.791048,-0.00762495,-0.00126009,0.0978901,1,-1.60544e-06,-3.29205e-05,1.55379e-05,-0.000321089,-0.0065841,0.00310758,0.999402,-0.00366312,0.0343926,1.70226e-06,0.544543,0.0827375,-0.717825,37,1,37358,30031070
25,4,0.999402,-0.00361697,0.0343796,2.65777e-08,-0.714881,-0.20872,9.75918,-0.493435,-0.211655,0.743043,-0.00715133,-0.00209647,0.0975914,1,4.74695e-05,-1.29137e-05,4.90396e-07,0.00949391,-0.00258275,9.80793e-05,0.999402,-0.00361697,0.0343796,2.65777e-08,0.545058,0.083673,-0.715787,37,1,37359,30031170
25,5,0.999402,-0.00361697,0.0343796,2.65777e-08,-0.714881,-0.20872,9.75918,-0.493435,-0.211655,0.743043,-0.00715133,-0.00209647,0.0975914,1,4.74695e-05,-1.29137e-05,4.90396e-07,0.00949391,-0.00258275,9.80793e-05,0.999402,-0.00361697,0.0343796,2.65777e-08,0.545058,0.083673,-0.715787,37,1,37359,30031170
25,6,0.999402,-0.00361697,0.0343796,2.65777e-08,-0.714881,-0.20872,9.75918,-0.493435,-0.211655,0.743043,-0.00715133,-0.00209647,0.0975914,1,4.74695e-05,-1.29137e-05,4.90396e-07,0.00949391,-0.00258275,9.80793e-05,0.999402,-0.00361697,0.0343796,2.65777e-08,0.545058,0.083673,-0.715787,37,1,37359,30031170
25,7,0.999404,-0.00349917,0.0343492,-2.92536e-06,-0.63688,-0.0916552,9.82783,-0.411085,-0.11058,0.82628,-0.00637483,-0.000940049,0.0982777,1,0.000119446,-3.0699e-05,1.53436e-06,0.0238891,-0.0061398,0.000306873,0.999404,-0.00349917,0.0343492,-2.92536e-06,0.542299,0.0855309,-0.709167,37,1,37360,30031270
25,8,0.999404,-0.00349917,0.0343492,-2.92536e-06,-0.63688,-0.0916552,9.82783,-0.411085,-0.11058,0.82628,-0.00637483,-0.000940049,0.0982777,1,0.000119446,-3.0699e-05,1.53436e-06,0.0238891,-0.0061398,0.000306873,0.999404,-0.00349917,0.0343492,-2.92536e-06,0.542299,0.0855309,-0.709167,37,1,37360,30031270
26,1,0.999404,-0.00349917,0.0343492,-2.92536e-06,-0.63688,-0.0916552,9.82783,-0.411085,-0.11058,0.82628,-0.00637483,-0.000940049,0.0982777,1,0.000119446,-3.0699e-05,1.53436e-06,0.0238891,-0.0061398,0.000306873,0.999404,-0.00349917,0.0343492,-2.92536e-06,0.542299,0.0855309,-0.709167,37,1,37360,30031270
26,2,0.999404,-0.00348935,0.0343352,7.16892e-06,-0.602074,-0.0617481,9.76781,-0.363722,-0.0601763,0.762991,-0.0060237,-0.000619776,0.0976779,1,1.11087e-05,-1.51807e-05,1.03824e-05,0.00222174,-0.00303614,0.00207648,0.999404,-0.00348935,0.0343352,7.16892e-06,0.539527,0.0845072,-0.705136,37,1,37361,30031370
26,3,0.999404,-0.00348935,0.0343352,7.16892e-06,-0.602074,-0.0617481,9.76781,-0.363722,-0.0601763,0.762991,-0.0060237,-0.000619776,0.0976779,1,1.11087e-05,-1.51807e-05,1.03824e-05,0.00222174,-0.00303614,0.00207648,0.999404,-0.00348935,0.0343352,7.16892e-06,0.539527,0.0845072,-0.705136,37,1,37361,30031370
26,4,0.999404,-0.00348935,0.0343352,7.16892e-06,-0.602074,-0.0617481,9.76781,-0.363722,-0.0601763,0.762991,-0.0060237,-0.000619776,0.0976779,1,1.11087e-05,-1.51807e-05,1.03824e-05,0.00222174,-0.00303614,0.00207648,0.999404,-0.00348935,0.0343352,7.16892e-06,0.539527,0.0845072,-0.705136,37,1,37361,30031370
26,5,0.999404,-0.00345144,0.0343522,8.23002e-06,-0.71418,-0.153428,9.78032,-0.475785,-0.155956,0.769034,-0.00713841,-0.00154206,0.0978034,1,3.95403e-05,1.72648e-05,3.06505e-06,0.00790806,0.00345297,0.000613011,0.999404,-0.00345144,0.0343522,8.23002e-06,0.540982,0.0815956,-0.706723,37,1,37362,30031470
26,6,0.999404,-0.00345144,0.0343522,8.23002e-06,-0.71418,-0.153428,9.78032,-0.475785,-0.155956,0.769034,-0.00713841,-0.00154206,0.0978034,1,3.95403e-05,1.72648e-05,3.06505e-06,0.00790806,0.00345297,0.000613011,0.999404,-0.00345144,0.0343522,8.23002e-06,0.540982,0.0815956,-0.706723,37,1,37362,30031470
26,7,0.999404,-0.00345144,0.0343522,8.23002e-06,-0.71418,-0.153428,9.78032,-0.475785,-0.155956,0.769034,-0.00713841,-0.00154206,0.0978034,1,3.95403e-05,1.72648e-05,3.06505e-06,0.00790806,0.00345297,0.000613011,0.999404,-0.00345144,0.0343522,8.23002e-06,0.540982,0.0815956,-0.706723,37,1,37362,30031470
26,8,0.999406,-0.00339302,0.0343001,7.75462e-07,-0.701857,-0.143165,9.778,-0.477276,-0.156947,0.767648,-0.00702886,-0.0014434,0.0977791,1,6.04485e-05,-5.25284e-05,-5.357e-06,0.0120897,-0.0105057,-0.0010714,0.999406,-0.00339302,0.0343001,7.75462e-07,0.544267,0.079219,-0.711842,37,1,37363,30031570
27,1,0.999406,-0.00339302,0.0343001,7.75462e-07,-0.701857,-0.143165,9.778,-0.477276,-0.156947,0.767648,-0.00702886,-0.0014434,0.0977791,1,6.04485e-05,-5.25284e-05,-5.357e-06,0.0120897,-0.0105057,-0.0010714,0.999406,-0.00339302,0.0343001,7.75462e-07,0.544267,0.079219,-0.711842,37,1,37363,30031570
27,2,0.999406,-0.00339302,0.0343001,7.75462e-07,-0.701857,-0.143165,9.778,-0.477276,-0.156947,0.767648,-0.00702886,-0.0014434,0.0977791,1,6.04485e-05,-5.25284e-05,-5.357e-06,0.0120897,-0.0105057,-0.0010714,0.999406,-0.00339302,0.0343001,7.75462e-07,0.544267,0.079219,-0.711842,37,1,37363,30031570
27,3,0.999406,-0.00332569,0.0343027,2.71778e-06,-0.643955,-0.0601562,9.80166,-0.409868,-0.0696178,0.783668,-0.00643908,-0.000615219,0.0980165,1,6.93462e-05,2.34503e-06,4.86841e-06,0.0138692,0.000469007,0.000973681,0.999406,-0.00332569,0.0343027,2.71778e-06,0.545098,0.0797889,-0.716883,37,1,37364,30031670
27,4,0.999406,-0.00332569,0.0343027,2.71778e-06,-0.643955,-0.0601562,9.80166,-0.409868,-0.0696178,0.783668,-0.00643908,-0.000615219,0.0980165,1,6.93462e-05,2.34503e-06,4.86841e-06,0.0138692,0.000469007,0.000973681,0.999406,-0.00332569,0.0343027,2.71778e-06,0.545098,0.0797889,-0.716883,37,1,37364,30031670
27,5,0.999406,-0.00332569,0.0343027,2.71778e-06,-0.643955,-0.0601562,9.80166,-0.409868,-0.0696178,0.783668,-0.00643908,-0.000615219,0.0980165,1,6.93462e-05,2.34503e-06,4.86841e-06,0.0138692,0.000469007,0.000973681,0.999406,-0.00332569,0.0343027,2.71778e-06,0.545098,0.0797889,-0.716883,37,1,37364,30031670
27,6,0.999406,-0.00330012,0.0342946,1.42457e-05,-0.672442,-0.083858,9.83118,-0.436702,-0.0854574,0.827529,-0.00672592,-0.000844107,0.0983116,1,2.72152e-05,-7.76904e-06,1.31203e-05,0.00544304,-0.00155381,0.00262406,0.999406,-0.00330012,0.0342946,1.42457e-05,0.546081,0.0821747,-0.71431,37,1,37365,30031770
27,7,0.999406,-0.00330012,0.0342946,1.42457e-05,-0.672442,-0.083858,9.83118,-0.436702,-0.0854574,0.827529,-0.00672592,-0.000844107,0.0983116,1,2.72152e-05,-7.76904e-06,1.31203e-05,0.00544304,-0.00155381,0.00262406,0.999406,-0.00330012,0.0342946,1.42457e-05,0.546081,0.0821747,-0.71431,37,1,37365,30031770
27,8,0.999406,-0.00330012,0.0342946,1.42457e-05,-0.672442,-0.083858,9.83118,-0.436702,-0.0854574,0.827529,-0.00672592,-0.000844107,0.0983116,1,2.72152e-05,-7.76904e-06,1.31203e-05,0.00544304,-0.00155381,0.00262406,0.999406,-0.00330012,0.0342946,1.42457e-05,0.546081,0.0821747,-0.71431,37,1,37365,30031770
28,1,0.999407,-0.00326085,0.0342797,5.0606e-06,-0.645612,-0.134707,9.77664,-0.419645,-0.13622,0.771882,-0.00645919,-0.00135512,0.097766,1,4.16934e-05,-1.56055e-05,-7.68688e-06,0.00833869,-0.00312109,-0.00153738,0.999407,-0.00326085,0.0342797,5.0606e-06,0.543816,0.0825742,-0.708229,37,1,37366,30031870
28,2,0.999407,-0.00326085,0.0342797,5.0606e-06,-0.645612,-0.134707,9.77664,-0.419645,-0.13622,0.771882,-0.00645919,-0.00135512,0.097766,1,4.16934e-05,-1.56055e-05,-7.68688e-06,0.00833869,-0.00312109,-0.00153738,0.999407,-0.00326085,0.0342797,5.0606e-06,0.543816,0.0825742,-0.708229,37,1,37366,30031870
28,3,0.999407,-0.00326085,0.0342797,5.0606e-06,-0.645612,-0.134707,9.77664,-0.419645,-0.13622,0.771882,-0.00645919,-0.00135512,0.097766,1,4.16934e-05,-1.56055e-05,-7.68688e-06,0.00833869,-0.00312109,-0.00153738,0.999407,-0.00326085,0.0342797,5.0606e-06,0.543816,0.0825742,-0.708229,37,1,37366,30031870
28,4,0.999407,-0.00324671,0.0342851,1.53259e-05,-0.656856,-0.181885,9.78512,-0.423682,-0.190591,0.776663,-0.0065675,-0.00182217,0.0978512,1,1.61939e-05,5.21173e-06,1.12224e-05,0.00323877,0.00104235,0.00224448,0.999407,-0.00324671,0.0342851,1.53259e-05,0.539169,0.0815305,-0.70217,37,1,37367,30031970
28,5,0.999407,-0.00324671,0.0342851,1.53259e-05,-0.656856,-0.181885,9.78512,-0.423682,-0.190591,0.776663,-0.0065675,-0.00182217,0.0978512,1,1.61939e-05,5.21173e-06,1.12224e-05,0.00323877,0.00104235,0.00224448,0.999407,-0.00324671,0.0342851,1.53259e-05,0.539169,0.0815305,-0.70217,37,1,37367,30031970
28,6,0.999407,-0.00324671,0.0342851,1.53259e-05,-0.656856,-0.181885,9.78512,-0.423682,-0.190591,0.776663,-0.0065675,-0.00182217,0.0978512,1,1.61939e-05,5.21173e-06,1.12224e-05,0.00323877,0.00104235,0.00224448,0.999407,-0.00324671,0.0342851,1.53259e-05,0.539169,0.0815305,-0.70217,37,1,37367,30031970
28,7,0.999408,-0.00314684,0.0342674,1.23153e-05,-0.669226,-0.142217,9.78217,-0.435764,-0.170782,0.766678,-0.00669564,-0.00144229,0.0978211,1,0.00010274,-1.72593e-05,1.38939e-06,0.020548,-0.00345187,0.000277879,0.999408,-0.00314684,0.0342674,1.23153e-05,0.539115,0.0810878,-0.704705,37,1,37368,30032070
28,8,0.999408,-0.00314684,0.0342674,1.23153e-05,-0.669226,-0.142217,9.78217,-0.435764,-0.170782,0.766678,-0.00669564,-0.00144229,0.0978211,1,0.00010274,-1.72593e-05,1.38939e-06,0.020548,-0.00345187,0.000277879,0.999408,-0.00314684,0.0342674,1.23153e-05,0.539115,0.0810878,-0.704705,37,1,37368,30032070
29,1,0.999408,-0.00314684,0.0342674,1.23153e-05,-0.669226,-0.142217,9.78217,-0.435764,-0.170782,0.766678,-0.00669564,-0.00144229,0.0978211,1,0.00010274,-1.72593e-05,1.38939e-06,0.020548,-0.00345187,0.000277879,0.999408,-0.00314684,0.0342674,1.23153e-05,0.539115,0.0810878,-0.704705,37,1,37368,30032070
29,2,0.999408,-0.00311961,0.0342777,3.87831e-05,-0.688262,-0.0827544,9.78821,-0.455373,-0.0935302,0.765557,-0.00688063,-0.00083368,0.0978822,1,2.93759e-05,9.93109e-06,2.79863e-05,0.00587517,0.00198622,0.00559726,0.999408,-0.00311961,0.0342777,3.87831e-05,0.544687,0.0807053,-0.713326,37,1,37369,30032170
29,3,0.999408,-0.00311961,0.0342777,3.87831e-05,-0.688262,-0.0827544,9.78821,-0.455373,-0.0935302,0.765557,-0.00688063,-0.00083368,0.0978822,1,2.93759e-05,9.93109e-06,2.79863e-05,0.00587517,0.00198622,0.00559726,0.999408,-0.00311961,0.0342777,3.87831e-05,0.544687,0.0807053,-0.713326,37,1,37369,30032170
29,4,0.999408,-0.00311961,0.0342777,3.87831e-05,-0.688262,-0.0827544,9.78821,-0.455373,-0.0935302,0.765557,-0.00688063,-0.00083368,0.0978822,1,2.93759e-05,9.93109e-06,2.79863e-05,0.00587517,0.00198622,0.00559726,0.999408,-0.00311961,0.0342777,3.87831e-05,0.544687,0.0807053,-0.713326,37,1,37369,30032170
29,5,0.999408,-0.0030902,0.0342561,4.22428e-05,-0.694651,-0.133473,9.79631,-0.460186,-0.144427,0.789325,-0.00695062,-0.00134114,0.0979628,1,3.23617e-05,-2.10644e-05,5.58821e-06,0.00647235,-0.00421288,0.00111764,0.999408,-0.0030902,0.0342561,4.22428e-05,0.544523,0.081789,-0.719361,37,1,37370,30032270
29,6,0.999408,-0.0030902,0.0342561,4.22428e-05,-0.694651,-0.133473,9.79631,-0.460186,-0.144427,0.789325,-0.00695062,-0.00134114,0.0979628,1,3.23617e-05,-2.10644e-05,5.58821e-06,0.00647235,-0.00421288,0.00111764,0.999408,-0.0030902,0.0342561,4.22428e-05,0.544523,0.081789,-0.719361,37,1,37370,30032270
29,7,0.999408,-0.0030902,0.0342561,4.22428e-05,-0.694651,-0.133473,9.79631,-0.460186,-0.144427,0.789325,-0.00695062,-0.00134114,0.0979628,1,3.23617e-05,-2.10644e-05,5.58821e-06,0.00647235,-0.00421288,0.00111764,0.999408,-0.0030902,0.0342561,4.22428e-05,0.544523,0.081789,-0.719361,37,1,37370,30032270
29,8,0.999409,-0.00303977,0.0342354,4.0676e-05,-0.675056,-0.128776,9.78198,-0.453662,-0.145142,0.774044,-0.00675462,-0.00129831,0.0978194,1,5.38136e-05,-2.07482e-05,1.09298e-06,0.0107627,-0.00414965,0.000218596,0.999409,-0.00303977,0.0342354,4.0676e-05,0.543141,0.0832012,-0.715788,37,1,37371,30032370
30,1,0.999409,-0.00303977,0.0342354,4.0676e-05,-0.675056,-0.128776,9.78198,-0.453662,-0.145142,0.774044,-0.00675462,-0.00129831,0.0978194,1,5.38136e-05,-2.07482e-05,1.09298e-06,0.0107627,-0.00414965,0.000218596,0.999409,-0.00303977,0.0342354,4.0676e-05,0.543141,0.0832012,-0.715788,37,1,37371,30032370
30,2,0.999409,-0.00303977,0.0342354,4.0676e-05,-0.675056,-0.128776,9.78198,-0.453662,-0.145142,0.774044,-0.00675462,-0.00129831,0.0978194,1,5.38136e-05,-2.07482e-05,1.09298e-06,0.0107627,-0.00414965,0.000218596,0.999409,-0.00303977,0.0342354,4.0676e-05,0.543141,0.0832012,-0.715788,37,1,37371,30032370
30,3,0.99941,-0.00297128,0.03421,5.03207e-05,-0.650189,-0.112026,9.80028,-0.421518,-0.13029,0.796449,-0.00650682,-0.00113449,0.0980023,1,7.17491e-05,-2.53192e-05,1.27085e-05,0.0143498,-0.00506384,0.00254171,0.99941,-0.00297128,0.03421,5.03207e-05,0.542813,0.0850211,-0.70817,37,1,37372,30032470
30,4,0.99941,-0.00297128,0.03421,5.03207e-05,-0.650189,-0.112026,9.80028,-0.421518,-0.13029,0.796449,-0.00650682,-0.00113449,0.0980023,1,7.17491e-05,-2.53192e-05,1.27085e-05,0.0143498,-0.00506384,0.00254171,0.99941,-0.00297128,0.03421,5.03207e-05,0.542813,0.0850211,-0.70817,37,1,37372,30032470
30,5,0.99941,-0.00297128,0.03421,5.03207e-05,-0.650189,-0.112026,9.80028,-0.421518,-0.13029,0.796449,-0.00650682,-0.00113449,0.0980023,1,7.17491e-05,-2.53192e-05,1.27085e-05,0.0143498,-0.00506384,0.00254171,0.99941,-0.00297128,0.03421,5.03207e-05,0.542813,0.0850211,-0.70817,37,1,37372,30032470
30,6,0.99941,-0.00291167,0.0342124,6.86612e-05,-0.652788,-0.0994545,9.79054,-0.421086,-0.119576,0.784525,-0.0065275,-0.00100711,0.0979053,1,6.27412e-05,1.75067e-06,2.13632e-05,0.0125482,0.000350134,0.00427263,0.99941,-0.00291167,0.0342124,6.86612e-05,0.542475,0.0829929,-0.703668,37,1,37373,30032570
30,7,0.99941,-0.00291167,0.0342124,6.86612e-05,-0.652788,-0.0994545,9.79054,-0.421086,-0.119576,0.784525,-0.0065275,-0.00100711,0.0979053,1,6.27412e-05,1.75067e-06,2.13632e-05,0.0125482,0.000350134,0.00427263,0.99941,-0.00291167,0.0342124,6.86612e-05,0.542475,0.0829929,-0.703668,37,1,37373,30032570
30,8,0.99941,-0.00291167,0.0342124,6.86612e-05,-0.652788,-0.0994545,9.79054,-0.421086,-0.119576,0.784525,-0.0065275,-0.00100711,0.0979053,1,6.27412e-05,1.75067e-06,2.13632e-05,0.0125482,0.000350134,0.00427263,0.99941,-0.00291167,0.0342124,6.86612e-05,0.542475,0.0829929,-0.703668,37,1,37373,30032570
31,1,0.99941,-0.00287964,0.0342264,7.19775e-05,-0.697101,-0.131583,9.79259,-0.462721,-0.144288,0.776853,-0.00696826,-0.00132293,0.097926,1,3.58559e-05,1.39679e-05,5.48931e-06,0.00717118,0.00279359,0.00109786,0.99941,-0.00287964,0.0342264,7.19775e-05,0.541484,0.0810949,-0.706231,37,1,37374,30032670
31,2,0.99941,-0.00287964,0.0342264,7.19775e-05,-0.697101,-0.131583,9.79259,-0.462721,-0.144288,0.776853,-0.00696826,-0.00132293,0.097926,1,3.58559e-05,1.39679e-05,5.48931e-06,0.00717118,0.00279359,0.00109786,0.99941,-0.00287964,0.0342264,7.19775e-05,0.541484,0.0810949,-0.706231,37,1,37374,30032670
31,3,0.99941,-0.00287964,0.0342264,7.19775e-05,-0.697101,-0.131583,9.79259,-0.462721,-0.144288,0.776853,-0.00696826,-0.00132293,0.097926,1,3.58559e-05,1.39679e-05,5.48931e-06,0.00717118,0.00279359,0.00109786,0.99941,-0.00287964,0.0342264,7.19775e-05,0.541484,0.0810949,-0.706231,37,1,37374,30032670
31,4,0.999411,-0.00282044,0.0342047,6.92375e-05,-0.726095,-0.151606,9.7896,-0.499018,-0.176806,0.777573,-0.00726525,-0.00152852,0.0978955,1,6.35794e-05,-2.19609e-05,5.90092e-07,0.0127159,-0.00439218,0.000118018,0.999411,-0.00282044,0.0342047,6.92375e-05,0.545192,0.079238,-0.713361,37,1,37375,30032770
31,5,0.999411,-0.00282044,0.0342047,6.92375e-05,-0.726095,-0.151606,9.7896,-0.499018,-0.176806,0.777573,-0.00726525,-0.00152852,0.0978955,1,6.35794e-05,-2.19609e-05,5.90092e-07,0.0127159,-0.00439218,0.000118018,0.999411,-0.00282044,0.0342047,6.92375e-05,0.545192,0.079238,-0.713361,37,1,37375,30032770
31,6,0.999411,-0.00282044,0.0342047,6.92375e-05,-0.726095,-0.151606,9.7896,-0.499018,-0.176806,0.777573,-0.00726525,-0.00152852,0.0978955,1,6.35794e-05,-2.19609e-05,5.90092e-07,0.0127159,-0.00439218,0.000118018,0.999411,-0.00282044,0.0342047,6.92375e-05,0.545192,0.079238,-0.713361,37,1,37375,30032770
31,7,0.999412,-0.00275003,0.0341829,8.01833e-05,-0.683702,-0.0897397,9.79595,-0.460708,-0.110628,0.784787,-0.00684138,-0.000912207,0.097959,1,7.45804e-05,-2.23687e-05,1.45242e-05,0.0149161,-0.00447374,0.00290484,0.999412,-0.00275003,0.0341829,8.01833e-05,0.546015,0.0802957,-0.718391,37,1,37376,30032870
31,8,0.999412,-0.00275003,0.0341829,8.01833e-05,-0.683702,-0.0897397,9.79595,-0.460708,-0.110628,0.784787,-0.00684138,-0.000912207,0.097959,1,7.45804e-05,-2.23687e-05,1.45242e-05,0.0149161,-0.00447374,0.00290484,0.999412,-0.00275003,0.0341829,8.01833e-05,0.546015,0.0802957,-0.718391,37,1,37376,30032870
32,1,0.999413,-0.00270958,0.0341605,9.35806e-05,-0.655066,-0.0814816,9.78699,-0.427516,-0.0940589,0.78101,-0.00655513,-0.000823779,0.0978696,1,4.47183e-05,-2.2987e-05,1.59909e-05,0.00894366,-0.00459741,0.00319818,0.999413,-0.00270958,0.0341605,9.35806e-05,0.542677,0.083675,-0.714765,37,1,37377,30032970
32,2,0.999413,-0.00270958,0.0341605,9.35806e-05,-0.655066,-0.0814816,9.78699,-0.427516,-0.0940589,0.78101,-0.00655513,-0.000823779,0.0978696,1,4.47183e-05,-2.2987e-05,1.59909e-05,0.00894366,-0.00459741,0.00319818,0.999413,-0.00270958,0.0341605,9.35806e-05,0.542677,0.083675,-0.714765,37,1,37377,30032970
32,3,0.999413,-0.00270958,0.0341605,9.35806e-05,-0.655066,-0.0814816,9.78699,-0.427516,-0.0940589,0.78101,-0.00655513,-0.000823779,0.0978696,1,4.47183e-05,-2.2987e-05,1.59909e-05,0.00894366,-0.00459741,0.00319818,0.999413,-0.00270958,0.0341605,9.35806e-05,0.542677,0.083675,-0.714765,37,1,37377,30032970
32,4,0.999413,-0.00266354,0.0341485,8.40746e-05,-0.663657,-0.12418,9.78837,-0.432803,-0.139093,0.779747,-0.00663898,-0.00125174,0.0978834,1,5.12376e-05,-1.22211e-05,-6.69787e-06,0.0102475,-0.00244421,-0.00133957,0.999413,-0.00266354,0.0341485,8.40746e-05,0.539021,0.083084,-0.707186,37,1,37378,30033070
32,5,0.999413,-0.00266354,0.0341485,8.40746e-05,-0.663657,-0.12418,9.78837,-0.432803,-0.139093,0.779747,-0.00663898,-0.00125174,0.0978834,1,5.12376e-05,-1.22211e-05,-6.69787e-06,0.0102475,-0.00244421,-0.00133957,0.999413,-0.00266354,0.0341485,8.40746e-05,0.539021,0.083084,-0.707186,37,1,37378,30033070
32,6,0.999413,-0.00266354,0.0341485,8.40746e-05,-0.663657,-0.12418,9.78837,-0.432803,-0.139093,0.779747,-0.00663898,-0.00125174,0.0978834,1,5.12376e-05,-1.22211e-05,-6.69787e-06,0.0102475,-0.00244421,-0.00133957,0.999413,-0.00266354,0.0341485,8.40746e-05,0.539021,0.083084,-0.707186,37,1,37378,30033070
32,7,0.999414,-0.00261068,0.0341418,7.62948e-05,-0.707311,-0.14261,9.79123,-0.479323,-0.166113,0.789882,-0.00707449,-0.00143744,0.0979121,1,5.82374e-05,-6.98692e-06,-4.62691e-06,0.0116475,-0.00139738,-0.000925383,0.999414,-0.00261068,0.0341418,7.62948e-05,0.537729,0.080576,-0.70269,37,1,37379,30033170
32,8,0.999414,-0.00261068,0.0341418,7.62948e-05,-0.707311,-0.14261,9.79123,-0.479323,-0.166113,0.789882,-0.00707449,-0.00143744,0.0979121,1,5.82374e-05,-6.98692e-06,-4.62691e-06,0.0116475,-0.00139738,-0.000925383,0.999414,-0.00261068,0.0341418,7.62948e-05,0.537729,0.080576,-0.70269,37,1,37379,30033170
33,1,0.999414,-0.00261068,0.0341418,7.62948e-05,-0.707311,-0.14261,9.79123,-0.479323,-0.166113,0.789882,-0.00707449,-0.00143744,0.0979121,1,5.82374e-05,-6.98692e-06,-4.62691e-06,0.0116475,-0.00139738,-0.000925383,0.999414,-0.00261068,0.0341418,7.62948e-05,0.537729,0.080576,-0.70269,37,1,37379,30033170
33,2,0.999414,-0.0025357,0.0341334,7.55244e-05,-0.708985,-0.115323,9.77486,-0.473993,-0.14902,0.761965,-0.00709155,-0.00116901,0.0977482,1,8.04942e-05,-8.73439e-06,3.48097e-06,0.0160988,-0.00174688,0.000696195,0.999414,-0.0025357,0.0341334,7.55244e-05,0.540069,0.0801223,-0.705741,37,1,37380,30033270
33,3,0.999414,-0.0025357,0.0341334,7.55244e-05,-0.708985,-0.115323,9.77486,-0.473993,-0.14902,0.761965,-0.00709155,-0.00116901,0.0977482,1,8.04942e-05,-8.73439e-06,3.48097e-06,0.0160988,-0.00174688,0.000696195,0.999414,-0.0025357,0.0341334,7.55244e-05,0.540069,0.0801223,-0.705741,37,1,37380,30033270
33,4,0.999414,-0.0025357,0.0341334,7.55244e-05,-0.708985,-0.115323,9.77486,-0.473993,-0.14902,0.761965,-0.00709155,-0.00116901,0.0977482,1,8.04942e-05,-8.73439e-06,3.48097e-06,0.0160988,-0.00174688,0.000696195,0.999414,-0.0025357,0.0341334,7.55244e-05,0.540069,0.0801223,-0.705741,37,1,37380,30033270
33,5,0.999415,-0.00251431,0.0341109,7.67295e-05,-0.687322,-0.0768397,9.78827,-0.461518,-0.097667,0.768601,-0.00687771,-0.000773754,0.0978824,1,2.71109e-05,-2.29776e-05,3.60961e-06,0.00542217,-0.00459551,0.000721922,0.999415,-0.00251431,0.0341109,7.67295e-05,0.54518,0.0806923,-0.712823,37,1,37381,30033370
33,6,0.999415,-0.00251431,0.0341109,7.67295e-05,-0.687322,-0.0768397,9.78827,-0.461518,-0.097667,0.768601,-0.00687771,-0.000773754,0.0978824,1,2.71109e-05,-2.29776e-05,3.60961e-06,0.00542217,-0.00459551,0.000721922,0.999415,-0.00251431,0.0341109,7.67295e-05,0.54518,0.0806923,-0.712823,37,1,37381,30033370
33,7,0.999415,-0.00251431,0.0341109,7.67295e-05,-0.687322,-0.0768397,9.78827,-0.461518,-0.097667,0.768601,-0.00687771,-0.000773754,0.0978824,1,2.71109e-05,-2.29776e-05,3.60961e-06,0.00542217,-0.00459551,0.000721922,0.999415,-0.00251431,0.0341109,7.67295e-05,0.54518,0.0806923,-0.712823,37,1,37381,30033370
33,8,0.999416,-0.00248508,0.0340847,9.6972e-05,-0.675217,-0.139447,9.8002,-0.447773,-0.161993,0.788907,-0.00675735,-0.00140153,0.0980016,1,3.44252e-05,-2.67322e-05,2.28163e-05,0.00688505,-0.00534644,0.00456327,0.999416,-0.00248508,0.0340847,9.6972e-05,0.546003,0.0831953,-0.716812,37,1,37382,30033470
34,1,0.999416,-0.00248508,0.0340847,9.6972e-05,-0.675217,-0.139447,9.8002,-0.447773,-0.161993,0.788907,-0.00675735,-0.00140153,0.0980016,1,3.44252e-05,-2.67322e-05,2.28163e-05,0.00688505,-0.00534644,0.00456327,0.999416,-0.00248508,0.0340847,9.6972e-05,0.546003,0.0831953,-0.716812,37,1,37382,30033470
34,2,0.999416,-0.00248508,0.0340847,9.6972e-05,-0.675217,-0.139447,9.8002,-0.447773,-0.161993,0.788907,-0.00675735,-0.00140153,0.0980016,1,3.44252e-05,-2.67322e-05,2.28163e-05,0.00688505,-0.00534644,0.00456327,0.999416,-0.00248508,0.0340847,9.6972e-05,0.546003,0.0831953,-0.716812,37,1,37382,30033470
34,3,0.999416,-0.00243411,0.0340844,0.000104109,-0.672133,-0.133504,9.79445,-0.44235,-0.160003,0.786438,-0.0067215,-0.00134634,0.0979443,1,5.69838e-05,-9.8908e-07,1.03193e-05,0.0113968,-0.000197816,0.00206387,0.999416,-0.00243411,0.0340844,0.000104109,0.544663,0.0836139,-0.712251,37,1,37383,30033570
34,4,0.999416,-0.00243411,0.0340844,0.000104109,-0.672133,-0.133504,9.79445,-0.44235,-0.160003,0.786438,-0.0067215,-0.00134634,0.0979443,1,5.69838e-05,-9.8908e-07,1.03193e-05,0.0113968,-0.000197816,0.00206387,0.999416,-0.00243411,0.0340844,0.000104109,0.544663,0.0836139,-0.712251,37,1,37383,30033570
34,5,0.999416,-0.00243411,0.0340844,0.000104109,-0.672133,-0.133504,9.79445,-0.44235,-0.160003,0.786438,-0.0067215,-0.00134634,0.0979443,1,5.69838e-05,-9.8908e-07,1.03193e-05,0.0113968,-0.000197816,0.00206387,0.999416,-0.00243411,0.0340844,0.000104109,0.544663,0.0836139,-0.712251,37,1,37383,30033570
34,6,0.999416,-0.00239514,0.0340881,0.000118654,-0.703047,-0.128442,9.7981,-0.473535,-0.161164,0.796965,-0.00702993,-0.00129352,0.0979809,1,4.516e-05,2.5501e-06,1.74359e-05,0.00903199,0.00051002,0.00348719,0.999416,-0.00239514,0.0340881,0.000118654,0.542385,0.0825772,-0.707718,37,1,37384,30033670
34,7,0.999416,-0.00239514,0.0340881,0.000118654,-0.703047,-0.128442,9.7981,-0.473535,-0.161164,0.796965,-0.00702993,-0.00129352,0.0979809,1,4.516e-05,2.5501e-06,1.74359e-05,0.00903199,0.00051002,0.00348719,0.999416,-0.00239514,0.0340881,0.000118654,0.542385,0.0825772,-0.707718,37,1,37384,30033670
34,8,0.999416,-0.00239514,0.0340881,0.000118654,-0.703047,-0.128442,9.7981,-0.473535,-0.161164,0.796965,-0.00702993,-0.00129352,0.0979809,1,4.516e-05,2.5501e-06,1.74359e-05,0.00903199,0.00051002,0.00348719,0.999416,-0.00239514,0.0340881,0.000118654,0.542385,0.0825772,-0.707718,37,1,37384,30033670
35,1,0.999417,-0.00233842,0.0340723,0.000120259,-0.679097,-0.0948919,9.79348,-0.452866,-0.128426,0.783542,-0.00679421,-0.000961457,0.0979345,1,6.36112e-05,-1.65755e-05,5.75566e-06,0.0127222,-0.00331511,0.00115113,0.999417,-0.00233842,0.0340723,0.000120259,0.540065,0.0825341,-0.704173,37,1,37385,30033770
35,2,0.999417,-0.00233842,0.0340723,0.000120259,-0.679097,-0.0948919,9.79348,-0.452866,-0.128426,0.783542,-0.00679421,-0.000961457,0.0979345,1,6.36112e-05,-1.65755e-05,5.75566e-06,0.0127222,-0.00331511,0.00115113,0.999417,-0.00233842,0.0340723,0.000120259,0.540065,0.0825341,-0.704173,37,1,37385,30033770
35,3,0.999417,-0.00233842,0.0340723,0.000120259,-0.679097,-0.0948919,9.79348,-0.452866,-0.128426,0.783542,-0.00679421,-0.000961457,0.0979345,1,6.36112e-05,-1.65755e-05,5.75566e-06,0.0127222,-0.00331511,0.00115113,0.999417,-0.00233842,0.0340723,0.000120259,0.540065,0.0825341,-0.704173,37,1,37385,30033770
35,4,0.999417,-0.00231901,0.0340487,0.000120558,-0.65938,-0.122757,9.7921,-0.435216,-0.149386,0.780477,-0.00659856,-0.00123281,0.0979206,1,2.65614e-05,-2.43466e-05,2.86102e-06,0.00531227,-0.00486932,0.000572204,0.999417,-0.00231901,0.0340487,0.000120558,0.54002,0.0816036,-0.706718,37,1,37386,30033870
35,5,0.999417,-0.00231901,0.0340487,0.000120558,-0.65938,-0.122757,9.7921,-0.435216,-0.149386,0.780477,-0.00659856,-0.00123281,0.0979206,1,2.65614e-05,-2.43466e-05,2.86102e-06,0.00531227,-0.00486932,0.000572204,0.999417,-0.00231901,0.0340487,0.000120558,0.54002,0.0816036,-0.706718,37,1,37386,30033870
35,6,0.999417,-0.00231901,0.0340487,0.000120558,-0.65938,-0.122757,9.7921,-0.435216,-0.149386,0.780477,-0.00659856,-0.00123281,0.0979206,1,2.65614e-05,-2.43466e-05,2.86102e-06,0.00531227,-0.00486932,0.000572204,0.999417,-0.00231901,0.0340487,0.000120558,0.54002,0.0816036,-0.706718,37,1,37386,30033870
35,7,0.999418,-0.0022663,0.0340497,0.000120203,-0.672053,-0.152828,9.7797,-0.441857,-0.189607,0.763987,-0.00672046,-0.00154014,0.0977969,1,6.03926e-05,2.81178e-07,3.44957e-06,0.0120785,5.62356e-05,0.000689914,0.999418,-0.0022663,0.0340497,0.000120203,0.544259,0.0797067,-0.711831,37,1,37387,30033970
35,8,0.999418,-0.0022663,0.0340497,0.000120203,-0.672053,-0.152828,9.7797,-0.441857,-0.189607,0.763987,-0.00672046,-0.00154014,0.0977969,1,6.03926e-05,2.81178e-07,3.44957e-06,0.0120785,5.62356e-05,0.000689914,0.999418,-0.0022663,0.0340497,0.000120203,0.544259,0.0797067,-0.711831,37,1,37387,30033970
36,1,0.999418,-0.0022663,0.0340497,0.000120203,-0.672053,-0.152828,9.7797,-0.441857,-0.189607,0.763987,-0.00672046,-0.00154014,0.0977969,1,6.03926e-05,2.81178e-07,3.44957e-06,0.0120785,5.62356e-05,0.000689914,0.999418,-0.0022663,0.0340497,0.000120203,0.544259,0.0797067,-0.711831,37,1,37387,30033970
36,2,0.999418,-0.00221725,0.0340415,0.000120065,-0.660755,-0.0971734,9.78554,-0.432097,-0.135026,0.772191,-0.00660928,-0.000982992,0.0978552,1,5.72726e-05,-8.91102e-06,3.69316e-06,0.0114545,-0.0017822,0.000738632,0.999418,-0.00221725,0.0340415,0.000120065,0.545608,0.0802456,-0.71536,37,1,37388,30034070
36,3,0.999418,-0.00221725,0.0340415,0.000120065,-0.660755,-0.0971734,9.78554,-0.432097,-0.135026,0.772191,-0.00660928,-0.000982992,0.0978552,1,5.72726e-05,-8.91102e-06,3.69316e-06,0.0114545,-0.0017822,0.000738632,0.999418,-0.00221725,0.0340415,0.000120065,0.545608,0.0802456,-0.71536,37,1,37388,30034070
36,4,0.999418,-0.00221725,0.0340415,0.000120065,-0.660755,-0.0971734,9.78554,-0.432097,-0.135026,0.772191,-0.00660928,-0.000982992,0.0978552,1,5.72726e-05,-8.91102e-06,3.69316e-06,0.0114545,-0.0017822,0.000738632,0.999418,-0.00221725,0.0340415,0.000120065,0.545608,0.0802456,-0.71536,37,1,37388,30034070
36,5,0.999418,-0.00216445,0.0340402,0.000126111,-0.668439,-0.0875797,9.78532,-0.444014,-0.115764,0.772948,-0.00668483,-0.000887903,0.0978531,1,6.11414e-05,-2.33945e-06,1.04494e-05,0.0122283,-0.000467889,0.00208988,0.999418,-0.00216445,0.0340402,0.000126111,0.544136,0.0812422,-0.715836,37,1,37389,30034170
36,6,0.999418,-0.00216445,0.0340402,0.000126111,-0.668439,-0.0875797,9.78532,-0.444014,-0.115764,0.772948,-0.00668483,-0.000887903,0.0978531,1,6.11414e-05,-2.33945e-06,1.04494e-05,0.0122283,-0.000467889,0.00208988,0.999418,-0.00216445,0.0340402,0.000126111,0.544136,0.0812422,-0.715836,37,1,37389,30034170
36,7,0.999418,-0.00216445,0.0340402,0.000126111,-0.668439,-0.0875797,9.78532,-0.444014,-0.115764,0.772948,-0.00668483,-0.000887903,0.0978531,1,6.11414e-05,-2.33945e-06,1.04494e-05,0.0122283,-0.000467889,0.00208988,0.999418,-0.00216445,0.0340402,0.000126111,0.544136,0.0812422,-0.715836,37,1,37389,30034170
36,8,0.999419,-0.00212107,0.0340305,0.000131063,-0.677317,-0.107355,9.7954,-0.451374,-0.134277,0.792796,-0.00677511,-0.00108378,0.0979537,1,5.16326e-05,-1.00189e-05,8.04848e-06,0.0103265,-0.00200379,0.0016097,0.999419,-0.00212107,0.0340305,0.000131063,0.541854,0.0826173,-0.709735,37,1,37390,30034270
37,1,0.999419,-0.00212107,0.0340305,0.000131063,-0.677317,-0.107355,9.7954,-0.451374,-0.134277,0.792796,-0.00677511,-0.00108378,0.0979537,1,5.16326e-05,-1.00189e-05,8.04848e-06,0.0103265,-0.00200379,0.0016097,0.999419,-0.00212107,0.0340305,0.000131063,0.541854,0.0826173,-0.709735,37,1,37390,30034270
37,2,0.999419,-0.00212107,0.0340305,0.000131063,-0.677317,-0.107355,9.7954,-0.451374,-0.134277,0.792796,-0.00677511,-0.00108378,0.0979537,1,5.16326e-05,-1.00189e-05,8.04848e-06,0.0103265,-0.00200379,0.0016097,0.999419,-0.00212107,0.0340305,0.000131063,0.541854,0.0826173,-0.709735,37,1,37390,30034270
37,3,0.999419,-0.0020921,0.0340313,0.000136007,-0.684711,-0.133481,9.78945,-0.456426,-0.163649,0.785164,-0.00684713,-0.00134216,0.0978944,1,3.70666e-05,-2.21918e-07,6.77814e-06,0.00741333,-4.43836e-05,0.00135563,0.999419,-0.0020921,0.0340313,0.000136007,0.54009,0.0825161,-0.703163,37,1,37391,30034370
37,4,0.999419,-0.0020921,0.0340313,0.000136007,-0.684711,-0.133481,9.78945,-0.456426,-0.163649,0.785164,-0.00684713,-0.00134216,0.0978944,1,3.70666e-05,-2.21918e-07,6.77814e-06,0.00741333,-4.43836e-05,0.00135563,0.999419,-0.0020921,0.0340313,0.000136007,0.54009,0.0825161,-0.703163,37,1,37391,30034370
37,5,0.999419,-0.00204888,0.0340152,0.000151766,-0.678824,-0.132324,9.79011,-0.455199,-0.170171,0.775071,-0.00679151,-0.00133346,0.0979007,1,5.10196e-05,-1.69428e-05,1.73599e-05,0.0102039,-0.00338856,0.00347198,0.999419,-0.00204888,0.0340152,0.000151766,0.542479,0.0820263,-0.704195,37,1,37392,30034470
37,6,0.999419,-0.00204888,0.0340152,0.000151766,-0.678824,-0.132324,9.79011,-0.455199,-0.170171,0.775071,-0.00679151,-0.00133346,0.0979007,1,5.10196e-05,-1.69428e-05,1.73599e-05,0.0102039,-0.00338856,0.00347198,0.999419,-0.00204888,0.0340152,0.000151766,0.542479,0.0820263,-0.704195,37,1,37392,30034470
37,7,0.999419,-0.00204888,0.0340152,0.000151766,-0.678824,-0.132324,9.79011,-0.455199,-0.170171,0.775071,-0.00679151,-0.00133346,0.0979007,1,5.10196e-05,-1.69428e-05,1.73599e-05,0.0102039,-0.00338856,0.00347198,0.999419,-0.00204888,0.0340152,0.000151766,0.542479,0.0820263,-0.704195,37,1,37392,30034470
37,8,0.99942,-0.0020079,0.0340082,0.000150895,-0.642778,-0.12931,9.80582,-0.420335,-0.171854,0.789773,-0.00642939,-0.00130302,0.098058,1,5.03882e-05,-8.30185e-06,3.38653e-06,0.0100776,-0.00166037,0.000677305,0.99942,-0.0020079,0.0340082,0.000150895,0.54717,0.0796647,-0.710835,37,1,37393,30034570
38,1,0.99942,-0.0020079,0.0340082,0.000150895,-0.642778,-0.12931,9.80582,-0.420335,-0.171854,0.789773,-0.00642939,-0.00130302,0.098058,1,5.03882e-05,-8.30185e-06,3.38653e-06,0.0100776,-0.00166037,0.000677305,0.99942,-0.0020079,0.0340082,0.000150895,0.54717,0.0796647,-0.710835,37,1,37393,30034570
38,2,0.99942,-0.0020079,0.0340082,0.000150895,-0.642778,-0.12931,9.80582,-0.420335,-0.171854,0.789773,-0.00642939,-0.00130302,0.098058,1,5.03882e-05,-8.30185e-06,3.38653e-06,0.0100776,-0.00166037,0.000677305,0.99942,-0.0020079,0.0340082,0.000150895,0.54717,0.0796647,-0.710835,37,1,37393,30034570
38,3,0.999419,-0.00195439,0.0340156,0.000144063,-0.66862,-0.111816,9.79393,-0.437589,-0.153116,0.773739,-0.00668497,-0.00113103,0.0979392,1,6.54664e-05,6.23545e-06,3.45339e-06,0.0130933,0.00124709,0.000690679,0.999419,-0.00195439,0.0340156,0.000144063,0.546513,0.0807614,-0.717373,37,1,37394,30034670
38,4,0.999419,-0.00195439,0.0340156,0.000144063,-0.66862,-0.111816,9.79393,-0.437589,-0.153116,0.773739,-0.00668497,-0.00113103,0.0979392,1,6.54664e-05,6.23545e-06,3.45339e-06,0.0130933,0.00124709,0.000690679,0.999419,-0.00195439,0.0340156,0.000144063,0.546513,0.0807614,-0.717373,37,1,37394,30034670
38,5,0.999419,-0.00195439,0.0340156,0.000144063,-0.66862,-0.111816,9.79393,-0.437589,-0.153116,0.773739,-0.00668497,-0.00113103,0.0979392,1,6.54664e-05,6.23545e-06,3.45339e-06,0.0130933,0.00124709,0.000690679,0.999419,-0.00195439,0.0340156,0.000144063,0.546513,0.0807614,-0.717373,37,1,37394,30034670
38,6,0.99942,-0.00192971,0.0339916,0.000141106,-0.689381,-0.104173,9.79383,-0.465152,-0.138441,0.784833,-0.00689876,-0.00104926,0.0979378,1,3.8037e-05,-2.53303e-05,5.77751e-06,0.00760741,-0.00506606,0.0011555,0.99942,-0.00192971,0.0339916,0.000141106,0.545037,0.0841698,-0.716281,37,1,37395,30034770
38,7,0.99942,-0.00192971,0.0339916,0.000141106,-0.689381,-0.104173,9.79383,-0.465152,-0.138441,0.784833,-0.00689876,-0.00104926,0.0979378,1,3.8037e-05,-2.53303e-05,5.77751e-06,0.00760741,-0.00506606,0.0011555,0.99942,-0.00192971,0.0339916,0.000141106,0.545037,0.0841698,-0.716281,37,1,37395,30034770
38,8,0.99942,-0.00192971,0.0339916,0.000141106,-0.689381,-0.104173,9.79383,-0.465152,-0.138441,0.784833,-0.00689876,-0.00104926,0.0979378,1,3.8037e-05,-2.53303e-05,5.77751e-06,0.00760741,-0.00506606,0.0011555,0.99942,-0.00192971,0.0339916,0.000141106,0.545037,0.0841698,-0.716281,37,1,37395,30034770
39,1,0.999421,-0.00188698,0.0339817,0.000150473,-0.678438,-0.139909,9.788,-0.455788,-0.179549,0.779098,-0.00678657,-0.00140983,0.0978797,1,5.38882e-05,-1.13974e-05,1.39495e-05,0.0107776,-0.00227948,0.0027899,0.999421,-0.00188698,0.0339817,0.000150473,0.541337,0.0855389,-0.709162,37,1,37396,30034870
39,2,0.999421,-0.00188698,0.0339817,0.000150473,-0.678438,-0.139909,9.788,-0.455788,-0.179549,0.779098,-0.00678657,-0.00140983,0.0978797,1,5.38882e-05,-1.13974e-05,1.39495e-05,0.0107776,-0.00227948,0.0027899,0.999421,-0.00188698,0.0339817,0.000150473,0.541337,0.0855389,-0.709162,37,1,37396,30034870
39,3,0.999421,-0.00188698,0.0339817,0.000150473,-0.678438,-0.139909,9.788,-0.455788,-0.179549,0.779098,-0.00678657,-0.00140983,0.0978797,1,5.38882e-05,-1.13974e-05,1.39495e-05,0.0107776,-0.00227948,0.0027899,0.999421,-0.00188698,0.0339817,0.000150473,0.541337,0.0855389,-0.709162,37,1,37396,30034870
39,4,0.999421,-0.00183416,0.0339829,0.000159569,-0.663688,-0.0913825,9.79306,-0.436856,-0.137587,0.782729,-0.00663685,-0.000926032,0.0979304,1,6.181e-05,1.06393e-07,7.59444e-06,0.012362,2.12787e-05,0.00151889,0.999421,-0.00183416,0.0339829,0.000159569,0.540037,0.0835187,-0.704656,37,1,37397,30034970
39,5,0.999421,-0.00183416,0.0339829,0.000159569,-0.663688,-0.0913825,9.79306,-0.436856,-0.137587,0.782729,-0.00663685,-0.000926032,0.0979304,1,6.181e-05,1.06393e-07,7.59444e-06,0.012362,2.12787e-05,0.00151889,0.999421,-0.00183416,0.0339829,0.000159569,0.540037,0.0835187,-0.704656,37,1,37397,30034970
39,6,0.999421,-0.00183416,0.0339829,0.000159569,-0.663688,-0.0913825,9.79306,-0.436856,-0.137587,0.782729,-0.00663685,-0.000926032,0.0979304,1,6.181e-05,1.06393e-07,7.59444e-06,0.012362,2.12787e-05,0.00151889,0.999421,-0.00183416,0.0339829,0.000159569,0.540037,0.0835187,-0.704656,37,1,37397,30034970
39,7,0.999421,-0.00182034,0.0339769,0.000184913,-0.679357,-0.119713,9.78106,-0.455876,-0.1615,0.771735,-0.00679476,-0.00120185,0.0978105,1,2.24747e-05,-6.39628e-06,2.4056e-05,0.00449495,-0.00127926,0.00481121,0.999421,-0.00182034,0.0339769,0.000184913,0.541451,0.0816007,-0.70723,37,1,37398,30035070
39,8,0.999421,-0.00182034,0.0339769,0.000184913,-0.679357,-0.119713,9.78106,-0.455876,-0.1615,0.771735,-0.00679476,-0.00120185,0.0978105,1,2.24747e-05,-6.39628e-06,2.4056e-05,0.00449495,-0.00127926,0.00481121,0.999421,-0.00182034,0.0339769,0.000184913,0.541451,0.0816007,-0.70723,37,1,37398,30035070
40,1,0.999421,-0.00182034,0.0339769,0.000184913,-0.679357,-0.119713,9.78106,-0.455876,-0.1615,0.771735,-0.00679476,-0.00120185,0.0978105,1,2.24747e-05,-6.39628e-06,2.4056e-05,0.00449495,-0.00127926,0.00481121,0.999421,-0.00182034,0.0339769,0.000184913,0.541451,0.0816007,-0.70723,37,1,37398,30035070
40,2,0.999421,-0.00178844,0.0339687,0.000194874,-0.668575,-0.139856,9.79472,-0.444544,-0.186986,0.779816,-0.00668743,-0.00140717,0.097947,1,4.30122e-05,-8.79338e-06,1.35005e-05,0.00860245,-0.00175868,0.00270009,0.999421,-0.00178844,0.0339687,0.000194874,0.544682,0.0802266,-0.713841,37,1,37399,30035170
40,3,0.999421,-0.00178844,0.0339687,0.000194874,-0.668575,-0.139856,9.79472,-0.444544,-0.186986,0.779816,-0.00668743,-0.00140717,0.097947,1,4.30122e-05,-8.79338e-06,1.35005e-05,0.00860245,-0.00175868,0.00270009,0.999421,-0.00178844,0.0339687,0.000194874,0.544682,0.0802266,-0.713841,37,1,37399,30035170
40,4,0.999421,-0.00178844,0.0339687,0.000194874,-0.668575,-0.139856,9.79472,-0.444544,-0.186986,0.779816,-0.00668743,-0.00140717,0.097947,1,4.30122e-05,-8.79338e-06,1.35005e-05,0.00860245,-0.00175868,0.00270009,0.999421,-0.00178844,0.0339687,0.000194874,0.544682,0.0802266,-0.713841,37,1,37399,30035170
40,5,0.999421,-0.00174847,0.0339715,0.000182706,-0.673785,-0.135813,9.7897,-0.44903,-0.182236,0.776891,-0.00673759,-0.00136902,0.0978969,1,5.55255e-05,1.31709e-06,8.37852e-07,0.0111051,0.000263417,0.00016757,0.999421,-0.00174847,0.0339715,0.000182706,0.546003,0.08175,-0.717854,37,1,37400,30035270
40,6,0.999421,-0.00174847,0.0339715,0.000182706,-0.673785,-0.135813,9.7897,-0.44903,-0.182236,0.776891,-0.00673759,-0.00136902,0.0978969,1,5.55255e-05,1.31709e-06,8.37852e-07,0.0111051,0.000263417,0.00016757,0.999421,-0.00174847,0.0339715,0.000182706,0.546003,0.08175,-0.717854,37,1,37400,30035270
40,7,0.999421,-0.00174847,0.0339715,0.000182706,-0.673785,-0.135813,9.7897,-0.44903,-0.182236,0.776891,-0.00673759,-0.00136902,0.0978969,1,5.55255e-05,1.31709e-06,8.37852e-07,0.0111051,0.000263417,0.00016757,0.999421,-0.00174847,0.0339715,0.000182706,0.546003,0.08175,-0.717854,37,1,37400,30035270
40,8,0.999422,-0.00170162,0.0339607,0.000185151,-0.681333,-0.124872,9.78035,-0.456911,-0.169245,0.772534,-0.00681568,-0.00126154,0.0978032,1,6.42146e-05,-1.22473e-05,1.89766e-05,0.0128429,-0.00244946,0.00379533,0.999422,-0.00170162,0.0339607,0.000185151,0.545087,0.0841337,-0.714261,37,1,37401,30035370
41,1,0.999422,-0.00170162,0.0339607,0.000185151,-0.681333,-0.124872,9.78035,-0.456911,-0.169245,0.772534,-0.00681568,-0.00126154,0.0978032,1,6.42146e-05,-1.22473e-05,1.89766e-05,0.0128429,-0.00244946,0.00379533,0.999422,-0.00170162,0.0339607,0.000185151,0.545087,0.0841337,-0.714261,37,1,37401,30035370
41,2,0.999422,-0.00170162,0.0339607,0.000185151,-0.681333,-0.124872,9.78035,-0.456911,-0.169245,0.772534,-0.00681568,-0.00126154,0.0978032,1,6.42146e-05,-1.22473e-05,1.89766e-05,0.0128429,-0.00244946,0.00379533,0.999422,-0.00170162,0.0339607,0.000185151,0.545087,0.0841337,-0.714261,37,1,37401,30035370
41,3,0.999422,-0.00166521,0.0339485,0.000200983,-0.675349,-0.0716736,9.77805,-0.450966,-0.113579,0.769531,-0.00675618,-0.000726735,0.0977802,1,4.95836e-05,-1.3899e-05,2.23481e-05,0.00991671,-0.00277981,0.00446963,0.999422,-0.00166521,0.0339485,0.000200983,0.542303,0.0860096,-0.708651,37,1,37402,30035470
41,4,0.999422,-0.00166521,0.0339485,0.000200983,-0.675349,-0.0716736,9.77805,-0.450966,-0.113579,0.769531,-0.00675618,-0.000726735,0.0977802,1,4.95836e-05,-1.3899e-05,2.23481e-05,0.00991671,-0.00277981,0.00446963,0.999422,-0.00166521,0.0339485,0.000200983,0.542303,0.0860096,-0.708651,37,1,37402,30035470
41,5,0.999422,-0.00163882,0.033942,0.000221371,-0.689517,-0.118471,9.78691,-0.465634,-0.15973,0.777898,-0.00689659,-0.00119194,0.0978689,1,3.5841e-05,-7.47498e-06,1.56424e-05,0.00716821,-0.001495,0.00312847,0.999422,-0.00163882,0.033942,0.000221371,0.540033,0.0844852,-0.704129,37,1,37403,30035570
41,6,0.999422,-0.00163882,0.033942,0.000221371,-0.689517,-0.118471,9.78691,-0.465634,-0.15973,0.777898,-0.00689659,-0.00119194,0.0978689,1,3.5841e-05,-7.47498e-06,1.56424e-05,0.00716821,-0.001495,0.00312847,0.999422,-0.00163882,0.033942,0.000221371,0.540033,0.0844852,-0.704129,37,1,37403,30035570
41,7,0.999422,-0.00163882,0.033942,0.000221371,-0.689517,-0.118471,9.78691,-0.465634,-0.15973,0.777898,-0.00689659,-0.00119194,0.0978689,1,3.5841e-05,-7.47498e-06,1.56424e-05,0.00716821,-0.001495,0.00312847,0.999422,-0.00163882,0.033942,0.000221371,0.540033,0.0844852,-0.704129,37,1,37403,30035570
41,8,0.999423,-0.00160161,0.0339265,0.000240856,-0.685168,-0.128278,9.80409,-0.463347,-0.177489,0.791182,-0.00685488,-0.00129222,0.0980406,1,4.70803e-05,-1.65532e-05,1.51601e-05,0.00941605,-0.00331063,0.00303201,0.999423,-0.00160161,0.0339265,0.000240856,0.540945,0.0816227,-0.708237,37,1,37404,30035670
42,1,0.999423,-0.00160161,0.0339265,0.000240856,-0.685168,-0.128278,9.80409,-0.463347,-0.177489,0.791182,-0.00685488,-0.00129222,0.0980406,1,4.70803e-05,-1.65532e-05,1.51601e-05,0.00941605,-0.00331063,0.00303201,0.999423,-0.00160161,0.0339265,0.000240856,0.540945,0.0816227,-0.708237,37,1,37404,30035670
42,2,0.999423,-0.00160161,0.0339265,0.000240856,-0.685168,-0.128278,9.80409,-0.463347,-0.177489,0.791182,-0.00685488,-0.00129222,0.0980406,1,4.70803e-05,-1.65532e-05,1.51601e-05,0.00941605,-0.00331063,0.00303201,0.999423,-0.00160161,0.0339265,0.000240856,0.540945,0.0816227,-0.708237,37,1,37404,30035670
42,3,0.999423,-0.0015717,0.0339164,0.000247705,-0.677902,-0.116592,9.79024,-0.45661,-0.162773,0.77722,-0.00678119,-0.00117465,0.0979021,1,4.38522e-05,-1.12189e-05,1.06075e-05,0.00877044,-0.00224379,0.0021215,0.999423,-0.0015717,0.0339164,0.000247705,0.544189,0.0802396,-0.714344,37,1,37405,30035770
42,4,0.999423,-0.0015717,0.0339164,0.000247705,-0.677902,-0.116592,9.79024,-0.45661,-0.162773,0.77722,-0.00678119,-0.00117465,0.0979021,1,4.38522e-05,-1.12189e-05,1.06075e-05,0.00877044,-0.00224379,0.0021215,0.999423,-0.0015717,0.0339164,0.000247705,0.544189,0.0802396,-0.714344,37,1,37405,30035770
42,5,0.999423,-0.0015717,0.0339164,0.000247705,-0.677902,-0.116592,9.79024,-0.45661,-0.162773,0.77722,-0.00678119,-0.00117465,0.0979021,1,4.38522e-05,-1.12189e-05,1.06075e-05,0.00877044,-0.00224379,0.0021215,0.999423,-0.0015717,0.0339164,0.000247705,0.544189,0.0802396,-0.714344,37,1,37405,30035770
42,6,0.999424,-0.00154442,0.0339084,0.000238273,-0.674473,-0.13196,9.7877,-0.447522,-0.182552,0.773657,-0.00674661,-0.00132861,0.0978768,1,4.56348e-05,-9.64124e-06,5.45943e-06,0.00912695,-0.00192825,0.00109189,0.999424,-0.00154442,0.0339084,0.000238273,0.546027,0.0802867,-0.717887,37,1,37406,30035870
42,7,0.999424,-0.00154442,0.0339084,0.000238273,-0.674473,-0.13196,9.7877,-0.447522,-0.182552,0.773657,-0.00674661,-0.00132861,0.0978768,1,4.56348e-05,-9.64124e-06,5.45943e-06,0.00912695,-0.00192825,0.00109189,0.999424,-0.00154442,0.0339084,0.000238273,0.546027,0.0802867,-0.717887,37,1,37406,30035870
42,8,0.999424,-0.00154442,0.0339084,0.000238273,-0.674473,-0.13196,9.7877,-0.447522,-0.182552,0.773657,-0.00674661,-0.00132861,0.0978768,1,4.56348e-05,-9.64124e-06,5.45943e-06,0.00912695,-0.00192825,0.00109189,0.999424,-0.00154442,0.0339084,0.000238273,0.546027,0.0802867,-0.717887,37,1,37406,30035870
43,1,0.999424,-0.00151777,0.0338968,0.000234751,-0.675992,-0.127862,9.79624,-0.454521,-0.175981,0.787046,-0.00676255,-0.00128818,0.0979621,1,4.76187e-05,-1.36441e-05,1.70595e-05,0.00952373,-0.00272881,0.00341189,0.999424,-0.00151777,0.0338968,0.000234751,0.544197,0.0811971,-0.713312,37,1,37407,30035970
43,2,0.999424,-0.00151777,0.0338968,0.000234751,-0.675992,-0.127862,9.79624,-0.454521,-0.175981,0.787046,-0.00676255,-0.00128818,0.0979621,1,4.76187e-05,-1.36441e-05,1.70595e-05,0.00952373,-0.00272881,0.00341189,0.999424,-0.00151777,0.0338968,0.000234751,0.544197,0.0811971,-0.713312,37,1,37407,30035970
43,3,0.999424,-0.00151777,0.0338968,0.000234751,-0.675992,-0.127862,9.79624,-0.454521,-0.175981,0.787046,-0.00676255,-0.00128818,0.0979621,1,4.76187e-05,-1.36441e-05,1.70595e-05,0.00952373,-0.00272881,0.00341189,0.999424,-0.00151777,0.0338968,0.000234751,0.544197,0.0811971,-0.713312,37,1,37407,30035970
43,4,0.999425,-0.00147179,0.0338793,0.000236589,-0.686667,-0.134214,9.78777,-0.464905,-0.186236,0.777885,-0.00687047,-0.00135419,0.0978773,1,6.10686e-05,-1.95021e-05,6.89981e-06,0.0122137,-0.00390043,0.00137996,0.999425,-0.00147179,0.0338793,0.000236589,0.541431,0.0835427,-0.706682,37,1,37408,30036070
43,5,0.999425,-0.00147179,0.0338793,0.000236589,-0.686667,-0.134214,9.78777,-0.464905,-0.186236,0.777885,-0.00687047,-0.00135419,0.0978773,1,6.10686e-05,-1.95021e-05,6.89981e-06,0.0122137,-0.00390043,0.00137996,0.999425,-0.00147179,0.0338793,0.000236589,0.541431,0.0835427,-0.706682,37,1,37408,30036070
43,6,0.999425,-0.00147179,0.0338793,0.000236589,-0.686667,-0.134214,9.78777,-0.464905,-0.186236,0.777885,-0.00687047,-0.00135419,0.0978773,1,6.10686e-05,-1.95021e-05,6.89981e-06,0.0122137,-0.00390043,0.00137996,0.999425,-0.00147179,0.0338793,0.000236589,0.541431,0.0835427,-0.706682,37,1,37408,30036070
43,7,0.999425,-0.00141854,0.0338755,0.000240231,-0.689596,-0.111695,9.78323,-0.465435,-0.164507,0.774647,-0.0068971,-0.00112916,0.0978321,1,6.2894e-05,-5.72378e-06,-7.01517e-06,0.0125788,-0.00114476,-0.00140303,0.999425,-0.00141854,0.0338755,0.000240231,0.540559,0.0825211,-0.70367,37,1,37409,30036170
43,8,0.999425,-0.00141854,0.0338755,0.000240231,-0.689596,-0.111695,9.78323,-0.465435,-0.164507,0.774647,-0.0068971,-0.00112916,0.0978321,1,6.2894e-05,-5.72378e-06,-7.01517e-06,0.0125788,-0.00114476,-0.00140303,0.999425,-0.00141854,0.0338755,0.000240231,0.540559,0.0825211,-0.70367,37,1,37409,30036170
44,1,0.999425,-0.00141854,0.0338755,0.000240231,-0.689596,-0.111695,9.78323,-0.465435,-0.164507,0.774647,-0.0068971,-0.00112916,0.0978321,1,6.2894e-05,-5.72378e-06,-7.01517e-06,0.0125788,-0.00114476,-0.00140303,0.999425,-0.00141854,0.0338755,0.000240231,0.540559,0.0825211,-0.70367,37,1,37409,30036170
44,2,0.999426,-0.00140795,0.0338605,0.000258338,-0.673159,-0.112737,9.79397,-0.450332,-0.156297,0.784381,-0.00673481,-0.00113181,0.0979394,1,2.19848e-05,-1.65403e-05,1.03097e-05,0.00439696,-0.00330807,0.00206194,0.999426,-0.00140795,0.0338605,0.000258338,0.540509,0.0811119,-0.706731,37,1,37410,30036270
44,3,0.999426,-0.00140795,0.0338605,0.000258338,-0.673159,-0.112737,9.79397,-0.450332,-0.156297,0.784381,-0.00673481,-0.00113181,0.0979394,1,2.19848e-05,-1.65403e-05,1.03097e-05,0.00439696,-0.00330807,0.00206194,0.999426,-0.00140795,0.0338605,0.000258338,0.540509,0.0811119,-0.706731,37,1,37410,30036270
44,4,0.999426,-0.00140795,0.0338605,0.000258338,-0.673159,-0.112737,9.79397,-0.450332,-0.156297,0.784381,-0.00673481,-0.00113181,0.0979394,1,2.19848e-05,-1.65403e-05,1.03097e-05,0.00439696,-0.00330807,0.00206194,0.999426,-0.00140795,0.0338605,0.000258338,0.540509,0.0811119,-0.706731,37,1,37410,30036270
44,5,0.999426,-0.00137664,0.0338504,0.000260151,-0.670656,-0.132542,9.79344,-0.450041,-0.187528,0.779987,-0.0067088,-0.00133468,0.0979341,1,4.70393e-05,-1.14775e-05,3.56885e-06,0.00940785,-0.00229551,0.00071377,0.999426,-0.00137664,0.0338504,0.000260151,0.54372,0.0802346,-0.713837,37,1,37411,30036370
44,6,0.999426,-0.00137664,0.0338504,0.000260151,-0.670656,-0.132542,9.79344,-0.450041,-0.187528,0.779987,-0.0067088,-0.00133468,0.0979341,1,4.70393e-05,-1.14775e-05,3.56885e-06,0.00940785,-0.00229551,0.00071377,0.999426,-0.00137664,0.0338504,0.000260151,0.54372,0.0802346,-0.713837,37,1,37411,30036370
44,7,0.999426,-0.00137664,0.0338504,0.000260151,-0.670656,-0.132542,9.79344,-0.450041,-0.187528,0.779987,-0.0067088,-0.00133468,0.0979341,1,4.70393e-05,-1.14775e-05,3.56885e-06,0.00940785,-0.00229551,0.00071377,0.999426,-0.00137664,0.0338504,0.000260151,0.54372,0.0802346,-0.713837,37,1,37411,30036370
44,8,0.999426,-0.00134633,0.0338404,0.000250212,-0.694859,-0.0973902,9.77389,-0.470108,-0.155685,0.758954,-0.00695096,-0.000984317,0.0977387,1,5.27408e-05,-1.21946e-05,7.6293e-06,0.0105482,-0.00243892,0.00152586,0.999426,-0.00134633,0.0338404,0.000250212,0.545958,0.0822648,-0.719358,37,1,37412,30036470
45,1,0.999426,-0.00134633,0.0338404,0.000250212,-0.694859,-0.0973902,9.77389,-0.470108,-0.155685,0.758954,-0.00695096,-0.000984317,0.0977387,1,5.27408e-05,-1.21946e-05,7.6293e-06,0.0105482,-0.00243892,0.00152586,0.999426,-0.00134633,0.0338404,0.000250212,0.545958,0.0822648,-0.719358,37,1,37412,30036470
45,2,0.999426,-0.00134633,0.0338404,0.000250212,-0.694859,-0.0973902,9.77389,-0.470108,-0.155685,0.758954,-0.00695096,-0.000984317,0.0977387,1,5.27408e-05,-1.21946e-05,7.6293e-06,0.0105482,-0.00243892,0.00152586,0.999426,-0.00134633,0.0338404,0.000250212,0.545958,0.0822648,-0.719358,37,1,37412,30036470
45,3,0.999427,-0.00135311,0.0338193,0.00024205,-0.6936,-0.0940613,9.7936,-0.47591,-0.145085,0.780147,-0.00694077,-0.000945172,0.0979356,1,2.16625e-05,-2.45536e-05,2.27763e-05,0.00433249,-0.00491072,0.00455526,0.999427,-0.00135311,0.0338193,0.00024205,0.54454,0.0837041,-0.717299,37,1,37413,30036570
45,4,0.999427,-0.00135311,0.0338193,0.00024205,-0.6936,-0.0940613,9.7936,-0.47591,-0.145085,0.780147,-0.00694077,-0.000945172,0.0979356,1,2.16625e-05,-2.45536e-05,2.27763e-05,0.00433249,-0.00491072,0.00455526,0.999427,-0.00135311,0.0338193,0.00024205,0.54454,0.0837041,-0.717299,37,1,37413,30036570
45,5,0.999427,-0.00135311,0.0338193,0.00024205,-0.6936,-0.0940613,9.7936,-0.47591,-0.145085,0.780147,-0.00694077,-0.000945172,0.0979356,1,2.16625e-05,-2.45536e-05,2.27763e-05,0.00433249,-0.00491072,0.00455526,0.999427,-0.00135311,0.0338193,0.00024205,0.54454,0.0837041,-0.717299,37,1,37413,30036570
45,6,0.999427,-0.00131993,0.0338058,0.000233083,-0.635797,-0.101207,9.80196,-0.412944,-0.156073,0.789237,-0.00636115,-0.00102308,0.0980192,1,5.57918e-05,-1.63055e-05,5.11104e-06,0.0111584,-0.00326111,0.00102221,0.999427,-0.00131993,0.0338058,0.000233083,0.541855,0.0840626,-0.708692,37,1,37414,30036670
45,7,0.999427,-0.00131993,0.0338058,0.000233083,-0.635797,-0.101207,9.80196,-0.412944,-0.156073,0.789237,-0.00636115,-0.00102308,0.0980192,1,5.57918e-05,-1.63055e-05,5.11104e-06,0.0111584,-0.00326111,0.00102221,0.999427,-0.00131993,0.0338058,0.000233083,0.541855,0.0840626,-0.708692,37,1,37414,30036670
45,8,0.999427,-0.00131993,0.0338058,0.000233083,-0.635797,-0.101207,9.80196,-0.412944,-0.156073,0.789237,-0.00636115,-0.00102308,0.0980192,1,5.57918e-05,-1.63055e-05,5.11104e-06,0.0111584,-0.00326111,0.00102221,0.999427,-0.00131993,0.0338058,0.000233083,0.541855,0.0840626,-0.708692,37,1,37414,30036670
46,1,0.999427,-0.00129925,0.0338167,0.000238586,-0.647641,-0.117171,9.78933,-0.419335,-0.168726,0.777354,-0.0064746,-0.00117778,0.0978933,1,3.14993e-05,9.36538e-06,-7.31437e-06,0.00629986,0.00187308,-0.00146287,0.999427,-0.00129925,0.0338167,0.000238586,0.54053,0.0835057,-0.704153,37,1,37415,30036770
46,2,0.999427,-0.00129925,0.0338167,0.000238586,-0.647641,-0.117171,9.78933,-0.419335,-0.168726,0.777354,-0.0064746,-0.00117778,0.0978933,1,3.14993e-05,9.36538e-06,-7.31437e-06,0.00629986,0.00187308,-0.00146287,0.999427,-0.00129925,0.0338167,0.000238586,0.54053,0.0835057,-0.704153,37,1,37415,30036770
46,3,0.999427,-0.00129925,0.0338167,0.000238586,-0.647641,-0.117171,9.78933,-0.419335,-0.168726,0.777354,-0.0064746,-0.00117778,0.0978933,1,3.14993e-05,9.36538e-06,-7.31437e-06,0.00629986,0.00187308,-0.00146287,0.999427,-0.00129925,0.0338167,0.000238586,0.54053,0.0835057,-0.704153,37,1,37415,30036770
46,4,0.999427,-0.00125796,0.033814,0.000260403,-0.693798,-0.137757,9.7888,-0.471405,-0.195178,0.780541,-0.00693876,-0.00138832,0.0978878,1,5.39255e-05,-4.18156e-06,1.4249e-05,0.0107851,-0.000836313,0.00284981,0.999427,-0.00125796,0.033814,0.000260403,0.540505,0.0820784,-0.706205,37,1,37416,30036870
46,5,0.999427,-0.00125796,0.033814,0.000260403,-0.693798,-0.137757,9.7888,-0.471405,-0.195178,0.780541,-0.00693876,-0.00138832,0.0978878,1,5.39255e-05,-4.18156e-06,1.4249e-05,0.0107851,-0.000836313,0.00284981,0.999427,-0.00125796,0.033814,0.000260403,0.540505,0.0820784,-0.706205,37,1,37416,30036870
46,6,0.999427,-0.00125796,0.033814,0.000260403,-0.693798,-0.137757,9.7888,-0.471405,-0.195178,0.780541,-0.00693876,-0.00138832,0.0978878,1,5.39255e-05,-4.18156e-06,1.4249e-05,0.0107851,-0.000836313,0.00284981,0.999427,-0.00125796,0.033814,0.000260403,0.540505,0.0820784,-0.706205,37,1,37416,30036870
46,7,0.999427,-0.00123181,0.0338116,0.000256235,-0.673018,-0.110235,9.7811,-0.456535,-0.16718,0.766233,-0.00673098,-0.00111087,0.0978108,1,4.37796e-05,-4.09224e-06,-3.1069e-06,0.00875592,-0.000818448,-0.00062138,0.999427,-0.00123181,0.0338116,0.000256235,0.544736,0.0806693,-0.711306,37,1,37417,30036970
46,8,0.999427,-0.00123181,0.0338116,0.000256235,-0.673018,-0.110235,9.7811,-0.456535,-0.16718,0.766233,-0.00673098,-0.00111087,0.0978108,1,4.37796e-05,-4.09224e-06,-3.1069e-06,0.00875592,-0.000818448,-0.00062138,0.999427,-0.00123181,0.0338116,0.000256235,0.544736,0.0806693,-0.711306,37,1,37417,30036970
47,1,0.999427,-0.00123181,0.0338116,0.000256235,-0.673018,-0.110235,9.7811,-0.456535,-0.16718,0.766233,-0.00673098,-0.00111087,0.0978108,1,4.37796e-05,-4.09224e-06,-3.1069e-06,0.00875592,-0.000818448,-0.00062138,0.999427,-0.00123181,0.0338116,0.000256235,0.544736,0.0806693,-0.711306,37,1,37417,30036970
47,2,0.999427,-0.00119893,0.0338119,0.000243207,-0.666376,-0.122218,9.7996,-0.43956,-0.180994,0.786815,-0.0066641,-0.00123297,0.0979958,1,5.48605e-05,-1.77884e-06,2.70086e-06,0.0109721,-0.000355769,0.000540173,0.999427,-0.00119893,0.0338119,0.000243207,0.54701,0.0812272,-0.716355,37,1,37418,30037070
47,3,0.999427,-0.00119893,0.0338119,0.000243207,-0.666376,-0.122218,9.7996,-0.43956,-0.180994,0.786815,-0.0066641,-0.00123297,0.0979958,1,5.48605e-05,-1.77884e-06,2.70086e-06,0.0109721,-0.000355769,0.000540173,0.999427,-0.00119893,0.0338119,0.000243207,0.54701,0.0812272,-0.716355,37,1,37418,30037070
47,4,0.999427,-0.00119893,0.0338119,0.000243207,-0.666376,-0.122218,9.7996,-0.43956,-0.180994,0.786815,-0.0066641,-0.00123297,0.0979958,1,5.48605e-05,-1.77884e-06,2.70086e-06,0.0109721,-0.000355769,0.000540173,0.999427,-0.00119893,0.0338119,0.000243207,0.54701,0.0812272,-0.716355,37,1,37418,30037070
47,5,0.999428,-0.00118373,0.0338039,0.000222805,-0.676234,-0.105231,9.78931,-0.458185,-0.162582,0.779135,-0.00676444,-0.00106085,0.0978929,1,4.2977e-05,-1.08181e-05,9.45804e-06,0.0085954,-0.00216362,0.00189161,0.999428,-0.00118373,0.0338039,0.000222805,0.545123,0.0826614,-0.713789,37,1,37419,30037170
47,6,0.999428,-0.00118373,0.0338039,0.000222805,-0.676234,-0.105231,9.78931,-0.458185,-0.162582,0.779135,-0.00676444,-0.00106085,0.0978929,1,4.2977e-05,-1.08181e-05,9.45804e-06,0.0085954,-0.00216362,0.00189161,0.999428,-0.00118373,0.0338039,0.000222805,0.545123,0.0826614,-0.713789,37,1,37419,30037170
47,7,0.999428,-0.00118373,0.0338039,0.000222805,-0.676234,-0.105231,9.78931,-0.458185,-0.162582,0.779135,-0.00676444,-0.00106085,0.0978929,1,4.2977e-05,-1.08181e-05,9.45804e-06,0.0085954,-0.00216362,0.00189161,0.999428,-0.00118373,0.0338039,0.000222805,0.545123,0.0826614,-0.713789,37,1,37419,30037170
47,8,0.999428,-0.00116889,0.0337978,0.00020869,-0.669641,-0.145224,9.78688,-0.443076,-0.198401,0.771783,-0.00669808,-0.00145973,0.0978685,1,3.83612e-05,-8.51969e-06,-1.3111e-06,0.00767225,-0.00170394,-0.000262221,0.999428,-0.00116889,0.0337978,0.00020869,0.540909,0.0845403,-0.707667,37,1,37420,30037270
48,1,0.999428,-0.00116889,0.0337978,0.00020869,-0.669641,-0.145224,9.78688,-0.443076,-0.198401,0.771783,-0.00669808,-0.00145973,0.0978685,1,3.83612e-05,-8.51969e-06,-1.3111e-06,0.00767225,-0.00170394,-0.000262221,0.999428,-0.00116889,0.0337978,0.00020869,0.540909,0.0845403,-0.707667,37,1,37420,30037270
48,2,0.999428,-0.00116889,0.0337978,0.00020869,-0.669641,-0.145224,9.78688,-0.443076,-0.198401,0.771783,-0.00669808,-0.00145973,0.0978685,1,3.83612e-05,-8.51969e-06,-1.3111e-06,0.00767225,-0.00170394,-0.000262221,0.999428,-0.00116889,0.0337978,0.00020869,0.540909,0.0845403,-0.707667,37,1,37420,30037270
48,3,0.999428,-0.00110791,0.0337926,0.00023252,-0.6894,-0.122874,9.79908,-0.469379,-0.186417,0.787838,-0.00689541,-0.00124325,0.0979905,1,7.38148e-05,-7.25295e-06,3.02287e-06,0.014763,-0.00145059,0.000604573,0.999428,-0.00110791,0.0337926,0.00023252,0.540596,0.0839393,-0.701113,37,1,37421,30037370
48,4,0.999428,-0.00110791,0.0337926,0.00023252,-0.6894,-0.122874,9.79908,-0.469379,-0.186417,0.787838,-0.00689541,-0.00124325,0.0979905,1,7.38148e-05,-7.25295e-06,3.02287e-06,0.014763,-0.00145059,0.000604573,0.999428,-0.00110791,0.0337926,0.00023252,0.540596,0.0839393,-0.701113,37,1,37421,30037370
48,5,0.999428,-0.00110791,0.0337926,0.00023252,-0.6894,-0.122874,9.79908,-0.469379,-0.186417,0.787838,-0.00689541,-0.00124325,0.0979905,1,7.38148e-05,-7.25295e-06,3.02287e-06,0.014763,-0.00145059,0.000604573,0.999428,-0.00110791,0.0337926,0.00023252,0.540596,0.0839393,-0.701113,37,1,37421,30037370
48,6,0.999429,-0.0010769,0.0337717,0.000259526,-0.666427,-0.0920788,9.80191,-0.451464,-0.149309,0.790447,-0.00666869,-0.000929371,0.0980187,1,4.30177e-05,-2.26686e-05,1.12428e-05,0.00860354,-0.00453372,0.00224856,0.999429,-0.0010769,0.0337717,0.000259526,0.542939,0.0810739,-0.705733,37,1,37422,30037470
48,7,0.999429,-0.0010769,0.0337717,0.000259526,-0.666427,-0.0920788,9.80191,-0.451464,-0.149309,0.790447,-0.00666869,-0.000929371,0.0980187,1,4.30177e-05,-2.26686e-05,1.12428e-05,0.00860354,-0.00453372,0.00224856,0.999429,-0.0010769,0.0337717,0.000259526,0.542939,0.0810739,-0.705733,37,1,37422,30037470
48,8,0.999429,-0.0010769,0.0337717,0.000259526,-0.666427,-0.0920788,9.80191,-0.451464,-0.149309,0.790447,-0.00666869,-0.000929371,0.0980187,1,4.30177e-05,-2.26686e-05,1.12428e-05,0.00860354,-0.00453372,0.00224856,0.999429,-0.0010769,0.0337717,0.000259526,0.542939,0.0810739,-0.705733,37,1,37422,30037470
49,1,0.999429,-0.00106362,0.0337647,0.000258988,-0.662487,-0.145245,9.78649,-0.441633,-0.199419,0.767123,-0.00662648,-0.001459,0.0978647,1,3.31867e-05,-8.25155e-06,4.03457e-06,0.00663734,-0.00165031,0.000806913,0.999429,-0.00106362,0.0337647,0.000258988,0.545184,0.0797258,-0.71335,37,1,37423,30037570
49,2,0.999429,-0.00106362,0.0337647,0.000258988,-0.662487,-0.145245,9.78649,-0.441633,-0.199419,0.767123,-0.00662648,-0.001459,0.0978647,1,3.31867e-05,-8.25155e-06,4.03457e-06,0.00663734,-0.00165031,0.000806913,0.999429,-0.00106362,0.0337647,0.000258988,0.545184,0.0797258,-0.71335,37,1,37423,30037570
49,3,0.99943,-0.00102191,0.0337527,0.000244303,-0.687289,-0.132371,9.7861,-0.463695,-0.199226,0.77249,-0.00687568,-0.00133741,0.0978606,1,6.93499e-05,-1.43523e-05,9.04481e-06,0.01387,-0.00287046,0.00180896,0.99943,-0.00102191,0.0337527,0.000244303,0.545543,0.0827025,-0.716316,37,1,37424,30037670
49,4,0.99943,-0.00102191,0.0337527,0.000244303,-0.687289,-0.132371,9.7861,-0.463695,-0.199226,0.77249,-0.00687568,-0.00133741,0.0978606,1,6.93499e-05,-1.43523e-05,9.04481e-06,0.01387,-0.00287046,0.00180896,0.99943,-0.00102191,0.0337527,0.000244303,0.545543,0.0827025,-0.716316,37,1,37424,30037670
49,5,0.99943,-0.00102191,0.0337527,0.000244303,-0.687289,-0.132371,9.7861,-0.463695,-0.199226,0.77249,-0.00687568,-0.00133741,0.0978606,1,6.93499e-05,-1.43523e-05,9.04481e-06,0.01387,-0.00287046,0.00180896,0.99943,-0.00102191,0.0337527,0.000244303,0.545543,0.0827025,-0.716316,37,1,37424,30037670
49,6,0.99943,-0.00101121,0.0337597,0.00022883,-0.690357,-0.0974111,9.76673,-0.469369,-0.156476,0.756613,-0.00690293,-0.000982661,0.0976672,1,4.29004e-05,3.13454e-06,1.23533e-05,0.00858008,0.000626908,0.00247067,0.99943,-0.00101121,0.0337597,0.00022883,0.544132,0.083654,-0.714268,37,1,37425,30037770
49,7,0.99943,-0.00101121,0.0337597,0.00022883,-0.690357,-0.0974111,9.76673,-0.469369,-0.156476,0.756613,-0.00690293,-0.000982661,0.0976672,1,4.29004e-05,3.13454e-06,1.23533e-05,0.00858008,0.000626908,0.00247067,0.99943,-0.00101121,0.0337597,0.00022883,0.544132,0.083654,-0.714268,37,1,37425,30037770
49,8,0.99943,-0.00101121,0.0337597,0.00022883,-0.690357,-0.0974111,9.76673,-0.469369,-0.156476,0.756613,-0.00690293,-0.000982661,0.0976672,1,4.29004e-05,3.13454e-06,1.23533e-05,0.00858008,0.000626908,0.00247067,0.99943,-0.00101121,0.0337597,0.00022883,0.544132,0.083654,-0.714268,37,1,37425,30037770
50,1,0.99943,-0.000992652,0.0337443,0.000222882,-0.705701,-0.124696,9.79713,-0.487542,-0.18737,0.783407,-0.00706063,-0.00125594,0.097971,1,4.54802e-05,-1.85443e-05,4.67364e-06,0.00909605,-0.00370887,0.000934728,0.99943,-0.000992652,0.0337443,0.000222882,0.540917,0.0840525,-0.707678,37,1,37426,30037870
50,2,0.99943,-0.000992652,0.0337443,0.000222882,-0.705701,-0.124696,9.79713,-0.487542,-0.18737,0.783407,-0.00706063,-0.00125594,0.097971,1,4.54802e-05,-1.85443e-05,4.67364e-06,0.00909605,-0.00370887,0.000934728,0.99943,-0.000992652,0.0337443,0.000222882,0.540917,0.0840525,-0.707678,37,1,37426,30037870
50,3,0.99943,-0.000992652,0.0337443,0.000222882,-0.705701,-0.124696,9.79713,-0.487542,-0.18737,0.783407,-0.00706063,-0.00125594,0.097971,1,4.54802e-05,-1.85443e-05,4.67364e-06,0.00909605,-0.00370887,0.000934728,0.99943,-0.000992652,0.0337443,0.000222882,0.540917,0.0840525,-0.707678,37,1,37426,30037870
50,4,0.99943,-0.000969513,0.0337325,0.000265856,-0.672372,-0.12108,9.80271,-0.456287,-0.183192,0.796823,-0.00672651,-0.00121839,0.0980268,1,3.72697e-05,-1.44595e-05,2.04464e-05,0.00745393,-0.0028919,0.00408928,0.99943,-0.000969513,0.0337325,0.000265856,0.53958,0.0835046,-0.703644,37,1,37427,30037970
50,5,0.99943,-0.000969513,0.0337325,0.000265856,-0.672372,-0.12108,9.80271,-0.456287,-0.183192,0.796823,-0.00672651,-0.00121839,0.0980268,1,3.72697e-05,-1.44595e-05,2.04464e-05,0.00745393,-0.0028919,0.00408928,0.99943,-0.000969513,0.0337325,0.000265856,0.53958,0.0835046,-0.703644,37,1,37427,30037970
50,6,0.99943,-0.000969513,0.0337325,0.000265856,-0.672372,-0.12108,9.80271,-0.456287,-0.183192,0.796823,-0.00672651,-0.00121839,0.0980268,1,3.72697e-05,-1.44595e-05,2.04464e-05,0.00745393,-0.0028919,0.00408928,0.99943,-0.000969513,0.0337325,0.000265856,0.53958,0.0835046,-0.703644,37,1,37427,30037970
50,7,0.99943,-0.000913397,0.0337504,0.000285199,-0.697514,-0.136802,9.77661,-0.471123,-0.204134,0.765355,-0.00697203,-0.00138212,0.0977662,1,7.18571e-05,1.58476e-05,3.60597e-06,0.0143714,0.00316952,0.000721194,0.99943,-0.000913397,0.0337504,0.000285199,0.540004,0.0825792,-0.706697,37,1,37428,30038070
50,8,0.99943,-0.000913397,0.0337504,0.000285199,-0.697514,-0.136802,9.77661,-0.471123,-0.204134,0.765355,-0.00697203,-0.00138212,0.0977662,1,7.18571e-05,1.58476e-05,3.60597e-06,0.0143714,0.00316952,0.000721194,0.99943,-0.000913397,0.0337504,0.000285199,0.540004,0.0825792,-0.706697,37,1,37428,30038070
51,1,0.99943,-0.000913397,0.0337504,0.000285199,-0.697514,-0.136802,9.77661,-0.471123,-0.204134,0.765355,-0.00697203,-0.00138212,0.0977662,1,7.18571e-05,1.58476e-05,3.60597e-06,0.0143714,0.00316952,0.000721194,0.99943,-0.000913397,0.0337504,0.000285199,0.540004,0.0825792,-0.706697,37,1,37428,30038070
51,2,0.99943,-0.000861775,0.0337463,0.000289254,-0.740171,-0.109255,9.78666,-0.521968,-0.169946,0.771043,-0.00740302,-0.00110716,0.0978663,1,7.42544e-05,-6.74681e-06,5.08229e-06,0.0148509,-0.00134936,0.00101646,0.99943,-0.000861775,0.0337463,0.000289254,0.543692,0.0812191,-0.71432,37,1,37429,30038170
51,3,0.99943,-0.000861775,0.0337463,0.000289254,-0.740171,-0.109255,9.78666,-0.521968,-0.169946,0.771043,-0.00740302,-0.00110716,0.0978663,1,7.42544e-05,-6.74681e-06,5.08229e-06,0.0148509,-0.00134936,0.00101646,0.99943,-0.000861775,0.0337463,0.000289254,0.543692,0.0812191,-0.71432,37,1,37429,30038170
51,4,0.99943,-0.000861775,0.0337463,0.000289254,-0.740171,-0.109255,9.78666,-0.521968,-0.169946,0.771043,-0.00740302,-0.00110716,0.0978663,1,7.42544e-05,-6.74681e-06,5.08229e-06,0.0148509,-0.00134936,0.00101646,0.99943,-0.000861775,0.0337463,0.000289254,0.543692,0.0812191,-0.71432,37,1,37429,30038170
51,5,0.999431,-0.000847641,0.0337185,0.000269377,-0.661718,-0.0974649,9.81608,-0.45369,-0.162032,0.795269,-0.00662348,-0.000983542,0.0981603,1,4.49697e-05,-3.20935e-05,4.87832e-06,0.00899395,-0.0064187,0.000975665,0.999431,-0.000847641,0.0337185,0.000269377,0.546023,0.0812532,-0.71736,37,1,37430,30038270
51,6,0.999431,-0.000847641,0.0337185,0.000269377,-0.661718,-0.0974649,9.81608,-0.45369,-0.162032,0.795269,-0.00662348,-0.000983542,0.0981603,1,4.49697e-05,-3.20935e-05,4.87832e-06,0.00899395,-0.0064187,0.000975665,0.999431,-0.000847641,0.0337185,0.000269377,0.546023,0.0812532,-0.71736,37,1,37430,30038270
51,7,0.999431,-0.000847641,0.0337185,0.000269377,-0.661718,-0.0974649,9.81608,-0.45369,-0.162032,0.795269,-0.00662348,-0.000983542,0.0981603,1,4.49697e-05,-3.20935e-05,4.87832e-06,0.00899395,-0.0064187,0.000975665,0.999431,-0.000847641,0.0337185,0.000269377,0.546023,0.0812532,-0.71736,37,1,37430,30038270
51,8,0.999431,-0.000844643,0.0337271,0.000227349,-0.625776,-0.108011,9.79911,-0.3977,-0.169921,0.780228,-0.0062571,-0.00108771,0.097991,1,3.89051e-05,3.38817e-06,-1.50671e-06,0.00778102,0.000677635,-0.000301343,0.999431,-0.000844643,0.0337271,0.000227349,0.544161,0.0826694,-0.713785,37,1,37431,30038370
52,1,0.999431,-0.000844643,0.0337271,0.000227349,-0.625776,-0.108011,9.79911,-0.3977,-0.169921,0.780228,-0.0062571,-0.00108771,0.097991,1,3.89051e-05,3.38817e-06,-1.50671e-06,0.00778102,0.000677635,-0.000301343,0.999431,-0.000844643,0.0337271,0.000227349,0.544161,0.0826694,-0.713785,37,1,37431,30038370
52,2,0.999431,-0.000844643,0.0337271,0.000227349,-0.625776,-0.108011,9.79911,-0.3977,-0.169921,0.780228,-0.0062571,-0.00108771,0.097991,1,3.89051e-05,3.38817e-06,-1.50671e-06,0.00778102,0.000677635,-0.000301343,0.999431,-0.000844643,0.0337271,0.000227349,0.544161,0.0826694,-0.713785,37,1,37431,30038370
52,3,0.99943,-0.000828037,0.0337473,0.000209143,-0.736498,-0.127674,9.75016,-0.513971,-0.191358,0.744978,-0.0073618,-0.00128529,0.0975017,1,4.42229e-05,1.63598e-05,-4.97907e-06,0.00884457,0.00327196,-0.000995814,0.99943,-0.000828037,0.0337473,0.000209143,0.541357,0.0850421,-0.708668,37,1,37432,30038470
52,4,0.99943,-0.000828037,0.0337473,0.000209143,-0.736498,-0.127674,9.75016,-0.513971,-0.191358,0.744978,-0.0073618,-0.00128529,0.0975017,1,4.42229e-05,1.63598e-05,-4.97907e-06,0.00884457,0.00327196,-0.000995814,0.99943,-0.000828037,0.0337473,0.000209143,0.541357,0.0850421,-0.708668,37,1,37432,30038470
52,5,0.99943,-0.000828037,0.0337473,0.000209143,-0.736498,-0.127674,9.75016,-0.513971,-0.191358,0.744978,-0.0073618,-0.00128529,0.0975017,1,4.42229e-05,1.63598e-05,-4.97907e-06,0.00884457,0.00327196,-0.000995814,0.99943,-0.000828037,0.0337473,0.000209143,0.541357,0.0850421,-0.708668,37,1,37432,30038470
52,6,0.999431,-0.000770085,0.0337327,0.000238341,-0.752407,-0.121403,9.76425,-0.542851,-0.189088,0.753279,-0.00752752,-0.00122887,0.0976421,1,7.52471e-05,-1.77886e-05,9.93859e-06,0.0150494,-0.00355771,0.00198772,0.999431,-0.000770085,0.0337327,0.000238341,0.540094,0.0829948,-0.702647,37,1,37433,30038570
52,7,0.999431,-0.000770085,0.0337327,0.000238341,-0.752407,-0.121403,9.76425,-0.542851,-0.189088,0.753279,-0.00752752,-0.00122887,0.0976421,1,7.52471e-05,-1.77886e-05,9.93859e-06,0.0150494,-0.00355771,0.00198772,0.999431,-0.000770085,0.0337327,0.000238341,0.540094,0.0829948,-0.702647,37,1,37433,30038570
52,8,0.999431,-0.000770085,0.0337327,0.000238341,-0.752407,-0.121403,9.76425,-0.542851,-0.189088,0.753279,-0.00752752,-0.00122887,0.0976421,1,7.52471e-05,-1.77886e-05,9.93859e-06,0.0150494,-0.00355771,0.00198772,0.999431,-0.000770085,0.0337327,0.000238341,0.540094,0.0829948,-0.702647,37,1,37433,30038570
53,1,0.999432,-0.000747431,0.0337022,0.00027038,-0.665622,-0.085828,9.82061,-0.456236,-0.15245,0.800635,-0.0066627,-0.000865722,0.0982056,1,3.72063e-05,-3.30732e-05,1.00469e-05,0.00744127,-0.00661464,0.00200938,0.999432,-0.000747431,0.0337022,0.00027038,0.540098,0.080583,-0.704216,37,1,37434,30038670
53,2,0.999432,-0.000747431,0.0337022,0.00027038,-0.665622,-0.085828,9.82061,-0.456236,-0.15245,0.800635,-0.0066627,-0.000865722,0.0982056,1,3.72063e-05,-3.30732e-05,1.00469e-05,0.00744127,-0.00661464,0.00200938,0.999432,-0.000747431,0.0337022,0.00027038,0.540098,0.080583,-0.704216,37,1,37434,30038670
53,3,0.999432,-0.000747431,0.0337022,0.00027038,-0.665622,-0.085828,9.82061,-0.456236,-0.15245,0.800635,-0.0066627,-0.000865722,0.0982056,1,3.72063e-05,-3.30732e-05,1.00469e-05,0.00744127,-0.00661464,0.00200938,0.999432,-0.000747431,0.0337022,0.00027038,0.540098,0.080583,-0.704216,37,1,37434,30038670
53,4,0.999431,-0.000742945,0.033705,0.000284309,-0.659057,-0.110818,9.80032,-0.436037,-0.176101,0.788857,-0.00659038,-0.0011134,0.0980031,1,2.59298e-05,8.2527e-07,1.04179e-05,0.00518596,0.000165054,0.00208358,0.999431,-0.000742945,0.033705,0.000284309,0.544218,0.0807003,-0.712819,37,1,37435,30038770
53,5,0.999431,-0.000742945,0.033705,0.000284309,-0.659057,-0.110818,9.80032,-0.436037,-0.176101,0.788857,-0.00659038,-0.0011134,0.0980031,1,2.59298e-05,8.2527e-07,1.04179e-05,0.00518596,0.000165054,0.00208358,0.999431,-0.000742945,0.033705,0.000284309,0.544218,0.0807003,-0.712819,37,1,37435,30038770
53,6,0.999431,-0.000742945,0.033705,0.000284309,-0.659057,-0.110818,9.80032,-0.436037,-0.176101,0.788857,-0.00659038,-0.0011134,0.0980031,1,2.59298e-05,8.2527e-07,1.04179e-05,0.00518596,0.000165054,0.00208358,0.999431,-0.000742945,0.033705,0.000284309,0.544218,0.0807003,-0.712819,37,1,37435,30038770
53,7,0.999431,-0.000751911,0.0337066,0.000261224,-0.722454,-0.136519,9.77239,-0.503327,-0.201591,0.760222,-0.00722523,-0.00136957,0.0977238,1,2.24356e-05,-3.50537e-06,-5.55196e-07,0.00448712,-0.000701074,-0.000111039,0.999431,-0.000751911,0.0337066,0.000261224,0.546023,0.0812532,-0.71736,37,1,37436,30038870
53,8,0.999431,-0.000751911,0.0337066,0.000261224,-0.722454,-0.136519,9.77239,-0.503327,-0.201591,0.760222,-0.00722523,-0.00136957,0.0977238,1,2.24356e-05,-3.50537e-06,-5.55196e-07,0.00448712,-0.000701074,-0.000111039,0.999431,-0.000751911,0.0337066,0.000261224,0.546023,0.0812532,-0.71736,37,1,37436,30038870
54,1,0.999431,-0.000751911,0.0337066,0.000261224,-0.722454,-0.136519,9.77239,-0.503327,-0.201591,0.760222,-0.00722523,-0.00136957,0.0977238,1,2.24356e-05,-3.50537e-06,-5.55196e-07,0.00448712,-0.000701074,-0.000111039,0.999431,-0.000751911,0.0337066,0.000261224,0.546023,0.0812532,-0.71736,37,1,37436,30038870
54,2,0.999433,-0.000724628,0.033663,0.000222285,-0.665423,-0.139108,9.79101,-0.452519,-0.214073,0.779758,-0.00666405,-0.00140404,0.0979093,1,6.59546e-05,-5.01849e-05,3.31002e-06,0.0131909,-0.010037,0.000662004,0.999433,-0.000724628,0.033663,0.000222285,0.544605,0.0826925,-0.715301,37,1,37437,30038970
54,3,0.999433,-0.000724628,0.033663,0.000222285,-0.665423,-0.139108,9.79101,-0.452519,-0.214073,0.779758,-0.00666405,-0.00140404,0.0979093,1,6.59546e-05,-5.01849e-05,3.31002e-06,0.0131909,-0.010037,0.000662004,0.999433,-0.000724628,0.033663,0.000222285,0.544605,0.0826925,-0.715301,37,1,37437,30038970
54,4,0.999433,-0.000724628,0.033663,0.000222285,-0.665423,-0.139108,9.79101,-0.452519,-0.214073,0.779758,-0.00666405,-0.00140404,0.0979093,1,6.59546e-05,-5.01849e-05,3.31002e-06,0.0131909,-0.010037,0.000662004,0.999433,-0.000724628,0.033663,0.000222285,0.544605,0.0826925,-0.715301,37,1,37437,30038970
54,5,0.999433,-0.000702713,0.0336714,0.000194082,-0.628772,-0.0403417,9.80207,-0.401918,-0.106362,0.783116,-0.00628719,-0.000414232,0.0980207,1,5.55889e-05,2.71036e-06,-6.57246e-06,0.0111178,0.000542072,-0.00131449,0.999433,-0.000702713,0.0336714,0.000194082,0.541846,0.0831051,-0.709724,37,1,37438,30039070
54,6,0.999433,-0.000702713,0.0336714,0.000194082,-0.628772,-0.0403417,9.80207,-0.401918,-0.106362,0.783116,-0.00628719,-0.000414232,0.0980207,1,5.55889e-05,2.71036e-06,-6.57246e-06,0.0111178,0.000542072,-0.00131449,0.999433,-0.000702713,0.0336714,0.000194082,0.541846,0.0831051,-0.709724,37,1,37438,30039070
54,7,0.999433,-0.000702713,0.0336714,0.000194082,-0.628772,-0.0403417,9.80207,-0.401918,-0.106362,0.783116,-0.00628719,-0.000414232,0.0980207,1,5.55889e-05,2.71036e-06,-6.57246e-06,0.0111178,0.000542072,-0.00131449,0.999433,-0.000702713,0.0336714,0.000194082,0.541846,0.0831051,-0.709724,37,1,37438,30039070
54,8,0.999433,-0.000719088,0.0336659,0.000217798,-0.714549,-0.163054,9.79382,-0.495378,-0.216298,0.786393,-0.00714727,-0.00163129,0.0979381,1,3.54268e-06,-9.17543e-06,4.37544e-06,0.000708536,-0.00183509,0.000875087,0.999433,-0.000719088,0.0336659,0.000217798,0.540526,0.0830269,-0.704669,37,1,37439,30039170
55,1,0.999433,-0.000719088,0.0336659,0.000217798,-0.714549,-0.163054,9.79382,-0.495378,-0.216298,0.786393,-0.00714727,-0.00163129,0.0979381,1,3.54268e-06,-9.17543e-06,4.37544e-06,0.000708536,-0.00183509,0.000875087,0.999433,-0.000719088,0.0336659,0.000217798,0.540526,0.0830269,-0.704669,37,1,37439,30039170
55,2,0.999433,-0.000719088,0.0336659,0.000217798,-0.714549,-0.163054,9.79382,-0.495378,-0.216298,0.786393,-0.00714727,-0.00163129,0.0979381,1,3.54268e-06,-9.17543e-06,4.37544e-06,0.000708536,-0.00183509,0.000875087,0.999433,-0.000719088,0.0336659,0.000217798,0.540526,0.0830269,-0.704669,37,1,37439,30039170
55,3,0.999434,-0.000644991,0.033648,0.000243743,-0.704972,-0.181371,9.76987,-0.499007,-0.262738,0.765059,-0.0070539,-0.00183163,0.097698,1,9.13833e-05,-2.14741e-05,4.6995e-06,0.0182767,-0.00429483,0.0009399,0.999434,-0.000644991,0.033648,0.000243743,0.542903,0.0825462,-0.706206,37,1,37440,30039270
55,4,0.999434,-0.000644991,0.033648,0.000243743,-0.704972,-0.181371,9.76987,-0.499007,-0.262738,0.765059,-0.0070539,-0.00183163,0.097698,1,9.13833e-05,-2.14741e-05,4.6995e-06,0.0182767,-0.00429483,0.0009399,0.999434,-0.000644991,0.033648,0.000243743,0.542903,0.0825462,-0.706206,37,1,37440,30039270
55,5,0.999434,-0.000644991,0.033648,0.000243743,-0.704972,-0.181371,9.76987,-0.499007,-0.262738,0.765059,-0.0070539,-0.00183163,0.097698,1,9.13833e-05,-2.14741e-05,4.6995e-06,0.0182767,-0.00429483,0.0009399,0.999434,-0.000644991,0.033648,0.000243743,0.542903,0.0825462,-0.706206,37,1,37440,30039270
55,6,0.999434,-0.000617484,0.03363,0.000251259,-0.654326,-0.119464,9.78769,-0.449232,-0.195828,0.768861,-0.00654766,-0.00120487,0.0978764,1,5.1789e-05,-2.25698e-05,6.97519e-06,0.0103578,-0.00451396,0.00139504,0.999434,-0.000617484,0.03363,0.000251259,0.546212,0.0801514,-0.710315,37,1,37441,30039370
55,7,0.999434,-0.000617484,0.03363,0.000251259,-0.654326,-0.119464,9.78769,-0.449232,-0.195828,0.768861,-0.00654766,-0.00120487,0.0978764,1,5.1789e-05,-2.25698e-05,6.97519e-06,0.0103578,-0.00451396,0.00139504,0.999434,-0.000617484,0.03363,0.000251259,0.546212,0.0801514,-0.710315,37,1,37441,30039370
55,8,0.999434,-0.000617484,0.03363,0.000251259,-0.654326,-0.119464,9.78769,-0.449232,-0.195828,0.768861,-0.00654766,-0.00120487,0.0978764,1,5.1789e-05,-2.25698e-05,6.97519e-06,0.0103578,-0.00451396,0.00139504,0.999434,-0.000617484,0.03363,0.000251259,0.546212,0.0801514,-0.710315,37,1,37441,30039370
56,1,0.999435,-0.000571055,0.0336098,0.000233416,-0.619723,-0.0943336,9.81514,-0.397318,-0.170163,0.797957,-0.00620213,-0.000958345,0.0981509,1,7.61207e-05,-2.50078e-05,5.391e-06,0.0152241,-0.00500157,0.0010782,0.999435,-0.000571055,0.0336098,0.000233416,0.546085,0.0812081,-0.714836,37,1,37442,30039470
56,2,0.999435,-0.000571055,0.0336098,0.000233416,-0.619723,-0.0943336,9.81514,-0.397318,-0.170163,0.797957,-0.00620213,-0.000958345,0.0981509,1,7.61207e-05,-2.50078e-05,5.391e-06,0.0152241,-0.00500157,0.0010782,0.999435,-0.000571055,0.0336098,0.000233416,0.546085,0.0812081,-0.714836,37,1,37442,30039470
56,3,0.999435,-0.000571055,0.0336098,0.000233416,-0.619723,-0.0943336,9.81514,-0.397318,-0.170163,0.797957,-0.00620213,-0.000958345,0.0981509,1,7.61207e-05,-2.50078e-05,5.391e-06,0.0152241,-0.00500157,0.0010782,0.999435,-0.000571055,0.0336098,0.000233416,0.546085,0.0812081,-0.714836,37,1,37442,30039470
56,4,0.999435,-0.000561357,0.0336192,0.000212894,-0.666236,-0.0154861,9.79678,-0.445068,-0.0772555,0.778844,-0.0066617,-0.000164277,0.0979679,1,4.70952e-05,3.31327e-06,1.41132e-05,0.00941904,0.000662653,0.00282264,0.999435,-0.000561357,0.0336192,0.000212894,0.543688,0.0821856,-0.713793,37,1,37443,30039570
56,5,0.999435,-0.000561357,0.0336192,0.000212894,-0.666236,-0.0154861,9.79678,-0.445068,-0.0772555,0.778844,-0.0066617,-0.000164277,0.0979679,1,4.70952e-05,3.31327e-06,1.41132e-05,0.00941904,0.000662653,0.00282264,0.999435,-0.000561357,0.0336192,0.000212894,0.543688,0.0821856,-0.713793,37,1,37443,30039570
56,6,0.999435,-0.000561357,0.0336192,0.000212894,-0.666236,-0.0154861,9.79678,-0.445068,-0.0772555,0.778844,-0.0066617,-0.000164277,0.0979679,1,4.70952e-05,3.31327e-06,1.41132e-05,0.00941904,0.000662653,0.00282264,0.999435,-0.000561357,0.0336192,0.000212894,0.543688,0.0821856,-0.713793,37,1,37443,30039570
56,7,0.999435,-0.000590693,0.0336033,0.000214558,-0.654077,-0.138297,9.76073,-0.437663,-0.197486,0.745286,-0.00654487,-0.00138397,0.097607,1,4.40888e-06,-2.1126e-05,1.04924e-05,0.000881776,-0.00422519,0.00209848,0.999435,-0.000590693,0.0336033,0.000214558,0.539482,0.0835768,-0.707682,37,1,37444,30039670
56,8,0.999435,-0.000590693,0.0336033,0.000214558,-0.654077,-0.138297,9.76073,-0.437663,-0.197486,0.745286,-0.00654487,-0.00138397,0.097607,1,4.40888e-06,-2.1126e-05,1.04924e-05,0.000881776,-0.00422519,0.00209848,0.999435,-0.000590693,0.0336033,0.000214558,0.539482,0.0835768,-0.707682,37,1,37444,30039670
57,1,0.999435,-0.000590693,0.0336033,0.000214558,-0.654077,-0.138297,9.76073,-0.437663,-0.197486,0.745286,-0.00654487,-0.00138397,0.097607,1,4.40888e-06,-2.1126e-05,1.04924e-05,0.000881776,-0.00422519,0.00209848,0.999435,-0.000590693,0.0336033,0.000214558,0.539482,0.0835768,-0.707682,37,1,37444,30039670
57,2,0.999436,-0.000524462,0.0335853,0.000258843,-0.687734,-0.140704,9.76636,-0.474548,-0.220735,0.749528,-0.00688141,-0.00142375,0.0976631,1,8.55457e-05,-2.08355e-05,3.39236e-08,0.0171091,-0.00416709,6.78472e-06,0.999436,-0.000524462,0.0335853,0.000258843,0.540082,0.0830038,-0.703152,37,1,37445,30039770
57,3,0.999436,-0.000524462,0.0335853,0.000258843,-0.687734,-0.140704,9.76636,-0.474548,-0.220735,0.749528,-0.00688141,-0.00142375,0.0976631,1,8.55457e-05,-2.08355e-05,3.39236e-08,0.0171091,-0.00416709,6.78472e-06,0.999436,-0.000524462,0.0335853,0.000258843,0.540082,0.0830038,-0.703152,37,1,37445,30039770
57,4,0.999436,-0.000524462,0.0335853,0.000258843,-0.687734,-0.140704,9.76636,-0.474548,-0.220735,0.749528,-0.00688141,-0.00142375,0.0976631,1,8.55457e-05,-2.08355e-05,3.39236e-08,0.0171091,-0.00416709,6.78472e-06,0.999436,-0.000524462,0.0335853,0.000258843,0.540082,0.0830038,-0.703152,37,1,37445,30039770
57,5,0.999436,-0.000506376,0.0335704,0.000309045,-0.682146,-0.108605,9.80832,-0.464483,-0.177616,0.798976,-0.00682483,-0.00109327,0.0980829,1,3.53792e-05,-1.73971e-05,2.05782e-05,0.00707585,-0.00347942,0.00411565,0.999436,-0.000506376,0.0335704,0.000309045,0.542931,0.0815616,-0.705723,37,1,37446,30039870
57,6,0.999436,-0.000506376,0.0335704,0.000309045,-0.682146,-0.108605,9.80832,-0.464483,-0.177616,0.798976,-0.00682483,-0.00109327,0.0980829,1,3.53792e-05,-1.73971e-05,2.05782e-05,0.00707585,-0.00347942,0.00411565,0.999436,-0.000506376,0.0335704,0.000309045,0.542931,0.0815616,-0.705723,37,1,37446,30039870
57,7,0.999436,-0.000506376,0.0335704,0.000309045,-0.682146,-0.108605,9.80832,-0.464483,-0.177616,0.798976,-0.00682483,-0.00109327,0.0980829,1,3.53792e-05,-1.73971e-05,2.05782e-05,0.00707585,-0.00347942,0.00411565,0.999436,-0.000506376,0.0335704,0.000309045,0.542931,0.0815616,-0.705723,37,1,37446,30039870
57,8,0.999437,-0.000486561,0.033546,0.000320623,-0.639183,-0.132619,9.80172,-0.440216,-0.204827,0.780052,-0.00639727,-0.00133505,0.0980167,1,4.46084e-05,-2.79174e-05,9.65831e-06,0.00892168,-0.00558348,0.00193166,0.999437,-0.000486561,0.033546,0.000320623,0.544711,0.0806873,-0.712316,37,1,37447,30039970
58,1,0.999437,-0.000486561,0.033546,0.000320623,-0.639183,-0.132619,9.80172,-0.440216,-0.204827,0.780052,-0.00639727,-0.00133505,0.0980167,1,4.46084e-05,-2.79174e-05,9.65831e-06,0.00892168,-0.00558348,0.00193166,0.999437,-0.000486561,0.033546,0.000320623,0.544711,0.0806873,-0.712316,37,1,37447,30039970
58,2,0.999437,-0.000486561,0.033546,0.000320623,-0.639183,-0.132619,9.80172,-0.440216,-0.204827,0.780052,-0.00639727,-0.00133505,0.0980167,1,4.46084e-05,-2.79174e-05,9.65831e-06,0.00892168,-0.00558348,0.00193166,0.999437,-0.000486561,0.033546,0.000320623,0.544711,0.0806873,-0.712316,37,1,37447,30039970
58,3,0.999437,-0.000486363,0.0335517,0.000312895,-0.665872,-0.0945724,9.75676,-0.453267,-0.162658,0.740798,-0.0066585,-0.000952756,0.0975676,1,3.47198e-05,9.30817e-07,1.92317e-05,0.00694395,0.000186163,0.00384634,0.999437,-0.000486363,0.0335517,0.000312895,0.545534,0.081745,-0.717347,37,1,37448,30040070
58,4,0.999437,-0.000486363,0.0335517,0.000312895,-0.665872,-0.0945724,9.75676,-0.453267,-0.162658,0.740798,-0.0066585,-0.000952756,0.0975676,1,3.47198e-05,9.30817e-07,1.92317e-05,0.00694395,0.000186163,0.00384634,0.999437,-0.000486363,0.0335517,0.000312895,0.545534,0.081745,-0.717347,37,1,37448,30040070
58,5,0.999437,-0.000486363,0.0335517,0.000312895,-0.665872,-0.0945724,9.75676,-0.453267,-0.162658,0.740798,-0.0066585,-0.000952756,0.0975676,1,3.47198e-05,9.30817e-07,1.92317e-05,0.00694395,0.000186163,0.00384634,0.999437,-0.000486363,0.0335517,0.000312895,0.545534,0.081745,-0.717347,37,1,37448,30040070
58,6,0.999437,-0.000512633,0.0335416,0.000274004,-0.611917,-0.118853,9.78842,-0.394921,-0.1897,0.780066,-0.00612252,-0.00119221,0.097884,1,1.82374e-05,-1.72218e-05,8.80694e-06,0.00364748,-0.00344436,0.00176139,0.999437,-0.000512633,0.0335416,0.000274004,0.545098,0.0826794,-0.714799,37,1,37449,30040170
59,1,0.999437,-0.000512633,0.0335416,0.000274004,-0.611917,-0.118853,9.78842,-0.394921,-0.1897,0.780066,-0.00612252,-0.00119221,0.097884,1,1.82374e-05,-1.72218e-05,8.80694e-06,0.00364748,-0.00344436,0.00176139,0.999437,-0.000512633,0.0335416,0.000274004,0.545098,0.0826794,-0.714799,37,1,37449,30040170
59,2,0.999437,-0.000512633,0.0335416,0.000274004,-0.611917,-0.118853,9.78842,-0.394921,-0.1897,0.780066,-0.00612252,-0.00119221,0.097884,1,1.82374e-05,-1.72218e-05,8.80694e-06,0.00364748,-0.00344436,0.00176139,0.999437,-0.000512633,0.0335416,0.000274004,0.545098,0.0826794,-0.714799,37,1,37449,30040170
59,3,0.999436,-0.000453168,0.0335703,0.000239979,-0.648671,-0.0418889,9.79201,-0.42252,-0.13399,0.76737,-0.00648216,-0.00043805,0.0979204,1,9.79174e-05,2.32458e-05,-1.14125e-06,0.0195835,0.00464916,-0.00022825,0.999436,-0.000453168,0.0335703,0.000239979,0.54185,0.0835838,-0.709208,37,1,37450,30040270
59,4,0.999436,-0.000453168,0.0335703,0.000239979,-0.648671,-0.0418889,9.79201,-0.42252,-0.13399,0.76737,-0.00648216,-0.00043805,0.0979204,1,9.79174e-05,2.32458e-05,-1.14125e-06,0.0195835,0.00464916,-0.00022825,0.999436,-0.000453168,0.0335703,0.000239979,0.54185,0.0835838,-0.709208,37,1,37450,30040270
59,5,0.999436,-0.000453168,0.0335703,0.000239979,-0.648671,-0.0418889,9.79201,-0.42252,-0.13399,0.76737,-0.00648216,-0.00043805,0.0979204,1,9.79174e-05,2.32458e-05,-1.14125e-06,0.0195835,0.00464916,-0.00022825,0.999436,-0.000453168,0.0335703,0.000239979,0.54185,0.0835838,-0.709208,37,1,37450,30040270
59,6,0.999435,-0.000495396,0.0335934,0.000287325,-0.742684,0.0168183,9.77722,-0.517767,-0.0344459,0.765429,-0.00742293,0.000172073,0.0977725,1,-2.10515e-05,2.00305e-05,1.52688e-05,-0.0042103,0.0040061,0.00305377,0.999435,-0.000495396,0.0335934,0.000287325,0.539608,0.0810748,-0.704203,37,1,37451,30040370
60,1,0.999435,-0.000495396,0.0335934,0.000287325,-0.742684,0.0168183,9.77722,-0.517767,-0.0344459,0.765429,-0.00742293,0.000172073,0.0977725,1,-2.10515e-05,2.00305e-05,1.52688e-05,-0.0042103,0.0040061,0.00305377,0.999435,-0.000495396,0.0335934,0.000287325,0.539608,0.0810748,-0.704203,37,1,37451,30040370
60,2,0.999435,-0.000495396,0.0335934,0.000287325,-0.742684,0.0168183,9.77722,-0.517767,-0.0344459,0.765429,-0.00742293,0.000172073,0.0977725,1,-2.10515e-05,2.00305e-05,1.52688e-05,-0.0042103,0.0040061,0.00305377,0.999435,-0.000495396,0.0335934,0.000287325,0.539608,0.0810748,-0.704203,37,1,37451,30040370
60,3,0.999436,-0.000536957,0.0335677,0.000347281,-0.775333,-0.241968,9.78679,-0.575556,-0.294924,0.794392,-0.00775845,-0.0024148,0.0978676,1,-2.63357e-05,-2.6615e-05,1.80815e-05,-0.00526715,-0.005323,0.00361631,0.999436,-0.000536957,0.0335677,0.000347281,0.540085,0.0791468,-0.705763,37,1,37452,30040470
60,4,0.999436,-0.000536957,0.0335677,0.000347281,-0.775333,-0.241968,9.78679,-0.575556,-0.294924,0.794392,-0.00775845,-0.0024148,0.0978676,1,-2.63357e-05,-2.6615e-05,1.80815e-05,-0.00526715,-0.005323,0.00361631,0.999436,-0.000536957,0.0335677,0.000347281,0.540085,0.0791468,-0.705763,37,1,37452,30040470
60,5,0.999436,-0.000536957,0.0335677,0.000347281,-0.775333,-0.241968,9.78679,-0.575556,-0.294924,0.794392,-0.00775845,-0.0024148,0.0978676,1,-2.63357e-05,-2.6615e-05,1.80815e-05,-0.00526715,-0.005323,0.00361631,0.999436,-0.000536957,0.0335677,0.000347281,0.540085,0.0791468,-0.705763,37,1,37452,30040470
60,6,0.999437,-0.000492857,0.0335584,0.000362574,-0.661337,-0.27773,9.81689,-0.433171,-0.36079,0.801091,-0.00661545,-0.00279106,0.0981684,1,6.94096e-05,-1.08792e-05,9.92753e-06,0.0138819,-0.00217584,0.00198551,0.999437,-0.000492857,0.0335584,0.000362574,0.543296,0.0797147,-0.711826,37,1,37453,30040570
48,1,0.999437,-0.000492857,0.0335584,0.000362574,-0.661337,-0.27773,9.81689,-0.433171,-0.36079,0.801091,-0.00661545,-0.00279106,0.0981684,1,6.94096e-05,-1.08792e-05,9.92753e-06,0.0138819,-0.00217584,0.00198551,0.999437,-0.000492857,0.0335584,0.000362574,0.543296,0.0797147,-0.711826,37,1,37453,30040570
48,2,0.999437,-0.000492857,0.0335584,0.000362574,-0.661337,-0.27773,9.81689,-0.433171,-0.36079,0.801091,-0.00661545,-0.00279106,0.0981684,1,6.94096e-05,-1.08792e-05,9.92753e-06,0.0138819,-0.00217584,0.00198551,0.999437,-0.000492857,0.0335584,0.000362574,0.543296,0.0797147,-0.711826,37,1,37453,30040570
48,3,0.999437,-0.000467712,0.0335556,0.000349722,-0.660222,-0.15854,9.80535,-0.432648,-0.23273,0.792249,-0.00660365,-0.0015974,0.0980532,1,6.05602e-05,-7.44878e-06,9.36174e-06,0.012112,-0.00148976,0.00187235,0.999437,-0.000467712,0.0335556,0.000349722,0.545538,0.0822237,-0.716831,37,1,37454,30040670
48,4,0.999437,-0.000467712,0.0335556,0.000349722,-0.660222,-0.15854,9.80535,-0.432648,-0.23273,0.792249,-0.00660365,-0.0015974,0.0980532,1,6.05602e-05,-7.44878e-06,9.36174e-06,0.012112,-0.00148976,0.00187235,0.999437,-0.000467712,0.0335556,0.000349722,0.545538,0.0822237,-0.716831,37,1,37454,30040670
48,5,0.999437,-0.000467712,0.0335556,0.000349722,-0.660222,-0.15854,9.80535,-0.432648,-0.23273,0.792249,-0.00660365,-0.0015974,0.0980532,1,6.05602e-05,-7.44878e-06,9.36174e-06,0.012112,-0.00148976,0.00187235,0.999437,-0.000467712,0.0335556,0.000349722,0.545538,0.0822237,-0.716831,37,1,37454,30040670
48,6,0.999436,-0.000440835,0.0335709,0.000321722,-0.727381,-0.0939732,9.76701,-0.496839,-0.166873,0.753064,-0.00727235,-0.000954155,0.0976701,1,7.20566e-05,7.25286e-06,2.39347e-05,0.0144113,0.00145057,0.00478694,0.999436,-0.000440835,0.0335709,0.000321722,0.545079,0.0846215,-0.714251,37,1,37455,30040770
49,1,0.999436,-0.000440835,0.0335709,0.000321722,-0.727381,-0.0939732,9.76701,-0.496839,-0.166873,0.753064,-0.00727235,-0.000954155,0.0976701,1,7.20566e-05,7.25286e-06,2.39347e-05,0.0144113,0.00145057,0.00478694,0.999436,-0.000440835,0.0335709,0.000321722,0.545079,0.0846215,-0.714251,37,1,37455,30040770
49,2,0.999436,-0.000440835,0.0335709,0.000321722,-0.727381,-0.0939732,9.76701,-0.496839,-0.166873,0.753064,-0.00727235,-0.000954155,0.0976701,1,7.20566e-05,7.25286e-06,2.39347e-05,0.0144113,0.00145057,0.00478694,0.999436,-0.000440835,0.0335709,0.000321722,0.545079,0.0846215,-0.714251,37,1,37455,30040770
49,3,0.999437,-0.000442438,0.033551,0.00029828,-0.70994,-0.114639,9.80982,-0.500893,-0.179796,0.802145,-0.00710488,-0.00115418,0.0980977,1,3.88455e-05,-2.80328e-05,1.21574e-05,0.00776909,-0.00560657,0.00243148,0.999437,-0.000442438,0.033551,0.00029828,0.540391,0.0860166,-0.708137,37,1,37456,30040870
49,4,0.999437,-0.000442438,0.033551,0.00029828,-0.70994,-0.114639,9.80982,-0.500893,-0.179796,0.802145,-0.00710488,-0.00115418,0.0980977,1,3.88455e-05,-2.80328e-05,1.21574e-05,0.00776909,-0.00560657,0.00243148,0.999437,-0.000442438,0.033551,0.00029828,0.540391,0.0860166,-0.708137,37,1,37456,30040870
49,5,0.999437,-0.000442438,0.033551,0.00029828,-0.70994,-0.114639,9.80982,-0.500893,-0.179796,0.802145,-0.00710488,-0.00115418,0.0980977,1,3.88455e-05,-2.80328e-05,1.21574e-05,0.00776909,-0.00560657,0.00243148,0.999437,-0.000442438,0.033551,0.00029828,0.540391,0.0860166,-0.708137,37,1,37456,30040870
49,6,0.999438,-0.000399908,0.0335149,0.000365453,-0.658834,-0.137649,9.82794,-0.45193,-0.221524,0.820219,-0.00659636,-0.00138954,0.0982787,1,6.48313e-05,-4.11214e-05,2.34341e-05,0.0129663,-0.00822428,0.00468683,0.999438,-0.000399908,0.0335149,0.000365453,0.538593,0.0835307,-0.704649,37,1,37457,30040970
50,1,0.999438,-0.000399908,0.0335149,0.000365453,-0.658834,-0.137649,9.82794,-0.45193,-0.221524,0.820219,-0.00659636,-0.00138954,0.0982787,1,6.48313e-05,-4.11214e-05,2.34341e-05,0.0129663,-0.00822428,0.00468683,0.999438,-0.000399908,0.0335149,0.000365453,0.538593,0.0835307,-0.704649,37,1,37457,30040970
50,2,0.999438,-0.000399908,0.0335149,0.000365453,-0.658834,-0.137649,9.82794,-0.45193,-0.221524,0.820219,-0.00659636,-0.00138954,0.0982787,1,6.48313e-05,-4.11214e-05,2.34341e-05,0.0129663,-0.00822428,0.00468683,0.999438,-0.000399908,0.0335149,0.000365453,0.538593,0.0835307,-0.704649,37,1,37457,30040970
50,3,0.999438,-0.000371676,0.0335297,0.000397793,-0.631835,-0.102147,9.78697,-0.409785,-0.180091,0.773975,-0.00631604,-0.00103143,0.0978698,1,5.11091e-05,1.18354e-05,-3.52529e-06,0.0102218,0.00236707,-0.000705057,0.999438,-0.000371676,0.0335297,0.000397793,0.541011,0.0820564,-0.705198,37,1,37458,30041070
50,4,0.999438,-0.000371676,0.0335297,0.000397793,-0.631835,-0.102147,9.78697,-0.409785,-0.180091,0.773975,-0.00631604,-0.00103143,0.0978698,1,5.11091e-05,1.18354e-05,-3.52529e-06,0.0102218,0.00236707,-0.000705057,0.999438,-0.000371676,0.0335297,0.000397793,0.541011,0.0820564,-0.705198,37,1,37458,30041070
50,5,0.999438,-0.000371676,0.0335297,0.000397793,-0.631835,-0.102147,9.78697,-0.409785,-0.180091,0.773975,-0.00631604,-0.00103143,0.0978698,1,5.11091e-05,1.18354e-05,-3.52529e-06,0.0102218,0.00236707,-0.000705057,0.999438,-0.000371676,0.0335297,0.000397793,0.541011,0.0820564,-0.705198,37,1,37458,30041070
50,6,0.999438,-0.000356994,0.033524,0.000404042,-0.710893,-0.162158,9.77481,-0.499244,-0.232092,0.758623,-0.00711071,-0.00162991,0.0977479,1,4.2539e-05,-9.14957e-06,1.06316e-06,0.0085078,-0.00182991,0.000212632,0.999438,-0.000356994,0.033524,0.000404042,0.544699,0.0806963,-0.712821,37,1,37459,30041170
51,1,0.999438,-0.000356994,0.033524,0.000404042,-0.710893,-0.162158,9.77481,-0.499244,-0.232092,0.758623,-0.00711071,-0.00162991,0.0977479,1,4.2539e-05,-9.14957e-06,1.06316e-06,0.0085078,-0.00182991,0.000212632,0.999438,-0.000356994,0.033524,0.000404042,0.544699,0.0806963,-0.712821,37,1,37459,30041170
51,2,0.999438,-0.000356994,0.033524,0.000404042,-0.710893,-0.162158,9.77481,-0.499244,-0.232092,0.758623,-0.00711071,-0.00162991,0.0977479,1,4.2539e-05,-9.14957e-06,1.06316e-06,0.0085078,-0.00182991,0.000212632,0.999438,-0.000356994,0.033524,0.000404042,0.544699,0.0806963,-0.712821,37,1,37459,30041170
51,3,0.999439,-0.000344423,0.0334935,0.000384341,-0.688758,-0.179851,9.79352,-0.476446,-0.259752,0.777935,-0.00689466,-0.00180858,0.0979345,1,5.05632e-05,-3.63776e-05,1.2398e-05,0.0101126,-0.00727552,0.0024796,0.999439,-0.000344423,0.0334935,0.000384341,0.544547,0.081771,-0.718352,37,1,37460,30041270
51,4,0.999439,-0.000344423,0.0334935,0.000384341,-0.688758,-0.179851,9.79352,-0.476446,-0.259752,0.777935,-0.00689466,-0.00180858,0.0979345,1,5.05632e-05,-3.63776e-05,1.2398e-05,0.0101126,-0.00727552,0.0024796,0.999439,-0.000344423,0.0334935,0.000384341,0.544547,0.081771,-0.718352,37,1,37460,30041270
51,5,0.999439,-0.000344423,0.0334935,0.000384341,-0.688758,-0.179851,9.79352,-0.476446,-0.259752,0.777935,-0.00689466,-0.00180858,0.0979345,1,5.05632e-05,-3.63776e-05,1.2398e-05,0.0101126,-0.00727552,0.0024796,0.999439,-0.000344423,0.0334935,0.000384341,0.544547,0.081771,-0.718352,37,1,37460,30041270
51,6,0.999439,-0.000299417,0.0334844,0.000340457,-0.653462,-0.153893,9.80163,-0.441899,-0.237077,0.784243,-0.00653796,-0.00155715,0.0980158,1,9.26293e-05,-1.71008e-05,4.53278e-06,0.0185259,-0.00342016,0.000906556,0.999439,-0.000299417,0.0334844,0.000340457,0.543623,0.0846425,-0.714748,37,1,37461,30041370
52,1,0.999439,-0.000299417,0.0334844,0.000340457,-0.653462,-0.153893,9.80163,-0.441899,-0.237077,0.784243,-0.00653796,-0.00155715,0.0980158,1,9.26293e-05,-1.71008e-05,4.53278e-06,0.0185259,-0.00342016,0.000906556,0.999439,-0.000299417,0.0334844,0.000340457,0.543623,0.0846425,-0.714748,37,1,37461,30041370
52,2,0.999439,-0.000299417,0.0334844,0.000340457,-0.653462,-0.153893,9.80163,-0.441899,-0.237077,0.784243,-0.00653796,-0.00155715,0.0980158,1,9.26293e-05,-1.71008e-05,4.53278e-06,0.0185259,-0.00342016,0.000906556,0.999439,-0.000299417,0.0334844,0.000340457,0.543623,0.0846425,-0.714748,37,1,37461,30041370
52,3,0.999439,-0.000247017,0.0334845,0.000342635,-0.694281,-0.0705231,9.79651,-0.481272,-0.154695,0.785897,-0.00694409,-0.000723313,0.0979648,1,9.08226e-05,-6.72016e-06,2.06455e-05,0.0181645,-0.00134403,0.00412909,0.999439,-0.000247017,0.0334845,0.000342635,0.541365,0.0845543,-0.708679,37,1,37462,30041470
52,4,0.999439,-0.000247017,0.0334845,0.000342635,-0.694281,-0.0705231,9.79651,-0.481272,-0.154695,0.785897,-0.00694409,-0.000723313,0.0979648,1,9.08226e-05,-6.72016e-06,2.06455e-05,0.0181645,-0.00134403,0.00412909,0.999439,-0.000247017,0.0334845,0.000342635,0.541365,0.0845543,-0.708679,37,1,37462,30041470
52,5,0.999439,-0.000247017,0.0334845,0.000342635,-0.694281,-0.0705231,9.79651,-0.481272,-0.154695,0.785897,-0.00694409,-0.000723313,0.0979648,1,9.08226e-05,-6.72016e-06,2.06455e-05,0.0181645,-0.00134403,0.00412909,0.999439,-0.000247017,0.0334845,0.000342635,0.541365,0.0845543,-0.708679,37,1,37462,30041470
52,6,0.99944,-0.000235102,0.0334705,0.000373051,-0.635108,-0.0697611,9.78594,-0.42511,-0.139681,0.774115,-0.00635479,-0.000705141,0.0978591,1,3.80277e-05,-1.90252e-05,6.93634e-06,0.00760554,-0.00380505,0.00138727,0.99944,-0.000235102,0.0334705,0.000373051,0.539123,0.0820453,-0.703674,37,1,37463,30041570
53,1,0.99944,-0.000235102,0.0334705,0.000373051,-0.635108,-0.0697611,9.78594,-0.42511,-0.139681,0.774115,-0.00635479,-0.000705141,0.0978591,1,3.80277e-05,-1.90252e-05,6.93634e-06,0.00760554,-0.00380505,0.00138727,0.99944,-0.000235102,0.0334705,0.000373051,0.539123,0.0820453,-0.703674,37,1,37463,30041570
53,2,0.99944,-0.000235102,0.0334705,0.000373051,-0.635108,-0.0697611,9.78594,-0.42511,-0.139681,0.774115,-0.00635479,-0.000705141,0.0978591,1,3.80277e-05,-1.90252e-05,6.93634e-06,0.00760554,-0.00380505,0.00138727,0.99944,-0.000235102,0.0334705,0.000373051,0.539123,0.0820453,-0.703674,37,1,37463,30041570
53,3,0.999439,-0.000201169,0.0334859,0.000407668,-0.625662,-0.16017,9.80917,-0.406026,-0.241141,0.791793,-0.0062541,-0.00161307,0.0980917,1,5.75502e-05,1.27237e-05,5.97327e-06,0.01151,0.00254473,0.00119465,0.999439,-0.000201169,0.0334859,0.000407668,0.540526,0.0815816,-0.705711,37,1,37464,30041670
53,4,0.999439,-0.000201169,0.0334859,0.000407668,-0.625662,-0.16017,9.80917,-0.406026,-0.241141,0.791793,-0.0062541,-0.00161307,0.0980917,1,5.75502e-05,1.27237e-05,5.97327e-06,0.01151,0.00254473,0.00119465,0.999439,-0.000201169,0.0334859,0.000407668,0.540526,0.0815816,-0.705711,37,1,37464,30041670
53,5,0.999439,-0.000201169,0.0334859,0.000407668,-0.625662,-0.16017,9.80917,-0.406026,-0.241141,0.791793,-0.0062541,-0.00161307,0.0980917,1,5.75502e-05,1.27237e-05,5.97327e-06,0.01151,0.00254473,0.00119465,0.999439,-0.000201169,0.0334859,0.000407668,0.540526,0.0815816,-0.705711,37,1,37464,30041670
53,6,0.999438,-0.000158765,0.0335085,0.000404798,-0.657343,-0.132678,9.79774,-0.435798,-0.214684,0.781312,-0.00656972,-0.00134122,0.0979774,1,7.40196e-05,1.89752e-05,-4.83513e-06,0.0148039,0.00379504,-0.000967027,0.999438,-0.000158765,0.0335085,0.000404798,0.544711,0.0806873,-0.712316,37,1,37465,30041770
54,1,0.999438,-0.000158765,0.0335085,0.000404798,-0.657343,-0.132678,9.79774,-0.435798,-0.214684,0.781312,-0.00656972,-0.00134122,0.0979774,1,7.40196e-05,1.89752e-05,-4.83513e-06,0.0148039,0.00379504,-0.000967027,0.999438,-0.000158765,0.0335085,0.000404798,0.544711,0.0806873,-0.712316,37,1,37465,30041770
54,2,0.999438,-0.000158765,0.0335085,0.000404798,-0.657343,-0.132678,9.79774,-0.435798,-0.214684,0.781312,-0.00656972,-0.00134122,0.0979774,1,7.40196e-05,1.89752e-05,-4.83513e-06,0.0148039,0.00379504,-0.000967027,0.999438,-0.000158765,0.0335085,0.000404798,0.544711,0.0806873,-0.712316,37,1,37465,30041770
54,3,0.999439,-0.000143199,0.0334993,0.000378405,-0.667688,-0.159395,9.7854,-0.455173,-0.235276,0.772324,-0.00667976,-0.00160465,0.0978536,1,5.44264e-05,-1.47544e-05,3.51274e-06,0.0108853,-0.00295088,0.000702548,0.999439,-0.000143199,0.0334993,0.000378405,0.546019,0.0807744,-0.717876,37,1,37466,30041870
54,4,0.999439,-0.000143199,0.0334993,0.000378405,-0.667688,-0.159395,9.7854,-0.455173,-0.235276,0.772324,-0.00667976,-0.00160465,0.0978536,1,5.44264e-05,-1.47544e-05,3.51274e-06,0.0108853,-0.00295088,0.000702548,0.999439,-0.000143199,0.0334993,0.000378405,0.546019,0.0807744,-0.717876,37,1,37466,30041870
54,5,0.999439,-0.000143199,0.0334993,0.000378405,-0.667688,-0.159395,9.7854,-0.455173,-0.235276,0.772324,-0.00667976,-0.00160465,0.0978536,1,5.44264e-05,-1.47544e-05,3.51274e-06,0.0108853,-0.00295088,0.000702548,0.999439,-0.000143199,0.0334993,0.000378405,0.546019,0.0807744,-0.717876,37,1,37466,30041870
54,6,0.999439,-9.99714e-05,0.0334998,0.000330255,-0.647059,-0.15335,9.78362,-0.43602,-0.240122,0.767188,-0.0064718,-0.00155117,0.0978358,1,8.99695e-05,-6.25843e-06,4.94285e-06,0.0179939,-0.00125169,0.000988571,0.999439,-9.99714e-05,0.0334998,0.000330255,0.545098,0.0826794,-0.714799,37,1,37467,30041970
55,1,0.999439,-9.99714e-05,0.0334998,0.000330255,-0.647059,-0.15335,9.78362,-0.43602,-0.240122,0.767188,-0.0064718,-0.00155117,0.0978358,1,8.99695e-05,-6.25843e-06,4.94285e-06,0.0179939,-0.00125169,0.000988571,0.999439,-9.99714e-05,0.0334998,0.000330255,0.545098,0.0826794,-0.714799,37,1,37467,30041970
55,2,0.999439,-9.99714e-05,0.0334998,0.000330255,-0.647059,-0.15335,9.78362,-0.43602,-0.240122,0.767188,-0.0064718,-0.00155117,0.0978358,1,8.99695e-05,-6.25843e-06,4.94285e-06,0.0179939,-0.00125169,0.000988571,0.999439,-9.99714e-05,0.0334998,0.000330255,0.545098,0.0826794,-0.714799,37,1,37467,30041970
55,3,0.999439,-5.92976e-05,0.0334917,0.000316363,-0.614549,-0.117242,9.80913,-0.404407,-0.199167,0.792878,-0.00614817,-0.00118839,0.098091,1,8.05948e-05,-1.38377e-05,1.32434e-05,0.016119,-0.00276753,0.00264867,0.999439,-5.92976e-05,0.0334917,0.000316363,0.540436,0.0840565,-0.707676,37,1,37468,30042070
55,4,0.999439,-5.92976e-05,0.0334917,0.000316363,-0.614549,-0.117242,9.80913,-0.404407,-0.199167,0.792878,-0.00614817,-0.00118839,0.098091,1,8.05948e-05,-1.38377e-05,1.32434e-05,0.016119,-0.00276753,0.00264867,0.999439,-5.92976e-05,0.0334917,0.000316363,0.540436,0.0840565,-0.707676,37,1,37468,30042070
55,5,0.999439,-5.92976e-05,0.0334917,0.000316363,-0.614549,-0.117242,9.80913,-0.404407,-0.199167,0.792878,-0.00614817,-0.00118839,0.098091,1,8.05948e-05,-1.38377e-05,1.32434e-05,0.016119,-0.00276753,0.00264867,0.999439,-5.92976e-05,0.0334917,0.000316363,0.540436,0.0840565,-0.707676,37,1,37468,30042070
55,6,0.999439,2.09641e-06,0.0334973,0.000348869,-0.620238,-0.143563,9.8181,-0.406802,-0.22309,0.805965,-0.00620205,-0.00145276,0.0981807,1,8.77324e-05,1.80132e-06,-8.37045e-06,0.0175465,0.000360264,-0.00167409,0.999439,2.09641e-06,0.0334973,0.000348869,0.539124,0.0834906,-0.702632,37,1,37469,30042170
56,1,0.999439,2.09641e-06,0.0334973,0.000348869,-0.620238,-0.143563,9.8181,-0.406802,-0.22309,0.805965,-0.00620205,-0.00145276,0.0981807,1,8.77324e-05,1.80132e-06,-8.37045e-06,0.0175465,0.000360264,-0.00167409,0.999439,2.09641e-06,0.0334973,0.000348869,0.539124,0.0834906,-0.702632,37,1,37469,30042170
