frame_id,imu_idx,quat_w,quat_x,quat_y,quat_z,accel_x,accel_y,accel_z,free_accel_x,free_accel_y,free_accel_z,delta_v_x,delta_v_y,delta_v_z,delta_q_w,delta_q_x,delta_q_y,delta_q_z,rate_x,rate_y,rate_z,quat_w,quat_x,quat_y,quat_z,mag_x,mag_y,mag_z,temperature,status_byte,packet_counter,time_fine
1,1,-0.0462207,-0.0489775,0.0068519,0.997706,-0.878108,-0.0249569,9.77484,-0.291545,0.56738,0.920362,-0.00878328,-0.00025848,0.0977481,1,4.44334e-05,-1.12801e-05,1.2746e-05,0.00888669,-0.00225603,0.0025492,-0.0462207,-0.0489775,0.0068519,0.997706,0.130464,-0.388257,-0.925377,35.5,3,56160,38476729
1,2,-0.0462207,-0.0489775,0.0068519,0.997706,-0.557882,-0.0532497,7.3357,-0.291545,0.56738,0.920362,-0.0055837,-0.000535514,0.0733566,1,1.84177e-05,-3.34249e-05,2.82269e-05,0.00368354,-0.00668499,0.00564537,-0.0462207,-0.0489775,0.0068519,0.997706,-0.00370609,0.492214,-1.01731,35.5625,1,62891,39151292
1,3,-0.0462207,-0.0489775,0.0068519,0.997706,-0.557882,-0.0532497,7.3357,-0.291545,0.56738,0.920362,-0.0055837,-0.000535514,0.0733566,1,1.84177e-05,-3.34249e-05,2.82269e-05,0.00368354,-0.00668499,0.00564537,-0.0462207,-0.0489775,0.0068519,0.997706,-0.00370609,0.492214,-1.01731,35.5625,1,62891,39151292
1,4,-0.0462207,-0.0489775,0.0068519,0.997706,-0.557882,-0.0532497,7.3357,-0.291545,0.56738,0.920362,-0.0055837,-0.000535514,0.0733566,1,1.84177e-05,-3.34249e-05,2.82269e-05,0.00368354,-0.00668499,0.00564537,-0.0462207,-0.0489775,0.0068519,0.997706,-0.00370609,0.492214,-1.01731,35.5625,1,62891,39151292
2,1,0.999273,-0.00358516,0.0379521,-0.000124916,-0.731334,-0.0666383,9.79513,0.171493,-0.473972,1.02197,-0.00731801,-0.000676625,0.0979509,1,5.115e-05,-2.39258e-05,1.51639e-05,0.01023,-0.00478516,0.00303278,0.999273,-0.00358516,0.0379521,-0.000124916,-0.0042,0.490782,-1.01886,35.5625,1,62892,39151392
2,2,0.999273,-0.00358516,0.0379521,-0.000124916,-0.731334,-0.0666383,9.79513,0.171493,-0.473972,1.02197,-0.00731801,-0.000676625,0.0979509,1,5.115e-05,-2.39258e-05,1.51639e-05,0.01023,-0.00478516,0.00303278,0.999273,-0.00358516,0.0379521,-0.000124916,-0.0042,0.490782,-1.01886,35.5625,1,62892,39151392
2,3,0.999273,-0.00358516,0.0379521,-0.000124916,-0.731334,-0.0666383,9.79513,0.171493,-0.473972,1.02197,-0.00731801,-0.000676625,0.0979509,1,5.115e-05,-2.39258e-05,1.51639e-05,0.01023,-0.00478516,0.00303278,0.999273,-0.00358516,0.0379521,-0.000124916,-0.0042,0.490782,-1.01886,35.5625,1,62892,39151392
2,4,0.999274,-0.00350835,0.0379383,-0.000112021,-0.746576,-0.0552833,9.78278,0.160662,-0.461244,1.00758,-0.00746801,-0.000566088,0.0978275,1,6.62022e-05,-1.16158e-05,2.02039e-05,0.0132404,-0.00232316,0.00404078,0.999274,-0.00350835,0.0379383,-0.000112021,-0.00416726,0.490276,-1.01786,35.5625,1,62893,39151492
2,5,0.999274,-0.00350835,0.0379383,-0.000112021,-0.746576,-0.0552833,9.78278,0.160662,-0.461244,1.00758,-0.00746801,-0.000566088,0.0978275,1,6.62022e-05,-1.16158e-05,2.02039e-05,0.0132404,-0.00232316,0.00404078,0.999274,-0.00350835,0.0379383,-0.000112021,-0.00416726,0.490276,-1.01786,35.5625,1,62893,39151492
2,6,0.999274,-0.00350835,0.0379383,-0.000112021,-0.746576,-0.0552833,9.78278,0.160662,-0.461244,1.00758,-0.00746801,-0.000566088,0.0978275,1,6.62022e-05,-1.16158e-05,2.02039e-05,0.0132404,-0.00232316,0.00404078,0.999274,-0.00350835,0.0379383,-0.000112021,-0.00416726,0.490276,-1.01786,35.5625,1,62893,39151492
3,1,0.999274,-0.00345353,0.0379333,-0.00010843,-0.738171,-0.0607747,9.77961,0.160964,-0.47418,1.00343,-0.00738274,-0.000618554,0.097796,1,5.48605e-05,-5.31951e-06,5.21186e-06,0.0109721,-0.0010639,0.00104237,0.999274,-0.00345353,0.0379333,-0.00010843,-0.00215263,0.489231,-1.01486,35.5625,1,62894,39151592
3,2,0.999274,-0.00345353,0.0379333,-0.00010843,-0.738171,-0.0607747,9.77961,0.160964,-0.47418,1.00343,-0.00738274,-0.000618554,0.097796,1,5.48605e-05,-5.31951e-06,5.21186e-06,0.0109721,-0.0010639,0.00104237,0.999274,-0.00345353,0.0379333,-0.00010843,-0.00215263,0.489231,-1.01486,35.5625,1,62894,39151592
3,3,0.999274,-0.00345353,0.0379333,-0.00010843,-0.738171,-0.0607747,9.77961,0.160964,-0.47418,1.00343,-0.00738274,-0.000618554,0.097796,1,5.48605e-05,-5.31951e-06,5.21186e-06,0.0109721,-0.0010639,0.00104237,0.999274,-0.00345353,0.0379333,-0.00010843,-0.00215263,0.489231,-1.01486,35.5625,1,62894,39151592
3,4,0.999275,-0.00340544,0.0379255,-9.59638e-05,-0.739887,-0.079066,9.78931,0.16093,-0.487862,1.01585,-0.00740038,-0.000800198,0.0978929,1,4.76503e-05,-7.8306e-06,1.41447e-05,0.00953005,-0.00156612,0.00282894,0.999275,-0.00340544,0.0379255,-9.59638e-05,-0.00257633,0.488711,-1.01285,35.5625,1,62895,39151692
4,1,0.999275,-0.00340544,0.0379255,-9.59638e-05,-0.739887,-0.079066,9.78931,0.16093,-0.487862,1.01585,-0.00740038,-0.000800198,0.0978929,1,4.76503e-05,-7.8306e-06,1.41447e-05,0.00953005,-0.00156612,0.00282894,0.999275,-0.00340544,0.0379255,-9.59638e-05,-0.00257633,0.488711,-1.01285,35.5625,1,62895,39151692
4,2,0.999275,-0.00340544,0.0379255,-9.59638e-05,-0.739887,-0.079066,9.78931,0.16093,-0.487862,1.01585,-0.00740038,-0.000800198,0.0978929,1,4.76503e-05,-7.8306e-06,1.41447e-05,0.00953005,-0.00156612,0.00282894,0.999275,-0.00340544,0.0379255,-9.59638e-05,-0.00257633,0.488711,-1.01285,35.5625,1,62895,39151692
4,3,0.999275,-0.00335329,0.0379206,-8.50819e-05,-0.745225,-0.060583,9.78373,0.156586,-0.472004,1.00964,-0.0074532,-0.000616044,0.0978372,1,5.12153e-05,-4.96761e-06,1.29155e-05,0.0102431,-0.000993522,0.0025831,0.999275,-0.00335329,0.0379206,-8.50819e-05,-0.00211517,0.490649,-1.0123,35.5625,1,62896,39151792
4,4,0.999275,-0.00335329,0.0379206,-8.50819e-05,-0.745225,-0.060583,9.78373,0.156586,-0.472004,1.00964,-0.0074532,-0.000616044,0.0978372,1,5.12153e-05,-4.96761e-06,1.29155e-05,0.0102431,-0.000993522,0.0025831,0.999275,-0.00335329,0.0379206,-8.50819e-05,-0.00211517,0.490649,-1.0123,35.5625,1,62896,39151792
4,5,0.999275,-0.00335329,0.0379206,-8.50819e-05,-0.745225,-0.060583,9.78373,0.156586,-0.472004,1.00964,-0.0074532,-0.000616044,0.0978372,1,5.12153e-05,-4.96761e-06,1.29155e-05,0.0102431,-0.000993522,0.0025831,0.999275,-0.00335329,0.0379206,-8.50819e-05,-0.00211517,0.490649,-1.0123,35.5625,1,62896,39151792
4,6,0.999276,-0.00329502,0.0379043,-8.00437e-05,-0.744691,-0.0680934,9.78842,0.156084,-0.475738,1.0135,-0.00745003,-0.000692409,0.0978839,1,5.80234e-05,-1.59867e-05,7.75782e-06,0.0116047,-0.00319735,0.00155156,0.999276,-0.00329502,0.0379043,-8.00437e-05,-0.00174081,0.491205,-1.01633,35.5625,1,62897,39151892
5,1,0.999276,-0.00329502,0.0379043,-8.00437e-05,-0.744691,-0.0680934,9.78842,0.156084,-0.475738,1.0135,-0.00745003,-0.000692409,0.0978839,1,5.80234e-05,-1.59867e-05,7.75782e-06,0.0116047,-0.00319735,0.00155156,0.999276,-0.00329502,0.0379043,-8.00437e-05,-0.00174081,0.491205,-1.01633,35.5625,1,62897,39151892
5,2,0.999276,-0.00329502,0.0379043,-8.00437e-05,-0.744691,-0.0680934,9.78842,0.156084,-0.475738,1.0135,-0.00745003,-0.000692409,0.0978839,1,5.80234e-05,-1.59867e-05,7.75782e-06,0.0116047,-0.00319735,0.00155156,0.999276,-0.00329502,0.0379043,-8.00437e-05,-0.00174081,0.491205,-1.01633,35.5625,1,62897,39151892
5,3,0.999277,-0.00324743,0.0378912,-7.64011e-05,-0.740092,-0.0616615,9.78844,0.164103,-0.476105,1.01132,-0.00740353,-0.000625959,0.0978841,1,4.73522e-05,-1.33773e-05,5.01266e-06,0.00947044,-0.00267547,0.00100253,0.999277,-0.00324743,0.0378912,-7.64011e-05,-0.000811778,0.490257,-1.01838,35.5625,1,62898,39151992
5,4,0.999277,-0.00324743,0.0378912,-7.64011e-05,-0.740092,-0.0616615,9.78844,0.164103,-0.476105,1.01132,-0.00740353,-0.000625959,0.0978841,1,4.73522e-05,-1.33773e-05,5.01266e-06,0.00947044,-0.00267547,0.00100253,0.999277,-0.00324743,0.0378912,-7.64011e-05,-0.000811778,0.490257,-1.01838,35.5625,1,62898,39151992
5,5,0.999277,-0.00324743,0.0378912,-7.64011e-05,-0.740092,-0.0616615,9.78844,0.164103,-0.476105,1.01132,-0.00740353,-0.000625959,0.0978841,1,4.73522e-05,-1.33773e-05,5.01266e-06,0.00947044,-0.00267547,0.00100253,0.999277,-0.00324743,0.0378912,-7.64011e-05,-0.000811778,0.490257,-1.01838,35.5625,1,62898,39151992
5,6,0.999278,-0.0032024,0.0378685,-6.95129e-05,-0.730818,-0.0696635,9.77204,0.165235,-0.484435,1.00039,-0.00731261,-0.000705497,0.09772,1,4.47202e-05,-2.27225e-05,8.32593e-06,0.00894404,-0.0045445,0.00166519,0.999278,-0.0032024,0.0378685,-6.95129e-05,-0.00176975,0.490744,-1.01786,35.5625,1,62899,39152092
9,1,0.999278,-0.0032024,0.0378685,-6.95129e-05,-0.730818,-0.0696635,9.77204,0.165235,-0.484435,1.00039,-0.00731261,-0.000705497,0.09772,1,4.47202e-05,-2.27225e-05,8.32593e-06,0.00894404,-0.0045445,0.00166519,0.999278,-0.0032024,0.0378685,-6.95129e-05,-0.00176975,0.490744,-1.01786,35.5625,1,62899,39152092
9,2,0.999278,-0.0032024,0.0378685,-6.95129e-05,-0.730818,-0.0696635,9.77204,0.165235,-0.484435,1.00039,-0.00731261,-0.000705497,0.09772,1,4.47202e-05,-2.27225e-05,8.32593e-06,0.00894404,-0.0045445,0.00166519,0.999278,-0.0032024,0.0378685,-6.95129e-05,-0.00176975,0.490744,-1.01786,35.5625,1,62899,39152092
9,3,0.999278,-0.00315153,0.0378559,-6.46287e-05,-0.730206,-0.0651266,9.78461,0.171585,-0.476528,1.01454,-0.0073045,-0.00066136,0.0978458,1,5.10978e-05,-1.24819e-05,6.48974e-06,0.0102196,-0.00249638,0.00129795,0.999278,-0.00315153,0.0378559,-6.46287e-05,-0.00316375,0.49072,-1.01583,35.5625,1,62900,39152192
9,4,0.999278,-0.00315153,0.0378559,-6.46287e-05,-0.730206,-0.0651266,9.78461,0.171585,-0.476528,1.01454,-0.0073045,-0.00066136,0.0978458,1,5.10978e-05,-1.24819e-05,6.48974e-06,0.0102196,-0.00249638,0.00129795,0.999278,-0.00315153,0.0378559,-6.46287e-05,-0.00316375,0.49072,-1.01583,35.5625,1,62900,39152192
165,1,0.999278,-0.00315153,0.0378559,-6.46287e-05,-0.730206,-0.0651266,9.78461,0.171585,-0.476528,1.01454,-0.0073045,-0.00066136,0.0978458,1,5.10978e-05,-1.24819e-05,6.48974e-06,0.0102196,-0.00249638,0.00129795,0.999278,-0.00315153,0.0378559,-6.46287e-05,-0.00316375,0.49072,-1.01583,35.5625,1,62900,39152192
165,2,0.999278,-0.00311366,0.0378559,-6.79887e-05,-0.744428,-0.0802293,9.78457,0.156183,-0.498594,1.01405,-0.00744426,-0.000809544,0.0978457,1,3.72268e-05,1.15697e-07,-2.30979e-06,0.00744537,2.31394e-05,-0.000461957,0.999278,-0.00311366,0.0378559,-6.79887e-05,-0.00262096,0.490671,-1.01331,35.5625,1,62901,39152292
165,3,0.999278,-0.00311366,0.0378559,-6.79887e-05,-0.744428,-0.0802293,9.78457,0.156183,-0.498594,1.01405,-0.00744426,-0.000809544,0.0978457,1,3.72268e-05,1.15697e-07,-2.30979e-06,0.00744537,2.31394e-05,-0.000461957,0.999278,-0.00311366,0.0378559,-6.79887e-05,-0.00262096,0.490671,-1.01331,35.5625,1,62901,39152292
165,4,0.999278,-0.00311366,0.0378559,-6.79887e-05,-0.744428,-0.0802293,9.78457,0.156183,-0.498594,1.01405,-0.00744426,-0.000809544,0.0978457,1,3.72268e-05,1.15697e-07,-2.30979e-06,0.00744537,2.31394e-05,-0.000461957,0.999278,-0.00311366,0.0378559,-6.79887e-05,-0.00262096,0.490671,-1.01331,35.5625,1,62901,39152292
165,5,0.999279,-0.00306925,0.0378428,-6.08209e-05,-0.747278,-0.0588263,9.77597,0.149791,-0.477828,0.999226,-0.00747534,-0.000596952,0.0977594,1,4.37964e-05,-1.31801e-05,8.38569e-06,0.00875927,-0.00263602,0.00167714,0.999279,-0.00306925,0.0378428,-6.08209e-05,-0.00160938,0.490627,-1.01129,35.5625,1,62902,39152392
165,6,0.999279,-0.00306925,0.0378428,-6.08209e-05,-0.747278,-0.0588263,9.77597,0.149791,-0.477828,0.999226,-0.00747534,-0.000596952,0.0977594,1,4.37964e-05,-1.31801e-05,8.38569e-06,0.00875927,-0.00263602,0.00167714,0.999279,-0.00306925,0.0378428,-6.08209e-05,-0.00160938,0.490627,-1.01129,35.5625,1,62902,39152392
166,1,0.999279,-0.00306925,0.0378428,-6.08209e-05,-0.747278,-0.0588263,9.77597,0.149791,-0.477828,0.999226,-0.00747534,-0.000596952,0.0977594,1,4.37964e-05,-1.31801e-05,8.38569e-06,0.00875927,-0.00263602,0.00167714,0.999279,-0.00306925,0.0378428,-6.08209e-05,-0.00160938,0.490627,-1.01129,35.5625,1,62902,39152392
166,2,0.999279,-0.00301969,0.037836,-2.86975e-05,-0.746019,-0.0742661,9.7894,0.15172,-0.496506,1.0153,-0.00746136,-0.000752618,0.0978938,1,4.81497e-05,-6.22474e-06,3.55166e-05,0.00962993,-0.00124495,0.00710332,0.999279,-0.00301969,0.037836,-2.86975e-05,-0.00312248,0.491172,-1.0138,35.5625,1,62903,39152492
166,3,0.999279,-0.00301969,0.037836,-2.86975e-05,-0.746019,-0.0742661,9.7894,0.15172,-0.496506,1.0153,-0.00746136,-0.000752618,0.0978938,1,4.81497e-05,-6.22474e-06,3.55166e-05,0.00962993,-0.00124495,0.00710332,0.999279,-0.00301969,0.037836,-2.86975e-05,-0.00312248,0.491172,-1.0138,35.5625,1,62903,39152492
166,4,0.999279,-0.00301969,0.037836,-2.86975e-05,-0.746019,-0.0742661,9.7894,0.15172,-0.496506,1.0153,-0.00746136,-0.000752618,0.0978938,1,4.81497e-05,-6.22474e-06,3.55166e-05,0.00962993,-0.00124495,0.00710332,0.999279,-0.00301969,0.037836,-2.86975e-05,-0.00312248,0.491172,-1.0138,35.5625,1,62903,39152492
166,5,0.99928,-0.00297451,0.037827,-3.14257e-05,-0.742062,-0.0681461,9.7884,0.156856,-0.490349,1.00924,-0.00742238,-0.00069033,0.0978838,1,4.5361e-05,-8.99636e-06,-7.59939e-07,0.00907221,-0.00179927,-0.000151988,0.99928,-0.00297451,0.037827,-3.14257e-05,-0.00170426,0.489732,-1.01586,35.5625,1,62904,39152592
166,6,0.99928,-0.00297451,0.037827,-3.14257e-05,-0.742062,-0.0681461,9.7884,0.156856,-0.490349,1.00924,-0.00742238,-0.00069033,0.0978838,1,4.5361e-05,-8.99636e-06,-7.59939e-07,0.00907221,-0.00179927,-0.000151988,0.99928,-0.00297451,0.037827,-3.14257e-05,-0.00170426,0.489732,-1.01586,35.5625,1,62904,39152592
167,1,0.99928,-0.00297451,0.037827,-3.14257e-05,-0.742062,-0.0681461,9.7884,0.156856,-0.490349,1.00924,-0.00742238,-0.00069033,0.0978838,1,4.5361e-05,-8.99636e-06,-7.59939e-07,0.00907221,-0.00179927,-0.000151988,0.99928,-0.00297451,0.037827,-3.14257e-05,-0.00170426,0.489732,-1.01586,35.5625,1,62904,39152592
167,2,0.999281,-0.0029165,0.0378113,-2.08806e-05,-0.740991,-0.0639439,9.7925,0.161041,-0.486222,1.0169,-0.00741307,-0.000650877,0.0979247,1,5.75258e-05,-1.62503e-05,1.16044e-05,0.0115052,-0.00325005,0.00232087,0.999281,-0.0029165,0.0378113,-2.08806e-05,-0.00170045,0.488766,-1.01639,35.5625,1,62905,39152692
167,3,0.999281,-0.0029165,0.0378113,-2.08806e-05,-0.740991,-0.0639439,9.7925,0.161041,-0.486222,1.0169,-0.00741307,-0.000650877,0.0979247,1,5.75258e-05,-1.62503e-05,1.16044e-05,0.0115052,-0.00325005,0.00232087,0.999281,-0.0029165,0.0378113,-2.08806e-05,-0.00170045,0.488766,-1.01639,35.5625,1,62905,39152692
167,4,0.999281,-0.0029165,0.0378113,-2.08806e-05,-0.740991,-0.0639439,9.7925,0.161041,-0.486222,1.0169,-0.00741307,-0.000650877,0.0979247,1,5.75258e-05,-1.62503e-05,1.16044e-05,0.0115052,-0.00325005,0.00232087,0.999281,-0.0029165,0.0378113,-2.08806e-05,-0.00170045,0.488766,-1.01639,35.5625,1,62905,39152692
167,5,0.999281,-0.00285845,0.0378079,-2.45241e-05,-0.740853,-0.0590799,9.77931,0.154753,-0.486105,1.00178,-0.00740934,-0.000602254,0.0977929,1,5.8746e-05,-4.11449e-06,-2.31546e-06,0.0117492,-0.000822899,-0.000463093,0.999281,-0.00285845,0.0378079,-2.45241e-05,-0.00215263,0.489231,-1.01486,35.5625,1,62906,39152792
167,6,0.999281,-0.00285845,0.0378079,-2.45241e-05,-0.740853,-0.0590799,9.77931,0.154753,-0.486105,1.00178,-0.00740934,-0.000602254,0.0977929,1,5.8746e-05,-4.11449e-06,-2.31546e-06,0.0117492,-0.000822899,-0.000463093,0.999281,-0.00285845,0.0378079,-2.45241e-05,-0.00215263,0.489231,-1.01486,35.5625,1,62906,39152792
167,7,0.999281,-0.00285845,0.0378079,-2.45241e-05,-0.740853,-0.0590799,9.77931,0.154753,-0.486105,1.00178,-0.00740934,-0.000602254,0.0977929,1,5.8746e-05,-4.11449e-06,-2.31546e-06,0.0117492,-0.000822899,-0.000463093,0.999281,-0.00285845,0.0378079,-2.45241e-05,-0.00215263,0.489231,-1.01486,35.5625,1,62906,39152792
167,8,0.999282,-0.00281265,0.0377966,-1.28944e-05,-0.74651,-0.069083,9.78095,0.146479,-0.493197,1.00718,-0.00746733,-0.000700113,0.0978093,1,4.64115e-05,-1.14833e-05,1.3644e-05,0.00928229,-0.00229666,0.0027288,0.999282,-0.00281265,0.0377966,-1.28944e-05,-0.00308547,0.491145,-1.01229,35.5625,1,62907,39152892
10,1,0.999282,-0.00281265,0.0377966,-1.28944e-05,-0.74651,-0.069083,9.78095,0.146479,-0.493197,1.00718,-0.00746733,-0.000700113,0.0978093,1,4.64115e-05,-1.14833e-05,1.3644e-05,0.00928229,-0.00229666,0.0027288,0.999282,-0.00281265,0.0377966,-1.28944e-05,-0.00308547,0.491145,-1.01229,35.5625,1,62907,39152892
10,2,0.999282,-0.00281265,0.0377966,-1.28944e-05,-0.74651,-0.069083,9.78095,0.146479,-0.493197,1.00718,-0.00746733,-0.000700113,0.0978093,1,4.64115e-05,-1.14833e-05,1.3644e-05,0.00928229,-0.00229666,0.0027288,0.999282,-0.00281265,0.0377966,-1.28944e-05,-0.00308547,0.491145,-1.01229,35.5625,1,62907,39152892
10,3,0.999282,-0.00277,0.0377842,-2.99413e-06,-0.746805,-0.069245,9.78164,0.146282,-0.495602,1.00305,-0.0074705,-0.000700974,0.0978161,1,4.2662e-05,-1.26384e-05,1.1917e-05,0.0085324,-0.00252767,0.00238341,0.999282,-0.00277,0.0377842,-2.99413e-06,-0.00265324,0.492622,-1.01327,35.5625,1,62908,39152992
10,4,0.999282,-0.00277,0.0377842,-2.99413e-06,-0.746805,-0.069245,9.78164,0.146282,-0.495602,1.00305,-0.0074705,-0.000700974,0.0978161,1,4.2662e-05,-1.26384e-05,1.1917e-05,0.0085324,-0.00252767,0.00238341,0.999282,-0.00277,0.0377842,-2.99413e-06,-0.00265324,0.492622,-1.01327,35.5625,1,62908,39152992
10,5,0.999282,-0.00277,0.0377842,-2.99413e-06,-0.746805,-0.069245,9.78164,0.146282,-0.495602,1.00305,-0.0074705,-0.000700974,0.0978161,1,4.2662e-05,-1.26384e-05,1.1917e-05,0.0085324,-0.00252767,0.00238341,0.999282,-0.00277,0.0377842,-2.99413e-06,-0.00265324,0.492622,-1.01327,35.5625,1,62908,39152992
10,6,0.999283,-0.00272441,0.0377739,6.70779e-06,-0.758038,-0.0681992,9.7807,0.137969,-0.49817,1.00338,-0.00758239,-0.000690922,0.0978068,1,4.47557e-05,-1.03396e-05,1.15259e-05,0.00895113,-0.00206792,0.00230518,0.999283,-0.00272441,0.0377739,6.70779e-06,-0.000847869,0.493175,-1.01781,35.5625,1,62909,39153092
14,1,0.999283,-0.00272441,0.0377739,6.70779e-06,-0.758038,-0.0681992,9.7807,0.137969,-0.49817,1.00338,-0.00758239,-0.000690922,0.0978068,1,4.47557e-05,-1.03396e-05,1.15259e-05,0.00895113,-0.00206792,0.00230518,0.999283,-0.00272441,0.0377739,6.70779e-06,-0.000847869,0.493175,-1.01781,35.5625,1,62909,39153092
14,2,0.999283,-0.00272441,0.0377739,6.70779e-06,-0.758038,-0.0681992,9.7807,0.137969,-0.49817,1.00338,-0.00758239,-0.000690922,0.0978068,1,4.47557e-05,-1.03396e-05,1.15259e-05,0.00895113,-0.00206792,0.00230518,0.999283,-0.00272441,0.0377739,6.70779e-06,-0.000847869,0.493175,-1.01781,35.5625,1,62909,39153092
14,3,0.999283,-0.00267422,0.0377624,1.11226e-05,-0.751921,-0.0728882,9.7796,0.139608,-0.5011,1.00379,-0.00752148,-0.000738908,0.0977958,1,5.07831e-05,-1.16565e-05,6.18585e-06,0.0101566,-0.00233131,0.00123717,0.999283,-0.00267422,0.0377624,1.11226e-05,-0.0022798,0.490287,-1.01938,35.5625,1,62910,39153192
14,4,0.999283,-0.00267422,0.0377624,1.11226e-05,-0.751921,-0.0728882,9.7796,0.139608,-0.5011,1.00379,-0.00752148,-0.000738908,0.0977958,1,5.07831e-05,-1.16565e-05,6.18585e-06,0.0101566,-0.00233131,0.00123717,0.999283,-0.00267422,0.0377624,1.11226e-05,-0.0022798,0.490287,-1.01938,35.5625,1,62910,39153192
14,5,0.999283,-0.00267422,0.0377624,1.11226e-05,-0.751921,-0.0728882,9.7796,0.139608,-0.5011,1.00379,-0.00752148,-0.000738908,0.0977958,1,5.07831e-05,-1.16565e-05,6.18585e-06,0.0101566,-0.00233131,0.00123717,0.999283,-0.00267422,0.0377624,1.11226e-05,-0.0022798,0.490287,-1.01938,35.5625,1,62910,39153192
14,6,0.999283,-0.00262929,0.037765,2.41929e-05,-0.742537,-0.0619609,9.78641,0.152616,-0.4942,1.01707,-0.0074249,-0.000628515,0.0978641,1,4.43795e-05,2.35405e-06,1.48022e-05,0.0088759,0.000470811,0.00296045,0.999283,-0.00262929,0.037765,2.41929e-05,-0.0046199,0.489296,-1.01737,35.5625,1,62911,39153292
171,1,0.999283,-0.00262929,0.037765,2.41929e-05,-0.742537,-0.0619609,9.78641,0.152616,-0.4942,1.01707,-0.0074249,-0.000628515,0.0978641,1,4.43795e-05,2.35405e-06,1.48022e-05,0.0088759,0.000470811,0.00296045,0.999283,-0.00262929,0.037765,2.41929e-05,-0.0046199,0.489296,-1.01737,35.5625,1,62911,39153292
171,2,0.999283,-0.00262929,0.037765,2.41929e-05,-0.742537,-0.0619609,9.78641,0.152616,-0.4942,1.01707,-0.0074249,-0.000628515,0.0978641,1,4.43795e-05,2.35405e-06,1.48022e-05,0.0088759,0.000470811,0.00296045,0.999283,-0.00262929,0.037765,2.41929e-05,-0.0046199,0.489296,-1.01737,35.5625,1,62911,39153292
171,3,0.999284,-0.00258381,0.0377502,2.01064e-05,-0.737433,-0.0522732,9.78477,0.162254,-0.481386,1.01291,-0.00737717,-0.000531502,0.0978475,1,4.49289e-05,-1.44969e-05,-1.54008e-06,0.00898579,-0.00289937,-0.000308015,0.999284,-0.00258381,0.0377502,2.01064e-05,-0.0021403,0.489222,-1.01435,35.5625,1,62912,39153392
171,4,0.999284,-0.00258381,0.0377502,2.01064e-05,-0.737433,-0.0522732,9.78477,0.162254,-0.481386,1.01291,-0.00737717,-0.000531502,0.0978475,1,4.49289e-05,-1.44969e-05,-1.54008e-06,0.00898579,-0.00289937,-0.000308015,0.999284,-0.00258381,0.0377502,2.01064e-05,-0.0021403,0.489222,-1.01435,35.5625,1,62912,39153392
171,5,0.999284,-0.00258381,0.0377502,2.01064e-05,-0.737433,-0.0522732,9.78477,0.162254,-0.481386,1.01291,-0.00737717,-0.000531502,0.0978475,1,4.49289e-05,-1.44969e-05,-1.54008e-06,0.00898579,-0.00289937,-0.000308015,0.999284,-0.00258381,0.0377502,2.01064e-05,-0.0021403,0.489222,-1.01435,35.5625,1,62912,39153392
171,6,0.999285,-0.00252171,0.0377382,2.38793e-05,-0.741451,-0.0553536,9.78681,0.150155,-0.487168,1.00887,-0.00741692,-0.000565654,0.0978678,1,6.14785e-05,-1.23157e-05,5.7256e-06,0.0122957,-0.00246315,0.00114512,0.999285,-0.00252171,0.0377382,2.38793e-05,-0.00260481,0.489695,-1.01333,35.5625,1,62913,39153492
171,7,0.999285,-0.00252171,0.0377382,2.38793e-05,-0.741451,-0.0553536,9.78681,0.150155,-0.487168,1.00887,-0.00741692,-0.000565654,0.0978678,1,6.14785e-05,-1.23157e-05,5.7256e-06,0.0122957,-0.00246315,0.00114512,0.999285,-0.00252171,0.0377382,2.38793e-05,-0.00260481,0.489695,-1.01333,35.5625,1,62913,39153492
171,8,0.999285,-0.00252171,0.0377382,2.38793e-05,-0.741451,-0.0553536,9.78681,0.150155,-0.487168,1.00887,-0.00741692,-0.000565654,0.0978678,1,6.14785e-05,-1.23157e-05,5.7256e-06,0.0122957,-0.00246315,0.00114512,0.999285,-0.00252171,0.0377382,2.38793e-05,-0.00260481,0.489695,-1.01333,35.5625,1,62913,39153492
16,1,0.999285,-0.00247326,0.0377339,4.15025e-05,-0.725409,-0.0602049,9.79954,0.168066,-0.487462,1.02006,-0.00725488,-0.000611664,0.0979953,1,4.75553e-05,-4.13877e-06,2.03008e-05,0.00951105,-0.000827754,0.00406017,0.999285,-0.00247326,0.0377339,4.15025e-05,-0.00260908,0.489217,-1.01385,35.5625,1,62914,39153592
16,2,0.999285,-0.00247326,0.0377339,4.15025e-05,-0.725409,-0.0602049,9.79954,0.168066,-0.487462,1.02006,-0.00725488,-0.000611664,0.0979953,1,4.75553e-05,-4.13877e-06,2.03008e-05,0.00951105,-0.000827754,0.00406017,0.999285,-0.00247326,0.0377339,4.15025e-05,-0.00260908,0.489217,-1.01385,35.5625,1,62914,39153592
16,3,0.999285,-0.00247326,0.0377339,4.15025e-05,-0.725409,-0.0602049,9.79954,0.168066,-0.487462,1.02006,-0.00725488,-0.000611664,0.0979953,1,4.75553e-05,-4.13877e-06,2.03008e-05,0.00951105,-0.000827754,0.00406017,0.999285,-0.00247326,0.0377339,4.15025e-05,-0.00260908,0.489217,-1.01385,35.5625,1,62914,39153592
16,4,0.999285,-0.00242249,0.0377199,5.24269e-05,-0.733219,-0.0621546,9.78703,0.161332,-0.495539,1.00711,-0.00733494,-0.000631769,0.0978701,1,5.12824e-05,-1.4113e-05,1.26083e-05,0.0102565,-0.00282261,0.00252165,0.999285,-0.00242249,0.0377199,5.24269e-05,-0.00169619,0.489245,-1.01587,35.5625,1,62915,39153692
16,5,0.999285,-0.00242249,0.0377199,5.24269e-05,-0.733219,-0.0621546,9.78703,0.161332,-0.495539,1.00711,-0.00733494,-0.000631769,0.0978701,1,5.12824e-05,-1.4113e-05,1.26083e-05,0.0102565,-0.00282261,0.00252165,0.999285,-0.00242249,0.0377199,5.24269e-05,-0.00169619,0.489245,-1.01587,35.5625,1,62915,39153692
16,6,0.999285,-0.00242249,0.0377199,5.24269e-05,-0.733219,-0.0621546,9.78703,0.161332,-0.495539,1.00711,-0.00733494,-0.000631769,0.0978701,1,5.12824e-05,-1.4113e-05,1.26083e-05,0.0102565,-0.00282261,0.00252165,0.999285,-0.00242249,0.0377199,5.24269e-05,-0.00169619,0.489245,-1.01587,35.5625,1,62915,39153692
17,1,0.999286,-0.00237746,0.0377078,5.98361e-05,-0.720021,-0.063116,9.77778,0.173321,-0.500258,1.00087,-0.00720257,-0.00063996,0.0977776,1,4.43421e-05,-1.2126e-05,8.95739e-06,0.00886842,-0.0024252,0.00179148,0.999286,-0.00237746,0.0377078,5.98361e-05,-0.001207,0.488753,-1.01588,35.5625,1,62916,39153792
17,2,0.999286,-0.00237746,0.0377078,5.98361e-05,-0.720021,-0.063116,9.77778,0.173321,-0.500258,1.00087,-0.00720257,-0.00063996,0.0977776,1,4.43421e-05,-1.2126e-05,8.95739e-06,0.00886842,-0.0024252,0.00179148,0.999286,-0.00237746,0.0377078,5.98361e-05,-0.001207,0.488753,-1.01588,35.5625,1,62916,39153792
17,3,0.999286,-0.00237746,0.0377078,5.98361e-05,-0.720021,-0.063116,9.77778,0.173321,-0.500258,1.00087,-0.00720257,-0.00063996,0.0977776,1,4.43421e-05,-1.2126e-05,8.95739e-06,0.00886842,-0.0024252,0.00179148,0.999286,-0.00237746,0.0377078,5.98361e-05,-0.001207,0.488753,-1.01588,35.5625,1,62916,39153792
17,4,0.999286,-0.00232698,0.0377102,5.64125e-05,-0.745211,-0.0701788,9.78466,0.151725,-0.50286,1.00582,-0.00745163,-0.000711603,0.0978466,1,5.02616e-05,2.46081e-06,-1.41943e-06,0.0100523,0.000492162,-0.000283885,0.999286,-0.00232698,0.0377102,5.64125e-05,-0.00119466,0.488744,-1.01538,35.5625,1,62917,39153892
18,1,0.999286,-0.00232698,0.0377102,5.64125e-05,-0.745211,-0.0701788,9.78466,0.151725,-0.50286,1.00582,-0.00745163,-0.000711603,0.0978466,1,5.02616e-05,2.46081e-06,-1.41943e-06,0.0100523,0.000492162,-0.000283885,0.999286,-0.00232698,0.0377102,5.64125e-05,-0.00119466,0.488744,-1.01538,35.5625,1,62917,39153892
18,2,0.999286,-0.00232698,0.0377102,5.64125e-05,-0.745211,-0.0701788,9.78466,0.151725,-0.50286,1.00582,-0.00745163,-0.000711603,0.0978466,1,5.02616e-05,2.46081e-06,-1.41943e-06,0.0100523,0.000492162,-0.000283885,0.999286,-0.00232698,0.0377102,5.64125e-05,-0.00119466,0.488744,-1.01538,35.5625,1,62917,39153892
18,3,0.999287,-0.0022739,0.0376866,4.52954e-05,-0.739316,-0.0665515,9.78331,0.150591,-0.506469,1.00703,-0.0073978,-0.00067585,0.0978327,1,5.34971e-05,-2.36444e-05,-8.97926e-06,0.0106994,-0.00472889,-0.00179585,0.999287,-0.0022739,0.0376866,4.52954e-05,-0.00116192,0.488238,-1.01438,35.5625,1,62918,39153992
18,4,0.999287,-0.0022739,0.0376866,4.52954e-05,-0.739316,-0.0665515,9.78331,0.150591,-0.506469,1.00703,-0.0073978,-0.00067585,0.0978327,1,5.34971e-05,-2.36444e-05,-8.97926e-06,0.0106994,-0.00472889,-0.00179585,0.999287,-0.0022739,0.0376866,4.52954e-05,-0.00116192,0.488238,-1.01438,35.5625,1,62918,39153992
19,1,0.999287,-0.0022739,0.0376866,4.52954e-05,-0.739316,-0.0665515,9.78331,0.150591,-0.506469,1.00703,-0.0073978,-0.00067585,0.0978327,1,5.34971e-05,-2.36444e-05,-8.97926e-06,0.0106994,-0.00472889,-0.00179585,0.999287,-0.0022739,0.0376866,4.52954e-05,-0.00116192,0.488238,-1.01438,35.5625,1,62918,39153992
19,2,0.999288,-0.00221924,0.0376721,3.56346e-05,-0.746763,-0.0585829,9.7936,0.148997,-0.493472,1.0189,-0.00747046,-0.000596498,0.0979358,1,5.50244e-05,-1.44038e-05,-7.29998e-06,0.0110049,-0.00288076,-0.00146,0.999288,-0.00221924,0.0376721,3.56346e-05,-0.00257679,0.487265,-1.01389,35.5625,1,62919,39154092
19,3,0.999288,-0.00221924,0.0376721,3.56346e-05,-0.746763,-0.0585829,9.7936,0.148997,-0.493472,1.0189,-0.00747046,-0.000596498,0.0979358,1,5.50244e-05,-1.44038e-05,-7.29998e-06,0.0110049,-0.00288076,-0.00146,0.999288,-0.00221924,0.0376721,3.56346e-05,-0.00257679,0.487265,-1.01389,35.5625,1,62919,39154092
19,4,0.999288,-0.00221924,0.0376721,3.56346e-05,-0.746763,-0.0585829,9.7936,0.148997,-0.493472,1.0189,-0.00747046,-0.000596498,0.0979358,1,5.50244e-05,-1.44038e-05,-7.29998e-06,0.0110049,-0.00288076,-0.00146,0.999288,-0.00221924,0.0376721,3.56346e-05,-0.00257679,0.487265,-1.01389,35.5625,1,62919,39154092
20,1,0.999288,-0.00218726,0.0376664,5.21618e-05,-0.748887,-0.0703867,9.78774,0.143634,-0.504195,1.01278,-0.00748994,-0.000710358,0.0978773,1,3.17562e-05,-5.61044e-06,1.82986e-05,0.00635124,-0.00112209,0.00365973,0.999288,-0.00218726,0.0376664,5.21618e-05,-0.00355898,0.489216,-1.01334,35.5625,1,62920,39154192
20,2,0.999288,-0.00218726,0.0376664,5.21618e-05,-0.748887,-0.0703867,9.78774,0.143634,-0.504195,1.01278,-0.00748994,-0.000710358,0.0978773,1,3.17562e-05,-5.61044e-06,1.82986e-05,0.00635124,-0.00112209,0.00365973,0.999288,-0.00218726,0.0376664,5.21618e-05,-0.00355898,0.489216,-1.01334,35.5625,1,62920,39154192
20,3,0.999288,-0.00218726,0.0376664,5.21618e-05,-0.748887,-0.0703867,9.78774,0.143634,-0.504195,1.01278,-0.00748994,-0.000710358,0.0978773,1,3.17562e-05,-5.61044e-06,1.82986e-05,0.00635124,-0.00112209,0.00365973,0.999288,-0.00218726,0.0376664,5.21618e-05,-0.00355898,0.489216,-1.01334,35.5625,1,62920,39154192
20,4,0.999288,-0.00213877,0.0376549,6.33067e-05,-0.739586,-0.0728036,9.78089,0.154659,-0.509372,1.00061,-0.0073981,-0.000737882,0.0978086,1,4.93713e-05,-1.15465e-05,1.27177e-05,0.00987427,-0.0023093,0.00254354,0.999288,-0.00213877,0.0376549,6.33067e-05,-0.00268264,0.490716,-1.01583,35.5625,1,62921,39154292
21,1,0.999288,-0.00213877,0.0376549,6.33067e-05,-0.739586,-0.0728036,9.78089,0.154659,-0.509372,1.00061,-0.0073981,-0.000737882,0.0978086,1,4.93713e-05,-1.15465e-05,1.27177e-05,0.00987427,-0.0023093,0.00254354,0.999288,-0.00213877,0.0376549,6.33067e-05,-0.00268264,0.490716,-1.01583,35.5625,1,62921,39154292
21,2,0.999288,-0.00213877,0.0376549,6.33067e-05,-0.739586,-0.0728036,9.78089,0.154659,-0.509372,1.00061,-0.0073981,-0.000737882,0.0978086,1,4.93713e-05,-1.15465e-05,1.27177e-05,0.00987427,-0.0023093,0.00254354,0.999288,-0.00213877,0.0376549,6.33067e-05,-0.00268264,0.490716,-1.01583,35.5625,1,62921,39154292
21,3,0.999289,-0.00210695,0.0376322,6.54029e-05,-0.735124,-0.0705067,9.78291,0.162466,-0.510908,1.00363,-0.0073557,-0.000711458,0.0978287,1,3.23989e-05,-2.27838e-05,3.52419e-06,0.00647978,-0.00455676,0.000704838,0.999289,-0.00210695,0.0376322,6.54029e-05,-0.00220244,0.487821,-1.01792,35.5625,1,62922,39154392
21,4,0.999289,-0.00210695,0.0376322,6.54029e-05,-0.735124,-0.0705067,9.78291,0.162466,-0.510908,1.00363,-0.0073557,-0.000711458,0.0978287,1,3.23989e-05,-2.27838e-05,3.52419e-06,0.00647978,-0.00455676,0.000704838,0.999289,-0.00210695,0.0376322,6.54029e-05,-0.00220244,0.487821,-1.01792,35.5625,1,62922,39154392
22,1,0.999289,-0.00210695,0.0376322,6.54029e-05,-0.735124,-0.0705067,9.78291,0.162466,-0.510908,1.00363,-0.0073557,-0.000711458,0.0978287,1,3.23989e-05,-2.27838e-05,3.52419e-06,0.00647978,-0.00455676,0.000704838,0.999289,-0.00210695,0.0376322,6.54029e-05,-0.00220244,0.487821,-1.01792,35.5625,1,62922,39154392
22,2,0.99929,-0.00204655,0.037619,7.45452e-05,-0.734924,-0.0662405,9.7826,0.157241,-0.508423,1.00902,-0.00735182,-0.000674485,0.0978257,1,6.08619e-05,-1.32437e-05,1.16954e-05,0.0121724,-0.00264874,0.00233908,0.99929,-0.00204655,0.037619,7.45452e-05,-0.00457482,0.488781,-1.01587,35.5625,1,62923,39154492
22,3,0.99929,-0.00204655,0.037619,7.45452e-05,-0.734924,-0.0662405,9.7826,0.157241,-0.508423,1.00902,-0.00735182,-0.000674485,0.0978257,1,6.08619e-05,-1.32437e-05,1.16954e-05,0.0121724,-0.00264874,0.00233908,0.99929,-0.00204655,0.037619,7.45452e-05,-0.00457482,0.488781,-1.01587,35.5625,1,62923,39154492
22,4,0.99929,-0.00204655,0.037619,7.45452e-05,-0.734924,-0.0662405,9.7826,0.157241,-0.508423,1.00902,-0.00735182,-0.000674485,0.0978257,1,6.08619e-05,-1.32437e-05,1.16954e-05,0.0121724,-0.00264874,0.00233908,0.99929,-0.00204655,0.037619,7.45452e-05,-0.00457482,0.488781,-1.01587,35.5625,1,62923,39154492
23,1,0.999291,-0.00198907,0.0376052,7.5846e-05,-0.732947,-0.0634464,9.78397,0.153614,-0.508416,1.00989,-0.00733218,-0.000646106,0.0978394,1,5.92154e-05,-1.38581e-05,3.75353e-06,0.0118431,-0.00277162,0.000750706,0.999291,-0.00198907,0.0376052,7.5846e-05,-0.00451314,0.488736,-1.01334,35.5625,1,62924,39154592
23,2,0.999291,-0.00198907,0.0376052,7.5846e-05,-0.732947,-0.0634464,9.78397,0.153614,-0.508416,1.00989,-0.00733218,-0.000646106,0.0978394,1,5.92154e-05,-1.38581e-05,3.75353e-06,0.0118431,-0.00277162,0.000750706,0.999291,-0.00198907,0.0376052,7.5846e-05,-0.00451314,0.488736,-1.01334,35.5625,1,62924,39154592
23,3,0.999291,-0.00198907,0.0376052,7.5846e-05,-0.732947,-0.0634464,9.78397,0.153614,-0.508416,1.00989,-0.00733218,-0.000646106,0.0978394,1,5.92154e-05,-1.38581e-05,3.75353e-06,0.0118431,-0.00277162,0.000750706,0.999291,-0.00198907,0.0376052,7.5846e-05,-0.00451314,0.488736,-1.01334,35.5625,1,62924,39154592
23,4,0.999291,-0.00195739,0.0375913,7.58594e-05,-0.733725,-0.052013,9.77797,0.156333,-0.494052,1.00106,-0.00733996,-0.000526548,0.0977794,1,3.26988e-05,-1.38673e-05,1.62241e-06,0.00653976,-0.00277346,0.000324481,0.999291,-0.00195739,0.0375913,7.58594e-05,-0.00207908,0.487731,-1.01287,35.5625,1,62925,39154692
24,1,0.999291,-0.00195739,0.0375913,7.58594e-05,-0.733725,-0.052013,9.77797,0.156333,-0.494052,1.00106,-0.00733996,-0.000526548,0.0977794,1,3.26988e-05,-1.38673e-05,1.62241e-06,0.00653976,-0.00277346,0.000324481,0.999291,-0.00195739,0.0375913,7.58594e-05,-0.00207908,0.487731,-1.01287,35.5625,1,62925,39154692
24,2,0.999291,-0.00195739,0.0375913,7.58594e-05,-0.733725,-0.052013,9.77797,0.156333,-0.494052,1.00106,-0.00733996,-0.000526548,0.0977794,1,3.26988e-05,-1.38673e-05,1.62241e-06,0.00653976,-0.00277346,0.000324481,0.999291,-0.00195739,0.0375913,7.58594e-05,-0.00207908,0.487731,-1.01287,35.5625,1,62925,39154692
24,3,0.999291,-0.00190818,0.0375998,8.31727e-05,-0.733758,-0.0656015,9.78971,0.162207,-0.510252,1.00892,-0.00733591,-0.000665956,0.0978971,1,5.0053e-05,8.47697e-06,9.58704e-06,0.0100106,0.00169539,0.00191741,0.999291,-0.00190818,0.0375998,8.31727e-05,0.000286154,0.49015,-1.01283,35.5625,1,62926,39154792
24,4,0.999291,-0.00190818,0.0375998,8.31727e-05,-0.733758,-0.0656015,9.78971,0.162207,-0.510252,1.00892,-0.00733591,-0.000665956,0.0978971,1,5.0053e-05,8.47697e-06,9.58704e-06,0.0100106,0.00169539,0.00191741,0.999291,-0.00190818,0.0375998,8.31727e-05,0.000286154,0.49015,-1.01283,35.5625,1,62926,39154792
25,1,0.999291,-0.00190818,0.0375998,8.31727e-05,-0.733758,-0.0656015,9.78971,0.162207,-0.510252,1.00892,-0.00733591,-0.000665956,0.0978971,1,5.0053e-05,8.47697e-06,9.58704e-06,0.0100106,0.00169539,0.00191741,0.999291,-0.00190818,0.0375998,8.31727e-05,0.000286154,0.49015,-1.01283,35.5625,1,62926,39154792
25,2,0.999291,-0.00187891,0.0375956,8.79991e-05,-0.746611,-0.0580102,9.78817,0.146588,-0.501827,1.00989,-0.00746691,-0.000586181,0.0978816,1,3.05734e-05,-4.1091e-06,6.28086e-06,0.00611469,-0.000821821,0.00125617,0.999291,-0.00187891,0.0375956,8.79991e-05,-0.000272326,0.49262,-1.01429,35.5625,1,62927,39154892
25,3,0.999291,-0.00187891,0.0375956,8.79991e-05,-0.746611,-0.0580102,9.78817,0.146588,-0.501827,1.00989,-0.00746691,-0.000586181,0.0978816,1,3.05734e-05,-4.1091e-06,6.28086e-06,0.00611469,-0.000821821,0.00125617,0.999291,-0.00187891,0.0375956,8.79991e-05,-0.000272326,0.49262,-1.01429,35.5625,1,62927,39154892
25,4,0.999291,-0.00187891,0.0375956,8.79991e-05,-0.746611,-0.0580102,9.78817,0.146588,-0.501827,1.00989,-0.00746691,-0.000586181,0.0978816,1,3.05734e-05,-4.1091e-06,6.28086e-06,0.00611469,-0.000821821,0.00125617,0.999291,-0.00187891,0.0375956,8.79991e-05,-0.000272326,0.49262,-1.01429,35.5625,1,62927,39154892
25,5,0.999292,-0.00181923,0.0375753,0.000103214,-0.738098,-0.071439,9.79208,0.151394,-0.519274,1.01112,-0.00738496,-0.000726321,0.0979205,1,5.95954e-05,-2.04725e-05,1.75439e-05,0.0119191,-0.0040945,0.00350879,0.999292,-0.00181923,0.0375753,0.000103214,-0.00172421,0.491674,-1.01531,35.5625,1,62928,39154992
25,6,0.999292,-0.00181923,0.0375753,0.000103214,-0.738098,-0.071439,9.79208,0.151394,-0.519274,1.01112,-0.00738496,-0.000726321,0.0979205,1,5.95954e-05,-2.04725e-05,1.75439e-05,0.0119191,-0.0040945,0.00350879,0.999292,-0.00181923,0.0375753,0.000103214,-0.00172421,0.491674,-1.01531,35.5625,1,62928,39154992
26,1,0.999292,-0.00181923,0.0375753,0.000103214,-0.738098,-0.071439,9.79208,0.151394,-0.519274,1.01112,-0.00738496,-0.000726321,0.0979205,1,5.95954e-05,-2.04725e-05,1.75439e-05,0.0119191,-0.0040945,0.00350879,0.999292,-0.00181923,0.0375753,0.000103214,-0.00172421,0.491674,-1.01531,35.5625,1,62928,39154992
26,2,0.999293,-0.00177567,0.0375586,0.000112776,-0.743735,-0.0653849,9.7847,0.145941,-0.51904,1.00614,-0.00744058,-0.000662804,0.0978467,1,4.4873e-05,-1.65739e-05,1.16452e-05,0.00897459,-0.00331478,0.00232904,0.999293,-0.00177567,0.0375586,0.000112776,-0.00217304,0.489727,-1.01535,35.5625,1,62929,39155092
26,3,0.999293,-0.00177567,0.0375586,0.000112776,-0.743735,-0.0653849,9.7847,0.145941,-0.51904,1.00614,-0.00744058,-0.000662804,0.0978467,1,4.4873e-05,-1.65739e-05,1.16452e-05,0.00897459,-0.00331478,0.00232904,0.999293,-0.00177567,0.0375586,0.000112776,-0.00217304,0.489727,-1.01535,35.5625,1,62929,39155092
26,4,0.999293,-0.00177567,0.0375586,0.000112776,-0.743735,-0.0653849,9.7847,0.145941,-0.51904,1.00614,-0.00744058,-0.000662804,0.0978467,1,4.4873e-05,-1.65739e-05,1.16452e-05,0.00897459,-0.00331478,0.00232904,0.999293,-0.00177567,0.0375586,0.000112776,-0.00217304,0.489727,-1.01535,35.5625,1,62929,39155092
26,5,0.999294,-0.00173793,0.0375355,0.000107872,-0.737413,-0.0550002,9.77118,0.148518,-0.502727,0.990238,-0.00737865,-0.000557602,0.0977115,1,3.9112e-05,-2.31244e-05,-2.96518e-06,0.0078224,-0.00462488,-0.000593036,0.999294,-0.00173793,0.0375355,0.000107872,-0.00265081,0.48732,-1.01692,35.5625,1,62930,39155192
26,6,0.999294,-0.00173793,0.0375355,0.000107872,-0.737413,-0.0550002,9.77118,0.148518,-0.502727,0.990238,-0.00737865,-0.000557602,0.0977115,1,3.9112e-05,-2.31244e-05,-2.96518e-06,0.0078224,-0.00462488,-0.000593036,0.999294,-0.00173793,0.0375355,0.000107872,-0.00265081,0.48732,-1.01692,35.5625,1,62930,39155192
185,1,0.999294,-0.00173793,0.0375355,0.000107872,-0.737413,-0.0550002,9.77118,0.148518,-0.502727,0.990238,-0.00737865,-0.000557602,0.0977115,1,3.9112e-05,-2.31244e-05,-2.96518e-06,0.0078224,-0.00462488,-0.000593036,0.999294,-0.00173793,0.0375355,0.000107872,-0.00265081,0.48732,-1.01692,35.5625,1,62930,39155192
185,2,0.999294,-0.00169161,0.0375191,0.000118968,-0.741668,-0.067015,9.78705,0.149823,-0.515399,1.00861,-0.00741988,-0.000679717,0.0978702,1,4.78735e-05,-1.64085e-05,1.32566e-05,0.0095747,-0.0032817,0.00265132,0.999294,-0.00169161,0.0375191,0.000118968,-0.00265035,0.488765,-1.01588,35.5625,1,62931,39155292
185,3,0.999294,-0.00169161,0.0375191,0.000118968,-0.741668,-0.067015,9.78705,0.149823,-0.515399,1.00861,-0.00741988,-0.000679717,0.0978702,1,4.78735e-05,-1.64085e-05,1.32566e-05,0.0095747,-0.0032817,0.00265132,0.999294,-0.00169161,0.0375191,0.000118968,-0.00265035,0.488765,-1.01588,35.5625,1,62931,39155292
185,4,0.999294,-0.00169161,0.0375191,0.000118968,-0.741668,-0.067015,9.78705,0.149823,-0.515399,1.00861,-0.00741988,-0.000679717,0.0978702,1,4.78735e-05,-1.64085e-05,1.32566e-05,0.0095747,-0.0032817,0.00265132,0.999294,-0.00169161,0.0375191,0.000118968,-0.00265035,0.488765,-1.01588,35.5625,1,62931,39155292
185,5,0.999295,-0.00163764,0.0374955,0.000127951,-0.735384,-0.0683456,9.7904,0.158287,-0.521344,1.01358,-0.00735847,-0.000694338,0.0979036,1,5.47003e-05,-2.37246e-05,1.16282e-05,0.0109401,-0.00474492,0.00232565,0.999295,-0.00163764,0.0374955,0.000127951,-0.00168293,0.492126,-1.01328,35.5625,1,62932,39155392
185,6,0.999295,-0.00163764,0.0374955,0.000127951,-0.735384,-0.0683456,9.7904,0.158287,-0.521344,1.01358,-0.00735847,-0.000694338,0.0979036,1,5.47003e-05,-2.37246e-05,1.16282e-05,0.0109401,-0.00474492,0.00232565,0.999295,-0.00163764,0.0374955,0.000127951,-0.00168293,0.492126,-1.01328,35.5625,1,62932,39155392
28,1,0.999295,-0.00163764,0.0374955,0.000127951,-0.735384,-0.0683456,9.7904,0.158287,-0.521344,1.01358,-0.00735847,-0.000694338,0.0979036,1,5.47003e-05,-2.37246e-05,1.16282e-05,0.0109401,-0.00474492,0.00232565,0.999295,-0.00163764,0.0374955,0.000127951,-0.00168293,0.492126,-1.01328,35.5625,1,62932,39155392
28,2,0.999296,-0.00159463,0.0374872,0.000129867,-0.739168,-0.0563232,9.77356,0.152532,-0.507217,0.996156,-0.00739332,-0.000572029,0.0977354,1,4.47109e-05,-8.45646e-06,3.83876e-06,0.00894219,-0.00169129,0.000767751,0.999296,-0.00159463,0.0374872,0.000129867,-0.00128817,0.492185,-1.01682,35.5625,1,62933,39155492
28,3,0.999296,-0.00159463,0.0374872,0.000129867,-0.739168,-0.0563232,9.77356,0.152532,-0.507217,0.996156,-0.00739332,-0.000572029,0.0977354,1,4.47109e-05,-8.45646e-06,3.83876e-06,0.00894219,-0.00169129,0.000767751,0.999296,-0.00159463,0.0374872,0.000129867,-0.00128817,0.492185,-1.01682,35.5625,1,62933,39155492
28,4,0.999296,-0.00159463,0.0374872,0.000129867,-0.739168,-0.0563232,9.77356,0.152532,-0.507217,0.996156,-0.00739332,-0.000572029,0.0977354,1,4.47109e-05,-8.45646e-06,3.83876e-06,0.00894219,-0.00169129,0.000767751,0.999296,-0.00159463,0.0374872,0.000129867,-0.00128817,0.492185,-1.01682,35.5625,1,62933,39155492
28,5,0.999296,-0.00154273,0.0374767,0.000136125,-0.738064,-0.0601603,9.78539,0.153028,-0.518233,1.00507,-0.00738271,-0.000612321,0.0978536,1,5.41042e-05,-1.05949e-05,8.77876e-06,0.0108208,-0.00211898,0.00175575,0.999296,-0.00154273,0.0374767,0.000136125,-0.0022798,0.490287,-1.01938,35.5625,1,62934,39155592
28,6,0.999296,-0.00154273,0.0374767,0.000136125,-0.738064,-0.0601603,9.78539,0.153028,-0.518233,1.00507,-0.00738271,-0.000612321,0.0978536,1,5.41042e-05,-1.05949e-05,8.77876e-06,0.0108208,-0.00211898,0.00175575,0.999296,-0.00154273,0.0374767,0.000136125,-0.0022798,0.490287,-1.01938,35.5625,1,62934,39155592
29,1,0.999296,-0.00154273,0.0374767,0.000136125,-0.738064,-0.0601603,9.78539,0.153028,-0.518233,1.00507,-0.00738271,-0.000612321,0.0978536,1,5.41042e-05,-1.05949e-05,8.77876e-06,0.0108208,-0.00211898,0.00175575,0.999296,-0.00154273,0.0374767,0.000136125,-0.0022798,0.490287,-1.01938,35.5625,1,62934,39155592
29,2,0.999297,-0.00150288,0.0374653,0.000152091,-0.747919,-0.0607148,9.78612,0.142947,-0.515866,1.00928,-0.00748144,-0.000615414,0.097861,1,4.08627e-05,-1.16153e-05,1.79821e-05,0.00817254,-0.00232305,0.00359642,0.999297,-0.00150288,0.0374653,0.000152091,-0.00320883,0.491235,-1.01733,35.5625,1,62935,39155692
29,3,0.999297,-0.00150288,0.0374653,0.000152091,-0.747919,-0.0607148,9.78612,0.142947,-0.515866,1.00928,-0.00748144,-0.000615414,0.097861,1,4.08627e-05,-1.16153e-05,1.79821e-05,0.00817254,-0.00232305,0.00359642,0.999297,-0.00150288,0.0374653,0.000152091,-0.00320883,0.491235,-1.01733,35.5625,1,62935,39155692
29,4,0.999297,-0.00150288,0.0374653,0.000152091,-0.747919,-0.0607148,9.78612,0.142947,-0.515866,1.00928,-0.00748144,-0.000615414,0.097861,1,4.08627e-05,-1.16153e-05,1.79821e-05,0.00817254,-0.00232305,0.00359642,0.999297,-0.00150288,0.0374653,0.000152091,-0.00320883,0.491235,-1.01733,35.5625,1,62935,39155692
29,5,0.999297,-0.00146475,0.03745,0.00016677,-0.735384,-0.0621767,9.76975,0.151077,-0.518567,0.993502,-0.00735686,-0.000629614,0.0976972,1,3.89051e-05,-1.55939e-05,1.66558e-05,0.00778102,-0.00311878,0.00333117,0.999297,-0.00146475,0.03745,0.00016677,-0.00213603,0.4897,-1.01384,35.5625,1,62936,39155792
29,6,0.999297,-0.00146475,0.03745,0.00016677,-0.735384,-0.0621767,9.76975,0.151077,-0.518567,0.993502,-0.00735686,-0.000629614,0.0976972,1,3.89051e-05,-1.55939e-05,1.66558e-05,0.00778102,-0.00311878,0.00333117,0.999297,-0.00146475,0.03745,0.00016677,-0.00213603,0.4897,-1.01384,35.5625,1,62936,39155792
30,1,0.999297,-0.00146475,0.03745,0.00016677,-0.735384,-0.0621767,9.76975,0.151077,-0.518567,0.993502,-0.00735686,-0.000629614,0.0976972,1,3.89051e-05,-1.55939e-05,1.66558e-05,0.00778102,-0.00311878,0.00333117,0.999297,-0.00146475,0.03745,0.00016677,-0.00213603,0.4897,-1.01384,35.5625,1,62936,39155792
30,2,0.999298,-0.00142727,0.037436,0.000174326,-0.735263,-0.0683885,9.78259,0.14975,-0.528185,1.00214,-0.00735541,-0.000691671,0.0978256,1,3.90484e-05,-1.4268e-05,9.94665e-06,0.00780968,-0.00285361,0.00198933,0.999298,-0.00142727,0.037436,0.000174326,-0.0011045,0.487714,-1.01237,35.5625,1,62937,39155892
30,3,0.999298,-0.00142727,0.037436,0.000174326,-0.735263,-0.0683885,9.78259,0.14975,-0.528185,1.00214,-0.00735541,-0.000691671,0.0978256,1,3.90484e-05,-1.4268e-05,9.94665e-06,0.00780968,-0.00285361,0.00198933,0.999298,-0.00142727,0.037436,0.000174326,-0.0011045,0.487714,-1.01237,35.5625,1,62937,39155892
30,4,0.999298,-0.00142727,0.037436,0.000174326,-0.735263,-0.0683885,9.78259,0.14975,-0.528185,1.00214,-0.00735541,-0.000691671,0.0978256,1,3.90484e-05,-1.4268e-05,9.94665e-06,0.00780968,-0.00285361,0.00198933,0.999298,-0.00142727,0.037436,0.000174326,-0.0011045,0.487714,-1.01237,35.5625,1,62937,39155892
31,1,0.999299,-0.001362,0.0374234,0.000179624,-0.746041,-0.0778729,9.78631,0.143648,-0.531272,1.00802,-0.00746291,-0.000792033,0.0978628,1,6.73812e-05,-1.28431e-05,7.75615e-06,0.0134762,-0.00256862,0.00155123,0.999299,-0.001362,0.0374234,0.000179624,-0.00018735,0.488221,-1.01388,35.5625,1,62938,39155992
31,2,0.999299,-0.001362,0.0374234,0.000179624,-0.746041,-0.0778729,9.78631,0.143648,-0.531272,1.00802,-0.00746291,-0.000792033,0.0978628,1,6.73812e-05,-1.28431e-05,7.75615e-06,0.0134762,-0.00256862,0.00155123,0.999299,-0.001362,0.0374234,0.000179624,-0.00018735,0.488221,-1.01388,35.5625,1,62938,39155992
31,3,0.999299,-0.001362,0.0374234,0.000179624,-0.746041,-0.0778729,9.78631,0.143648,-0.531272,1.00802,-0.00746291,-0.000792033,0.0978628,1,6.73812e-05,-1.28431e-05,7.75615e-06,0.0134762,-0.00256862,0.00155123,0.999299,-0.001362,0.0374234,0.000179624,-0.00018735,0.488221,-1.01388,35.5625,1,62938,39155992
31,4,0.999299,-0.00131936,0.0374224,0.000183082,-0.738012,-0.0686798,9.78497,0.143458,-0.522031,1.00219,-0.00738033,-0.000695715,0.0978496,1,4.50947e-05,-1.1043e-06,6.25448e-06,0.00901893,-0.000220861,0.0012509,0.999299,-0.00131936,0.0374224,0.000183082,-0.000762433,0.490221,-1.01636,35.5625,1,62939,39156092
190,1,0.999299,-0.00131936,0.0374224,0.000183082,-0.738012,-0.0686798,9.78497,0.143458,-0.522031,1.00219,-0.00738033,-0.000695715,0.0978496,1,4.50947e-05,-1.1043e-06,6.25448e-06,0.00901893,-0.000220861,0.0012509,0.999299,-0.00131936,0.0374224,0.000183082,-0.000762433,0.490221,-1.01636,35.5625,1,62939,39156092
190,2,0.999299,-0.00131936,0.0374224,0.000183082,-0.738012,-0.0686798,9.78497,0.143458,-0.522031,1.00219,-0.00738033,-0.000695715,0.0978496,1,4.50947e-05,-1.1043e-06,6.25448e-06,0.00901893,-0.000220861,0.0012509,0.999299,-0.00131936,0.0374224,0.000183082,-0.000762433,0.490221,-1.01636,35.5625,1,62939,39156092
190,3,0.999299,-0.00126744,0.0374176,0.00018512,-0.741586,-0.0549885,9.78239,0.14447,-0.513793,1.00534,-0.00741686,-0.000560665,0.0978238,1,5.47226e-05,-5.15419e-06,4.97529e-06,0.0109445,-0.00103084,0.000995057,0.999299,-0.00126744,0.0374176,0.00018512,-0.00276092,0.490291,-1.01938,35.5625,1,62940,39156192
190,4,0.999299,-0.00126744,0.0374176,0.00018512,-0.741586,-0.0549885,9.78239,0.14447,-0.513793,1.00534,-0.00741686,-0.000560665,0.0978238,1,5.47226e-05,-5.15419e-06,4.97529e-06,0.0109445,-0.00103084,0.000995057,0.999299,-0.00126744,0.0374176,0.00018512,-0.00276092,0.490291,-1.01938,35.5625,1,62940,39156192
190,5,0.999299,-0.00126744,0.0374176,0.00018512,-0.741586,-0.0549885,9.78239,0.14447,-0.513793,1.00534,-0.00741686,-0.000560665,0.0978238,1,5.47226e-05,-5.15419e-06,4.97529e-06,0.0109445,-0.00103084,0.000995057,0.999299,-0.00126744,0.0374176,0.00018512,-0.00276092,0.490291,-1.01938,35.5625,1,62940,39156192
190,6,0.9993,-0.00121911,0.0373995,0.000195402,-0.754948,-0.0609945,9.78347,0.130606,-0.519313,1.00718,-0.00755305,-0.000620152,0.0978343,1,5.11576e-05,-1.83209e-05,1.30067e-05,0.0102315,-0.00366418,0.00260133,0.9993,-0.00121911,0.0373995,0.000195402,-0.00371889,0.490778,-1.01886,35.5625,1,62941,39156292
190,7,0.9993,-0.00121911,0.0373995,0.000195402,-0.754948,-0.0609945,9.78347,0.130606,-0.519313,1.00718,-0.00755305,-0.000620152,0.0978343,1,5.11576e-05,-1.83209e-05,1.30067e-05,0.0102315,-0.00366418,0.00260133,0.9993,-0.00121911,0.0373995,0.000195402,-0.00371889,0.490778,-1.01886,35.5625,1,62941,39156292
190,8,0.9993,-0.00121911,0.0373995,0.000195402,-0.754948,-0.0609945,9.78347,0.130606,-0.519313,1.00718,-0.00755305,-0.000620152,0.0978343,1,5.11576e-05,-1.83209e-05,1.30067e-05,0.0102315,-0.00366418,0.00260133,0.9993,-0.00121911,0.0373995,0.000195402,-0.00371889,0.490778,-1.01886,35.5625,1,62941,39156292
33,1,0.9993,-0.00117859,0.037393,0.000201036,-0.734979,-0.0704218,9.78731,0.154877,-0.531924,1.01338,-0.00735114,-0.000712961,0.0978729,1,4.40627e-05,-6.94013e-06,8.00966e-06,0.00881254,-0.00138803,0.00160193,0.9993,-0.00117859,0.037393,0.000201036,-0.0021441,0.490188,-1.01383,35.5625,1,62942,39156392
33,2,0.9993,-0.00117859,0.037393,0.000201036,-0.734979,-0.0704218,9.78731,0.154877,-0.531924,1.01338,-0.00735114,-0.000712961,0.0978729,1,4.40627e-05,-6.94013e-06,8.00966e-06,0.00881254,-0.00138803,0.00160193,0.9993,-0.00117859,0.037393,0.000201036,-0.0021441,0.490188,-1.01383,35.5625,1,62942,39156392
33,3,0.9993,-0.00117859,0.037393,0.000201036,-0.734979,-0.0704218,9.78731,0.154877,-0.531924,1.01338,-0.00735114,-0.000712961,0.0978729,1,4.40627e-05,-6.94013e-06,8.00966e-06,0.00881254,-0.00138803,0.00160193,0.9993,-0.00117859,0.037393,0.000201036,-0.0021441,0.490188,-1.01383,35.5625,1,62942,39156392
33,4,0.9993,-0.00113734,0.0373879,0.000210181,-0.754431,-0.0545604,9.78521,0.133847,-0.515703,1.01121,-0.00754538,-0.000554323,0.0978519,1,4.36269e-05,-5.50429e-06,1.204e-05,0.00872538,-0.00110086,0.00240801,0.9993,-0.00113734,0.0373879,0.000210181,-0.00160557,0.48966,-1.01182,35.5625,1,62943,39156492
34,1,0.9993,-0.00113734,0.0373879,0.000210181,-0.754431,-0.0545604,9.78521,0.133847,-0.515703,1.01121,-0.00754538,-0.000554323,0.0978519,1,4.36269e-05,-5.50429e-06,1.204e-05,0.00872538,-0.00110086,0.00240801,0.9993,-0.00113734,0.0373879,0.000210181,-0.00160557,0.48966,-1.01182,35.5625,1,62943,39156492
34,2,0.9993,-0.00113734,0.0373879,0.000210181,-0.754431,-0.0545604,9.78521,0.133847,-0.515703,1.01121,-0.00754538,-0.000554323,0.0978519,1,4.36269e-05,-5.50429e-06,1.204e-05,0.00872538,-0.00110086,0.00240801,0.9993,-0.00113734,0.0373879,0.000210181,-0.00160557,0.48966,-1.01182,35.5625,1,62943,39156492
34,3,0.999301,-0.00108541,0.0373705,0.000224361,-0.739254,-0.0676337,9.78636,0.149764,-0.533429,1.00506,-0.00739602,-0.000687264,0.0978632,1,5.44917e-05,-1.79261e-05,1.76559e-05,0.0108983,-0.00358521,0.00353118,0.999301,-0.00108541,0.0373705,0.000224361,-0.00118567,0.491147,-1.01331,35.5625,1,62944,39156592
34,4,0.999301,-0.00108541,0.0373705,0.000224361,-0.739254,-0.0676337,9.78636,0.149764,-0.533429,1.00506,-0.00739602,-0.000687264,0.0978632,1,5.44917e-05,-1.79261e-05,1.76559e-05,0.0108983,-0.00358521,0.00353118,0.999301,-0.00108541,0.0373705,0.000224361,-0.00118567,0.491147,-1.01331,35.5625,1,62944,39156592
35,1,0.999301,-0.00108541,0.0373705,0.000224361,-0.739254,-0.0676337,9.78636,0.149764,-0.533429,1.00506,-0.00739602,-0.000687264,0.0978632,1,5.44917e-05,-1.79261e-05,1.76559e-05,0.0108983,-0.00358521,0.00353118,0.999301,-0.00108541,0.0373705,0.000224361,-0.00118567,0.491147,-1.01331,35.5625,1,62944,39156592
35,2,0.999302,-0.00104766,0.0373535,0.000228795,-0.750458,-0.079798,9.77513,0.132289,-0.543885,0.995113,-0.007508,-0.000806196,0.097751,1,4.14681e-05,-1.75572e-05,7.22697e-06,0.00829363,-0.00351143,0.00144539,0.999302,-0.00104766,0.0373535,0.000228795,-0.0013005,0.492194,-1.01732,35.5625,1,62945,39156692
35,3,0.999302,-0.00104766,0.0373535,0.000228795,-0.750458,-0.079798,9.77513,0.132289,-0.543885,0.995113,-0.007508,-0.000806196,0.097751,1,4.14681e-05,-1.75572e-05,7.22697e-06,0.00829363,-0.00351143,0.00144539,0.999302,-0.00104766,0.0373535,0.000228795,-0.0013005,0.492194,-1.01732,35.5625,1,62945,39156692
35,4,0.999302,-0.00104766,0.0373535,0.000228795,-0.750458,-0.079798,9.77513,0.132289,-0.543885,0.995113,-0.007508,-0.000806196,0.097751,1,4.14681e-05,-1.75572e-05,7.22697e-06,0.00829363,-0.00351143,0.00144539,0.999302,-0.00104766,0.0373535,0.000228795,-0.0013005,0.492194,-1.01732,35.5625,1,62945,39156692
36,1,0.999302,-0.00101188,0.0373422,0.000230587,-0.74136,-0.0668014,9.78841,0.143894,-0.533074,1.00515,-0.00741592,-0.000676129,0.0978838,1,4.10881e-05,-1.18856e-05,4.79819e-06,0.00821762,-0.00237712,0.000959638,0.999302,-0.00101188,0.0373422,0.000230587,-0.00316421,0.489275,-1.01687,35.5625,1,62946,39156792
36,2,0.999302,-0.00101188,0.0373422,0.000230587,-0.74136,-0.0668014,9.78841,0.143894,-0.533074,1.00515,-0.00741592,-0.000676129,0.0978838,1,4.10881e-05,-1.18856e-05,4.79819e-06,0.00821762,-0.00237712,0.000959638,0.999302,-0.00101188,0.0373422,0.000230587,-0.00316421,0.489275,-1.01687,35.5625,1,62946,39156792
36,3,0.999302,-0.00101188,0.0373422,0.000230587,-0.74136,-0.0668014,9.78841,0.143894,-0.533074,1.00515,-0.00741592,-0.000676129,0.0978838,1,4.10881e-05,-1.18856e-05,4.79819e-06,0.00821762,-0.00237712,0.000959638,0.999302,-0.00101188,0.0373422,0.000230587,-0.00316421,0.489275,-1.01687,35.5625,1,62946,39156792
36,4,0.999302,-0.000968224,0.03734,0.000228388,-0.73982,-0.0665987,9.77787,0.145755,-0.536627,0.997375,-0.00739877,-0.000675445,0.0977786,1,4.84381e-05,-2.90185e-06,-9.64836e-07,0.00968762,-0.000580371,-0.000192967,0.999302,-0.000968224,0.03734,0.000228388,-0.00404482,0.487295,-1.01489,35.5625,1,62947,39156892
36,5,0.999302,-0.000968224,0.03734,0.000228388,-0.73982,-0.0665987,9.77787,0.145755,-0.536627,0.997375,-0.00739877,-0.000675445,0.0977786,1,4.84381e-05,-2.90185e-06,-9.64836e-07,0.00968762,-0.000580371,-0.000192967,0.999302,-0.000968224,0.03734,0.000228388,-0.00404482,0.487295,-1.01489,35.5625,1,62947,39156892
36,6,0.999302,-0.000968224,0.03734,0.000228388,-0.73982,-0.0665987,9.77787,0.145755,-0.536627,0.997375,-0.00739877,-0.000675445,0.0977786,1,4.84381e-05,-2.90185e-06,-9.64836e-07,0.00968762,-0.000580371,-0.000192967,0.999302,-0.000968224,0.03734,0.000228388,-0.00404482,0.487295,-1.01489,35.5625,1,62947,39156892
37,1,0.999302,-0.00092409,0.0373337,0.000230119,-0.734292,-0.0673001,9.78598,0.151664,-0.535408,1.00636,-0.00734429,-0.000682389,0.0978596,1,4.77452e-05,-7.04433e-06,2.93744e-06,0.00954904,-0.00140887,0.000587489,0.999302,-0.00092409,0.0373337,0.000230119,-0.00258867,0.48872,-1.01335,35.5625,1,62948,39156992
37,2,0.999302,-0.00092409,0.0373337,0.000230119,-0.734292,-0.0673001,9.78598,0.151664,-0.535408,1.00636,-0.00734429,-0.000682389,0.0978596,1,4.77452e-05,-7.04433e-06,2.93744e-06,0.00954904,-0.00140887,0.000587489,0.999302,-0.00092409,0.0373337,0.000230119,-0.00258867,0.48872,-1.01335,35.5625,1,62948,39156992
37,3,0.999302,-0.00092409,0.0373337,0.000230119,-0.734292,-0.0673001,9.78598,0.151664,-0.535408,1.00636,-0.00734429,-0.000682389,0.0978596,1,4.77452e-05,-7.04433e-06,2.93744e-06,0.00954904,-0.00140887,0.000587489,0.999302,-0.00092409,0.0373337,0.000230119,-0.00258867,0.48872,-1.01335,35.5625,1,62948,39156992
37,4,0.999302,-0.000878138,0.0373361,0.000229457,-0.743301,-0.0636489,9.78368,0.1462,-0.530851,1.00483,-0.00743267,-0.000646238,0.0978368,1,4.96134e-05,1.70961e-06,2.74762e-06,0.00992268,0.000341922,0.000549525,0.999302,-0.000878138,0.0373361,0.000229457,-0.00211943,0.49017,-1.01282,35.5625,1,62949,39157092
38,1,0.999302,-0.000878138,0.0373361,0.000229457,-0.743301,-0.0636489,9.78368,0.1462,-0.530851,1.00483,-0.00743267,-0.000646238,0.0978368,1,4.96134e-05,1.70961e-06,2.74762e-06,0.00992268,0.000341922,0.000549525,0.999302,-0.000878138,0.0373361,0.000229457,-0.00211943,0.49017,-1.01282,35.5625,1,62949,39157092
38,2,0.999302,-0.000878138,0.0373361,0.000229457,-0.743301,-0.0636489,9.78368,0.1462,-0.530851,1.00483,-0.00743267,-0.000646238,0.0978368,1,4.96134e-05,1.70961e-06,2.74762e-06,0.00992268,0.000341922,0.000549525,0.999302,-0.000878138,0.0373361,0.000229457,-0.00211943,0.49017,-1.01282,35.5625,1,62949,39157092
38,3,0.999303,-0.000842591,0.0373249,0.000219305,-0.735986,-0.0657043,9.78803,0.15072,-0.53982,1.00734,-0.00736217,-0.000664796,0.0978801,1,4.0073e-05,-1.17681e-05,-6.24706e-06,0.0080146,-0.00235362,-0.00124941,0.999303,-0.000842591,0.0373249,0.000219305,-0.00165065,0.490175,-1.01332,35.5625,1,62950,39157192
38,4,0.999303,-0.000842591,0.0373249,0.000219305,-0.735986,-0.0657043,9.78803,0.15072,-0.53982,1.00734,-0.00736217,-0.000664796,0.0978801,1,4.0073e-05,-1.17681e-05,-6.24706e-06,0.0080146,-0.00235362,-0.00124941,0.999303,-0.000842591,0.0373249,0.000219305,-0.00165065,0.490175,-1.01332,35.5625,1,62950,39157192
38,5,0.999303,-0.000842591,0.0373249,0.000219305,-0.735986,-0.0657043,9.78803,0.15072,-0.53982,1.00734,-0.00736217,-0.000664796,0.0978801,1,4.0073e-05,-1.17681e-05,-6.24706e-06,0.0080146,-0.00235362,-0.00124941,0.999303,-0.000842591,0.0373249,0.000219305,-0.00165065,0.490175,-1.01332,35.5625,1,62950,39157192
38,6,0.999303,-0.000796882,0.0373224,0.000225056,-0.745971,-0.0707381,9.77449,0.135351,-0.537942,0.994539,-0.00746035,-0.000717377,0.0977448,1,5.03752e-05,-3.33815e-06,9.92069e-06,0.010075,-0.00066763,0.00198414,0.999303,-0.000796882,0.0373224,0.000225056,-0.00126395,0.490722,-1.01685,35.5625,1,62951,39157292
39,1,0.999303,-0.000796882,0.0373224,0.000225056,-0.745971,-0.0707381,9.77449,0.135351,-0.537942,0.994539,-0.00746035,-0.000717377,0.0977448,1,5.03752e-05,-3.33815e-06,9.92069e-06,0.010075,-0.00066763,0.00198414,0.999303,-0.000796882,0.0373224,0.000225056,-0.00126395,0.490722,-1.01685,35.5625,1,62951,39157292
39,2,0.999303,-0.000796882,0.0373224,0.000225056,-0.745971,-0.0707381,9.77449,0.135351,-0.537942,0.994539,-0.00746035,-0.000717377,0.0977448,1,5.03752e-05,-3.33815e-06,9.92069e-06,0.010075,-0.00066763,0.00198414,0.999303,-0.000796882,0.0373224,0.000225056,-0.00126395,0.490722,-1.01685,35.5625,1,62951,39157292
39,3,0.999304,-0.000760848,0.0373081,0.000226669,-0.735883,-0.0666484,9.78736,0.148416,-0.538462,1.0034,-0.00736178,-0.000675154,0.0978733,1,4.37926e-05,-1.51172e-05,6.58263e-06,0.00875853,-0.00302345,0.00131653,0.999304,-0.000760848,0.0373081,0.000226669,-0.000811778,0.490257,-1.01838,35.5625,1,62952,39157392
39,4,0.999304,-0.000760848,0.0373081,0.000226669,-0.735883,-0.0666484,9.78736,0.148416,-0.538462,1.0034,-0.00736178,-0.000675154,0.0978733,1,4.37926e-05,-1.51172e-05,6.58263e-06,0.00875853,-0.00302345,0.00131653,0.999304,-0.000760848,0.0373081,0.000226669,-0.000811778,0.490257,-1.01838,35.5625,1,62952,39157392
40,1,0.999304,-0.000760848,0.0373081,0.000226669,-0.735883,-0.0666484,9.78736,0.148416,-0.538462,1.0034,-0.00736178,-0.000675154,0.0978733,1,4.37926e-05,-1.51172e-05,6.58263e-06,0.00875853,-0.00302345,0.00131653,0.999304,-0.000760848,0.0373081,0.000226669,-0.000811778,0.490257,-1.01838,35.5625,1,62952,39157392
40,2,0.999304,-0.00071847,0.0372967,0.000228169,-0.756985,-0.0679256,9.79122,0.130621,-0.538492,1.01062,-0.00757225,-0.000689559,0.0979119,1,5.19809e-05,-1.23027e-05,8.13792e-06,0.0103962,-0.00246054,0.00162758,0.999304,-0.00071847,0.0372967,0.000228169,-0.00366574,0.489775,-1.01736,35.5625,1,62953,39157492
40,3,0.999304,-0.00071847,0.0372967,0.000228169,-0.756985,-0.0679256,9.79122,0.130621,-0.538492,1.01062,-0.00757225,-0.000689559,0.0979119,1,5.19809e-05,-1.23027e-05,8.13792e-06,0.0103962,-0.00246054,0.00162758,0.999304,-0.00071847,0.0372967,0.000228169,-0.00366574,0.489775,-1.01736,35.5625,1,62953,39157492
40,4,0.999304,-0.00071847,0.0372967,0.000228169,-0.756985,-0.0679256,9.79122,0.130621,-0.538492,1.01062,-0.00757225,-0.000689559,0.0979119,1,5.19809e-05,-1.23027e-05,8.13792e-06,0.0103962,-0.00246054,0.00162758,0.999304,-0.00071847,0.0372967,0.000228169,-0.00366574,0.489775,-1.01736,35.5625,1,62953,39157492
41,1,0.999304,-0.000689372,0.0372917,0.000233494,-0.72896,-0.0601959,9.77921,0.153471,-0.537362,0.997057,-0.00729067,-0.000609258,0.097792,1,3.71039e-05,-5.49819e-06,2.8927e-06,0.00742078,-0.00109964,0.000578541,0.999304,-0.000689372,0.0372917,0.000233494,-0.00261334,0.488738,-1.01436,35.5625,1,62954,39157592
41,2,0.999304,-0.000689372,0.0372917,0.000233494,-0.72896,-0.0601959,9.77921,0.153471,-0.537362,0.997057,-0.00729067,-0.000609258,0.097792,1,3.71039e-05,-5.49819e-06,2.8927e-06,0.00742078,-0.00109964,0.000578541,0.999304,-0.000689372,0.0372917,0.000233494,-0.00261334,0.488738,-1.01436,35.5625,1,62954,39157592
41,3,0.999304,-0.000689372,0.0372917,0.000233494,-0.72896,-0.0601959,9.77921,0.153471,-0.537362,0.997057,-0.00729067,-0.000609258,0.097792,1,3.71039e-05,-5.49819e-06,2.8927e-06,0.00742078,-0.00109964,0.000578541,0.999304,-0.000689372,0.0372917,0.000233494,-0.00261334,0.488738,-1.01436,35.5625,1,62954,39157592
41,4,0.999305,-0.000646605,0.0372833,0.000236999,-0.731563,-0.0731225,9.77912,0.152278,-0.546263,1.00262,-0.00731745,-0.000740388,0.097791,1,4.63836e-05,-9.34308e-06,6.20639e-06,0.00927672,-0.00186862,0.00124128,0.999305,-0.000646605,0.0372833,0.000236999,-0.00164638,0.490654,-1.01281,35.5625,1,62955,39157692
42,1,0.999305,-0.000646605,0.0372833,0.000236999,-0.731563,-0.0731225,9.77912,0.152278,-0.546263,1.00262,-0.00731745,-0.000740388,0.097791,1,4.63836e-05,-9.34308e-06,6.20639e-06,0.00927672,-0.00186862,0.00124128,0.999305,-0.000646605,0.0372833,0.000236999,-0.00164638,0.490654,-1.01281,35.5625,1,62955,39157692
42,2,0.999305,-0.000646605,0.0372833,0.000236999,-0.731563,-0.0731225,9.77912,0.152278,-0.546263,1.00262,-0.00731745,-0.000740388,0.097791,1,4.63836e-05,-9.34308e-06,6.20639e-06,0.00927672,-0.00186862,0.00124128,0.999305,-0.000646605,0.0372833,0.000236999,-0.00164638,0.490654,-1.01281,35.5625,1,62955,39157692
42,3,0.999305,-0.00058118,0.0372796,0.000233612,-0.738383,-0.0678568,9.78226,0.146546,-0.542953,1.00394,-0.00738462,-0.000692075,0.0978225,1,6.87428e-05,-4.08293e-06,3.87409e-06,0.0137486,-0.000816585,0.000774817,0.999305,-0.00058118,0.0372796,0.000233612,-0.000741107,0.492615,-1.01378,35.5625,1,62956,39157792
42,4,0.999305,-0.00058118,0.0372796,0.000233612,-0.738383,-0.0678568,9.78226,0.146546,-0.542953,1.00394,-0.00738462,-0.000692075,0.0978225,1,6.87428e-05,-4.08293e-06,3.87409e-06,0.0137486,-0.000816585,0.000774817,0.999305,-0.00058118,0.0372796,0.000233612,-0.000741107,0.492615,-1.01378,35.5625,1,62956,39157792
42,5,0.999305,-0.00058118,0.0372796,0.000233612,-0.738383,-0.0678568,9.78226,0.146546,-0.542953,1.00394,-0.00738462,-0.000692075,0.0978225,1,6.87428e-05,-4.08293e-06,3.87409e-06,0.0137486,-0.000816585,0.000774817,0.999305,-0.00058118,0.0372796,0.000233612,-0.000741107,0.492615,-1.01378,35.5625,1,62956,39157792
42,6,0.999305,-0.00053451,0.0372747,0.000233251,-0.7364,-0.0538808,9.78339,0.148389,-0.532058,1.00277,-0.00736503,-0.00054945,0.0978338,1,5.36126e-05,-5.34205e-06,1.02871e-05,0.0107225,-0.00106841,0.00205742,0.999305,-0.00053451,0.0372747,0.000233251,-0.000786187,0.49313,-1.01528,35.5625,1,62957,39157892
43,1,0.999305,-0.00053451,0.0372747,0.000233251,-0.7364,-0.0538808,9.78339,0.148389,-0.532058,1.00277,-0.00736503,-0.00054945,0.0978338,1,5.36126e-05,-5.34205e-06,1.02871e-05,0.0107225,-0.00106841,0.00205742,0.999305,-0.00053451,0.0372747,0.000233251,-0.000786187,0.49313,-1.01528,35.5625,1,62957,39157892
43,2,0.999305,-0.00053451,0.0372747,0.000233251,-0.7364,-0.0538808,9.78339,0.148389,-0.532058,1.00277,-0.00736503,-0.00054945,0.0978338,1,5.36126e-05,-5.34205e-06,1.02871e-05,0.0107225,-0.00106841,0.00205742,0.999305,-0.00053451,0.0372747,0.000233251,-0.000786187,0.49313,-1.01528,35.5625,1,62957,39157892
43,3,0.999305,-0.000498565,0.037271,0.000231526,-0.749207,-0.0733037,9.78365,0.132938,-0.553726,1.00549,-0.00749277,-0.000742031,0.0978364,1,4.51617e-05,-3.62663e-06,1.05015e-05,0.00903234,-0.000725325,0.0021003,0.999305,-0.000498565,0.037271,0.000231526,-0.00174934,0.490247,-1.01736,35.5625,1,62958,39157992
43,4,0.999305,-0.000498565,0.037271,0.000231526,-0.749207,-0.0733037,9.78365,0.132938,-0.553726,1.00549,-0.00749277,-0.000742031,0.0978364,1,4.51617e-05,-3.62663e-06,1.05015e-05,0.00903234,-0.000725325,0.0021003,0.999305,-0.000498565,0.037271,0.000231526,-0.00174934,0.490247,-1.01736,35.5625,1,62958,39157992
44,1,0.999305,-0.000498565,0.037271,0.000231526,-0.749207,-0.0733037,9.78365,0.132938,-0.553726,1.00549,-0.00749277,-0.000742031,0.0978364,1,4.51617e-05,-3.62663e-06,1.05015e-05,0.00903234,-0.000725325,0.0021003,0.999305,-0.000498565,0.037271,0.000231526,-0.00174934,0.490247,-1.01736,35.5625,1,62958,39157992
44,2,0.999305,-0.000456034,0.0372741,0.000244817,-0.757194,-0.067362,9.77934,0.128206,-0.545534,0.99909,-0.00757146,-0.000684258,0.0977933,1,5.30109e-05,2.31713e-06,1.78106e-05,0.0106022,0.000463426,0.00356212,0.999305,-0.000456034,0.0372741,0.000244817,-0.00267929,0.488304,-1.0174,35.5625,1,62959,39158092
44,3,0.999305,-0.000456034,0.0372741,0.000244817,-0.757194,-0.067362,9.77934,0.128206,-0.545534,0.99909,-0.00757146,-0.000684258,0.0977933,1,5.30109e-05,2.31713e-06,1.78106e-05,0.0106022,0.000463426,0.00356212,0.999305,-0.000456034,0.0372741,0.000244817,-0.00267929,0.488304,-1.0174,35.5625,1,62959,39158092
44,4,0.999305,-0.000456034,0.0372741,0.000244817,-0.757194,-0.067362,9.77934,0.128206,-0.545534,0.99909,-0.00757146,-0.000684258,0.0977933,1,5.30109e-05,2.31713e-06,1.78106e-05,0.0106022,0.000463426,0.00356212,0.999305,-0.000456034,0.0372741,0.000244817,-0.00267929,0.488304,-1.0174,35.5625,1,62959,39158092
44,5,0.999305,-0.000405803,0.037273,0.000245825,-0.739439,-0.0649417,9.78806,0.147327,-0.544271,1.00813,-0.00739498,-0.000660909,0.0978805,1,5.8705e-05,-2.99499e-06,-1.67058e-08,0.011741,-0.000598999,-3.34117e-06,0.999305,-0.000405803,0.037273,0.000245825,-0.00210375,0.487749,-1.01388,35.5625,1,62960,39158192
44,6,0.999305,-0.000405803,0.037273,0.000245825,-0.739439,-0.0649417,9.78806,0.147327,-0.544271,1.00813,-0.00739498,-0.000660909,0.0978805,1,5.8705e-05,-2.99499e-06,-1.67058e-08,0.011741,-0.000598999,-3.34117e-06,0.999305,-0.000405803,0.037273,0.000245825,-0.00210375,0.487749,-1.01388,35.5625,1,62960,39158192
45,1,0.999305,-0.000405803,0.037273,0.000245825,-0.739439,-0.0649417,9.78806,0.147327,-0.544271,1.00813,-0.00739498,-0.000660909,0.0978805,1,5.8705e-05,-2.99499e-06,-1.67058e-08,0.011741,-0.000598999,-3.34117e-06,0.999305,-0.000405803,0.037273,0.000245825,-0.00210375,0.487749,-1.01388,35.5625,1,62960,39158192
45,2,0.999305,-0.000345398,0.0372668,0.000272152,-0.733961,-0.0623523,9.78263,0.145311,-0.542143,1.00393,-0.00734122,-0.000635883,0.0978261,1,6.11078e-05,-8.36903e-06,2.75297e-05,0.0122216,-0.00167381,0.00550595,0.999305,-0.000345398,0.0372668,0.000272152,-0.00258014,0.489677,-1.01232,35.5625,1,62961,39158292
45,3,0.999305,-0.000345398,0.0372668,0.000272152,-0.733961,-0.0623523,9.78263,0.145311,-0.542143,1.00393,-0.00734122,-0.000635883,0.0978261,1,6.11078e-05,-8.36903e-06,2.75297e-05,0.0122216,-0.00167381,0.00550595,0.999305,-0.000345398,0.0372668,0.000272152,-0.00258014,0.489677,-1.01232,35.5625,1,62961,39158292
45,4,0.999305,-0.000345398,0.0372668,0.000272152,-0.733961,-0.0623523,9.78263,0.145311,-0.542143,1.00393,-0.00734122,-0.000635883,0.0978261,1,6.11078e-05,-8.36903e-06,2.75297e-05,0.0122216,-0.00167381,0.00550595,0.999305,-0.000345398,0.0372668,0.000272152,-0.00258014,0.489677,-1.01232,35.5625,1,62961,39158292
46,1,0.999306,-0.000292135,0.0372482,0.000275998,-0.736296,-0.066807,9.77515,0.148426,-0.547253,0.995305,-0.00736678,-0.000678981,0.0977511,1,5.52368e-05,-1.95725e-05,7.65392e-06,0.0110474,-0.0039145,0.00153078,0.999306,-0.000292135,0.0372482,0.000275998,-0.00311014,0.491163,-1.0133,35.5625,1,62962,39158392
46,2,0.999306,-0.000292135,0.0372482,0.000275998,-0.736296,-0.066807,9.77515,0.148426,-0.547253,0.995305,-0.00736678,-0.000678981,0.0977511,1,5.52368e-05,-1.95725e-05,7.65392e-06,0.0110474,-0.0039145,0.00153078,0.999306,-0.000292135,0.0372482,0.000275998,-0.00311014,0.491163,-1.0133,35.5625,1,62962,39158392
46,3,0.999306,-0.000292135,0.0372482,0.000275998,-0.736296,-0.066807,9.77515,0.148426,-0.547253,0.995305,-0.00736678,-0.000678981,0.0977511,1,5.52368e-05,-1.95725e-05,7.65392e-06,0.0110474,-0.0039145,0.00153078,0.999306,-0.000292135,0.0372482,0.000275998,-0.00311014,0.491163,-1.0133,35.5625,1,62962,39158392
46,4,0.999306,-0.00023254,0.0372416,0.000277863,-0.742115,-0.0662395,9.78027,0.142111,-0.549074,0.99872,-0.00742258,-0.000675082,0.0978025,1,6.44271e-05,-7.34609e-06,5.66778e-06,0.0128854,-0.00146922,0.00113356,0.999306,-0.00023254,0.0372416,0.000277863,-0.00315096,0.492156,-1.01428,35.5625,1,62963,39158492
47,1,0.999306,-0.00023254,0.0372416,0.000277863,-0.742115,-0.0662395,9.78027,0.142111,-0.549074,0.99872,-0.00742258,-0.000675082,0.0978025,1,6.44271e-05,-7.34609e-06,5.66778e-06,0.0128854,-0.00146922,0.00113356,0.999306,-0.00023254,0.0372416,0.000277863,-0.00315096,0.492156,-1.01428,35.5625,1,62963,39158492
47,2,0.999306,-0.00023254,0.0372416,0.000277863,-0.742115,-0.0662395,9.78027,0.142111,-0.549074,0.99872,-0.00742258,-0.000675082,0.0978025,1,6.44271e-05,-7.34609e-06,5.66778e-06,0.0128854,-0.00146922,0.00113356,0.999306,-0.00023254,0.0372416,0.000277863,-0.00315096,0.492156,-1.01428,35.5625,1,62963,39158492
47,3,0.999307,-0.000198374,0.0372317,0.000289206,-0.734845,-0.0687299,9.787,0.15054,-0.552362,1.00901,-0.00735035,-0.000695932,0.0978698,1,4.29862e-05,-9.82161e-06,1.48786e-05,0.00859725,-0.00196432,0.00297572,0.999307,-0.000198374,0.0372317,0.000289206,-0.00175314,0.491214,-1.01684,35.5625,1,62964,39158592
47,4,0.999307,-0.000198374,0.0372317,0.000289206,-0.734845,-0.0687299,9.787,0.15054,-0.552362,1.00901,-0.00735035,-0.000695932,0.0978698,1,4.29862e-05,-9.82161e-06,1.48786e-05,0.00859725,-0.00196432,0.00297572,0.999307,-0.000198374,0.0372317,0.000289206,-0.00175314,0.491214,-1.01684,35.5625,1,62964,39158592
48,1,0.999307,-0.000198374,0.0372317,0.000289206,-0.734845,-0.0687299,9.787,0.15054,-0.552362,1.00901,-0.00735035,-0.000695932,0.0978698,1,4.29862e-05,-9.82161e-06,1.48786e-05,0.00859725,-0.00196432,0.00297572,0.999307,-0.000198374,0.0372317,0.000289206,-0.00175314,0.491214,-1.01684,35.5625,1,62964,39158592
48,2,0.999307,-0.000151099,0.0372299,0.000290462,-0.735484,-0.0513611,9.78069,0.146198,-0.541408,0.996861,-0.00735545,-0.000525785,0.0978068,1,6.15493e-05,-3.17941e-06,9.0598e-06,0.0123099,-0.000635881,0.00181196,0.999307,-0.000151099,0.0372299,0.000290462,-0.00221812,0.490242,-1.01686,35.5625,1,62965,39158692
48,3,0.999307,-0.000151099,0.0372299,0.000290462,-0.735484,-0.0513611,9.78069,0.146198,-0.541408,0.996861,-0.00735545,-0.000525785,0.0978068,1,6.15493e-05,-3.17941e-06,9.0598e-06,0.0123099,-0.000635881,0.00181196,0.999307,-0.000151099,0.0372299,0.000290462,-0.00221812,0.490242,-1.01686,35.5625,1,62965,39158692
48,4,0.999307,-0.000151099,0.0372299,0.000290462,-0.735484,-0.0513611,9.78069,0.146198,-0.541408,0.996861,-0.00735545,-0.000525785,0.0978068,1,6.15493e-05,-3.17941e-06,9.0598e-06,0.0123099,-0.000635881,0.00181196,0.999307,-0.000151099,0.0372299,0.000290462,-0.00221812,0.490242,-1.01686,35.5625,1,62965,39158692
48,5,0.999307,-0.000111605,0.0372315,0.000276715,-0.73101,-0.0584181,9.7867,0.150563,-0.545718,1.00769,-0.00731005,-0.000594537,0.097867,1,5.35753e-05,3.18526e-07,-8.90158e-06,0.0107151,6.37052e-05,-0.00178032,0.999307,-0.000111605,0.0372315,0.000276715,-0.00355471,0.489694,-1.01282,35.5625,1,62966,39158792
48,6,0.999307,-0.000111605,0.0372315,0.000276715,-0.73101,-0.0584181,9.7867,0.150563,-0.545718,1.00769,-0.00731005,-0.000594537,0.097867,1,5.35753e-05,3.18526e-07,-8.90158e-06,0.0107151,6.37052e-05,-0.00178032,0.999307,-0.000111605,0.0372315,0.000276715,-0.00355471,0.489694,-1.01282,35.5625,1,62966,39158792
49,1,0.999307,-0.000111605,0.0372315,0.000276715,-0.73101,-0.0584181,9.7867,0.150563,-0.545718,1.00769,-0.00731005,-0.000594537,0.097867,1,5.35753e-05,3.18526e-07,-8.90158e-06,0.0107151,6.37052e-05,-0.00178032,0.999307,-0.000111605,0.0372315,0.000276715,-0.00355471,0.489694,-1.01282,35.5625,1,62966,39158792
49,2,0.999308,-4.95561e-05,0.0372065,0.000272613,-0.766429,-0.0739168,9.78004,0.11859,-0.5608,1.00197,-0.00766927,-0.000751671,0.0977999,1,6.44066e-05,-2.54307e-05,-6.15398e-06,0.0128813,-0.00508614,-0.0012308,0.999308,-4.95561e-05,0.0372065,0.000272613,-0.00355852,0.490661,-1.01229,35.5625,1,62967,39158892
49,3,0.999308,-4.95561e-05,0.0372065,0.000272613,-0.766429,-0.0739168,9.78004,0.11859,-0.5608,1.00197,-0.00766927,-0.000751671,0.0977999,1,6.44066e-05,-2.54307e-05,-6.15398e-06,0.0128813,-0.00508614,-0.0012308,0.999308,-4.95561e-05,0.0372065,0.000272613,-0.00355852,0.490661,-1.01229,35.5625,1,62967,39158892
49,4,0.999308,-4.95561e-05,0.0372065,0.000272613,-0.766429,-0.0739168,9.78004,0.11859,-0.5608,1.00197,-0.00766927,-0.000751671,0.0977999,1,6.44066e-05,-2.54307e-05,-6.15398e-06,0.0128813,-0.00508614,-0.0012308,0.999308,-4.95561e-05,0.0372065,0.000272613,-0.00355852,0.490661,-1.01229,35.5625,1,62967,39158892
49,5,0.999308,-3.57184e-06,0.0371976,0.000279781,-0.74348,-0.0565549,9.78715,0.139517,-0.545872,1.00483,-0.00743662,-0.000575114,0.0978713,1,4.83524e-05,-9.33567e-06,6.76306e-06,0.00967048,-0.00186713,0.00135261,0.999308,-3.57184e-06,0.0371976,0.000279781,-0.00121842,0.491652,-1.0143,35.5625,1,62968,39158992
49,6,0.999308,-3.57184e-06,0.0371976,0.000279781,-0.74348,-0.0565549,9.78715,0.139517,-0.545872,1.00483,-0.00743662,-0.000575114,0.0978713,1,4.83524e-05,-9.33567e-06,6.76306e-06,0.00967048,-0.00186713,0.00135261,0.999308,-3.57184e-06,0.0371976,0.000279781,-0.00121842,0.491652,-1.0143,35.5625,1,62968,39158992
50,1,0.999308,-3.57184e-06,0.0371976,0.000279781,-0.74348,-0.0565549,9.78715,0.139517,-0.545872,1.00483,-0.00743662,-0.000575114,0.0978713,1,4.83524e-05,-9.33567e-06,6.76306e-06,0.00967048,-0.00186713,0.00135261,0.999308,-3.57184e-06,0.0371976,0.000279781,-0.00121842,0.491652,-1.0143,35.5625,1,62968,39158992
50,2,0.999309,3.84545e-05,0.0371794,0.000278593,-0.75182,-0.0633683,9.79055,0.13728,-0.558324,1.00708,-0.00752212,-0.000644315,0.0979051,1,5.34895e-05,-2.00739e-05,1.05276e-05,0.0106979,-0.00401478,0.00210551,0.999309,3.84545e-05,0.0371794,0.000278593,-0.0012801,0.491697,-1.01683,35.5625,1,62969,39159092
50,3,0.999309,3.84545e-05,0.0371794,0.000278593,-0.75182,-0.0633683,9.79055,0.13728,-0.558324,1.00708,-0.00752212,-0.000644315,0.0979051,1,5.34895e-05,-2.00739e-05,1.05276e-05,0.0106979,-0.00401478,0.00210551,0.999309,3.84545e-05,0.0371794,0.000278593,-0.0012801,0.491697,-1.01683,35.5625,1,62969,39159092
50,4,0.999309,3.84545e-05,0.0371794,0.000278593,-0.75182,-0.0633683,9.79055,0.13728,-0.558324,1.00708,-0.00752212,-0.000644315,0.0979051,1,5.34895e-05,-2.00739e-05,1.05276e-05,0.0106979,-0.00401478,0.00210551,0.999309,3.84545e-05,0.0371794,0.000278593,-0.0012801,0.491697,-1.01683,35.5625,1,62969,39159092
51,1,0.999309,7.28548e-05,0.0371684,0.000262289,-0.749622,-0.0592693,9.78344,0.131788,-0.552672,1.002,-0.00749879,-0.000602851,0.0978341,1,5.22975e-05,-1.30648e-05,-5.05708e-06,0.0104595,-0.00261295,-0.00101142,0.999309,7.28548e-05,0.0371684,0.000262289,-0.00176121,0.491701,-1.01683,35.5625,1,62970,39159192
51,2,0.999309,7.28548e-05,0.0371684,0.000262289,-0.749622,-0.0592693,9.78344,0.131788,-0.552672,1.002,-0.00749879,-0.000602851,0.0978341,1,5.22975e-05,-1.30648e-05,-5.05708e-06,0.0104595,-0.00261295,-0.00101142,0.999309,7.28548e-05,0.0371684,0.000262289,-0.00176121,0.491701,-1.01683,35.5625,1,62970,39159192
51,3,0.999309,7.28548e-05,0.0371684,0.000262289,-0.749622,-0.0592693,9.78344,0.131788,-0.552672,1.002,-0.00749879,-0.000602851,0.0978341,1,5.22975e-05,-1.30648e-05,-5.05708e-06,0.0104595,-0.00261295,-0.00101142,0.999309,7.28548e-05,0.0371684,0.000262289,-0.00176121,0.491701,-1.01683,35.5625,1,62970,39159192
51,4,0.99931,9.92214e-05,0.0371434,0.000264143,-0.741893,-0.0749321,9.77682,0.133688,-0.569325,0.995216,-0.0074241,-0.000758088,0.0977677,1,4.39398e-05,-2.65522e-05,1.18201e-05,0.00878795,-0.00531044,0.00236402,0.99931,9.92214e-05,0.0371434,0.000264143,-0.00271157,0.490255,-1.01736,35.5625,1,62971,39159292
52,1,0.99931,9.92214e-05,0.0371434,0.000264143,-0.741893,-0.0749321,9.77682,0.133688,-0.569325,0.995216,-0.0074241,-0.000758088,0.0977677,1,4.39398e-05,-2.65522e-05,1.18201e-05,0.00878795,-0.00531044,0.00236402,0.99931,9.92214e-05,0.0371434,0.000264143,-0.00271157,0.490255,-1.01736,35.5625,1,62971,39159292
52,2,0.99931,9.92214e-05,0.0371434,0.000264143,-0.741893,-0.0749321,9.77682,0.133688,-0.569325,0.995216,-0.0074241,-0.000758088,0.0977677,1,4.39398e-05,-2.65522e-05,1.18201e-05,0.00878795,-0.00531044,0.00236402,0.99931,9.92214e-05,0.0371434,0.000264143,-0.00271157,0.490255,-1.01736,35.5625,1,62971,39159292
52,3,0.99931,0.000129591,0.0371373,0.00027164,-0.732927,-0.0669484,9.78156,0.152054,-0.55938,0.999311,-0.00733082,-0.000678624,0.0978154,1,4.60986e-05,-7.97768e-06,8.33899e-06,0.00921972,-0.00159554,0.0016678,0.99931,0.000129591,0.0371373,0.00027164,-0.00410984,0.489752,-1.01585,35.5625,1,62972,39159392
52,4,0.99931,0.000129591,0.0371373,0.00027164,-0.732927,-0.0669484,9.78156,0.152054,-0.55938,0.999311,-0.00733082,-0.000678624,0.0978154,1,4.60986e-05,-7.97768e-06,8.33899e-06,0.00921972,-0.00159554,0.0016678,0.99931,0.000129591,0.0371373,0.00027164,-0.00410984,0.489752,-1.01585,35.5625,1,62972,39159392
53,1,0.99931,0.000129591,0.0371373,0.00027164,-0.732927,-0.0669484,9.78156,0.152054,-0.55938,0.999311,-0.00733082,-0.000678624,0.0978154,1,4.60986e-05,-7.97768e-06,8.33899e-06,0.00921972,-0.00159554,0.0016678,0.99931,0.000129591,0.0371373,0.00027164,-0.00410984,0.489752,-1.01585,35.5625,1,62972,39159392
53,2,0.99931,0.000170941,0.0371296,0.00027433,-0.736313,-0.0673061,9.78023,0.144039,-0.558305,0.999453,-0.00736484,-0.000683055,0.0978021,1,5.16176e-05,-8.69101e-06,-6.91062e-06,0.0103235,-0.0017382,-0.00138212,0.99931,0.000170941,0.0371296,0.00027433,-0.00407238,0.491171,-1.01329,35.5625,1,62973,39159492
53,3,0.99931,0.000170941,0.0371296,0.00027433,-0.736313,-0.0673061,9.78023,0.144039,-0.558305,0.999453,-0.00736484,-0.000683055,0.0978021,1,5.16176e-05,-8.69101e-06,-6.91062e-06,0.0103235,-0.0017382,-0.00138212,0.99931,0.000170941,0.0371296,0.00027433,-0.00407238,0.491171,-1.01329,35.5625,1,62973,39159492
53,4,0.99931,0.000170941,0.0371296,0.00027433,-0.736313,-0.0673061,9.78023,0.144039,-0.558305,0.999453,-0.00736484,-0.000683055,0.0978021,1,5.16176e-05,-8.69101e-06,-6.91062e-06,0.0103235,-0.0017382,-0.00138212,0.99931,0.000170941,0.0371296,0.00027433,-0.00407238,0.491171,-1.01329,35.5625,1,62973,39159492
54,1,0.999311,0.000205708,0.0371146,0.000275993,-0.742667,-0.0750071,9.78292,0.142324,-0.570502,1.00238,-0.00742968,-0.000757863,0.0978289,1,4.00562e-05,-1.53408e-05,-2.98954e-06,0.00801123,-0.00306816,-0.000597909,0.999311,0.000205708,0.0371146,0.000275993,-0.00216832,0.491651,-1.01379,35.5625,1,62974,39159592
54,2,0.999311,0.000205708,0.0371146,0.000275993,-0.742667,-0.0750071,9.78292,0.142324,-0.570502,1.00238,-0.00742968,-0.000757863,0.0978289,1,4.00562e-05,-1.53408e-05,-2.98954e-06,0.00801123,-0.00306816,-0.000597909,0.999311,0.000205708,0.0371146,0.000275993,-0.00216832,0.491651,-1.01379,35.5625,1,62974,39159592
54,3,0.999311,0.000205708,0.0371146,0.000275993,-0.742667,-0.0750071,9.78292,0.142324,-0.570502,1.00238,-0.00742968,-0.000757863,0.0978289,1,4.00562e-05,-1.53408e-05,-2.98954e-06,0.00801123,-0.00306816,-0.000597909,0.999311,0.000205708,0.0371146,0.000275993,-0.00216832,0.491651,-1.01379,35.5625,1,62974,39159592
54,4,0.999311,0.000246833,0.0371087,0.000278789,-0.744436,-0.0595593,9.79595,0.134963,-0.552791,1.01141,-0.00744591,-0.000605713,0.0979593,1,5.06305e-05,-7.98144e-06,1.34687e-05,0.0101261,-0.00159629,0.00269374,0.999311,0.000246833,0.0371087,0.000278789,-0.00177355,0.49171,-1.01733,35.5625,1,62975,39159692
54,5,0.999311,0.000246833,0.0371087,0.000278789,-0.744436,-0.0595593,9.79595,0.134963,-0.552791,1.01141,-0.00744591,-0.000605713,0.0979593,1,5.06305e-05,-7.98144e-06,1.34687e-05,0.0101261,-0.00159629,0.00269374,0.999311,0.000246833,0.0371087,0.000278789,-0.00177355,0.49171,-1.01733,35.5625,1,62975,39159692
54,6,0.999311,0.000246833,0.0371087,0.000278789,-0.744436,-0.0595593,9.79595,0.134963,-0.552791,1.01141,-0.00744591,-0.000605713,0.0979593,1,5.06305e-05,-7.98144e-06,1.34687e-05,0.0101261,-0.00159629,0.00269374,0.999311,0.000246833,0.0371087,0.000278789,-0.00177355,0.49171,-1.01733,35.5625,1,62975,39159692
55,1,0.999312,0.000283863,0.0370924,0.000283419,-0.734848,-0.0582866,9.77997,0.144437,-0.554594,0.997956,-0.00735226,-0.000594212,0.0977993,1,5.68909e-05,-1.94349e-05,1.48448e-05,0.0113782,-0.00388699,0.00296896,0.999312,0.000283863,0.0370924,0.000283419,-0.00129289,0.490261,-1.01837,35.5625,1,62976,39159792
55,2,0.999312,0.000283863,0.0370924,0.000283419,-0.734848,-0.0582866,9.77997,0.144437,-0.554594,0.997956,-0.00735226,-0.000594212,0.0977993,1,5.68909e-05,-1.94349e-05,1.48448e-05,0.0113782,-0.00388699,0.00296896,0.999312,0.000283863,0.0370924,0.000283419,-0.00129289,0.490261,-1.01837,35.5625,1,62976,39159792
55,3,0.999312,0.000283863,0.0370924,0.000283419,-0.734848,-0.0582866,9.77997,0.144437,-0.554594,0.997956,-0.00735226,-0.000594212,0.0977993,1,5.68909e-05,-1.94349e-05,1.48448e-05,0.0113782,-0.00388699,0.00296896,0.999312,0.000283863,0.0370924,0.000283419,-0.00129289,0.490261,-1.01837,35.5625,1,62976,39159792
55,4,0.999312,0.000312718,0.0370956,0.000287982,-0.728379,-0.0558474,9.78026,0.149498,-0.551635,1.00174,-0.00728389,-0.000568516,0.0978025,1,4.99915e-05,-6.21985e-07,1.81143e-05,0.0099983,-0.000124397,0.00362286,0.999312,0.000312718,0.0370956,0.000287982,-0.00267883,0.489749,-1.01636,35.5625,1,62977,39159892
55,5,0.999312,0.000312718,0.0370956,0.000287982,-0.728379,-0.0558474,9.78026,0.149498,-0.551635,1.00174,-0.00728389,-0.000568516,0.0978025,1,4.99915e-05,-6.21985e-07,1.81143e-05,0.0099983,-0.000124397,0.00362286,0.999312,0.000312718,0.0370956,0.000287982,-0.00267883,0.489749,-1.01636,35.5625,1,62977,39159892
55,6,0.999312,0.000312718,0.0370956,0.000287982,-0.728379,-0.0558474,9.78026,0.149498,-0.551635,1.00174,-0.00728389,-0.000568516,0.0978025,1,4.99915e-05,-6.21985e-07,1.81143e-05,0.0099983,-0.000124397,0.00362286,0.999312,0.000312718,0.0370956,0.000287982,-0.00267883,0.489749,-1.01636,35.5625,1,62977,39159892
56,1,0.999312,0.000342742,0.0370966,0.000296133,-0.746659,-0.065674,9.77793,0.131082,-0.56359,0.99912,-0.00746682,-0.000665277,0.0977792,1,4.28632e-05,-1.2832e-06,1.03656e-05,0.00857264,-0.00025664,0.00207313,0.999312,0.000342742,0.0370966,0.000296133,-0.00352623,0.48871,-1.01234,35.5625,1,62978,39159992
56,2,0.999312,0.000342742,0.0370966,0.000296133,-0.746659,-0.065674,9.77793,0.131082,-0.56359,0.99912,-0.00746682,-0.000665277,0.0977792,1,4.28632e-05,-1.2832e-06,1.03656e-05,0.00857264,-0.00025664,0.00207313,0.999312,0.000342742,0.0370966,0.000296133,-0.00352623,0.48871,-1.01234,35.5625,1,62978,39159992
56,3,0.999312,0.000342742,0.0370966,0.000296133,-0.746659,-0.065674,9.77793,0.131082,-0.56359,0.99912,-0.00746682,-0.000665277,0.0977792,1,4.28632e-05,-1.2832e-06,1.03656e-05,0.00857264,-0.00025664,0.00207313,0.999312,0.000342742,0.0370966,0.000296133,-0.00352623,0.48871,-1.01234,35.5625,1,62978,39159992
56,4,0.999312,0.000401291,0.0370916,0.00029367,-0.739701,-0.06765,9.78228,0.139534,-0.569153,1.00101,-0.00739825,-0.000687765,0.0978226,1,5.77494e-05,-6.30534e-06,-2.25783e-06,0.0115499,-0.00126107,-0.000451566,0.999312,0.000401291,0.0370916,0.00029367,-0.00160557,0.48966,-1.01182,35.5625,1,62979,39160092
56,5,0.999312,0.000401291,0.0370916,0.00029367,-0.739701,-0.06765,9.78228,0.139534,-0.569153,1.00101,-0.00739825,-0.000687765,0.0978226,1,5.77494e-05,-6.30534e-06,-2.25783e-06,0.0115499,-0.00126107,-0.000451566,0.999312,0.000401291,0.0370916,0.00029367,-0.00160557,0.48966,-1.01182,35.5625,1,62979,39160092
56,6,0.999312,0.000401291,0.0370916,0.00029367,-0.739701,-0.06765,9.78228,0.139534,-0.569153,1.00101,-0.00739825,-0.000687765,0.0978226,1,5.77494e-05,-6.30534e-06,-2.25783e-06,0.0115499,-0.00126107,-0.000451566,0.999312,0.000401291,0.0370916,0.00029367,-0.00160557,0.48966,-1.01182,35.5625,1,62979,39160092
224,1,0.999312,0.000439068,0.0370735,0.000282996,-0.743714,-0.0630848,9.78812,0.135552,-0.564072,1.00825,-0.00744108,-0.000639247,0.0978808,1,4.26192e-05,-2.01296e-05,3.75886e-06,0.00852384,-0.00402591,0.000751771,0.999312,0.000439068,0.0370735,0.000282996,0.00029042,0.490629,-1.01231,35.5625,1,62980,39160192
224,2,0.999312,0.000439068,0.0370735,0.000282996,-0.743714,-0.0630848,9.78812,0.135552,-0.564072,1.00825,-0.00744108,-0.000639247,0.0978808,1,4.26192e-05,-2.01296e-05,3.75886e-06,0.00852384,-0.00402591,0.000751771,0.999312,0.000439068,0.0370735,0.000282996,0.00029042,0.490629,-1.01231,35.5625,1,62980,39160192
224,3,0.999312,0.000439068,0.0370735,0.000282996,-0.743714,-0.0630848,9.78812,0.135552,-0.564072,1.00825,-0.00744108,-0.000639247,0.0978808,1,4.26192e-05,-2.01296e-05,3.75886e-06,0.00852384,-0.00402591,0.000751771,0.999312,0.000439068,0.0370735,0.000282996,0.00029042,0.490629,-1.01231,35.5625,1,62980,39160192
224,4,0.999312,0.000480837,0.0370763,0.000274622,-0.733962,-0.0767796,9.78927,0.145048,-0.578242,1.00976,-0.0073396,-0.000778392,0.0978927,1,5.30667e-05,-1.89168e-08,1.41079e-05,0.0106133,-3.78335e-06,0.00282158,0.999312,0.000480837,0.0370763,0.000274622,-0.00171187,0.491665,-1.01481,35.5625,1,62981,39160292
224,5,0.999312,0.000480837,0.0370763,0.000274622,-0.733962,-0.0767796,9.78927,0.145048,-0.578242,1.00976,-0.0073396,-0.000778392,0.0978927,1,5.30667e-05,-1.89168e-08,1.41079e-05,0.0106133,-3.78335e-06,0.00282158,0.999312,0.000480837,0.0370763,0.000274622,-0.00171187,0.491665,-1.01481,35.5625,1,62981,39160292
224,6,0.999312,0.000480837,0.0370763,0.000274622,-0.733962,-0.0767796,9.78927,0.145048,-0.578242,1.00976,-0.0073396,-0.000778392,0.0978927,1,5.30667e-05,-1.89168e-08,1.41079e-05,0.0106133,-3.78335e-06,0.00282158,0.999312,0.000480837,0.0370763,0.000274622,-0.00171187,0.491665,-1.01481,35.5625,1,62981,39160292
224,7,0.999313,0.000509409,0.0370692,0.000270561,-0.730496,-0.065569,9.78325,0.14984,-0.572992,1.00511,-0.00730659,-0.000664772,0.0978324,1,4.59906e-05,-8.37622e-06,5.70504e-06,0.00919812,-0.00167524,0.00114101,0.999313,0.000509409,0.0370692,0.000270561,-0.00177355,0.49171,-1.01733,35.5625,1,62982,39160392
224,8,0.999313,0.000509409,0.0370692,0.000270561,-0.730496,-0.065569,9.78325,0.14984,-0.572992,1.00511,-0.00730659,-0.000664772,0.0978324,1,4.59906e-05,-8.37622e-06,5.70504e-06,0.00919812,-0.00167524,0.00114101,0.999313,0.000509409,0.0370692,0.000270561,-0.00177355,0.49171,-1.01733,35.5625,1,62982,39160392
224,9,0.999313,0.000509409,0.0370692,0.000270561,-0.730496,-0.065569,9.78325,0.14984,-0.572992,1.00511,-0.00730659,-0.000664772,0.0978324,1,4.59906e-05,-8.37622e-06,5.70504e-06,0.00919812,-0.00167524,0.00114101,0.999313,0.000509409,0.0370692,0.000270561,-0.00177355,0.49171,-1.01733,35.5625,1,62982,39160392
224,10,0.999313,0.000535047,0.0370556,0.000275096,-0.735288,-0.0594405,9.78097,0.1452,-0.563956,0.997662,-0.00735584,-0.000603987,0.0978094,1,4.80022e-05,-1.51956e-05,1.3029e-05,0.00960044,-0.00303913,0.00260581,0.999313,0.000535047,0.0370556,0.000275096,-0.00171279,0.488775,-1.01689,35.5625,1,62983,39160492
58,1,0.999313,0.000535047,0.0370556,0.000275096,-0.735288,-0.0594405,9.78097,0.1452,-0.563956,0.997662,-0.00735584,-0.000603987,0.0978094,1,4.80022e-05,-1.51956e-05,1.3029e-05,0.00960044,-0.00303913,0.00260581,0.999313,0.000535047,0.0370556,0.000275096,-0.00171279,0.488775,-1.01689,35.5625,1,62983,39160492
58,2,0.999313,0.000535047,0.0370556,0.000275096,-0.735288,-0.0594405,9.78097,0.1452,-0.563956,0.997662,-0.00735584,-0.000603987,0.0978094,1,4.80022e-05,-1.51956e-05,1.3029e-05,0.00960044,-0.00303913,0.00260581,0.999313,0.000535047,0.0370556,0.000275096,-0.00171279,0.488775,-1.01689,35.5625,1,62983,39160492
58,3,0.999313,0.000576487,0.037046,0.00028371,-0.74102,-0.0635181,9.78843,0.141738,-0.568047,1.00916,-0.0074128,-0.000646705,0.0978841,1,5.80475e-05,-1.33401e-05,1.0807e-05,0.0116095,-0.00266802,0.0021614,0.999313,0.000576487,0.037046,0.00028371,-0.00253598,0.486272,-1.0129,35.5625,1,62984,39160592
58,4,0.999313,0.000576487,0.037046,0.00028371,-0.74102,-0.0635181,9.78843,0.141738,-0.568047,1.00916,-0.0074128,-0.000646705,0.0978841,1,5.80475e-05,-1.33401e-05,1.0807e-05,0.0116095,-0.00266802,0.0021614,0.999313,0.000576487,0.037046,0.00028371,-0.00253598,0.486272,-1.0129,35.5625,1,62984,39160592
59,1,0.999313,0.000576487,0.037046,0.00028371,-0.74102,-0.0635181,9.78843,0.141738,-0.568047,1.00916,-0.0074128,-0.000646705,0.0978841,1,5.80475e-05,-1.33401e-05,1.0807e-05,0.0116095,-0.00266802,0.0021614,0.999313,0.000576487,0.037046,0.00028371,-0.00253598,0.486272,-1.0129,35.5625,1,62984,39160592
59,2,0.999314,0.000624112,0.0370409,0.000284445,-0.748598,-0.0642415,9.77423,0.131962,-0.566443,0.992507,-0.00748773,-0.000652513,0.0977421,1,5.17629e-05,-8.94271e-06,-1.34321e-06,0.0103526,-0.00178854,-0.000268643,0.999314,0.000624112,0.0370409,0.000284445,-0.00157329,0.487709,-1.01186,35.5625,1,62985,39160692
59,3,0.999314,0.000624112,0.0370409,0.000284445,-0.748598,-0.0642415,9.77423,0.131962,-0.566443,0.992507,-0.00748773,-0.000652513,0.0977421,1,5.17629e-05,-8.94271e-06,-1.34321e-06,0.0103526,-0.00178854,-0.000268643,0.999314,0.000624112,0.0370409,0.000284445,-0.00157329,0.487709,-1.01186,35.5625,1,62985,39160692
59,4,0.999314,0.000624112,0.0370409,0.000284445,-0.748598,-0.0642415,9.77423,0.131962,-0.566443,0.992507,-0.00748773,-0.000652513,0.0977421,1,5.17629e-05,-8.94271e-06,-1.34321e-06,0.0103526,-0.00178854,-0.000268643,0.999314,0.000624112,0.0370409,0.000284445,-0.00157329,0.487709,-1.01186,35.5625,1,62985,39160692
59,5,0.999314,0.000664254,0.0370232,0.000298568,-0.72919,-0.0580316,9.78094,0.150913,-0.55934,0.999162,-0.00729587,-0.000590092,0.097809,1,4.81828e-05,-2.0424e-05,2.40394e-05,0.00963656,-0.0040848,0.00480789,0.999314,0.000664254,0.0370232,0.000298568,-0.00163405,0.490645,-1.0123,35.5625,1,62986,39160792
59,6,0.999314,0.000664254,0.0370232,0.000298568,-0.72919,-0.0580316,9.78094,0.150913,-0.55934,0.999162,-0.00729587,-0.000590092,0.097809,1,4.81828e-05,-2.0424e-05,2.40394e-05,0.00963656,-0.0040848,0.00480789,0.999314,0.000664254,0.0370232,0.000298568,-0.00163405,0.490645,-1.0123,35.5625,1,62986,39160792
60,1,0.999314,0.000664254,0.0370232,0.000298568,-0.72919,-0.0580316,9.78094,0.150913,-0.55934,0.999162,-0.00729587,-0.000590092,0.097809,1,4.81828e-05,-2.0424e-05,2.40394e-05,0.00963656,-0.0040848,0.00480789,0.999314,0.000664254,0.0370232,0.000298568,-0.00163405,0.490645,-1.0123,35.5625,1,62986,39160792
60,2,0.999315,0.000689846,0.0370122,0.000287607,-0.728136,-0.0629503,9.78767,0.152335,-0.568313,1.00438,-0.00728384,-0.000637374,0.0978765,1,4.02388e-05,-1.26788e-05,-4.50748e-07,0.00804776,-0.00253576,-9.01497e-05,0.999315,0.000689846,0.0370122,0.000287607,-0.00173228,0.492162,-1.0153,35.5625,1,62987,39160892
60,3,0.999315,0.000689846,0.0370122,0.000287607,-0.728136,-0.0629503,9.78767,0.152335,-0.568313,1.00438,-0.00728384,-0.000637374,0.0978765,1,4.02388e-05,-1.26788e-05,-4.50748e-07,0.00804776,-0.00253576,-9.01497e-05,0.999315,0.000689846,0.0370122,0.000287607,-0.00173228,0.492162,-1.0153,35.5625,1,62987,39160892
60,4,0.999315,0.000689846,0.0370122,0.000287607,-0.728136,-0.0629503,9.78767,0.152335,-0.568313,1.00438,-0.00728384,-0.000637374,0.0978765,1,4.02388e-05,-1.26788e-05,-4.50748e-07,0.00804776,-0.00253576,-9.01497e-05,0.999315,0.000689846,0.0370122,0.000287607,-0.00173228,0.492162,-1.0153,35.5625,1,62987,39160892
61,1,0.999315,0.000719998,0.0369986,0.000282173,-0.742218,-0.0518422,9.76853,0.140002,-0.555446,0.985,-0.00742518,-0.000528518,0.097685,1,5.14052e-05,-1.53652e-05,3.59842e-06,0.010281,-0.00307305,0.000719684,0.999315,0.000719998,0.0369986,0.000282173,-0.00125588,0.490234,-1.01686,35.5625,1,62988,39160992
61,2,0.999315,0.000719998,0.0369986,0.000282173,-0.742218,-0.0518422,9.76853,0.140002,-0.555446,0.985,-0.00742518,-0.000528518,0.097685,1,5.14052e-05,-1.53652e-05,3.59842e-06,0.010281,-0.00307305,0.000719684,0.999315,0.000719998,0.0369986,0.000282173,-0.00125588,0.490234,-1.01686,35.5625,1,62988,39160992
61,3,0.999315,0.000719998,0.0369986,0.000282173,-0.742218,-0.0518422,9.76853,0.140002,-0.555446,0.985,-0.00742518,-0.000528518,0.097685,1,5.14052e-05,-1.53652e-05,3.59842e-06,0.010281,-0.00307305,0.000719684,0.999315,0.000719998,0.0369986,0.000282173,-0.00125588,0.490234,-1.01686,35.5625,1,62988,39160992
61,4,0.999315,0.000739591,0.0369912,0.000272064,-0.744152,-0.0756273,9.78122,0.132401,-0.584849,1.00087,-0.00744359,-0.00076449,0.097812,1,4.21647e-05,-1.05557e-05,-2.14538e-06,0.00843294,-0.00211115,-0.000429075,0.999315,0.000739591,0.0369912,0.000272064,-0.0031234,0.488281,-1.01589,35.5625,1,62989,39161092
233,1,0.999315,0.000739591,0.0369912,0.000272064,-0.744152,-0.0756273,9.78122,0.132401,-0.584849,1.00087,-0.00744359,-0.00076449,0.097812,1,4.21647e-05,-1.05557e-05,-2.14538e-06,0.00843294,-0.00211115,-0.000429075,0.999315,0.000739591,0.0369912,0.000272064,-0.0031234,0.488281,-1.01589,35.5625,1,62989,39161092
233,2,0.999315,0.000739591,0.0369912,0.000272064,-0.744152,-0.0756273,9.78122,0.132401,-0.584849,1.00087,-0.00744359,-0.00076449,0.097812,1,4.21647e-05,-1.05557e-05,-2.14538e-06,0.00843294,-0.00211115,-0.000429075,0.999315,0.000739591,0.0369912,0.000272064,-0.0031234,0.488281,-1.01589,35.5625,1,62989,39161092
233,3,0.999315,0.000781007,0.0369944,0.000278267,-0.734717,-0.0685701,9.78493,0.144495,-0.580321,1.00207,-0.00734715,-0.00069713,0.0978493,1,5.81648e-05,6.93791e-08,3.19287e-06,0.011633,1.38758e-05,0.000638575,0.999315,0.000781007,0.0369944,0.000278267,-0.00357939,0.489712,-1.01383,35.5625,1,62990,39161192
233,4,0.999315,0.000781007,0.0369944,0.000278267,-0.734717,-0.0685701,9.78493,0.144495,-0.580321,1.00207,-0.00734715,-0.00069713,0.0978493,1,5.81648e-05,6.93791e-08,3.19287e-06,0.011633,1.38758e-05,0.000638575,0.999315,0.000781007,0.0369944,0.000278267,-0.00357939,0.489712,-1.01383,35.5625,1,62990,39161192
233,5,0.999315,0.000781007,0.0369944,0.000278267,-0.734717,-0.0685701,9.78493,0.144495,-0.580321,1.00207,-0.00734715,-0.00069713,0.0978493,1,5.81648e-05,6.93791e-08,3.19287e-06,0.011633,1.38758e-05,0.000638575,0.999315,0.000781007,0.0369944,0.000278267,-0.00357939,0.489712,-1.01383,35.5625,1,62990,39161192
233,6,0.999316,0.000805849,0.0369804,0.000294405,-0.711123,-0.0664833,9.77837,0.169655,-0.575401,0.993724,-0.00711428,-0.000672648,0.0977834,1,3.88808e-05,-1.56762e-05,1.48434e-05,0.00777616,-0.00313525,0.00296868,0.999316,0.000805849,0.0369804,0.000294405,-0.0040477,0.491153,-1.01228,35.5625,1,62991,39161292
63,1,0.999316,0.000805849,0.0369804,0.000294405,-0.711123,-0.0664833,9.77837,0.169655,-0.575401,0.993724,-0.00711428,-0.000672648,0.0977834,1,3.88808e-05,-1.56762e-05,1.48434e-05,0.00777616,-0.00313525,0.00296868,0.999316,0.000805849,0.0369804,0.000294405,-0.0040477,0.491153,-1.01228,35.5625,1,62991,39161292
63,2,0.999316,0.000805849,0.0369804,0.000294405,-0.711123,-0.0664833,9.77837,0.169655,-0.575401,0.993724,-0.00711428,-0.000672648,0.0977834,1,3.88808e-05,-1.56762e-05,1.48434e-05,0.00777616,-0.00313525,0.00296868,0.999316,0.000805849,0.0369804,0.000294405,-0.0040477,0.491153,-1.01228,35.5625,1,62991,39161292
63,3,0.999316,0.000852382,0.0369668,0.000311913,-0.738484,-0.0801873,9.7859,0.140546,-0.590097,1.00308,-0.00738771,-0.000813886,0.0978587,1,6.00163e-05,-1.48118e-05,1.79986e-05,0.0120033,-0.00296237,0.00359972,0.999316,0.000852382,0.0369668,0.000311913,-0.00358319,0.490679,-1.0133,35.5625,1,62992,39161392
63,4,0.999316,0.000852382,0.0369668,0.000311913,-0.738484,-0.0801873,9.7859,0.140546,-0.590097,1.00308,-0.00738771,-0.000813886,0.0978587,1,6.00163e-05,-1.48118e-05,1.79986e-05,0.0120033,-0.00296237,0.00359972,0.999316,0.000852382,0.0369668,0.000311913,-0.00358319,0.490679,-1.0133,35.5625,1,62992,39161392
64,1,0.999316,0.000852382,0.0369668,0.000311913,-0.738484,-0.0801873,9.7859,0.140546,-0.590097,1.00308,-0.00738771,-0.000813886,0.0978587,1,6.00163e-05,-1.48118e-05,1.79986e-05,0.0120033,-0.00296237,0.00359972,0.999316,0.000852382,0.0369668,0.000311913,-0.00358319,0.490679,-1.0133,35.5625,1,62992,39161392
64,2,0.999316,0.000897318,0.0369587,0.000314987,-0.739434,-0.0760557,9.77982,0.137557,-0.588124,0.999434,-0.00739635,-0.000772821,0.097798,1,6.21899e-05,-1.03618e-05,6.72119e-06,0.012438,-0.00207235,0.00134424,0.999316,0.000897318,0.0369587,0.000314987,-0.00273152,0.492197,-1.01681,35.5625,1,62993,39161492
64,3,0.999316,0.000897318,0.0369587,0.000314987,-0.739434,-0.0760557,9.77982,0.137557,-0.588124,0.999434,-0.00739635,-0.000772821,0.097798,1,6.21899e-05,-1.03618e-05,6.72119e-06,0.012438,-0.00207235,0.00134424,0.999316,0.000897318,0.0369587,0.000314987,-0.00273152,0.492197,-1.01681,35.5625,1,62993,39161492
64,4,0.999316,0.000897318,0.0369587,0.000314987,-0.739434,-0.0760557,9.77982,0.137557,-0.588124,0.999434,-0.00739635,-0.000772821,0.097798,1,6.21899e-05,-1.03618e-05,6.72119e-06,0.012438,-0.00207235,0.00134424,0.999316,0.000897318,0.0369587,0.000314987,-0.00273152,0.492197,-1.01681,35.5625,1,62993,39161492
65,1,0.999317,0.00092455,0.0369524,0.000329146,-0.746841,-0.0711149,9.78365,0.129239,-0.582534,0.999006,-0.00747029,-0.000721664,0.0978363,1,5.21912e-05,-9.77331e-06,2.02546e-05,0.0104382,-0.00195466,0.00405092,0.999317,0.00092455,0.0369524,0.000329146,-0.00225513,0.490269,-1.01837,35.5625,1,62994,39161592
65,2,0.999317,0.00092455,0.0369524,0.000329146,-0.746841,-0.0711149,9.78365,0.129239,-0.582534,0.999006,-0.00747029,-0.000721664,0.0978363,1,5.21912e-05,-9.77331e-06,2.02546e-05,0.0104382,-0.00195466,0.00405092,0.999317,0.00092455,0.0369524,0.000329146,-0.00225513,0.490269,-1.01837,35.5625,1,62994,39161592
65,3,0.999317,0.00092455,0.0369524,0.000329146,-0.746841,-0.0711149,9.78365,0.129239,-0.582534,0.999006,-0.00747029,-0.000721664,0.0978363,1,5.21912e-05,-9.77331e-06,2.02546e-05,0.0104382,-0.00195466,0.00405092,0.999317,0.00092455,0.0369524,0.000329146,-0.00225513,0.490269,-1.01837,35.5625,1,62994,39161592
65,4,0.999317,0.000946627,0.0369486,0.000336373,-0.744736,-0.0698931,9.79281,0.135115,-0.584318,1.01182,-0.00744891,-0.000708562,0.0979279,1,4.79854e-05,-7.99641e-06,1.56238e-05,0.00959709,-0.00159928,0.00312477,0.999317,0.000946627,0.0369486,0.000336373,-0.00314,0.487811,-1.01691,35.5625,1,62995,39161692
65,5,0.999317,0.000946627,0.0369486,0.000336373,-0.744736,-0.0698931,9.79281,0.135115,-0.584318,1.01182,-0.00744891,-0.000708562,0.0979279,1,4.79854e-05,-7.99641e-06,1.56238e-05,0.00959709,-0.00159928,0.00312477,0.999317,0.000946627,0.0369486,0.000336373,-0.00314,0.487811,-1.01691,35.5625,1,62995,39161692
65,6,0.999317,0.000946627,0.0369486,0.000336373,-0.744736,-0.0698931,9.79281,0.135115,-0.584318,1.01182,-0.00744891,-0.000708562,0.0979279,1,4.79854e-05,-7.99641e-06,1.56238e-05,0.00959709,-0.00159928,0.00312477,0.999317,0.000946627,0.0369486,0.000336373,-0.00314,0.487811,-1.01691,35.5625,1,62995,39161692
66,1,0.999317,0.000991841,0.0369529,0.000325966,-0.725477,-0.0688545,9.79031,0.153266,-0.583446,1.00371,-0.00725466,-0.000701109,0.097903,1,6.46096e-05,6.33311e-07,-5.99026e-06,0.0129219,0.000126662,-0.00119805,0.999317,0.000991841,0.0369529,0.000325966,-0.00260481,0.489695,-1.01333,35.5625,1,62996,39161792
66,2,0.999317,0.000991841,0.0369529,0.000325966,-0.725477,-0.0688545,9.79031,0.153266,-0.583446,1.00371,-0.00725466,-0.000701109,0.097903,1,6.46096e-05,6.33311e-07,-5.99026e-06,0.0129219,0.000126662,-0.00119805,0.999317,0.000991841,0.0369529,0.000325966,-0.00260481,0.489695,-1.01333,35.5625,1,62996,39161792
66,3,0.999317,0.000991841,0.0369529,0.000325966,-0.725477,-0.0688545,9.79031,0.153266,-0.583446,1.00371,-0.00725466,-0.000701109,0.097903,1,6.46096e-05,6.33311e-07,-5.99026e-06,0.0129219,0.000126662,-0.00119805,0.999317,0.000991841,0.0369529,0.000325966,-0.00260481,0.489695,-1.01333,35.5625,1,62996,39161792
66,4,0.999317,0.00101643,0.0369488,0.00034009,-0.736051,-0.0714928,9.77747,0.140357,-0.586873,0.995014,-0.00736176,-0.000722647,0.0977745,1,3.76178e-05,-6.58115e-06,2.46653e-05,0.00752355,-0.00131623,0.00493307,0.999317,0.00101643,0.0369488,0.00034009,-0.00114059,0.490632,-1.0118,35.5625,1,62997,39161892
66,5,0.999317,0.00101643,0.0369488,0.00034009,-0.736051,-0.0714928,9.77747,0.140357,-0.586873,0.995014,-0.00736176,-0.000722647,0.0977745,1,3.76178e-05,-6.58115e-06,2.46653e-05,0.00752355,-0.00131623,0.00493307,0.999317,0.00101643,0.0369488,0.00034009,-0.00114059,0.490632,-1.0118,35.5625,1,62997,39161892
66,6,0.999317,0.00101643,0.0369488,0.00034009,-0.736051,-0.0714928,9.77747,0.140357,-0.586873,0.995014,-0.00736176,-0.000722647,0.0977745,1,3.76178e-05,-6.58115e-06,2.46653e-05,0.00752355,-0.00131623,0.00493307,0.999317,0.00101643,0.0369488,0.00034009,-0.00114059,0.490632,-1.0118,35.5625,1,62997,39161892
67,1,0.999317,0.0010593,0.0369273,0.000331714,-0.751537,-0.0594808,9.78007,0.119796,-0.575134,0.99965,-0.00752017,-0.00060622,0.0978002,1,5.74404e-05,-2.45867e-05,1.17104e-05,0.0114881,-0.00491733,0.00234208,0.999317,0.0010593,0.0369273,0.000331714,-0.000186892,0.489666,-1.01284,35.5625,1,62998,39161992
67,2,0.999317,0.0010593,0.0369273,0.000331714,-0.751537,-0.0594808,9.78007,0.119796,-0.575134,0.99965,-0.00752017,-0.00060622,0.0978002,1,5.74404e-05,-2.45867e-05,1.17104e-05,0.0114881,-0.00491733,0.00234208,0.999317,0.0010593,0.0369273,0.000331714,-0.000186892,0.489666,-1.01284,35.5625,1,62998,39161992
67,3,0.999317,0.0010593,0.0369273,0.000331714,-0.751537,-0.0594808,9.78007,0.119796,-0.575134,0.99965,-0.00752017,-0.00060622,0.0978002,1,5.74404e-05,-2.45867e-05,1.17104e-05,0.0114881,-0.00491733,0.00234208,0.999317,0.0010593,0.0369273,0.000331714,-0.000186892,0.489666,-1.01284,35.5625,1,62998,39161992
67,4,0.999318,0.00108903,0.0369125,0.000317285,-0.750758,-0.0708584,9.78471,0.130088,-0.586951,0.99967,-0.0075113,-0.000718183,0.0978468,1,4.87195e-05,-1.9036e-05,4.3286e-06,0.00974389,-0.00380721,0.000865719,0.999318,0.00108903,0.0369125,0.000317285,-0.00271111,0.4917,-1.01632,35.5625,1,62999,39162092
67,5,0.999318,0.00108903,0.0369125,0.000317285,-0.750758,-0.0708584,9.78471,0.130088,-0.586951,0.99967,-0.0075113,-0.000718183,0.0978468,1,4.87195e-05,-1.9036e-05,4.3286e-06,0.00974389,-0.00380721,0.000865719,0.999318,0.00108903,0.0369125,0.000317285,-0.00271111,0.4917,-1.01632,35.5625,1,62999,39162092
67,6,0.999318,0.00108903,0.0369125,0.000317285,-0.750758,-0.0708584,9.78471,0.130088,-0.586951,0.99967,-0.0075113,-0.000718183,0.0978468,1,4.87195e-05,-1.9036e-05,4.3286e-06,0.00974389,-0.00380721,0.000865719,0.999318,0.00108903,0.0369125,0.000317285,-0.00271111,0.4917,-1.01632,35.5625,1,62999,39162092
68,1,0.999318,0.00110053,0.0369021,0.000321259,-0.745409,-0.0640888,9.79117,0.130806,-0.580981,1.00959,-0.00745652,-0.000648228,0.0979115,1,3.6778e-05,-1.24926e-05,9.22579e-06,0.0073556,-0.00249851,0.00184516,0.999318,0.00110053,0.0369021,0.000321259,-0.00274005,0.49124,-1.01784,35.5625,1,63000,39162192
68,2,0.999318,0.00110053,0.0369021,0.000321259,-0.745409,-0.0640888,9.79117,0.130806,-0.580981,1.00959,-0.00745652,-0.000648228,0.0979115,1,3.6778e-05,-1.24926e-05,9.22579e-06,0.0073556,-0.00249851,0.00184516,0.999318,0.00110053,0.0369021,0.000321259,-0.00274005,0.49124,-1.01784,35.5625,1,63000,39162192
68,3,0.999318,0.00110053,0.0369021,0.000321259,-0.745409,-0.0640888,9.79117,0.130806,-0.580981,1.00959,-0.00745652,-0.000648228,0.0979115,1,3.6778e-05,-1.24926e-05,9.22579e-06,0.0073556,-0.00249851,0.00184516,0.999318,0.00110053,0.0369021,0.000321259,-0.00274005,0.49124,-1.01784,35.5625,1,63000,39162192
68,4,0.999318,0.00111967,0.0368943,0.000327,-0.749988,-0.0578641,9.77769,0.129574,-0.571484,0.994519,-0.00750199,-0.000587737,0.0977767,1,4.58099e-05,-1.08257e-05,9.21813e-06,0.00916199,-0.00216513,0.00184363,0.999318,0.00111967,0.0368943,0.000327,-0.00267502,0.488783,-1.01689,35.5625,1,63001,39162292
69,1,0.999318,0.00111967,0.0368943,0.000327,-0.749988,-0.0578641,9.77769,0.129574,-0.571484,0.994519,-0.00750199,-0.000587737,0.0977767,1,4.58099e-05,-1.08257e-05,9.21813e-06,0.00916199,-0.00216513,0.00184363,0.999318,0.00111967,0.0368943,0.000327,-0.00267502,0.488783,-1.01689,35.5625,1,63001,39162292
69,2,0.999318,0.00111967,0.0368943,0.000327,-0.749988,-0.0578641,9.77769,0.129574,-0.571484,0.994519,-0.00750199,-0.000587737,0.0977767,1,4.58099e-05,-1.08257e-05,9.21813e-06,0.00916199,-0.00216513,0.00184363,0.999318,0.00111967,0.0368943,0.000327,-0.00267502,0.488783,-1.01689,35.5625,1,63001,39162292
69,3,0.999318,0.00114805,0.0368915,0.000335346,-0.751575,-0.0702645,9.78505,0.123818,-0.59286,1.00452,-0.00751712,-0.000712608,0.0978503,1,5.00382e-05,-7.0649e-06,1.13694e-05,0.0100076,-0.00141298,0.00227388,0.999318,0.00114805,0.0368915,0.000335346,-0.00402395,0.488244,-1.01336,35.5625,1,63002,39162392
69,4,0.999318,0.00114805,0.0368915,0.000335346,-0.751575,-0.0702645,9.78505,0.123818,-0.59286,1.00452,-0.00751712,-0.000712608,0.0978503,1,5.00382e-05,-7.0649e-06,1.13694e-05,0.0100076,-0.00141298,0.00227388,0.999318,0.00114805,0.0368915,0.000335346,-0.00402395,0.488244,-1.01336,35.5625,1,63002,39162392
241,1,0.999318,0.00114805,0.0368915,0.000335346,-0.751575,-0.0702645,9.78505,0.123818,-0.59286,1.00452,-0.00751712,-0.000712608,0.0978503,1,5.00382e-05,-7.0649e-06,1.13694e-05,0.0100076,-0.00141298,0.00227388,0.999318,0.00114805,0.0368915,0.000335346,-0.00402395,0.488244,-1.01336,35.5625,1,63002,39162392
241,2,0.999319,0.00117759,0.0368779,0.000337844,-0.749944,-0.0568357,9.78617,0.125642,-0.572152,1.00043,-0.00750266,-0.000576922,0.0978614,1,4.35989e-05,-1.64565e-05,2.13482e-06,0.00871978,-0.0032913,0.000426963,0.999319,0.00117759,0.0368779,0.000337844,-0.0040439,0.490186,-1.01281,35.5625,1,63003,39162492
241,3,0.999319,0.00117759,0.0368779,0.000337844,-0.749944,-0.0568357,9.78617,0.125642,-0.572152,1.00043,-0.00750266,-0.000576922,0.0978614,1,4.35989e-05,-1.64565e-05,2.13482e-06,0.00871978,-0.0032913,0.000426963,0.999319,0.00117759,0.0368779,0.000337844,-0.0040439,0.490186,-1.01281,35.5625,1,63003,39162492
241,4,0.999319,0.00117759,0.0368779,0.000337844,-0.749944,-0.0568357,9.78617,0.125642,-0.572152,1.00043,-0.00750266,-0.000576922,0.0978614,1,4.35989e-05,-1.64565e-05,2.13482e-06,0.00871978,-0.0032913,0.000426963,0.999319,0.00117759,0.0368779,0.000337844,-0.0040439,0.490186,-1.01281,35.5625,1,63003,39162492
241,5,0.999319,0.00121709,0.0368698,0.00035105,-0.734117,-0.0781519,9.78487,0.139184,-0.597565,0.999004,-0.00734327,-0.000792848,0.0978484,1,5.66245e-05,-1.08573e-05,1.68754e-05,0.0113249,-0.00217147,0.00337508,0.999319,0.00121709,0.0368698,0.00035105,-0.00118948,0.492113,-1.01278,35.5625,1,63004,39162592
241,6,0.999319,0.00121709,0.0368698,0.00035105,-0.734117,-0.0781519,9.78487,0.139184,-0.597565,0.999004,-0.00734327,-0.000792848,0.0978484,1,5.66245e-05,-1.08573e-05,1.68754e-05,0.0113249,-0.00217147,0.00337508,0.999319,0.00121709,0.0368698,0.00035105,-0.00118948,0.492113,-1.01278,35.5625,1,63004,39162592
241,7,0.999319,0.00121709,0.0368698,0.00035105,-0.734117,-0.0781519,9.78487,0.139184,-0.597565,0.999004,-0.00734327,-0.000792848,0.0978484,1,5.66245e-05,-1.08573e-05,1.68754e-05,0.0113249,-0.00217147,0.00337508,0.999319,0.00121709,0.0368698,0.00035105,-0.00118948,0.492113,-1.01278,35.5625,1,63004,39162592
241,8,0.999319,0.00124484,0.0368693,0.000341388,-0.730181,-0.0754647,9.78282,0.145062,-0.596543,0.996958,-0.00730269,-0.000764418,0.0978281,1,4.93955e-05,-4.56174e-06,7.29226e-06,0.00987909,-0.000912349,0.00145845,0.999319,0.00124484,0.0368693,0.000341388,-0.00123882,0.492149,-1.0148,35.5625,1,63005,39162692
71,1,0.999319,0.00124484,0.0368693,0.000341388,-0.730181,-0.0754647,9.78282,0.145062,-0.596543,0.996958,-0.00730269,-0.000764418,0.0978281,1,4.93955e-05,-4.56174e-06,7.29226e-06,0.00987909,-0.000912349,0.00145845,0.999319,0.00124484,0.0368693,0.000341388,-0.00123882,0.492149,-1.0148,35.5625,1,63005,39162692
71,2,0.999319,0.00124484,0.0368693,0.000341388,-0.730181,-0.0754647,9.78282,0.145062,-0.596543,0.996958,-0.00730269,-0.000764418,0.0978281,1,4.93955e-05,-4.56174e-06,7.29226e-06,0.00987909,-0.000912349,0.00145845,0.999319,0.00124484,0.0368693,0.000341388,-0.00123882,0.492149,-1.0148,35.5625,1,63005,39162692
71,3,0.999319,0.00127027,0.0368632,0.000344966,-0.768786,-0.0632522,9.78999,0.109336,-0.581218,1.00438,-0.00768983,-0.0006427,0.0978996,1,5.06083e-05,-1.01662e-05,1.74858e-05,0.0101217,-0.00203325,0.00349715,0.999319,0.00127027,0.0368632,0.000344966,-0.00223472,0.489772,-1.01788,35.5625,1,63006,39162792
71,4,0.999319,0.00127027,0.0368632,0.000344966,-0.768786,-0.0632522,9.78999,0.109336,-0.581218,1.00438,-0.00768983,-0.0006427,0.0978996,1,5.06083e-05,-1.01662e-05,1.74858e-05,0.0101217,-0.00203325,0.00349715,0.999319,0.00127027,0.0368632,0.000344966,-0.00223472,0.489772,-1.01788,35.5625,1,63006,39162792
71,5,0.999319,0.00127027,0.0368632,0.000344966,-0.768786,-0.0632522,9.78999,0.109336,-0.581218,1.00438,-0.00768983,-0.0006427,0.0978996,1,5.06083e-05,-1.01662e-05,1.74858e-05,0.0101217,-0.00203325,0.00349715,0.999319,0.00127027,0.0368632,0.000344966,-0.00223472,0.489772,-1.01788,35.5625,1,63006,39162792
71,6,0.99932,0.00130934,0.036853,0.000356612,-0.777156,-0.0575595,9.7816,0.0964552,-0.581736,1.00239,-0.00777449,-0.000588726,0.0978157,1,6.58576e-05,-1.50705e-05,1.59424e-05,0.0131715,-0.00301411,0.00318849,0.99932,0.00130934,0.036853,0.000356612,-0.00269589,0.487834,-1.01842,35.5625,1,63007,39162892
72,1,0.99932,0.00130934,0.036853,0.000356612,-0.777156,-0.0575595,9.7816,0.0964552,-0.581736,1.00239,-0.00777449,-0.000588726,0.0978157,1,6.58576e-05,-1.50705e-05,1.59424e-05,0.0131715,-0.00301411,0.00318849,0.99932,0.00130934,0.036853,0.000356612,-0.00269589,0.487834,-1.01842,35.5625,1,63007,39162892
72,2,0.99932,0.00130934,0.036853,0.000356612,-0.777156,-0.0575595,9.7816,0.0964552,-0.581736,1.00239,-0.00777449,-0.000588726,0.0978157,1,6.58576e-05,-1.50705e-05,1.59424e-05,0.0131715,-0.00301411,0.00318849,0.99932,0.00130934,0.036853,0.000356612,-0.00269589,0.487834,-1.01842,35.5625,1,63007,39162892
72,3,0.99932,0.00133479,0.0368372,0.000364448,-0.75028,-0.0537051,9.78078,0.11921,-0.577863,1.00016,-0.00750695,-0.000547121,0.0978075,1,5.07497e-05,-2.12302e-05,9.4586e-06,0.0101499,-0.00424604,0.00189172,0.99932,0.00133479,0.0368372,0.000364448,-0.00211228,0.486792,-1.01491,35.5625,1,63008,39162992
72,4,0.99932,0.00133479,0.0368372,0.000364448,-0.75028,-0.0537051,9.78078,0.11921,-0.577863,1.00016,-0.00750695,-0.000547121,0.0978075,1,5.07497e-05,-2.12302e-05,9.4586e-06,0.0101499,-0.00424604,0.00189172,0.99932,0.00133479,0.0368372,0.000364448,-0.00211228,0.486792,-1.01491,35.5625,1,63008,39162992
72,5,0.99932,0.00133479,0.0368372,0.000364448,-0.75028,-0.0537051,9.78078,0.11921,-0.577863,1.00016,-0.00750695,-0.000547121,0.0978075,1,5.07497e-05,-2.12302e-05,9.4586e-06,0.0101499,-0.00424604,0.00189172,0.99932,0.00133479,0.0368372,0.000364448,-0.00211228,0.486792,-1.01491,35.5625,1,63008,39162992
72,6,0.999321,0.00137087,0.0368231,0.000361955,-0.707647,-0.0643194,9.78482,0.163901,-0.58864,0.999043,-0.00708018,-0.000653866,0.0978478,1,5.39217e-05,-1.9025e-05,8.47303e-06,0.0107844,-0.003805,0.00169461,0.999321,0.00137087,0.0368231,0.000361955,-0.00306552,0.489202,-1.01283,35.5625,1,63009,39163092
73,1,0.999321,0.00137087,0.0368231,0.000361955,-0.707647,-0.0643194,9.78482,0.163901,-0.58864,0.999043,-0.00708018,-0.000653866,0.0978478,1,5.39217e-05,-1.9025e-05,8.47303e-06,0.0107844,-0.003805,0.00169461,0.999321,0.00137087,0.0368231,0.000361955,-0.00306552,0.489202,-1.01283,35.5625,1,63009,39163092
73,2,0.999321,0.00137087,0.0368231,0.000361955,-0.707647,-0.0643194,9.78482,0.163901,-0.58864,0.999043,-0.00708018,-0.000653866,0.0978478,1,5.39217e-05,-1.9025e-05,8.47303e-06,0.0107844,-0.003805,0.00169461,0.999321,0.00137087,0.0368231,0.000361955,-0.00306552,0.489202,-1.01283,35.5625,1,63009,39163092
73,3,0.999321,0.00140578,0.0368181,0.000363384,-0.72918,-0.0675889,9.78628,0.145809,-0.589762,1.00055,-0.0072934,-0.000686262,0.0978626,1,5.23534e-05,-8.26613e-06,8.64832e-06,0.0104707,-0.00165323,0.00172966,0.999321,0.00140578,0.0368181,0.000363384,-0.00263283,0.492125,-1.01277,35.5625,1,63010,39163192
73,4,0.999321,0.00140578,0.0368181,0.000363384,-0.72918,-0.0675889,9.78628,0.145809,-0.589762,1.00055,-0.0072934,-0.000686262,0.0978626,1,5.23534e-05,-8.26613e-06,8.64832e-06,0.0104707,-0.00165323,0.00172966,0.999321,0.00140578,0.0368181,0.000363384,-0.00263283,0.492125,-1.01277,35.5625,1,63010,39163192
74,1,0.999321,0.00140578,0.0368181,0.000363384,-0.72918,-0.0675889,9.78628,0.145809,-0.589762,1.00055,-0.0072934,-0.000686262,0.0978626,1,5.23534e-05,-8.26613e-06,8.64832e-06,0.0104707,-0.00165323,0.00172966,0.999321,0.00140578,0.0368181,0.000363384,-0.00263283,0.492125,-1.01277,35.5625,1,63010,39163192
74,2,0.999322,0.00141878,0.0367991,0.000354549,-0.727319,-0.0687192,9.78593,0.144871,-0.592099,1.00336,-0.00727749,-0.000694081,0.0978589,1,3.51649e-05,-2.19381e-05,4.0807e-07,0.00703299,-0.00438763,8.16139e-05,0.999322,0.00141878,0.0367991,0.000354549,-0.00175695,0.49218,-1.01631,35.5625,1,63011,39163292
74,3,0.999322,0.00141878,0.0367991,0.000354549,-0.727319,-0.0687192,9.78593,0.144871,-0.592099,1.00336,-0.00727749,-0.000694081,0.0978589,1,3.51649e-05,-2.19381e-05,4.0807e-07,0.00703299,-0.00438763,8.16139e-05,0.999322,0.00141878,0.0367991,0.000354549,-0.00175695,0.49218,-1.01631,35.5625,1,63011,39163292
74,4,0.999322,0.00141878,0.0367991,0.000354549,-0.727319,-0.0687192,9.78593,0.144871,-0.592099,1.00336,-0.00727749,-0.000694081,0.0978589,1,3.51649e-05,-2.19381e-05,4.0807e-07,0.00703299,-0.00438763,8.16139e-05,0.999322,0.00141878,0.0367991,0.000354549,-0.00175695,0.49218,-1.01631,35.5625,1,63011,39163292
74,5,0.999322,0.00142791,0.0367829,0.000332403,-0.717474,-0.0690678,9.78348,0.155661,-0.598676,1.00136,-0.00717879,-0.000698091,0.0978345,1,3.86892e-05,-2.0645e-05,-1.09712e-05,0.00773784,-0.00412901,-0.00219425,0.999322,0.00142791,0.0367829,0.000332403,-0.0012236,0.488283,-1.0169,35.5625,1,63012,39163392
74,6,0.999322,0.00142791,0.0367829,0.000332403,-0.717474,-0.0690678,9.78348,0.155661,-0.598676,1.00136,-0.00717879,-0.000698091,0.0978345,1,3.86892e-05,-2.0645e-05,-1.09712e-05,0.00773784,-0.00412901,-0.00219425,0.999322,0.00142791,0.0367829,0.000332403,-0.0012236,0.488283,-1.0169,35.5625,1,63012,39163392
75,1,0.999322,0.00142791,0.0367829,0.000332403,-0.717474,-0.0690678,9.78348,0.155661,-0.598676,1.00136,-0.00717879,-0.000698091,0.0978345,1,3.86892e-05,-2.0645e-05,-1.09712e-05,0.00773784,-0.00412901,-0.00219425,0.999322,0.00142791,0.0367829,0.000332403,-0.0012236,0.488283,-1.0169,35.5625,1,63012,39163392
75,2,0.999322,0.0014607,0.0367763,0.000336459,-0.719226,-0.0607325,9.79815,0.152949,-0.596402,1.01742,-0.00719464,-0.000618963,0.0979812,1,5.82617e-05,-1.22228e-05,1.53779e-05,0.0116523,-0.00244456,0.00307559,0.999322,0.0014607,0.0367763,0.000336459,-0.00309492,0.487297,-1.0154,35.5625,1,63013,39163492
75,3,0.999322,0.0014607,0.0367763,0.000336459,-0.719226,-0.0607325,9.79815,0.152949,-0.596402,1.01742,-0.00719464,-0.000618963,0.0979812,1,5.82617e-05,-1.22228e-05,1.53779e-05,0.0116523,-0.00244456,0.00307559,0.999322,0.0014607,0.0367763,0.000336459,-0.00309492,0.487297,-1.0154,35.5625,1,63013,39163492
75,4,0.999322,0.0014607,0.0367763,0.000336459,-0.719226,-0.0607325,9.79815,0.152949,-0.596402,1.01742,-0.00719464,-0.000618963,0.0979812,1,5.82617e-05,-1.22228e-05,1.53779e-05,0.0116523,-0.00244456,0.00307559,0.999322,0.0014607,0.0367763,0.000336459,-0.00309492,0.487297,-1.0154,35.5625,1,63013,39163492
75,5,0.999323,0.00147869,0.0367604,0.000347565,-0.710429,-0.0498618,9.79072,0.167706,-0.571104,1.00346,-0.00710828,-0.000506363,0.0979069,1,3.8728e-05,-2.04465e-05,1.1362e-05,0.0077456,-0.0040893,0.00227239,0.999323,0.00147869,0.0367604,0.000347565,-0.00311913,0.48876,-1.01537,35.5625,1,63014,39163592
75,6,0.999323,0.00147869,0.0367604,0.000347565,-0.710429,-0.0498618,9.79072,0.167706,-0.571104,1.00346,-0.00710828,-0.000506363,0.0979069,1,3.8728e-05,-2.04465e-05,1.1362e-05,0.0077456,-0.0040893,0.00227239,0.999323,0.00147869,0.0367604,0.000347565,-0.00311913,0.48876,-1.01537,35.5625,1,63014,39163592
76,1,0.999323,0.00147869,0.0367604,0.000347565,-0.710429,-0.0498618,9.79072,0.167706,-0.571104,1.00346,-0.00710828,-0.000506363,0.0979069,1,3.8728e-05,-2.04465e-05,1.1362e-05,0.0077456,-0.0040893,0.00227239,0.999323,0.00147869,0.0367604,0.000347565,-0.00311913,0.48876,-1.01537,35.5625,1,63014,39163592
76,2,0.999323,0.00149456,0.0367547,0.00034866,-0.719485,-0.0580454,9.7829,0.154749,-0.578442,0.996527,-0.00719668,-0.000588264,0.0978288,1,3.95793e-05,-9.38016e-06,4.57314e-06,0.00791587,-0.00187603,0.000914629,0.999323,0.00149456,0.0367547,0.00034866,-0.00262949,0.489713,-1.01434,35.5625,1,63015,39163692
76,3,0.999323,0.00149456,0.0367547,0.00034866,-0.719485,-0.0580454,9.7829,0.154749,-0.578442,0.996527,-0.00719668,-0.000588264,0.0978288,1,3.95793e-05,-9.38016e-06,4.57314e-06,0.00791587,-0.00187603,0.000914629,0.999323,0.00149456,0.0367547,0.00034866,-0.00262949,0.489713,-1.01434,35.5625,1,63015,39163692
76,4,0.999323,0.00149456,0.0367547,0.00034866,-0.719485,-0.0580454,9.7829,0.154749,-0.578442,0.996527,-0.00719668,-0.000588264,0.0978288,1,3.95793e-05,-9.38016e-06,4.57314e-06,0.00791587,-0.00187603,0.000914629,0.999323,0.00149456,0.0367547,0.00034866,-0.00262949,0.489713,-1.01434,35.5625,1,63015,39163692
77,1,0.999324,0.00151883,0.0367393,0.000338537,-0.7202,-0.0685971,9.78622,0.154451,-0.588852,1.00356,-0.00720569,-0.000695323,0.0978618,1,4.7855e-05,-1.88651e-05,-1.00216e-06,0.009571,-0.00377302,-0.000200433,0.999324,0.00151883,0.0367393,0.000338537,-0.00121461,0.490686,-1.01483,35.5625,1,63016,39163792
77,2,0.999324,0.00151883,0.0367393,0.000338537,-0.7202,-0.0685971,9.78622,0.154451,-0.588852,1.00356,-0.00720569,-0.000695323,0.0978618,1,4.7855e-05,-1.88651e-05,-1.00216e-06,0.009571,-0.00377302,-0.000200433,0.999324,0.00151883,0.0367393,0.000338537,-0.00121461,0.490686,-1.01483,35.5625,1,63016,39163792
77,3,0.999324,0.00151883,0.0367393,0.000338537,-0.7202,-0.0685971,9.78622,0.154451,-0.588852,1.00356,-0.00720569,-0.000695323,0.0978618,1,4.7855e-05,-1.88651e-05,-1.00216e-06,0.009571,-0.00377302,-0.000200433,0.999324,0.00151883,0.0367393,0.000338537,-0.00121461,0.490686,-1.01483,35.5625,1,63016,39163792
77,4,0.999324,0.00154332,0.0367284,0.000338147,-0.724287,-0.0716236,9.77706,0.146043,-0.595176,0.990338,-0.00724575,-0.000726272,0.0977704,1,5.00904e-05,-1.48731e-05,1.66218e-05,0.0100181,-0.00297463,0.00332436,0.999324,0.00154332,0.0367284,0.000338147,-0.00227081,0.49269,-1.01731,35.5625,1,63017,39163892
78,1,0.999324,0.00154332,0.0367284,0.000338147,-0.724287,-0.0716236,9.77706,0.146043,-0.595176,0.990338,-0.00724575,-0.000726272,0.0977704,1,5.00904e-05,-1.48731e-05,1.66218e-05,0.0100181,-0.00297463,0.00332436,0.999324,0.00154332,0.0367284,0.000338147,-0.00227081,0.49269,-1.01731,35.5625,1,63017,39163892
78,2,0.999324,0.00154332,0.0367284,0.000338147,-0.724287,-0.0716236,9.77706,0.146043,-0.595176,0.990338,-0.00724575,-0.000726272,0.0977704,1,5.00904e-05,-1.48731e-05,1.66218e-05,0.0100181,-0.00297463,0.00332436,0.999324,0.00154332,0.0367284,0.000338147,-0.00227081,0.49269,-1.01731,35.5625,1,63017,39163892
78,3,0.999324,0.00156932,0.0367243,0.000349479,-0.729879,-0.0678049,9.78255,0.137639,-0.594164,1.00264,-0.00730014,-0.000689624,0.0978253,1,5.75744e-05,-7.06656e-06,2.12435e-05,0.0115149,-0.00141331,0.00424869,0.999324,0.00156932,0.0367243,0.000349479,-0.00272345,0.491709,-1.01682,35.5625,1,63018,39163992
78,4,0.999324,0.00156932,0.0367243,0.000349479,-0.729879,-0.0678049,9.78255,0.137639,-0.594164,1.00264,-0.00730014,-0.000689624,0.0978253,1,5.75744e-05,-7.06656e-06,2.12435e-05,0.0115149,-0.00141331,0.00424869,0.999324,0.00156932,0.0367243,0.000349479,-0.00272345,0.491709,-1.01682,35.5625,1,63018,39163992
78,5,0.999324,0.00156932,0.0367243,0.000349479,-0.729879,-0.0678049,9.78255,0.137639,-0.594164,1.00264,-0.00730014,-0.000689624,0.0978253,1,5.75744e-05,-7.06656e-06,2.12435e-05,0.0115149,-0.00141331,0.00424869,0.999324,0.00156932,0.0367243,0.000349479,-0.00272345,0.491709,-1.01682,35.5625,1,63018,39163992
78,6,0.999325,0.00159997,0.0367087,0.000359338,-0.725648,-0.0766898,9.78279,0.146637,-0.6124,0.997517,-0.00726016,-0.000778646,0.0978275,1,5.88465e-05,-1.89409e-05,1.61588e-05,0.0117693,-0.00378819,0.00323175,0.999325,0.00159997,0.0367087,0.000359338,-0.00214502,0.487298,-1.01591,35.5625,1,63019,39164092
79,1,0.999325,0.00159997,0.0367087,0.000359338,-0.725648,-0.0766898,9.78279,0.146637,-0.6124,0.997517,-0.00726016,-0.000778646,0.0978275,1,5.88465e-05,-1.89409e-05,1.61588e-05,0.0117693,-0.00378819,0.00323175,0.999325,0.00159997,0.0367087,0.000359338,-0.00214502,0.487298,-1.01591,35.5625,1,63019,39164092
79,2,0.999325,0.00159997,0.0367087,0.000359338,-0.725648,-0.0766898,9.78279,0.146637,-0.6124,0.997517,-0.00726016,-0.000778646,0.0978275,1,5.88465e-05,-1.89409e-05,1.61588e-05,0.0117693,-0.00378819,0.00323175,0.999325,0.00159997,0.0367087,0.000359338,-0.00214502,0.487298,-1.01591,35.5625,1,63019,39164092
