frame_id,imu_idx,quat_w,quat_x,quat_y,quat_z,accel_x,accel_y,accel_z,free_accel_x,free_accel_y,free_accel_z,delta_v_x,delta_v_y,delta_v_z,delta_q_w,delta_q_x,delta_q_y,delta_q_z,rate_x,rate_y,rate_z,quat_w,quat_x,quat_y,quat_z,mag_x,mag_y,mag_z,temperature,status_byte,packet_counter,time_fine
1,1,0.998755,0.0270713,0.0310173,0.0281799,-0.833122,-0.0825179,9.78462,-0.139214,-1.11487,1.12298,-0.00833001,-0.000829289,0.0978463,1,2.03997e-05,6.10771e-06,7.03692e-06,0.00407994,0.00122154,0.00140738,0.998755,0.0270713,0.0310173,0.0281799,0.125276,0.342292,-1.18134,35.4375,3,38249,36681114
1,2,0.998755,0.0270713,0.0310173,0.0281799,-0.552321,-0.07136,7.34511,-0.139214,-1.11487,1.12298,-0.00552397,-0.000720382,0.0734509,1,4.44055e-05,-5.43117e-06,2.34134e-05,0.00888111,-0.00108623,0.00468267,0.998755,0.0270713,0.0310173,0.0281799,0.0181906,0.516911,-0.989589,35.4375,1,45289,37386582
1,3,0.998755,0.0270713,0.0310173,0.0281799,-0.552321,-0.07136,7.34511,-0.139214,-1.11487,1.12298,-0.00552397,-0.000720382,0.0734509,1,4.44055e-05,-5.43117e-06,2.34134e-05,0.00888111,-0.00108623,0.00468267,0.998755,0.0270713,0.0310173,0.0281799,0.0181906,0.516911,-0.989589,35.4375,1,45289,37386582
1,4,0.998755,0.0270713,0.0310173,0.0281799,-0.552321,-0.07136,7.34511,-0.139214,-1.11487,1.12298,-0.00552397,-0.000720382,0.0734509,1,4.44055e-05,-5.43117e-06,2.34134e-05,0.00888111,-0.00108623,0.00468267,0.998755,0.0270713,0.0310173,0.0281799,0.0181906,0.516911,-0.989589,35.4375,1,45289,37386582
2,1,0.999285,-0.0048246,0.0375067,-0.000185731,-0.718455,-0.0685039,9.78364,0.147254,-0.471739,0.988522,-0.00718779,-0.000697142,0.0978361,1,6.18566e-05,-1.65644e-05,-5.95458e-09,0.0123713,-0.00331287,-1.19092e-06,0.999285,-0.0048246,0.0375067,-0.000185731,0.0167473,0.516923,-0.989582,35.4375,1,45290,37386682
2,2,0.999285,-0.0048246,0.0375067,-0.000185731,-0.718455,-0.0685039,9.78364,0.147254,-0.471739,0.988522,-0.00718779,-0.000697142,0.0978361,1,6.18566e-05,-1.65644e-05,-5.95458e-09,0.0123713,-0.00331287,-1.19092e-06,0.999285,-0.0048246,0.0375067,-0.000185731,0.0167473,0.516923,-0.989582,35.4375,1,45290,37386682
2,3,0.999285,-0.0048246,0.0375067,-0.000185731,-0.718455,-0.0685039,9.78364,0.147254,-0.471739,0.988522,-0.00718779,-0.000697142,0.0978361,1,6.18566e-05,-1.65644e-05,-5.95458e-09,0.0123713,-0.00331287,-1.19092e-06,0.999285,-0.0048246,0.0375067,-0.000185731,0.0167473,0.516923,-0.989582,35.4375,1,45290,37386682
2,4,0.999286,-0.00477233,0.0374773,-0.000199325,-0.724136,-0.0694866,9.79927,0.143207,-0.477692,1.0059,-0.00724579,-0.000705368,0.0979923,1,5.34149e-05,-2.26258e-05,2.34884e-06,0.010683,-0.00452517,0.000469767,0.999286,-0.00477233,0.0374773,-0.000199325,0.0177257,0.51594,-0.989609,35.4375,1,45291,37386782
3,1,0.999286,-0.00477233,0.0374773,-0.000199325,-0.724136,-0.0694866,9.79927,0.143207,-0.477692,1.0059,-0.00724579,-0.000705368,0.0979923,1,5.34149e-05,-2.26258e-05,2.34884e-06,0.010683,-0.00452517,0.000469767,0.999286,-0.00477233,0.0374773,-0.000199325,0.0177257,0.51594,-0.989609,35.4375,1,45291,37386782
3,2,0.999286,-0.00477233,0.0374773,-0.000199325,-0.724136,-0.0694866,9.79927,0.143207,-0.477692,1.0059,-0.00724579,-0.000705368,0.0979923,1,5.34149e-05,-2.26258e-05,2.34884e-06,0.010683,-0.00452517,0.000469767,0.999286,-0.00477233,0.0374773,-0.000199325,0.0177257,0.51594,-0.989609,35.4375,1,45291,37386782
3,3,0.999287,-0.00471763,0.0374533,-0.000206881,-0.714351,-0.0712417,9.7819,0.145761,-0.478116,0.98413,-0.00714819,-0.000722967,0.0978186,1,5.43333e-05,-2.38811e-05,-5.60271e-06,0.0108667,-0.00477621,-0.00112054,0.999287,-0.00471763,0.0374533,-0.000206881,0.0186433,0.517892,-0.990074,35.4375,1,45292,37386882
3,4,0.999287,-0.00471763,0.0374533,-0.000206881,-0.714351,-0.0712417,9.7819,0.145761,-0.478116,0.98413,-0.00714819,-0.000722967,0.0978186,1,5.43333e-05,-2.38811e-05,-5.60271e-06,0.0108667,-0.00477621,-0.00112054,0.999287,-0.00471763,0.0374533,-0.000206881,0.0186433,0.517892,-0.990074,35.4375,1,45292,37386882
4,1,0.999287,-0.00471763,0.0374533,-0.000206881,-0.714351,-0.0712417,9.7819,0.145761,-0.478116,0.98413,-0.00714819,-0.000722967,0.0978186,1,5.43333e-05,-2.38811e-05,-5.60271e-06,0.0108667,-0.00477621,-0.00112054,0.999287,-0.00471763,0.0374533,-0.000206881,0.0186433,0.517892,-0.990074,35.4375,1,45292,37386882
4,2,0.999288,-0.00467208,0.0374276,-0.000192935,-0.691676,-0.057087,9.77882,0.169955,-0.467432,0.979058,-0.00692161,-0.000579888,0.0977878,1,4.48712e-05,-2.48568e-05,1.74846e-05,0.00897425,-0.00497135,0.00349693,0.999288,-0.00467208,0.0374276,-0.000192935,0.0185901,0.518895,-0.991567,35.4375,1,45293,37386982
4,3,0.999288,-0.00467208,0.0374276,-0.000192935,-0.691676,-0.057087,9.77882,0.169955,-0.467432,0.979058,-0.00692161,-0.000579888,0.0977878,1,4.48712e-05,-2.48568e-05,1.74846e-05,0.00897425,-0.00497135,0.00349693,0.999288,-0.00467208,0.0374276,-0.000192935,0.0185901,0.518895,-0.991567,35.4375,1,45293,37386982
4,4,0.999288,-0.00467208,0.0374276,-0.000192935,-0.691676,-0.057087,9.77882,0.169955,-0.467432,0.979058,-0.00692161,-0.000579888,0.0977878,1,4.48712e-05,-2.48568e-05,1.74846e-05,0.00897425,-0.00497135,0.00349693,0.999288,-0.00467208,0.0374276,-0.000192935,0.0185901,0.518895,-0.991567,35.4375,1,45293,37386982
8,1,0.999289,-0.00462037,0.0374084,-0.000182722,-0.685384,-0.0795627,9.78333,0.181008,-0.488155,0.98617,-0.00685754,-0.000805772,0.0978329,1,5.09955e-05,-1.90494e-05,1.21965e-05,0.0101991,-0.00380989,0.0024393,0.999289,-0.00462037,0.0374084,-0.000182722,0.0176066,0.516509,-0.994141,35.4375,1,45294,37387082
8,2,0.999289,-0.00462037,0.0374084,-0.000182722,-0.685384,-0.0795627,9.78333,0.181008,-0.488155,0.98617,-0.00685754,-0.000805772,0.0978329,1,5.09955e-05,-1.90494e-05,1.21965e-05,0.0101991,-0.00380989,0.0024393,0.999289,-0.00462037,0.0374084,-0.000182722,0.0176066,0.516509,-0.994141,35.4375,1,45294,37387082
8,3,0.999289,-0.00462037,0.0374084,-0.000182722,-0.685384,-0.0795627,9.78333,0.181008,-0.488155,0.98617,-0.00685754,-0.000805772,0.0978329,1,5.09955e-05,-1.90494e-05,1.21965e-05,0.0101991,-0.00380989,0.0024393,0.999289,-0.00462037,0.0374084,-0.000182722,0.0176066,0.516509,-0.994141,35.4375,1,45294,37387082
8,4,0.99929,-0.00457353,0.037406,-0.000171823,-0.717756,-0.0837883,9.79232,0.151752,-0.49307,0.999215,-0.00717801,-0.000847131,0.097923,1,4.62849e-05,-2.39325e-06,1.27516e-05,0.00925699,-0.00047865,0.00255031,0.99929,-0.00457353,0.037406,-0.000171823,0.0162738,0.514994,-0.990633,35.4375,1,45295,37387182
9,1,0.99929,-0.00457353,0.037406,-0.000171823,-0.717756,-0.0837883,9.79232,0.151752,-0.49307,0.999215,-0.00717801,-0.000847131,0.097923,1,4.62849e-05,-2.39325e-06,1.27516e-05,0.00925699,-0.00047865,0.00255031,0.99929,-0.00457353,0.037406,-0.000171823,0.0162738,0.514994,-0.990633,35.4375,1,45295,37387182
9,2,0.99929,-0.00457353,0.037406,-0.000171823,-0.717756,-0.0837883,9.79232,0.151752,-0.49307,0.999215,-0.00717801,-0.000847131,0.097923,1,4.62849e-05,-2.39325e-06,1.27516e-05,0.00925699,-0.00047865,0.00255031,0.99929,-0.00457353,0.037406,-0.000171823,0.0162738,0.514994,-0.990633,35.4375,1,45295,37387182
9,3,0.99929,-0.00451818,0.037396,-0.000154355,-0.732359,-0.0896821,9.77168,0.136358,-0.497737,0.976382,-0.00732551,-0.000907735,0.0977166,1,5.43819e-05,-9.97996e-06,1.94719e-05,0.0108764,-0.00199599,0.00389437,0.99929,-0.00451818,0.037396,-0.000154355,0.0168004,0.515921,-0.98809,35.4375,1,45296,37387282
9,4,0.99929,-0.00451818,0.037396,-0.000154355,-0.732359,-0.0896821,9.77168,0.136358,-0.497737,0.976382,-0.00732551,-0.000907735,0.0977166,1,5.43819e-05,-9.97996e-06,1.94719e-05,0.0108764,-0.00199599,0.00389437,0.99929,-0.00451818,0.037396,-0.000154355,0.0168004,0.515921,-0.98809,35.4375,1,45296,37387282
10,1,0.99929,-0.00451818,0.037396,-0.000154355,-0.732359,-0.0896821,9.77168,0.136358,-0.497737,0.976382,-0.00732551,-0.000907735,0.0977166,1,5.43819e-05,-9.97996e-06,1.94719e-05,0.0108764,-0.00199599,0.00389437,0.99929,-0.00451818,0.037396,-0.000154355,0.0168004,0.515921,-0.98809,35.4375,1,45296,37387282
10,2,0.999292,-0.00446129,0.0373679,-0.000150808,-0.720769,-0.0672201,9.78707,0.137062,-0.474566,0.993665,-0.00721318,-0.000683304,0.0978702,1,5.6319e-05,-2.8122e-05,5.48384e-06,0.0112638,-0.0056244,0.00109677,0.999292,-0.00446129,0.0373679,-0.000150808,0.0186594,0.516916,-0.990096,35.4375,1,45297,37387382
10,3,0.999292,-0.00446129,0.0373679,-0.000150808,-0.720769,-0.0672201,9.78707,0.137062,-0.474566,0.993665,-0.00721318,-0.000683304,0.0978702,1,5.6319e-05,-2.8122e-05,5.48384e-06,0.0112638,-0.0056244,0.00109677,0.999292,-0.00446129,0.0373679,-0.000150808,0.0186594,0.516916,-0.990096,35.4375,1,45297,37387382
10,4,0.999292,-0.00446129,0.0373679,-0.000150808,-0.720769,-0.0672201,9.78707,0.137062,-0.474566,0.993665,-0.00721318,-0.000683304,0.0978702,1,5.6319e-05,-2.8122e-05,5.48384e-06,0.0112638,-0.0056244,0.00109677,0.999292,-0.00446129,0.0373679,-0.000150808,0.0186594,0.516916,-0.990096,35.4375,1,45297,37387382
11,1,0.999292,-0.00442098,0.0373532,-0.000138693,-0.709565,-0.0796363,9.79196,0.15561,-0.492505,0.992307,-0.0070985,-0.000804292,0.0979193,1,3.95066e-05,-1.46777e-05,1.35006e-05,0.00790133,-0.00293553,0.00270012,0.999292,-0.00442098,0.0373532,-0.000138693,0.0175786,0.518939,-0.993582,35.4375,1,45298,37387482
11,2,0.999292,-0.00442098,0.0373532,-0.000138693,-0.709565,-0.0796363,9.79196,0.15561,-0.492505,0.992307,-0.0070985,-0.000804292,0.0979193,1,3.95066e-05,-1.46777e-05,1.35006e-05,0.00790133,-0.00293553,0.00270012,0.999292,-0.00442098,0.0373532,-0.000138693,0.0175786,0.518939,-0.993582,35.4375,1,45298,37387482
11,3,0.999292,-0.00442098,0.0373532,-0.000138693,-0.709565,-0.0796363,9.79196,0.15561,-0.492505,0.992307,-0.0070985,-0.000804292,0.0979193,1,3.95066e-05,-1.46777e-05,1.35006e-05,0.00790133,-0.00293553,0.00270012,0.999292,-0.00442098,0.0373532,-0.000138693,0.0175786,0.518939,-0.993582,35.4375,1,45298,37387482
11,4,0.999293,-0.00436132,0.0373367,-0.000127419,-0.716139,-0.0670864,9.78126,0.139436,-0.481136,0.981363,-0.00716456,-0.000682622,0.0978123,1,5.91297e-05,-1.63224e-05,1.33439e-05,0.0118259,-0.00326448,0.00266878,0.999293,-0.00436132,0.0373367,-0.000127419,0.0195149,0.517468,-0.994128,35.4375,1,45299,37387582
12,1,0.999293,-0.00436132,0.0373367,-0.000127419,-0.716139,-0.0670864,9.78126,0.139436,-0.481136,0.981363,-0.00716456,-0.000682622,0.0978123,1,5.91297e-05,-1.63224e-05,1.33439e-05,0.0118259,-0.00326448,0.00266878,0.999293,-0.00436132,0.0373367,-0.000127419,0.0195149,0.517468,-0.994128,35.4375,1,45299,37387582
12,2,0.999293,-0.00436132,0.0373367,-0.000127419,-0.716139,-0.0670864,9.78126,0.139436,-0.481136,0.981363,-0.00716456,-0.000682622,0.0978123,1,5.91297e-05,-1.63224e-05,1.33439e-05,0.0118259,-0.00326448,0.00266878,0.999293,-0.00436132,0.0373367,-0.000127419,0.0195149,0.517468,-0.994128,35.4375,1,45299,37387582
12,3,0.999293,-0.00430983,0.0373382,-0.000126562,-0.728879,-0.0639304,9.78103,0.133396,-0.480722,0.989872,-0.00728848,-0.000649346,0.0978102,1,5.11371e-05,1.5741e-06,2.68568e-06,0.0102274,0.000314819,0.000537135,0.999293,-0.00430983,0.0373382,-0.000126562,0.0195552,0.515029,-0.994183,35.4375,1,45300,37387682
12,4,0.999293,-0.00430983,0.0373382,-0.000126562,-0.728879,-0.0639304,9.78103,0.133396,-0.480722,0.989872,-0.00728848,-0.000649346,0.0978102,1,5.11371e-05,1.5741e-06,2.68568e-06,0.0102274,0.000314819,0.000537135,0.999293,-0.00430983,0.0373382,-0.000126562,0.0195552,0.515029,-0.994183,35.4375,1,45300,37387682
10,1,0.999293,-0.00430983,0.0373382,-0.000126562,-0.728879,-0.0639304,9.78103,0.133396,-0.480722,0.989872,-0.00728848,-0.000649346,0.0978102,1,5.11371e-05,1.5741e-06,2.68568e-06,0.0102274,0.000314819,0.000537135,0.999293,-0.00430983,0.0373382,-0.000126562,0.0195552,0.515029,-0.994183,35.4375,1,45300,37387682
10,2,0.999295,-0.00426731,0.0373123,-0.00012166,-0.70649,-0.0672497,9.78832,0.152952,-0.483732,0.993564,-0.00706995,-0.000680888,0.0978828,1,4.23956e-05,-2.5807e-05,6.45029e-06,0.00847913,-0.0051614,0.00129006,0.999295,-0.00426731,0.0373123,-0.00012166,0.0167506,0.514512,-0.991151,35.4375,1,45301,37387782
10,3,0.999295,-0.00426731,0.0373123,-0.00012166,-0.70649,-0.0672497,9.78832,0.152952,-0.483732,0.993564,-0.00706995,-0.000680888,0.0978828,1,4.23956e-05,-2.5807e-05,6.45029e-06,0.00847913,-0.0051614,0.00129006,0.999295,-0.00426731,0.0373123,-0.00012166,0.0167506,0.514512,-0.991151,35.4375,1,45301,37387782
10,4,0.999295,-0.00426731,0.0373123,-0.00012166,-0.70649,-0.0672497,9.78832,0.152952,-0.483732,0.993564,-0.00706995,-0.000680888,0.0978828,1,4.23956e-05,-2.5807e-05,6.45029e-06,0.00847913,-0.0051614,0.00129006,0.999295,-0.00426731,0.0373123,-0.00012166,0.0167506,0.514512,-0.991151,35.4375,1,45301,37387782
14,1,0.999295,-0.00421454,0.0372945,-0.000112977,-0.721366,-0.0748912,9.79684,0.143689,-0.490102,1.0013,-0.00721709,-0.000759266,0.0979681,1,5.20796e-05,-1.75685e-05,1.04008e-05,0.0104159,-0.00351369,0.00208017,0.999295,-0.00421454,0.0372945,-0.000112977,0.0162908,0.516909,-0.98857,35.4375,1,45302,37387882
14,2,0.999295,-0.00421454,0.0372945,-0.000112977,-0.721366,-0.0748912,9.79684,0.143689,-0.490102,1.0013,-0.00721709,-0.000759266,0.0979681,1,5.20796e-05,-1.75685e-05,1.04008e-05,0.0104159,-0.00351369,0.00208017,0.999295,-0.00421454,0.0372945,-0.000112977,0.0162908,0.516909,-0.98857,35.4375,1,45302,37387882
14,3,0.999295,-0.00421454,0.0372945,-0.000112977,-0.721366,-0.0748912,9.79684,0.143689,-0.490102,1.0013,-0.00721709,-0.000759266,0.0979681,1,5.20796e-05,-1.75685e-05,1.04008e-05,0.0104159,-0.00351369,0.00208017,0.999295,-0.00421454,0.0372945,-0.000112977,0.0162908,0.516909,-0.98857,35.4375,1,45302,37387882
14,4,0.999296,-0.0041631,0.0372838,-0.000101255,-0.720919,-0.068941,9.78263,0.145793,-0.486318,0.987914,-0.00721124,-0.000699541,0.0978261,1,5.08037e-05,-1.05444e-05,1.3249e-05,0.0101607,-0.00210889,0.00264979,0.999296,-0.0041631,0.0372838,-0.000101255,0.0181868,0.517878,-0.989063,35.4375,1,45303,37387982
15,1,0.999296,-0.0041631,0.0372838,-0.000101255,-0.720919,-0.068941,9.78263,0.145793,-0.486318,0.987914,-0.00721124,-0.000699541,0.0978261,1,5.08037e-05,-1.05444e-05,1.3249e-05,0.0101607,-0.00210889,0.00264979,0.999296,-0.0041631,0.0372838,-0.000101255,0.0181868,0.517878,-0.989063,35.4375,1,45303,37387982
15,2,0.999296,-0.0041631,0.0372838,-0.000101255,-0.720919,-0.068941,9.78263,0.145793,-0.486318,0.987914,-0.00721124,-0.000699541,0.0978261,1,5.08037e-05,-1.05444e-05,1.3249e-05,0.0101607,-0.00210889,0.00264979,0.999296,-0.0041631,0.0372838,-0.000101255,0.0181868,0.517878,-0.989063,35.4375,1,45303,37387982
15,3,0.999297,-0.00409361,0.0372624,-0.000101191,-0.727905,-0.0723114,9.78842,0.132477,-0.491954,0.993286,-0.0072832,-0.000736695,0.0978838,1,6.9188e-05,-2.12098e-05,2.47535e-06,0.0138376,-0.00424197,0.000495069,0.999297,-0.00409361,0.0372624,-0.000101191,0.0190504,0.517942,-0.993106,35.4375,1,45304,37388082
15,4,0.999297,-0.00409361,0.0372624,-0.000101191,-0.727905,-0.0723114,9.78842,0.132477,-0.491954,0.993286,-0.0072832,-0.000736695,0.0978838,1,6.9188e-05,-2.12098e-05,2.47535e-06,0.0138376,-0.00424197,0.000495069,0.999297,-0.00409361,0.0372624,-0.000101191,0.0190504,0.517942,-0.993106,35.4375,1,45304,37388082
16,1,0.999297,-0.00409361,0.0372624,-0.000101191,-0.727905,-0.0723114,9.78842,0.132477,-0.491954,0.993286,-0.0072832,-0.000736695,0.0978838,1,6.9188e-05,-2.12098e-05,2.47535e-06,0.0138376,-0.00424197,0.000495069,0.999297,-0.00409361,0.0372624,-0.000101191,0.0190504,0.517942,-0.993106,35.4375,1,45304,37388082
16,2,0.999298,-0.00404652,0.037253,-8.44799e-05,-0.742982,-0.0688222,9.78448,0.119712,-0.490902,0.987562,-0.0074316,-0.000697434,0.0978446,1,4.57001e-05,-9.21643e-06,1.81047e-05,0.00914002,-0.00184329,0.00362094,0.999298,-0.00404652,0.037253,-8.44799e-05,0.0190376,0.516506,-0.994653,35.4375,1,45305,37388182
16,3,0.999298,-0.00404652,0.037253,-8.44799e-05,-0.742982,-0.0688222,9.78448,0.119712,-0.490902,0.987562,-0.0074316,-0.000697434,0.0978446,1,4.57001e-05,-9.21643e-06,1.81047e-05,0.00914002,-0.00184329,0.00362094,0.999298,-0.00404652,0.037253,-8.44799e-05,0.0190376,0.516506,-0.994653,35.4375,1,45305,37388182
16,4,0.999298,-0.00404652,0.037253,-8.44799e-05,-0.742982,-0.0688222,9.78448,0.119712,-0.490902,0.987562,-0.0074316,-0.000697434,0.0978446,1,4.57001e-05,-9.21643e-06,1.81047e-05,0.00914002,-0.00184329,0.00362094,0.999298,-0.00404652,0.037253,-8.44799e-05,0.0190376,0.516506,-0.994653,35.4375,1,45305,37388182
17,1,0.999298,-0.00400184,0.0372497,-7.98643e-05,-0.746369,-0.0757306,9.78376,0.112337,-0.49755,0.992703,-0.00746429,-0.000766041,0.0978375,1,4.41727e-05,-3.1048e-06,6.11845e-06,0.00883453,-0.000620961,0.00122369,0.999298,-0.00400184,0.0372497,-7.98643e-05,0.0176716,0.514052,-0.993186,35.4375,1,45306,37388282
17,2,0.999298,-0.00400184,0.0372497,-7.98643e-05,-0.746369,-0.0757306,9.78376,0.112337,-0.49755,0.992703,-0.00746429,-0.000766041,0.0978375,1,4.41727e-05,-3.1048e-06,6.11845e-06,0.00883453,-0.000620961,0.00122369,0.999298,-0.00400184,0.0372497,-7.98643e-05,0.0176716,0.514052,-0.993186,35.4375,1,45306,37388282
17,3,0.999298,-0.00400184,0.0372497,-7.98643e-05,-0.746369,-0.0757306,9.78376,0.112337,-0.49755,0.992703,-0.00746429,-0.000766041,0.0978375,1,4.41727e-05,-3.1048e-06,6.11845e-06,0.00883453,-0.000620961,0.00122369,0.999298,-0.00400184,0.0372497,-7.98643e-05,0.0176716,0.514052,-0.993186,35.4375,1,45306,37388282
17,4,0.999299,-0.00395174,0.0372298,-6.83707e-05,-0.721505,-0.0723758,9.78261,0.138258,-0.493279,0.99299,-0.0072189,-0.000733487,0.0978258,1,4.87529e-05,-1.97888e-05,1.31968e-05,0.00975057,-0.00395776,0.00263937,0.999299,-0.00395174,0.0372298,-6.83707e-05,0.0163061,0.513043,-0.990677,35.4375,1,45307,37388382
18,1,0.999299,-0.00395174,0.0372298,-6.83707e-05,-0.721505,-0.0723758,9.78261,0.138258,-0.493279,0.99299,-0.0072189,-0.000733487,0.0978258,1,4.87529e-05,-1.97888e-05,1.31968e-05,0.00975057,-0.00395776,0.00263937,0.999299,-0.00395174,0.0372298,-6.83707e-05,0.0163061,0.513043,-0.990677,35.4375,1,45307,37388382
18,2,0.999299,-0.00395174,0.0372298,-6.83707e-05,-0.721505,-0.0723758,9.78261,0.138258,-0.493279,0.99299,-0.0072189,-0.000733487,0.0978258,1,4.87529e-05,-1.97888e-05,1.31968e-05,0.00975057,-0.00395776,0.00263937,0.999299,-0.00395174,0.0372298,-6.83707e-05,0.0163061,0.513043,-0.990677,35.4375,1,45307,37388382
18,3,0.9993,-0.00390572,0.0372133,-6.61054e-05,-0.726542,-0.0786855,9.78938,0.128573,-0.497739,0.999974,-0.0072686,-0.000795819,0.0978934,1,4.54989e-05,-1.62812e-05,3.80912e-06,0.00909979,-0.00325624,0.000761823,0.9993,-0.00390572,0.0372133,-6.61054e-05,0.0167962,0.515442,-0.988605,35.4375,1,45308,37388482
18,4,0.9993,-0.00390572,0.0372133,-6.61054e-05,-0.726542,-0.0786855,9.78938,0.128573,-0.497739,0.999974,-0.0072686,-0.000795819,0.0978934,1,4.54989e-05,-1.62812e-05,3.80912e-06,0.00909979,-0.00325624,0.000761823,0.9993,-0.00390572,0.0372133,-6.61054e-05,0.0167962,0.515442,-0.988605,35.4375,1,45308,37388482
19,1,0.9993,-0.00390572,0.0372133,-6.61054e-05,-0.726542,-0.0786855,9.78938,0.128573,-0.497739,0.999974,-0.0072686,-0.000795819,0.0978934,1,4.54989e-05,-1.62812e-05,3.80912e-06,0.00909979,-0.00325624,0.000761823,0.9993,-0.00390572,0.0372133,-6.61054e-05,0.0167962,0.515442,-0.988605,35.4375,1,45308,37388482
19,2,0.999301,-0.00386019,0.037193,-4.4145e-05,-0.728923,-0.0732092,9.78707,0.135131,-0.490795,0.992192,-0.00729314,-0.000741102,0.0978703,1,4.42845e-05,-2.01836e-05,2.34338e-05,0.00885689,-0.00403671,0.00468676,0.999301,-0.00386019,0.037193,-4.4145e-05,0.0187045,0.516402,-0.988593,35.4375,1,45309,37388582
19,3,0.999301,-0.00386019,0.037193,-4.4145e-05,-0.728923,-0.0732092,9.78707,0.135131,-0.490795,0.992192,-0.00729314,-0.000741102,0.0978703,1,4.42845e-05,-2.01836e-05,2.34338e-05,0.00885689,-0.00403671,0.00468676,0.999301,-0.00386019,0.037193,-4.4145e-05,0.0187045,0.516402,-0.988593,35.4375,1,45309,37388582
19,4,0.999301,-0.00386019,0.037193,-4.4145e-05,-0.728923,-0.0732092,9.78707,0.135131,-0.490795,0.992192,-0.00729314,-0.000741102,0.0978703,1,4.42845e-05,-2.01836e-05,2.34338e-05,0.00885689,-0.00403671,0.00468676,0.999301,-0.00386019,0.037193,-4.4145e-05,0.0187045,0.516402,-0.988593,35.4375,1,45309,37388582
20,1,0.999302,-0.00381967,0.0371725,-3.80754e-05,-0.721119,-0.0878238,9.77501,0.138323,-0.514269,0.981892,-0.00721513,-0.000886164,0.0977497,1,4.0006e-05,-2.02206e-05,7.31844e-06,0.0080012,-0.00404412,0.00146369,0.999302,-0.00381967,0.0371725,-3.80754e-05,0.0195562,0.51792,-0.992098,35.4375,1,45310,37388682
20,2,0.999302,-0.00381967,0.0371725,-3.80754e-05,-0.721119,-0.0878238,9.77501,0.138323,-0.514269,0.981892,-0.00721513,-0.000886164,0.0977497,1,4.0006e-05,-2.02206e-05,7.31844e-06,0.0080012,-0.00404412,0.00146369,0.999302,-0.00381967,0.0371725,-3.80754e-05,0.0195562,0.51792,-0.992098,35.4375,1,45310,37388682
20,3,0.999302,-0.00381967,0.0371725,-3.80754e-05,-0.721119,-0.0878238,9.77501,0.138323,-0.514269,0.981892,-0.00721513,-0.000886164,0.0977497,1,4.0006e-05,-2.02206e-05,7.31844e-06,0.0080012,-0.00404412,0.00146369,0.999302,-0.00381967,0.0371725,-3.80754e-05,0.0195562,0.51792,-0.992098,35.4375,1,45310,37388682
20,4,0.999302,-0.00378164,0.0371548,-2.56393e-05,-0.710079,-0.0691808,9.7734,0.145339,-0.499114,0.975667,-0.0071042,-0.000699257,0.0977337,1,3.71057e-05,-1.75237e-05,1.3808e-05,0.00742114,-0.00350474,0.0027616,0.999302,-0.00378164,0.0371548,-2.56393e-05,0.0190623,0.516488,-0.993643,35.4375,1,45311,37388782
21,1,0.999302,-0.00378164,0.0371548,-2.56393e-05,-0.710079,-0.0691808,9.7734,0.145339,-0.499114,0.975667,-0.0071042,-0.000699257,0.0977337,1,3.71057e-05,-1.75237e-05,1.3808e-05,0.00742114,-0.00350474,0.0027616,0.999302,-0.00378164,0.0371548,-2.56393e-05,0.0190623,0.516488,-0.993643,35.4375,1,45311,37388782
21,2,0.999302,-0.00378164,0.0371548,-2.56393e-05,-0.710079,-0.0691808,9.7734,0.145339,-0.499114,0.975667,-0.0071042,-0.000699257,0.0977337,1,3.71057e-05,-1.75237e-05,1.3808e-05,0.00742114,-0.00350474,0.0027616,0.999302,-0.00378164,0.0371548,-2.56393e-05,0.0190623,0.516488,-0.993643,35.4375,1,45311,37388782
21,3,0.999303,-0.0037224,0.0371456,-1.77907e-05,-0.713546,-0.0666964,9.77378,0.144193,-0.495905,0.978477,-0.00713717,-0.00067859,0.0977376,1,5.87236e-05,-8.86409e-06,1.02854e-05,0.0117447,-0.00177282,0.00205709,0.999303,-0.0037224,0.0371456,-1.77907e-05,0.0171497,0.51505,-0.994171,35.4375,1,45312,37388882
21,4,0.999303,-0.0037224,0.0371456,-1.77907e-05,-0.713546,-0.0666964,9.77378,0.144193,-0.495905,0.978477,-0.00713717,-0.00067859,0.0977376,1,5.87236e-05,-8.86409e-06,1.02854e-05,0.0117447,-0.00177282,0.00205709,0.999303,-0.0037224,0.0371456,-1.77907e-05,0.0171497,0.51505,-0.994171,35.4375,1,45312,37388882
22,1,0.999303,-0.0037224,0.0371456,-1.77907e-05,-0.713546,-0.0666964,9.77378,0.144193,-0.495905,0.978477,-0.00713717,-0.00067859,0.0977376,1,5.87236e-05,-8.86409e-06,1.02854e-05,0.0117447,-0.00177282,0.00205709,0.999303,-0.0037224,0.0371456,-1.77907e-05,0.0171497,0.51505,-0.994171,35.4375,1,45312,37388882
22,2,0.999303,-0.00367047,0.0371446,-1.44317e-05,-0.739259,-0.0776703,9.78776,0.12011,-0.504983,0.997616,-0.00739271,-0.000786781,0.0978775,1,5.10961e-05,-6.96944e-07,5.13146e-06,0.0102192,-0.000139389,0.00102629,0.999303,-0.00367047,0.0371446,-1.44317e-05,0.016734,0.514042,-0.992172,35.4375,1,45313,37388982
22,3,0.999303,-0.00367047,0.0371446,-1.44317e-05,-0.739259,-0.0776703,9.78776,0.12011,-0.504983,0.997616,-0.00739271,-0.000786781,0.0978775,1,5.10961e-05,-6.96944e-07,5.13146e-06,0.0102192,-0.000139389,0.00102629,0.999303,-0.00367047,0.0371446,-1.44317e-05,0.016734,0.514042,-0.992172,35.4375,1,45313,37388982
22,4,0.999303,-0.00367047,0.0371446,-1.44317e-05,-0.739259,-0.0776703,9.78776,0.12011,-0.504983,0.997616,-0.00739271,-0.000786781,0.0978775,1,5.10961e-05,-6.96944e-07,5.13146e-06,0.0102192,-0.000139389,0.00102629,0.999303,-0.00367047,0.0371446,-1.44317e-05,0.016734,0.514042,-0.992172,35.4375,1,45313,37388982
23,1,0.999304,-0.00362134,0.0371396,-5.29108e-06,-0.732889,-0.0721189,9.77963,0.12508,-0.499356,0.98463,-0.00732979,-0.000730734,0.0977962,1,4.79966e-05,-4.71637e-06,1.06861e-05,0.00959932,-0.000943274,0.00213721,0.999304,-0.00362134,0.0371396,-5.29108e-06,0.0177418,0.514964,-0.98963,35.4375,1,45314,37389082
23,2,0.999304,-0.00362134,0.0371396,-5.29108e-06,-0.732889,-0.0721189,9.77963,0.12508,-0.499356,0.98463,-0.00732979,-0.000730734,0.0977962,1,4.79966e-05,-4.71637e-06,1.06861e-05,0.00959932,-0.000943274,0.00213721,0.999304,-0.00362134,0.0371396,-5.29108e-06,0.0177418,0.514964,-0.98963,35.4375,1,45314,37389082
23,3,0.999304,-0.00362134,0.0371396,-5.29108e-06,-0.732889,-0.0721189,9.77963,0.12508,-0.499356,0.98463,-0.00732979,-0.000730734,0.0977962,1,4.79966e-05,-4.71637e-06,1.06861e-05,0.00959932,-0.000943274,0.00213721,0.999304,-0.00362134,0.0371396,-5.29108e-06,0.0177418,0.514964,-0.98963,35.4375,1,45314,37389082
23,4,0.999304,-0.00358251,0.037122,9.8008e-06,-0.734851,-0.067914,9.78918,0.126423,-0.495752,0.99722,-0.00735189,-0.000686838,0.0978915,1,3.80816e-05,-1.73656e-05,1.64343e-05,0.00761633,-0.00347311,0.00328687,0.999304,-0.00358251,0.037122,9.8008e-06,0.0182153,0.516893,-0.98858,35.4375,1,45315,37389182
24,1,0.999304,-0.00358251,0.037122,9.8008e-06,-0.734851,-0.067914,9.78918,0.126423,-0.495752,0.99722,-0.00735189,-0.000686838,0.0978915,1,3.80816e-05,-1.73656e-05,1.64343e-05,0.00761633,-0.00347311,0.00328687,0.999304,-0.00358251,0.037122,9.8008e-06,0.0182153,0.516893,-0.98858,35.4375,1,45315,37389182
24,2,0.999304,-0.00358251,0.037122,9.8008e-06,-0.734851,-0.067914,9.78918,0.126423,-0.495752,0.99722,-0.00735189,-0.000686838,0.0978915,1,3.80816e-05,-1.73656e-05,1.64343e-05,0.00761633,-0.00347311,0.00328687,0.999304,-0.00358251,0.037122,9.8008e-06,0.0182153,0.516893,-0.98858,35.4375,1,45315,37389182
24,3,0.999305,-0.00353427,0.0371108,2.44294e-05,-0.721882,-0.0789844,9.78594,0.129205,-0.510771,0.988569,-0.00722098,-0.000799263,0.0978592,1,4.69311e-05,-1.11482e-05,1.62126e-05,0.00938622,-0.00222965,0.00324252,0.999305,-0.00353427,0.0371108,2.44294e-05,0.0172165,0.518374,-0.989047,35.4375,1,45316,37389282
24,4,0.999305,-0.00353427,0.0371108,2.44294e-05,-0.721882,-0.0789844,9.78594,0.129205,-0.510771,0.988569,-0.00722098,-0.000799263,0.0978592,1,4.69311e-05,-1.11482e-05,1.62126e-05,0.00938622,-0.00222965,0.00324252,0.999305,-0.00353427,0.0371108,2.44294e-05,0.0172165,0.518374,-0.989047,35.4375,1,45316,37389282
25,1,0.999305,-0.00353427,0.0371108,2.44294e-05,-0.721882,-0.0789844,9.78594,0.129205,-0.510771,0.988569,-0.00722098,-0.000799263,0.0978592,1,4.69311e-05,-1.11482e-05,1.62126e-05,0.00938622,-0.00222965,0.00324252,0.999305,-0.00353427,0.0371108,2.44294e-05,0.0172165,0.518374,-0.989047,35.4375,1,45316,37389282
25,2,0.999305,-0.00347917,0.0371082,3.16962e-05,-0.709237,-0.0838896,9.79023,0.151543,-0.518936,0.994615,-0.00709282,-0.000849701,0.0979021,1,5.45215e-05,-2.40605e-06,9.11743e-06,0.0109043,-0.00048121,0.00182349,0.999305,-0.00347917,0.0371082,3.16962e-05,0.0185859,0.518416,-0.992083,35.4375,1,45317,37389382
25,3,0.999305,-0.00347917,0.0371082,3.16962e-05,-0.709237,-0.0838896,9.79023,0.151543,-0.518936,0.994615,-0.00709282,-0.000849701,0.0979021,1,5.45215e-05,-2.40605e-06,9.11743e-06,0.0109043,-0.00048121,0.00182349,0.999305,-0.00347917,0.0371082,3.16962e-05,0.0185859,0.518416,-0.992083,35.4375,1,45317,37389382
25,4,0.999305,-0.00347917,0.0371082,3.16962e-05,-0.709237,-0.0838896,9.79023,0.151543,-0.518936,0.994615,-0.00709282,-0.000849701,0.0979021,1,5.45215e-05,-2.40605e-06,9.11743e-06,0.0109043,-0.00048121,0.00182349,0.999305,-0.00347917,0.0371082,3.16962e-05,0.0185859,0.518416,-0.992083,35.4375,1,45317,37389382
26,1,0.999305,-0.00343134,0.0371068,4.18262e-05,-0.71227,-0.0853935,9.79226,0.14546,-0.524698,0.998653,-0.00712288,-0.000863136,0.0979226,1,4.6121e-05,-1.02466e-06,1.18592e-05,0.0092242,-0.000204933,0.00237184,0.999305,-0.00343134,0.0371068,4.18262e-05,0.0176597,0.515506,-0.992648,35.4375,1,45318,37389482
26,2,0.999305,-0.00343134,0.0371068,4.18262e-05,-0.71227,-0.0853935,9.79226,0.14546,-0.524698,0.998653,-0.00712288,-0.000863136,0.0979226,1,4.6121e-05,-1.02466e-06,1.18592e-05,0.0092242,-0.000204933,0.00237184,0.999305,-0.00343134,0.0371068,4.18262e-05,0.0176597,0.515506,-0.992648,35.4375,1,45318,37389482
26,3,0.999305,-0.00343134,0.0371068,4.18262e-05,-0.71227,-0.0853935,9.79226,0.14546,-0.524698,0.998653,-0.00712288,-0.000863136,0.0979226,1,4.6121e-05,-1.02466e-06,1.18592e-05,0.0092242,-0.000204933,0.00237184,0.999305,-0.00343134,0.0371068,4.18262e-05,0.0176597,0.515506,-0.992648,35.4375,1,45318,37389482
26,4,0.999306,-0.0033767,0.0370957,4.09671e-05,-0.710361,-0.0674502,9.78732,0.141572,-0.506049,0.991207,-0.00710573,-0.000685105,0.097873,1,5.408e-05,-1.07996e-05,1.1995e-06,0.010816,-0.00215992,0.0002399,0.999306,-0.0033767,0.0370957,4.09671e-05,0.0167914,0.513518,-0.990163,35.4375,1,45319,37389582
27,1,0.999306,-0.0033767,0.0370957,4.09671e-05,-0.710361,-0.0674502,9.78732,0.141572,-0.506049,0.991207,-0.00710573,-0.000685105,0.097873,1,5.408e-05,-1.07996e-05,1.1995e-06,0.010816,-0.00215992,0.0002399,0.999306,-0.0033767,0.0370957,4.09671e-05,0.0167914,0.513518,-0.990163,35.4375,1,45319,37389582
27,2,0.999306,-0.0033767,0.0370957,4.09671e-05,-0.710361,-0.0674502,9.78732,0.141572,-0.506049,0.991207,-0.00710573,-0.000685105,0.097873,1,5.408e-05,-1.07996e-05,1.1995e-06,0.010816,-0.00215992,0.0002399,0.999306,-0.0033767,0.0370957,4.09671e-05,0.0167914,0.513518,-0.990163,35.4375,1,45319,37389582
27,3,0.999307,-0.00331287,0.0370861,3.81342e-05,-0.710326,-0.07387,9.78523,0.146745,-0.510542,0.986787,-0.00710504,-0.000751169,0.0978521,1,6.37491e-05,-9.09672e-06,-5.40283e-07,0.0127498,-0.00181934,-0.000108057,0.999307,-0.00331287,0.0370861,3.81342e-05,0.0172854,0.51495,-0.988618,35.4375,1,45320,37389682
27,4,0.999307,-0.00331287,0.0370861,3.81342e-05,-0.710326,-0.07387,9.78523,0.146745,-0.510542,0.986787,-0.00710504,-0.000751169,0.0978521,1,6.37491e-05,-9.09672e-06,-5.40283e-07,0.0127498,-0.00181934,-0.000108057,0.999307,-0.00331287,0.0370861,3.81342e-05,0.0172854,0.51495,-0.988618,35.4375,1,45320,37389682
28,1,0.999307,-0.00331287,0.0370861,3.81342e-05,-0.710326,-0.07387,9.78523,0.146745,-0.510542,0.986787,-0.00710504,-0.000751169,0.0978521,1,6.37491e-05,-9.09672e-06,-5.40283e-07,0.0127498,-0.00181934,-0.000108057,0.999307,-0.00331287,0.0370861,3.81342e-05,0.0172854,0.51495,-0.988618,35.4375,1,45320,37389682
28,2,0.999307,-0.00326676,0.0370721,3.97198e-05,-0.712951,-0.0839166,9.78212,0.143904,-0.519886,0.979728,-0.00713216,-0.000848149,0.0978209,1,4.56925e-05,-1.35417e-05,3.00446e-06,0.00913849,-0.00270833,0.000600892,0.999307,-0.00326676,0.0370721,3.97198e-05,0.019226,0.513959,-0.988649,35.4375,1,45321,37389782
28,3,0.999307,-0.00326676,0.0370721,3.97198e-05,-0.712951,-0.0839166,9.78212,0.143904,-0.519886,0.979728,-0.00713216,-0.000848149,0.0978209,1,4.56925e-05,-1.35417e-05,3.00446e-06,0.00913849,-0.00270833,0.000600892,0.999307,-0.00326676,0.0370721,3.97198e-05,0.019226,0.513959,-0.988649,35.4375,1,45321,37389782
28,4,0.999307,-0.00326676,0.0370721,3.97198e-05,-0.712951,-0.0839166,9.78212,0.143904,-0.519886,0.979728,-0.00713216,-0.000848149,0.0978209,1,4.56925e-05,-1.35417e-05,3.00446e-06,0.00913849,-0.00270833,0.000600892,0.999307,-0.00326676,0.0370721,3.97198e-05,0.019226,0.513959,-0.988649,35.4375,1,45321,37389782
29,1,0.999308,-0.00321701,0.037064,4.6807e-05,-0.713434,-0.0780545,9.78521,0.146419,-0.519707,0.984873,-0.00713578,-0.000790374,0.0978519,1,4.95538e-05,-7.45806e-06,9.18306e-06,0.00991075,-0.00149161,0.00183661,0.999308,-0.00321701,0.037064,4.6807e-05,0.0196055,0.517884,-0.990079,35.4375,1,45322,37389882
29,2,0.999308,-0.00321701,0.037064,4.6807e-05,-0.713434,-0.0780545,9.78521,0.146419,-0.519707,0.984873,-0.00713578,-0.000790374,0.0978519,1,4.95538e-05,-7.45806e-06,9.18306e-06,0.00991075,-0.00149161,0.00183661,0.999308,-0.00321701,0.037064,4.6807e-05,0.0196055,0.517884,-0.990079,35.4375,1,45322,37389882
29,3,0.999308,-0.00321701,0.037064,4.6807e-05,-0.713434,-0.0780545,9.78521,0.146419,-0.519707,0.984873,-0.00713578,-0.000790374,0.0978519,1,4.95538e-05,-7.45806e-06,9.18306e-06,0.00991075,-0.00149161,0.00183661,0.999308,-0.00321701,0.037064,4.6807e-05,0.0196055,0.517884,-0.990079,35.4375,1,45322,37389882
29,4,0.999308,-0.00315789,0.0370512,5.76617e-05,-0.700072,-0.0705497,9.79537,0.150824,-0.512365,0.995262,-0.00700305,-0.000716959,0.0979534,1,5.75353e-05,-1.19656e-05,1.36159e-05,0.0115071,-0.00239313,0.00272318,0.999308,-0.00315789,0.0370512,5.76617e-05,0.0204738,0.519872,-0.992564,35.4375,1,45323,37389982
30,1,0.999308,-0.00315789,0.0370512,5.76617e-05,-0.700072,-0.0705497,9.79537,0.150824,-0.512365,0.995262,-0.00700305,-0.000716959,0.0979534,1,5.75353e-05,-1.19656e-05,1.36159e-05,0.0115071,-0.00239313,0.00272318,0.999308,-0.00315789,0.0370512,5.76617e-05,0.0204738,0.519872,-0.992564,35.4375,1,45323,37389982
30,2,0.999308,-0.00315789,0.0370512,5.76617e-05,-0.700072,-0.0705497,9.79537,0.150824,-0.512365,0.995262,-0.00700305,-0.000716959,0.0979534,1,5.75353e-05,-1.19656e-05,1.36159e-05,0.0115071,-0.00239313,0.00272318,0.999308,-0.00315789,0.0370512,5.76617e-05,0.0204738,0.519872,-0.992564,35.4375,1,45323,37389982
30,3,0.999308,-0.00310218,0.0370516,6.74968e-05,-0.699164,-0.0768786,9.78479,0.154182,-0.522687,0.98686,-0.00699141,-0.000779945,0.0978478,1,5.61682e-05,1.07138e-06,1.19989e-05,0.0112336,0.000214276,0.00239978,0.999308,-0.00310218,0.0370516,6.74968e-05,0.0200164,0.516968,-0.993637,35.4375,1,45324,37390082
30,4,0.999308,-0.00310218,0.0370516,6.74968e-05,-0.699164,-0.0768786,9.78479,0.154182,-0.522687,0.98686,-0.00699141,-0.000779945,0.0978478,1,5.61682e-05,1.07138e-06,1.19989e-05,0.0112336,0.000214276,0.00239978,0.999308,-0.00310218,0.0370516,6.74968e-05,0.0200164,0.516968,-0.993637,35.4375,1,45324,37390082
31,1,0.999308,-0.00310218,0.0370516,6.74968e-05,-0.699164,-0.0768786,9.78479,0.154182,-0.522687,0.98686,-0.00699141,-0.000779945,0.0978478,1,5.61682e-05,1.07138e-06,1.19989e-05,0.0112336,0.000214276,0.00239978,0.999308,-0.00310218,0.0370516,6.74968e-05,0.0200164,0.516968,-0.993637,35.4375,1,45324,37390082
31,2,0.999309,-0.00306541,0.0370417,6.42092e-05,-0.718245,-0.0683962,9.78431,0.138087,-0.517216,0.986668,-0.00718419,-0.000691167,0.0978429,1,3.69921e-05,-8.87169e-06,-2.33576e-06,0.00739843,-0.00177434,-0.000467152,0.999309,-0.00306541,0.0370417,6.42092e-05,0.0182063,0.514491,-0.990653,35.4375,1,45325,37390182
31,3,0.999309,-0.00306541,0.0370417,6.42092e-05,-0.718245,-0.0683962,9.78431,0.138087,-0.517216,0.986668,-0.00718419,-0.000691167,0.0978429,1,3.69921e-05,-8.87169e-06,-2.33576e-06,0.00739843,-0.00177434,-0.000467152,0.999309,-0.00306541,0.0370417,6.42092e-05,0.0182063,0.514491,-0.990653,35.4375,1,45325,37390182
31,4,0.999309,-0.00306541,0.0370417,6.42092e-05,-0.718245,-0.0683962,9.78431,0.138087,-0.517216,0.986668,-0.00718419,-0.000691167,0.0978429,1,3.69921e-05,-8.87169e-06,-2.33576e-06,0.00739843,-0.00177434,-0.000467152,0.999309,-0.00306541,0.0370417,6.42092e-05,0.0182063,0.514491,-0.990653,35.4375,1,45325,37390182
32,1,0.99931,-0.00302241,0.0370275,7.01732e-05,-0.713068,-0.0696139,9.78427,0.141988,-0.517755,0.990968,-0.00713326,-0.000704575,0.0978425,1,4.25485e-05,-1.32505e-05,7.689e-06,0.0085097,-0.00265011,0.0015378,0.99931,-0.00302241,0.0370275,7.01732e-05,0.0173058,0.514454,-0.988124,35.4375,1,45326,37390282
32,2,0.99931,-0.00302241,0.0370275,7.01732e-05,-0.713068,-0.0696139,9.78427,0.141988,-0.517755,0.990968,-0.00713326,-0.000704575,0.0978425,1,4.25485e-05,-1.32505e-05,7.689e-06,0.0085097,-0.00265011,0.0015378,0.99931,-0.00302241,0.0370275,7.01732e-05,0.0173058,0.514454,-0.988124,35.4375,1,45326,37390282
32,3,0.99931,-0.00302241,0.0370275,7.01732e-05,-0.713068,-0.0696139,9.78427,0.141988,-0.517755,0.990968,-0.00713326,-0.000704575,0.0978425,1,4.25485e-05,-1.32505e-05,7.689e-06,0.0085097,-0.00265011,0.0015378,0.99931,-0.00302241,0.0370275,7.01732e-05,0.0173058,0.514454,-0.988124,35.4375,1,45326,37390282
32,4,0.99931,-0.00298523,0.0370218,7.0943e-05,-0.726131,-0.065451,9.78405,0.132384,-0.50401,0.987582,-0.00726221,-0.000661899,0.0978404,1,3.75696e-05,-4.60048e-06,2.59285e-06,0.00751391,-0.000920096,0.000518571,0.99931,-0.00298523,0.0370218,7.0943e-05,0.018203,0.516902,-0.989084,35.4375,1,45327,37390382
33,1,0.99931,-0.00298523,0.0370218,7.0943e-05,-0.726131,-0.065451,9.78405,0.132384,-0.50401,0.987582,-0.00726221,-0.000661899,0.0978404,1,3.75696e-05,-4.60048e-06,2.59285e-06,0.00751391,-0.000920096,0.000518571,0.99931,-0.00298523,0.0370218,7.0943e-05,0.018203,0.516902,-0.989084,35.4375,1,45327,37390382
33,2,0.99931,-0.00298523,0.0370218,7.0943e-05,-0.726131,-0.065451,9.78405,0.132384,-0.50401,0.987582,-0.00726221,-0.000661899,0.0978404,1,3.75696e-05,-4.60048e-06,2.59285e-06,0.00751391,-0.000920096,0.000518571,0.99931,-0.00298523,0.0370218,7.0943e-05,0.018203,0.516902,-0.989084,35.4375,1,45327,37390382
33,3,0.999311,-0.00293437,0.0370057,8.77991e-05,-0.717579,-0.0939412,9.7885,0.135934,-0.537794,0.989678,-0.00717877,-0.000949499,0.0978847,1,5.01293e-05,-1.54342e-05,1.90343e-05,0.0100259,-0.00308684,0.00380686,0.999311,-0.00293437,0.0370057,8.77991e-05,0.0176156,0.518912,-0.992067,35.4375,1,45328,37390482
33,4,0.999311,-0.00293437,0.0370057,8.77991e-05,-0.717579,-0.0939412,9.7885,0.135934,-0.537794,0.989678,-0.00717877,-0.000949499,0.0978847,1,5.01293e-05,-1.54342e-05,1.90343e-05,0.0100259,-0.00308684,0.00380686,0.999311,-0.00293437,0.0370057,8.77991e-05,0.0176156,0.518912,-0.992067,35.4375,1,45328,37390482
185,1,0.999311,-0.00293437,0.0370057,8.77991e-05,-0.717579,-0.0939412,9.7885,0.135934,-0.537794,0.989678,-0.00717877,-0.000949499,0.0978847,1,5.01293e-05,-1.54342e-05,1.90343e-05,0.0100259,-0.00308684,0.00380686,0.999311,-0.00293437,0.0370057,8.77991e-05,0.0176156,0.518912,-0.992067,35.4375,1,45328,37390482
185,2,0.999311,-0.00288977,0.0369991,9.82015e-05,-0.737753,-0.0667523,9.78276,0.116242,-0.517725,0.987482,-0.00737861,-0.000676539,0.0978274,1,4.52008e-05,-5.62325e-06,1.16661e-05,0.00904015,-0.00112465,0.00233322,0.999311,-0.00288977,0.0369991,9.82015e-05,0.0185441,0.516519,-0.995155,35.4375,1,45329,37390582
185,3,0.999311,-0.00288977,0.0369991,9.82015e-05,-0.737753,-0.0667523,9.78276,0.116242,-0.517725,0.987482,-0.00737861,-0.000676539,0.0978274,1,4.52008e-05,-5.62325e-06,1.16661e-05,0.00904015,-0.00112465,0.00233322,0.999311,-0.00288977,0.0369991,9.82015e-05,0.0185441,0.516519,-0.995155,35.4375,1,45329,37390582
185,4,0.999311,-0.00288977,0.0369991,9.82015e-05,-0.737753,-0.0667523,9.78276,0.116242,-0.517725,0.987482,-0.00737861,-0.000676539,0.0978274,1,4.52008e-05,-5.62325e-06,1.16661e-05,0.00904015,-0.00112465,0.00233322,0.999311,-0.00288977,0.0369991,9.82015e-05,0.0185441,0.516519,-0.995155,35.4375,1,45329,37390582
185,5,0.999311,-0.00283674,0.0369995,0.000100947,-0.729272,-0.0679526,9.78404,0.121658,-0.522135,0.988916,-0.00729256,-0.000690092,0.0978404,1,5.36535e-05,7.68972e-07,4.56753e-06,0.0107307,0.000153794,0.000913507,0.999311,-0.00283674,0.0369995,0.000100947,0.0171089,0.516043,-0.995159,35.4375,1,45330,37390682
185,6,0.999311,-0.00283674,0.0369995,0.000100947,-0.729272,-0.0679526,9.78404,0.121658,-0.522135,0.988916,-0.00729256,-0.000690092,0.0978404,1,5.36535e-05,7.68972e-07,4.56753e-06,0.0107307,0.000153794,0.000913507,0.999311,-0.00283674,0.0369995,0.000100947,0.0171089,0.516043,-0.995159,35.4375,1,45330,37390682
35,1,0.999311,-0.00283674,0.0369995,0.000100947,-0.729272,-0.0679526,9.78404,0.121658,-0.522135,0.988916,-0.00729256,-0.000690092,0.0978404,1,5.36535e-05,7.68972e-07,4.56753e-06,0.0107307,0.000153794,0.000913507,0.999311,-0.00283674,0.0369995,0.000100947,0.0171089,0.516043,-0.995159,35.4375,1,45330,37390682
35,2,0.999312,-0.00278306,0.0369963,0.00010833,-0.729447,-0.067959,9.79083,0.126223,-0.518964,0.997245,-0.00729492,-0.000690228,0.0979082,1,5.35958e-05,-2.34333e-06,9.86633e-06,0.0107192,-0.000468665,0.00197327,0.999312,-0.00278306,0.0369963,0.00010833,0.0167264,0.515975,-0.991118,35.4375,1,45331,37390782
35,3,0.999312,-0.00278306,0.0369963,0.00010833,-0.729447,-0.067959,9.79083,0.126223,-0.518964,0.997245,-0.00729492,-0.000690228,0.0979082,1,5.35958e-05,-2.34333e-06,9.86633e-06,0.0107192,-0.000468665,0.00197327,0.999312,-0.00278306,0.0369963,0.00010833,0.0167264,0.515975,-0.991118,35.4375,1,45331,37390782
35,4,0.999312,-0.00278306,0.0369963,0.00010833,-0.729447,-0.067959,9.79083,0.126223,-0.518964,0.997245,-0.00729492,-0.000690228,0.0979082,1,5.35958e-05,-2.34333e-06,9.86633e-06,0.0107192,-0.000468665,0.00197327,0.999312,-0.00278306,0.0369963,0.00010833,0.0167264,0.515975,-0.991118,35.4375,1,45331,37390782
36,1,0.999312,-0.00274027,0.0369869,0.000124486,-0.717422,-0.0769078,9.78763,0.137607,-0.528762,0.995366,-0.00717589,-0.000777607,0.0978761,1,4.22616e-05,-8.67817e-06,1.78681e-05,0.00845233,-0.00173563,0.00357363,0.999312,-0.00274027,0.0369869,0.000124486,0.0163559,0.514453,-0.987615,35.4375,1,45332,37390882
36,2,0.999312,-0.00274027,0.0369869,0.000124486,-0.717422,-0.0769078,9.78763,0.137607,-0.528762,0.995366,-0.00717589,-0.000777607,0.0978761,1,4.22616e-05,-8.67817e-06,1.78681e-05,0.00845233,-0.00173563,0.00357363,0.999312,-0.00274027,0.0369869,0.000124486,0.0163559,0.514453,-0.987615,35.4375,1,45332,37390882
36,3,0.999312,-0.00274027,0.0369869,0.000124486,-0.717422,-0.0769078,9.78763,0.137607,-0.528762,0.995366,-0.00717589,-0.000777607,0.0978761,1,4.22616e-05,-8.67817e-06,1.78681e-05,0.00845233,-0.00173563,0.00357363,0.999312,-0.00274027,0.0369869,0.000124486,0.0163559,0.514453,-0.987615,35.4375,1,45332,37390882
36,4,0.999313,-0.00269677,0.0369651,0.000120509,-0.713405,-0.0649109,9.79076,0.134294,-0.515122,0.991692,-0.00713816,-0.000657692,0.0979072,1,4.39772e-05,-2.09694e-05,-2.04111e-06,0.00879545,-0.00419388,-0.000408223,0.999313,-0.00269677,0.0369651,0.000120509,0.0173304,0.514436,-0.987115,35.4375,1,45333,37390982
189,1,0.999313,-0.00269677,0.0369651,0.000120509,-0.713405,-0.0649109,9.79076,0.134294,-0.515122,0.991692,-0.00713816,-0.000657692,0.0979072,1,4.39772e-05,-2.09694e-05,-2.04111e-06,0.00879545,-0.00419388,-0.000408223,0.999313,-0.00269677,0.0369651,0.000120509,0.0173304,0.514436,-0.987115,35.4375,1,45333,37390982
189,2,0.999313,-0.00269677,0.0369651,0.000120509,-0.713405,-0.0649109,9.79076,0.134294,-0.515122,0.991692,-0.00713816,-0.000657692,0.0979072,1,4.39772e-05,-2.09694e-05,-2.04111e-06,0.00879545,-0.00419388,-0.000408223,0.999313,-0.00269677,0.0369651,0.000120509,0.0173304,0.514436,-0.987115,35.4375,1,45333,37390982
189,3,0.999313,-0.00266166,0.0369523,0.000131946,-0.728676,-0.0730036,9.79215,0.130446,-0.524098,0.991157,-0.00728908,-0.00073714,0.0979213,1,3.54144e-05,-1.19415e-05,1.15578e-05,0.00708289,-0.0023883,0.00231156,0.999313,-0.00266166,0.0369523,0.000131946,0.0190955,0.517427,-0.991602,35.4375,1,45334,37391082
189,4,0.999313,-0.00266166,0.0369523,0.000131946,-0.728676,-0.0730036,9.79215,0.130446,-0.524098,0.991157,-0.00728908,-0.00073714,0.0979213,1,3.54144e-05,-1.19415e-05,1.15578e-05,0.00708289,-0.0023883,0.00231156,0.999313,-0.00266166,0.0369523,0.000131946,0.0190955,0.517427,-0.991602,35.4375,1,45334,37391082
189,5,0.999313,-0.00266166,0.0369523,0.000131946,-0.728676,-0.0730036,9.79215,0.130446,-0.524098,0.991157,-0.00728908,-0.00073714,0.0979213,1,3.54144e-05,-1.19415e-05,1.15578e-05,0.00708289,-0.0023883,0.00231156,0.999313,-0.00266166,0.0369523,0.000131946,0.0190955,0.517427,-0.991602,35.4375,1,45334,37391082
189,6,0.999314,-0.00262336,0.0369551,0.00014052,-0.725327,-0.0738914,9.79279,0.126345,-0.529586,0.992021,-0.00725252,-0.000746569,0.0979279,1,3.83184e-05,3.71037e-06,1.03541e-05,0.00766367,0.000742074,0.00207083,0.999314,-0.00262336,0.0369551,0.00014052,0.0180962,0.517462,-0.993112,35.4375,1,45335,37391182
38,1,0.999314,-0.00262336,0.0369551,0.00014052,-0.725327,-0.0738914,9.79279,0.126345,-0.529586,0.992021,-0.00725252,-0.000746569,0.0979279,1,3.83184e-05,3.71037e-06,1.03541e-05,0.00766367,0.000742074,0.00207083,0.999314,-0.00262336,0.0369551,0.00014052,0.0180962,0.517462,-0.993112,35.4375,1,45335,37391182
38,2,0.999314,-0.00262336,0.0369551,0.00014052,-0.725327,-0.0738914,9.79279,0.126345,-0.529586,0.992021,-0.00725252,-0.000746569,0.0979279,1,3.83184e-05,3.71037e-06,1.03541e-05,0.00766367,0.000742074,0.00207083,0.999314,-0.00262336,0.0369551,0.00014052,0.0180962,0.517462,-0.993112,35.4375,1,45335,37391182
38,3,0.999314,-0.00257814,0.0369512,0.000153941,-0.735505,-0.0784075,9.78976,0.120731,-0.538187,0.995317,-0.00735562,-0.00079328,0.0978975,1,4.59142e-05,-3.05292e-06,1.46292e-05,0.00918284,-0.000610583,0.00292584,0.999314,-0.00257814,0.0369512,0.000153941,0.0171459,0.516016,-0.993645,35.4375,1,45336,37391282
38,4,0.999314,-0.00257814,0.0369512,0.000153941,-0.735505,-0.0784075,9.78976,0.120731,-0.538187,0.995317,-0.00735562,-0.00079328,0.0978975,1,4.59142e-05,-3.05292e-06,1.46292e-05,0.00918284,-0.000610583,0.00292584,0.999314,-0.00257814,0.0369512,0.000153941,0.0171459,0.516016,-0.993645,35.4375,1,45336,37391282
39,1,0.999314,-0.00257814,0.0369512,0.000153941,-0.735505,-0.0784075,9.78976,0.120731,-0.538187,0.995317,-0.00735562,-0.00079328,0.0978975,1,4.59142e-05,-3.05292e-06,1.46292e-05,0.00918284,-0.000610583,0.00292584,0.999314,-0.00257814,0.0369512,0.000153941,0.0171459,0.516016,-0.993645,35.4375,1,45336,37391282
39,2,0.999314,-0.00251822,0.0369368,0.000169389,-0.724036,-0.0705185,9.77043,0.132983,-0.525647,0.972616,-0.007243,-0.000717188,0.097704,1,6.00369e-05,-1.36641e-05,1.87661e-05,0.0120074,-0.00273282,0.00375321,0.999314,-0.00251822,0.0369368,0.000169389,0.016771,0.514015,-0.990657,35.4375,1,45337,37391382
39,3,0.999314,-0.00251822,0.0369368,0.000169389,-0.724036,-0.0705185,9.77043,0.132983,-0.525647,0.972616,-0.007243,-0.000717188,0.097704,1,6.00369e-05,-1.36641e-05,1.87661e-05,0.0120074,-0.00273282,0.00375321,0.999314,-0.00251822,0.0369368,0.000169389,0.016771,0.514015,-0.990657,35.4375,1,45337,37391382
39,4,0.999314,-0.00251822,0.0369368,0.000169389,-0.724036,-0.0705185,9.77043,0.132983,-0.525647,0.972616,-0.007243,-0.000717188,0.097704,1,6.00369e-05,-1.36641e-05,1.87661e-05,0.0120074,-0.00273282,0.00375321,0.999314,-0.00251822,0.0369368,0.000169389,0.016771,0.514015,-0.990657,35.4375,1,45337,37391382
40,1,0.999315,-0.00246313,0.0369303,0.000180574,-0.73381,-0.0776311,9.78875,0.118619,-0.53738,0.994332,-0.00733918,-0.000787323,0.0978873,1,5.52293e-05,-5.65649e-06,1.35993e-05,0.0110459,-0.0011313,0.00271985,0.999315,-0.00246313,0.0369303,0.000180574,0.0172811,0.514472,-0.989134,35.4375,1,45338,37391482
40,2,0.999315,-0.00246313,0.0369303,0.000180574,-0.73381,-0.0776311,9.78875,0.118619,-0.53738,0.994332,-0.00733918,-0.000787323,0.0978873,1,5.52293e-05,-5.65649e-06,1.35993e-05,0.0110459,-0.0011313,0.00271985,0.999315,-0.00246313,0.0369303,0.000180574,0.0172811,0.514472,-0.989134,35.4375,1,45338,37391482
40,3,0.999315,-0.00246313,0.0369303,0.000180574,-0.73381,-0.0776311,9.78875,0.118619,-0.53738,0.994332,-0.00733918,-0.000787323,0.0978873,1,5.52293e-05,-5.65649e-06,1.35993e-05,0.0110459,-0.0011313,0.00271985,0.999315,-0.00246313,0.0369303,0.000180574,0.0172811,0.514472,-0.989134,35.4375,1,45338,37391482
40,4,0.999316,-0.00242767,0.03691,0.000186652,-0.720477,-0.0765268,9.77748,0.134351,-0.532771,0.978858,-0.00720862,-0.000772566,0.0977745,1,3.67444e-05,-1.9759e-05,7.81752e-06,0.00734888,-0.00395179,0.0015635,0.999316,-0.00242767,0.03691,0.000186652,0.0191282,0.516921,-0.990603,35.4375,1,45339,37391582
41,1,0.999316,-0.00242767,0.03691,0.000186652,-0.720477,-0.0765268,9.77748,0.134351,-0.532771,0.978858,-0.00720862,-0.000772566,0.0977745,1,3.67444e-05,-1.9759e-05,7.81752e-06,0.00734888,-0.00395179,0.0015635,0.999316,-0.00242767,0.03691,0.000186652,0.0191282,0.516921,-0.990603,35.4375,1,45339,37391582
41,2,0.999316,-0.00242767,0.03691,0.000186652,-0.720477,-0.0765268,9.77748,0.134351,-0.532771,0.978858,-0.00720862,-0.000772566,0.0977745,1,3.67444e-05,-1.9759e-05,7.81752e-06,0.00734888,-0.00395179,0.0015635,0.999316,-0.00242767,0.03691,0.000186652,0.0191282,0.516921,-0.990603,35.4375,1,45339,37391582
41,3,0.999317,-0.00238414,0.0368885,0.000192743,-0.721171,-0.0771624,9.77951,0.131605,-0.536048,0.981233,-0.00721576,-0.00078046,0.0977948,1,4.45619e-05,-2.07759e-05,8.36908e-06,0.00891238,-0.00415518,0.00167382,0.999317,-0.00238414,0.0368885,0.000192743,0.0190831,0.517436,-0.992107,35.4375,1,45340,37391682
41,4,0.999317,-0.00238414,0.0368885,0.000192743,-0.721171,-0.0771624,9.77951,0.131605,-0.536048,0.981233,-0.00721576,-0.00078046,0.0977948,1,4.45619e-05,-2.07759e-05,8.36908e-06,0.00891238,-0.00415518,0.00167382,0.999317,-0.00238414,0.0368885,0.000192743,0.0190831,0.517436,-0.992107,35.4375,1,45340,37391682
42,1,0.999317,-0.00238414,0.0368885,0.000192743,-0.721171,-0.0771624,9.77951,0.131605,-0.536048,0.981233,-0.00721576,-0.00078046,0.0977948,1,4.45619e-05,-2.07759e-05,8.36908e-06,0.00891238,-0.00415518,0.00167382,0.999317,-0.00238414,0.0368885,0.000192743,0.0190831,0.517436,-0.992107,35.4375,1,45340,37391682
42,2,0.999317,-0.00235023,0.0368915,0.000204924,-0.71687,-0.0813828,9.78249,0.132881,-0.540575,0.984854,-0.00716791,-0.000820901,0.0978249,1,3.50923e-05,3.9191e-06,1.44559e-05,0.00701845,0.00078382,0.00289118,0.999317,-0.00235023,0.0368915,0.000204924,0.019523,0.516981,-0.994139,35.4375,1,45341,37391782
42,3,0.999317,-0.00235023,0.0368915,0.000204924,-0.71687,-0.0813828,9.78249,0.132881,-0.540575,0.984854,-0.00716791,-0.000820901,0.0978249,1,3.50923e-05,3.9191e-06,1.44559e-05,0.00701845,0.00078382,0.00289118,0.999317,-0.00235023,0.0368915,0.000204924,0.019523,0.516981,-0.994139,35.4375,1,45341,37391782
42,4,0.999317,-0.00235023,0.0368915,0.000204924,-0.71687,-0.0813828,9.78249,0.132881,-0.540575,0.984854,-0.00716791,-0.000820901,0.0978249,1,3.50923e-05,3.9191e-06,1.44559e-05,0.00701845,0.00078382,0.00289118,0.999317,-0.00235023,0.0368915,0.000204924,0.019523,0.516981,-0.994139,35.4375,1,45341,37391782
43,1,0.999317,-0.00229126,0.0368694,0.000202294,-0.727599,-0.0671958,9.7844,0.124677,-0.527319,0.986887,-0.00728015,-0.000683857,0.0978436,1,6.07277e-05,-2.12716e-05,1.02795e-06,0.0121455,-0.00425433,0.000205589,0.999317,-0.00229126,0.0368694,0.000202294,0.0176066,0.516509,-0.994141,35.4375,1,45342,37391882
43,2,0.999317,-0.00229126,0.0368694,0.000202294,-0.727599,-0.0671958,9.7844,0.124677,-0.527319,0.986887,-0.00728015,-0.000683857,0.0978436,1,6.07277e-05,-2.12716e-05,1.02795e-06,0.0121455,-0.00425433,0.000205589,0.999317,-0.00229126,0.0368694,0.000202294,0.0176066,0.516509,-0.994141,35.4375,1,45342,37391882
43,3,0.999317,-0.00229126,0.0368694,0.000202294,-0.727599,-0.0671958,9.7844,0.124677,-0.527319,0.986887,-0.00728015,-0.000683857,0.0978436,1,6.07277e-05,-2.12716e-05,1.02795e-06,0.0121455,-0.00425433,0.000205589,0.999317,-0.00229126,0.0368694,0.000202294,0.0176066,0.516509,-0.994141,35.4375,1,45342,37391882
43,4,0.999318,-0.00225193,0.0368626,0.000209067,-0.728127,-0.0663823,9.78914,0.125561,-0.529441,0.990348,-0.00728237,-0.000671962,0.0978912,1,4.10043e-05,-5.6565e-06,7.66303e-06,0.00820086,-0.0011313,0.00153261,0.999318,-0.00225193,0.0368626,0.000209067,0.0172726,0.513514,-0.990165,35.4375,1,45343,37391982
198,1,0.999318,-0.00225193,0.0368626,0.000209067,-0.728127,-0.0663823,9.78914,0.125561,-0.529441,0.990348,-0.00728237,-0.000671962,0.0978912,1,4.10043e-05,-5.6565e-06,7.66303e-06,0.00820086,-0.0011313,0.00153261,0.999318,-0.00225193,0.0368626,0.000209067,0.0172726,0.513514,-0.990165,35.4375,1,45343,37391982
198,2,0.999318,-0.00225193,0.0368626,0.000209067,-0.728127,-0.0663823,9.78914,0.125561,-0.529441,0.990348,-0.00728237,-0.000671962,0.0978912,1,4.10043e-05,-5.6565e-06,7.66303e-06,0.00820086,-0.0011313,0.00153261,0.999318,-0.00225193,0.0368626,0.000209067,0.0172726,0.513514,-0.990165,35.4375,1,45343,37391982
198,3,0.999318,-0.00219102,0.036854,0.000214114,-0.72936,-0.0775128,9.78669,0.121319,-0.541595,0.987439,-0.00729514,-0.000787346,0.0978666,1,6.18696e-05,-7.93679e-06,7.42813e-06,0.0123739,-0.00158736,0.00148563,0.999318,-0.00219102,0.036854,0.000214114,0.0167834,0.514006,-0.990152,35.4375,1,45344,37392082
198,4,0.999318,-0.00219102,0.036854,0.000214114,-0.72936,-0.0775128,9.78669,0.121319,-0.541595,0.987439,-0.00729514,-0.000787346,0.0978666,1,6.18696e-05,-7.93679e-06,7.42813e-06,0.0123739,-0.00158736,0.00148563,0.999318,-0.00219102,0.036854,0.000214114,0.0167834,0.514006,-0.990152,35.4375,1,45344,37392082
198,5,0.999318,-0.00219102,0.036854,0.000214114,-0.72936,-0.0775128,9.78669,0.121319,-0.541595,0.987439,-0.00729514,-0.000787346,0.0978666,1,6.18696e-05,-7.93679e-06,7.42813e-06,0.0123739,-0.00158736,0.00148563,0.999318,-0.00219102,0.036854,0.000214114,0.0167834,0.514006,-0.990152,35.4375,1,45344,37392082
198,6,0.999318,-0.00214664,0.0368506,0.000215584,-0.722738,-0.0747993,9.77648,0.13045,-0.536682,0.981282,-0.00722798,-0.000757028,0.0977647,1,4.59961e-05,-3.08325e-06,2.83882e-06,0.00919922,-0.00061665,0.000567763,0.999318,-0.00214664,0.0368506,0.000215584,0.0176929,0.516446,-0.990607,35.4375,1,45345,37392182
198,7,0.999318,-0.00214664,0.0368506,0.000215584,-0.722738,-0.0747993,9.77648,0.13045,-0.536682,0.981282,-0.00722798,-0.000757028,0.0977647,1,4.59961e-05,-3.08325e-06,2.83882e-06,0.00919922,-0.00061665,0.000567763,0.999318,-0.00214664,0.0368506,0.000215584,0.0176929,0.516446,-0.990607,35.4375,1,45345,37392182
198,8,0.999318,-0.00214664,0.0368506,0.000215584,-0.722738,-0.0747993,9.77648,0.13045,-0.536682,0.981282,-0.00722798,-0.000757028,0.0977647,1,4.59961e-05,-3.08325e-06,2.83882e-06,0.00919922,-0.00061665,0.000567763,0.999318,-0.00214664,0.0368506,0.000215584,0.0176929,0.516446,-0.990607,35.4375,1,45345,37392182
198,9,0.999319,-0.00209759,0.0368468,0.000212367,-0.735462,-0.0806906,9.78432,0.120381,-0.549636,0.988927,-0.00735522,-0.000816935,0.0978431,1,5.12711e-05,-3.03614e-06,-2.88986e-07,0.0102542,-0.000607229,-5.77973e-05,0.999319,-0.00209759,0.0368468,0.000212367,0.0195562,0.51792,-0.992098,35.4375,1,45346,37392282
198,10,0.999319,-0.00209759,0.0368468,0.000212367,-0.735462,-0.0806906,9.78432,0.120381,-0.549636,0.988927,-0.00735522,-0.000816935,0.0978431,1,5.12711e-05,-3.03614e-06,-2.88986e-07,0.0102542,-0.000607229,-5.77973e-05,0.999319,-0.00209759,0.0368468,0.000212367,0.0195562,0.51792,-0.992098,35.4375,1,45346,37392282
198,11,0.999319,-0.00209759,0.0368468,0.000212367,-0.735462,-0.0806906,9.78432,0.120381,-0.549636,0.988927,-0.00735522,-0.000816935,0.0978431,1,5.12711e-05,-3.03614e-06,-2.88986e-07,0.0102542,-0.000607229,-5.77973e-05,0.999319,-0.00209759,0.0368468,0.000212367,0.0195562,0.51792,-0.992098,35.4375,1,45346,37392282
198,12,0.99932,-0.00204709,0.0368259,0.000227476,-0.723168,-0.0723463,9.78703,0.126275,-0.545127,0.988909,-0.00723558,-0.000733932,0.0978699,1,5.2182e-05,-2.00271e-05,1.76021e-05,0.0104364,-0.00400543,0.00352042,0.99932,-0.00204709,0.0368259,0.000227476,0.01956,0.516954,-0.992625,35.4375,1,45347,37392382
45,1,0.99932,-0.00204709,0.0368259,0.000227476,-0.723168,-0.0723463,9.78703,0.126275,-0.545127,0.988909,-0.00723558,-0.000733932,0.0978699,1,5.2182e-05,-2.00271e-05,1.76021e-05,0.0104364,-0.00400543,0.00352042,0.99932,-0.00204709,0.0368259,0.000227476,0.01956,0.516954,-0.992625,35.4375,1,45347,37392382
45,2,0.99932,-0.00204709,0.0368259,0.000227476,-0.723168,-0.0723463,9.78703,0.126275,-0.545127,0.988909,-0.00723558,-0.000733932,0.0978699,1,5.2182e-05,-2.00271e-05,1.76021e-05,0.0104364,-0.00400543,0.00352042,0.99932,-0.00204709,0.0368259,0.000227476,0.01956,0.516954,-0.992625,35.4375,1,45347,37392382
45,3,0.99932,-0.00201096,0.036818,0.00023872,-0.716458,-0.0786024,9.78693,0.135452,-0.545848,0.990958,-0.00716606,-0.000793942,0.0978691,1,3.93278e-05,-7.71522e-06,1.53464e-05,0.00786556,-0.00154304,0.00306928,0.99932,-0.00201096,0.036818,0.00023872,0.0181285,0.515511,-0.993155,35.4375,1,45348,37392482
45,4,0.99932,-0.00201096,0.036818,0.00023872,-0.716458,-0.0786024,9.78693,0.135452,-0.545848,0.990958,-0.00716606,-0.000793942,0.0978691,1,3.93278e-05,-7.71522e-06,1.53464e-05,0.00786556,-0.00154304,0.00306928,0.99932,-0.00201096,0.036818,0.00023872,0.0181285,0.515511,-0.993155,35.4375,1,45348,37392482
200,1,0.99932,-0.00201096,0.036818,0.00023872,-0.716458,-0.0786024,9.78693,0.135452,-0.545848,0.990958,-0.00716606,-0.000793942,0.0978691,1,3.93278e-05,-7.71522e-06,1.53464e-05,0.00786556,-0.00154304,0.00306928,0.99932,-0.00201096,0.036818,0.00023872,0.0181285,0.515511,-0.993155,35.4375,1,45348,37392482
200,2,0.99932,-0.00195927,0.0368098,0.00025447,-0.711002,-0.0773795,9.7852,0.136649,-0.544747,0.988155,-0.00711147,-0.000784655,0.0978518,1,5.4134e-05,-7.55893e-06,1.86562e-05,0.0108268,-0.00151179,0.00373123,0.99932,-0.00195927,0.0368098,0.00025447,0.016298,0.513531,-0.990666,35.4375,1,45349,37392582
200,3,0.99932,-0.00195927,0.0368098,0.00025447,-0.711002,-0.0773795,9.7852,0.136649,-0.544747,0.988155,-0.00711147,-0.000784655,0.0978518,1,5.4134e-05,-7.55893e-06,1.86562e-05,0.0108268,-0.00151179,0.00373123,0.99932,-0.00195927,0.0368098,0.00025447,0.016298,0.513531,-0.990666,35.4375,1,45349,37392582
200,4,0.99932,-0.00195927,0.0368098,0.00025447,-0.711002,-0.0773795,9.7852,0.136649,-0.544747,0.988155,-0.00711147,-0.000784655,0.0978518,1,5.4134e-05,-7.55893e-06,1.86562e-05,0.0108268,-0.00151179,0.00373123,0.99932,-0.00195927,0.0368098,0.00025447,0.016298,0.513531,-0.990666,35.4375,1,45349,37392582
200,5,0.999321,-0.00192608,0.0368009,0.000273039,-0.717153,-0.065404,9.78772,0.138127,-0.537654,0.988692,-0.00717333,-0.000661082,0.0978771,1,3.4744e-05,-9.304e-06,1.68232e-05,0.0069488,-0.0018608,0.00336464,0.999321,-0.00192608,0.0368009,0.000273039,0.0163193,0.515925,-0.988087,35.4375,1,45350,37392682
200,6,0.999321,-0.00192608,0.0368009,0.000273039,-0.717153,-0.065404,9.78772,0.138127,-0.537654,0.988692,-0.00717333,-0.000661082,0.0978771,1,3.4744e-05,-9.304e-06,1.68232e-05,0.0069488,-0.0018608,0.00336464,0.999321,-0.00192608,0.0368009,0.000273039,0.0163193,0.515925,-0.988087,35.4375,1,45350,37392682
200,7,0.999321,-0.00192608,0.0368009,0.000273039,-0.717153,-0.065404,9.78772,0.138127,-0.537654,0.988692,-0.00717333,-0.000661082,0.0978771,1,3.4744e-05,-9.304e-06,1.68232e-05,0.0069488,-0.0018608,0.00336464,0.999321,-0.00192608,0.0368009,0.000273039,0.0163193,0.515925,-0.988087,35.4375,1,45350,37392682
200,8,0.999321,-0.00189495,0.0367953,0.000284414,-0.716084,-0.0793784,9.78861,0.133022,-0.552863,0.991367,-0.00716172,-0.000800037,0.097886,1,3.13092e-05,-4.58389e-06,8.59602e-06,0.00626185,-0.000916779,0.0017192,0.999321,-0.00189495,0.0367953,0.000284414,0.0177261,0.517385,-0.988566,35.4375,1,45351,37392782
200,9,0.999321,-0.00189495,0.0367953,0.000284414,-0.716084,-0.0793784,9.78861,0.133022,-0.552863,0.991367,-0.00716172,-0.000800037,0.097886,1,3.13092e-05,-4.58389e-06,8.59602e-06,0.00626185,-0.000916779,0.0017192,0.999321,-0.00189495,0.0367953,0.000284414,0.0177261,0.517385,-0.988566,35.4375,1,45351,37392782
200,10,0.999321,-0.00189495,0.0367953,0.000284414,-0.716084,-0.0793784,9.78861,0.133022,-0.552863,0.991367,-0.00716172,-0.000800037,0.097886,1,3.13092e-05,-4.58389e-06,8.59602e-06,0.00626185,-0.000916779,0.0017192,0.999321,-0.00189495,0.0367953,0.000284414,0.0177261,0.517385,-0.988566,35.4375,1,45351,37392782
47,1,0.999322,-0.0018526,0.0367766,0.000292514,-0.720722,-0.082376,9.7866,0.129085,-0.553326,0.985915,-0.00721062,-0.000832589,0.0978656,1,4.45247e-05,-1.74512e-05,7.91049e-06,0.00890493,-0.00349024,0.0015821,0.999322,-0.0018526,0.0367766,0.000292514,0.0176602,0.516952,-0.991606,35.4375,1,45352,37392882
47,2,0.999322,-0.0018526,0.0367766,0.000292514,-0.720722,-0.082376,9.7866,0.129085,-0.553326,0.985915,-0.00721062,-0.000832589,0.0978656,1,4.45247e-05,-1.74512e-05,7.91049e-06,0.00890493,-0.00349024,0.0015821,0.999322,-0.0018526,0.0367766,0.000292514,0.0176602,0.516952,-0.991606,35.4375,1,45352,37392882
47,3,0.999322,-0.0018526,0.0367766,0.000292514,-0.720722,-0.082376,9.7866,0.129085,-0.553326,0.985915,-0.00721062,-0.000832589,0.0978656,1,4.45247e-05,-1.74512e-05,7.91049e-06,0.00890493,-0.00349024,0.0015821,0.999322,-0.0018526,0.0367766,0.000292514,0.0176602,0.516952,-0.991606,35.4375,1,45352,37392882
47,4,0.999322,-0.00180431,0.0367596,0.000298589,-0.712372,-0.0620551,9.79281,0.136048,-0.535038,0.989389,-0.00712691,-0.000630859,0.0979278,1,5.21019e-05,-1.63372e-05,7.29609e-06,0.0104204,-0.00326745,0.00145922,0.999322,-0.00180431,0.0367596,0.000298589,0.018092,0.516984,-0.993628,35.4375,1,45353,37392982
48,1,0.999322,-0.00180431,0.0367596,0.000298589,-0.712372,-0.0620551,9.79281,0.136048,-0.535038,0.989389,-0.00712691,-0.000630859,0.0979278,1,5.21019e-05,-1.63372e-05,7.29609e-06,0.0104204,-0.00326745,0.00145922,0.999322,-0.00180431,0.0367596,0.000298589,0.018092,0.516984,-0.993628,35.4375,1,45353,37392982
48,2,0.999322,-0.00180431,0.0367596,0.000298589,-0.712372,-0.0620551,9.79281,0.136048,-0.535038,0.989389,-0.00712691,-0.000630859,0.0979278,1,5.21019e-05,-1.63372e-05,7.29609e-06,0.0104204,-0.00326745,0.00145922,0.999322,-0.00180431,0.0367596,0.000298589,0.018092,0.516984,-0.993628,35.4375,1,45353,37392982
48,3,0.999323,-0.00176167,0.0367437,0.000291112,-0.727315,-0.0727695,9.78298,0.125036,-0.547103,0.982648,-0.00727609,-0.000737188,0.0978295,1,4.88143e-05,-1.50128e-05,-3.96188e-06,0.00976287,-0.00300257,-0.000792377,0.999323,-0.00176167,0.0367437,0.000291112,0.0171663,0.515519,-0.993151,35.4375,1,45354,37393082
48,4,0.999323,-0.00176167,0.0367437,0.000291112,-0.727315,-0.0727695,9.78298,0.125036,-0.547103,0.982648,-0.00727609,-0.000737188,0.0978295,1,4.88143e-05,-1.50128e-05,-3.96188e-06,0.00976287,-0.00300257,-0.000792377,0.999323,-0.00176167,0.0367437,0.000291112,0.0171663,0.515519,-0.993151,35.4375,1,45354,37393082
203,1,0.999323,-0.00176167,0.0367437,0.000291112,-0.727315,-0.0727695,9.78298,0.125036,-0.547103,0.982648,-0.00727609,-0.000737188,0.0978295,1,4.88143e-05,-1.50128e-05,-3.96188e-06,0.00976287,-0.00300257,-0.000792377,0.999323,-0.00176167,0.0367437,0.000291112,0.0171663,0.515519,-0.993151,35.4375,1,45354,37393082
203,2,0.999324,-0.00172194,0.0367325,0.000307936,-0.728932,-0.0879185,9.79473,0.120706,-0.565233,0.99997,-0.00729119,-0.000888178,0.0979471,1,4.45972e-05,-9.70973e-06,1.76173e-05,0.00891945,-0.00194195,0.00352345,0.999324,-0.00172194,0.0367325,0.000307936,0.0177337,0.515452,-0.989619,35.4375,1,45355,37393182
203,3,0.999324,-0.00172194,0.0367325,0.000307936,-0.728932,-0.0879185,9.79473,0.120706,-0.565233,0.99997,-0.00729119,-0.000888178,0.0979471,1,4.45972e-05,-9.70973e-06,1.76173e-05,0.00891945,-0.00194195,0.00352345,0.999324,-0.00172194,0.0367325,0.000307936,0.0177337,0.515452,-0.989619,35.4375,1,45355,37393182
203,4,0.999324,-0.00172194,0.0367325,0.000307936,-0.728932,-0.0879185,9.79473,0.120706,-0.565233,0.99997,-0.00729119,-0.000888178,0.0979471,1,4.45972e-05,-9.70973e-06,1.76173e-05,0.00891945,-0.00194195,0.00352345,0.999324,-0.00172194,0.0367325,0.000307936,0.0177337,0.515452,-0.989619,35.4375,1,45355,37393182
203,5,0.999324,-0.00167297,0.0367254,0.000315248,-0.722171,-0.0758245,9.78632,0.120962,-0.549212,0.987361,-0.00722326,-0.000768294,0.097863,1,5.05933e-05,-8.01127e-06,1.01622e-05,0.0101187,-0.00160225,0.00203244,0.999324,-0.00167297,0.0367254,0.000315248,0.0187372,0.515896,-0.987594,35.4375,1,45356,37393282
203,6,0.999324,-0.00167297,0.0367254,0.000315248,-0.722171,-0.0758245,9.78632,0.120962,-0.549212,0.987361,-0.00722326,-0.000768294,0.097863,1,5.05933e-05,-8.01127e-06,1.01622e-05,0.0101187,-0.00160225,0.00203244,0.999324,-0.00167297,0.0367254,0.000315248,0.0187372,0.515896,-0.987594,35.4375,1,45356,37393282
204,1,0.999324,-0.00167297,0.0367254,0.000315248,-0.722171,-0.0758245,9.78632,0.120962,-0.549212,0.987361,-0.00722326,-0.000768294,0.097863,1,5.05933e-05,-8.01127e-06,1.01622e-05,0.0101187,-0.00160225,0.00203244,0.999324,-0.00167297,0.0367254,0.000315248,0.0187372,0.515896,-0.987594,35.4375,1,45356,37393282
204,2,0.999324,-0.00163003,0.0367146,0.000317719,-0.714128,-0.0705965,9.77851,0.136599,-0.549663,0.978093,-0.00714342,-0.000714549,0.0977848,1,4.32524e-05,-1.09842e-05,8.75997e-06,0.00865049,-0.00219684,0.00175199,0.999324,-0.00163003,0.0367146,0.000317719,0.0201645,0.516859,-0.987579,35.4375,1,45357,37393382
204,3,0.999324,-0.00163003,0.0367146,0.000317719,-0.714128,-0.0705965,9.77851,0.136599,-0.549663,0.978093,-0.00714342,-0.000714549,0.0977848,1,4.32524e-05,-1.09842e-05,8.75997e-06,0.00865049,-0.00219684,0.00175199,0.999324,-0.00163003,0.0367146,0.000317719,0.0201645,0.516859,-0.987579,35.4375,1,45357,37393382
204,4,0.999324,-0.00163003,0.0367146,0.000317719,-0.714128,-0.0705965,9.77851,0.136599,-0.549663,0.978093,-0.00714342,-0.000714549,0.0977848,1,4.32524e-05,-1.09842e-05,8.75997e-06,0.00865049,-0.00219684,0.00175199,0.999324,-0.00163003,0.0367146,0.000317719,0.0201645,0.516859,-0.987579,35.4375,1,45357,37393382
204,5,0.999325,-0.00158974,0.0367027,0.000340441,-0.708753,-0.0634803,9.78192,0.142592,-0.545446,0.981188,-0.00708944,-0.000643071,0.097819,1,4.014e-05,-9.96709e-06,2.93162e-05,0.008028,-0.00199342,0.00586323,0.999325,-0.00158974,0.0367027,0.000340441,0.0200169,0.518413,-0.992595,35.4375,1,45358,37393482
204,6,0.999325,-0.00158974,0.0367027,0.000340441,-0.708753,-0.0634803,9.78192,0.142592,-0.545446,0.981188,-0.00708944,-0.000643071,0.097819,1,4.014e-05,-9.96709e-06,2.93162e-05,0.008028,-0.00199342,0.00586323,0.999325,-0.00158974,0.0367027,0.000340441,0.0200169,0.518413,-0.992595,35.4375,1,45358,37393482
204,7,0.999325,-0.00158974,0.0367027,0.000340441,-0.708753,-0.0634803,9.78192,0.142592,-0.545446,0.981188,-0.00708944,-0.000643071,0.097819,1,4.014e-05,-9.96709e-06,2.93162e-05,0.008028,-0.00199342,0.00586323,0.999325,-0.00158974,0.0367027,0.000340441,0.0200169,0.518413,-0.992595,35.4375,1,45358,37393482
204,8,0.999325,-0.00155309,0.0366907,0.000335888,-0.727225,-0.0784019,9.80125,0.121404,-0.55583,0.998333,-0.00727467,-0.000793068,0.0980122,1,4.5605e-05,-1.24144e-05,7.51978e-06,0.00912101,-0.00248287,0.00150396,0.999325,-0.00155309,0.0366907,0.000335888,0.020452,0.516033,-0.996185,35.4375,1,45359,37393582
205,1,0.999325,-0.00155309,0.0366907,0.000335888,-0.727225,-0.0784019,9.80125,0.121404,-0.55583,0.998333,-0.00727467,-0.000793068,0.0980122,1,4.5605e-05,-1.24144e-05,7.51978e-06,0.00912101,-0.00248287,0.00150396,0.999325,-0.00155309,0.0366907,0.000335888,0.020452,0.516033,-0.996185,35.4375,1,45359,37393582
205,2,0.999325,-0.00155309,0.0366907,0.000335888,-0.727225,-0.0784019,9.80125,0.121404,-0.55583,0.998333,-0.00727467,-0.000793068,0.0980122,1,4.5605e-05,-1.24144e-05,7.51978e-06,0.00912101,-0.00248287,0.00150396,0.999325,-0.00155309,0.0366907,0.000335888,0.020452,0.516033,-0.996185,35.4375,1,45359,37393582
205,3,0.999326,-0.00150713,0.0366817,0.000324598,-0.722418,-0.0671505,9.78366,0.119313,-0.550126,0.986757,-0.00722522,-0.000682988,0.0978365,1,5.84423e-05,-5.34775e-06,3.27303e-06,0.0116885,-0.00106955,0.000654605,0.999326,-0.00150713,0.0366817,0.000324598,0.0186054,0.515028,-0.993673,35.4375,1,45360,37393682
205,4,0.999326,-0.00150713,0.0366817,0.000324598,-0.722418,-0.0671505,9.78366,0.119313,-0.550126,0.986757,-0.00722522,-0.000682988,0.0978365,1,5.84423e-05,-5.34775e-06,3.27303e-06,0.0116885,-0.00106955,0.000654605,0.999326,-0.00150713,0.0366817,0.000324598,0.0186054,0.515028,-0.993673,35.4375,1,45360,37393682
205,5,0.999326,-0.00150713,0.0366817,0.000324598,-0.722418,-0.0671505,9.78366,0.119313,-0.550126,0.986757,-0.00722522,-0.000682988,0.0978365,1,5.84423e-05,-5.34775e-06,3.27303e-06,0.0116885,-0.00106955,0.000654605,0.999326,-0.00150713,0.0366817,0.000324598,0.0186054,0.515028,-0.993673,35.4375,1,45360,37393682
205,6,0.999327,-0.00145832,0.0366591,0.000339994,-0.720439,-0.0811735,9.77744,0.129125,-0.564146,0.977131,-0.00720855,-0.00082303,0.097774,1,5.63412e-05,-2.14672e-05,1.92206e-05,0.0112682,-0.00429345,0.00384413,0.999327,-0.00145832,0.0366591,0.000339994,0.0172607,0.514968,-0.989628,35.4375,1,45361,37393782
205,7,0.999327,-0.00145832,0.0366591,0.000339994,-0.720439,-0.0811735,9.77744,0.129125,-0.564146,0.977131,-0.00720855,-0.00082303,0.097774,1,5.63412e-05,-2.14672e-05,1.92206e-05,0.0112682,-0.00429345,0.00384413,0.999327,-0.00145832,0.0366591,0.000339994,0.0172607,0.514968,-0.989628,35.4375,1,45361,37393782
205,8,0.999327,-0.00145832,0.0366591,0.000339994,-0.720439,-0.0811735,9.77744,0.129125,-0.564146,0.977131,-0.00720855,-0.00082303,0.097774,1,5.63412e-05,-2.14672e-05,1.92206e-05,0.0112682,-0.00429345,0.00384413,0.999327,-0.00145832,0.0366591,0.000339994,0.0172607,0.514968,-0.989628,35.4375,1,45361,37393782
52,1,0.999327,-0.00140174,0.0366451,0.000355147,-0.721046,-0.0860963,9.7869,0.129527,-0.573688,0.986571,-0.00721313,-0.000872137,0.0978687,1,5.61346e-05,-1.37522e-05,1.29749e-05,0.0112269,-0.00275044,0.00259498,0.999327,-0.00140174,0.0366451,0.000355147,0.0157898,0.518855,-0.98802,35.4375,1,45362,37393882
52,2,0.999327,-0.00140174,0.0366451,0.000355147,-0.721046,-0.0860963,9.7869,0.129527,-0.573688,0.986571,-0.00721313,-0.000872137,0.0978687,1,5.61346e-05,-1.37522e-05,1.29749e-05,0.0112269,-0.00275044,0.00259498,0.999327,-0.00140174,0.0366451,0.000355147,0.0157898,0.518855,-0.98802,35.4375,1,45362,37393882
52,3,0.999327,-0.00140174,0.0366451,0.000355147,-0.721046,-0.0860963,9.7869,0.129527,-0.573688,0.986571,-0.00721313,-0.000872137,0.0978687,1,5.61346e-05,-1.37522e-05,1.29749e-05,0.0112269,-0.00275044,0.00259498,0.999327,-0.00140174,0.0366451,0.000355147,0.0157898,0.518855,-0.98802,35.4375,1,45362,37393882
52,4,0.999328,-0.00135429,0.0366301,0.00036044,-0.708243,-0.0736716,9.78827,0.13338,-0.560993,0.990482,-0.00708524,-0.00074623,0.0978824,1,4.82369e-05,-1.44115e-05,5.03846e-06,0.00964738,-0.0028823,0.00100769,0.999328,-0.00135429,0.0366301,0.00036044,0.019178,0.518331,-0.987542,35.4375,1,45363,37393982
207,1,0.999328,-0.00135429,0.0366301,0.00036044,-0.708243,-0.0736716,9.78827,0.13338,-0.560993,0.990482,-0.00708524,-0.00074623,0.0978824,1,4.82369e-05,-1.44115e-05,5.03846e-06,0.00964738,-0.0028823,0.00100769,0.999328,-0.00135429,0.0366301,0.00036044,0.019178,0.518331,-0.987542,35.4375,1,45363,37393982
207,2,0.999328,-0.00135429,0.0366301,0.00036044,-0.708243,-0.0736716,9.78827,0.13338,-0.560993,0.990482,-0.00708524,-0.00074623,0.0978824,1,4.82369e-05,-1.44115e-05,5.03846e-06,0.00964738,-0.0028823,0.00100769,0.999328,-0.00135429,0.0366301,0.00036044,0.019178,0.518331,-0.987542,35.4375,1,45363,37393982
207,3,0.999328,-0.00131917,0.0366255,0.00035657,-0.710396,-0.0771018,9.77943,0.137715,-0.55871,0.979411,-0.00710499,-0.000778732,0.0977942,1,3.86853e-05,-5.35116e-06,1.03693e-05,0.00773706,-0.00107023,0.00207386,0.999328,-0.00131917,0.0366255,0.00035657,0.0215176,0.517877,-0.990593,35.4375,1,45364,37394082
207,4,0.999328,-0.00131917,0.0366255,0.00035657,-0.710396,-0.0771018,9.77943,0.137715,-0.55871,0.979411,-0.00710499,-0.000778732,0.0977942,1,3.86853e-05,-5.35116e-06,1.03693e-05,0.00773706,-0.00107023,0.00207386,0.999328,-0.00131917,0.0366255,0.00035657,0.0215176,0.517877,-0.990593,35.4375,1,45364,37394082
207,5,0.999328,-0.00131917,0.0366255,0.00035657,-0.710396,-0.0771018,9.77943,0.137715,-0.55871,0.979411,-0.00710499,-0.000778732,0.0977942,1,3.86853e-05,-5.35116e-06,1.03693e-05,0.00773706,-0.00107023,0.00207386,0.999328,-0.00131917,0.0366255,0.00035657,0.0215176,0.517877,-0.990593,35.4375,1,45364,37394082
207,6,0.999328,-0.00127522,0.0366191,0.000340531,-0.713443,-0.0743501,9.79134,0.124886,-0.558825,0.991933,-0.00713582,-0.000754241,0.0979133,1,5.39068e-05,-7.20306e-06,1.28526e-05,0.0107814,-0.00144061,0.00257053,0.999328,-0.00127522,0.0366191,0.000340531,0.0190708,0.517445,-0.992612,35.4375,1,45365,37394182
207,7,0.999328,-0.00127522,0.0366191,0.000340531,-0.713443,-0.0743501,9.79134,0.124886,-0.558825,0.991933,-0.00713582,-0.000754241,0.0979133,1,5.39068e-05,-7.20306e-06,1.28526e-05,0.0107814,-0.00144061,0.00257053,0.999328,-0.00127522,0.0366191,0.000340531,0.0190708,0.517445,-0.992612,35.4375,1,45365,37394182
207,8,0.999328,-0.00127522,0.0366191,0.000340531,-0.713443,-0.0743501,9.79134,0.124886,-0.558825,0.991933,-0.00713582,-0.000754241,0.0979133,1,5.39068e-05,-7.20306e-06,1.28526e-05,0.0107814,-0.00144061,0.00257053,0.999328,-0.00127522,0.0366191,0.000340531,0.0190708,0.517445,-0.992612,35.4375,1,45365,37394182
208,1,0.999329,-0.00123657,0.0365919,0.000328716,-0.705405,-0.0733517,9.78386,0.136441,-0.559321,0.987718,-0.00705873,-0.000743334,0.0978382,1,4.98611e-05,-2.39556e-05,4.31531e-06,0.00997222,-0.00479112,0.000863062,0.999329,-0.00123657,0.0365919,0.000328716,0.0181204,0.515999,-0.993145,35.4375,1,45366,37394282
208,2,0.999329,-0.00123657,0.0365919,0.000328716,-0.705405,-0.0733517,9.78386,0.136441,-0.559321,0.987718,-0.00705873,-0.000743334,0.0978382,1,4.98611e-05,-2.39556e-05,4.31531e-06,0.00997222,-0.00479112,0.000863062,0.999329,-0.00123657,0.0365919,0.000328716,0.0181204,0.515999,-0.993145,35.4375,1,45366,37394282
208,3,0.999329,-0.00123657,0.0365919,0.000328716,-0.705405,-0.0733517,9.78386,0.136441,-0.559321,0.987718,-0.00705873,-0.000743334,0.0978382,1,4.98611e-05,-2.39556e-05,4.31531e-06,0.00997222,-0.00479112,0.000863062,0.999329,-0.00123657,0.0365919,0.000328716,0.0181204,0.515999,-0.993145,35.4375,1,45366,37394282
208,4,0.999331,-0.00118863,0.0365634,0.000344374,-0.711009,-0.0647603,9.78769,0.135515,-0.5538,0.987475,-0.00711496,-0.000659094,0.0978765,1,5.73134e-05,-2.50192e-05,1.90943e-05,0.0114627,-0.00500383,0.00381886,0.999331,-0.00118863,0.0365634,0.000344374,0.0177375,0.514486,-0.990146,35.4375,1,45367,37394382
208,5,0.999331,-0.00118863,0.0365634,0.000344374,-0.711009,-0.0647603,9.78769,0.135515,-0.5538,0.987475,-0.00711496,-0.000659094,0.0978765,1,5.73134e-05,-2.50192e-05,1.90943e-05,0.0114627,-0.00500383,0.00381886,0.999331,-0.00118863,0.0365634,0.000344374,0.0177375,0.514486,-0.990146,35.4375,1,45367,37394382
208,6,0.999331,-0.00118863,0.0365634,0.000344374,-0.711009,-0.0647603,9.78769,0.135515,-0.5538,0.987475,-0.00711496,-0.000659094,0.0978765,1,5.73134e-05,-2.50192e-05,1.90943e-05,0.0114627,-0.00500383,0.00381886,0.999331,-0.00118863,0.0365634,0.000344374,0.0177375,0.514486,-0.990146,35.4375,1,45367,37394382
208,7,0.999331,-0.00113839,0.0365556,0.000369755,-0.72901,-0.0731788,9.79113,0.117938,-0.55522,0.991474,-0.00729183,-0.000742091,0.0979111,1,5.12451e-05,-8.95551e-06,1.84141e-05,0.010249,-0.0017911,0.00368282,0.999331,-0.00113839,0.0365556,0.000369755,0.0177627,0.515913,-0.988094,35.4375,1,45368,37394482
208,8,0.999331,-0.00113839,0.0365556,0.000369755,-0.72901,-0.0731788,9.79113,0.117938,-0.55522,0.991474,-0.00729183,-0.000742091,0.0979111,1,5.12451e-05,-8.95551e-06,1.84141e-05,0.010249,-0.0017911,0.00368282,0.999331,-0.00113839,0.0365556,0.000369755,0.0177627,0.515913,-0.988094,35.4375,1,45368,37394482
208,9,0.999331,-0.00113839,0.0365556,0.000369755,-0.72901,-0.0731788,9.79113,0.117938,-0.55522,0.991474,-0.00729183,-0.000742091,0.0979111,1,5.12451e-05,-8.95551e-06,1.84141e-05,0.010249,-0.0017911,0.00368282,0.999331,-0.00113839,0.0365556,0.000369755,0.0177627,0.515913,-0.988094,35.4375,1,45368,37394482
208,10,0.999331,-0.00109419,0.0365549,0.000380574,-0.723008,-0.0748558,9.78869,0.119045,-0.563986,0.990112,-0.00723053,-0.000757467,0.0978868,1,4.44426e-05,-2.41407e-06,1.43854e-05,0.00888853,-0.000482813,0.00287708,0.999331,-0.00109419,0.0365549,0.000380574,0.018183,0.518844,-0.988536,35.4375,1,45369,37394582
208,11,0.999331,-0.00109419,0.0365549,0.000380574,-0.723008,-0.0748558,9.78869,0.119045,-0.563986,0.990112,-0.00723053,-0.000757467,0.0978868,1,4.44426e-05,-2.41407e-06,1.43854e-05,0.00888853,-0.000482813,0.00287708,0.999331,-0.00109419,0.0365549,0.000380574,0.018183,0.518844,-0.988536,35.4375,1,45369,37394582
208,12,0.999331,-0.00109419,0.0365549,0.000380574,-0.723008,-0.0748558,9.78869,0.119045,-0.563986,0.990112,-0.00723053,-0.000757467,0.0978868,1,4.44426e-05,-2.41407e-06,1.43854e-05,0.00888853,-0.000482813,0.00287708,0.999331,-0.00109419,0.0365549,0.000380574,0.018183,0.518844,-0.988536,35.4375,1,45369,37394582
209,1,0.999332,-0.0010549,0.0365366,0.000360797,-0.718684,-0.0850228,9.77909,0.122618,-0.579912,0.97977,-0.00719017,-0.000859416,0.0977906,1,4.7203e-05,-1.69819e-05,-3.01024e-06,0.00944061,-0.00339639,-0.000602048,0.999332,-0.0010549,0.0365366,0.000360797,0.0186025,0.518886,-0.991062,35.4375,1,45370,37394682
209,2,0.999332,-0.0010549,0.0365366,0.000360797,-0.718684,-0.0850228,9.77909,0.122618,-0.579912,0.97977,-0.00719017,-0.000859416,0.0977906,1,4.7203e-05,-1.69819e-05,-3.01024e-06,0.00944061,-0.00339639,-0.000602048,0.999332,-0.0010549,0.0365366,0.000360797,0.0186025,0.518886,-0.991062,35.4375,1,45370,37394682
209,3,0.999332,-0.0010549,0.0365366,0.000360797,-0.718684,-0.0850228,9.77909,0.122618,-0.579912,0.97977,-0.00719017,-0.000859416,0.0977906,1,4.7203e-05,-1.69819e-05,-3.01024e-06,0.00944061,-0.00339639,-0.000602048,0.999332,-0.0010549,0.0365366,0.000360797,0.0186025,0.518886,-0.991062,35.4375,1,45370,37394682
209,4,0.999332,-0.00101968,0.0365225,0.000350106,-0.725041,-0.0723767,9.78127,0.119196,-0.567649,0.980342,-0.0072523,-0.000733084,0.0978125,1,4.692e-05,-9.74515e-06,9.57609e-06,0.00938401,-0.00194903,0.00191522,0.999332,-0.00101968,0.0365225,0.000350106,0.0181,0.516496,-0.993639,35.4375,1,45371,37394782
209,5,0.999332,-0.00101968,0.0365225,0.000350106,-0.725041,-0.0723767,9.78127,0.119196,-0.567649,0.980342,-0.0072523,-0.000733084,0.0978125,1,4.692e-05,-9.74515e-06,9.57609e-06,0.00938401,-0.00194903,0.00191522,0.999332,-0.00101968,0.0365225,0.000350106,0.0181,0.516496,-0.993639,35.4375,1,45371,37394782
209,6,0.999332,-0.00101968,0.0365225,0.000350106,-0.725041,-0.0723767,9.78127,0.119196,-0.567649,0.980342,-0.0072523,-0.000733084,0.0978125,1,4.692e-05,-9.74515e-06,9.57609e-06,0.00938401,-0.00194903,0.00191522,0.999332,-0.00101968,0.0365225,0.000350106,0.0181,0.516496,-0.993639,35.4375,1,45371,37394782
209,7,0.999333,-0.000968892,0.0365109,0.000353758,-0.729097,-0.0753994,9.77721,0.113415,-0.568992,0.979137,-0.00729246,-0.000766777,0.0977719,1,6.44997e-05,-7.69794e-06,1.16749e-05,0.0128999,-0.00153959,0.00233499,0.999333,-0.000968892,0.0365109,0.000353758,0.0171454,0.514571,-0.994687,35.4375,1,45372,37394882
209,8,0.999333,-0.000968892,0.0365109,0.000353758,-0.729097,-0.0753994,9.77721,0.113415,-0.568992,0.979137,-0.00729246,-0.000766777,0.0977719,1,6.44997e-05,-7.69794e-06,1.16749e-05,0.0128999,-0.00153959,0.00233499,0.999333,-0.000968892,0.0365109,0.000353758,0.0171454,0.514571,-0.994687,35.4375,1,45372,37394882
56,1,0.999333,-0.000968892,0.0365109,0.000353758,-0.729097,-0.0753994,9.77721,0.113415,-0.568992,0.979137,-0.00729246,-0.000766777,0.0977719,1,6.44997e-05,-7.69794e-06,1.16749e-05,0.0128999,-0.00153959,0.00233499,0.999333,-0.000968892,0.0365109,0.000353758,0.0171454,0.514571,-0.994687,35.4375,1,45372,37394882
56,2,0.999334,-0.0009462,0.0364933,0.000373317,-0.726284,-0.0783295,9.78225,0.11447,-0.57554,0.983341,-0.00726566,-0.000790389,0.0978222,1,3.54872e-05,-1.45266e-05,1.04049e-05,0.00709744,-0.00290531,0.00208097,0.999334,-0.0009462,0.0364933,0.000373317,0.0177414,0.513519,-0.990673,35.4375,1,45373,37394982
56,3,0.999334,-0.0009462,0.0364933,0.000373317,-0.726284,-0.0783295,9.78225,0.11447,-0.57554,0.983341,-0.00726566,-0.000790389,0.0978222,1,3.54872e-05,-1.45266e-05,1.04049e-05,0.00709744,-0.00290531,0.00208097,0.999334,-0.0009462,0.0364933,0.000373317,0.0177414,0.513519,-0.990673,35.4375,1,45373,37394982
56,4,0.999334,-0.0009462,0.0364933,0.000373317,-0.726284,-0.0783295,9.78225,0.11447,-0.57554,0.983341,-0.00726566,-0.000790389,0.0978222,1,3.54872e-05,-1.45266e-05,1.04049e-05,0.00709744,-0.00290531,0.00208097,0.999334,-0.0009462,0.0364933,0.000373317,0.0177414,0.513519,-0.990673,35.4375,1,45373,37394982
211,1,0.999334,-0.000919812,0.0364872,0.000388511,-0.720313,-0.0688033,9.78398,0.115944,-0.56069,0.981266,-0.00720475,-0.000693729,0.0978397,1,2.87369e-05,-8.29432e-06,5.06465e-06,0.00574738,-0.00165886,0.00101293,0.999334,-0.000919812,0.0364872,0.000388511,0.0172854,0.51495,-0.988618,35.4375,1,45374,37395082
211,2,0.999334,-0.000919812,0.0364872,0.000388511,-0.720313,-0.0688033,9.78398,0.115944,-0.56069,0.981266,-0.00720475,-0.000693729,0.0978397,1,2.87369e-05,-8.29432e-06,5.06465e-06,0.00574738,-0.00165886,0.00101293,0.999334,-0.000919812,0.0364872,0.000388511,0.0172854,0.51495,-0.988618,35.4375,1,45374,37395082
211,3,0.999334,-0.000919812,0.0364872,0.000388511,-0.720313,-0.0688033,9.78398,0.115944,-0.56069,0.981266,-0.00720475,-0.000693729,0.0978397,1,2.87369e-05,-8.29432e-06,5.06465e-06,0.00574738,-0.00165886,0.00101293,0.999334,-0.000919812,0.0364872,0.000388511,0.0172854,0.51495,-0.988618,35.4375,1,45374,37395082
211,4,0.999334,-0.000858376,0.0364785,0.000402628,-0.723051,-0.0701824,9.77788,0.12159,-0.567588,0.97996,-0.00723244,-0.000714273,0.0977786,1,6.28065e-05,-9.96902e-06,1.15058e-05,0.0125613,-0.0019938,0.00230116,0.999334,-0.000858376,0.0364785,0.000402628,0.0191652,0.516894,-0.989089,35.4375,1,45375,37395182
211,5,0.999334,-0.000858376,0.0364785,0.000402628,-0.723051,-0.0701824,9.77788,0.12159,-0.567588,0.97996,-0.00723244,-0.000714273,0.0977786,1,6.28065e-05,-9.96902e-06,1.15058e-05,0.0125613,-0.0019938,0.00230116,0.999334,-0.000858376,0.0364785,0.000402628,0.0191652,0.516894,-0.989089,35.4375,1,45375,37395182
211,6,0.999334,-0.000858376,0.0364785,0.000402628,-0.723051,-0.0701824,9.77788,0.12159,-0.567588,0.97996,-0.00723244,-0.000714273,0.0977786,1,6.28065e-05,-9.96902e-06,1.15058e-05,0.0125613,-0.0019938,0.00230116,0.999334,-0.000858376,0.0364785,0.000402628,0.0191652,0.516894,-0.989089,35.4375,1,45375,37395182
58,1,0.999334,-0.000819141,0.0364726,0.000402221,-0.740245,-0.079101,9.78267,0.105732,-0.572951,0.984714,-0.00740371,-0.000799985,0.0978266,1,4.48377e-05,-6.52858e-06,1.364e-05,0.00896753,-0.00130572,0.00272799,0.999334,-0.000819141,0.0364726,0.000402221,0.0195358,0.518417,-0.992592,35.4375,1,45376,37395282
58,2,0.999334,-0.000819141,0.0364726,0.000402221,-0.740245,-0.079101,9.78267,0.105732,-0.572951,0.984714,-0.00740371,-0.000799985,0.0978266,1,4.48377e-05,-6.52858e-06,1.364e-05,0.00896753,-0.00130572,0.00272799,0.999334,-0.000819141,0.0364726,0.000402221,0.0195358,0.518417,-0.992592,35.4375,1,45376,37395282
58,3,0.999334,-0.000819141,0.0364726,0.000402221,-0.740245,-0.079101,9.78267,0.105732,-0.572951,0.984714,-0.00740371,-0.000799985,0.0978266,1,4.48377e-05,-6.52858e-06,1.364e-05,0.00896753,-0.00130572,0.00272799,0.999334,-0.000819141,0.0364726,0.000402221,0.0195358,0.518417,-0.992592,35.4375,1,45376,37395282
58,4,0.999335,-0.000786187,0.0364637,0.000393765,-0.754996,-0.0767393,9.77465,0.0907719,-0.577322,0.976487,-0.00755141,-0.000777259,0.0977463,1,4.95128e-05,-7.53984e-06,1.23868e-05,0.00990257,-0.00150797,0.00247735,0.999335,-0.000786187,0.0364637,0.000393765,0.0184948,0.516555,-0.997174,35.4375,1,45377,37395382
213,1,0.999335,-0.000786187,0.0364637,0.000393765,-0.754996,-0.0767393,9.77465,0.0907719,-0.577322,0.976487,-0.00755141,-0.000777259,0.0977463,1,4.95128e-05,-7.53984e-06,1.23868e-05,0.00990257,-0.00150797,0.00247735,0.999335,-0.000786187,0.0364637,0.000393765,0.0184948,0.516555,-0.997174,35.4375,1,45377,37395382
213,2,0.999335,-0.000786187,0.0364637,0.000393765,-0.754996,-0.0767393,9.77465,0.0907719,-0.577322,0.976487,-0.00755141,-0.000777259,0.0977463,1,4.95128e-05,-7.53984e-06,1.23868e-05,0.00990257,-0.00150797,0.00247735,0.999335,-0.000786187,0.0364637,0.000393765,0.0184948,0.516555,-0.997174,35.4375,1,45377,37395382
213,3,0.999335,-0.00076414,0.0364502,0.000382669,-0.74166,-0.0711677,9.78173,0.100336,-0.573583,0.981916,-0.00741832,-0.00072098,0.0978171,1,4.75124e-05,-8.80248e-06,5.88526e-07,0.00950248,-0.0017605,0.000117705,0.999335,-0.00076414,0.0364502,0.000382669,0.0176061,0.515064,-0.995183,35.4375,1,45378,37395482
213,4,0.999335,-0.00076414,0.0364502,0.000382669,-0.74166,-0.0711677,9.78173,0.100336,-0.573583,0.981916,-0.00741832,-0.00072098,0.0978171,1,4.75124e-05,-8.80248e-06,5.88526e-07,0.00950248,-0.0017605,0.000117705,0.999335,-0.00076414,0.0364502,0.000382669,0.0176061,0.515064,-0.995183,35.4375,1,45378,37395482
213,5,0.999335,-0.00076414,0.0364502,0.000382669,-0.74166,-0.0711677,9.78173,0.100336,-0.573583,0.981916,-0.00741832,-0.00072098,0.0978171,1,4.75124e-05,-8.80248e-06,5.88526e-07,0.00950248,-0.0017605,0.000117705,0.999335,-0.00076414,0.0364502,0.000382669,0.0176061,0.515064,-0.995183,35.4375,1,45378,37395482
213,6,0.999336,-0.000738913,0.0364234,0.000407558,-0.732662,-0.0752231,9.78064,0.107377,-0.57499,0.981006,-0.00733137,-0.000760778,0.0978059,1,4.20994e-05,-2.44044e-05,2.12808e-05,0.00841989,-0.00488089,0.00425616,0.999336,-0.000738913,0.0364234,0.000407558,0.0172645,0.514002,-0.990155,35.4375,1,45379,37395582
60,1,0.999336,-0.000738913,0.0364234,0.000407558,-0.732662,-0.0752231,9.78064,0.107377,-0.57499,0.981006,-0.00733137,-0.000760778,0.0978059,1,4.20994e-05,-2.44044e-05,2.12808e-05,0.00841989,-0.00488089,0.00425616,0.999336,-0.000738913,0.0364234,0.000407558,0.0172645,0.514002,-0.990155,35.4375,1,45379,37395582
60,2,0.999336,-0.000738913,0.0364234,0.000407558,-0.732662,-0.0752231,9.78064,0.107377,-0.57499,0.981006,-0.00733137,-0.000760778,0.0978059,1,4.20994e-05,-2.44044e-05,2.12808e-05,0.00841989,-0.00488089,0.00425616,0.999336,-0.000738913,0.0364234,0.000407558,0.0172645,0.514002,-0.990155,35.4375,1,45379,37395582
60,3,0.999337,-0.000686512,0.0364102,0.000428168,-0.716241,-0.085368,9.78857,0.122392,-0.583376,0.987034,-0.00716553,-0.000863917,0.0978854,1,5.15097e-05,-1.60373e-05,1.06745e-05,0.0103019,-0.00320746,0.00213491,0.999337,-0.000686512,0.0364102,0.000428168,0.0167962,0.515442,-0.988605,35.4375,1,45380,37395682
60,4,0.999337,-0.000686512,0.0364102,0.000428168,-0.716241,-0.085368,9.78857,0.122392,-0.583376,0.987034,-0.00716553,-0.000863917,0.0978854,1,5.15097e-05,-1.60373e-05,1.06745e-05,0.0103019,-0.00320746,0.00213491,0.999337,-0.000686512,0.0364102,0.000428168,0.0167962,0.515442,-0.988605,35.4375,1,45380,37395682
61,1,0.999337,-0.000686512,0.0364102,0.000428168,-0.716241,-0.085368,9.78857,0.122392,-0.583376,0.987034,-0.00716553,-0.000863917,0.0978854,1,5.15097e-05,-1.60373e-05,1.06745e-05,0.0103019,-0.00320746,0.00213491,0.999337,-0.000686512,0.0364102,0.000428168,0.0167962,0.515442,-0.988605,35.4375,1,45380,37395682
61,2,0.999337,-0.000636893,0.0363979,0.000443615,-0.709898,-0.0821327,9.7838,0.129035,-0.579273,0.984248,-0.00710164,-0.000831262,0.0978377,1,4.99413e-05,-1.37032e-05,1.14274e-05,0.00998826,-0.00274064,0.00228548,0.999337,-0.000636893,0.0363979,0.000443615,0.0177465,0.516888,-0.988072,35.4375,1,45381,37395782
61,3,0.999337,-0.000636893,0.0363979,0.000443615,-0.709898,-0.0821327,9.7838,0.129035,-0.579273,0.984248,-0.00710164,-0.000831262,0.0978377,1,4.99413e-05,-1.37032e-05,1.14274e-05,0.00998826,-0.00274064,0.00228548,0.999337,-0.000636893,0.0363979,0.000443615,0.0177465,0.516888,-0.988072,35.4375,1,45381,37395782
61,4,0.999337,-0.000636893,0.0363979,0.000443615,-0.709898,-0.0821327,9.7838,0.129035,-0.579273,0.984248,-0.00710164,-0.000831262,0.0978377,1,4.99413e-05,-1.37032e-05,1.14274e-05,0.00998826,-0.00274064,0.00228548,0.999337,-0.000636893,0.0363979,0.000443615,0.0177465,0.516888,-0.988072,35.4375,1,45381,37395782
216,1,0.999338,-0.000583073,0.0363775,0.000447573,-0.697968,-0.0711448,9.78451,0.138583,-0.573102,0.980777,-0.00698403,-0.000722844,0.0978447,1,5.73696e-05,-2.23197e-05,1.21571e-05,0.0114739,-0.00446394,0.00243143,0.999338,-0.000583073,0.0363775,0.000447573,0.0176113,0.518433,-0.992583,35.4375,1,45382,37395882
216,2,0.999338,-0.000583073,0.0363775,0.000447573,-0.697968,-0.0711448,9.78451,0.138583,-0.573102,0.980777,-0.00698403,-0.000722844,0.0978447,1,5.73696e-05,-2.23197e-05,1.21571e-05,0.0114739,-0.00446394,0.00243143,0.999338,-0.000583073,0.0363775,0.000447573,0.0176113,0.518433,-0.992583,35.4375,1,45382,37395882
216,3,0.999338,-0.000583073,0.0363775,0.000447573,-0.697968,-0.0711448,9.78451,0.138583,-0.573102,0.980777,-0.00698403,-0.000722844,0.0978447,1,5.73696e-05,-2.23197e-05,1.21571e-05,0.0114739,-0.00446394,0.00243143,0.999338,-0.000583073,0.0363775,0.000447573,0.0176113,0.518433,-0.992583,35.4375,1,45382,37395882
216,4,0.999338,-0.000550603,0.0363737,0.000442011,-0.699197,-0.0731416,9.78516,0.141977,-0.576671,0.98539,-0.0069924,-0.000741241,0.0978515,1,4.99878e-05,-2.24982e-06,2.98198e-06,0.00999755,-0.000449964,0.000596397,0.999338,-0.000550603,0.0363737,0.000442011,0.0194575,0.517992,-0.996137,35.4375,1,45383,37395982
216,5,0.999338,-0.000550603,0.0363737,0.000442011,-0.699197,-0.0731416,9.78516,0.141977,-0.576671,0.98539,-0.0069924,-0.000741241,0.0978515,1,4.99878e-05,-2.24982e-06,2.98198e-06,0.00999755,-0.000449964,0.000596397,0.999338,-0.000550603,0.0363737,0.000442011,0.0194575,0.517992,-0.996137,35.4375,1,45383,37395982
216,6,0.999338,-0.000550603,0.0363737,0.000442011,-0.699197,-0.0731416,9.78516,0.141977,-0.576671,0.98539,-0.0069924,-0.000741241,0.0978515,1,4.99878e-05,-2.24982e-06,2.98198e-06,0.00999755,-0.000449964,0.000596397,0.999338,-0.000550603,0.0363737,0.000442011,0.0194575,0.517992,-0.996137,35.4375,1,45383,37395982
216,7,0.999339,-0.000525035,0.0363502,0.000423752,-0.690182,-0.0687192,9.78549,0.147541,-0.573956,0.982554,-0.00690618,-0.000697383,0.0978545,1,5.19902e-05,-2.23125e-05,1.1994e-06,0.010398,-0.00446249,0.000239879,0.999339,-0.000525035,0.0363502,0.000423752,0.0185565,0.51651,-0.99465,35.4375,1,45384,37396082
216,8,0.999339,-0.000525035,0.0363502,0.000423752,-0.690182,-0.0687192,9.78549,0.147541,-0.573956,0.982554,-0.00690618,-0.000697383,0.0978545,1,5.19902e-05,-2.23125e-05,1.1994e-06,0.010398,-0.00446249,0.000239879,0.999339,-0.000525035,0.0363502,0.000423752,0.0185565,0.51651,-0.99465,35.4375,1,45384,37396082
217,1,0.999339,-0.000525035,0.0363502,0.000423752,-0.690182,-0.0687192,9.78549,0.147541,-0.573956,0.982554,-0.00690618,-0.000697383,0.0978545,1,5.19902e-05,-2.23125e-05,1.1994e-06,0.010398,-0.00446249,0.000239879,0.999339,-0.000525035,0.0363502,0.000423752,0.0185565,0.51651,-0.99465,35.4375,1,45384,37396082
217,2,0.99934,-0.000490714,0.0363341,0.000423164,-0.690744,-0.0485384,9.7921,0.148852,-0.558144,0.988492,-0.00691041,-0.000496118,0.0979207,1,5.40185e-05,-1.52217e-05,1.1217e-05,0.0108037,-0.00304435,0.00224339,0.99934,-0.000490714,0.0363341,0.000423164,0.0177209,0.514016,-0.991167,35.4375,1,45385,37396182
217,3,0.99934,-0.000490714,0.0363341,0.000423164,-0.690744,-0.0485384,9.7921,0.148852,-0.558144,0.988492,-0.00691041,-0.000496118,0.0979207,1,5.40185e-05,-1.52217e-05,1.1217e-05,0.0108037,-0.00304435,0.00224339,0.99934,-0.000490714,0.0363341,0.000423164,0.0177209,0.514016,-0.991167,35.4375,1,45385,37396182
217,4,0.99934,-0.000490714,0.0363341,0.000423164,-0.690744,-0.0485384,9.7921,0.148852,-0.558144,0.988492,-0.00691041,-0.000496118,0.0979207,1,5.40185e-05,-1.52217e-05,1.1217e-05,0.0108037,-0.00304435,0.00224339,0.99934,-0.000490714,0.0363341,0.000423164,0.0177209,0.514016,-0.991167,35.4375,1,45385,37396182
217,5,0.99934,-0.000444407,0.0363291,0.000443703,-0.720752,-0.0457427,9.79097,0.120119,-0.550529,0.994752,-0.00720887,-0.000467305,0.0979096,1,4.92521e-05,-6.92154e-06,1.62143e-05,0.00985042,-0.00138431,0.00324286,0.99934,-0.000444407,0.0363291,0.000443703,0.018733,0.515417,-0.98811,35.4375,1,45386,37396282
217,6,0.99934,-0.000444407,0.0363291,0.000443703,-0.720752,-0.0457427,9.79097,0.120119,-0.550529,0.994752,-0.00720887,-0.000467305,0.0979096,1,4.92521e-05,-6.92154e-06,1.62143e-05,0.00985042,-0.00138431,0.00324286,0.99934,-0.000444407,0.0363291,0.000443703,0.018733,0.515417,-0.98811,35.4375,1,45386,37396282
217,7,0.99934,-0.000444407,0.0363291,0.000443703,-0.720752,-0.0457427,9.79097,0.120119,-0.550529,0.994752,-0.00720887,-0.000467305,0.0979096,1,4.92521e-05,-6.92154e-06,1.62143e-05,0.00985042,-0.00138431,0.00324286,0.99934,-0.000444407,0.0363291,0.000443703,0.018733,0.515417,-0.98811,35.4375,1,45386,37396282
217,8,0.99934,-0.00040181,0.0363282,0.000449806,-0.720097,-0.0621876,9.78064,0.117825,-0.571041,0.979887,-0.00720154,-0.000630394,0.0978063,1,4.23509e-05,-3.00447e-06,1.62647e-05,0.00847018,-0.000600894,0.00325295,0.99934,-0.00040181,0.0363282,0.000449806,0.0191695,0.517373,-0.988573,35.4375,1,45387,37396382
218,1,0.99934,-0.00040181,0.0363282,0.000449806,-0.720097,-0.0621876,9.78064,0.117825,-0.571041,0.979887,-0.00720154,-0.000630394,0.0978063,1,4.23509e-05,-3.00447e-06,1.62647e-05,0.00847018,-0.000600894,0.00325295,0.99934,-0.00040181,0.0363282,0.000449806,0.0191695,0.517373,-0.988573,35.4375,1,45387,37396382
218,2,0.99934,-0.00040181,0.0363282,0.000449806,-0.720097,-0.0621876,9.78064,0.117825,-0.571041,0.979887,-0.00720154,-0.000630394,0.0978063,1,4.23509e-05,-3.00447e-06,1.62647e-05,0.00847018,-0.000600894,0.00325295,0.99934,-0.00040181,0.0363282,0.000449806,0.0191695,0.517373,-0.988573,35.4375,1,45387,37396382
218,3,0.99934,-0.00036541,0.0363237,0.000444627,-0.709428,-0.0586518,9.78604,0.130917,-0.567924,0.984299,-0.00709529,-0.000595355,0.0978602,1,4.42062e-05,-5.23577e-06,1.30532e-05,0.00884125,-0.00104715,0.00261064,0.99934,-0.00036541,0.0363237,0.000444627,0.0171302,0.518437,-0.992581,35.4375,1,45388,37396482
218,4,0.99934,-0.00036541,0.0363237,0.000444627,-0.709428,-0.0586518,9.78604,0.130917,-0.567924,0.984299,-0.00709529,-0.000595355,0.0978602,1,4.42062e-05,-5.23577e-06,1.30532e-05,0.00884125,-0.00104715,0.00261064,0.99934,-0.00036541,0.0363237,0.000444627,0.0171302,0.518437,-0.992581,35.4375,1,45388,37396482
218,5,0.99934,-0.00036541,0.0363237,0.000444627,-0.709428,-0.0586518,9.78604,0.130917,-0.567924,0.984299,-0.00709529,-0.000595355,0.0978602,1,4.42062e-05,-5.23577e-06,1.30532e-05,0.00884125,-0.00104715,0.00261064,0.99934,-0.00036541,0.0363237,0.000444627,0.0171302,0.518437,-0.992581,35.4375,1,45388,37396482
218,6,0.99934,-0.000351853,0.0363091,0.000451756,-0.719794,-0.0753519,9.78902,0.116975,-0.581976,0.987359,-0.00720012,-0.000759677,0.09789,1,3.03556e-05,-1.12615e-05,1.49383e-05,0.00607111,-0.0022523,0.00298766,0.99934,-0.000351853,0.0363091,0.000451756,0.0175619,0.518469,-0.994602,35.4375,1,45389,37396582
218,7,0.99934,-0.000351853,0.0363091,0.000451756,-0.719794,-0.0753519,9.78902,0.116975,-0.581976,0.987359,-0.00720012,-0.000759677,0.09789,1,3.03556e-05,-1.12615e-05,1.49383e-05,0.00607111,-0.0022523,0.00298766,0.99934,-0.000351853,0.0363091,0.000451756,0.0175619,0.518469,-0.994602,35.4375,1,45389,37396582
218,8,0.99934,-0.000351853,0.0363091,0.000451756,-0.719794,-0.0753519,9.78902,0.116975,-0.581976,0.987359,-0.00720012,-0.000759677,0.09789,1,3.03556e-05,-1.12615e-05,1.49383e-05,0.00607111,-0.0022523,0.00298766,0.99934,-0.000351853,0.0363091,0.000451756,0.0175619,0.518469,-0.994602,35.4375,1,45389,37396582
218,9,0.999341,-0.00034131,0.0362848,0.00045297,-0.715146,-0.0892893,9.78447,0.124549,-0.595418,0.984118,-0.00715557,-0.000899263,0.0978443,1,3.17228e-05,-2.11131e-05,1.13377e-05,0.00634456,-0.00422263,0.00226754,0.999341,-0.00034131,0.0362848,0.00045297,0.0171378,0.516504,-0.993634,35.4375,1,45390,37396682
218,10,0.999341,-0.00034131,0.0362848,0.00045297,-0.715146,-0.0892893,9.78447,0.124549,-0.595418,0.984118,-0.00715557,-0.000899263,0.0978443,1,3.17228e-05,-2.11131e-05,1.13377e-05,0.00634456,-0.00422263,0.00226754,0.999341,-0.00034131,0.0362848,0.00045297,0.0171378,0.516504,-0.993634,35.4375,1,45390,37396682
65,1,0.999341,-0.00034131,0.0362848,0.00045297,-0.715146,-0.0892893,9.78447,0.124549,-0.595418,0.984118,-0.00715557,-0.000899263,0.0978443,1,3.17228e-05,-2.11131e-05,1.13377e-05,0.00634456,-0.00422263,0.00226754,0.999341,-0.00034131,0.0362848,0.00045297,0.0171378,0.516504,-0.993634,35.4375,1,45390,37396682
65,2,0.999342,-0.000313483,0.0362634,0.000465103,-0.715303,-0.0877182,9.78176,0.121079,-0.594711,0.97738,-0.00715698,-0.000885799,0.0978172,1,4.31238e-05,-2.03122e-05,1.25564e-05,0.00862477,-0.00406244,0.00251127,0.999342,-0.000313483,0.0362634,0.000465103,0.0153196,0.514515,-0.990639,35.4375,1,45391,37396782
65,3,0.999342,-0.000313483,0.0362634,0.000465103,-0.715303,-0.0877182,9.78176,0.121079,-0.594711,0.97738,-0.00715698,-0.000885799,0.0978172,1,4.31238e-05,-2.03122e-05,1.25564e-05,0.00862477,-0.00406244,0.00251127,0.999342,-0.000313483,0.0362634,0.000465103,0.0153196,0.514515,-0.990639,35.4375,1,45391,37396782
65,4,0.999342,-0.000313483,0.0362634,0.000465103,-0.715303,-0.0877182,9.78176,0.121079,-0.594711,0.97738,-0.00715698,-0.000885799,0.0978172,1,4.31238e-05,-2.03122e-05,1.25564e-05,0.00862477,-0.00406244,0.00251127,0.999342,-0.000313483,0.0362634,0.000465103,0.0153196,0.514515,-0.990639,35.4375,1,45391,37396782
220,1,0.999343,-0.000267113,0.0362473,0.000495237,-0.69311,-0.086876,9.78603,0.142216,-0.601017,0.983593,-0.00693446,-0.000878919,0.0978599,1,5.09992e-05,-1.72668e-05,1.27831e-05,0.0101998,-0.00345337,0.00255662,0.999343,-0.000267113,0.0362473,0.000495237,0.015879,0.514935,-0.987097,35.4375,1,45392,37396882
220,2,0.999343,-0.000267113,0.0362473,0.000495237,-0.69311,-0.086876,9.78603,0.142216,-0.601017,0.983593,-0.00693446,-0.000878919,0.0978599,1,5.09992e-05,-1.72668e-05,1.27831e-05,0.0101998,-0.00345337,0.00255662,0.999343,-0.000267113,0.0362473,0.000495237,0.015879,0.514935,-0.987097,35.4375,1,45392,37396882
220,3,0.999343,-0.000267113,0.0362473,0.000495237,-0.69311,-0.086876,9.78603,0.142216,-0.601017,0.983593,-0.00693446,-0.000878919,0.0978599,1,5.09992e-05,-1.72668e-05,1.27831e-05,0.0101998,-0.00345337,0.00255662,0.999343,-0.000267113,0.0362473,0.000495237,0.015879,0.514935,-0.987097,35.4375,1,45392,37396882
220,4,0.999343,-0.000209927,0.036244,0.000505211,-0.677692,-0.0846338,9.79101,0.160906,-0.596055,0.987177,-0.00677748,-0.000858121,0.09791,1,5.95283e-05,-2.95759e-06,9.334e-06,0.0119057,-0.000591518,0.0018668,0.999343,-0.000209927,0.036244,0.000505211,0.019206,0.515901,-0.988101,35.4375,1,45393,37396982
220,5,0.999343,-0.000209927,0.036244,0.000505211,-0.677692,-0.0846338,9.79101,0.160906,-0.596055,0.987177,-0.00677748,-0.000858121,0.09791,1,5.95283e-05,-2.95759e-06,9.334e-06,0.0119057,-0.000591518,0.0018668,0.999343,-0.000209927,0.036244,0.000505211,0.019206,0.515901,-0.988101,35.4375,1,45393,37396982
220,6,0.999343,-0.000209927,0.036244,0.000505211,-0.677692,-0.0846338,9.79101,0.160906,-0.596055,0.987177,-0.00677748,-0.000858121,0.09791,1,5.95283e-05,-2.95759e-06,9.334e-06,0.0119057,-0.000591518,0.0018668,0.999343,-0.000209927,0.036244,0.000505211,0.019206,0.515901,-0.988101,35.4375,1,45393,37396982
67,1,0.999343,-0.000173653,0.0362267,0.000494967,-0.712633,-0.0760782,9.77778,0.124081,-0.591427,0.9721,-0.0071299,-0.00076977,0.0977774,1,4.55306e-05,-1.83245e-05,5.92301e-06,0.00910612,-0.00366491,0.0011846,0.999343,-0.000173653,0.0362267,0.000494967,0.0190746,0.516479,-0.993138,35.4375,1,45394,37397082
67,2,0.999343,-0.000173653,0.0362267,0.000494967,-0.712633,-0.0760782,9.77778,0.124081,-0.591427,0.9721,-0.0071299,-0.00076977,0.0977774,1,4.55306e-05,-1.83245e-05,5.92301e-06,0.00910612,-0.00366491,0.0011846,0.999343,-0.000173653,0.0362267,0.000494967,0.0190746,0.516479,-0.993138,35.4375,1,45394,37397082
67,3,0.999343,-0.000173653,0.0362267,0.000494967,-0.712633,-0.0760782,9.77778,0.124081,-0.591427,0.9721,-0.0071299,-0.00076977,0.0977774,1,4.55306e-05,-1.83245e-05,5.92301e-06,0.00910612,-0.00366491,0.0011846,0.999343,-0.000173653,0.0362267,0.000494967,0.0190746,0.516479,-0.993138,35.4375,1,45394,37397082
67,4,0.999344,-0.000151476,0.0362205,0.00049693,-0.708412,-0.0726549,9.77607,0.13399,-0.5871,0.971903,-0.0070853,-0.000734916,0.0977606,1,4.17102e-05,-6.16174e-06,1.49495e-05,0.00834205,-0.00123235,0.0029899,0.999344,-0.000151476,0.0362205,0.00049693,0.0175572,0.516545,-0.99616,35.4375,1,45395,37397182
222,1,0.999344,-0.000151476,0.0362205,0.00049693,-0.708412,-0.0726549,9.77607,0.13399,-0.5871,0.971903,-0.0070853,-0.000734916,0.0977606,1,4.17102e-05,-6.16174e-06,1.49495e-05,0.00834205,-0.00123235,0.0029899,0.999344,-0.000151476,0.0362205,0.00049693,0.0175572,0.516545,-0.99616,35.4375,1,45395,37397182
222,2,0.999344,-0.000151476,0.0362205,0.00049693,-0.708412,-0.0726549,9.77607,0.13399,-0.5871,0.971903,-0.0070853,-0.000734916,0.0977606,1,4.17102e-05,-6.16174e-06,1.49495e-05,0.00834205,-0.00123235,0.0029899,0.999344,-0.000151476,0.0362205,0.00049693,0.0175572,0.516545,-0.99616,35.4375,1,45395,37397182
222,3,0.999344,-0.000130269,0.036209,0.000505002,-0.730468,-0.0639247,9.7841,0.107394,-0.576228,0.983875,-0.00730658,-0.00064836,0.0978408,1,4.55623e-05,-9.77115e-06,1.35135e-05,0.00911245,-0.00195423,0.0027027,0.999344,-0.000130269,0.036209,0.000505002,0.0152129,0.515075,-0.994667,35.4375,1,45396,37397282
222,4,0.999344,-0.000130269,0.036209,0.000505002,-0.730468,-0.0639247,9.7841,0.107394,-0.576228,0.983875,-0.00730658,-0.00064836,0.0978408,1,4.55623e-05,-9.77115e-06,1.35135e-05,0.00911245,-0.00195423,0.0027027,0.999344,-0.000130269,0.036209,0.000505002,0.0152129,0.515075,-0.994667,35.4375,1,45396,37397282
222,5,0.999344,-0.000130269,0.036209,0.000505002,-0.730468,-0.0639247,9.7841,0.107394,-0.576228,0.983875,-0.00730658,-0.00064836,0.0978408,1,4.55623e-05,-9.77115e-06,1.35135e-05,0.00911245,-0.00195423,0.0027027,0.999344,-0.000130269,0.036209,0.000505002,0.0152129,0.515075,-0.994667,35.4375,1,45396,37397282
222,6,0.999345,-9.49917e-05,0.0361938,0.000515168,-0.751218,-0.0685012,9.78419,0.0824677,-0.581698,0.982587,-0.00751481,-0.000695501,0.0978417,1,5.36963e-05,-1.34428e-05,-1.2626e-06,0.0107393,-0.00268856,-0.00025252,0.999345,-9.49917e-05,0.0361938,0.000515168,0.0158292,0.513526,-0.990158,35.4375,1,45397,37397382
223,1,0.999345,-9.49917e-05,0.0361938,0.000515168,-0.751218,-0.0685012,9.78419,0.0824677,-0.581698,0.982587,-0.00751481,-0.000695501,0.0978417,1,5.36963e-05,-1.34428e-05,-1.2626e-06,0.0107393,-0.00268856,-0.00025252,0.999345,-9.49917e-05,0.0361938,0.000515168,0.0158292,0.513526,-0.990158,35.4375,1,45397,37397382
223,2,0.999345,-9.49917e-05,0.0361938,0.000515168,-0.751218,-0.0685012,9.78419,0.0824677,-0.581698,0.982587,-0.00751481,-0.000695501,0.0978417,1,5.36963e-05,-1.34428e-05,-1.2626e-06,0.0107393,-0.00268856,-0.00025252,0.999345,-9.49917e-05,0.0361938,0.000515168,0.0158292,0.513526,-0.990158,35.4375,1,45397,37397382
223,3,0.999345,-5.16384e-05,0.0361869,0.000514503,-0.751103,-0.0813359,9.79527,0.0878908,-0.596822,0.993842,-0.00751237,-0.000823264,0.0979525,1,5.09284e-05,-6.81759e-06,-4.79429e-06,0.0101857,-0.00136352,-0.000958857,0.999345,-5.16384e-05,0.0361869,0.000514503,0.0163274,0.515437,-0.988098,35.4375,1,45398,37397482
223,4,0.999345,-5.16384e-05,0.0361869,0.000514503,-0.751103,-0.0813359,9.79527,0.0878908,-0.596822,0.993842,-0.00751237,-0.000823264,0.0979525,1,5.09284e-05,-6.81759e-06,-4.79429e-06,0.0101857,-0.00136352,-0.000958857,0.999345,-5.16384e-05,0.0361869,0.000514503,0.0163274,0.515437,-0.988098,35.4375,1,45398,37397482
223,5,0.999345,-5.16384e-05,0.0361869,0.000514503,-0.751103,-0.0813359,9.79527,0.0878908,-0.596822,0.993842,-0.00751237,-0.000823264,0.0979525,1,5.09284e-05,-6.81759e-06,-4.79429e-06,0.0101857,-0.00136352,-0.000958857,0.999345,-5.16384e-05,0.0361869,0.000514503,0.0163274,0.515437,-0.988098,35.4375,1,45398,37397482
223,6,0.999345,1.17224e-07,0.0361914,0.000517794,-0.753668,-0.068469,9.792,0.081861,-0.582765,0.996365,-0.00753597,-0.000696356,0.09792,1,5.90514e-05,3.5522e-06,6.70373e-06,0.0118103,0.00071044,0.00134075,0.999345,1.17224e-07,0.0361914,0.000517794,0.018203,0.516902,-0.989084,35.4375,1,45399,37397582
223,7,0.999345,1.17224e-07,0.0361914,0.000517794,-0.753668,-0.068469,9.792,0.081861,-0.582765,0.996365,-0.00753597,-0.000696356,0.09792,1,5.90514e-05,3.5522e-06,6.70373e-06,0.0118103,0.00071044,0.00134075,0.999345,1.17224e-07,0.0361914,0.000517794,0.018203,0.516902,-0.989084,35.4375,1,45399,37397582
223,8,0.999345,1.17224e-07,0.0361914,0.000517794,-0.753668,-0.068469,9.792,0.081861,-0.582765,0.996365,-0.00753597,-0.000696356,0.09792,1,5.90514e-05,3.5522e-06,6.70373e-06,0.0118103,0.00071044,0.00134075,0.999345,1.17224e-07,0.0361914,0.000517794,0.018203,0.516902,-0.989084,35.4375,1,45399,37397582
223,9,0.999345,4.89722e-05,0.036178,0.000526238,-0.724608,-0.0674802,9.77996,0.110812,-0.585638,0.97939,-0.00724894,-0.000687282,0.0977993,1,6.22683e-05,-1.47914e-05,2.07105e-05,0.0124537,-0.00295827,0.00414209,0.999345,4.89722e-05,0.036178,0.000526238,0.0200292,0.518404,-0.99209,35.4375,1,45400,37397682
223,10,0.999345,4.89722e-05,0.036178,0.000526238,-0.724608,-0.0674802,9.77996,0.110812,-0.585638,0.97939,-0.00724894,-0.000687282,0.0977993,1,6.22683e-05,-1.47914e-05,2.07105e-05,0.0124537,-0.00295827,0.00414209,0.999345,4.89722e-05,0.036178,0.000526238,0.0200292,0.518404,-0.99209,35.4375,1,45400,37397682
223,11,0.999345,4.89722e-05,0.036178,0.000526238,-0.724608,-0.0674802,9.77996,0.110812,-0.585638,0.97939,-0.00724894,-0.000687282,0.0977993,1,6.22683e-05,-1.47914e-05,2.07105e-05,0.0124537,-0.00295827,0.00414209,0.999345,4.89722e-05,0.036178,0.000526238,0.0200292,0.518404,-0.99209,35.4375,1,45400,37397682
223,12,0.999346,7.0779e-05,0.0361626,0.000515515,-0.725864,-0.0769328,9.78294,0.113243,-0.591723,0.980246,-0.00726197,-0.000777927,0.0978291,1,4.30217e-05,-1.71491e-05,1.24871e-05,0.00860434,-0.00342982,0.00249741,0.999346,7.0779e-05,0.0361626,0.000515515,0.0194988,0.518444,-0.994107,35.4375,1,45401,37397782
223,13,0.999346,7.0779e-05,0.0361626,0.000515515,-0.725864,-0.0769328,9.78294,0.113243,-0.591723,0.980246,-0.00726197,-0.000777927,0.0978291,1,4.30217e-05,-1.71491e-05,1.24871e-05,0.00860434,-0.00342982,0.00249741,0.999346,7.0779e-05,0.0361626,0.000515515,0.0194988,0.518444,-0.994107,35.4375,1,45401,37397782
223,14,0.999346,7.0779e-05,0.0361626,0.000515515,-0.725864,-0.0769328,9.78294,0.113243,-0.591723,0.980246,-0.00726197,-0.000777927,0.0978291,1,4.30217e-05,-1.71491e-05,1.24871e-05,0.00860434,-0.00342982,0.00249741,0.999346,7.0779e-05,0.0361626,0.000515515,0.0194988,0.518444,-0.994107,35.4375,1,45401,37397782
224,1,0.999346,0.000100793,0.0361604,0.000499164,-0.714714,-0.0890113,9.78309,0.119731,-0.605278,0.982766,-0.00714763,-0.000900942,0.0978308,1,5.51324e-05,-2.54082e-06,2.8982e-06,0.0110265,-0.000508163,0.000579641,0.999346,0.000100793,0.0361604,0.000499164,0.016204,0.515527,-0.993146,35.4375,1,45402,37397882
224,2,0.999346,0.000100793,0.0361604,0.000499164,-0.714714,-0.0890113,9.78309,0.119731,-0.605278,0.982766,-0.00714763,-0.000900942,0.0978308,1,5.51324e-05,-2.54082e-06,2.8982e-06,0.0110265,-0.000508163,0.000579641,0.999346,0.000100793,0.0361604,0.000499164,0.016204,0.515527,-0.993146,35.4375,1,45402,37397882
224,3,0.999346,0.000100793,0.0361604,0.000499164,-0.714714,-0.0890113,9.78309,0.119731,-0.605278,0.982766,-0.00714763,-0.000900942,0.0978308,1,5.51324e-05,-2.54082e-06,2.8982e-06,0.0110265,-0.000508163,0.000579641,0.999346,0.000100793,0.0361604,0.000499164,0.016204,0.515527,-0.993146,35.4375,1,45402,37397882
224,4,0.999346,0.000124453,0.0361421,0.000515792,-0.71215,-0.0850434,9.78448,0.119051,-0.603322,0.981378,-0.0071251,-0.00085845,0.0978445,1,4.03301e-05,-1.84476e-05,8.71882e-06,0.00806601,-0.00368952,0.00174376,0.999346,0.000124453,0.0361421,0.000515792,0.0172436,0.513053,-0.991691,35.4375,1,45403,37397982
224,5,0.999346,0.000124453,0.0361421,0.000515792,-0.71215,-0.0850434,9.78448,0.119051,-0.603322,0.981378,-0.0071251,-0.00085845,0.0978445,1,4.03301e-05,-1.84476e-05,8.71882e-06,0.00806601,-0.00368952,0.00174376,0.999346,0.000124453,0.0361421,0.000515792,0.0172436,0.513053,-0.991691,35.4375,1,45403,37397982
224,6,0.999346,0.000124453,0.0361421,0.000515792,-0.71215,-0.0850434,9.78448,0.119051,-0.603322,0.981378,-0.0071251,-0.00085845,0.0978445,1,4.03301e-05,-1.84476e-05,8.71882e-06,0.00806601,-0.00368952,0.00174376,0.999346,0.000124453,0.0361421,0.000515792,0.0172436,0.513053,-0.991691,35.4375,1,45403,37397982
225,1,0.999347,0.000150773,0.0361314,0.000519121,-0.720817,-0.0796363,9.78525,0.116604,-0.601751,0.985229,-0.00721062,-0.000803974,0.0978523,1,3.86536e-05,-1.25188e-05,3.20932e-06,0.00773073,-0.00250376,0.000641865,0.999347,0.000150773,0.0361314,0.000519121,0.0186955,0.513999,-0.990666,35.4375,1,45404,37398082
225,2,0.999347,0.000150773,0.0361314,0.000519121,-0.720817,-0.0796363,9.78525,0.116604,-0.601751,0.985229,-0.00721062,-0.000803974,0.0978523,1,3.86536e-05,-1.25188e-05,3.20932e-06,0.00773073,-0.00250376,0.000641865,0.999347,0.000150773,0.0361314,0.000519121,0.0186955,0.513999,-0.990666,35.4375,1,45404,37398082
225,3,0.999347,0.000150773,0.0361314,0.000519121,-0.720817,-0.0796363,9.78525,0.116604,-0.601751,0.985229,-0.00721062,-0.000803974,0.0978523,1,3.86536e-05,-1.25188e-05,3.20932e-06,0.00773073,-0.00250376,0.000641865,0.999347,0.000150773,0.0361314,0.000519121,0.0186955,0.513999,-0.990666,35.4375,1,45404,37398082
225,4,0.999347,0.000179116,0.0361354,0.000497829,-0.710091,-0.0706972,9.78695,0.120769,-0.594104,0.985826,-0.00710049,-0.000715183,0.0978695,1,4.25558e-05,2.2002e-06,-8.33742e-06,0.00851115,0.00044004,-0.00166748,0.999347,0.000179116,0.0361354,0.000497829,0.0196297,0.516421,-0.990112,35.4375,1,45405,37398182
225,5,0.999347,0.000179116,0.0361354,0.000497829,-0.710091,-0.0706972,9.78695,0.120769,-0.594104,0.985826,-0.00710049,-0.000715183,0.0978695,1,4.25558e-05,2.2002e-06,-8.33742e-06,0.00851115,0.00044004,-0.00166748,0.999347,0.000179116,0.0361354,0.000497829,0.0196297,0.516421,-0.990112,35.4375,1,45405,37398182
225,6,0.999347,0.000179116,0.0361354,0.000497829,-0.710091,-0.0706972,9.78695,0.120769,-0.594104,0.985826,-0.00710049,-0.000715183,0.0978695,1,4.25558e-05,2.2002e-06,-8.33742e-06,0.00851115,0.00044004,-0.00166748,0.999347,0.000179116,0.0361354,0.000497829,0.0196297,0.516421,-0.990112,35.4375,1,45405,37398182
225,7,0.999347,0.000211183,0.0361391,0.000480709,-0.73806,-0.0625836,9.77805,0.0980225,-0.581418,0.976235,-0.00738015,-0.000635423,0.0977805,1,4.8915e-05,2.28338e-06,1.4748e-06,0.009783,0.000456677,0.00029496,0.999347,0.000211183,0.0361391,0.000480709,0.0200126,0.517934,-0.99311,35.4375,1,45406,37398282
225,8,0.999347,0.000211183,0.0361391,0.000480709,-0.73806,-0.0625836,9.77805,0.0980225,-0.581418,0.976235,-0.00738015,-0.000635423,0.0977805,1,4.8915e-05,2.28338e-06,1.4748e-06,0.009783,0.000456677,0.00029496,0.999347,0.000211183,0.0361391,0.000480709,0.0200126,0.517934,-0.99311,35.4375,1,45406,37398282
225,9,0.999347,0.000211183,0.0361391,0.000480709,-0.73806,-0.0625836,9.77805,0.0980225,-0.581418,0.976235,-0.00738015,-0.000635423,0.0977805,1,4.8915e-05,2.28338e-06,1.4748e-06,0.009783,0.000456677,0.00029496,0.999347,0.000211183,0.0361391,0.000480709,0.0200126,0.517934,-0.99311,35.4375,1,45406,37398282
225,10,0.999347,0.00023747,0.0361242,0.000461829,-0.724244,-0.0734332,9.78804,0.10675,-0.594011,0.984212,-0.00724552,-0.000744247,0.0978802,1,5.04759e-05,-1.57559e-05,2.33966e-06,0.0100952,-0.00315119,0.000467932,0.999347,0.00023747,0.0361242,0.000461829,0.0199917,0.516986,-0.994646,35.4375,1,45407,37398382
225,11,0.999347,0.00023747,0.0361242,0.000461829,-0.724244,-0.0734332,9.78804,0.10675,-0.594011,0.984212,-0.00724552,-0.000744247,0.0978802,1,5.04759e-05,-1.57559e-05,2.33966e-06,0.0100952,-0.00315119,0.000467932,0.999347,0.00023747,0.0361242,0.000461829,0.0199917,0.516986,-0.994646,35.4375,1,45407,37398382
225,12,0.999347,0.00023747,0.0361242,0.000461829,-0.724244,-0.0734332,9.78804,0.10675,-0.594011,0.984212,-0.00724552,-0.000744247,0.0978802,1,5.04759e-05,-1.57559e-05,2.33966e-06,0.0100952,-0.00315119,0.000467932,0.999347,0.00023747,0.0361242,0.000461829,0.0199917,0.516986,-0.994646,35.4375,1,45407,37398382
72,1,0.999347,0.00027266,0.0361206,0.000441125,-0.716151,-0.0787187,9.78624,0.119945,-0.599545,0.984466,-0.00716244,-0.000799069,0.0978623,1,6.08806e-05,-4.74192e-06,-2.3673e-06,0.0121761,-0.000948384,-0.00047346,0.999347,0.00027266,0.0361206,0.000441125,0.0186054,0.515028,-0.993673,35.4375,1,45408,37398482
72,2,0.999347,0.00027266,0.0361206,0.000441125,-0.716151,-0.0787187,9.78624,0.119945,-0.599545,0.984466,-0.00716244,-0.000799069,0.0978623,1,6.08806e-05,-4.74192e-06,-2.3673e-06,0.0121761,-0.000948384,-0.00047346,0.999347,0.00027266,0.0361206,0.000441125,0.0186054,0.515028,-0.993673,35.4375,1,45408,37398482
72,3,0.999347,0.00027266,0.0361206,0.000441125,-0.716151,-0.0787187,9.78624,0.119945,-0.599545,0.984466,-0.00716244,-0.000799069,0.0978623,1,6.08806e-05,-4.74192e-06,-2.3673e-06,0.0121761,-0.000948384,-0.00047346,0.999347,0.00027266,0.0361206,0.000441125,0.0186054,0.515028,-0.993673,35.4375,1,45408,37398482
72,4,0.999347,0.000316492,0.0361244,0.000441623,-0.704032,-0.0677115,9.78829,0.127907,-0.593373,0.98867,-0.00703989,-0.000689497,0.0978828,1,6.30729e-05,2.20148e-06,2.40284e-06,0.0126146,0.000440296,0.000480567,0.999347,0.000316492,0.0361244,0.000441623,0.0182263,0.512549,-0.991202,35.4375,1,45409,37398582
73,1,0.999347,0.000316492,0.0361244,0.000441623,-0.704032,-0.0677115,9.78829,0.127907,-0.593373,0.98867,-0.00703989,-0.000689497,0.0978828,1,6.30729e-05,2.20148e-06,2.40284e-06,0.0126146,0.000440296,0.000480567,0.999347,0.000316492,0.0361244,0.000441623,0.0182263,0.512549,-0.991202,35.4375,1,45409,37398582
73,2,0.999347,0.000316492,0.0361244,0.000441623,-0.704032,-0.0677115,9.78829,0.127907,-0.593373,0.98867,-0.00703989,-0.000689497,0.0978828,1,6.30729e-05,2.20148e-06,2.40284e-06,0.0126146,0.000440296,0.000480567,0.999347,0.000316492,0.0361244,0.000441623,0.0182263,0.512549,-0.991202,35.4375,1,45409,37398582
73,3,0.999348,0.000357238,0.036113,0.000460498,-0.686545,-0.0667032,9.78683,0.145901,-0.592053,0.9815,-0.00686822,-0.000677246,0.0978681,1,5.11538e-05,-1.42084e-05,1.46794e-05,0.0102308,-0.00284168,0.00293588,0.999348,0.000357238,0.036113,0.000460498,0.0172892,0.513984,-0.989145,35.4375,1,45410,37398682
73,4,0.999348,0.000357238,0.036113,0.000460498,-0.686545,-0.0667032,9.78683,0.145901,-0.592053,0.9815,-0.00686822,-0.000677246,0.0978681,1,5.11538e-05,-1.42084e-05,1.46794e-05,0.0102308,-0.00284168,0.00293588,0.999348,0.000357238,0.036113,0.000460498,0.0172892,0.513984,-0.989145,35.4375,1,45410,37398682
228,1,0.999348,0.000357238,0.036113,0.000460498,-0.686545,-0.0667032,9.78683,0.145901,-0.592053,0.9815,-0.00686822,-0.000677246,0.0978681,1,5.11538e-05,-1.42084e-05,1.46794e-05,0.0102308,-0.00284168,0.00293588,0.999348,0.000357238,0.036113,0.000460498,0.0172892,0.513984,-0.989145,35.4375,1,45410,37398682
228,2,0.999348,0.000401217,0.036098,0.000460631,-0.681433,-0.0668707,9.78612,0.153399,-0.589911,0.980222,-0.00681746,-0.000679351,0.0978609,1,5.44917e-05,-1.59647e-05,-1.55528e-06,0.0108983,-0.00319294,-0.000311056,0.999348,0.000401217,0.036098,0.000460631,0.0182234,0.516406,-0.98859,35.4375,1,45411,37398782
228,3,0.999348,0.000401217,0.036098,0.000460631,-0.681433,-0.0668707,9.78612,0.153399,-0.589911,0.980222,-0.00681746,-0.000679351,0.0978609,1,5.44917e-05,-1.59647e-05,-1.55528e-06,0.0108983,-0.00319294,-0.000311056,0.999348,0.000401217,0.036098,0.000460631,0.0182234,0.516406,-0.98859,35.4375,1,45411,37398782
228,4,0.999348,0.000401217,0.036098,0.000460631,-0.681433,-0.0668707,9.78612,0.153399,-0.589911,0.980222,-0.00681746,-0.000679351,0.0978609,1,5.44917e-05,-1.59647e-05,-1.55528e-06,0.0108983,-0.00319294,-0.000311056,0.999348,0.000401217,0.036098,0.000460631,0.0182234,0.516406,-0.98859,35.4375,1,45411,37398782
228,5,0.999348,0.000427384,0.0361007,0.000451777,-0.699908,-0.0757643,9.78853,0.137349,-0.601108,0.983285,-0.00699866,-0.000765641,0.0978853,1,4.08571e-05,2.15341e-06,-6.51062e-08,0.00817142,0.000430682,-1.30212e-05,0.999348,0.000427384,0.0361007,0.000451777,0.019104,0.518385,-0.990571,35.4375,1,45412,37398882
228,6,0.999348,0.000427384,0.0361007,0.000451777,-0.699908,-0.0757643,9.78853,0.137349,-0.601108,0.983285,-0.00699866,-0.000765641,0.0978853,1,4.08571e-05,2.15341e-06,-6.51062e-08,0.00817142,0.000430682,-1.30212e-05,0.999348,0.000427384,0.0361007,0.000451777,0.019104,0.518385,-0.990571,35.4375,1,45412,37398882
228,7,0.999348,0.000427384,0.0361007,0.000451777,-0.699908,-0.0757643,9.78853,0.137349,-0.601108,0.983285,-0.00699866,-0.000765641,0.0978853,1,4.08571e-05,2.15341e-06,-6.51062e-08,0.00817142,0.000430682,-1.30212e-05,0.999348,0.000427384,0.0361007,0.000451777,0.019104,0.518385,-0.990571,35.4375,1,45412,37398882
228,8,0.999348,0.000447442,0.0360989,0.000443429,-0.710686,-0.0826102,9.78753,0.121951,-0.60726,0.978836,-0.00710724,-0.000834336,0.0978752,1,4.16618e-05,-2.00407e-06,5.54332e-06,0.00833236,-0.000400814,0.00110866,0.999348,0.000447442,0.0360989,0.000443429,0.0186058,0.516474,-0.992631,35.4375,1,45413,37398982
228,9,0.999348,0.000447442,0.0360989,0.000443429,-0.710686,-0.0826102,9.78753,0.121951,-0.60726,0.978836,-0.00710724,-0.000834336,0.0978752,1,4.16618e-05,-2.00407e-06,5.54332e-06,0.00833236,-0.000400814,0.00110866,0.999348,0.000447442,0.0360989,0.000443429,0.0186058,0.516474,-0.992631,35.4375,1,45413,37398982
228,10,0.999348,0.000447442,0.0360989,0.000443429,-0.710686,-0.0826102,9.78753,0.121951,-0.60726,0.978836,-0.00710724,-0.000834336,0.0978752,1,4.16618e-05,-2.00407e-06,5.54332e-06,0.00833236,-0.000400814,0.00110866,0.999348,0.000447442,0.0360989,0.000443429,0.0186058,0.516474,-0.992631,35.4375,1,45413,37398982
229,1,0.999349,0.000463123,0.0360847,0.000442233,-0.697778,-0.069127,9.78689,0.138428,-0.598613,0.984885,-0.00698065,-0.000698902,0.0978686,1,3.85624e-05,-1.47313e-05,6.04082e-06,0.00771248,-0.00294626,0.00120816,0.999349,0.000463123,0.0360847,0.000442233,0.0171824,0.514544,-0.993173,35.4375,1,45414,37399082
229,2,0.999349,0.000463123,0.0360847,0.000442233,-0.697778,-0.069127,9.78689,0.138428,-0.598613,0.984885,-0.00698065,-0.000698902,0.0978686,1,3.85624e-05,-1.47313e-05,6.04082e-06,0.00771248,-0.00294626,0.00120816,0.999349,0.000463123,0.0360847,0.000442233,0.0171824,0.514544,-0.993173,35.4375,1,45414,37399082
229,3,0.999349,0.000463123,0.0360847,0.000442233,-0.697778,-0.069127,9.78689,0.138428,-0.598613,0.984885,-0.00698065,-0.000698902,0.0978686,1,3.85624e-05,-1.47313e-05,6.04082e-06,0.00771248,-0.00294626,0.00120816,0.999349,0.000463123,0.0360847,0.000442233,0.0171824,0.514544,-0.993173,35.4375,1,45414,37399082
229,4,0.999349,0.00050527,0.0360808,0.00046126,-0.721324,-0.0674328,9.78231,0.107609,-0.594968,0.979714,-0.00721402,-0.000686786,0.097823,1,6.25793e-05,-4.08267e-06,1.48861e-05,0.0125159,-0.000816534,0.00297722,0.999349,0.00050527,0.0360808,0.00046126,0.0172602,0.513523,-0.99067,35.4375,1,45415,37399182
229,5,0.999349,0.00050527,0.0360808,0.00046126,-0.721324,-0.0674328,9.78231,0.107609,-0.594968,0.979714,-0.00721402,-0.000686786,0.097823,1,6.25793e-05,-4.08267e-06,1.48861e-05,0.0125159,-0.000816534,0.00297722,0.999349,0.00050527,0.0360808,0.00046126,0.0172602,0.513523,-0.99067,35.4375,1,45415,37399182
229,6,0.999349,0.00050527,0.0360808,0.00046126,-0.721324,-0.0674328,9.78231,0.107609,-0.594968,0.979714,-0.00721402,-0.000686786,0.097823,1,6.25793e-05,-4.08267e-06,1.48861e-05,0.0125159,-0.000816534,0.00297722,0.999349,0.00050527,0.0360808,0.00046126,0.0172602,0.513523,-0.99067,35.4375,1,45415,37399182
229,7,0.999348,0.000510064,0.03609,0.000473681,-0.72658,-0.066543,9.78234,0.10761,-0.595436,0.977201,-0.00726417,-0.00066952,0.0978235,1,2.00216e-05,8.27936e-06,1.19265e-05,0.00400432,0.00165587,0.0023853,0.999348,0.000510064,0.03609,0.000473681,0.0177788,0.514937,-0.988116,35.4375,1,45416,37399282
229,8,0.999348,0.000510064,0.03609,0.000473681,-0.72658,-0.066543,9.78234,0.10761,-0.595436,0.977201,-0.00726417,-0.00066952,0.0978235,1,2.00216e-05,8.27936e-06,1.19265e-05,0.00400432,0.00165587,0.0023853,0.999348,0.000510064,0.03609,0.000473681,0.0177788,0.514937,-0.988116,35.4375,1,45416,37399282
229,9,0.999348,0.000510064,0.03609,0.000473681,-0.72658,-0.066543,9.78234,0.10761,-0.595436,0.977201,-0.00726417,-0.00066952,0.0978235,1,2.00216e-05,8.27936e-06,1.19265e-05,0.00400432,0.00165587,0.0023853,0.999348,0.000510064,0.03609,0.000473681,0.0177788,0.514937,-0.988116,35.4375,1,45416,37399282
229,10,0.999348,0.000529302,0.0360885,0.000481631,-0.751234,-0.0701279,9.78486,0.0814196,-0.599056,0.980383,-0.00751277,-0.00070793,0.0978485,1,3.28701e-05,-2.31904e-06,1.45211e-05,0.00657403,-0.000463808,0.00290422,0.999348,0.000529302,0.0360885,0.000481631,0.0191533,0.518349,-0.988551,35.4375,1,45417,37399382
230,1,0.999348,0.000529302,0.0360885,0.000481631,-0.751234,-0.0701279,9.78486,0.0814196,-0.599056,0.980383,-0.00751277,-0.00070793,0.0978485,1,3.28701e-05,-2.31904e-06,1.45211e-05,0.00657403,-0.000463808,0.00290422,0.999348,0.000529302,0.0360885,0.000481631,0.0191533,0.518349,-0.988551,35.4375,1,45417,37399382
230,2,0.999348,0.000529302,0.0360885,0.000481631,-0.751234,-0.0701279,9.78486,0.0814196,-0.599056,0.980383,-0.00751277,-0.00070793,0.0978485,1,3.28701e-05,-2.31904e-06,1.45211e-05,0.00657403,-0.000463808,0.00290422,0.999348,0.000529302,0.0360885,0.000481631,0.0191533,0.518349,-0.988551,35.4375,1,45417,37399382
