frame_id,imu_idx,quat_w,quat_x,quat_y,quat_z,accel_x,accel_y,accel_z,free_accel_x,free_accel_y,free_accel_z,delta_v_x,delta_v_y,delta_v_z,delta_q_w,delta_q_x,delta_q_y,delta_q_z,rate_x,rate_y,rate_z,quat_w,quat_x,quat_y,quat_z,mag_x,mag_y,mag_z,temperature,status_byte,packet_counter,time_fine
1,1,-0.0907895,-0.0484703,0.00274882,0.994686,-0.820921,-0.00354706,9.76913,-0.377839,0.515041,0.884308,-0.00821115,-4.55813e-05,0.0976911,1,5.09936e-05,-9.97063e-06,8.9818e-06,0.0101987,-0.00199413,0.00179636,-0.0907895,-0.0484703,0.00274882,0.994686,0.0832883,-0.432257,-0.897853,35.5625,3,65444,39406592
1,2,-0.0907895,-0.0484703,0.00274882,0.994686,-0.507869,-0.069236,7.33963,-0.377839,0.515041,0.884308,-0.00507904,-0.000697479,0.0733962,1,3.52133e-05,-2.37139e-06,-4.91013e-06,0.00704265,-0.000474279,-0.000982026,-0.0907895,-0.0484703,0.00274882,0.994686,0.0139244,0.497974,-1.02029,35.5625,1,8563,40273564
1,3,-0.0907895,-0.0484703,0.00274882,0.994686,-0.507869,-0.069236,7.33963,-0.377839,0.515041,0.884308,-0.00507904,-0.000697479,0.0733962,1,3.52133e-05,-2.37139e-06,-4.91013e-06,0.00704265,-0.000474279,-0.000982026,-0.0907895,-0.0484703,0.00274882,0.994686,0.0139244,0.497974,-1.02029,35.5625,1,8563,40273564
1,4,-0.0907895,-0.0484703,0.00274882,0.994686,-0.507869,-0.069236,7.33963,-0.377839,0.515041,0.884308,-0.00507904,-0.000697479,0.0733962,1,3.52133e-05,-2.37139e-06,-4.91013e-06,0.00704265,-0.000474279,-0.000982026,-0.0907895,-0.0484703,0.00274882,0.994686,0.0139244,0.497974,-1.02029,35.5625,1,8563,40273564
2,1,0.999393,-0.00469266,0.0345234,-0.00016334,-0.677313,-0.084342,9.78274,0.126344,-0.471182,1.01553,-0.00677595,-0.000852143,0.0978271,1,4.44557e-05,-1.44262e-05,1.83832e-06,0.00889115,-0.00288525,0.000367665,0.999393,-0.00469266,0.0345234,-0.00016334,0.0110377,0.497998,-1.02028,35.5625,1,8564,40273664
2,2,0.999393,-0.00469266,0.0345234,-0.00016334,-0.677313,-0.084342,9.78274,0.126344,-0.471182,1.01553,-0.00677595,-0.000852143,0.0978271,1,4.44557e-05,-1.44262e-05,1.83832e-06,0.00889115,-0.00288525,0.000367665,0.999393,-0.00469266,0.0345234,-0.00016334,0.0110377,0.497998,-1.02028,35.5625,1,8564,40273664
2,3,0.999393,-0.00469266,0.0345234,-0.00016334,-0.677313,-0.084342,9.78274,0.126344,-0.471182,1.01553,-0.00677595,-0.000852143,0.0978271,1,4.44557e-05,-1.44262e-05,1.83832e-06,0.00889115,-0.00288525,0.000367665,0.999393,-0.00469266,0.0345234,-0.00016334,0.0110377,0.497998,-1.02028,35.5625,1,8564,40273664
2,4,0.999395,-0.00464371,0.0344823,-0.000193554,-0.6693,-0.078692,9.78885,0.132259,-0.469875,1.01978,-0.00669826,-0.000796772,0.0978881,1,5.03922e-05,-2.68348e-05,-1.06749e-06,0.0100784,-0.00536696,-0.000213498,0.999395,-0.00464371,0.0344823,-0.000193554,0.00922712,0.494075,-1.01834,35.5625,1,8565,40273764
3,1,0.999395,-0.00464371,0.0344823,-0.000193554,-0.6693,-0.078692,9.78885,0.132259,-0.469875,1.01978,-0.00669826,-0.000796772,0.0978881,1,5.03922e-05,-2.68348e-05,-1.06749e-06,0.0100784,-0.00536696,-0.000213498,0.999395,-0.00464371,0.0344823,-0.000193554,0.00922712,0.494075,-1.01834,35.5625,1,8565,40273764
3,2,0.999395,-0.00464371,0.0344823,-0.000193554,-0.6693,-0.078692,9.78885,0.132259,-0.469875,1.01978,-0.00669826,-0.000796772,0.0978881,1,5.03922e-05,-2.68348e-05,-1.06749e-06,0.0100784,-0.00536696,-0.000213498,0.999395,-0.00464371,0.0344823,-0.000193554,0.00922712,0.494075,-1.01834,35.5625,1,8565,40273764
3,3,0.999395,-0.00459419,0.0344775,-0.000206269,-0.6765,-0.0675511,9.791,0.12195,-0.457497,1.02196,-0.006766,-0.000685159,0.0979099,1,5.00847e-05,-5.01976e-06,-1.17848e-05,0.0100169,-0.00100395,-0.00235696,0.999395,-0.00459419,0.0344775,-0.000206269,0.0103161,0.491565,-1.01486,35.5625,1,8566,40273864
3,4,0.999395,-0.00459419,0.0344775,-0.000206269,-0.6765,-0.0675511,9.791,0.12195,-0.457497,1.02196,-0.006766,-0.000685159,0.0979099,1,5.00847e-05,-5.01976e-06,-1.17848e-05,0.0100169,-0.00100395,-0.00235696,0.999395,-0.00459419,0.0344775,-0.000206269,0.0103161,0.491565,-1.01486,35.5625,1,8566,40273864
4,1,0.999395,-0.00459419,0.0344775,-0.000206269,-0.6765,-0.0675511,9.791,0.12195,-0.457497,1.02196,-0.006766,-0.000685159,0.0979099,1,5.00847e-05,-5.01976e-06,-1.17848e-05,0.0100169,-0.00100395,-0.00235696,0.999395,-0.00459419,0.0344775,-0.000206269,0.0103161,0.491565,-1.01486,35.5625,1,8566,40273864
4,2,0.999395,-0.00453536,0.0344722,-0.000206048,-0.658391,-0.078906,9.78638,0.14683,-0.465612,1.01335,-0.00658495,-0.000800731,0.0978637,1,5.94891e-05,-5.33107e-06,2.07882e-06,0.0118978,-0.00106621,0.000415765,0.999395,-0.00453536,0.0344722,-0.000206048,0.0117931,0.493938,-1.01179,35.5625,1,8567,40273964
4,3,0.999395,-0.00453536,0.0344722,-0.000206048,-0.658391,-0.078906,9.78638,0.14683,-0.465612,1.01335,-0.00658495,-0.000800731,0.0978637,1,5.94891e-05,-5.33107e-06,2.07882e-06,0.0118978,-0.00106621,0.000415765,0.999395,-0.00453536,0.0344722,-0.000206048,0.0117931,0.493938,-1.01179,35.5625,1,8567,40273964
4,4,0.999395,-0.00453536,0.0344722,-0.000206048,-0.658391,-0.078906,9.78638,0.14683,-0.465612,1.01335,-0.00658495,-0.000800731,0.0978637,1,5.94891e-05,-5.33107e-06,2.07882e-06,0.0118978,-0.00106621,0.000415765,0.999395,-0.00453536,0.0344722,-0.000206048,0.0117931,0.493938,-1.01179,35.5625,1,8567,40273964
8,1,0.999396,-0.00447822,0.0344632,-0.000191291,-0.66094,-0.0875471,9.79616,0.149282,-0.469517,1.02136,-0.00661115,-0.000886963,0.0979614,1,5.75129e-05,-9.06558e-06,1.68887e-05,0.0115026,-0.00181312,0.00337775,0.999396,-0.00447822,0.0344632,-0.000191291,0.0131391,0.498334,-1.01271,35.5625,1,8568,40274064
8,2,0.999396,-0.00447822,0.0344632,-0.000191291,-0.66094,-0.0875471,9.79616,0.149282,-0.469517,1.02136,-0.00661115,-0.000886963,0.0979614,1,5.75129e-05,-9.06558e-06,1.68887e-05,0.0115026,-0.00181312,0.00337775,0.999396,-0.00447822,0.0344632,-0.000191291,0.0131391,0.498334,-1.01271,35.5625,1,8568,40274064
8,3,0.999396,-0.00447822,0.0344632,-0.000191291,-0.66094,-0.0875471,9.79616,0.149282,-0.469517,1.02136,-0.00661115,-0.000886963,0.0979614,1,5.75129e-05,-9.06558e-06,1.68887e-05,0.0115026,-0.00181312,0.00337775,0.999396,-0.00447822,0.0344632,-0.000191291,0.0131391,0.498334,-1.01271,35.5625,1,8568,40274064
8,4,0.999397,-0.00441902,0.0344536,-0.000181348,-0.672161,-0.086566,9.78811,0.134669,-0.479157,1.00887,-0.00672349,-0.000877294,0.0978809,1,5.86249e-05,-9.75141e-06,1.16506e-05,0.011725,-0.00195028,0.00233012,0.999397,-0.00441902,0.0344536,-0.000181348,0.0125636,0.498889,-1.01623,35.5625,1,8569,40274164
8,5,0.999397,-0.00441902,0.0344536,-0.000181348,-0.672161,-0.086566,9.78811,0.134669,-0.479157,1.00887,-0.00672349,-0.000877294,0.0978809,1,5.86249e-05,-9.75141e-06,1.16506e-05,0.011725,-0.00195028,0.00233012,0.999397,-0.00441902,0.0344536,-0.000181348,0.0125636,0.498889,-1.01623,35.5625,1,8569,40274164
8,6,0.999397,-0.00441902,0.0344536,-0.000181348,-0.672161,-0.086566,9.78811,0.134669,-0.479157,1.00887,-0.00672349,-0.000877294,0.0978809,1,5.86249e-05,-9.75141e-06,1.16506e-05,0.011725,-0.00195028,0.00233012,0.999397,-0.00441902,0.0344536,-0.000181348,0.0125636,0.498889,-1.01623,35.5625,1,8569,40274164
9,1,0.999397,-0.00436508,0.0344491,-0.000174408,-0.686595,-0.0733581,9.7917,0.10843,-0.474454,1.01974,-0.0068668,-0.000744094,0.0979169,1,5.30761e-05,-4.42363e-06,8.66128e-06,0.0106152,-0.000884726,0.00173226,0.999397,-0.00436508,0.0344491,-0.000174408,0.0110538,0.497022,-1.0203,35.5625,1,8570,40274264
9,2,0.999397,-0.00436508,0.0344491,-0.000174408,-0.686595,-0.0733581,9.7917,0.10843,-0.474454,1.01974,-0.0068668,-0.000744094,0.0979169,1,5.30761e-05,-4.42363e-06,8.66128e-06,0.0106152,-0.000884726,0.00173226,0.999397,-0.00436508,0.0344491,-0.000174408,0.0110538,0.497022,-1.0203,35.5625,1,8570,40274264
9,3,0.999397,-0.00436508,0.0344491,-0.000174408,-0.686595,-0.0733581,9.7917,0.10843,-0.474454,1.01974,-0.0068668,-0.000744094,0.0979169,1,5.30761e-05,-4.42363e-06,8.66128e-06,0.0106152,-0.000884726,0.00173226,0.999397,-0.00436508,0.0344491,-0.000174408,0.0110538,0.497022,-1.0203,35.5625,1,8570,40274264
9,4,0.999397,-0.00430944,0.0344518,-0.000162679,-0.678659,-0.0558479,9.78773,0.124255,-0.448368,1.01865,-0.00678606,-0.000569361,0.0978772,1,5.46537e-05,2.59336e-06,1.35357e-05,0.0109307,0.000518672,0.00270714,0.999397,-0.00430944,0.0344518,-0.000162679,0.00975285,0.492111,-1.01788,35.5625,1,8571,40274364
9,5,0.999397,-0.00430944,0.0344518,-0.000162679,-0.678659,-0.0558479,9.78773,0.124255,-0.448368,1.01865,-0.00678606,-0.000569361,0.0978772,1,5.46537e-05,2.59336e-06,1.35357e-05,0.0109307,0.000518672,0.00270714,0.999397,-0.00430944,0.0344518,-0.000162679,0.00975285,0.492111,-1.01788,35.5625,1,8571,40274364
9,6,0.999397,-0.00430944,0.0344518,-0.000162679,-0.678659,-0.0558479,9.78773,0.124255,-0.448368,1.01865,-0.00678606,-0.000569361,0.0978772,1,5.46537e-05,2.59336e-06,1.35357e-05,0.0109307,0.000518672,0.00270714,0.999397,-0.00430944,0.0344518,-0.000162679,0.00975285,0.492111,-1.01788,35.5625,1,8571,40274364
10,1,0.999398,-0.00425766,0.034443,-0.000161505,-0.688704,-0.0644951,9.78604,0.116754,-0.457684,1.01896,-0.00688875,-0.0006551,0.0978602,1,5.16475e-05,-8.78422e-06,2.90752e-06,0.0103295,-0.00175684,0.000581503,0.999398,-0.00425766,0.034443,-0.000161505,0.00986815,0.492509,-1.01282,35.5625,1,8572,40274464
10,2,0.999398,-0.00425766,0.034443,-0.000161505,-0.688704,-0.0644951,9.78604,0.116754,-0.457684,1.01896,-0.00688875,-0.0006551,0.0978602,1,5.16475e-05,-8.78422e-06,2.90752e-06,0.0103295,-0.00175684,0.000581503,0.999398,-0.00425766,0.034443,-0.000161505,0.00986815,0.492509,-1.01282,35.5625,1,8572,40274464
10,3,0.999398,-0.00425766,0.034443,-0.000161505,-0.688704,-0.0644951,9.78604,0.116754,-0.457684,1.01896,-0.00688875,-0.0006551,0.0978602,1,5.16475e-05,-8.78422e-06,2.90752e-06,0.0103295,-0.00175684,0.000581503,0.999398,-0.00425766,0.034443,-0.000161505,0.00986815,0.492509,-1.01282,35.5625,1,8572,40274464
10,4,0.999398,-0.00420373,0.0344345,-0.000148105,-0.688972,-0.078931,9.79201,0.119193,-0.466948,1.02274,-0.00689146,-0.000799884,0.0979199,1,5.29511e-05,-8.99871e-06,1.47786e-05,0.0105902,-0.00179974,0.00295572,0.999398,-0.00420373,0.0344345,-0.000148105,0.0117646,0.494923,-1.01227,35.5625,1,8573,40274564
11,1,0.999398,-0.00420373,0.0344345,-0.000148105,-0.688972,-0.078931,9.79201,0.119193,-0.466948,1.02274,-0.00689146,-0.000799884,0.0979199,1,5.29511e-05,-8.99871e-06,1.47786e-05,0.0105902,-0.00179974,0.00295572,0.999398,-0.00420373,0.0344345,-0.000148105,0.0117646,0.494923,-1.01227,35.5625,1,8573,40274564
11,2,0.999398,-0.00420373,0.0344345,-0.000148105,-0.688972,-0.078931,9.79201,0.119193,-0.466948,1.02274,-0.00689146,-0.000799884,0.0979199,1,5.29511e-05,-8.99871e-06,1.47786e-05,0.0105902,-0.00179974,0.00295572,0.999398,-0.00420373,0.0344345,-0.000148105,0.0117646,0.494923,-1.01227,35.5625,1,8573,40274564
11,3,0.999398,-0.00416012,0.0344425,-0.000143874,-0.709526,-0.0834854,9.77854,0.0971667,-0.475657,1.00005,-0.00709369,-0.000843469,0.0977854,1,4.36343e-05,7.9944e-06,5.68291e-06,0.00872687,0.00159888,0.00113658,0.999398,-0.00416012,0.0344425,-0.000143874,0.0126163,0.496441,-1.01578,35.5625,1,8574,40274664
11,4,0.999398,-0.00416012,0.0344425,-0.000143874,-0.709526,-0.0834854,9.77854,0.0971667,-0.475657,1.00005,-0.00709369,-0.000843469,0.0977854,1,4.36343e-05,7.9944e-06,5.68291e-06,0.00872687,0.00159888,0.00113658,0.999398,-0.00416012,0.0344425,-0.000143874,0.0126163,0.496441,-1.01578,35.5625,1,8574,40274664
11,5,0.999398,-0.00416012,0.0344425,-0.000143874,-0.709526,-0.0834854,9.77854,0.0971667,-0.475657,1.00005,-0.00709369,-0.000843469,0.0977854,1,4.36343e-05,7.9944e-06,5.68291e-06,0.00872687,0.00159888,0.00113658,0.999398,-0.00416012,0.0344425,-0.000143874,0.0126163,0.496441,-1.01578,35.5625,1,8574,40274664
11,6,0.999399,-0.00412655,0.0344243,-0.000138276,-0.729193,-0.0991729,9.78364,0.0739447,-0.49431,1.00936,-0.00729551,-0.000998264,0.0978361,1,3.29074e-05,-1.8319e-05,6.60886e-06,0.00658147,-0.00366381,0.00132177,0.999399,-0.00412655,0.0344243,-0.000138276,0.0125427,0.497941,-1.01776,35.5625,1,8575,40274764
12,1,0.999399,-0.00412655,0.0344243,-0.000138276,-0.729193,-0.0991729,9.78364,0.0739447,-0.49431,1.00936,-0.00729551,-0.000998264,0.0978361,1,3.29074e-05,-1.8319e-05,6.60886e-06,0.00658147,-0.00366381,0.00132177,0.999399,-0.00412655,0.0344243,-0.000138276,0.0125427,0.497941,-1.01776,35.5625,1,8575,40274764
12,2,0.999399,-0.00412655,0.0344243,-0.000138276,-0.729193,-0.0991729,9.78364,0.0739447,-0.49431,1.00936,-0.00729551,-0.000998264,0.0978361,1,3.29074e-05,-1.8319e-05,6.60886e-06,0.00658147,-0.00366381,0.00132177,0.999399,-0.00412655,0.0344243,-0.000138276,0.0125427,0.497941,-1.01776,35.5625,1,8575,40274764
12,3,0.9994,-0.00407015,0.0344073,-0.000126012,-0.720636,-0.0999739,9.78595,0.0813983,-0.50244,1.0162,-0.00720969,-0.0010109,0.0978592,1,5.59725e-05,-1.71308e-05,1.40778e-05,0.0111945,-0.00342615,0.00281555,0.9994,-0.00407015,0.0344073,-0.000126012,0.0110866,0.496516,-1.0193,35.5625,1,8576,40274864
12,4,0.9994,-0.00407015,0.0344073,-0.000126012,-0.720636,-0.0999739,9.78595,0.0813983,-0.50244,1.0162,-0.00720969,-0.0010109,0.0978592,1,5.59725e-05,-1.71308e-05,1.40778e-05,0.0111945,-0.00342615,0.00281555,0.9994,-0.00407015,0.0344073,-0.000126012,0.0110866,0.496516,-1.0193,35.5625,1,8576,40274864
10,1,0.9994,-0.00407015,0.0344073,-0.000126012,-0.720636,-0.0999739,9.78595,0.0813983,-0.50244,1.0162,-0.00720969,-0.0010109,0.0978592,1,5.59725e-05,-1.71308e-05,1.40778e-05,0.0111945,-0.00342615,0.00281555,0.9994,-0.00407015,0.0344073,-0.000126012,0.0110866,0.496516,-1.0193,35.5625,1,8576,40274864
10,2,0.9994,-0.00402754,0.0344073,-0.000114743,-0.729931,-0.0762586,9.78281,0.0698911,-0.47759,1.01766,-0.0072993,-0.00077129,0.097828,1,4.34834e-05,-5.42393e-08,1.34131e-05,0.00869667,-1.08479e-05,0.00268262,0.9994,-0.00402754,0.0344073,-0.000114743,0.0112209,0.492081,-1.01688,35.5625,1,8577,40274964
10,3,0.9994,-0.00402754,0.0344073,-0.000114743,-0.729931,-0.0762586,9.78281,0.0698911,-0.47759,1.01766,-0.0072993,-0.00077129,0.097828,1,4.34834e-05,-5.42393e-08,1.34131e-05,0.00869667,-1.08479e-05,0.00268262,0.9994,-0.00402754,0.0344073,-0.000114743,0.0112209,0.492081,-1.01688,35.5625,1,8577,40274964
10,4,0.9994,-0.00402754,0.0344073,-0.000114743,-0.729931,-0.0762586,9.78281,0.0698911,-0.47759,1.01766,-0.0072993,-0.00077129,0.097828,1,4.34834e-05,-5.42393e-08,1.34131e-05,0.00869667,-1.08479e-05,0.00268262,0.9994,-0.00402754,0.0344073,-0.000114743,0.0112209,0.492081,-1.01688,35.5625,1,8577,40274964
14,1,0.9994,-0.00397116,0.0343992,-0.000119476,-0.716037,-0.08391,9.79182,0.0871327,-0.487624,1.02342,-0.00716213,-0.000849995,0.097918,1,5.59166e-05,-8.96278e-06,-3.88372e-06,0.0111833,-0.00179256,-0.000776743,0.9994,-0.00397116,0.0343992,-0.000119476,0.010308,0.492053,-1.01485,35.5625,1,8578,40275064
14,2,0.9994,-0.00397116,0.0343992,-0.000119476,-0.716037,-0.08391,9.79182,0.0871327,-0.487624,1.02342,-0.00716213,-0.000849995,0.097918,1,5.59166e-05,-8.96278e-06,-3.88372e-06,0.0111833,-0.00179256,-0.000776743,0.9994,-0.00397116,0.0343992,-0.000119476,0.010308,0.492053,-1.01485,35.5625,1,8578,40275064
14,3,0.9994,-0.00397116,0.0343992,-0.000119476,-0.716037,-0.08391,9.79182,0.0871327,-0.487624,1.02342,-0.00716213,-0.000849995,0.097918,1,5.59166e-05,-8.96278e-06,-3.88372e-06,0.0111833,-0.00179256,-0.000776743,0.9994,-0.00397116,0.0343992,-0.000119476,0.010308,0.492053,-1.01485,35.5625,1,8578,40275064
14,4,0.999401,-0.0039232,0.0343732,-0.000107639,-0.707555,-0.0647709,9.79159,0.094088,-0.468039,1.01962,-0.00708071,-0.000657188,0.0979155,1,4.74378e-05,-2.64235e-05,1.33646e-05,0.00948756,-0.00528471,0.00267291,0.999401,-0.0039232,0.0343732,-0.000107639,0.0117646,0.494923,-1.01227,35.5625,1,8579,40275164
15,1,0.999401,-0.0039232,0.0343732,-0.000107639,-0.707555,-0.0647709,9.79159,0.094088,-0.468039,1.01962,-0.00708071,-0.000657188,0.0979155,1,4.74378e-05,-2.64235e-05,1.33646e-05,0.00948756,-0.00528471,0.00267291,0.999401,-0.0039232,0.0343732,-0.000107639,0.0117646,0.494923,-1.01227,35.5625,1,8579,40275164
15,2,0.999401,-0.0039232,0.0343732,-0.000107639,-0.707555,-0.0647709,9.79159,0.094088,-0.468039,1.01962,-0.00708071,-0.000657188,0.0979155,1,4.74378e-05,-2.64235e-05,1.33646e-05,0.00948756,-0.00528471,0.00267291,0.999401,-0.0039232,0.0343732,-0.000107639,0.0117646,0.494923,-1.01227,35.5625,1,8579,40275164
15,3,0.999402,-0.00387119,0.0343653,-0.00010584,-0.732517,-0.073422,9.7815,0.0675194,-0.471997,1.00761,-0.0073268,-0.000744462,0.0978148,1,5.21093e-05,-8.36741e-06,3.26129e-06,0.0104219,-0.00167348,0.000652258,0.999402,-0.00387119,0.0343653,-0.00010584,0.0126495,0.497381,-1.01374,35.5625,1,8580,40275264
15,4,0.999402,-0.00387119,0.0343653,-0.00010584,-0.732517,-0.073422,9.7815,0.0675194,-0.471997,1.00761,-0.0073268,-0.000744462,0.0978148,1,5.21093e-05,-8.36741e-06,3.26129e-06,0.0104219,-0.00167348,0.000652258,0.999402,-0.00387119,0.0343653,-0.00010584,0.0126495,0.497381,-1.01374,35.5625,1,8580,40275264
16,1,0.999402,-0.00387119,0.0343653,-0.00010584,-0.732517,-0.073422,9.7815,0.0675194,-0.471997,1.00761,-0.0073268,-0.000744462,0.0978148,1,5.21093e-05,-8.36741e-06,3.26129e-06,0.0104219,-0.00167348,0.000652258,0.999402,-0.00387119,0.0343653,-0.00010584,0.0126495,0.497381,-1.01374,35.5625,1,8580,40275264
16,2,0.999403,-0.00382382,0.0343498,-0.000105775,-0.718182,-0.0774072,9.78002,0.0810425,-0.478492,1.00501,-0.00718482,-0.000783414,0.0977999,1,4.75364e-05,-1.53653e-05,3.05103e-06,0.00950729,-0.00307307,0.000610206,0.999403,-0.00382382,0.0343498,-0.000105775,0.012575,0.495989,-1.01781,35.5625,1,8581,40275364
16,3,0.999403,-0.00382382,0.0343498,-0.000105775,-0.718182,-0.0774072,9.78002,0.0810425,-0.478492,1.00501,-0.00718482,-0.000783414,0.0977999,1,4.75364e-05,-1.53653e-05,3.05103e-06,0.00950729,-0.00307307,0.000610206,0.999403,-0.00382382,0.0343498,-0.000105775,0.012575,0.495989,-1.01781,35.5625,1,8581,40275364
16,4,0.999403,-0.00382382,0.0343498,-0.000105775,-0.718182,-0.0774072,9.78002,0.0810425,-0.478492,1.00501,-0.00718482,-0.000783414,0.0977999,1,4.75364e-05,-1.53653e-05,3.05103e-06,0.00950729,-0.00307307,0.000610206,0.999403,-0.00382382,0.0343498,-0.000105775,0.012575,0.495989,-1.01781,35.5625,1,8581,40275364
17,1,0.999403,-0.00376591,0.0343437,-9.31187e-05,-0.73289,-0.0710125,9.78831,0.0642503,-0.48152,1.02094,-0.00733019,-0.000721556,0.0978829,1,5.73005e-05,-6.68902e-06,1.45585e-05,0.0114601,-0.0013378,0.00291169,0.999403,-0.00376591,0.0343437,-9.31187e-05,0.01014,0.494103,-1.02036,35.5625,1,8582,40275464
17,2,0.999403,-0.00376591,0.0343437,-9.31187e-05,-0.73289,-0.0710125,9.78831,0.0642503,-0.48152,1.02094,-0.00733019,-0.000721556,0.0978829,1,5.73005e-05,-6.68902e-06,1.45585e-05,0.0114601,-0.0013378,0.00291169,0.999403,-0.00376591,0.0343437,-9.31187e-05,0.01014,0.494103,-1.02036,35.5625,1,8582,40275464
17,3,0.999403,-0.00376591,0.0343437,-9.31187e-05,-0.73289,-0.0710125,9.78831,0.0642503,-0.48152,1.02094,-0.00733019,-0.000721556,0.0978829,1,5.73005e-05,-6.68902e-06,1.45585e-05,0.0114601,-0.0013378,0.00291169,0.999403,-0.00376591,0.0343437,-9.31187e-05,0.01014,0.494103,-1.02036,35.5625,1,8582,40275464
17,4,0.999404,-0.0036977,0.0343361,-9.13513e-05,-0.731146,-0.0753044,9.78487,0.0710365,-0.482181,1.01867,-0.00731314,-0.000766192,0.0978484,1,6.6936e-05,-8.60021e-06,3.29691e-06,0.0133872,-0.00172004,0.000659383,0.999404,-0.0036977,0.0343361,-9.13513e-05,0.00872941,0.49361,-1.01936,35.5625,1,8583,40275564
18,1,0.999404,-0.0036977,0.0343361,-9.13513e-05,-0.731146,-0.0753044,9.78487,0.0710365,-0.482181,1.01867,-0.00731314,-0.000766192,0.0978484,1,6.6936e-05,-8.60021e-06,3.29691e-06,0.0133872,-0.00172004,0.000659383,0.999404,-0.0036977,0.0343361,-9.13513e-05,0.00872941,0.49361,-1.01936,35.5625,1,8583,40275564
18,2,0.999404,-0.0036977,0.0343361,-9.13513e-05,-0.731146,-0.0753044,9.78487,0.0710365,-0.482181,1.01867,-0.00731314,-0.000766192,0.0978484,1,6.6936e-05,-8.60021e-06,3.29691e-06,0.0133872,-0.00172004,0.000659383,0.999404,-0.0036977,0.0343361,-9.13513e-05,0.00872941,0.49361,-1.01936,35.5625,1,8583,40275564
18,3,0.999405,-0.0036389,0.0343132,-0.00010452,-0.722283,-0.0805396,9.797,0.0838457,-0.488049,1.0296,-0.00722751,-0.000816852,0.0979695,1,5.92992e-05,-2.38082e-05,-1.12806e-05,0.0118598,-0.00476164,-0.00225612,0.999405,-0.0036389,0.0343132,-0.00010452,0.0102387,0.494031,-1.01632,35.5625,1,8584,40275664
18,4,0.999405,-0.0036389,0.0343132,-0.00010452,-0.722283,-0.0805396,9.797,0.0838457,-0.488049,1.0296,-0.00722751,-0.000816852,0.0979695,1,5.92992e-05,-2.38082e-05,-1.12806e-05,0.0118598,-0.00476164,-0.00225612,0.999405,-0.0036389,0.0343132,-0.00010452,0.0102387,0.494031,-1.01632,35.5625,1,8584,40275664
19,1,0.999405,-0.0036389,0.0343132,-0.00010452,-0.722283,-0.0805396,9.797,0.0838457,-0.488049,1.0296,-0.00722751,-0.000816852,0.0979695,1,5.92992e-05,-2.38082e-05,-1.12806e-05,0.0118598,-0.00476164,-0.00225612,0.999405,-0.0036389,0.0343132,-0.00010452,0.0102387,0.494031,-1.01632,35.5625,1,8584,40275664
19,2,0.999405,-0.00358655,0.034301,-8.72585e-05,-0.723944,-0.0734027,9.78959,0.0780801,-0.479182,1.02002,-0.0072421,-0.000744292,0.0978956,1,5.10775e-05,-1.3709e-05,1.82837e-05,0.0102155,-0.0027418,0.00365674,0.999405,-0.00358655,0.034301,-8.72585e-05,0.0126941,0.495421,-1.01327,35.5625,1,8585,40275764
19,3,0.999405,-0.00358655,0.034301,-8.72585e-05,-0.723944,-0.0734027,9.78959,0.0780801,-0.479182,1.02002,-0.0072421,-0.000744292,0.0978956,1,5.10775e-05,-1.3709e-05,1.82837e-05,0.0102155,-0.0027418,0.00365674,0.999405,-0.00358655,0.034301,-8.72585e-05,0.0126941,0.495421,-1.01327,35.5625,1,8585,40275764
19,4,0.999405,-0.00358655,0.034301,-8.72585e-05,-0.723944,-0.0734027,9.78959,0.0780801,-0.479182,1.02002,-0.0072421,-0.000744292,0.0978956,1,5.10775e-05,-1.3709e-05,1.82837e-05,0.0102155,-0.0027418,0.00365674,0.999405,-0.00358655,0.034301,-8.72585e-05,0.0126941,0.495421,-1.01327,35.5625,1,8585,40275764
20,1,0.999406,-0.00352593,0.0342891,-8.83971e-05,-0.712011,-0.0771981,9.78168,0.0825074,-0.48902,1.0082,-0.0071226,-0.000783996,0.0978165,1,6.13183e-05,-1.27592e-05,1.30545e-06,0.0122637,-0.00255184,0.00026109,0.999406,-0.00352593,0.0342891,-8.83971e-05,0.013624,0.497364,-1.01324,35.5625,1,8586,40275864
20,2,0.999406,-0.00352593,0.0342891,-8.83971e-05,-0.712011,-0.0771981,9.78168,0.0825074,-0.48902,1.0082,-0.0071226,-0.000783996,0.0978165,1,6.13183e-05,-1.27592e-05,1.30545e-06,0.0122637,-0.00255184,0.00026109,0.999406,-0.00352593,0.0342891,-8.83971e-05,0.013624,0.497364,-1.01324,35.5625,1,8586,40275864
20,3,0.999406,-0.00352593,0.0342891,-8.83971e-05,-0.712011,-0.0771981,9.78168,0.0825074,-0.48902,1.0082,-0.0071226,-0.000783996,0.0978165,1,6.13183e-05,-1.27592e-05,1.30545e-06,0.0122637,-0.00255184,0.00026109,0.999406,-0.00352593,0.0342891,-8.83971e-05,0.013624,0.497364,-1.01324,35.5625,1,8586,40275864
20,4,0.999407,-0.00347725,0.0342701,-8.2323e-05,-0.716309,-0.0835692,9.78505,0.084276,-0.498797,1.01276,-0.00716693,-0.000845283,0.0978501,1,4.8345e-05,-1.96733e-05,9.08206e-06,0.00966899,-0.00393467,0.00181641,0.999407,-0.00347725,0.0342701,-8.2323e-05,0.0125959,0.496938,-1.01627,35.5625,1,8587,40275964
21,1,0.999407,-0.00347725,0.0342701,-8.2323e-05,-0.716309,-0.0835692,9.78505,0.084276,-0.498797,1.01276,-0.00716693,-0.000845283,0.0978501,1,4.8345e-05,-1.96733e-05,9.08206e-06,0.00966899,-0.00393467,0.00181641,0.999407,-0.00347725,0.0342701,-8.2323e-05,0.0125959,0.496938,-1.01627,35.5625,1,8587,40275964
21,2,0.999407,-0.00347725,0.0342701,-8.2323e-05,-0.716309,-0.0835692,9.78505,0.084276,-0.498797,1.01276,-0.00716693,-0.000845283,0.0978501,1,4.8345e-05,-1.96733e-05,9.08206e-06,0.00966899,-0.00393467,0.00181641,0.999407,-0.00347725,0.0342701,-8.2323e-05,0.0125959,0.496938,-1.01627,35.5625,1,8587,40275964
21,3,0.999408,-0.00341482,0.0342477,-7.87235e-05,-0.720081,-0.0800164,9.78579,0.0794693,-0.501327,1.01528,-0.00720545,-0.000812167,0.0978574,1,6.09046e-05,-2.37955e-05,5.74464e-06,0.0121809,-0.00475911,0.00114893,0.999408,-0.00341482,0.0342477,-7.87235e-05,0.0101689,0.494564,-1.01884,35.5625,1,8588,40276064
21,4,0.999408,-0.00341482,0.0342477,-7.87235e-05,-0.720081,-0.0800164,9.78579,0.0794693,-0.501327,1.01528,-0.00720545,-0.000812167,0.0978574,1,6.09046e-05,-2.37955e-05,5.74464e-06,0.0121809,-0.00475911,0.00114893,0.999408,-0.00341482,0.0342477,-7.87235e-05,0.0101689,0.494564,-1.01884,35.5625,1,8588,40276064
154,1,0.999408,-0.00341482,0.0342477,-7.87235e-05,-0.720081,-0.0800164,9.78579,0.0794693,-0.501327,1.01528,-0.00720545,-0.000812167,0.0978574,1,6.09046e-05,-2.37955e-05,5.74464e-06,0.0121809,-0.00475911,0.00114893,0.999408,-0.00341482,0.0342477,-7.87235e-05,0.0101689,0.494564,-1.01884,35.5625,1,8588,40276064
154,2,0.999408,-0.00336607,0.0342365,-7.79408e-05,-0.720601,-0.0777914,9.7763,0.0786894,-0.493985,1.00342,-0.00720852,-0.000787369,0.0977628,1,4.82201e-05,-1.28282e-05,1.83836e-06,0.00964403,-0.00256563,0.000367671,0.999408,-0.00336607,0.0342365,-7.79408e-05,0.00930068,0.492576,-1.01635,35.5625,1,8589,40276164
154,3,0.999408,-0.00336607,0.0342365,-7.79408e-05,-0.720601,-0.0777914,9.7763,0.0786894,-0.493985,1.00342,-0.00720852,-0.000787369,0.0977628,1,4.82201e-05,-1.28282e-05,1.83836e-06,0.00964403,-0.00256563,0.000367671,0.999408,-0.00336607,0.0342365,-7.79408e-05,0.00930068,0.492576,-1.01635,35.5625,1,8589,40276164
154,4,0.999408,-0.00336607,0.0342365,-7.79408e-05,-0.720601,-0.0777914,9.7763,0.0786894,-0.493985,1.00342,-0.00720852,-0.000787369,0.0977628,1,4.82201e-05,-1.28282e-05,1.83836e-06,0.00964403,-0.00256563,0.000367671,0.999408,-0.00336607,0.0342365,-7.79408e-05,0.00930068,0.492576,-1.01635,35.5625,1,8589,40276164
154,5,0.999409,-0.00332574,0.034215,-7.54428e-05,-0.729242,-0.0845078,9.78648,0.0745122,-0.496781,1.01444,-0.00729694,-0.000853047,0.0978644,1,4.04063e-05,-2.31118e-05,4.0997e-06,0.00808126,-0.00462236,0.000819939,0.999409,-0.00332574,0.034215,-7.54428e-05,0.0103293,0.494447,-1.01227,35.5625,1,8590,40276264
154,6,0.999409,-0.00332574,0.034215,-7.54428e-05,-0.729242,-0.0845078,9.78648,0.0745122,-0.496781,1.01444,-0.00729694,-0.000853047,0.0978644,1,4.04063e-05,-2.31118e-05,4.0997e-06,0.00808126,-0.00462236,0.000819939,0.999409,-0.00332574,0.034215,-7.54428e-05,0.0103293,0.494447,-1.01227,35.5625,1,8590,40276264
154,7,0.999409,-0.00332574,0.034215,-7.54428e-05,-0.729242,-0.0845078,9.78648,0.0745122,-0.496781,1.01444,-0.00729694,-0.000853047,0.0978644,1,4.04063e-05,-2.31118e-05,4.0997e-06,0.00808126,-0.00462236,0.000819939,0.999409,-0.00332574,0.034215,-7.54428e-05,0.0103293,0.494447,-1.01227,35.5625,1,8590,40276264
154,8,0.999409,-0.0032665,0.0342066,-6.76059e-05,-0.694252,-0.0866796,9.79165,0.0986985,-0.503958,1.01877,-0.00694448,-0.000878633,0.0979162,1,5.97108e-05,-1.00526e-05,1.03266e-05,0.0119422,-0.00201053,0.00206532,0.999409,-0.0032665,0.0342066,-6.76059e-05,0.0113082,0.494909,-1.01126,35.5625,1,8591,40276364
23,1,0.999409,-0.0032665,0.0342066,-6.76059e-05,-0.694252,-0.0866796,9.79165,0.0986985,-0.503958,1.01877,-0.00694448,-0.000878633,0.0979162,1,5.97108e-05,-1.00526e-05,1.03266e-05,0.0119422,-0.00201053,0.00206532,0.999409,-0.0032665,0.0342066,-6.76059e-05,0.0113082,0.494909,-1.01126,35.5625,1,8591,40276364
23,2,0.999409,-0.0032665,0.0342066,-6.76059e-05,-0.694252,-0.0866796,9.79165,0.0986985,-0.503958,1.01877,-0.00694448,-0.000878633,0.0979162,1,5.97108e-05,-1.00526e-05,1.03266e-05,0.0119422,-0.00201053,0.00206532,0.999409,-0.0032665,0.0342066,-6.76059e-05,0.0113082,0.494909,-1.01126,35.5625,1,8591,40276364
23,3,0.99941,-0.00320999,0.034201,-6.5312e-05,-0.682035,-0.100665,9.7816,0.122541,-0.520561,1.00909,-0.00682187,-0.0010178,0.0978158,1,5.66914e-05,-7.79719e-06,3.8167e-06,0.0113383,-0.00155944,0.00076334,0.99941,-0.00320999,0.034201,-6.5312e-05,0.0126087,0.498374,-1.01472,35.5625,1,8592,40276464
23,4,0.99941,-0.00320999,0.034201,-6.5312e-05,-0.682035,-0.100665,9.7816,0.122541,-0.520561,1.00909,-0.00682187,-0.0010178,0.0978158,1,5.66914e-05,-7.79719e-06,3.8167e-06,0.0113383,-0.00155944,0.00076334,0.99941,-0.00320999,0.034201,-6.5312e-05,0.0126087,0.498374,-1.01472,35.5625,1,8592,40276464
24,1,0.99941,-0.00320999,0.034201,-6.5312e-05,-0.682035,-0.100665,9.7816,0.122541,-0.520561,1.00909,-0.00682187,-0.0010178,0.0978158,1,5.66914e-05,-7.79719e-06,3.8167e-06,0.0113383,-0.00155944,0.00076334,0.99941,-0.00320999,0.034201,-6.5312e-05,0.0126087,0.498374,-1.01472,35.5625,1,8592,40276464
24,2,0.999411,-0.0031486,0.034183,-5.73592e-05,-0.741195,-0.0908047,9.77464,0.0584797,-0.517016,0.999167,-0.00741584,-0.00092023,0.097746,1,6.15604e-05,-1.99938e-05,1.00396e-05,0.0123121,-0.00399875,0.00200792,0.999411,-0.0031486,0.034183,-5.73592e-05,0.0124891,0.497498,-1.0203,35.5625,1,8593,40276564
24,3,0.999411,-0.0031486,0.034183,-5.73592e-05,-0.741195,-0.0908047,9.77464,0.0584797,-0.517016,0.999167,-0.00741584,-0.00092023,0.097746,1,6.15604e-05,-1.99938e-05,1.00396e-05,0.0123121,-0.00399875,0.00200792,0.999411,-0.0031486,0.034183,-5.73592e-05,0.0124891,0.497498,-1.0203,35.5625,1,8593,40276564
24,4,0.999411,-0.0031486,0.034183,-5.73592e-05,-0.741195,-0.0908047,9.77464,0.0584797,-0.517016,0.999167,-0.00741584,-0.00092023,0.097746,1,6.15604e-05,-1.99938e-05,1.00396e-05,0.0123121,-0.00399875,0.00200792,0.999411,-0.0031486,0.034183,-5.73592e-05,0.0124891,0.497498,-1.0203,35.5625,1,8593,40276564
157,1,0.999411,-0.00309725,0.0341905,-4.18763e-05,-0.742532,-0.107002,9.78772,0.0559524,-0.538915,1.01648,-0.00742432,-0.00108033,0.0978772,1,5.1383e-05,4.93267e-06,1.69555e-05,0.0102766,0.000986535,0.00339111,0.999411,-0.00309725,0.0341905,-4.18763e-05,0.00914077,0.494138,-1.02187,35.5625,1,8594,40276664
157,2,0.999411,-0.00309725,0.0341905,-4.18763e-05,-0.742532,-0.107002,9.78772,0.0559524,-0.538915,1.01648,-0.00742432,-0.00108033,0.0978772,1,5.1383e-05,4.93267e-06,1.69555e-05,0.0102766,0.000986535,0.00339111,0.999411,-0.00309725,0.0341905,-4.18763e-05,0.00914077,0.494138,-1.02187,35.5625,1,8594,40276664
157,3,0.999411,-0.00309725,0.0341905,-4.18763e-05,-0.742532,-0.107002,9.78772,0.0559524,-0.538915,1.01648,-0.00742432,-0.00108033,0.0978772,1,5.1383e-05,4.93267e-06,1.69555e-05,0.0102766,0.000986535,0.00339111,0.999411,-0.00309725,0.0341905,-4.18763e-05,0.00914077,0.494138,-1.02187,35.5625,1,8594,40276664
157,4,0.999411,-0.00303841,0.0341873,-4.08715e-05,-0.766525,-0.073991,9.78613,0.0340564,-0.505746,1.01936,-0.00766638,-0.00075162,0.0978612,1,5.95748e-05,-5.79303e-06,3.26516e-06,0.011915,-0.00115861,0.000653032,0.999411,-0.00303841,0.0341873,-4.08715e-05,0.00926747,0.491637,-1.01839,35.5625,1,8595,40276764
157,5,0.999411,-0.00303841,0.0341873,-4.08715e-05,-0.766525,-0.073991,9.78613,0.0340564,-0.505746,1.01936,-0.00766638,-0.00075162,0.0978612,1,5.95748e-05,-5.79303e-06,3.26516e-06,0.011915,-0.00115861,0.000653032,0.999411,-0.00303841,0.0341873,-4.08715e-05,0.00926747,0.491637,-1.01839,35.5625,1,8595,40276764
157,6,0.999411,-0.00303841,0.0341873,-4.08715e-05,-0.766525,-0.073991,9.78613,0.0340564,-0.505746,1.01936,-0.00766638,-0.00075162,0.0978612,1,5.95748e-05,-5.79303e-06,3.26516e-06,0.011915,-0.00115861,0.000653032,0.999411,-0.00303841,0.0341873,-4.08715e-05,0.00926747,0.491637,-1.01839,35.5625,1,8595,40276764
26,1,0.999411,-0.00299503,0.0341828,-2.94892e-05,-0.780323,-0.0573013,9.7728,0.0144833,-0.481043,1.01003,-0.00780466,-0.000581637,0.0977279,1,4.30831e-05,-7.41295e-06,1.30442e-05,0.00861661,-0.00148259,0.00260884,0.999411,-0.00299503,0.0341828,-2.94892e-05,0.0103037,0.491574,-1.01537,35.5625,1,8596,40276864
26,2,0.999411,-0.00299503,0.0341828,-2.94892e-05,-0.780323,-0.0573013,9.7728,0.0144833,-0.481043,1.01003,-0.00780466,-0.000581637,0.0977279,1,4.30831e-05,-7.41295e-06,1.30442e-05,0.00861661,-0.00148259,0.00260884,0.999411,-0.00299503,0.0341828,-2.94892e-05,0.0103037,0.491574,-1.01537,35.5625,1,8596,40276864
26,3,0.999411,-0.00299503,0.0341828,-2.94892e-05,-0.780323,-0.0573013,9.7728,0.0144833,-0.481043,1.01003,-0.00780466,-0.000581637,0.0977279,1,4.30831e-05,-7.41295e-06,1.30442e-05,0.00861661,-0.00148259,0.00260884,0.999411,-0.00299503,0.0341828,-2.94892e-05,0.0103037,0.491574,-1.01537,35.5625,1,8596,40276864
26,4,0.999411,-0.00294764,0.034182,-1.71293e-05,-0.739239,-0.0875392,9.78888,0.0593469,-0.501735,1.01919,-0.00739313,-0.000885095,0.0978887,1,4.84603e-05,-3.91023e-06,1.46051e-05,0.00969207,-0.000782047,0.00292102,0.999411,-0.00294764,0.034182,-1.71293e-05,0.00937942,0.494446,-1.01177,35.5625,1,8597,40276964
27,1,0.999411,-0.00294764,0.034182,-1.71293e-05,-0.739239,-0.0875392,9.78888,0.0593469,-0.501735,1.01919,-0.00739313,-0.000885095,0.0978887,1,4.84603e-05,-3.91023e-06,1.46051e-05,0.00969207,-0.000782047,0.00292102,0.999411,-0.00294764,0.034182,-1.71293e-05,0.00937942,0.494446,-1.01177,35.5625,1,8597,40276964
27,2,0.999411,-0.00294764,0.034182,-1.71293e-05,-0.739239,-0.0875392,9.78888,0.0593469,-0.501735,1.01919,-0.00739313,-0.000885095,0.0978887,1,4.84603e-05,-3.91023e-06,1.46051e-05,0.00969207,-0.000782047,0.00292102,0.999411,-0.00294764,0.034182,-1.71293e-05,0.00937942,0.494446,-1.01177,35.5625,1,8597,40276964
27,3,0.999411,-0.00290737,0.034184,-3.47318e-06,-0.730414,-0.0878701,9.78408,0.0735349,-0.511264,1.00896,-0.00730441,-0.000886854,0.0978407,1,4.05423e-05,-1.54239e-06,1.50482e-05,0.00810847,-0.000308478,0.00300965,0.999411,-0.00290737,0.034184,-3.47318e-06,0.00928972,0.496921,-1.01373,35.5625,1,8598,40277064
27,4,0.999411,-0.00290737,0.034184,-3.47318e-06,-0.730414,-0.0878701,9.78408,0.0735349,-0.511264,1.00896,-0.00730441,-0.000886854,0.0978407,1,4.05423e-05,-1.54239e-06,1.50482e-05,0.00810847,-0.000308478,0.00300965,0.999411,-0.00290737,0.034184,-3.47318e-06,0.00928972,0.496921,-1.01373,35.5625,1,8598,40277064
28,1,0.999411,-0.00290737,0.034184,-3.47318e-06,-0.730414,-0.0878701,9.78408,0.0735349,-0.511264,1.00896,-0.00730441,-0.000886854,0.0978407,1,4.05423e-05,-1.54239e-06,1.50482e-05,0.00810847,-0.000308478,0.00300965,0.999411,-0.00290737,0.034184,-3.47318e-06,0.00928972,0.496921,-1.01373,35.5625,1,8598,40277064
28,2,0.999412,-0.00284503,0.0341833,1.6217e-05,-0.734857,-0.0739737,9.7805,0.0621838,-0.505276,1.00453,-0.00734943,-0.000752305,0.0978049,1,6.2615e-05,-4.57225e-06,2.1755e-05,0.012523,-0.000914449,0.004351,0.999412,-0.00284503,0.0341833,1.6217e-05,0.0116128,0.495997,-1.0178,35.5625,1,8599,40277164
28,3,0.999412,-0.00284503,0.0341833,1.6217e-05,-0.734857,-0.0739737,9.7805,0.0621838,-0.505276,1.00453,-0.00734943,-0.000752305,0.0978049,1,6.2615e-05,-4.57225e-06,2.1755e-05,0.012523,-0.000914449,0.004351,0.999412,-0.00284503,0.0341833,1.6217e-05,0.0116128,0.495997,-1.0178,35.5625,1,8599,40277164
28,4,0.999412,-0.00284503,0.0341833,1.6217e-05,-0.734857,-0.0739737,9.7805,0.0621838,-0.505276,1.00453,-0.00734943,-0.000752305,0.0978049,1,6.2615e-05,-4.57225e-06,2.1755e-05,0.012523,-0.000914449,0.004351,0.999412,-0.00284503,0.0341833,1.6217e-05,0.0116128,0.495997,-1.0178,35.5625,1,8599,40277164
28,5,0.999411,-0.00278943,0.0341962,2.80725e-05,-0.726134,-0.0627125,9.79613,0.077722,-0.490464,1.02168,-0.00725957,-0.000638339,0.0979613,1,5.62371e-05,8.94077e-06,1.3511e-05,0.0112474,0.00178815,0.00270219,0.999411,-0.00278943,0.0341962,2.80725e-05,0.0120645,0.494087,-1.02037,35.5625,1,8600,40277264
28,6,0.999411,-0.00278943,0.0341962,2.80725e-05,-0.726134,-0.0627125,9.79613,0.077722,-0.490464,1.02168,-0.00725957,-0.000638339,0.0979613,1,5.62371e-05,8.94077e-06,1.3511e-05,0.0112474,0.00178815,0.00270219,0.999411,-0.00278943,0.0341962,2.80725e-05,0.0120645,0.494087,-1.02037,35.5625,1,8600,40277264
162,1,0.999411,-0.00278943,0.0341962,2.80725e-05,-0.726134,-0.0627125,9.79613,0.077722,-0.490464,1.02168,-0.00725957,-0.000638339,0.0979613,1,5.62371e-05,8.94077e-06,1.3511e-05,0.0112474,0.00178815,0.00270219,0.999411,-0.00278943,0.0341962,2.80725e-05,0.0120645,0.494087,-1.02037,35.5625,1,8600,40277264
162,2,0.999412,-0.00272791,0.0341882,3.44997e-05,-0.742951,-0.0372433,9.79274,0.0665565,-0.468822,1.0243,-0.00743183,-0.000384767,0.0979271,1,6.22719e-05,-1.18969e-05,9.25375e-06,0.0124544,-0.00237937,0.00185075,0.999412,-0.00272791,0.0341882,3.44997e-05,0.0116488,0.49308,-1.01837,35.5625,1,8601,40277364
162,3,0.999412,-0.00272791,0.0341882,3.44997e-05,-0.742951,-0.0372433,9.79274,0.0665565,-0.468822,1.0243,-0.00743183,-0.000384767,0.0979271,1,6.22719e-05,-1.18969e-05,9.25375e-06,0.0124544,-0.00237937,0.00185075,0.999412,-0.00272791,0.0341882,3.44997e-05,0.0116488,0.49308,-1.01837,35.5625,1,8601,40277364
162,4,0.999412,-0.00272791,0.0341882,3.44997e-05,-0.742951,-0.0372433,9.79274,0.0665565,-0.468822,1.0243,-0.00743183,-0.000384767,0.0979271,1,6.22719e-05,-1.18969e-05,9.25375e-06,0.0124544,-0.00237937,0.00185075,0.999412,-0.00272791,0.0341882,3.44997e-05,0.0116488,0.49308,-1.01837,35.5625,1,8601,40277364
162,5,0.999412,-0.00267261,0.0341752,3.29428e-05,-0.640964,-0.00826294,9.81775,0.107839,-0.474376,1.03872,-0.00641305,-9.35329e-05,0.0981773,1,5.55069e-05,-1.73486e-05,3.44839e-07,0.0111014,-0.00346973,6.89679e-05,0.999412,-0.00267261,0.0341752,3.29428e-05,0.00978606,0.493051,-1.01584,35.5625,1,8602,40277464
162,6,0.999412,-0.00267261,0.0341752,3.29428e-05,-0.640964,-0.00826294,9.81775,0.107839,-0.474376,1.03872,-0.00641305,-9.35329e-05,0.0981773,1,5.55069e-05,-1.73486e-05,3.44839e-07,0.0111014,-0.00346973,6.89679e-05,0.999412,-0.00267261,0.0341752,3.29428e-05,0.00978606,0.493051,-1.01584,35.5625,1,8602,40277464
30,1,0.999412,-0.00267261,0.0341752,3.29428e-05,-0.640964,-0.00826294,9.81775,0.107839,-0.474376,1.03872,-0.00641305,-9.35329e-05,0.0981773,1,5.55069e-05,-1.73486e-05,3.44839e-07,0.0111014,-0.00346973,6.89679e-05,0.999412,-0.00267261,0.0341752,3.29428e-05,0.00978606,0.493051,-1.01584,35.5625,1,8602,40277464
30,2,0.999412,-0.00261751,0.0341858,3.44233e-05,-0.740784,-0.123192,9.77367,0.0199017,-0.599767,0.99902,-0.0074066,-0.00124285,0.0977367,1,5.56391e-05,6.31103e-06,3.21088e-06,0.0111278,0.00126221,0.000642176,0.999412,-0.00261751,0.0341858,3.44233e-05,0.01028,0.494483,-1.01429,35.5625,1,8603,40277564
30,3,0.999412,-0.00261751,0.0341858,3.44233e-05,-0.740784,-0.123192,9.77367,0.0199017,-0.599767,0.99902,-0.0074066,-0.00124285,0.0977367,1,5.56391e-05,6.31103e-06,3.21088e-06,0.0111278,0.00126221,0.000642176,0.999412,-0.00261751,0.0341858,3.44233e-05,0.01028,0.494483,-1.01429,35.5625,1,8603,40277564
30,4,0.999412,-0.00261751,0.0341858,3.44233e-05,-0.740784,-0.123192,9.77367,0.0199017,-0.599767,0.99902,-0.0074066,-0.00124285,0.0977367,1,5.56391e-05,6.31103e-06,3.21088e-06,0.0111278,0.00126221,0.000642176,0.999412,-0.00261751,0.0341858,3.44233e-05,0.01028,0.494483,-1.01429,35.5625,1,8603,40277564
31,1,0.999411,-0.00258976,0.0342063,5.85282e-05,-0.835282,-0.0285616,9.75815,-0.00769134,-0.470177,1.00065,-0.00834972,-0.000291442,0.0975818,1,2.76585e-05,1.57745e-05,2.56226e-05,0.0055317,0.0031549,0.00512451,0.999411,-0.00258976,0.0342063,5.85282e-05,0.0116626,0.497407,-1.01474,35.5625,1,8604,40277664
31,2,0.999411,-0.00258976,0.0342063,5.85282e-05,-0.835282,-0.0285616,9.75815,-0.00769134,-0.470177,1.00065,-0.00834972,-0.000291442,0.0975818,1,2.76585e-05,1.57745e-05,2.56226e-05,0.0055317,0.0031549,0.00512451,0.999411,-0.00258976,0.0342063,5.85282e-05,0.0116626,0.497407,-1.01474,35.5625,1,8604,40277664
31,3,0.999411,-0.00258976,0.0342063,5.85282e-05,-0.835282,-0.0285616,9.75815,-0.00769134,-0.470177,1.00065,-0.00834972,-0.000291442,0.0975818,1,2.76585e-05,1.57745e-05,2.56226e-05,0.0055317,0.0031549,0.00512451,0.999411,-0.00258976,0.0342063,5.85282e-05,0.0116626,0.497407,-1.01474,35.5625,1,8604,40277664
31,4,0.999412,-0.00255272,0.0341915,5.70315e-05,-0.770648,-0.0846916,9.79695,0.0403055,-0.539359,1.0298,-0.0077104,-0.000854315,0.0979691,1,3.77632e-05,-2.00293e-05,-3.19033e-08,0.00755263,-0.00400586,-6.38065e-06,0.999412,-0.00255272,0.0341915,5.70315e-05,0.0125427,0.497941,-1.01776,35.5625,1,8605,40277764
32,1,0.999412,-0.00255272,0.0341915,5.70315e-05,-0.770648,-0.0846916,9.79695,0.0403055,-0.539359,1.0298,-0.0077104,-0.000854315,0.0979691,1,3.77632e-05,-2.00293e-05,-3.19033e-08,0.00755263,-0.00400586,-6.38065e-06,0.999412,-0.00255272,0.0341915,5.70315e-05,0.0125427,0.497941,-1.01776,35.5625,1,8605,40277764
32,2,0.999412,-0.00255272,0.0341915,5.70315e-05,-0.770648,-0.0846916,9.79695,0.0403055,-0.539359,1.0298,-0.0077104,-0.000854315,0.0979691,1,3.77632e-05,-2.00293e-05,-3.19033e-08,0.00755263,-0.00400586,-6.38065e-06,0.999412,-0.00255272,0.0341915,5.70315e-05,0.0125427,0.497941,-1.01776,35.5625,1,8605,40277764
32,3,0.999412,-0.00250052,0.0341818,5.00832e-05,-0.664132,-0.0797622,9.82441,0.138621,-0.511987,1.05209,-0.00664434,-0.000808075,0.0982438,1,5.3538e-05,-1.52981e-05,-5.01608e-06,0.0107076,-0.00305961,-0.00100322,0.999412,-0.00250052,0.0341818,5.00832e-05,0.01107,0.496047,-1.02032,35.5625,1,8606,40277864
32,4,0.999412,-0.00250052,0.0341818,5.00832e-05,-0.664132,-0.0797622,9.82441,0.138621,-0.511987,1.05209,-0.00664434,-0.000808075,0.0982438,1,5.3538e-05,-1.52981e-05,-5.01608e-06,0.0107076,-0.00305961,-0.00100322,0.999412,-0.00250052,0.0341818,5.00832e-05,0.01107,0.496047,-1.02032,35.5625,1,8606,40277864
32,5,0.999412,-0.00250052,0.0341818,5.00832e-05,-0.664132,-0.0797622,9.82441,0.138621,-0.511987,1.05209,-0.00664434,-0.000808075,0.0982438,1,5.3538e-05,-1.52981e-05,-5.01608e-06,0.0107076,-0.00305961,-0.00100322,0.999412,-0.00250052,0.0341818,5.00832e-05,0.01107,0.496047,-1.02032,35.5625,1,8606,40277864
32,6,0.999413,-0.00246871,0.0341706,4.62288e-05,-0.703393,-0.078291,9.75211,0.0982802,-0.506503,0.977551,-0.00703724,-0.00078921,0.0975208,1,3.24714e-05,-1.69893e-05,-2.33021e-06,0.00649429,-0.00339785,-0.000466043,0.999413,-0.00246871,0.0341706,4.62288e-05,0.0111843,0.493554,-1.01735,35.5625,1,8607,40277964
33,1,0.999413,-0.00246871,0.0341706,4.62288e-05,-0.703393,-0.078291,9.75211,0.0982802,-0.506503,0.977551,-0.00703724,-0.00078921,0.0975208,1,3.24714e-05,-1.69893e-05,-2.33021e-06,0.00649429,-0.00339785,-0.000466043,0.999413,-0.00246871,0.0341706,4.62288e-05,0.0111843,0.493554,-1.01735,35.5625,1,8607,40277964
33,2,0.999413,-0.00246871,0.0341706,4.62288e-05,-0.703393,-0.078291,9.75211,0.0982802,-0.506503,0.977551,-0.00703724,-0.00078921,0.0975208,1,3.24714e-05,-1.69893e-05,-2.33021e-06,0.00649429,-0.00339785,-0.000466043,0.999413,-0.00246871,0.0341706,4.62288e-05,0.0111843,0.493554,-1.01735,35.5625,1,8607,40277964
33,3,0.999413,-0.00243499,0.0341746,5.15213e-05,-0.747928,-0.0893676,9.76451,0.0431114,-0.498236,0.994306,-0.0074796,-0.000900498,0.097645,1,3.44273e-05,-1.6953e-06,6.56216e-06,0.00688546,-0.00033906,0.00131243,0.999413,-0.00243499,0.0341746,5.15213e-05,0.00978652,0.494496,-1.0148,35.5625,1,8608,40278064
33,4,0.999413,-0.00243499,0.0341746,5.15213e-05,-0.747928,-0.0893676,9.76451,0.0431114,-0.498236,0.994306,-0.0074796,-0.000900498,0.097645,1,3.44273e-05,-1.6953e-06,6.56216e-06,0.00688546,-0.00033906,0.00131243,0.999413,-0.00243499,0.0341746,5.15213e-05,0.00978652,0.494496,-1.0148,35.5625,1,8608,40278064
34,1,0.999413,-0.00238305,0.0341614,6.25829e-05,-0.706034,-0.0992842,9.7862,0.0906001,-0.510978,1.01193,-0.00706403,-0.00100339,0.0978616,1,5.29251e-05,-1.90309e-05,1.31706e-05,0.010585,-0.00380618,0.00263412,0.999413,-0.00238305,0.0341614,6.25829e-05,0.0103008,0.495432,-1.01276,35.5625,1,8609,40278164
34,2,0.999413,-0.00238305,0.0341614,6.25829e-05,-0.706034,-0.0992842,9.7862,0.0906001,-0.510978,1.01193,-0.00706403,-0.00100339,0.0978616,1,5.29251e-05,-1.90309e-05,1.31706e-05,0.010585,-0.00380618,0.00263412,0.999413,-0.00238305,0.0341614,6.25829e-05,0.0103008,0.495432,-1.01276,35.5625,1,8609,40278164
34,3,0.999413,-0.00238305,0.0341614,6.25829e-05,-0.706034,-0.0992842,9.7862,0.0906001,-0.510978,1.01193,-0.00706403,-0.00100339,0.0978616,1,5.29251e-05,-1.90309e-05,1.31706e-05,0.010585,-0.00380618,0.00263412,0.999413,-0.00238305,0.0341614,6.25829e-05,0.0103008,0.495432,-1.01276,35.5625,1,8609,40278164
34,4,0.999414,-0.0023382,0.0341455,6.62119e-05,-0.688721,-0.082446,9.78793,0.110724,-0.498688,1.00732,-0.00689149,-0.000833645,0.0978789,1,4.65216e-05,-2.19381e-05,5.71061e-06,0.00930431,-0.00438762,0.00114212,0.999414,-0.0023382,0.0341455,6.62119e-05,0.0121641,0.496906,-1.01425,35.5625,1,8610,40278264
170,1,0.999414,-0.0023382,0.0341455,6.62119e-05,-0.688721,-0.082446,9.78793,0.110724,-0.498688,1.00732,-0.00689149,-0.000833645,0.0978789,1,4.65216e-05,-2.19381e-05,5.71061e-06,0.00930431,-0.00438762,0.00114212,0.999414,-0.0023382,0.0341455,6.62119e-05,0.0121641,0.496906,-1.01425,35.5625,1,8610,40278264
170,2,0.999414,-0.0023382,0.0341455,6.62119e-05,-0.688721,-0.082446,9.78793,0.110724,-0.498688,1.00732,-0.00689149,-0.000833645,0.0978789,1,4.65216e-05,-2.19381e-05,5.71061e-06,0.00930431,-0.00438762,0.00114212,0.999414,-0.0023382,0.0341455,6.62119e-05,0.0121641,0.496906,-1.01425,35.5625,1,8610,40278264
170,3,0.999415,-0.00228623,0.0341321,8.10948e-05,-0.65034,-0.0843906,9.79239,0.141952,-0.502897,1.00798,-0.00650721,-0.000854591,0.0979236,1,5.34449e-05,-1.9608e-05,1.67359e-05,0.010689,-0.0039216,0.00334719,0.999415,-0.00228623,0.0341321,8.10948e-05,0.0130196,0.497458,-1.01828,35.5625,1,8611,40278364
170,4,0.999415,-0.00228623,0.0341321,8.10948e-05,-0.65034,-0.0843906,9.79239,0.141952,-0.502897,1.00798,-0.00650721,-0.000854591,0.0979236,1,5.34449e-05,-1.9608e-05,1.67359e-05,0.010689,-0.0039216,0.00334719,0.999415,-0.00228623,0.0341321,8.10948e-05,0.0130196,0.497458,-1.01828,35.5625,1,8611,40278364
170,5,0.999415,-0.00228623,0.0341321,8.10948e-05,-0.65034,-0.0843906,9.79239,0.141952,-0.502897,1.00798,-0.00650721,-0.000854591,0.0979236,1,5.34449e-05,-1.9608e-05,1.67359e-05,0.010689,-0.0039216,0.00334719,0.999415,-0.00228623,0.0341321,8.10948e-05,0.0130196,0.497458,-1.01828,35.5625,1,8611,40278364
170,6,0.999415,-0.00222551,0.0341258,9.33282e-05,-0.659274,-0.0890662,9.78053,0.137477,-0.526168,1.0015,-0.00659516,-0.00090303,0.0978051,1,6.22626e-05,-1.24967e-05,1.43107e-05,0.0124525,-0.00249935,0.00286215,0.999415,-0.00222551,0.0341258,9.33282e-05,0.0115264,0.496061,-1.02134,35.5625,1,8612,40278464
36,1,0.999415,-0.00222551,0.0341258,9.33282e-05,-0.659274,-0.0890662,9.78053,0.137477,-0.526168,1.0015,-0.00659516,-0.00090303,0.0978051,1,6.22626e-05,-1.24967e-05,1.43107e-05,0.0124525,-0.00249935,0.00286215,0.999415,-0.00222551,0.0341258,9.33282e-05,0.0115264,0.496061,-1.02134,35.5625,1,8612,40278464
36,2,0.999415,-0.00222551,0.0341258,9.33282e-05,-0.659274,-0.0890662,9.78053,0.137477,-0.526168,1.0015,-0.00659516,-0.00090303,0.0978051,1,6.22626e-05,-1.24967e-05,1.43107e-05,0.0124525,-0.00249935,0.00286215,0.999415,-0.00222551,0.0341258,9.33282e-05,0.0115264,0.496061,-1.02134,35.5625,1,8612,40278464
36,3,0.999415,-0.00217832,0.0341294,9.4528e-05,-0.669205,-0.0862042,9.78537,0.119058,-0.524745,1.01206,-0.00669255,-0.000871808,0.0978536,1,4.96395e-05,-2.57209e-06,3.77916e-06,0.0099279,-0.000514417,0.000755832,0.999415,-0.00217832,0.0341294,9.4528e-05,0.0121015,0.49406,-1.01886,35.5625,1,8613,40278564
36,4,0.999415,-0.00217832,0.0341294,9.4528e-05,-0.669205,-0.0862042,9.78537,0.119058,-0.524745,1.01206,-0.00669255,-0.000871808,0.0978536,1,4.96395e-05,-2.57209e-06,3.77916e-06,0.0099279,-0.000514417,0.000755832,0.999415,-0.00217832,0.0341294,9.4528e-05,0.0121015,0.49406,-1.01886,35.5625,1,8613,40278564
36,5,0.999415,-0.00217832,0.0341294,9.4528e-05,-0.669205,-0.0862042,9.78537,0.119058,-0.524745,1.01206,-0.00669255,-0.000871808,0.0978536,1,4.96395e-05,-2.57209e-06,3.77916e-06,0.0099279,-0.000514417,0.000755832,0.999415,-0.00217832,0.0341294,9.4528e-05,0.0121015,0.49406,-1.01886,35.5625,1,8613,40278564
36,6,0.999415,-0.00213274,0.0341372,9.438e-05,-0.658259,-0.0907176,9.79239,0.14041,-0.529304,1.01689,-0.0065822,-0.000916613,0.0979238,1,4.80227e-05,1.94651e-06,2.41938e-06,0.00960454,0.000389302,0.000483877,0.999415,-0.00213274,0.0341372,9.438e-05,0.0112707,0.49349,-1.01382,35.5625,1,8614,40278664
37,1,0.999415,-0.00213274,0.0341372,9.438e-05,-0.658259,-0.0907176,9.79239,0.14041,-0.529304,1.01689,-0.0065822,-0.000916613,0.0979238,1,4.80227e-05,1.94651e-06,2.41938e-06,0.00960454,0.000389302,0.000483877,0.999415,-0.00213274,0.0341372,9.438e-05,0.0112707,0.49349,-1.01382,35.5625,1,8614,40278664
37,2,0.999415,-0.00213274,0.0341372,9.438e-05,-0.658259,-0.0907176,9.79239,0.14041,-0.529304,1.01689,-0.0065822,-0.000916613,0.0979238,1,4.80227e-05,1.94651e-06,2.41938e-06,0.00960454,0.000389302,0.000483877,0.999415,-0.00213274,0.0341372,9.438e-05,0.0112707,0.49349,-1.01382,35.5625,1,8614,40278664
37,3,0.999415,-0.00209817,0.0341423,0.000106506,-0.664782,-0.0904813,9.79242,0.137781,-0.52578,1.00652,-0.00664788,-0.00091215,0.0979242,1,3.64686e-05,-4.56128e-07,1.46405e-05,0.00729372,-9.12256e-05,0.0029281,0.999415,-0.00209817,0.0341423,0.000106506,0.0113366,0.493924,-1.01078,35.5625,1,8615,40278764
37,4,0.999415,-0.00209817,0.0341423,0.000106506,-0.664782,-0.0904813,9.79242,0.137781,-0.52578,1.00652,-0.00664788,-0.00091215,0.0979242,1,3.64686e-05,-4.56128e-07,1.46405e-05,0.00729372,-9.12256e-05,0.0029281,0.999415,-0.00209817,0.0341423,0.000106506,0.0113366,0.493924,-1.01078,35.5625,1,8615,40278764
38,1,0.999415,-0.00209817,0.0341423,0.000106506,-0.664782,-0.0904813,9.79242,0.137781,-0.52578,1.00652,-0.00664788,-0.00091215,0.0979242,1,3.64686e-05,-4.56128e-07,1.46405e-05,0.00729372,-9.12256e-05,0.0029281,0.999415,-0.00209817,0.0341423,0.000106506,0.0113366,0.493924,-1.01078,35.5625,1,8615,40278764
38,2,0.999414,-0.00204792,0.0341597,0.000105364,-0.592212,-0.0682488,9.76464,0.221987,-0.531767,1.00969,-0.0059198,-0.000692924,0.0976465,1,5.33293e-05,1.18579e-05,1.796e-06,0.0106659,0.00237158,0.0003592,0.999414,-0.00204792,0.0341597,0.000105364,0.0122049,0.495912,-1.01326,35.5625,1,8616,40278864
38,3,0.999414,-0.00204792,0.0341597,0.000105364,-0.592212,-0.0682488,9.76464,0.221987,-0.531767,1.00969,-0.0059198,-0.000692924,0.0976465,1,5.33293e-05,1.18579e-05,1.796e-06,0.0106659,0.00237158,0.0003592,0.999414,-0.00204792,0.0341597,0.000105364,0.0122049,0.495912,-1.01326,35.5625,1,8616,40278864
38,4,0.999414,-0.00204792,0.0341597,0.000105364,-0.592212,-0.0682488,9.76464,0.221987,-0.531767,1.00969,-0.0059198,-0.000692924,0.0976465,1,5.33293e-05,1.18579e-05,1.796e-06,0.0106659,0.00237158,0.0003592,0.999414,-0.00204792,0.0341597,0.000105364,0.0122049,0.495912,-1.01326,35.5625,1,8616,40278864
39,1,0.999414,-0.00199687,0.0341708,0.000113922,-0.71719,-0.106533,9.79569,0.111771,-0.569691,1.02049,-0.00717079,-0.00107604,0.0979569,1,5.38751e-05,5.53231e-06,1.06484e-05,0.010775,0.00110646,0.00212967,0.999414,-0.00199687,0.0341708,0.000113922,0.0120573,0.497466,-1.01828,35.5625,1,8617,40278964
39,2,0.999414,-0.00199687,0.0341708,0.000113922,-0.71719,-0.106533,9.79569,0.111771,-0.569691,1.02049,-0.00717079,-0.00107604,0.0979569,1,5.38751e-05,5.53231e-06,1.06484e-05,0.010775,0.00110646,0.00212967,0.999414,-0.00199687,0.0341708,0.000113922,0.0120573,0.497466,-1.01828,35.5625,1,8617,40278964
39,3,0.999414,-0.00199687,0.0341708,0.000113922,-0.71719,-0.106533,9.79569,0.111771,-0.569691,1.02049,-0.00717079,-0.00107604,0.0979569,1,5.38751e-05,5.53231e-06,1.06484e-05,0.010775,0.00110646,0.00212967,0.999414,-0.00199687,0.0341708,0.000113922,0.0120573,0.497466,-1.01828,35.5625,1,8617,40278964
39,4,0.999414,-0.00194237,0.0341694,0.000119214,-0.770272,-0.101643,9.80797,0.0336197,-0.528228,1.01808,-0.00770425,-0.00102798,0.0980795,1,5.83865e-05,-7.8476e-06,6.37249e-06,0.0116773,-0.00156952,0.0012745,0.999414,-0.00194237,0.0341694,0.000119214,0.011078,0.495559,-1.02033,35.5625,1,8618,40279064
40,1,0.999414,-0.00194237,0.0341694,0.000119214,-0.770272,-0.101643,9.80797,0.0336197,-0.528228,1.01808,-0.00770425,-0.00102798,0.0980795,1,5.83865e-05,-7.8476e-06,6.37249e-06,0.0116773,-0.00156952,0.0012745,0.999414,-0.00194237,0.0341694,0.000119214,0.011078,0.495559,-1.02033,35.5625,1,8618,40279064
40,2,0.999414,-0.00194237,0.0341694,0.000119214,-0.770272,-0.101643,9.80797,0.0336197,-0.528228,1.01808,-0.00770425,-0.00102798,0.0980795,1,5.83865e-05,-7.8476e-06,6.37249e-06,0.0116773,-0.00156952,0.0012745,0.999414,-0.00194237,0.0341694,0.000119214,0.011078,0.495559,-1.02033,35.5625,1,8618,40279064
40,3,0.999414,-0.00189419,0.0341645,0.000112589,-0.772998,-0.0821879,9.75933,0.0173334,-0.50621,0.979826,-0.00773237,-0.000832081,0.097593,1,5.26402e-05,-1.22004e-05,-4.69049e-06,0.010528,-0.00244007,-0.000938099,0.999414,-0.00189419,0.0341645,0.000112589,0.00973245,0.492608,-1.01837,35.5625,1,8619,40279164
40,4,0.999414,-0.00189419,0.0341645,0.000112589,-0.772998,-0.0821879,9.75933,0.0173334,-0.50621,0.979826,-0.00773237,-0.000832081,0.097593,1,5.26402e-05,-1.22004e-05,-4.69049e-06,0.010528,-0.00244007,-0.000938099,0.999414,-0.00189419,0.0341645,0.000112589,0.00973245,0.492608,-1.01837,35.5625,1,8619,40279164
40,5,0.999414,-0.00189419,0.0341645,0.000112589,-0.772998,-0.0821879,9.75933,0.0173334,-0.50621,0.979826,-0.00773237,-0.000832081,0.097593,1,5.26402e-05,-1.22004e-05,-4.69049e-06,0.010528,-0.00244007,-0.000938099,0.999414,-0.00189419,0.0341645,0.000112589,0.00973245,0.492608,-1.01837,35.5625,1,8619,40279164
40,6,0.999415,-0.00184821,0.0341462,0.000114919,-0.726137,-0.0731841,9.78284,0.0536552,-0.505992,1.01648,-0.00726627,-0.0007416,0.097828,1,4.95037e-05,-2.50786e-05,5.02831e-06,0.00990075,-0.00501572,0.00100566,0.999415,-0.00184821,0.0341462,0.000114919,0.0098354,0.493015,-1.01382,35.5625,1,8620,40279264
41,1,0.999415,-0.00184821,0.0341462,0.000114919,-0.726137,-0.0731841,9.78284,0.0536552,-0.505992,1.01648,-0.00726627,-0.0007416,0.097828,1,4.95037e-05,-2.50786e-05,5.02831e-06,0.00990075,-0.00501572,0.00100566,0.999415,-0.00184821,0.0341462,0.000114919,0.0098354,0.493015,-1.01382,35.5625,1,8620,40279264
41,2,0.999415,-0.00184821,0.0341462,0.000114919,-0.726137,-0.0731841,9.78284,0.0536552,-0.505992,1.01648,-0.00726627,-0.0007416,0.097828,1,4.95037e-05,-2.50786e-05,5.02831e-06,0.00990075,-0.00501572,0.00100566,0.999415,-0.00184821,0.0341462,0.000114919,0.0098354,0.493015,-1.01382,35.5625,1,8620,40279264
41,3,0.999415,-0.0017949,0.0341494,0.000123163,-0.691875,-0.0628614,9.78504,0.115934,-0.505916,1.01524,-0.00691909,-0.000639707,0.0978503,1,5.56987e-05,-1.85516e-06,1.39195e-05,0.0111397,-0.000371032,0.0027839,0.999415,-0.0017949,0.0341494,0.000123163,0.0108185,0.493955,-1.01229,35.5625,1,8621,40279364
41,4,0.999415,-0.0017949,0.0341494,0.000123163,-0.691875,-0.0628614,9.78504,0.115934,-0.505916,1.01524,-0.00691909,-0.000639707,0.0978503,1,5.56987e-05,-1.85516e-06,1.39195e-05,0.0111397,-0.000371032,0.0027839,0.999415,-0.0017949,0.0341494,0.000123163,0.0108185,0.493955,-1.01229,35.5625,1,8621,40279364
42,1,0.999415,-0.0017949,0.0341494,0.000123163,-0.691875,-0.0628614,9.78504,0.115934,-0.505916,1.01524,-0.00691909,-0.000639707,0.0978503,1,5.56987e-05,-1.85516e-06,1.39195e-05,0.0111397,-0.000371032,0.0027839,0.999415,-0.0017949,0.0341494,0.000123163,0.0108185,0.493955,-1.01229,35.5625,1,8621,40279364
42,2,0.999415,-0.00176268,0.0341521,0.000122336,-0.752128,-0.0973675,9.78007,0.0388104,-0.536194,1.00183,-0.00752177,-0.00098075,0.0978006,1,3.58857e-05,-2.56494e-06,3.69172e-06,0.00717715,-0.000512989,0.000738344,0.999415,-0.00176268,0.0341521,0.000122336,0.0111933,0.495956,-1.01528,35.5625,1,8622,40279464
42,3,0.999415,-0.00176268,0.0341521,0.000122336,-0.752128,-0.0973675,9.78007,0.0388104,-0.536194,1.00183,-0.00752177,-0.00098075,0.0978006,1,3.58857e-05,-2.56494e-06,3.69172e-06,0.00717715,-0.000512989,0.000738344,0.999415,-0.00176268,0.0341521,0.000122336,0.0111933,0.495956,-1.01528,35.5625,1,8622,40279464
42,4,0.999415,-0.00176268,0.0341521,0.000122336,-0.752128,-0.0973675,9.78007,0.0388104,-0.536194,1.00183,-0.00752177,-0.00098075,0.0978006,1,3.58857e-05,-2.56494e-06,3.69172e-06,0.00717715,-0.000512989,0.000738344,0.999415,-0.00176268,0.0341521,0.000122336,0.0111933,0.495956,-1.01528,35.5625,1,8622,40279464
43,1,0.999415,-0.00170372,0.0341527,0.000133555,-0.703535,-0.0885276,9.79067,0.0852998,-0.53319,1.00997,-0.00703671,-0.000897932,0.0979064,1,6.36893e-05,-7.04634e-06,1.31358e-05,0.0127379,-0.00140927,0.00262716,0.999415,-0.00170372,0.0341527,0.000133555,0.0130518,0.495507,-1.01832,35.5625,1,8623,40279564
43,2,0.999415,-0.00170372,0.0341527,0.000133555,-0.703535,-0.0885276,9.79067,0.0852998,-0.53319,1.00997,-0.00703671,-0.000897932,0.0979064,1,6.36893e-05,-7.04634e-06,1.31358e-05,0.0127379,-0.00140927,0.00262716,0.999415,-0.00170372,0.0341527,0.000133555,0.0130518,0.495507,-1.01832,35.5625,1,8623,40279564
43,3,0.999415,-0.00170372,0.0341527,0.000133555,-0.703535,-0.0885276,9.79067,0.0852998,-0.53319,1.00997,-0.00703671,-0.000897932,0.0979064,1,6.36893e-05,-7.04634e-06,1.31358e-05,0.0127379,-0.00140927,0.00262716,0.999415,-0.00170372,0.0341527,0.000133555,0.0130518,0.495507,-1.01832,35.5625,1,8623,40279564
43,4,0.999416,-0.00166403,0.0341417,0.000138229,-0.68967,-0.064509,9.78502,0.105348,-0.506621,1.00849,-0.0069007,-0.00065419,0.0978499,1,4.61209e-05,-2.04985e-05,5.38141e-06,0.00922418,-0.0040997,0.00107628,0.999416,-0.00166403,0.0341417,0.000138229,0.0124967,0.495565,-1.02135,35.5625,1,8624,40279664
44,1,0.999416,-0.00166403,0.0341417,0.000138229,-0.68967,-0.064509,9.78502,0.105348,-0.506621,1.00849,-0.0069007,-0.00065419,0.0978499,1,4.61209e-05,-2.04985e-05,5.38141e-06,0.00922418,-0.0040997,0.00107628,0.999416,-0.00166403,0.0341417,0.000138229,0.0124967,0.495565,-1.02135,35.5625,1,8624,40279664
44,2,0.999416,-0.00166403,0.0341417,0.000138229,-0.68967,-0.064509,9.78502,0.105348,-0.506621,1.00849,-0.0069007,-0.00065419,0.0978499,1,4.61209e-05,-2.04985e-05,5.38141e-06,0.00922418,-0.0040997,0.00107628,0.999416,-0.00166403,0.0341417,0.000138229,0.0124967,0.495565,-1.02135,35.5625,1,8624,40279664
44,3,0.999416,-0.00161965,0.0341359,0.000152095,-0.752724,-0.0890249,9.78998,0.0436291,-0.541176,1.0166,-0.0075306,-0.000900628,0.0978995,1,5.20497e-05,-1.72331e-05,1.24502e-05,0.0104099,-0.00344662,0.00249005,0.999416,-0.00161965,0.0341359,0.000152095,0.0115834,0.494091,-1.02037,35.5625,1,8625,40279764
44,4,0.999416,-0.00161965,0.0341359,0.000152095,-0.752724,-0.0890249,9.78998,0.0436291,-0.541176,1.0166,-0.0075306,-0.000900628,0.0978995,1,5.20497e-05,-1.72331e-05,1.24502e-05,0.0104099,-0.00344662,0.00249005,0.999416,-0.00161965,0.0341359,0.000152095,0.0115834,0.494091,-1.02037,35.5625,1,8625,40279764
45,1,0.999416,-0.00161965,0.0341359,0.000152095,-0.752724,-0.0890249,9.78998,0.0436291,-0.541176,1.0166,-0.0075306,-0.000900628,0.0978995,1,5.20497e-05,-1.72331e-05,1.24502e-05,0.0104099,-0.00344662,0.00249005,0.999416,-0.00161965,0.0341359,0.000152095,0.0115834,0.494091,-1.02037,35.5625,1,8625,40279764
45,2,0.999416,-0.00158536,0.0341363,0.000161221,-0.731918,-0.0680579,9.78425,0.0561916,-0.519266,1.00805,-0.00732113,-0.000688738,0.0978423,1,4.09409e-05,-1.00268e-05,1.00752e-05,0.00818817,-0.00200536,0.00201504,0.999416,-0.00158536,0.0341363,0.000161221,0.00931301,0.492567,-1.01585,35.5625,1,8626,40279864
45,3,0.999416,-0.00158536,0.0341363,0.000161221,-0.731918,-0.0680579,9.78425,0.0561916,-0.519266,1.00805,-0.00732113,-0.000688738,0.0978423,1,4.09409e-05,-1.00268e-05,1.00752e-05,0.00818817,-0.00200536,0.00201504,0.999416,-0.00158536,0.0341363,0.000161221,0.00931301,0.492567,-1.01585,35.5625,1,8626,40279864
45,4,0.999416,-0.00158536,0.0341363,0.000161221,-0.731918,-0.0680579,9.78425,0.0561916,-0.519266,1.00805,-0.00732113,-0.000688738,0.0978423,1,4.09409e-05,-1.00268e-05,1.00752e-05,0.00818817,-0.00200536,0.00201504,0.999416,-0.00158536,0.0341363,0.000161221,0.00931301,0.492567,-1.01585,35.5625,1,8626,40279864
46,1,0.999416,-0.00153878,0.0341308,0.000158653,-0.693803,-0.0638946,9.78437,0.0977082,-0.509429,1.0091,-0.00694001,-0.000648681,0.0978435,1,4.92688e-05,-1.01217e-05,6.75198e-06,0.00985377,-0.00202434,0.0013504,0.999416,-0.00153878,0.0341308,0.000158653,0.00939982,0.493949,-1.01127,35.5625,1,8627,40279964
46,2,0.999416,-0.00153878,0.0341308,0.000158653,-0.693803,-0.0638946,9.78437,0.0977082,-0.509429,1.0091,-0.00694001,-0.000648681,0.0978435,1,4.92688e-05,-1.01217e-05,6.75198e-06,0.00985377,-0.00202434,0.0013504,0.999416,-0.00153878,0.0341308,0.000158653,0.00939982,0.493949,-1.01127,35.5625,1,8627,40279964
46,3,0.999416,-0.00153878,0.0341308,0.000158653,-0.693803,-0.0638946,9.78437,0.0977082,-0.509429,1.0091,-0.00694001,-0.000648681,0.0978435,1,4.92688e-05,-1.01217e-05,6.75198e-06,0.00985377,-0.00202434,0.0013504,0.999416,-0.00153878,0.0341308,0.000158653,0.00939982,0.493949,-1.01127,35.5625,1,8627,40279964
46,4,0.999417,-0.0015044,0.0341213,0.000152979,-0.733847,-0.0723304,9.78526,0.0660489,-0.519747,1.01179,-0.00734064,-0.00073021,0.0978524,1,3.50829e-05,-1.1146e-05,2.72119e-06,0.00701659,-0.00222919,0.000544238,0.999417,-0.0015044,0.0341213,0.000152979,0.0116626,0.497407,-1.01474,35.5625,1,8628,40280064
47,1,0.999417,-0.0015044,0.0341213,0.000152979,-0.733847,-0.0723304,9.78526,0.0660489,-0.519747,1.01179,-0.00734064,-0.00073021,0.0978524,1,3.50829e-05,-1.1146e-05,2.72119e-06,0.00701659,-0.00222919,0.000544238,0.999417,-0.0015044,0.0341213,0.000152979,0.0116626,0.497407,-1.01474,35.5625,1,8628,40280064
47,2,0.999417,-0.0015044,0.0341213,0.000152979,-0.733847,-0.0723304,9.78526,0.0660489,-0.519747,1.01179,-0.00734064,-0.00073021,0.0978524,1,3.50829e-05,-1.1146e-05,2.72119e-06,0.00701659,-0.00222919,0.000544238,0.999417,-0.0015044,0.0341213,0.000152979,0.0116626,0.497407,-1.01474,35.5625,1,8628,40280064
47,3,0.999417,-0.00144585,0.0341164,0.000148996,-0.740432,-0.0732789,9.77816,0.0558718,-0.529604,1.0036,-0.00740657,-0.000745265,0.0977813,1,6.37937e-05,-1.15111e-05,1.71661e-08,0.0127588,-0.00230222,3.43323e-06,0.999417,-0.00144585,0.0341164,0.000148996,0.0135168,0.496478,-1.01831,35.5625,1,8629,40280164
47,4,0.999417,-0.00144585,0.0341164,0.000148996,-0.740432,-0.0732789,9.77816,0.0558718,-0.529604,1.0036,-0.00740657,-0.000745265,0.0977813,1,6.37937e-05,-1.15111e-05,1.71661e-08,0.0127588,-0.00230222,3.43323e-06,0.999417,-0.00144585,0.0341164,0.000148996,0.0135168,0.496478,-1.01831,35.5625,1,8629,40280164
48,1,0.999417,-0.00144585,0.0341164,0.000148996,-0.740432,-0.0732789,9.77816,0.0558718,-0.529604,1.0036,-0.00740657,-0.000745265,0.0977813,1,6.37937e-05,-1.15111e-05,1.71661e-08,0.0127588,-0.00230222,3.43323e-06,0.999417,-0.00144585,0.0341164,0.000148996,0.0135168,0.496478,-1.01831,35.5625,1,8629,40280164
48,2,0.999417,-0.0014084,0.0341093,0.000147384,-0.747122,-0.0598964,9.78613,0.0505498,-0.520081,1.01161,-0.00747481,-0.000608114,0.097861,1,4.66834e-05,-1.83546e-05,8.36252e-07,0.00933669,-0.00367092,0.00016725,0.999417,-0.0014084,0.0341093,0.000147384,0.0111227,0.493599,-1.01987,35.5625,1,8630,40280264
48,3,0.999417,-0.0014084,0.0341093,0.000147384,-0.747122,-0.0598964,9.78613,0.0505498,-0.520081,1.01161,-0.00747481,-0.000608114,0.097861,1,4.66834e-05,-1.83546e-05,8.36252e-07,0.00933669,-0.00367092,0.00016725,0.999417,-0.0014084,0.0341093,0.000147384,0.0111227,0.493599,-1.01987,35.5625,1,8630,40280264
48,4,0.999417,-0.0014084,0.0341093,0.000147384,-0.747122,-0.0598964,9.78613,0.0505498,-0.520081,1.01161,-0.00747481,-0.000608114,0.097861,1,4.66834e-05,-1.83546e-05,8.36252e-07,0.00933669,-0.00367092,0.00016725,0.999417,-0.0014084,0.0341093,0.000147384,0.0111227,0.493599,-1.01987,35.5625,1,8630,40280264
49,1,0.999417,-0.00137033,0.0341082,0.000147059,-0.750939,-0.066655,9.77897,0.0368216,-0.534811,1.01034,-0.0075122,-0.000675657,0.0977895,1,4.65605e-05,-1.43779e-05,4.86311e-08,0.00931209,-0.00287559,9.72623e-06,0.999417,-0.00137033,0.0341082,0.000147059,0.00974052,0.49212,-1.01838,35.5625,1,8631,40280364
49,2,0.999417,-0.00137033,0.0341082,0.000147059,-0.750939,-0.066655,9.77897,0.0368216,-0.534811,1.01034,-0.0075122,-0.000675657,0.0977895,1,4.65605e-05,-1.43779e-05,4.86311e-08,0.00931209,-0.00287559,9.72623e-06,0.999417,-0.00137033,0.0341082,0.000147059,0.00974052,0.49212,-1.01838,35.5625,1,8631,40280364
49,3,0.999417,-0.00137033,0.0341082,0.000147059,-0.750939,-0.066655,9.77897,0.0368216,-0.534811,1.01034,-0.0075122,-0.000675657,0.0977895,1,4.65605e-05,-1.43779e-05,4.86311e-08,0.00931209,-0.00287559,9.72623e-06,0.999417,-0.00137033,0.0341082,0.000147059,0.00974052,0.49212,-1.01838,35.5625,1,8631,40280364
49,4,0.999417,-0.00132032,0.0341059,0.000146848,-0.741748,-0.0724705,9.78496,0.0542424,-0.538274,1.01003,-0.00742003,-0.000735538,0.0978493,1,5.51008e-05,-1.30404e-05,3.38667e-06,0.0110201,-0.00260808,0.000677335,0.999417,-0.00132032,0.0341059,0.000146848,0.0107606,0.493034,-1.01534,35.5625,1,8632,40280464
50,1,0.999417,-0.00132032,0.0341059,0.000146848,-0.741748,-0.0724705,9.78496,0.0542424,-0.538274,1.01003,-0.00742003,-0.000735538,0.0978493,1,5.51008e-05,-1.30404e-05,3.38667e-06,0.0110201,-0.00260808,0.000677335,0.999417,-0.00132032,0.0341059,0.000146848,0.0107606,0.493034,-1.01534,35.5625,1,8632,40280464
50,2,0.999417,-0.00132032,0.0341059,0.000146848,-0.741748,-0.0724705,9.78496,0.0542424,-0.538274,1.01003,-0.00742003,-0.000735538,0.0978493,1,5.51008e-05,-1.30404e-05,3.38667e-06,0.0110201,-0.00260808,0.000677335,0.999417,-0.00132032,0.0341059,0.000146848,0.0107606,0.493034,-1.01534,35.5625,1,8632,40280464
50,3,0.999418,-0.00127275,0.0340958,0.000138426,-0.731532,-0.0682,9.77646,0.0624746,-0.535608,1.00115,-0.00731867,-0.000692022,0.0977643,1,5.11333e-05,-1.71122e-05,1.6374e-06,0.0102267,-0.00342244,0.000327479,0.999418,-0.00127275,0.0340958,0.000138426,0.0121883,0.495443,-1.01428,35.5625,1,8633,40280564
50,4,0.999418,-0.00127275,0.0340958,0.000138426,-0.731532,-0.0682,9.77646,0.0624746,-0.535608,1.00115,-0.00731867,-0.000692022,0.0977643,1,5.11333e-05,-1.71122e-05,1.6374e-06,0.0102267,-0.00342244,0.000327479,0.999418,-0.00127275,0.0340958,0.000138426,0.0121883,0.495443,-1.01428,35.5625,1,8633,40280564
51,1,0.999418,-0.00127275,0.0340958,0.000138426,-0.731532,-0.0682,9.77646,0.0624746,-0.535608,1.00115,-0.00731867,-0.000692022,0.0977643,1,5.11333e-05,-1.71122e-05,1.6374e-06,0.0102267,-0.00342244,0.000327479,0.999418,-0.00127275,0.0340958,0.000138426,0.0121883,0.495443,-1.01428,35.5625,1,8633,40280564
51,2,0.999418,-0.00122412,0.0340895,0.000132912,-0.71725,-0.070125,9.78041,0.081949,-0.541805,1.01002,-0.00717494,-0.000711943,0.0978038,1,5.44581e-05,-1.24855e-05,2.80893e-06,0.0108916,-0.0024971,0.000561786,0.999418,-0.00122412,0.0340895,0.000132912,0.0120739,0.497936,-1.01726,35.5625,1,8634,40280664
51,3,0.999418,-0.00122412,0.0340895,0.000132912,-0.71725,-0.070125,9.78041,0.081949,-0.541805,1.01002,-0.00717494,-0.000711943,0.0978038,1,5.44581e-05,-1.24855e-05,2.80893e-06,0.0108916,-0.0024971,0.000561786,0.999418,-0.00122412,0.0340895,0.000132912,0.0120739,0.497936,-1.01726,35.5625,1,8634,40280664
51,4,0.999418,-0.00122412,0.0340895,0.000132912,-0.71725,-0.070125,9.78041,0.081949,-0.541805,1.01002,-0.00717494,-0.000711943,0.0978038,1,5.44581e-05,-1.24855e-05,2.80893e-06,0.0108916,-0.0024971,0.000561786,0.999418,-0.00122412,0.0340895,0.000132912,0.0120739,0.497936,-1.01726,35.5625,1,8634,40280664
52,1,0.999418,-0.00118479,0.0340816,0.000142308,-0.723514,-0.0856542,9.78236,0.0745823,-0.554288,1.01059,-0.0072387,-0.000866423,0.0978233,1,5.00847e-05,-1.82686e-05,5.65316e-06,0.0100169,-0.00365372,0.00113063,0.999418,-0.00118479,0.0340816,0.000142308,0.0125095,0.497001,-1.0198,35.5625,1,8635,40280764
52,2,0.999418,-0.00118479,0.0340816,0.000142308,-0.723514,-0.0856542,9.78236,0.0745823,-0.554288,1.01059,-0.0072387,-0.000866423,0.0978233,1,5.00847e-05,-1.82686e-05,5.65316e-06,0.0100169,-0.00365372,0.00113063,0.999418,-0.00118479,0.0340816,0.000142308,0.0125095,0.497001,-1.0198,35.5625,1,8635,40280764
52,3,0.999418,-0.00118479,0.0340816,0.000142308,-0.723514,-0.0856542,9.78236,0.0745823,-0.554288,1.01059,-0.0072387,-0.000866423,0.0978233,1,5.00847e-05,-1.82686e-05,5.65316e-06,0.0100169,-0.00365372,0.00113063,0.999418,-0.00118479,0.0340816,0.000142308,0.0125095,0.497001,-1.0198,35.5625,1,8635,40280764
52,4,0.999418,-0.00113229,0.034081,0.000158159,-0.712433,-0.0670276,9.78448,0.0809366,-0.542928,1.00746,-0.00712745,-0.000683153,0.0978445,1,6.50492e-05,-1.60206e-05,1.03617e-05,0.0130098,-0.00320413,0.00207235,0.999418,-0.00113229,0.034081,0.000158159,0.0120441,0.494584,-1.02087,35.5625,1,8636,40280864
53,1,0.999418,-0.00113229,0.034081,0.000158159,-0.712433,-0.0670276,9.78448,0.0809366,-0.542928,1.00746,-0.00712745,-0.000683153,0.0978445,1,6.50492e-05,-1.60206e-05,1.03617e-05,0.0130098,-0.00320413,0.00207235,0.999418,-0.00113229,0.034081,0.000158159,0.0120441,0.494584,-1.02087,35.5625,1,8636,40280864
53,2,0.999418,-0.00113229,0.034081,0.000158159,-0.712433,-0.0670276,9.78448,0.0809366,-0.542928,1.00746,-0.00712745,-0.000683153,0.0978445,1,6.50492e-05,-1.60206e-05,1.03617e-05,0.0130098,-0.00320413,0.00207235,0.999418,-0.00113229,0.034081,0.000158159,0.0120441,0.494584,-1.02087,35.5625,1,8636,40280864
53,3,0.999418,-0.00108187,0.0340911,0.000168547,-0.724291,-0.083247,9.78679,0.0729163,-0.556312,1.01148,-0.00724444,-0.000844892,0.0978677,1,6.27227e-05,-7.92707e-06,1.00193e-05,0.0125446,-0.00158541,0.00200385,0.999418,-0.00108187,0.0340911,0.000168547,0.0112085,0.49209,-1.01738,35.5625,1,8637,40280964
53,4,0.999418,-0.00108187,0.0340911,0.000168547,-0.724291,-0.083247,9.78679,0.0729163,-0.556312,1.01148,-0.00724444,-0.000844892,0.0978677,1,6.27227e-05,-7.92707e-06,1.00193e-05,0.0125446,-0.00158541,0.00200385,0.999418,-0.00108187,0.0340911,0.000168547,0.0112085,0.49209,-1.01738,35.5625,1,8637,40280964
54,1,0.999418,-0.00108187,0.0340911,0.000168547,-0.724291,-0.083247,9.78679,0.0729163,-0.556312,1.01148,-0.00724444,-0.000844892,0.0978677,1,6.27227e-05,-7.92707e-06,1.00193e-05,0.0125446,-0.00158541,0.00200385,0.999418,-0.00108187,0.0340911,0.000168547,0.0112085,0.49209,-1.01738,35.5625,1,8637,40280964
54,2,0.999418,-0.00103651,0.0340808,0.000150496,-0.714407,-0.0807315,9.77285,0.0809281,-0.546276,1.00035,-0.0071479,-0.000817083,0.0977281,1,5.00231e-05,-1.96249e-05,-6.57568e-07,0.0100046,-0.00392499,-0.000131514,0.999418,-0.00103651,0.0340808,0.000150496,0.00935855,0.493497,-1.0133,35.5625,1,8638,40281064
54,3,0.999418,-0.00103651,0.0340808,0.000150496,-0.714407,-0.0807315,9.77285,0.0809281,-0.546276,1.00035,-0.0071479,-0.000817083,0.0977281,1,5.00231e-05,-1.96249e-05,-6.57568e-07,0.0100046,-0.00392499,-0.000131514,0.999418,-0.00103651,0.0340808,0.000150496,0.00935855,0.493497,-1.0133,35.5625,1,8638,40281064
54,4,0.999418,-0.00103651,0.0340808,0.000150496,-0.714407,-0.0807315,9.77285,0.0809281,-0.546276,1.00035,-0.0071479,-0.000817083,0.0977281,1,5.00231e-05,-1.96249e-05,-6.57568e-07,0.0100046,-0.00392499,-0.000131514,0.999418,-0.00103651,0.0340808,0.000150496,0.00935855,0.493497,-1.0133,35.5625,1,8638,40281064
54,5,0.999419,-0.000985306,0.0340655,0.000141211,-0.733036,-0.0796582,9.794,0.0612024,-0.55469,1.01893,-0.00733342,-0.000806342,0.0979397,1,4.97103e-05,-1.5663e-05,1.58154e-06,0.00994205,-0.0031326,0.000316308,0.999419,-0.000985306,0.0340655,0.000141211,0.00982779,0.494948,-1.01277,35.5625,1,8639,40281164
54,6,0.999419,-0.000985306,0.0340655,0.000141211,-0.733036,-0.0796582,9.794,0.0612024,-0.55469,1.01893,-0.00733342,-0.000806342,0.0979397,1,4.97103e-05,-1.5663e-05,1.58154e-06,0.00994205,-0.0031326,0.000316308,0.999419,-0.000985306,0.0340655,0.000141211,0.00982779,0.494948,-1.01277,35.5625,1,8639,40281164
55,1,0.999419,-0.000985306,0.0340655,0.000141211,-0.733036,-0.0796582,9.794,0.0612024,-0.55469,1.01893,-0.00733342,-0.000806342,0.0979397,1,4.97103e-05,-1.5663e-05,1.58154e-06,0.00994205,-0.0031326,0.000316308,0.999419,-0.000985306,0.0340655,0.000141211,0.00982779,0.494948,-1.01277,35.5625,1,8639,40281164
55,2,0.999419,-0.000939065,0.0340591,0.00015866,-0.717054,-0.0832311,9.7881,0.0792992,-0.558217,1.01317,-0.00717248,-0.000842035,0.0978808,1,4.79147e-05,-1.01165e-05,2.39646e-05,0.00958294,-0.0020233,0.00479291,0.999419,-0.000939065,0.0340591,0.00015866,0.0106429,0.497938,-1.01674,35.5625,1,8640,40281264
55,3,0.999419,-0.000939065,0.0340591,0.00015866,-0.717054,-0.0832311,9.7881,0.0792992,-0.558217,1.01317,-0.00717248,-0.000842035,0.0978808,1,4.79147e-05,-1.01165e-05,2.39646e-05,0.00958294,-0.0020233,0.00479291,0.999419,-0.000939065,0.0340591,0.00015866,0.0106429,0.497938,-1.01674,35.5625,1,8640,40281264
55,4,0.999419,-0.000939065,0.0340591,0.00015866,-0.717054,-0.0832311,9.7881,0.0792992,-0.558217,1.01317,-0.00717248,-0.000842035,0.0978808,1,4.79147e-05,-1.01165e-05,2.39646e-05,0.00958294,-0.0020233,0.00479291,0.999419,-0.000939065,0.0340591,0.00015866,0.0106429,0.497938,-1.01674,35.5625,1,8640,40281264
56,1,0.99942,-0.000900917,0.0340543,0.000186192,-0.717261,-0.0722373,9.77497,0.0765149,-0.546204,0.997508,-0.00717566,-0.000732189,0.0977494,1,4.85666e-05,-1.57708e-05,2.23724e-05,0.00971332,-0.00315416,0.00447447,0.99942,-0.000900917,0.0340543,0.000186192,0.0115639,0.497479,-1.01878,35.5625,1,8641,40281364
56,2,0.99942,-0.000900917,0.0340543,0.000186192,-0.717261,-0.0722373,9.77497,0.0765149,-0.546204,0.997508,-0.00717566,-0.000732189,0.0977494,1,4.85666e-05,-1.57708e-05,2.23724e-05,0.00971332,-0.00315416,0.00447447,0.99942,-0.000900917,0.0340543,0.000186192,0.0115639,0.497479,-1.01878,35.5625,1,8641,40281364
56,3,0.99942,-0.000900917,0.0340543,0.000186192,-0.717261,-0.0722373,9.77497,0.0765149,-0.546204,0.997508,-0.00717566,-0.000732189,0.0977494,1,4.85666e-05,-1.57708e-05,2.23724e-05,0.00971332,-0.00315416,0.00447447,0.99942,-0.000900917,0.0340543,0.000186192,0.0115639,0.497479,-1.01878,35.5625,1,8641,40281364
56,4,0.99942,-0.000866345,0.0340543,0.000200493,-0.715658,-0.0842588,9.79453,0.0804321,-0.55382,1.01723,-0.00715958,-0.000852053,0.097945,1,4.76893e-05,-1.53799e-05,8.61867e-06,0.00953785,-0.00307598,0.00172373,0.99942,-0.000866345,0.0340543,0.000200493,0.0115919,0.495049,-1.01934,35.5625,1,8642,40281464
207,1,0.99942,-0.000866345,0.0340543,0.000200493,-0.715658,-0.0842588,9.79453,0.0804321,-0.55382,1.01723,-0.00715958,-0.000852053,0.097945,1,4.76893e-05,-1.53799e-05,8.61867e-06,0.00953785,-0.00307598,0.00172373,0.99942,-0.000866345,0.0340543,0.000200493,0.0115919,0.495049,-1.01934,35.5625,1,8642,40281464
207,2,0.99942,-0.000866345,0.0340543,0.000200493,-0.715658,-0.0842588,9.79453,0.0804321,-0.55382,1.01723,-0.00715958,-0.000852053,0.097945,1,4.76893e-05,-1.53799e-05,8.61867e-06,0.00953785,-0.00307598,0.00172373,0.99942,-0.000866345,0.0340543,0.000200493,0.0115919,0.495049,-1.01934,35.5625,1,8642,40281464
207,3,0.999419,-0.000830862,0.0340615,0.000204968,-0.694329,-0.0759465,9.79208,0.101112,-0.549814,1.01156,-0.00694507,-0.00076887,0.0979206,1,4.75328e-05,-9.14949e-06,6.93817e-06,0.00950656,-0.0018299,0.00138763,0.999419,-0.000830862,0.0340615,0.000204968,0.0102302,0.493074,-1.01736,35.5625,1,8643,40281564
207,4,0.999419,-0.000830862,0.0340615,0.000204968,-0.694329,-0.0759465,9.79208,0.101112,-0.549814,1.01156,-0.00694507,-0.00076887,0.0979206,1,4.75328e-05,-9.14949e-06,6.93817e-06,0.00950656,-0.0018299,0.00138763,0.999419,-0.000830862,0.0340615,0.000204968,0.0102302,0.493074,-1.01736,35.5625,1,8643,40281564
207,5,0.999419,-0.000830862,0.0340615,0.000204968,-0.694329,-0.0759465,9.79208,0.101112,-0.549814,1.01156,-0.00694507,-0.00076887,0.0979206,1,4.75328e-05,-9.14949e-06,6.93817e-06,0.00950656,-0.0018299,0.00138763,0.999419,-0.000830862,0.0340615,0.000204968,0.0102302,0.493074,-1.01736,35.5625,1,8643,40281564
207,6,0.99942,-0.00079793,0.0340588,0.000219229,-0.710558,-0.0878192,9.787,0.0834768,-0.558573,1.01155,-0.00710834,-0.000886332,0.0978697,1,3.97582e-05,-1.43163e-05,2.51773e-05,0.00795164,-0.00286326,0.00503545,0.99942,-0.00079793,0.0340588,0.000219229,0.0103165,0.493011,-1.01382,35.5625,1,8644,40281664
208,1,0.99942,-0.00079793,0.0340588,0.000219229,-0.710558,-0.0878192,9.787,0.0834768,-0.558573,1.01155,-0.00710834,-0.000886332,0.0978697,1,3.97582e-05,-1.43163e-05,2.51773e-05,0.00795164,-0.00286326,0.00503545,0.99942,-0.00079793,0.0340588,0.000219229,0.0103165,0.493011,-1.01382,35.5625,1,8644,40281664
208,2,0.99942,-0.00079793,0.0340588,0.000219229,-0.710558,-0.0878192,9.787,0.0834768,-0.558573,1.01155,-0.00710834,-0.000886332,0.0978697,1,3.97582e-05,-1.43163e-05,2.51773e-05,0.00795164,-0.00286326,0.00503545,0.99942,-0.00079793,0.0340588,0.000219229,0.0103165,0.493011,-1.01382,35.5625,1,8644,40281664
208,3,0.99942,-0.000754628,0.034047,0.000206805,-0.695331,-0.0834762,9.78219,0.100102,-0.55531,1.0013,-0.00695678,-0.000843989,0.0978215,1,4.68641e-05,-1.782e-05,4.18895e-06,0.00937283,-0.00356401,0.000837791,0.99942,-0.000754628,0.034047,0.000206805,0.0122661,0.494422,-1.01178,35.5625,1,8645,40281764
208,4,0.99942,-0.000754628,0.034047,0.000206805,-0.695331,-0.0834762,9.78219,0.100102,-0.55531,1.0013,-0.00695678,-0.000843989,0.0978215,1,4.68641e-05,-1.782e-05,4.18895e-06,0.00937283,-0.00356401,0.000837791,0.99942,-0.000754628,0.034047,0.000206805,0.0122661,0.494422,-1.01178,35.5625,1,8645,40281764
208,5,0.99942,-0.000754628,0.034047,0.000206805,-0.695331,-0.0834762,9.78219,0.100102,-0.55531,1.0013,-0.00695678,-0.000843989,0.0978215,1,4.68641e-05,-1.782e-05,4.18895e-06,0.00937283,-0.00356401,0.000837791,0.99942,-0.000754628,0.034047,0.000206805,0.0122661,0.494422,-1.01178,35.5625,1,8645,40281764
208,6,0.99942,-0.000700115,0.0340431,0.000193438,-0.706151,-0.0868729,9.79003,0.0903431,-0.563696,1.01716,-0.00706356,-0.000880698,0.0979,1,6.0793e-05,-1.05073e-05,4.61165e-06,0.0121586,-0.00210145,0.000922331,0.99942,-0.000700115,0.0340431,0.000193438,0.0121603,0.497872,-1.01372,35.5625,1,8646,40281864
209,1,0.99942,-0.000700115,0.0340431,0.000193438,-0.706151,-0.0868729,9.79003,0.0903431,-0.563696,1.01716,-0.00706356,-0.000880698,0.0979,1,6.0793e-05,-1.05073e-05,4.61165e-06,0.0121586,-0.00210145,0.000922331,0.99942,-0.000700115,0.0340431,0.000193438,0.0121603,0.497872,-1.01372,35.5625,1,8646,40281864
209,2,0.99942,-0.000700115,0.0340431,0.000193438,-0.706151,-0.0868729,9.79003,0.0903431,-0.563696,1.01716,-0.00706356,-0.000880698,0.0979,1,6.0793e-05,-1.05073e-05,4.61165e-06,0.0121586,-0.00210145,0.000922331,0.99942,-0.000700115,0.0340431,0.000193438,0.0121603,0.497872,-1.01372,35.5625,1,8646,40281864
209,3,0.99942,-0.00065417,0.0340413,0.000204092,-0.71614,-0.0776556,9.78339,0.0830345,-0.554877,1.00261,-0.00716363,-0.000788,0.0978336,1,5.72317e-05,-1.1559e-05,1.71326e-05,0.0114463,-0.00231181,0.00342653,0.99942,-0.00065417,0.0340413,0.000204092,0.0110828,0.497483,-1.01878,35.5625,1,8647,40281964
209,4,0.99942,-0.00065417,0.0340413,0.000204092,-0.71614,-0.0776556,9.78339,0.0830345,-0.554877,1.00261,-0.00716363,-0.000788,0.0978336,1,5.72317e-05,-1.1559e-05,1.71326e-05,0.0114463,-0.00231181,0.00342653,0.99942,-0.00065417,0.0340413,0.000204092,0.0110828,0.497483,-1.01878,35.5625,1,8647,40281964
209,5,0.99942,-0.00065417,0.0340413,0.000204092,-0.71614,-0.0776556,9.78339,0.0830345,-0.554877,1.00261,-0.00716363,-0.000788,0.0978336,1,5.72317e-05,-1.1559e-05,1.71326e-05,0.0114463,-0.00231181,0.00342653,0.99942,-0.00065417,0.0340413,0.000204092,0.0110828,0.497483,-1.01878,35.5625,1,8647,40281964
209,6,0.99942,-0.000629841,0.0340575,0.000211985,-0.727219,-0.0727201,9.77672,0.0713001,-0.551656,1.00104,-0.00727205,-0.000734932,0.0977672,1,3.92217e-05,6.75951e-07,4.25607e-06,0.00784435,0.00013519,0.000851214,0.99942,-0.000629841,0.0340575,0.000211985,0.00962234,0.49558,-1.02083,35.5625,1,8648,40282064
209,7,0.99942,-0.000629841,0.0340575,0.000211985,-0.727219,-0.0727201,9.77672,0.0713001,-0.551656,1.00104,-0.00727205,-0.000734932,0.0977672,1,3.92217e-05,6.75951e-07,4.25607e-06,0.00784435,0.00013519,0.000851214,0.99942,-0.000629841,0.0340575,0.000211985,0.00962234,0.49558,-1.02083,35.5625,1,8648,40282064
209,8,0.99942,-0.000629841,0.0340575,0.000211985,-0.727219,-0.0727201,9.77672,0.0713001,-0.551656,1.00104,-0.00727205,-0.000734932,0.0977672,1,3.92217e-05,6.75951e-07,4.25607e-06,0.00784435,0.00013519,0.000851214,0.99942,-0.000629841,0.0340575,0.000211985,0.00962234,0.49558,-1.02083,35.5625,1,8648,40282064
210,1,0.999419,-0.000573926,0.034065,0.000228539,-0.714726,-0.0788834,9.78541,0.0797531,-0.561418,1.00904,-0.00714921,-0.000802772,0.0978539,1,7.03429e-05,-1.00709e-05,1.20286e-05,0.0140686,-0.00201417,0.00240572,0.999419,-0.000573926,0.034065,0.000228539,0.010736,0.493052,-1.01635,35.5625,1,8649,40282164
210,2,0.999419,-0.000573926,0.034065,0.000228539,-0.714726,-0.0788834,9.78541,0.0797531,-0.561418,1.00904,-0.00714921,-0.000802772,0.0978539,1,7.03429e-05,-1.00709e-05,1.20286e-05,0.0140686,-0.00201417,0.00240572,0.999419,-0.000573926,0.034065,0.000228539,0.010736,0.493052,-1.01635,35.5625,1,8649,40282164
210,3,0.999419,-0.000573926,0.034065,0.000228539,-0.714726,-0.0788834,9.78541,0.0797531,-0.561418,1.00904,-0.00714921,-0.000802772,0.0978539,1,7.03429e-05,-1.00709e-05,1.20286e-05,0.0140686,-0.00201417,0.00240572,0.999419,-0.000573926,0.034065,0.000228539,0.010736,0.493052,-1.01635,35.5625,1,8649,40282164
210,4,0.999419,-0.000534102,0.0340691,0.000227821,-0.717444,-0.0734027,9.7926,0.0810227,-0.557447,1.01649,-0.00717588,-0.000743675,0.0979258,1,4.82426e-05,-7.48041e-06,1.39063e-05,0.00964852,-0.00149608,0.00278126,0.999419,-0.000534102,0.0340691,0.000227821,0.0093785,0.491555,-1.01385,35.5625,1,8650,40282264
210,5,0.999419,-0.000534102,0.0340691,0.000227821,-0.717444,-0.0734027,9.7926,0.0810227,-0.557447,1.01649,-0.00717588,-0.000743675,0.0979258,1,4.82426e-05,-7.48041e-06,1.39063e-05,0.00964852,-0.00149608,0.00278126,0.999419,-0.000534102,0.0340691,0.000227821,0.0093785,0.491555,-1.01385,35.5625,1,8650,40282264
210,6,0.999419,-0.000534102,0.0340691,0.000227821,-0.717444,-0.0734027,9.7926,0.0810227,-0.557447,1.01649,-0.00717588,-0.000743675,0.0979258,1,4.82426e-05,-7.48041e-06,1.39063e-05,0.00964852,-0.00149608,0.00278126,0.999419,-0.000534102,0.0340691,0.000227821,0.0093785,0.491555,-1.01385,35.5625,1,8650,40282264
61,1,0.999419,-0.000487451,0.0340658,0.00023116,-0.725066,-0.0729168,9.78112,0.073106,-0.556277,1.00563,-0.00725326,-0.000739708,0.0978109,1,5.2683e-05,-1.34426e-05,1.61513e-05,0.0105366,-0.00268851,0.00323026,0.999419,-0.000487451,0.0340658,0.00023116,0.0108185,0.493955,-1.01229,35.5625,1,8651,40282364
61,2,0.999419,-0.000487451,0.0340658,0.00023116,-0.725066,-0.0729168,9.78112,0.073106,-0.556277,1.00563,-0.00725326,-0.000739708,0.0978109,1,5.2683e-05,-1.34426e-05,1.61513e-05,0.0105366,-0.00268851,0.00323026,0.999419,-0.000487451,0.0340658,0.00023116,0.0108185,0.493955,-1.01229,35.5625,1,8651,40282364
61,3,0.999419,-0.000487451,0.0340658,0.00023116,-0.725066,-0.0729168,9.78112,0.073106,-0.556277,1.00563,-0.00725326,-0.000739708,0.0978109,1,5.2683e-05,-1.34426e-05,1.61513e-05,0.0105366,-0.00268851,0.00323026,0.999419,-0.000487451,0.0340658,0.00023116,0.0108185,0.493955,-1.01229,35.5625,1,8651,40282364
61,4,0.99942,-0.000450479,0.0340553,0.000223185,-0.717482,-0.0757218,9.78444,0.0756239,-0.558822,1.0053,-0.00717888,-0.000766303,0.097844,1,4.62421e-05,-2.07907e-05,2.52792e-06,0.00924843,-0.00415813,0.000505584,0.99942,-0.000450479,0.0340553,0.000223185,0.0116749,0.497398,-1.01424,35.5625,1,8652,40282464
212,1,0.99942,-0.000450479,0.0340553,0.000223185,-0.717482,-0.0757218,9.78444,0.0756239,-0.558822,1.0053,-0.00717888,-0.000766303,0.097844,1,4.62421e-05,-2.07907e-05,2.52792e-06,0.00924843,-0.00415813,0.000505584,0.99942,-0.000450479,0.0340553,0.000223185,0.0116749,0.497398,-1.01424,35.5625,1,8652,40282464
212,2,0.99942,-0.000450479,0.0340553,0.000223185,-0.717482,-0.0757218,9.78444,0.0756239,-0.558822,1.0053,-0.00717888,-0.000766303,0.097844,1,4.62421e-05,-2.07907e-05,2.52792e-06,0.00924843,-0.00415813,0.000505584,0.99942,-0.000450479,0.0340553,0.000223185,0.0116749,0.497398,-1.01424,35.5625,1,8652,40282464
212,3,0.99942,-0.000413406,0.0340592,0.000229147,-0.704207,-0.0800071,9.78668,0.0892318,-0.567647,1.0077,-0.00704381,-0.000810182,0.0978666,1,5.08745e-05,-8.99267e-06,1.08667e-05,0.0101749,-0.00179853,0.00217333,0.99942,-0.000413406,0.0340592,0.000229147,0.0116009,0.497452,-1.01726,35.5625,1,8653,40282564
212,4,0.99942,-0.000413406,0.0340592,0.000229147,-0.704207,-0.0800071,9.78668,0.0892318,-0.567647,1.0077,-0.00704381,-0.000810182,0.0978666,1,5.08745e-05,-8.99267e-06,1.08667e-05,0.0101749,-0.00179853,0.00217333,0.99942,-0.000413406,0.0340592,0.000229147,0.0116009,0.497452,-1.01726,35.5625,1,8653,40282564
212,5,0.99942,-0.000413406,0.0340592,0.000229147,-0.704207,-0.0800071,9.78668,0.0892318,-0.567647,1.0077,-0.00704381,-0.000810182,0.0978666,1,5.08745e-05,-8.99267e-06,1.08667e-05,0.0101749,-0.00179853,0.00217333,0.99942,-0.000413406,0.0340592,0.000229147,0.0116009,0.497452,-1.01726,35.5625,1,8653,40282564
212,6,0.999419,-0.000378109,0.0340668,0.000233528,-0.711198,-0.0666769,9.78108,0.0820746,-0.554872,1.00083,-0.00711357,-0.000676889,0.0978106,1,5.13457e-05,-8.15645e-06,5.37942e-06,0.0102691,-0.00163129,0.00107588,0.999419,-0.000378109,0.0340668,0.000233528,0.0120526,0.495542,-1.01983,35.5625,1,8654,40282664
213,1,0.999419,-0.000378109,0.0340668,0.000233528,-0.711198,-0.0666769,9.78108,0.0820746,-0.554872,1.00083,-0.00711357,-0.000676889,0.0978106,1,5.13457e-05,-8.15645e-06,5.37942e-06,0.0102691,-0.00163129,0.00107588,0.999419,-0.000378109,0.0340668,0.000233528,0.0120526,0.495542,-1.01983,35.5625,1,8654,40282664
213,2,0.999419,-0.000378109,0.0340668,0.000233528,-0.711198,-0.0666769,9.78108,0.0820746,-0.554872,1.00083,-0.00711357,-0.000676889,0.0978106,1,5.13457e-05,-8.15645e-06,5.37942e-06,0.0102691,-0.00163129,0.00107588,0.999419,-0.000378109,0.0340668,0.000233528,0.0120526,0.495542,-1.01983,35.5625,1,8654,40282664
213,3,0.99942,-0.000350373,0.0340635,0.000235097,-0.702772,-0.0774051,9.78535,0.0894448,-0.563745,1.01003,-0.00703185,-0.000782751,0.0978531,1,4.41596e-05,-2.11428e-05,4.16103e-06,0.00883192,-0.00422857,0.000832205,0.99942,-0.000350373,0.0340635,0.000235097,0.0106415,0.493603,-1.01987,35.5625,1,8655,40282764
213,4,0.99942,-0.000350373,0.0340635,0.000235097,-0.702772,-0.0774051,9.78535,0.0894448,-0.563745,1.01003,-0.00703185,-0.000782751,0.0978531,1,4.41596e-05,-2.11428e-05,4.16103e-06,0.00883192,-0.00422857,0.000832205,0.99942,-0.000350373,0.0340635,0.000235097,0.0106415,0.493603,-1.01987,35.5625,1,8655,40282764
213,5,0.99942,-0.000350373,0.0340635,0.000235097,-0.702772,-0.0774051,9.78535,0.0894448,-0.563745,1.01003,-0.00703185,-0.000782751,0.0978531,1,4.41596e-05,-2.11428e-05,4.16103e-06,0.00883192,-0.00422857,0.000832205,0.99942,-0.000350373,0.0340635,0.000235097,0.0106415,0.493603,-1.01987,35.5625,1,8655,40282764
213,6,0.99942,-0.000318027,0.0340583,0.000227503,-0.718345,-0.07948,9.78374,0.0838945,-0.566146,1.0073,-0.00718774,-0.000803953,0.0978371,1,4.70373e-05,-2.19029e-05,-3.54109e-06,0.00940746,-0.00438059,-0.000708217,0.99942,-0.000318027,0.0340583,0.000227503,0.00881195,0.494513,-1.0153,35.5625,1,8656,40282864
214,1,0.99942,-0.000318027,0.0340583,0.000227503,-0.718345,-0.07948,9.78374,0.0838945,-0.566146,1.0073,-0.00718774,-0.000803953,0.0978371,1,4.70373e-05,-2.19029e-05,-3.54109e-06,0.00940746,-0.00438059,-0.000708217,0.99942,-0.000318027,0.0340583,0.000227503,0.00881195,0.494513,-1.0153,35.5625,1,8656,40282864
214,2,0.99942,-0.000318027,0.0340583,0.000227503,-0.718345,-0.07948,9.78374,0.0838945,-0.566146,1.0073,-0.00718774,-0.000803953,0.0978371,1,4.70373e-05,-2.19029e-05,-3.54109e-06,0.00940746,-0.00438059,-0.000708217,0.99942,-0.000318027,0.0340583,0.000227503,0.00881195,0.494513,-1.0153,35.5625,1,8656,40282864
214,3,0.99942,-0.000280593,0.0340649,0.000232272,-0.722975,-0.0751429,9.78821,0.0705259,-0.565732,1.01279,-0.00723057,-0.000760748,0.0978819,1,4.69089e-05,-4.22452e-06,9.36894e-06,0.00938178,-0.000844905,0.00187379,0.99942,-0.000280593,0.0340649,0.000232272,0.0107696,0.495437,-1.01327,35.5625,1,8657,40282964
214,4,0.99942,-0.000280593,0.0340649,0.000232272,-0.722975,-0.0751429,9.78821,0.0705259,-0.565732,1.01279,-0.00723057,-0.000760748,0.0978819,1,4.69089e-05,-4.22452e-06,9.36894e-06,0.00938178,-0.000844905,0.00187379,0.99942,-0.000280593,0.0340649,0.000232272,0.0107696,0.495437,-1.01327,35.5625,1,8657,40282964
214,5,0.99942,-0.000280593,0.0340649,0.000232272,-0.722975,-0.0751429,9.78821,0.0705259,-0.565732,1.01279,-0.00723057,-0.000760748,0.0978819,1,4.69089e-05,-4.22452e-06,9.36894e-06,0.00938178,-0.000844905,0.00187379,0.99942,-0.000280593,0.0340649,0.000232272,0.0107696,0.495437,-1.01327,35.5625,1,8657,40282964
214,6,0.99942,-0.000242181,0.0340588,0.000232938,-0.715678,-0.0794415,9.78881,0.0808059,-0.5671,1.01129,-0.00716005,-0.000804194,0.0978878,1,4.92018e-05,-1.67638e-05,1.02427e-05,0.00984036,-0.00335276,0.00204853,0.99942,-0.000242181,0.0340588,0.000232938,0.0131055,0.495949,-1.01579,35.5625,1,8658,40283064
214,7,0.99942,-0.000242181,0.0340588,0.000232938,-0.715678,-0.0794415,9.78881,0.0808059,-0.5671,1.01129,-0.00716005,-0.000804194,0.0978878,1,4.92018e-05,-1.67638e-05,1.02427e-05,0.00984036,-0.00335276,0.00204853,0.99942,-0.000242181,0.0340588,0.000232938,0.0131055,0.495949,-1.01579,35.5625,1,8658,40283064
214,8,0.99942,-0.000242181,0.0340588,0.000232938,-0.715678,-0.0794415,9.78881,0.0808059,-0.5671,1.01129,-0.00716005,-0.000804194,0.0978878,1,4.92018e-05,-1.67638e-05,1.02427e-05,0.00984036,-0.00335276,0.00204853,0.99942,-0.000242181,0.0340588,0.000232938,0.0131055,0.495949,-1.01579,35.5625,1,8658,40283064
214,9,0.99942,-0.000209712,0.0340597,0.00023929,-0.731019,-0.0810542,9.79059,0.065861,-0.570534,1.01571,-0.007313,-0.000820207,0.0979056,1,4.8235e-05,-1.44468e-05,1.5013e-05,0.009647,-0.00288937,0.0030026,0.99942,-0.000209712,0.0340597,0.00023929,0.0135002,0.496009,-1.01933,35.5625,1,8659,40283164
214,10,0.99942,-0.000209712,0.0340597,0.00023929,-0.731019,-0.0810542,9.79059,0.065861,-0.570534,1.01571,-0.007313,-0.000820207,0.0979056,1,4.8235e-05,-1.44468e-05,1.5013e-05,0.009647,-0.00288937,0.0030026,0.99942,-0.000209712,0.0340597,0.00023929,0.0135002,0.496009,-1.01933,35.5625,1,8659,40283164
214,11,0.99942,-0.000209712,0.0340597,0.00023929,-0.731019,-0.0810542,9.79059,0.065861,-0.570534,1.01571,-0.007313,-0.000820207,0.0979056,1,4.8235e-05,-1.44468e-05,1.5013e-05,0.009647,-0.00288937,0.0030026,0.99942,-0.000209712,0.0340597,0.00023929,0.0135002,0.496009,-1.01933,35.5625,1,8659,40283164
214,12,0.99942,-0.00017448,0.0340616,0.000235608,-0.722481,-0.078804,9.78514,0.071035,-0.569659,1.00785,-0.00722798,-0.000798711,0.097851,1,5.44655e-05,-1.61961e-05,8.19198e-07,0.0108931,-0.00323921,0.00016384,0.99942,-0.00017448,0.0340616,0.000235608,0.0115221,0.495582,-1.02185,35.5625,1,8660,40283264
214,13,0.99942,-0.00017448,0.0340616,0.000235608,-0.722481,-0.078804,9.78514,0.071035,-0.569659,1.00785,-0.00722798,-0.000798711,0.097851,1,5.44655e-05,-1.61961e-05,8.19198e-07,0.0108931,-0.00323921,0.00016384,0.99942,-0.00017448,0.0340616,0.000235608,0.0115221,0.495582,-1.02185,35.5625,1,8660,40283264
214,14,0.99942,-0.00017448,0.0340616,0.000235608,-0.722481,-0.078804,9.78514,0.071035,-0.569659,1.00785,-0.00722798,-0.000798711,0.097851,1,5.44655e-05,-1.61961e-05,8.19198e-07,0.0108931,-0.00323921,0.00016384,0.99942,-0.00017448,0.0340616,0.000235608,0.0115221,0.495582,-1.02185,35.5625,1,8660,40283264
65,1,0.99942,-0.000146537,0.0340598,0.000242693,-0.727597,-0.0768104,9.78281,0.0682058,-0.566202,1.00784,-0.00728019,-0.000777549,0.0978277,1,4.80488e-05,-2.15937e-05,3.01555e-06,0.00960975,-0.00431875,0.000603111,0.99942,-0.000146537,0.0340598,0.000242693,0.0106662,0.493585,-1.01886,35.5625,1,8661,40283364
65,2,0.99942,-0.000146537,0.0340598,0.000242693,-0.727597,-0.0768104,9.78281,0.0682058,-0.566202,1.00784,-0.00728019,-0.000777549,0.0978277,1,4.80488e-05,-2.15937e-05,3.01555e-06,0.00960975,-0.00431875,0.000603111,0.99942,-0.000146537,0.0340598,0.000242693,0.0106662,0.493585,-1.01886,35.5625,1,8661,40283364
65,3,0.99942,-0.000146537,0.0340598,0.000242693,-0.727597,-0.0768104,9.78281,0.0682058,-0.566202,1.00784,-0.00728019,-0.000777549,0.0978277,1,4.80488e-05,-2.15937e-05,3.01555e-06,0.00960975,-0.00431875,0.000603111,0.99942,-0.000146537,0.0340598,0.000242693,0.0106662,0.493585,-1.01886,35.5625,1,8661,40283364
65,4,0.99942,-0.00012716,0.0340481,0.000254538,-0.726776,-0.0900061,9.78167,0.0628635,-0.58523,1.00624,-0.00727296,-0.000906662,0.0978163,1,3.241e-05,-2.67087e-05,1.7924e-05,0.006482,-0.00534173,0.00358481,0.99942,-0.00012716,0.0340481,0.000254538,0.0122453,0.493473,-1.01332,35.5625,1,8662,40283464
66,1,0.99942,-0.00012716,0.0340481,0.000254538,-0.726776,-0.0900061,9.78167,0.0628635,-0.58523,1.00624,-0.00727296,-0.000906662,0.0978163,1,3.241e-05,-2.67087e-05,1.7924e-05,0.006482,-0.00534173,0.00358481,0.99942,-0.00012716,0.0340481,0.000254538,0.0122453,0.493473,-1.01332,35.5625,1,8662,40283464
66,2,0.99942,-0.00012716,0.0340481,0.000254538,-0.726776,-0.0900061,9.78167,0.0628635,-0.58523,1.00624,-0.00727296,-0.000906662,0.0978163,1,3.241e-05,-2.67087e-05,1.7924e-05,0.006482,-0.00534173,0.00358481,0.99942,-0.00012716,0.0340481,0.000254538,0.0122453,0.493473,-1.01332,35.5625,1,8662,40283464
66,3,0.99942,-9.47864e-05,0.0340396,0.000242362,-0.714772,-0.0712833,9.78412,0.0773156,-0.567457,1.00884,-0.00715113,-0.000720972,0.0978409,1,4.09186e-05,-1.75387e-05,9.1978e-06,0.00818371,-0.00350774,0.00183956,0.99942,-9.47864e-05,0.0340396,0.000242362,0.0123031,0.494395,-1.01026,35.5625,1,8663,40283564
66,4,0.99942,-9.47864e-05,0.0340396,0.000242362,-0.714772,-0.0712833,9.78412,0.0773156,-0.567457,1.00884,-0.00715113,-0.000720972,0.0978409,1,4.09186e-05,-1.75387e-05,9.1978e-06,0.00818371,-0.00350774,0.00183956,0.99942,-9.47864e-05,0.0340396,0.000242362,0.0123031,0.494395,-1.01026,35.5625,1,8663,40283564
67,1,0.99942,-9.47864e-05,0.0340396,0.000242362,-0.714772,-0.0712833,9.78412,0.0773156,-0.567457,1.00884,-0.00715113,-0.000720972,0.0978409,1,4.09186e-05,-1.75387e-05,9.1978e-06,0.00818371,-0.00350774,0.00183956,0.99942,-9.47864e-05,0.0340396,0.000242362,0.0123031,0.494395,-1.01026,35.5625,1,8663,40283564
67,2,0.999421,-5.87818e-05,0.0340361,0.000230547,-0.711408,-0.0689216,9.78818,0.0839595,-0.561957,1.01147,-0.0071168,-0.000698363,0.0978816,1,4.63799e-05,-1.39176e-05,4.70132e-06,0.00927598,-0.00278352,0.000940263,0.999421,-5.87818e-05,0.0340361,0.000230547,0.0116996,0.49738,-1.01323,35.5625,1,8664,40283664
67,3,0.999421,-5.87818e-05,0.0340361,0.000230547,-0.711408,-0.0689216,9.78818,0.0839595,-0.561957,1.01147,-0.0071168,-0.000698363,0.0978816,1,4.63799e-05,-1.39176e-05,4.70132e-06,0.00927598,-0.00278352,0.000940263,0.999421,-5.87818e-05,0.0340361,0.000230547,0.0116996,0.49738,-1.01323,35.5625,1,8664,40283664
67,4,0.999421,-5.87818e-05,0.0340361,0.000230547,-0.711408,-0.0689216,9.78818,0.0839595,-0.561957,1.01147,-0.0071168,-0.000698363,0.0978816,1,4.63799e-05,-1.39176e-05,4.70132e-06,0.00927598,-0.00278352,0.000940263,0.999421,-5.87818e-05,0.0340361,0.000230547,0.0116996,0.49738,-1.01323,35.5625,1,8664,40283664
68,1,0.99942,-2.54983e-05,0.0340421,0.00023528,-0.716826,-0.0734459,9.78716,0.0793284,-0.566479,1.00615,-0.00716991,-0.000744287,0.0978715,1,4.95259e-05,-8.50908e-06,9.32035e-06,0.00990517,-0.00170182,0.00186407,0.99942,-2.54983e-05,0.0340421,0.00023528,0.011609,0.496964,-1.01728,35.5625,1,8665,40283764
68,2,0.99942,-2.54983e-05,0.0340421,0.00023528,-0.716826,-0.0734459,9.78716,0.0793284,-0.566479,1.00615,-0.00716991,-0.000744287,0.0978715,1,4.95259e-05,-8.50908e-06,9.32035e-06,0.00990517,-0.00170182,0.00186407,0.99942,-2.54983e-05,0.0340421,0.00023528,0.011609,0.496964,-1.01728,35.5625,1,8665,40283764
68,3,0.99942,-2.54983e-05,0.0340421,0.00023528,-0.716826,-0.0734459,9.78716,0.0793284,-0.566479,1.00615,-0.00716991,-0.000744287,0.0978715,1,4.95259e-05,-8.50908e-06,9.32035e-06,0.00990517,-0.00170182,0.00186407,0.99942,-2.54983e-05,0.0340421,0.00023528,0.011609,0.496964,-1.01728,35.5625,1,8665,40283764
68,4,0.99942,2.66704e-07,0.0340423,0.000261763,-0.72149,-0.0847059,9.77998,0.072173,-0.578381,1.00105,-0.00721823,-0.000856042,0.0977995,1,4.38767e-05,-1.72813e-05,2.77812e-05,0.00877533,-0.00345627,0.00555624,0.99942,2.66704e-07,0.0340423,0.000261763,0.00918204,0.49459,-1.01984,35.5625,1,8666,40283864
219,1,0.99942,2.66704e-07,0.0340423,0.000261763,-0.72149,-0.0847059,9.77998,0.072173,-0.578381,1.00105,-0.00721823,-0.000856042,0.0977995,1,4.38767e-05,-1.72813e-05,2.77812e-05,0.00877533,-0.00345627,0.00555624,0.99942,2.66704e-07,0.0340423,0.000261763,0.00918204,0.49459,-1.01984,35.5625,1,8666,40283864
219,2,0.99942,2.66704e-07,0.0340423,0.000261763,-0.72149,-0.0847059,9.77998,0.072173,-0.578381,1.00105,-0.00721823,-0.000856042,0.0977995,1,4.38767e-05,-1.72813e-05,2.77812e-05,0.00877533,-0.00345627,0.00555624,0.99942,2.66704e-07,0.0340423,0.000261763,0.00918204,0.49459,-1.01984,35.5625,1,8666,40283864
219,3,0.99942,3.81389e-05,0.0340468,0.000278956,-0.729771,-0.0703628,9.78897,0.0656615,-0.565664,1.00839,-0.00730041,-0.000714813,0.0978894,1,5.59017e-05,-1.39064e-05,1.64659e-05,0.0111803,-0.00278129,0.00329318,0.99942,3.81389e-05,0.0340468,0.000278956,0.00974479,0.492599,-1.01787,35.5625,1,8667,40283964
219,4,0.99942,3.81389e-05,0.0340468,0.000278956,-0.729771,-0.0703628,9.78897,0.0656615,-0.565664,1.00839,-0.00730041,-0.000714813,0.0978894,1,5.59017e-05,-1.39064e-05,1.64659e-05,0.0111803,-0.00278129,0.00329318,0.99942,3.81389e-05,0.0340468,0.000278956,0.00974479,0.492599,-1.01787,35.5625,1,8667,40283964
219,5,0.99942,3.81389e-05,0.0340468,0.000278956,-0.729771,-0.0703628,9.78897,0.0656615,-0.565664,1.00839,-0.00730041,-0.000714813,0.0978894,1,5.59017e-05,-1.39064e-05,1.64659e-05,0.0111803,-0.00278129,0.00329318,0.99942,3.81389e-05,0.0340468,0.000278956,0.00974479,0.492599,-1.01787,35.5625,1,8667,40283964
219,6,0.99942,5.79212e-05,0.0340501,0.000276008,-0.715424,-0.0788215,9.78202,0.0833967,-0.575151,1.00606,-0.0071568,-0.000795364,0.09782,1,3.60739e-05,-1.31073e-05,6.38143e-06,0.00721479,-0.00262146,0.00127629,0.99942,5.79212e-05,0.0340501,0.000276008,0.00935002,0.49254,-1.01433,35.5625,1,8668,40284064
220,1,0.99942,5.79212e-05,0.0340501,0.000276008,-0.715424,-0.0788215,9.78202,0.0833967,-0.575151,1.00606,-0.0071568,-0.000795364,0.09782,1,3.60739e-05,-1.31073e-05,6.38143e-06,0.00721479,-0.00262146,0.00127629,0.99942,5.79212e-05,0.0340501,0.000276008,0.00935002,0.49254,-1.01433,35.5625,1,8668,40284064
220,2,0.99942,5.79212e-05,0.0340501,0.000276008,-0.715424,-0.0788215,9.78202,0.0833967,-0.575151,1.00606,-0.0071568,-0.000795364,0.09782,1,3.60739e-05,-1.31073e-05,6.38143e-06,0.00721479,-0.00262146,0.00127629,0.99942,5.79212e-05,0.0340501,0.000276008,0.00935002,0.49254,-1.01433,35.5625,1,8668,40284064
220,3,0.99942,9.59054e-05,0.0340589,0.000262458,-0.714213,-0.0705315,9.7831,0.0784285,-0.564722,1.00711,-0.00714312,-0.000715451,0.0978309,1,5.19995e-05,-5.03275e-06,-2.70275e-06,0.0103999,-0.00100655,-0.00054055,0.99942,9.59054e-05,0.0340589,0.000262458,0.0103212,0.494935,-1.01226,35.5625,1,8669,40284164
220,4,0.99942,9.59054e-05,0.0340589,0.000262458,-0.714213,-0.0705315,9.7831,0.0784285,-0.564722,1.00711,-0.00714312,-0.000715451,0.0978309,1,5.19995e-05,-5.03275e-06,-2.70275e-06,0.0103999,-0.00100655,-0.00054055,0.99942,9.59054e-05,0.0340589,0.000262458,0.0103212,0.494935,-1.01226,35.5625,1,8669,40284164
220,5,0.99942,9.59054e-05,0.0340589,0.000262458,-0.714213,-0.0705315,9.7831,0.0784285,-0.564722,1.00711,-0.00714312,-0.000715451,0.0978309,1,5.19995e-05,-5.03275e-06,-2.70275e-06,0.0103999,-0.00100655,-0.00054055,0.99942,9.59054e-05,0.0340589,0.000262458,0.0103212,0.494935,-1.01226,35.5625,1,8669,40284164
220,6,0.99942,0.000136879,0.0340558,0.000264846,-0.70862,-0.074564,9.78643,0.0829868,-0.567663,1.00768,-0.0070895,-0.00075678,0.0978639,1,5.60321e-05,-1.69594e-05,1.2178e-05,0.0112064,-0.00339188,0.0024356,0.99942,0.000136879,0.0340558,0.000264846,0.0111449,0.498883,-1.01521,35.5625,1,8670,40284264
220,7,0.99942,0.000136879,0.0340558,0.000264846,-0.70862,-0.074564,9.78643,0.0829868,-0.567663,1.00768,-0.0070895,-0.00075678,0.0978639,1,5.60321e-05,-1.69594e-05,1.2178e-05,0.0112064,-0.00339188,0.0024356,0.99942,0.000136879,0.0340558,0.000264846,0.0111449,0.498883,-1.01521,35.5625,1,8670,40284264
220,8,0.99942,0.000136879,0.0340558,0.000264846,-0.70862,-0.074564,9.78643,0.0829868,-0.567663,1.00768,-0.0070895,-0.00075678,0.0978639,1,5.60321e-05,-1.69594e-05,1.2178e-05,0.0112064,-0.00339188,0.0024356,0.99942,0.000136879,0.0340558,0.000264846,0.0111449,0.498883,-1.01521,35.5625,1,8670,40284264
221,1,0.99942,0.000165045,0.0340467,0.000273626,-0.705386,-0.0849159,9.78801,0.0886327,-0.582332,1.00209,-0.00705881,-0.000858765,0.0978797,1,4.81847e-05,-2.53694e-05,1.23158e-05,0.00963694,-0.00507388,0.00246316,0.99942,0.000165045,0.0340467,0.000273626,0.0129992,0.497955,-1.01877,35.5625,1,8671,40284364
221,2,0.99942,0.000165045,0.0340467,0.000273626,-0.705386,-0.0849159,9.78801,0.0886327,-0.582332,1.00209,-0.00705881,-0.000858765,0.0978797,1,4.81847e-05,-2.53694e-05,1.23158e-05,0.00963694,-0.00507388,0.00246316,0.99942,0.000165045,0.0340467,0.000273626,0.0129992,0.497955,-1.01877,35.5625,1,8671,40284364
221,3,0.99942,0.000165045,0.0340467,0.000273626,-0.705386,-0.0849159,9.78801,0.0886327,-0.582332,1.00209,-0.00705881,-0.000858765,0.0978797,1,4.81847e-05,-2.53694e-05,1.23158e-05,0.00963694,-0.00507388,0.00246316,0.99942,0.000165045,0.0340467,0.000273626,0.0129992,0.497955,-1.01877,35.5625,1,8671,40284364
221,4,0.99942,0.000195154,0.0340584,0.000273732,-0.685269,-0.0814992,9.77772,0.104974,-0.580701,0.995811,-0.00685404,-0.000825156,0.0977771,1,5.15618e-05,-6.94724e-06,5.88038e-06,0.0103124,-0.00138945,0.00117608,0.99942,0.000195154,0.0340584,0.000273732,0.0120237,0.495081,-1.02136,35.5625,1,8672,40284464
221,5,0.99942,0.000195154,0.0340584,0.000273732,-0.685269,-0.0814992,9.77772,0.104974,-0.580701,0.995811,-0.00685404,-0.000825156,0.0977771,1,5.15618e-05,-6.94724e-06,5.88038e-06,0.0103124,-0.00138945,0.00117608,0.99942,0.000195154,0.0340584,0.000273732,0.0120237,0.495081,-1.02136,35.5625,1,8672,40284464
221,6,0.99942,0.000195154,0.0340584,0.000273732,-0.685269,-0.0814992,9.77772,0.104974,-0.580701,0.995811,-0.00685404,-0.000825156,0.0977771,1,5.15618e-05,-6.94724e-06,5.88038e-06,0.0103124,-0.00138945,0.00117608,0.99942,0.000195154,0.0340584,0.000273732,0.0120237,0.495081,-1.02136,35.5625,1,8672,40284464
221,7,0.999419,0.000219411,0.0340717,0.000278286,-0.702273,-0.0719209,9.78707,0.0953069,-0.575567,1.01367,-0.00702383,-0.000728183,0.0978706,1,4.51356e-05,-5.69981e-06,9.91666e-06,0.00902712,-0.00113996,0.00198333,0.999419,0.000219411,0.0340717,0.000278286,0.00927981,0.491627,-1.01789,35.5625,1,8673,40284564
221,8,0.999419,0.000219411,0.0340717,0.000278286,-0.702273,-0.0719209,9.78707,0.0953069,-0.575567,1.01367,-0.00702383,-0.000728183,0.0978706,1,4.51356e-05,-5.69981e-06,9.91666e-06,0.00902712,-0.00113996,0.00198333,0.999419,0.000219411,0.0340717,0.000278286,0.00927981,0.491627,-1.01789,35.5625,1,8673,40284564
72,1,0.999419,0.000219411,0.0340717,0.000278286,-0.702273,-0.0719209,9.78707,0.0953069,-0.575567,1.01367,-0.00702383,-0.000728183,0.0978706,1,4.51356e-05,-5.69981e-06,9.91666e-06,0.00902712,-0.00113996,0.00198333,0.999419,0.000219411,0.0340717,0.000278286,0.00927981,0.491627,-1.01789,35.5625,1,8673,40284564
72,2,0.999419,0.00025096,0.034079,0.000269389,-0.721116,-0.0856564,9.78946,0.0782896,-0.590174,1.01683,-0.00721268,-0.000865712,0.0978944,1,4.67282e-05,-7.7521e-06,-8.02732e-08,0.00934564,-0.00155042,-1.60546e-05,0.999419,0.00025096,0.034079,0.000269389,0.00988002,0.491055,-1.01336,35.5625,1,8674,40284664
72,3,0.999419,0.00025096,0.034079,0.000269389,-0.721116,-0.0856564,9.78946,0.0782896,-0.590174,1.01683,-0.00721268,-0.000865712,0.0978944,1,4.67282e-05,-7.7521e-06,-8.02732e-08,0.00934564,-0.00155042,-1.60546e-05,0.999419,0.00025096,0.034079,0.000269389,0.00988002,0.491055,-1.01336,35.5625,1,8674,40284664
72,4,0.999419,0.00025096,0.034079,0.000269389,-0.721116,-0.0856564,9.78946,0.0782896,-0.590174,1.01683,-0.00721268,-0.000865712,0.0978944,1,4.67282e-05,-7.7521e-06,-8.02732e-08,0.00934564,-0.00155042,-1.60546e-05,0.999419,0.00025096,0.034079,0.000269389,0.00988002,0.491055,-1.01336,35.5625,1,8674,40284664
73,1,0.999419,0.000289172,0.0340783,0.0002655,-0.726039,-0.0760808,9.78483,0.0662785,-0.583415,1.00354,-0.00726311,-0.000771135,0.097848,1,5.19957e-05,-1.39901e-05,1.04162e-05,0.0103991,-0.00279802,0.00208325,0.999419,0.000289172,0.0340783,0.0002655,0.0127145,0.494924,-1.01278,35.5625,1,8675,40284764
73,2,0.999419,0.000289172,0.0340783,0.0002655,-0.726039,-0.0760808,9.78483,0.0662785,-0.583415,1.00354,-0.00726311,-0.000771135,0.097848,1,5.19957e-05,-1.39901e-05,1.04162e-05,0.0103991,-0.00279802,0.00208325,0.999419,0.000289172,0.0340783,0.0002655,0.0127145,0.494924,-1.01278,35.5625,1,8675,40284764
73,3,0.999419,0.000289172,0.0340783,0.0002655,-0.726039,-0.0760808,9.78483,0.0662785,-0.583415,1.00354,-0.00726311,-0.000771135,0.097848,1,5.19957e-05,-1.39901e-05,1.04162e-05,0.0103991,-0.00279802,0.00208325,0.999419,0.000289172,0.0340783,0.0002655,0.0127145,0.494924,-1.01278,35.5625,1,8675,40284764
73,4,0.999418,0.000326594,0.0340967,0.000257642,-0.718109,-0.0678012,9.78178,0.0812608,-0.572257,1.00127,-0.00718035,-0.000689084,0.0978178,1,5.62426e-05,3.71575e-06,4.79834e-06,0.0112485,0.000743149,0.000959668,0.999418,0.000326594,0.0340967,0.000257642,0.0130651,0.498388,-1.01574,35.5625,1,8676,40284864
74,1,0.999418,0.000326594,0.0340967,0.000257642,-0.718109,-0.0678012,9.78178,0.0812608,-0.572257,1.00127,-0.00718035,-0.000689084,0.0978178,1,5.62426e-05,3.71575e-06,4.79834e-06,0.0112485,0.000743149,0.000959668,0.999418,0.000326594,0.0340967,0.000257642,0.0130651,0.498388,-1.01574,35.5625,1,8676,40284864
74,2,0.999418,0.000326594,0.0340967,0.000257642,-0.718109,-0.0678012,9.78178,0.0812608,-0.572257,1.00127,-0.00718035,-0.000689084,0.0978178,1,5.62426e-05,3.71575e-06,4.79834e-06,0.0112485,0.000743149,0.000959668,0.999418,0.000326594,0.0340967,0.000257642,0.0130651,0.498388,-1.01574,35.5625,1,8676,40284864
74,3,0.999418,0.000357744,0.0341069,0.000261619,-0.720431,-0.0687664,9.77332,0.0716506,-0.576359,0.997014,-0.00720554,-0.000698218,0.097733,1,5.32642e-05,-6.37216e-06,9.8926e-06,0.0106528,-0.00127443,0.00197852,0.999418,0.000357744,0.0341069,0.000261619,0.0110585,0.498946,-1.01874,35.5625,1,8677,40284964
74,4,0.999418,0.000357744,0.0341069,0.000261619,-0.720431,-0.0687664,9.77332,0.0716506,-0.576359,0.997014,-0.00720554,-0.000698218,0.097733,1,5.32642e-05,-6.37216e-06,9.8926e-06,0.0106528,-0.00127443,0.00197852,0.999418,0.000357744,0.0341069,0.000261619,0.0110585,0.498946,-1.01874,35.5625,1,8677,40284964
75,1,0.999418,0.000357744,0.0341069,0.000261619,-0.720431,-0.0687664,9.77332,0.0716506,-0.576359,0.997014,-0.00720554,-0.000698218,0.097733,1,5.32642e-05,-6.37216e-06,9.8926e-06,0.0106528,-0.00127443,0.00197852,0.999418,0.000357744,0.0341069,0.000261619,0.0110585,0.498946,-1.01874,35.5625,1,8677,40284964
75,2,0.999418,0.000391663,0.0341014,0.000251109,-0.718088,-0.0725801,9.78651,0.0767851,-0.57692,1.00561,-0.00718545,-0.000736766,0.0978647,1,5.67994e-05,-2.32591e-05,-1.06134e-05,0.0113599,-0.00465181,-0.00212267,0.999418,0.000391663,0.0341014,0.000251109,0.0100835,0.497518,-1.02029,35.5625,1,8678,40285064
75,3,0.999418,0.000391663,0.0341014,0.000251109,-0.718088,-0.0725801,9.78651,0.0767851,-0.57692,1.00561,-0.00718545,-0.000736766,0.0978647,1,5.67994e-05,-2.32591e-05,-1.06134e-05,0.0113599,-0.00465181,-0.00212267,0.999418,0.000391663,0.0341014,0.000251109,0.0100835,0.497518,-1.02029,35.5625,1,8678,40285064
75,4,0.999418,0.000391663,0.0341014,0.000251109,-0.718088,-0.0725801,9.78651,0.0767851,-0.57692,1.00561,-0.00718545,-0.000736766,0.0978647,1,5.67994e-05,-2.32591e-05,-1.06134e-05,0.0113599,-0.00465181,-0.00212267,0.999418,0.000391663,0.0341014,0.000251109,0.0100835,0.497518,-1.02029,35.5625,1,8678,40285064
76,1,0.999418,0.000418919,0.034101,0.000257976,-0.714336,-0.0757207,9.78951,0.0827035,-0.581166,1.00912,-0.00714696,-0.000766883,0.0978947,1,4.87994e-05,-1.84644e-05,8.43773e-06,0.00975989,-0.00369288,0.00168755,0.999418,0.000418919,0.034101,0.000257976,0.0102344,0.493553,-1.01684,35.5625,1,8679,40285164
76,2,0.999418,0.000418919,0.034101,0.000257976,-0.714336,-0.0757207,9.78951,0.0827035,-0.581166,1.00912,-0.00714696,-0.000766883,0.0978947,1,4.87994e-05,-1.84644e-05,8.43773e-06,0.00975989,-0.00369288,0.00168755,0.999418,0.000418919,0.034101,0.000257976,0.0102344,0.493553,-1.01684,35.5625,1,8679,40285164
76,3,0.999418,0.000418919,0.034101,0.000257976,-0.714336,-0.0757207,9.78951,0.0827035,-0.581166,1.00912,-0.00714696,-0.000766883,0.0978947,1,4.87994e-05,-1.84644e-05,8.43773e-06,0.00975989,-0.00369288,0.00168755,0.999418,0.000418919,0.034101,0.000257976,0.0102344,0.493553,-1.01684,35.5625,1,8679,40285164
76,4,0.999418,0.000435168,0.0341073,0.000262108,-0.716797,-0.0748154,9.78444,0.0821586,-0.580609,1.00542,-0.00716979,-0.00075504,0.0978443,1,3.39934e-05,-9.44926e-06,1.63073e-05,0.00679867,-0.00188985,0.00326145,0.999418,0.000435168,0.0341073,0.000262108,0.0112664,0.493012,-1.01433,35.5625,1,8680,40285264
77,1,0.999418,0.000435168,0.0341073,0.000262108,-0.716797,-0.0748154,9.78444,0.0821586,-0.580609,1.00542,-0.00716979,-0.00075504,0.0978443,1,3.39934e-05,-9.44926e-06,1.63073e-05,0.00679867,-0.00188985,0.00326145,0.999418,0.000435168,0.0341073,0.000262108,0.0112664,0.493012,-1.01433,35.5625,1,8680,40285264
77,2,0.999418,0.000435168,0.0341073,0.000262108,-0.716797,-0.0748154,9.78444,0.0821586,-0.580609,1.00542,-0.00716979,-0.00075504,0.0978443,1,3.39934e-05,-9.44926e-06,1.63073e-05,0.00679867,-0.00188985,0.00326145,0.999418,0.000435168,0.0341073,0.000262108,0.0112664,0.493012,-1.01433,35.5625,1,8680,40285264
77,3,0.999418,0.000464172,0.0341149,0.000256466,-0.70759,-0.0889724,9.78358,0.0906957,-0.596209,1.00852,-0.00707749,-0.000898996,0.0978356,1,4.684e-05,-8.18983e-06,7.52697e-06,0.00936799,-0.00163797,0.00150539,0.999418,0.000464172,0.0341149,0.000256466,0.0132118,0.493944,-1.0128,35.5625,1,8681,40285364
77,4,0.999418,0.000464172,0.0341149,0.000256466,-0.70759,-0.0889724,9.78358,0.0906957,-0.596209,1.00852,-0.00707749,-0.000898996,0.0978356,1,4.684e-05,-8.18983e-06,7.52697e-06,0.00936799,-0.00163797,0.00150539,0.999418,0.000464172,0.0341149,0.000256466,0.0132118,0.493944,-1.0128,35.5625,1,8681,40285364
77,5,0.999418,0.000464172,0.0341149,0.000256466,-0.70759,-0.0889724,9.78358,0.0906957,-0.596209,1.00852,-0.00707749,-0.000898996,0.0978356,1,4.684e-05,-8.18983e-06,7.52697e-06,0.00936799,-0.00163797,0.00150539,0.999418,0.000464172,0.0341149,0.000256466,0.0132118,0.493944,-1.0128,35.5625,1,8681,40285364
77,6,0.999417,0.000486979,0.0341305,0.000257956,-0.71549,-0.0918846,9.78461,0.0833119,-0.593562,1.00654,-0.00715498,-0.000927339,0.097846,1,4.23341e-05,-5.62867e-07,1.45586e-05,0.00846682,-0.000112573,0.00291172,0.999417,0.000486979,0.0341305,0.000257956,0.0121926,0.495921,-1.01377,35.5625,1,8682,40285464
229,1,0.999417,0.000486979,0.0341305,0.000257956,-0.71549,-0.0918846,9.78461,0.0833119,-0.593562,1.00654,-0.00715498,-0.000927339,0.097846,1,4.23341e-05,-5.62867e-07,1.45586e-05,0.00846682,-0.000112573,0.00291172,0.999417,0.000486979,0.0341305,0.000257956,0.0121926,0.495921,-1.01377,35.5625,1,8682,40285464
229,2,0.999417,0.000486979,0.0341305,0.000257956,-0.71549,-0.0918846,9.78461,0.0833119,-0.593562,1.00654,-0.00715498,-0.000927339,0.097846,1,4.23341e-05,-5.62867e-07,1.45586e-05,0.00846682,-0.000112573,0.00291172,0.999417,0.000486979,0.0341305,0.000257956,0.0121926,0.495921,-1.01377,35.5625,1,8682,40285464
229,3,0.999417,0.000512857,0.0341376,0.000255445,-0.718212,-0.0778288,9.78273,0.0742008,-0.584019,1.00136,-0.00718395,-0.000787624,0.0978271,1,4.74285e-05,-9.37662e-06,3.91151e-06,0.00948571,-0.00187533,0.000782303,0.999417,0.000512857,0.0341376,0.000255445,0.0125218,0.496992,-1.0193,35.5625,1,8683,40285564
229,4,0.999417,0.000512857,0.0341376,0.000255445,-0.718212,-0.0778288,9.78273,0.0742008,-0.584019,1.00136,-0.00718395,-0.000787624,0.0978271,1,4.74285e-05,-9.37662e-06,3.91151e-06,0.00948571,-0.00187533,0.000782303,0.999417,0.000512857,0.0341376,0.000255445,0.0125218,0.496992,-1.0193,35.5625,1,8683,40285564
229,5,0.999417,0.000512857,0.0341376,0.000255445,-0.718212,-0.0778288,9.78273,0.0742008,-0.584019,1.00136,-0.00718395,-0.000787624,0.0978271,1,4.74285e-05,-9.37662e-06,3.91151e-06,0.00948571,-0.00187533,0.000782303,0.999417,0.000512857,0.0341376,0.000255445,0.0125218,0.496992,-1.0193,35.5625,1,8683,40285564
229,6,0.999416,0.00055817,0.0341525,0.000249492,-0.726823,-0.0710827,9.78521,0.0689095,-0.578201,1.00287,-0.00726902,-0.000724638,0.0978519,1,7.08047e-05,-4.00283e-06,-3.15142e-06,0.0141609,-0.000800566,-0.000630284,0.999416,0.00055817,0.0341525,0.000249492,0.0115302,0.495094,-1.02186,35.5625,1,8684,40285664
229,7,0.999416,0.00055817,0.0341525,0.000249492,-0.726823,-0.0710827,9.78521,0.0689095,-0.578201,1.00287,-0.00726902,-0.000724638,0.0978519,1,7.08047e-05,-4.00283e-06,-3.15142e-06,0.0141609,-0.000800566,-0.000630284,0.999416,0.00055817,0.0341525,0.000249492,0.0115302,0.495094,-1.02186,35.5625,1,8684,40285664
229,8,0.999416,0.00055817,0.0341525,0.000249492,-0.726823,-0.0710827,9.78521,0.0689095,-0.578201,1.00287,-0.00726902,-0.000724638,0.0978519,1,7.08047e-05,-4.00283e-06,-3.15142e-06,0.0141609,-0.000800566,-0.000630284,0.999416,0.00055817,0.0341525,0.000249492,0.0115302,0.495094,-1.02186,35.5625,1,8684,40285664
79,1,0.999417,0.000589269,0.0341402,0.000246562,-0.732945,-0.078235,9.78657,0.0630824,-0.585662,1.0101,-0.00733569,-0.000793269,0.0978651,1,5.5885e-05,-3.1879e-05,-1.33732e-06,0.011177,-0.0063758,-0.000267465,0.999417,0.000589269,0.0341402,0.000246562,0.0102344,0.493553,-1.01684,35.5625,1,8685,40285764
79,2,0.999417,0.000589269,0.0341402,0.000246562,-0.732945,-0.078235,9.78657,0.0630824,-0.585662,1.0101,-0.00733569,-0.000793269,0.0978651,1,5.5885e-05,-3.1879e-05,-1.33732e-06,0.011177,-0.0063758,-0.000267465,0.999417,0.000589269,0.0341402,0.000246562,0.0102344,0.493553,-1.01684,35.5625,1,8685,40285764
79,3,0.999417,0.000589269,0.0341402,0.000246562,-0.732945,-0.078235,9.78657,0.0630824,-0.585662,1.0101,-0.00733569,-0.000793269,0.0978651,1,5.5885e-05,-3.1879e-05,-1.33732e-06,0.011177,-0.0063758,-0.000267465,0.999417,0.000589269,0.0341402,0.000246562,0.0102344,0.493553,-1.01684,35.5625,1,8685,40285764
79,4,0.999416,0.000598899,0.0341583,0.000243932,-0.730432,-0.083972,9.79021,0.0682188,-0.593116,1.01345,-0.00730379,-0.000845429,0.0979021,1,2.87574e-05,2.64117e-06,5.36433e-06,0.00575148,0.000528234,0.00107287,0.999416,0.000598899,0.0341583,0.000243932,0.00986053,0.494442,-1.01177,35.5625,1,8686,40285864
81,1,0.999416,0.000598899,0.0341583,0.000243932,-0.730432,-0.083972,9.79021,0.0682188,-0.593116,1.01345,-0.00730379,-0.000845429,0.0979021,1,2.87574e-05,2.64117e-06,5.36433e-06,0.00575148,0.000528234,0.00107287,0.999416,0.000598899,0.0341583,0.000243932,0.00986053,0.494442,-1.01177,35.5625,1,8686,40285864
81,2,0.999416,0.000598899,0.0341583,0.000243932,-0.730432,-0.083972,9.79021,0.0682188,-0.593116,1.01345,-0.00730379,-0.000845429,0.0979021,1,2.87574e-05,2.64117e-06,5.36433e-06,0.00575148,0.000528234,0.00107287,0.999416,0.000598899,0.0341583,0.000243932,0.00986053,0.494442,-1.01177,35.5625,1,8686,40285864
81,3,0.999416,0.000626878,0.0341538,0.00023528,-0.718713,-0.0870241,9.78673,0.0775702,-0.594644,1.01002,-0.00719076,-0.000879264,0.0978669,1,4.59777e-05,-1.85291e-05,1.65042e-06,0.00919555,-0.00370583,0.000330083,0.999416,0.000626878,0.0341538,0.00023528,0.0117447,0.496865,-1.01172,35.5625,1,8687,40285964
81,4,0.999416,0.000626878,0.0341538,0.00023528,-0.718713,-0.0870241,9.78673,0.0775702,-0.594644,1.01002,-0.00719076,-0.000879264,0.0978669,1,4.59777e-05,-1.85291e-05,1.65042e-06,0.00919555,-0.00370583,0.000330083,0.999416,0.000626878,0.0341538,0.00023528,0.0117447,0.496865,-1.01172,35.5625,1,8687,40285964
82,1,0.999416,0.000626878,0.0341538,0.00023528,-0.718713,-0.0870241,9.78673,0.0775702,-0.594644,1.01002,-0.00719076,-0.000879264,0.0978669,1,4.59777e-05,-1.85291e-05,1.65042e-06,0.00919555,-0.00370583,0.000330083,0.999416,0.000626878,0.0341538,0.00023528,0.0117447,0.496865,-1.01172,35.5625,1,8687,40285964
82,2,0.999417,0.000640694,0.0341435,0.000228637,-0.715917,-0.0867352,9.78434,0.0822072,-0.59619,1.00048,-0.00716438,-0.000874439,0.097843,1,3.60571e-05,-2.66861e-05,2.19056e-06,0.00721142,-0.00533721,0.000438112,0.999417,0.000640694,0.0341435,0.000228637,0.0130855,0.497891,-1.01524,35.5625,1,8688,40286064
82,3,0.999417,0.000640694,0.0341435,0.000228637,-0.715917,-0.0867352,9.78434,0.0822072,-0.59619,1.00048,-0.00716438,-0.000874439,0.097843,1,3.60571e-05,-2.66861e-05,2.19056e-06,0.00721142,-0.00533721,0.000438112,0.999417,0.000640694,0.0341435,0.000228637,0.0130855,0.497891,-1.01524,35.5625,1,8688,40286064
82,4,0.999417,0.000640694,0.0341435,0.000228637,-0.715917,-0.0867352,9.78434,0.0822072,-0.59619,1.00048,-0.00716438,-0.000874439,0.097843,1,3.60571e-05,-2.66861e-05,2.19056e-06,0.00721142,-0.00533721,0.000438112,0.999417,0.000640694,0.0341435,0.000228637,0.0130855,0.497891,-1.01524,35.5625,1,8688,40286064
82,5,0.999417,0.000655784,0.0341396,0.000236782,-0.704118,-0.0811741,9.78464,0.0937442,-0.594975,1.00271,-0.00704546,-0.000819562,0.0978461,1,3.89012e-05,-2.19645e-05,1.47373e-05,0.00778025,-0.00439291,0.00294745,0.999417,0.000655784,0.0341396,0.000236782,0.0120692,0.496011,-1.01881,35.5625,1,8689,40286164
82,6,0.999417,0.000655784,0.0341396,0.000236782,-0.704118,-0.0811741,9.78464,0.0937442,-0.594975,1.00271,-0.00704546,-0.000819562,0.0978461,1,3.89012e-05,-2.19645e-05,1.47373e-05,0.00778025,-0.00439291,0.00294745,0.999417,0.000655784,0.0341396,0.000236782,0.0120692,0.496011,-1.01881,35.5625,1,8689,40286164
83,1,0.999417,0.000655784,0.0341396,0.000236782,-0.704118,-0.0811741,9.78464,0.0937442,-0.594975,1.00271,-0.00704546,-0.000819562,0.0978461,1,3.89012e-05,-2.19645e-05,1.47373e-05,0.00778025,-0.00439291,0.00294745,0.999417,0.000655784,0.0341396,0.000236782,0.0120692,0.496011,-1.01881,35.5625,1,8689,40286164
83,2,0.999417,0.000687746,0.0341417,0.000247255,-0.705942,-0.0738542,9.78573,0.0878277,-0.587096,0.999661,-0.00706262,-0.000749769,0.097857,1,5.62221e-05,-1.65066e-05,1.58625e-05,0.0112444,-0.00330133,0.00317249,0.999417,0.000687746,0.0341417,0.000247255,0.0111022,0.494095,-1.02037,35.5625,1,8690,40286264
83,3,0.999417,0.000687746,0.0341417,0.000247255,-0.705942,-0.0738542,9.78573,0.0878277,-0.587096,0.999661,-0.00706262,-0.000749769,0.097857,1,5.62221e-05,-1.65066e-05,1.58625e-05,0.0112444,-0.00330133,0.00317249,0.999417,0.000687746,0.0341417,0.000247255,0.0111022,0.494095,-1.02037,35.5625,1,8690,40286264
83,4,0.999417,0.000687746,0.0341417,0.000247255,-0.705942,-0.0738542,9.78573,0.0878277,-0.587096,0.999661,-0.00706262,-0.000749769,0.097857,1,5.62221e-05,-1.65066e-05,1.58625e-05,0.0112444,-0.00330133,0.00317249,0.999417,0.000687746,0.0341417,0.000247255,0.0111022,0.494095,-1.02037,35.5625,1,8690,40286264
84,1,0.999417,0.000720871,0.0341427,0.00024726,-0.714405,-0.0738713,9.78342,0.081049,-0.58932,1.00644,-0.00714743,-0.000750031,0.0978339,1,5.74271e-05,-1.73508e-05,5.69968e-06,0.0114854,-0.00347017,0.00113994,0.999417,0.000720871,0.0341427,0.00024726,0.0112124,0.491124,-1.01791,35.5625,1,8691,40286364
84,2,0.999417,0.000720871,0.0341427,0.00024726,-0.714405,-0.0738713,9.78342,0.081049,-0.58932,1.00644,-0.00714743,-0.000750031,0.0978339,1,5.74271e-05,-1.73508e-05,5.69968e-06,0.0114854,-0.00347017,0.00113994,0.999417,0.000720871,0.0341427,0.00024726,0.0112124,0.491124,-1.01791,35.5625,1,8691,40286364
84,3,0.999417,0.000720871,0.0341427,0.00024726,-0.714405,-0.0738713,9.78342,0.081049,-0.58932,1.00644,-0.00714743,-0.000750031,0.0978339,1,5.74271e-05,-1.73508e-05,5.69968e-06,0.0114854,-0.00347017,0.00113994,0.999417,0.000720871,0.0341427,0.00024726,0.0112124,0.491124,-1.01791,35.5625,1,8691,40286364
84,4,0.999416,0.000743602,0.0341523,0.000254295,-0.717094,-0.0833398,9.78709,0.082106,-0.59318,1.00836,-0.00717235,-0.000842297,0.0978707,1,4.40087e-05,-7.37468e-06,1.9824e-05,0.00880175,-0.00147494,0.00396479,0.999416,0.000743602,0.0341523,0.000254295,0.0103365,0.491069,-1.01437,35.5625,1,8692,40286464
85,1,0.999416,0.000743602,0.0341523,0.000254295,-0.717094,-0.0833398,9.78709,0.082106,-0.59318,1.00836,-0.00717235,-0.000842297,0.0978707,1,4.40087e-05,-7.37468e-06,1.9824e-05,0.00880175,-0.00147494,0.00396479,0.999416,0.000743602,0.0341523,0.000254295,0.0103365,0.491069,-1.01437,35.5625,1,8692,40286464
85,2,0.999416,0.000743602,0.0341523,0.000254295,-0.717094,-0.0833398,9.78709,0.082106,-0.59318,1.00836,-0.00717235,-0.000842297,0.0978707,1,4.40087e-05,-7.37468e-06,1.9824e-05,0.00880175,-0.00147494,0.00396479,0.999416,0.000743602,0.0341523,0.000254295,0.0103365,0.491069,-1.01437,35.5625,1,8692,40286464
85,3,0.999416,0.000772251,0.0341573,0.000255428,-0.727986,-0.0826247,9.78208,0.0737338,-0.592956,1.00543,-0.00728185,-0.000835904,0.0978206,1,4.84568e-05,-1.0304e-05,1.21871e-05,0.00969136,-0.0020608,0.00243742,0.999416,0.000772251,0.0341573,0.000255428,0.0122291,0.494449,-1.01329,35.5625,1,8693,40286564
